Time (s),Acceleration x (m/s^2),Acceleration y (m/s^2),Acceleration z (m/s^2),Datetime
0.0,-4.400400639,5.670092583,5.344369411,2024-06-05 19:18:04.000000
0.008919586,-3.967000723,5.766104221,5.907280922,2024-06-05 19:18:04.008920
0.048919586,0.0,0.0,0.0,2024-06-05 19:18:04.048920
0.088919586,-3.382553816,4.599304199,8.099106789,2024-06-05 19:18:04.088920
0.128919586,-2.872284412,5.538486958,7.222435951,2024-06-05 19:18:04.128920
0.168919586,-2.872284412,5.538486958,7.222435951,2024-06-05 19:18:04.168920
0.208919586,-2.872284412,5.538486958,7.222435951,2024-06-05 19:18:04.208920
0.248919586,-2.872284412,5.538486958,7.222435951,2024-06-05 19:18:04.248920
0.288919586,-2.872284412,5.538486958,7.222435951,2024-06-05 19:18:04.288920
0.328919586,-2.872284412,5.538486958,7.222435951,2024-06-05 19:18:04.328920
0.368919586,-2.347658157,6.318248272,8.051250458,2024-06-05 19:18:04.368920
0.408919586,-2.347658157,6.318248272,8.051250458,2024-06-05 19:18:04.408920
0.448919586,-2.347658157,6.318248272,8.051250458,2024-06-05 19:18:04.448920
0.488919586,-2.347658157,6.318248272,8.051250458,2024-06-05 19:18:04.488920
0.528919586,-2.347658157,6.318248272,8.051250458,2024-06-05 19:18:04.528920
0.568919586,-2.347658157,6.318248272,8.051250458,2024-06-05 19:18:04.568920
0.608919586,-2.347658157,6.318248272,8.051250458,2024-06-05 19:18:04.608920
0.648919586,-2.347658157,6.318248272,8.051250458,2024-06-05 19:18:04.648920
0.688919586,-2.347658157,6.318248272,8.051250458,2024-06-05 19:18:04.688920
0.728919586,-2.347658157,6.318248272,8.051250458,2024-06-05 19:18:04.728920
0.768919586,-2.347658157,6.318248272,8.051250458,2024-06-05 19:18:04.768920
0.808919586,-2.347658157,6.318248272,8.051250458,2024-06-05 19:18:04.808920
0.848919586,-2.347658157,6.318248272,8.051250458,2024-06-05 19:18:04.848920
0.888919586,-2.347658157,6.318248272,8.051250458,2024-06-05 19:18:04.888920
0.928919586,-2.347658157,6.318248272,8.051250458,2024-06-05 19:18:04.928920
0.968919586,-2.347658157,6.318248272,8.051250458,2024-06-05 19:18:04.968920
1.008919586,-2.347658157,6.318248272,8.051250458,2024-06-05 19:18:05.008920
1.048919586,-2.347658157,6.318248272,8.051250458,2024-06-05 19:18:05.048920
1.088919586,-2.347658157,6.318248272,8.051250458,2024-06-05 19:18:05.088920
1.128919586,-2.347658157,6.318248272,8.051250458,2024-06-05 19:18:05.128920
1.168919586,-2.347658157,6.318248272,8.051250458,2024-06-05 19:18:05.168920
1.208919586,-2.347658157,6.318248272,8.051250458,2024-06-05 19:18:05.208920
1.248919586,-2.347658157,6.318248272,8.051250458,2024-06-05 19:18:05.248920
1.288919586,-4.999503613,-0.9571290612,-4.389633179,2024-06-05 19:18:05.288920
1.328919586,-5.894120216,-4.305884361,-2.170290232,2024-06-05 19:18:05.328920
1.368919586,10.08873844,-1.83619225,1.223031521,2024-06-05 19:18:05.368920
1.408919586,0.8312067389,-15.08315754,-6.841678143,2024-06-05 19:18:05.408920
1.448919586,5.447260857,-15.96012688,15.97687721,2024-06-05 19:18:05.448920
1.488919586,-7.47398138,-18.26561165,-2.598007202,2024-06-05 19:18:05.488920
1.528919586,-4.09860611,-23.55016136,-1.457528114,2024-06-05 19:18:05.528920
1.568919586,10.85055351,-16.71805382,-4.967200756,2024-06-05 19:18:05.568920
1.608919586,11.93330574,-1.485344648,-11.97996521,2024-06-05 19:18:05.608920
1.648919586,11.93330574,-1.485344648,-11.97996521,2024-06-05 19:18:05.648920
1.688919586,11.93330574,-1.485344648,-11.97996521,2024-06-05 19:18:05.688920
1.728919586,11.93330574,-1.485344648,-11.97996521,2024-06-05 19:18:05.728920
1.768919586,11.93330574,-1.485344648,-11.97996521,2024-06-05 19:18:05.768920
1.808919586,11.93330574,-1.485344648,-11.97996521,2024-06-05 19:18:05.808920
1.848919586,11.93330574,-1.485344648,-11.97996521,2024-06-05 19:18:05.848920
1.888919586,7.096812725,-10.52812099,3.998107433,2024-06-05 19:18:05.888920
1.928919586,7.096812725,-10.52812099,3.998107433,2024-06-05 19:18:05.928920
1.968919586,7.096812725,-10.52812099,3.998107433,2024-06-05 19:18:05.968920
2.008919586,7.096812725,-10.52812099,3.998107433,2024-06-05 19:18:06.008920
2.048919586,7.096812725,-10.52812099,3.998107433,2024-06-05 19:18:06.048920
2.088919586,7.096812725,-10.52812099,3.998107433,2024-06-05 19:18:06.088920
2.128919586,0.4480560422,-8.486145973,3.723830223,2024-06-05 19:18:06.128920
2.168919586,0.4480560422,-8.486145973,3.723830223,2024-06-05 19:18:06.168920
2.208919586,0.4480560422,-8.486145973,3.723830223,2024-06-05 19:18:06.208920
2.248919586,0.4480560422,-8.486145973,3.723830223,2024-06-05 19:18:06.248920
2.288919586,0.4480560422,-8.486145973,3.723830223,2024-06-05 19:18:06.288920
2.328919586,0.4480560422,-8.486145973,3.723830223,2024-06-05 19:18:06.328920
2.368919586,0.4480560422,-8.486145973,3.723830223,2024-06-05 19:18:06.368920
2.408919586,0.4480560422,-8.486145973,3.723830223,2024-06-05 19:18:06.408920
2.448919586,0.4480560422,-8.486145973,3.723830223,2024-06-05 19:18:06.448920
2.488919586,0.4480560422,-8.486145973,3.723830223,2024-06-05 19:18:06.488920
2.528919586,0.4480560422,-8.486145973,3.723830223,2024-06-05 19:18:06.528920
2.568919586,0.4480560422,-8.486145973,3.723830223,2024-06-05 19:18:06.568920
2.608919586,0.4480560422,-8.486145973,3.723830223,2024-06-05 19:18:06.608920
2.648919586,0.4480560422,-8.486145973,3.723830223,2024-06-05 19:18:06.648920
2.688919586,0.4480560422,-8.486145973,3.723830223,2024-06-05 19:18:06.688920
2.728919586,0.4480560422,-8.486145973,3.723830223,2024-06-05 19:18:06.728920
2.768919586,0.4480560422,-8.486145973,3.723830223,2024-06-05 19:18:06.768920
2.808919586,0.4480560422,-8.486145973,3.723830223,2024-06-05 19:18:06.808920
2.848919586,0.4480560422,-8.486145973,3.723830223,2024-06-05 19:18:06.848920
2.888919586,0.4480560422,-8.486145973,3.723830223,2024-06-05 19:18:06.888920
2.928919586,0.4480560422,-8.486145973,3.723830223,2024-06-05 19:18:06.928920
2.968919586,1.250548959,-11.78824043,6.791129589,2024-06-05 19:18:06.968920
3.008919586,5.94078064,-14.54776382,0.5330012441,2024-06-05 19:18:07.008920
3.048919586,9.233603477,-10.39890766,1.79671073,2024-06-05 19:18:07.048920
3.088919586,9.065806389,-8.650053978,-2.923730135,2024-06-05 19:18:07.088920
3.128919586,8.915956497,-9.19980526,5.024628639,2024-06-05 19:18:07.128920
3.168919586,4.228117466,-6.744469643,-0.8096713424,2024-06-05 19:18:07.168920
3.208919586,3.677170277,-4.269991875,1.101894855,2024-06-05 19:18:07.208920
3.248919586,3.176471949,-2.215753794,0.6948158741,2024-06-05 19:18:07.248920
3.288919586,3.288934708,-3.061317444,1.420439363,2024-06-05 19:18:07.288920
3.328919586,3.901198149,-6.106184483,2.797807932,2024-06-05 19:18:07.328920
3.368919586,6.43549633,-13.81855106,14.31057453,2024-06-05 19:18:07.368920
3.408919586,6.43549633,-13.81855106,14.31057453,2024-06-05 19:18:07.408920
3.448919586,6.43549633,-13.81855106,14.31057453,2024-06-05 19:18:07.448920
3.488919586,6.43549633,-13.81855106,14.31057453,2024-06-05 19:18:07.488920
3.528919586,6.43549633,-13.81855106,14.31057453,2024-06-05 19:18:07.528920
3.568919586,6.43549633,-13.81855106,14.31057453,2024-06-05 19:18:07.568920
3.608919586,6.43549633,-13.81855106,14.31057453,2024-06-05 19:18:07.608920
3.648919586,6.43549633,-13.81855106,14.31057453,2024-06-05 19:18:07.648920
3.688919586,6.43549633,-13.81855106,14.31057453,2024-06-05 19:18:07.688920
3.728919586,6.43549633,-13.81855106,14.31057453,2024-06-05 19:18:07.728920
3.768919586,6.43549633,-13.81855106,14.31057453,2024-06-05 19:18:07.768920
3.808919586,6.43549633,-13.81855106,14.31057453,2024-06-05 19:18:07.808920
3.848919586,6.43549633,-13.81855106,14.31057453,2024-06-05 19:18:07.848920
3.888919586,6.43549633,-13.81855106,14.31057453,2024-06-05 19:18:07.888920
3.928919586,6.43549633,-13.81855106,14.31057453,2024-06-05 19:18:07.928920
3.968919586,6.43549633,-13.81855106,14.31057453,2024-06-05 19:18:07.968920
4.008919586,6.43549633,-13.81855106,14.31057453,2024-06-05 19:18:08.008920
4.048919586,6.43549633,-13.81855106,14.31057453,2024-06-05 19:18:08.048920
4.088919586,6.43549633,-13.81855106,14.31057453,2024-06-05 19:18:08.088920
4.128919586,-0.001196411322,-10.81436157,1.625324726,2024-06-05 19:18:08.128920
4.168919586,-0.001196411322,-10.81436157,1.625324726,2024-06-05 19:18:08.168920
4.208919586,-0.001196411322,-10.81436157,1.625324726,2024-06-05 19:18:08.208920
4.248919586,-0.001196411322,-10.81436157,1.625324726,2024-06-05 19:18:08.248920
4.288919586,-0.001196411322,-10.81436157,1.625324726,2024-06-05 19:18:08.288920
4.328919586,-0.001196411322,-10.81436157,1.625324726,2024-06-05 19:18:08.328920
4.368919586,-0.001196411322,-10.81436157,1.625324726,2024-06-05 19:18:08.368920
4.408919586,-0.001196411322,-10.81436157,1.625324726,2024-06-05 19:18:08.408920
4.448919586,-0.001196411322,-10.81436157,1.625324726,2024-06-05 19:18:08.448920
4.488919586,-0.001196411322,-10.81436157,1.625324726,2024-06-05 19:18:08.488920
4.528919586,-0.001196411322,-10.81436157,1.625324726,2024-06-05 19:18:08.528920
4.568919586,-0.001196411322,-10.81436157,1.625324726,2024-06-05 19:18:08.568920
4.608919586,-0.001196411322,-10.81436157,1.625324726,2024-06-05 19:18:08.608920
4.648919586,15.24975777,-12.99212933,-16.27149391,2024-06-05 19:18:08.648920
4.688919586,5.969494343,-6.218647003,-3.243471146,2024-06-05 19:18:08.688920
4.728919586,7.693223953,-15.41276932,-5.673681736,2024-06-05 19:18:08.728920
4.768919586,-0.6215356588,-21.37747765,-7.935198307,2024-06-05 19:18:08.768920
4.808919586,-5.805585861,-15.09990692,2.64227438,2024-06-05 19:18:08.808920
4.848919586,-0.02632104978,-3.919144392,2.924926519,2024-06-05 19:18:08.848920
4.888919586,-4.262813568,-4.70488739,-2.193022013,2024-06-05 19:18:08.888920
4.928919586,-2.742773056,-6.201897144,1.346261859,2024-06-05 19:18:08.928920
4.968919586,2.76909399,-7.965108395,0.4504488707,2024-06-05 19:18:08.968920
5.008919586,2.292623281,-11.05513954,2.528316259,2024-06-05 19:18:09.008920
5.048919586,2.292623281,-11.05513954,2.528316259,2024-06-05 19:18:09.048920
5.088919586,2.292623281,-11.05513954,2.528316259,2024-06-05 19:18:09.088920
5.128919586,2.292623281,-11.05513954,2.528316259,2024-06-05 19:18:09.128920
5.168919586,2.292623281,-11.05513954,2.528316259,2024-06-05 19:18:09.168920
5.208919586,2.292623281,-11.05513954,2.528316259,2024-06-05 19:18:09.208920
5.248919586,2.292623281,-11.05513954,2.528316259,2024-06-05 19:18:09.248920
5.288919586,2.292623281,-11.05513954,2.528316259,2024-06-05 19:18:09.288920
5.328919586,2.292623281,-11.05513954,2.528316259,2024-06-05 19:18:09.328920
5.368919586,2.292623281,-11.05513954,2.528316259,2024-06-05 19:18:09.368920
5.408919586,2.292623281,-11.05513954,2.528316259,2024-06-05 19:18:09.408920
5.448919586,2.292623281,-11.05513954,2.528316259,2024-06-05 19:18:09.448920
5.488919586,2.292623281,-11.05513954,2.528316259,2024-06-05 19:18:09.488920
5.528919586,2.292623281,-11.05513954,2.528316259,2024-06-05 19:18:09.528920
5.568919586,2.292623281,-11.05513954,2.528316259,2024-06-05 19:18:09.568920
5.608919586,2.292623281,-11.05513954,2.528316259,2024-06-05 19:18:09.608920
5.648919586,2.292623281,-11.05513954,2.528316259,2024-06-05 19:18:09.648920
5.688919586,2.292623281,-11.05513954,2.528316259,2024-06-05 19:18:09.688920
5.728919586,2.292623281,-11.05513954,2.528316259,2024-06-05 19:18:09.728920
5.768919586,2.292623281,-11.05513954,2.528316259,2024-06-05 19:18:09.768920
5.808919586,2.292623281,-11.05513954,2.528316259,2024-06-05 19:18:09.808920
5.848919586,2.292623281,-11.05513954,2.528316259,2024-06-05 19:18:09.848920
5.888919586,2.292623281,-11.05513954,2.528316259,2024-06-05 19:18:09.888920
5.928919586,2.292623281,-11.05513954,2.528316259,2024-06-05 19:18:09.928920
5.968919586,2.292623281,-11.05513954,2.528316259,2024-06-05 19:18:09.968920
6.008919586,2.292623281,-11.05513954,2.528316259,2024-06-05 19:18:10.008920
6.048919586,2.292623281,-11.05513954,2.528316259,2024-06-05 19:18:10.048920
6.088919586,2.292623281,-11.05513954,2.528316259,2024-06-05 19:18:10.088920
6.128919586,2.292623281,-11.05513954,2.528316259,2024-06-05 19:18:10.128920
6.168919586,2.292623281,-11.05513954,2.528316259,2024-06-05 19:18:10.168920
6.208919586,2.292623281,-11.05513954,2.528316259,2024-06-05 19:18:10.208920
6.248919586,2.292623281,-11.05513954,2.528316259,2024-06-05 19:18:10.248920
6.288919586,2.292623281,-11.05513954,2.528316259,2024-06-05 19:18:10.288920
6.328919586,0.675673306,-23.00758743,1.984547257,2024-06-05 19:18:10.328920
6.368919586,8.024929047,-4.036392689,-4.110570431,2024-06-05 19:18:10.368920
6.408919586,24.5718956,-18.32304001,0.6562315822,2024-06-05 19:18:10.408920
6.448919586,7.545766354,-5.310869694,-5.918048382,2024-06-05 19:18:10.448920
6.488919586,3.97776866,-5.883352757,-10.66600704,2024-06-05 19:18:10.488920
6.528919586,7.745865822,-15.3670063,-3.257827997,2024-06-05 19:18:10.528920
6.568919586,-3.02063942,-8.820243835,-4.667499542,2024-06-05 19:18:10.568920
6.608919586,-3.667598963,-10.22512913,-2.121237278,2024-06-05 19:18:10.608920
6.648919586,-2.600399971,-10.10548782,4.375276089,2024-06-05 19:18:10.648920
6.688919586,-1.030110121,-8.947062492,3.057728291,2024-06-05 19:18:10.688920
6.728919586,-1.030110121,-8.947062492,3.057728291,2024-06-05 19:18:10.728920
6.768919586,-1.030110121,-8.947062492,3.057728291,2024-06-05 19:18:10.768920
6.808919586,-1.030110121,-8.947062492,3.057728291,2024-06-05 19:18:10.808920
6.848919586,-1.030110121,-8.947062492,3.057728291,2024-06-05 19:18:10.848920
6.888919586,-1.927119493,-13.29153156,3.692723513,2024-06-05 19:18:10.888920
6.928919586,-1.927119493,-13.29153156,3.692723513,2024-06-05 19:18:10.928920
6.968919586,-1.927119493,-13.29153156,3.692723513,2024-06-05 19:18:10.968920
7.008919586,-1.927119493,-13.29153156,3.692723513,2024-06-05 19:18:11.008920
7.048919586,-1.927119493,-13.29153156,3.692723513,2024-06-05 19:18:11.048920
7.088919586,-1.927119493,-13.29153156,3.692723513,2024-06-05 19:18:11.088920
7.128919586,1.790728688,-3.653241873,-3.169293642,2024-06-05 19:18:11.128920
7.168919586,1.790728688,-3.653241873,-3.169293642,2024-06-05 19:18:11.168920
7.208919586,1.790728688,-3.653241873,-3.169293642,2024-06-05 19:18:11.208920
7.248919586,1.790728688,-3.653241873,-3.169293642,2024-06-05 19:18:11.248920
7.288919586,1.790728688,-3.653241873,-3.169293642,2024-06-05 19:18:11.288920
7.328919586,1.790728688,-3.653241873,-3.169293642,2024-06-05 19:18:11.328920
7.368919586,4.240081787,-3.151347399,-6.317051888,2024-06-05 19:18:11.368920
7.408919586,4.240081787,-3.151347399,-6.317051888,2024-06-05 19:18:11.408920
7.448919586,4.240081787,-3.151347399,-6.317051888,2024-06-05 19:18:11.448920
7.488919586,4.240081787,-3.151347399,-6.317051888,2024-06-05 19:18:11.488920
7.528919586,4.240081787,-3.151347399,-6.317051888,2024-06-05 19:18:11.528920
7.568919586,4.240081787,-3.151347399,-6.317051888,2024-06-05 19:18:11.568920
7.608919586,4.240081787,-3.151347399,-6.317051888,2024-06-05 19:18:11.608920
7.648919586,4.240081787,-3.151347399,-6.317051888,2024-06-05 19:18:11.648920
7.688919586,4.240081787,-3.151347399,-6.317051888,2024-06-05 19:18:11.688920
7.728919586,4.240081787,-3.151347399,-6.317051888,2024-06-05 19:18:11.728920
7.768919586,4.240081787,-3.151347399,-6.317051888,2024-06-05 19:18:11.768920
7.808919586,4.240081787,-3.151347399,-6.317051888,2024-06-05 19:18:11.808920
7.848919586,4.240081787,-3.151347399,-6.317051888,2024-06-05 19:18:11.848920
7.888919586,4.240081787,-3.151347399,-6.317051888,2024-06-05 19:18:11.888920
7.928919586,4.240081787,-3.151347399,-6.317051888,2024-06-05 19:18:11.928920
7.968919586,4.240081787,-3.151347399,-6.317051888,2024-06-05 19:18:11.968920
8.008919586,14.01476192,-5.061717033,-7.639385223,2024-06-05 19:18:12.008920
8.048919586,7.112366199,-8.173583031,2.86032033,2024-06-05 19:18:12.048920
8.088919586,6.203093529,-6.324230194,-3.329612732,2024-06-05 19:18:12.088920
8.128919586,9.43460083,-7.65015316,-2.233700037,2024-06-05 19:18:12.128920
8.168919586,7.91366291,-6.530013084,0.470787853,2024-06-05 19:18:12.168920
8.208919586,7.031907558,-5.661717415,-1.349851131,2024-06-05 19:18:12.208920
8.248919586,9.722038269,-6.811468601,-0.2072782665,2024-06-05 19:18:12.248920
8.288919586,8.740083694,-5.582754135,0.4983053207,2024-06-05 19:18:12.288920
8.328919586,6.718148708,-4.41625309,-2.518744946,2024-06-05 19:18:12.328920
8.368919586,7.863114357,-4.541876316,-0.752243638,2024-06-05 19:18:12.368920
8.408919586,7.863114357,-4.541876316,-0.752243638,2024-06-05 19:18:12.408920
8.448919586,7.863114357,-4.541876316,-0.752243638,2024-06-05 19:18:12.448920
8.488919586,7.863114357,-4.541876316,-0.752243638,2024-06-05 19:18:12.488920
8.528919586,7.863114357,-4.541876316,-0.752243638,2024-06-05 19:18:12.528920
8.568919586,7.863114357,-4.541876316,-0.752243638,2024-06-05 19:18:12.568920
8.608919586,7.863114357,-4.541876316,-0.752243638,2024-06-05 19:18:12.608920
8.648919586,7.863114357,-4.541876316,-0.752243638,2024-06-05 19:18:12.648920
8.688919586,7.863114357,-4.541876316,-0.752243638,2024-06-05 19:18:12.688920
8.728919586,7.863114357,-4.541876316,-0.752243638,2024-06-05 19:18:12.728920
8.768919586,7.863114357,-4.541876316,-0.752243638,2024-06-05 19:18:12.768920
8.808919586,7.863114357,-4.541876316,-0.752243638,2024-06-05 19:18:12.808920
8.848919586,7.863114357,-4.541876316,-0.752243638,2024-06-05 19:18:12.848920
8.888919586,7.863114357,-4.541876316,-0.752243638,2024-06-05 19:18:12.888920
8.928919586,7.863114357,-4.541876316,-0.752243638,2024-06-05 19:18:12.928920
8.968919586,7.863114357,-4.541876316,-0.752243638,2024-06-05 19:18:12.968920
9.008919586,7.863114357,-4.541876316,-0.752243638,2024-06-05 19:18:13.008920
9.048919586,7.863114357,-4.541876316,-0.752243638,2024-06-05 19:18:13.048920
9.088919586,7.863114357,-4.541876316,-0.752243638,2024-06-05 19:18:13.088920
9.128919586,4.327419758,-13.22542953,-0.4241278172,2024-06-05 19:18:13.128920
9.168919586,4.327419758,-13.22542953,-0.4241278172,2024-06-05 19:18:13.168920
9.208919586,4.327419758,-13.22542953,-0.4241278172,2024-06-05 19:18:13.208920
9.248919586,4.327419758,-13.22542953,-0.4241278172,2024-06-05 19:18:13.248920
9.288919586,4.327419758,-13.22542953,-0.4241278172,2024-06-05 19:18:13.288920
9.328919586,4.327419758,-13.22542953,-0.4241278172,2024-06-05 19:18:13.328920
9.368919586,-0.2288136631,-5.163412094,-3.126222849,2024-06-05 19:18:13.368920
9.408919586,-0.2288136631,-5.163412094,-3.126222849,2024-06-05 19:18:13.408920
9.448919586,-0.2288136631,-5.163412094,-3.126222849,2024-06-05 19:18:13.448920
9.488919586,-0.2288136631,-5.163412094,-3.126222849,2024-06-05 19:18:13.488920
9.528919586,-0.2288136631,-5.163412094,-3.126222849,2024-06-05 19:18:13.528920
9.568919586,-0.2288136631,-5.163412094,-3.126222849,2024-06-05 19:18:13.568920
9.608919586,-0.2288136631,-5.163412094,-3.126222849,2024-06-05 19:18:13.608920
9.648919586,-0.2288136631,-5.163412094,-3.126222849,2024-06-05 19:18:13.648920
9.688919586,4.78385067,-4.507180691,5.607879162,2024-06-05 19:18:13.688920
9.728919586,5.055735111,-1.435992718,0.8898309469,2024-06-05 19:18:13.728920
9.768919586,-1.110269666,-0.9329017401,-0.2479562461,2024-06-05 19:18:13.768920
9.808919586,2.283051968,-4.108177185,5.993422508,2024-06-05 19:18:13.808920
9.848919586,6.921837807,-35.44248962,9.973584175,2024-06-05 19:18:13.848920
9.888919586,3.1405797,-11.60967636,-2.650649309,2024-06-05 19:18:13.888920
9.928919586,6.791129589,-16.17787361,-4.649553299,2024-06-05 19:18:13.928920
9.968919586,-0.3652045429,-14.16102314,-5.347958565,2024-06-05 19:18:13.968920
10.00891959,4.120141506,-10.6540432,-2.300997972,2024-06-05 19:18:14.008920
10.04891959,4.201796532,-8.907581329,-0.7175477147,2024-06-05 19:18:14.048920
10.08891959,4.201796532,-8.907581329,-0.7175477147,2024-06-05 19:18:14.088920
10.12891959,5.09760952,3.209971666,11.31984615,2024-06-05 19:18:14.128920
10.16891959,5.09760952,3.209971666,11.31984615,2024-06-05 19:18:14.168920
10.20891959,5.09760952,3.209971666,11.31984615,2024-06-05 19:18:14.208920
10.24891959,5.09760952,3.209971666,11.31984615,2024-06-05 19:18:14.248920
10.28891959,5.09760952,3.209971666,11.31984615,2024-06-05 19:18:14.288920
10.32891959,5.09760952,3.209971666,11.31984615,2024-06-05 19:18:14.328920
10.36891959,5.09760952,3.209971666,11.31984615,2024-06-05 19:18:14.368920
10.40891959,5.09760952,3.209971666,11.31984615,2024-06-05 19:18:14.408920
10.44891959,5.09760952,3.209971666,11.31984615,2024-06-05 19:18:14.448920
10.48891959,5.09760952,3.209971666,11.31984615,2024-06-05 19:18:14.488920
10.52891959,5.09760952,3.209971666,11.31984615,2024-06-05 19:18:14.528920
10.56891959,5.09760952,3.209971666,11.31984615,2024-06-05 19:18:14.568920
10.60891959,5.09760952,3.209971666,11.31984615,2024-06-05 19:18:14.608920
10.64891959,5.09760952,3.209971666,11.31984615,2024-06-05 19:18:14.648920
10.68891959,5.09760952,3.209971666,11.31984615,2024-06-05 19:18:14.688920
10.72891959,5.09760952,3.209971666,11.31984615,2024-06-05 19:18:14.728920
10.76891959,5.09760952,3.209971666,11.31984615,2024-06-05 19:18:14.768920
10.80891959,5.09760952,3.209971666,11.31984615,2024-06-05 19:18:14.808920
10.84891959,5.09760952,3.209971666,11.31984615,2024-06-05 19:18:14.848920
10.88891959,5.09760952,3.209971666,11.31984615,2024-06-05 19:18:14.888920
10.92891959,5.09760952,3.209971666,11.31984615,2024-06-05 19:18:14.928920
10.96891959,5.09760952,3.209971666,11.31984615,2024-06-05 19:18:14.968920
11.00891959,5.09760952,3.209971666,11.31984615,2024-06-05 19:18:15.008920
11.04891959,5.09760952,3.209971666,11.31984615,2024-06-05 19:18:15.048920
11.08891959,5.09760952,3.209971666,11.31984615,2024-06-05 19:18:15.088920
11.12891959,-2.10209465,-10.67916775,-1.479362607,2024-06-05 19:18:15.128920
11.16891959,-2.10209465,-10.67916775,-1.479362607,2024-06-05 19:18:15.168920
11.20891959,-2.10209465,-10.67916775,-1.479362607,2024-06-05 19:18:15.208920
11.24891959,-2.10209465,-10.67916775,-1.479362607,2024-06-05 19:18:15.248920
11.28891959,-2.10209465,-10.67916775,-1.479362607,2024-06-05 19:18:15.288920
11.32891959,-2.10209465,-10.67916775,-1.479362607,2024-06-05 19:18:15.328920
11.36891959,5.128716469,-10.92473125,-4.774279594,2024-06-05 19:18:15.368920
11.40891959,0.8670991063,-13.39920902,27.61167717,2024-06-05 19:18:15.408920
11.44891959,-2.274377823,-8.90518856,-1.526022673,2024-06-05 19:18:15.448920
11.48891959,1.301994562,-10.02263641,-2.268395901,2024-06-05 19:18:15.488920
11.52891959,1.904387712,-9.249156952,-1.136590719,2024-06-05 19:18:15.528920
11.56891959,1.532004714,-9.71605587,-4.453341961,2024-06-05 19:18:15.568920
11.60891959,1.856531262,-9.762716293,-2.352443695,2024-06-05 19:18:15.608920
11.64891959,1.527219057,-9.212965012,-2.239681959,2024-06-05 19:18:15.648920
11.68891959,1.403689623,-9.052646637,-2.407478571,2024-06-05 19:18:15.688920
11.72891959,2.027917147,-9.772586823,4.099802494,2024-06-05 19:18:15.728920
11.76891959,2.027917147,-9.772586823,4.099802494,2024-06-05 19:18:15.768920
11.80891959,2.027917147,-9.772586823,4.099802494,2024-06-05 19:18:15.808920
11.84891959,2.027917147,-9.772586823,4.099802494,2024-06-05 19:18:15.848920
11.88891959,2.027917147,-9.772586823,4.099802494,2024-06-05 19:18:15.888920
11.92891959,2.027917147,-9.772586823,4.099802494,2024-06-05 19:18:15.928920
11.96891959,2.027917147,-9.772586823,4.099802494,2024-06-05 19:18:15.968920
12.00891959,2.027917147,-9.772586823,4.099802494,2024-06-05 19:18:16.008920
12.04891959,2.027917147,-9.772586823,4.099802494,2024-06-05 19:18:16.048920
12.08891959,2.027917147,-9.772586823,4.099802494,2024-06-05 19:18:16.088920
12.12891959,2.027917147,-9.772586823,4.099802494,2024-06-05 19:18:16.128920
12.16891959,2.027917147,-9.772586823,4.099802494,2024-06-05 19:18:16.168920
12.20891959,2.027917147,-9.772586823,4.099802494,2024-06-05 19:18:16.208920
12.24891959,2.027917147,-9.772586823,4.099802494,2024-06-05 19:18:16.248920
12.28891959,2.027917147,-9.772586823,4.099802494,2024-06-05 19:18:16.288920
12.32891959,2.027917147,-9.772586823,4.099802494,2024-06-05 19:18:16.328920
12.36891959,2.027917147,-9.772586823,4.099802494,2024-06-05 19:18:16.368920
12.40891959,2.027917147,-9.772586823,4.099802494,2024-06-05 19:18:16.408920
12.44891959,2.027917147,-9.772586823,4.099802494,2024-06-05 19:18:16.448920
12.48891959,2.027917147,-9.772586823,4.099802494,2024-06-05 19:18:16.488920
12.52891959,2.027917147,-9.772586823,4.099802494,2024-06-05 19:18:16.528920
12.56891959,2.027917147,-9.772586823,4.099802494,2024-06-05 19:18:16.568920
12.60891959,2.027917147,-9.772586823,4.099802494,2024-06-05 19:18:16.608920
12.64891959,2.027917147,-9.772586823,4.099802494,2024-06-05 19:18:16.648920
12.68891959,2.027917147,-9.772586823,4.099802494,2024-06-05 19:18:16.688920
12.72891959,2.027917147,-9.772586823,4.099802494,2024-06-05 19:18:16.728920
12.76891959,2.027917147,-9.772586823,4.099802494,2024-06-05 19:18:16.768920
12.80891959,2.027917147,-9.772586823,4.099802494,2024-06-05 19:18:16.808920
12.84891959,2.027917147,-9.772586823,4.099802494,2024-06-05 19:18:16.848920
12.88891959,2.027917147,-9.772586823,4.099802494,2024-06-05 19:18:16.888920
12.92891959,2.027917147,-9.772586823,4.099802494,2024-06-05 19:18:16.928920
12.96891959,2.027917147,-9.772586823,4.099802494,2024-06-05 19:18:16.968920
13.00891959,2.027917147,-9.772586823,4.099802494,2024-06-05 19:18:17.008920
13.04891959,3.282952785,-8.367402077,-1.850549221,2024-06-05 19:18:17.048920
13.08891959,4.118945122,-8.549555779,-0.6876373887,2024-06-05 19:18:17.088920
13.12891959,6.845267296,-8.508877754,-1.994118571,2024-06-05 19:18:17.128920
13.16891959,6.538387775,-6.299105644,-2.173879385,2024-06-05 19:18:17.168920
13.20891959,4.442574501,-10.63729286,-3.18843627,2024-06-05 19:18:17.208920
13.24891959,0.2958126962,-10.00708294,-3.306880951,2024-06-05 19:18:17.248920
13.28891959,5.138287544,-8.126624107,7.934001446,2024-06-05 19:18:17.288920
13.32891959,0.323330164,-11.4445715,-1.172483087,2024-06-05 19:18:17.328920
13.36891959,1.922333837,-9.318549156,-1.670788407,2024-06-05 19:18:17.368920
13.40891959,1.991725802,-9.519845009,-1.449153185,2024-06-05 19:18:17.408920
13.44891959,1.991725802,-9.519845009,-1.449153185,2024-06-05 19:18:17.448920
13.48891959,1.991725802,-9.519845009,-1.449153185,2024-06-05 19:18:17.488920
13.52891959,1.991725802,-9.519845009,-1.449153185,2024-06-05 19:18:17.528920
13.56891959,1.991725802,-9.519845009,-1.449153185,2024-06-05 19:18:17.568920
13.60891959,1.991725802,-9.519845009,-1.449153185,2024-06-05 19:18:17.608920
13.64891959,1.991725802,-9.519845009,-1.449153185,2024-06-05 19:18:17.648920
13.68891959,1.991725802,-9.519845009,-1.449153185,2024-06-05 19:18:17.688920
13.72891959,1.991725802,-9.519845009,-1.449153185,2024-06-05 19:18:17.728920
13.76891959,1.991725802,-9.519845009,-1.449153185,2024-06-05 19:18:17.768920
13.80891959,1.991725802,-9.519845009,-1.449153185,2024-06-05 19:18:17.808920
13.84891959,1.991725802,-9.519845009,-1.449153185,2024-06-05 19:18:17.848920
13.88891959,1.991725802,-9.519845009,-1.449153185,2024-06-05 19:18:17.888920
13.92891959,1.991725802,-9.519845009,-1.449153185,2024-06-05 19:18:17.928920
13.96891959,1.991725802,-9.519845009,-1.449153185,2024-06-05 19:18:17.968920
14.00891959,1.991725802,-9.519845009,-1.449153185,2024-06-05 19:18:18.008920
14.04891959,1.991725802,-9.519845009,-1.449153185,2024-06-05 19:18:18.048920
14.08891959,1.991725802,-9.519845009,-1.449153185,2024-06-05 19:18:18.088920
14.12891959,9.186644554,-4.301098824,-8.236992836,2024-06-05 19:18:18.128920
14.16891959,9.186644554,-4.301098824,-8.236992836,2024-06-05 19:18:18.168920
14.20891959,9.186644554,-4.301098824,-8.236992836,2024-06-05 19:18:18.208920
14.24891959,9.186644554,-4.301098824,-8.236992836,2024-06-05 19:18:18.248920
14.28891959,9.186644554,-4.301098824,-8.236992836,2024-06-05 19:18:18.288920
14.32891959,9.186644554,-4.301098824,-8.236992836,2024-06-05 19:18:18.328920
14.36891959,1.606182218,-11.83370399,-2.793022156,2024-06-05 19:18:18.368920
14.40891959,1.606182218,-11.83370399,-2.793022156,2024-06-05 19:18:18.408920
14.44891959,1.606182218,-11.83370399,-2.793022156,2024-06-05 19:18:18.448920
14.48891959,1.606182218,-11.83370399,-2.793022156,2024-06-05 19:18:18.488920
14.52891959,1.606182218,-11.83370399,-2.793022156,2024-06-05 19:18:18.528920
14.56891959,1.606182218,-11.83370399,-2.793022156,2024-06-05 19:18:18.568920
14.60891959,1.606182218,-11.83370399,-2.793022156,2024-06-05 19:18:18.608920
14.64891959,1.606182218,-11.83370399,-2.793022156,2024-06-05 19:18:18.648920
14.68891959,1.606182218,-11.83370399,-2.793022156,2024-06-05 19:18:18.688920
14.72891959,1.077966571,-10.63729286,2.973979473,2024-06-05 19:18:18.728920
14.76891959,3.306880951,-8.973683357,-2.238485575,2024-06-05 19:18:18.768920
14.80891959,4.338187218,-7.766204834,-1.380957723,2024-06-05 19:18:18.808920
14.84891959,5.12273407,-7.373483181,0.4253242314,2024-06-05 19:18:18.848920
14.88891959,5.424529076,-7.854739666,0.6681957245,2024-06-05 19:18:18.888920
14.92891959,4.855635166,-10.748559,-2.885445118,2024-06-05 19:18:18.928920
14.96891959,3.018246651,-8.95902729,-1.051645517,2024-06-05 19:18:18.968920
15.00891959,4.127319813,-10.21196842,1.424028635,2024-06-05 19:18:19.008920
15.04891959,2.302194595,-8.286046028,-2.515155792,2024-06-05 19:18:19.048920
15.08891959,3.18006134,-8.797511101,-2.706880569,2024-06-05 19:18:19.088920
15.12891959,4.014857292,-11.25882912,1.316351533,2024-06-05 19:18:19.128920
15.16891959,4.014857292,-11.25882912,1.316351533,2024-06-05 19:18:19.168920
15.20891959,4.014857292,-11.25882912,1.316351533,2024-06-05 19:18:19.208920
15.24891959,4.014857292,-11.25882912,1.316351533,2024-06-05 19:18:19.248920
15.28891959,4.014857292,-11.25882912,1.316351533,2024-06-05 19:18:19.288920
15.32891959,4.014857292,-11.25882912,1.316351533,2024-06-05 19:18:19.328920
15.36891959,4.014857292,-11.25882912,1.316351533,2024-06-05 19:18:19.368920
15.40891959,4.014857292,-11.25882912,1.316351533,2024-06-05 19:18:19.408920
15.44891959,4.014857292,-11.25882912,1.316351533,2024-06-05 19:18:19.448920
15.48891959,4.014857292,-11.25882912,1.316351533,2024-06-05 19:18:19.488920
15.52891959,4.014857292,-11.25882912,1.316351533,2024-06-05 19:18:19.528920
15.56891959,4.014857292,-11.25882912,1.316351533,2024-06-05 19:18:19.568920
15.60891959,4.014857292,-11.25882912,1.316351533,2024-06-05 19:18:19.608920
15.64891959,4.014857292,-11.25882912,1.316351533,2024-06-05 19:18:19.648920
15.68891959,4.014857292,-11.25882912,1.316351533,2024-06-05 19:18:19.688920
15.72891959,4.014857292,-11.25882912,1.316351533,2024-06-05 19:18:19.728920
15.76891959,4.014857292,-11.25882912,1.316351533,2024-06-05 19:18:19.768920
15.80891959,4.014857292,-11.25882912,1.316351533,2024-06-05 19:18:19.808920
15.84891959,4.014857292,-11.25882912,1.316351533,2024-06-05 19:18:19.848920
15.88891959,4.014857292,-11.25882912,1.316351533,2024-06-05 19:18:19.888920
15.92891959,4.014857292,-11.25882912,1.316351533,2024-06-05 19:18:19.928920
15.96891959,4.014857292,-11.25882912,1.316351533,2024-06-05 19:18:19.968920
16.00891959,4.014857292,-11.25882912,1.316351533,2024-06-05 19:18:20.008920
16.04891959,4.014857292,-11.25882912,1.316351533,2024-06-05 19:18:20.048920
16.08891959,4.014857292,-11.25882912,1.316351533,2024-06-05 19:18:20.088920
16.12891959,-0.9221340418,-9.943673134,-2.726023197,2024-06-05 19:18:20.128920
16.16891959,-0.9221340418,-9.943673134,-2.726023197,2024-06-05 19:18:20.168920
16.20891959,-0.9221340418,-9.943673134,-2.726023197,2024-06-05 19:18:20.208920
16.24891959,-0.9221340418,-9.943673134,-2.726023197,2024-06-05 19:18:20.248920
16.28891959,-0.9221340418,-9.943673134,-2.726023197,2024-06-05 19:18:20.288920
16.32891959,-0.9221340418,-9.943673134,-2.726023197,2024-06-05 19:18:20.328920
16.36891959,-0.9221340418,-9.943673134,-2.726023197,2024-06-05 19:18:20.368920
16.40891959,0.1630110443,-12.18485069,-1.057627559,2024-06-05 19:18:20.408920
16.44891959,1.922333837,-10.80598736,-2.875873804,2024-06-05 19:18:20.448920
16.48891959,2.004886389,-8.125427246,-3.875774384,2024-06-05 19:18:20.488920
16.52891959,1.942672849,-8.361419678,-1.747657895,2024-06-05 19:18:20.528920
16.56891959,1.751247048,-6.867999077,-2.574079037,2024-06-05 19:18:20.568920
16.60891959,-0.7582256794,-9.246764183,-1.014556766,2024-06-05 19:18:20.608920
16.64891959,0.2754737139,-13.2326088,3.721437454,2024-06-05 19:18:20.648920
16.68891959,-1.812264085,-16.81406593,4.490430832,2024-06-05 19:18:20.688920
16.72891959,-2.006082773,-15.79233074,6.578168392,2024-06-05 19:18:20.728920
16.76891959,-3.009871721,-11.5773735,2.341675997,2024-06-05 19:18:20.768920
16.80891959,-3.009871721,-11.5773735,2.341675997,2024-06-05 19:18:20.808920
16.84891959,-3.009871721,-11.5773735,2.341675997,2024-06-05 19:18:20.848920
16.88891959,4.381258488,-10.67438221,-3.874577999,2024-06-05 19:18:20.888920
16.92891959,4.381258488,-10.67438221,-3.874577999,2024-06-05 19:18:20.928920
16.96891959,4.381258488,-10.67438221,-3.874577999,2024-06-05 19:18:20.968920
17.00891959,4.381258488,-10.67438221,-3.874577999,2024-06-05 19:18:21.008920
17.04891959,4.381258488,-10.67438221,-3.874577999,2024-06-05 19:18:21.048920
17.08891959,4.381258488,-10.67438221,-3.874577999,2024-06-05 19:18:21.088920
17.12891959,3.333201885,-8.210671425,10.14377308,2024-06-05 19:18:21.128920
17.16891959,3.333201885,-8.210671425,10.14377308,2024-06-05 19:18:21.168920
17.20891959,3.333201885,-8.210671425,10.14377308,2024-06-05 19:18:21.208920
17.24891959,3.333201885,-8.210671425,10.14377308,2024-06-05 19:18:21.248920
17.28891959,3.333201885,-8.210671425,10.14377308,2024-06-05 19:18:21.288920
17.32891959,3.333201885,-8.210671425,10.14377308,2024-06-05 19:18:21.328920
17.36891959,3.333201885,-8.210671425,10.14377308,2024-06-05 19:18:21.368920
17.40891959,3.333201885,-8.210671425,10.14377308,2024-06-05 19:18:21.408920
17.44891959,3.333201885,-8.210671425,10.14377308,2024-06-05 19:18:21.448920
17.48891959,3.333201885,-8.210671425,10.14377308,2024-06-05 19:18:21.488920
17.52891959,3.333201885,-8.210671425,10.14377308,2024-06-05 19:18:21.528920
17.56891959,3.333201885,-8.210671425,10.14377308,2024-06-05 19:18:21.568920
17.60891959,3.333201885,-8.210671425,10.14377308,2024-06-05 19:18:21.608920
17.64891959,3.333201885,-8.210671425,10.14377308,2024-06-05 19:18:21.648920
17.68891959,3.333201885,-8.210671425,10.14377308,2024-06-05 19:18:21.688920
17.72891959,3.333201885,-8.210671425,10.14377308,2024-06-05 19:18:21.728920
17.76891959,3.333201885,-8.210671425,10.14377308,2024-06-05 19:18:21.768920
17.80891959,3.333201885,-8.210671425,10.14377308,2024-06-05 19:18:21.808920
17.84891959,3.333201885,-8.210671425,10.14377308,2024-06-05 19:18:21.848920
17.88891959,3.333201885,-8.210671425,10.14377308,2024-06-05 19:18:21.888920
17.92891959,3.333201885,-8.210671425,10.14377308,2024-06-05 19:18:21.928920
17.96891959,3.333201885,-8.210671425,10.14377308,2024-06-05 19:18:21.968920
18.00891959,3.333201885,-8.210671425,10.14377308,2024-06-05 19:18:22.008920
18.04891959,3.333201885,-8.210671425,10.14377308,2024-06-05 19:18:22.048920
18.08891959,2.963211775,-5.704788208,-3.104687452,2024-06-05 19:18:22.088920
18.12891959,4.997110844,-6.546762943,2.300997972,2024-06-05 19:18:22.128920
18.16891959,4.643571377,-8.215457916,1.775175333,2024-06-05 19:18:22.168920
18.20891959,1.74047935,-8.698209763,-4.104588032,2024-06-05 19:18:22.208920
18.24891959,2.969193697,-9.995119095,-4.025625229,2024-06-05 19:18:22.248920
18.28891959,3.255435228,-9.810872078,1.143769264,2024-06-05 19:18:22.288920
18.32891959,2.544168711,-9.543772697,-0.9690931439,2024-06-05 19:18:22.328920
18.36891959,3.81595397,-9.874281883,-2.185843468,2024-06-05 19:18:22.368920
18.40891959,6.87158823,-8.960223198,-2.649452925,2024-06-05 19:18:22.408920
18.44891959,9.45613575,-9.221340179,-3.394518137,2024-06-05 19:18:22.448920
18.48891959,9.45613575,-9.221340179,-3.394518137,2024-06-05 19:18:22.488920
18.52891959,9.45613575,-9.221340179,-3.394518137,2024-06-05 19:18:22.528920
18.56891959,9.45613575,-9.221340179,-3.394518137,2024-06-05 19:18:22.568920
18.60891959,9.45613575,-9.221340179,-3.394518137,2024-06-05 19:18:22.608920
18.64891959,9.45613575,-9.221340179,-3.394518137,2024-06-05 19:18:22.648920
18.68891959,9.45613575,-9.221340179,-3.394518137,2024-06-05 19:18:22.688920
18.72891959,9.45613575,-9.221340179,-3.394518137,2024-06-05 19:18:22.728920
18.76891959,9.45613575,-9.221340179,-3.394518137,2024-06-05 19:18:22.768920
18.80891959,9.45613575,-9.221340179,-3.394518137,2024-06-05 19:18:22.808920
18.84891959,9.45613575,-9.221340179,-3.394518137,2024-06-05 19:18:22.848920
18.88891959,9.45613575,-9.221340179,-3.394518137,2024-06-05 19:18:22.888920
18.92891959,9.45613575,-9.221340179,-3.394518137,2024-06-05 19:18:22.928920
18.96891959,9.45613575,-9.221340179,-3.394518137,2024-06-05 19:18:22.968920
19.00891959,9.45613575,-9.221340179,-3.394518137,2024-06-05 19:18:23.008920
19.04891959,9.45613575,-9.221340179,-3.394518137,2024-06-05 19:18:23.048920
19.08891959,9.45613575,-9.221340179,-3.394518137,2024-06-05 19:18:23.088920
19.12891959,9.45613575,-9.221340179,-3.394518137,2024-06-05 19:18:23.128920
19.16891959,9.45613575,-9.221340179,-3.394518137,2024-06-05 19:18:23.168920
19.20891959,9.45613575,-9.221340179,-3.394518137,2024-06-05 19:18:23.208920
19.24891959,9.45613575,-9.221340179,-3.394518137,2024-06-05 19:18:23.248920
19.28891959,9.45613575,-9.221340179,-3.394518137,2024-06-05 19:18:23.288920
19.32891959,9.45613575,-9.221340179,-3.394518137,2024-06-05 19:18:23.328920
19.36891959,9.45613575,-9.221340179,-3.394518137,2024-06-05 19:18:23.368920
19.40891959,9.45613575,-9.221340179,-3.394518137,2024-06-05 19:18:23.408920
19.44891959,9.45613575,-9.221340179,-3.394518137,2024-06-05 19:18:23.448920
19.48891959,9.45613575,-9.221340179,-3.394518137,2024-06-05 19:18:23.488920
19.52891959,9.45613575,-9.221340179,-3.394518137,2024-06-05 19:18:23.528920
19.56891959,9.45613575,-9.221340179,-3.394518137,2024-06-05 19:18:23.568920
19.60891959,9.45613575,-9.221340179,-3.394518137,2024-06-05 19:18:23.608920
19.64891959,9.45613575,-9.221340179,-3.394518137,2024-06-05 19:18:23.648920
19.68891959,9.45613575,-9.221340179,-3.394518137,2024-06-05 19:18:23.688920
19.72891959,9.45613575,-9.221340179,-3.394518137,2024-06-05 19:18:23.728920
19.76891959,5.979065418,-13.0076828,8.925527573,2024-06-05 19:18:23.768920
19.80891959,2.753540754,-7.717152119,1.1820544,2024-06-05 19:18:23.808920
19.84891959,2.55254364,-5.652146339,0.8192426562,2024-06-05 19:18:23.848920
19.88891959,6.533602238,-8.463413239,-3.170490026,2024-06-05 19:18:23.888920
19.92891959,2.401496649,-12.63978672,-1.249352574,2024-06-05 19:18:23.928920
19.96891959,0.2790629268,-12.75972652,-2.951247692,2024-06-05 19:18:23.968920
20.00891959,2.76311183,-7.181757927,0.509073019,2024-06-05 19:18:24.008920
20.04891959,2.501995087,-5.947958946,2.27078867,2024-06-05 19:18:24.048920
20.08891959,4.102195263,-10.62652493,-1.644467354,2024-06-05 19:18:24.088920
20.12891959,6.88594532,-10.68993473,-7.718348503,2024-06-05 19:18:24.128920
20.16891959,6.88594532,-10.68993473,-7.718348503,2024-06-05 19:18:24.168920
20.20891959,6.88594532,-10.68993473,-7.718348503,2024-06-05 19:18:24.208920
20.24891959,6.88594532,-10.68993473,-7.718348503,2024-06-05 19:18:24.248920
20.28891959,6.88594532,-10.68993473,-7.718348503,2024-06-05 19:18:24.288920
20.32891959,6.88594532,-10.68993473,-7.718348503,2024-06-05 19:18:24.328920
20.36891959,6.88594532,-10.68993473,-7.718348503,2024-06-05 19:18:24.368920
20.40891959,6.88594532,-10.68993473,-7.718348503,2024-06-05 19:18:24.408920
20.44891959,6.88594532,-10.68993473,-7.718348503,2024-06-05 19:18:24.448920
20.48891959,6.88594532,-10.68993473,-7.718348503,2024-06-05 19:18:24.488920
20.52891959,6.88594532,-10.68993473,-7.718348503,2024-06-05 19:18:24.528920
20.56891959,6.88594532,-10.68993473,-7.718348503,2024-06-05 19:18:24.568920
20.60891959,6.88594532,-10.68993473,-7.718348503,2024-06-05 19:18:24.608920
20.64891959,6.88594532,-10.68993473,-7.718348503,2024-06-05 19:18:24.648920
20.68891959,6.88594532,-10.68993473,-7.718348503,2024-06-05 19:18:24.688920
20.72891959,6.88594532,-10.68993473,-7.718348503,2024-06-05 19:18:24.728920
20.76891959,6.88594532,-10.68993473,-7.718348503,2024-06-05 19:18:24.768920
20.80891959,6.88594532,-10.68993473,-7.718348503,2024-06-05 19:18:24.808920
20.84891959,6.88594532,-10.68993473,-7.718348503,2024-06-05 19:18:24.848920
20.88891959,6.88594532,-10.68993473,-7.718348503,2024-06-05 19:18:24.888920
20.92891959,6.88594532,-10.68993473,-7.718348503,2024-06-05 19:18:24.928920
20.96891959,6.88594532,-10.68993473,-7.718348503,2024-06-05 19:18:24.968920
21.00891959,6.88594532,-10.68993473,-7.718348503,2024-06-05 19:18:25.008920
21.04891959,6.88594532,-10.68993473,-7.718348503,2024-06-05 19:18:25.048920
21.08891959,6.88594532,-10.68993473,-7.718348503,2024-06-05 19:18:25.088920
21.12891959,2.203789711,-8.525627136,-3.164507866,2024-06-05 19:18:25.128920
21.16891959,2.203789711,-8.525627136,-3.164507866,2024-06-05 19:18:25.168920
21.20891959,2.203789711,-8.525627136,-3.164507866,2024-06-05 19:18:25.208920
21.24891959,2.203789711,-8.525627136,-3.164507866,2024-06-05 19:18:25.248920
21.28891959,2.203789711,-8.525627136,-3.164507866,2024-06-05 19:18:25.288920
21.32891959,2.203789711,-8.525627136,-3.164507866,2024-06-05 19:18:25.328920
21.36891959,2.203789711,-8.525627136,-3.164507866,2024-06-05 19:18:25.368920
21.40891959,2.203789711,-8.525627136,-3.164507866,2024-06-05 19:18:25.408920
21.44891959,3.628117323,-8.542376518,-1.799103498,2024-06-05 19:18:25.448920
21.48891959,2.720041037,-8.775976181,-2.733201742,2024-06-05 19:18:25.488920
21.52891959,3.162115097,-9.814460754,-2.711666346,2024-06-05 19:18:25.528920
21.56891959,3.079562664,-9.558130264,-1.606182218,2024-06-05 19:18:25.568920
21.60891959,2.274377823,-8.213064194,-0.941575706,2024-06-05 19:18:25.608920
21.64891959,2.639881611,-9.072985649,-2.341675997,2024-06-05 19:18:25.648920
21.68891959,2.717648268,-8.860920906,-2.806182861,2024-06-05 19:18:25.688920
21.72891959,3.362214804,-10.50060272,-3.317648649,2024-06-05 19:18:25.728920
21.76891959,1.279262781,-10.47667503,-3.170490026,2024-06-05 19:18:25.768920
21.80891959,-0.1064806059,-14.6892395,19.14138412,2024-06-05 19:18:25.808920
21.84891959,-0.1064806059,-14.6892395,19.14138412,2024-06-05 19:18:25.848920
21.88891959,-0.1064806059,-14.6892395,19.14138412,2024-06-05 19:18:25.888920
21.92891959,-0.1064806059,-14.6892395,19.14138412,2024-06-05 19:18:25.928920
21.96891959,-0.1064806059,-14.6892395,19.14138412,2024-06-05 19:18:25.968920
22.00891959,-0.1064806059,-14.6892395,19.14138412,2024-06-05 19:18:26.008920
22.04891959,-0.1064806059,-14.6892395,19.14138412,2024-06-05 19:18:26.048920
22.08891959,-0.1064806059,-14.6892395,19.14138412,2024-06-05 19:18:26.088920
22.12891959,-0.1064806059,-14.6892395,19.14138412,2024-06-05 19:18:26.128920
22.16891959,-0.1064806059,-14.6892395,19.14138412,2024-06-05 19:18:26.168920
22.20891959,-0.1064806059,-14.6892395,19.14138412,2024-06-05 19:18:26.208920
22.24891959,-0.1064806059,-14.6892395,19.14138412,2024-06-05 19:18:26.248920
22.28891959,-0.1064806059,-14.6892395,19.14138412,2024-06-05 19:18:26.288920
22.32891959,-0.1064806059,-14.6892395,19.14138412,2024-06-05 19:18:26.328920
22.36891959,-0.1064806059,-14.6892395,19.14138412,2024-06-05 19:18:26.368920
22.40891959,-0.1064806059,-14.6892395,19.14138412,2024-06-05 19:18:26.408920
22.44891959,-0.1064806059,-14.6892395,19.14138412,2024-06-05 19:18:26.448920
22.48891959,-0.1064806059,-14.6892395,19.14138412,2024-06-05 19:18:26.488920
22.52891959,-0.1064806059,-14.6892395,19.14138412,2024-06-05 19:18:26.528920
22.56891959,-0.1064806059,-14.6892395,19.14138412,2024-06-05 19:18:26.568920
22.60891959,-0.1064806059,-14.6892395,19.14138412,2024-06-05 19:18:26.608920
22.64891959,-0.1064806059,-14.6892395,19.14138412,2024-06-05 19:18:26.648920
22.68891959,-0.1064806059,-14.6892395,19.14138412,2024-06-05 19:18:26.688920
22.72891959,-0.1064806059,-14.6892395,19.14138412,2024-06-05 19:18:26.728920
22.76891959,-0.1064806059,-14.6892395,19.14138412,2024-06-05 19:18:26.768920
22.80891959,-0.1064806059,-14.6892395,19.14138412,2024-06-05 19:18:26.808920
22.84891959,-0.1064806059,-14.6892395,19.14138412,2024-06-05 19:18:26.848920
22.88891959,-0.1064806059,-14.6892395,19.14138412,2024-06-05 19:18:26.888920
22.92891959,-0.1064806059,-14.6892395,19.14138412,2024-06-05 19:18:26.928920
22.96891959,-0.1064806059,-14.6892395,19.14138412,2024-06-05 19:18:26.968920
23.00891959,-0.1064806059,-14.6892395,19.14138412,2024-06-05 19:18:27.008920
23.04891959,-0.1064806059,-14.6892395,19.14138412,2024-06-05 19:18:27.048920
23.08891959,9.175876617,-10.11625576,-2.027917147,2024-06-05 19:18:27.088920
23.12891959,3.095116138,-11.56540871,1.111466169,2024-06-05 19:18:27.128920
23.16891959,1.751247048,-10.40489006,-1.316351533,2024-06-05 19:18:27.168920
23.20891959,1.397707582,-8.918349266,-1.775175333,2024-06-05 19:18:27.208920
23.24891959,2.431406975,-9.547362328,-0.6382854581,2024-06-05 19:18:27.248920
23.28891959,2.214557409,-8.597412109,-0.8802596331,2024-06-05 19:18:27.288920
23.32891959,1.772782445,-9.0921278,-2.49481678,2024-06-05 19:18:27.328920
23.36891959,1.775175333,-9.730413437,-0.8371888399,2024-06-05 19:18:27.368920
23.40891959,1.670788407,-11.08385372,4.253242016,2024-06-05 19:18:27.408920
23.44891959,0.1725823283,-10.19880867,-2.951247692,2024-06-05 19:18:27.448920
23.48891959,1.32113719,-8.936295509,0.1701895148,2024-06-05 19:18:27.488920
23.52891959,1.32113719,-8.936295509,0.1701895148,2024-06-05 19:18:27.528920
23.56891959,1.32113719,-8.936295509,0.1701895148,2024-06-05 19:18:27.568920
23.60891959,1.32113719,-8.936295509,0.1701895148,2024-06-05 19:18:27.608920
23.64891959,1.32113719,-8.936295509,0.1701895148,2024-06-05 19:18:27.648920
23.68891959,1.32113719,-8.936295509,0.1701895148,2024-06-05 19:18:27.688920
23.72891959,1.32113719,-8.936295509,0.1701895148,2024-06-05 19:18:27.728920
23.76891959,1.32113719,-8.936295509,0.1701895148,2024-06-05 19:18:27.768920
23.80891959,1.32113719,-8.936295509,0.1701895148,2024-06-05 19:18:27.808920
23.84891959,1.32113719,-8.936295509,0.1701895148,2024-06-05 19:18:27.848920
23.88891959,1.32113719,-8.936295509,0.1701895148,2024-06-05 19:18:27.888920
23.92891959,1.32113719,-8.936295509,0.1701895148,2024-06-05 19:18:27.928920
23.96891959,1.32113719,-8.936295509,0.1701895148,2024-06-05 19:18:27.968920
24.00891959,1.32113719,-8.936295509,0.1701895148,2024-06-05 19:18:28.008920
24.04891959,1.32113719,-8.936295509,0.1701895148,2024-06-05 19:18:28.048920
24.08891959,1.32113719,-8.936295509,0.1701895148,2024-06-05 19:18:28.088920
24.12891959,-1.174875975,-10.05165005,-0.4683950245,2024-06-05 19:18:28.128920
24.16891959,-1.174875975,-10.05165005,-0.4683950245,2024-06-05 19:18:28.168920
24.20891959,-1.174875975,-10.05165005,-0.4683950245,2024-06-05 19:18:28.208920
24.24891959,-1.174875975,-10.05165005,-0.4683950245,2024-06-05 19:18:28.248920
24.28891959,-1.174875975,-10.05165005,-0.4683950245,2024-06-05 19:18:28.288920
24.32891959,-1.174875975,-10.05165005,-0.4683950245,2024-06-05 19:18:28.328920
24.36891959,-1.174875975,-10.05165005,-0.4683950245,2024-06-05 19:18:28.368920
24.40891959,-1.174875975,-10.05165005,-0.4683950245,2024-06-05 19:18:28.408920
24.44891959,-1.174875975,-10.05165005,-0.4683950245,2024-06-05 19:18:28.448920
24.48891959,-1.174875975,-10.05165005,-0.4683950245,2024-06-05 19:18:28.488920
24.52891959,-1.174875975,-10.05165005,-0.4683950245,2024-06-05 19:18:28.528920
24.56891959,-1.174875975,-10.05165005,-0.4683950245,2024-06-05 19:18:28.568920
24.60891959,-1.174875975,-10.05165005,-0.4683950245,2024-06-05 19:18:28.608920
24.64891959,-1.174875975,-10.05165005,-0.4683950245,2024-06-05 19:18:28.648920
24.68891959,-1.174875975,-10.05165005,-0.4683950245,2024-06-05 19:18:28.688920
24.72891959,-1.174875975,-10.05165005,-0.4683950245,2024-06-05 19:18:28.728920
24.76891959,2.990729094,-2.029113531,4.49521637,2024-06-05 19:18:28.768920
24.80891959,2.661417007,-7.345666409,10.33310509,2024-06-05 19:18:28.808920
24.84891959,-4.631607533,-11.6276226,-0.4085744619,2024-06-05 19:18:28.848920
24.88891959,1.418046474,-4.975575447,5.064109802,2024-06-05 19:18:28.888920
24.92891959,2.148754835,-6.468996048,-6.425925255,2024-06-05 19:18:28.928920
24.96891959,1.310369492,-16.23081589,-4.565804482,2024-06-05 19:18:28.968920
25.00891959,12.83270741,-12.39661598,-7.233203888,2024-06-05 19:18:29.008920
25.04891959,10.6540432,-12.41695499,-6.776772976,2024-06-05 19:18:29.048920
25.08891959,4.520340919,-11.97637653,16.44975853,2024-06-05 19:18:29.088920
25.12891959,-1.607378602,-13.63759327,-3.08434844,2024-06-05 19:18:29.128920
25.16891959,0.9990034699,-11.83729362,-1.643270969,2024-06-05 19:18:29.168920
25.20891959,0.9990034699,-11.83729362,-1.643270969,2024-06-05 19:18:29.208920
25.24891959,0.9990034699,-11.83729362,-1.643270969,2024-06-05 19:18:29.248920
25.28891959,0.9990034699,-11.83729362,-1.643270969,2024-06-05 19:18:29.288920
25.32891959,0.9990034699,-11.83729362,-1.643270969,2024-06-05 19:18:29.328920
25.36891959,0.9990034699,-11.83729362,-1.643270969,2024-06-05 19:18:29.368920
25.40891959,0.9990034699,-11.83729362,-1.643270969,2024-06-05 19:18:29.408920
25.44891959,0.9990034699,-11.83729362,-1.643270969,2024-06-05 19:18:29.448920
25.48891959,0.9990034699,-11.83729362,-1.643270969,2024-06-05 19:18:29.488920
25.52891959,0.9990034699,-11.83729362,-1.643270969,2024-06-05 19:18:29.528920
25.56891959,0.9990034699,-11.83729362,-1.643270969,2024-06-05 19:18:29.568920
25.60891959,0.9990034699,-11.83729362,-1.643270969,2024-06-05 19:18:29.608920
25.64891959,0.9990034699,-11.83729362,-1.643270969,2024-06-05 19:18:29.648920
25.68891959,0.9990034699,-11.83729362,-1.643270969,2024-06-05 19:18:29.688920
25.72891959,0.9990034699,-11.83729362,-1.643270969,2024-06-05 19:18:29.728920
25.76891959,0.9990034699,-11.83729362,-1.643270969,2024-06-05 19:18:29.768920
25.80891959,0.9990034699,-11.83729362,-1.643270969,2024-06-05 19:18:29.808920
25.84891959,0.9990034699,-11.83729362,-1.643270969,2024-06-05 19:18:29.848920
25.88891959,0.9990034699,-11.83729362,-1.643270969,2024-06-05 19:18:29.888920
25.92891959,0.9990034699,-11.83729362,-1.643270969,2024-06-05 19:18:29.928920
25.96891959,0.9990034699,-11.83729362,-1.643270969,2024-06-05 19:18:29.968920
26.00891959,0.9990034699,-11.83729362,-1.643270969,2024-06-05 19:18:30.008920
26.04891959,0.9990034699,-11.83729362,-1.643270969,2024-06-05 19:18:30.048920
26.08891959,0.9990034699,-11.83729362,-1.643270969,2024-06-05 19:18:30.088920
26.12891959,0.9990034699,-11.83729362,-1.643270969,2024-06-05 19:18:30.128920
26.16891959,0.9990034699,-11.83729362,-1.643270969,2024-06-05 19:18:30.168920
26.20891959,0.9990034699,-11.83729362,-1.643270969,2024-06-05 19:18:30.208920
26.24891959,0.9990034699,-11.83729362,-1.643270969,2024-06-05 19:18:30.248920
26.28891959,0.9990034699,-11.83729362,-1.643270969,2024-06-05 19:18:30.288920
26.32891959,0.9990034699,-11.83729362,-1.643270969,2024-06-05 19:18:30.328920
26.36891959,0.9990034699,-11.83729362,-1.643270969,2024-06-05 19:18:30.368920
26.40891959,0.9990034699,-11.83729362,-1.643270969,2024-06-05 19:18:30.408920
26.44891959,1.834995866,-4.210171223,-1.19880414,2024-06-05 19:18:30.448920
26.48891959,4.234099865,-10.05165005,-0.6239284873,2024-06-05 19:18:30.488920
26.52891959,-0.1112662554,-13.07468224,4.007678986,2024-06-05 19:18:30.528920
26.56891959,0.3687937856,-7.16022253,-0.280259341,2024-06-05 19:18:30.568920
26.60891959,1.069591761,-8.840581894,3.251846075,2024-06-05 19:18:30.608920
26.64891959,1.600200176,-9.837192535,-0.1606182158,2024-06-05 19:18:30.648920
26.68891959,1.815853238,-9.504291534,1.379761338,2024-06-05 19:18:30.688920
26.72891959,0.6888338327,-8.657232285,-0.4169493318,2024-06-05 19:18:30.728920
26.76891959,1.202393413,-9.268299103,0.5282155871,2024-06-05 19:18:30.768920
26.80891959,0.728315413,-10.09232807,-1.257727385,2024-06-05 19:18:30.808920
26.84891959,2.238485575,-9.396315575,-1.475773335,2024-06-05 19:18:30.848920
26.88891959,6.940980434,-9.165108681,3.911965847,2024-06-05 19:18:30.888920
26.92891959,6.940980434,-9.165108681,3.911965847,2024-06-05 19:18:30.928920
26.96891959,6.940980434,-9.165108681,3.911965847,2024-06-05 19:18:30.968920
27.00891959,6.940980434,-9.165108681,3.911965847,2024-06-05 19:18:31.008920
27.04891959,6.940980434,-9.165108681,3.911965847,2024-06-05 19:18:31.048920
27.08891959,6.940980434,-9.165108681,3.911965847,2024-06-05 19:18:31.088920
27.12891959,4.205385685,-11.07787132,-1.014556766,2024-06-05 19:18:31.128920
27.16891959,4.205385685,-11.07787132,-1.014556766,2024-06-05 19:18:31.168920
27.20891959,4.205385685,-11.07787132,-1.014556766,2024-06-05 19:18:31.208920
27.24891959,4.205385685,-11.07787132,-1.014556766,2024-06-05 19:18:31.248920
27.28891959,4.205385685,-11.07787132,-1.014556766,2024-06-05 19:18:31.288920
27.32891959,4.205385685,-11.07787132,-1.014556766,2024-06-05 19:18:31.328920
27.36891959,3.308077335,-6.58654356,-1.916351795,2024-06-05 19:18:31.368920
27.40891959,3.308077335,-6.58654356,-1.916351795,2024-06-05 19:18:31.408920
27.44891959,3.308077335,-6.58654356,-1.916351795,2024-06-05 19:18:31.448920
27.48891959,3.308077335,-6.58654356,-1.916351795,2024-06-05 19:18:31.488920
27.52891959,3.308077335,-6.58654356,-1.916351795,2024-06-05 19:18:31.528920
27.56891959,3.308077335,-6.58654356,-1.916351795,2024-06-05 19:18:31.568920
27.60891959,3.308077335,-6.58654356,-1.916351795,2024-06-05 19:18:31.608920
27.64891959,3.308077335,-6.58654356,-1.916351795,2024-06-05 19:18:31.648920
27.68891959,3.308077335,-6.58654356,-1.916351795,2024-06-05 19:18:31.688920
27.72891959,3.308077335,-6.58654356,-1.916351795,2024-06-05 19:18:31.728920
27.76891959,3.308077335,-6.58654356,-1.916351795,2024-06-05 19:18:31.768920
27.80891959,3.308077335,-6.58654356,-1.916351795,2024-06-05 19:18:31.808920
27.84891959,3.308077335,-6.58654356,-1.916351795,2024-06-05 19:18:31.848920
27.88891959,3.308077335,-6.58654356,-1.916351795,2024-06-05 19:18:31.888920
27.92891959,3.308077335,-6.58654356,-1.916351795,2024-06-05 19:18:31.928920
27.96891959,3.308077335,-6.58654356,-1.916351795,2024-06-05 19:18:31.968920
28.00891959,3.308077335,-6.58654356,-1.916351795,2024-06-05 19:18:32.008920
28.04891959,3.308077335,-6.58654356,-1.916351795,2024-06-05 19:18:32.048920
28.08891959,3.308077335,-6.58654356,-1.916351795,2024-06-05 19:18:32.088920
28.12891959,-1.719841242,-11.52233791,-0.7989036441,2024-06-05 19:18:32.128920
28.16891959,-0.3197409213,-9.324530602,-1.213460207,2024-06-05 19:18:32.168920
28.20891959,1.838585138,-7.939983845,-1.576271892,2024-06-05 19:18:32.208920
28.24891959,5.388636589,-8.650053978,2.760719061,2024-06-05 19:18:32.248920
28.28891959,0.6011967063,-10.18923664,-3.231507063,2024-06-05 19:18:32.288920
28.32891959,-1.257727385,-9.88146019,1.04685986,2024-06-05 19:18:32.328920
28.36891959,0.8623134494,-10.31635571,-1.074377418,2024-06-05 19:18:32.368920
28.40891959,4.465306282,-10.0839529,-1.027717352,2024-06-05 19:18:32.408920
28.44891959,1.640878081,-8.741280556,-2.595614433,2024-06-05 19:18:32.448920
28.48891959,0.2682952285,-8.769993782,-1.487737536,2024-06-05 19:18:32.488920
28.52891959,-0.4863412082,-9.90658474,-0.9329017401,2024-06-05 19:18:32.528920
28.56891959,-0.4863412082,-9.90658474,-0.9329017401,2024-06-05 19:18:32.568920
28.60891959,-0.4863412082,-9.90658474,-0.9329017401,2024-06-05 19:18:32.608920
28.64891959,-0.4863412082,-9.90658474,-0.9329017401,2024-06-05 19:18:32.648920
28.68891959,-0.4863412082,-9.90658474,-0.9329017401,2024-06-05 19:18:32.688920
28.72891959,-0.4863412082,-9.90658474,-0.9329017401,2024-06-05 19:18:32.728920
28.76891959,-0.4863412082,-9.90658474,-0.9329017401,2024-06-05 19:18:32.768920
28.80891959,-0.4863412082,-9.90658474,-0.9329017401,2024-06-05 19:18:32.808920
28.84891959,-0.4863412082,-9.90658474,-0.9329017401,2024-06-05 19:18:32.848920
28.88891959,-0.4863412082,-9.90658474,-0.9329017401,2024-06-05 19:18:32.888920
28.92891959,-0.4863412082,-9.90658474,-0.9329017401,2024-06-05 19:18:32.928920
28.96891959,-0.4863412082,-9.90658474,-0.9329017401,2024-06-05 19:18:32.968920
29.00891959,-0.4863412082,-9.90658474,-0.9329017401,2024-06-05 19:18:33.008920
29.04891959,-0.4863412082,-9.90658474,-0.9329017401,2024-06-05 19:18:33.048920
29.08891959,-0.4863412082,-9.90658474,-0.9329017401,2024-06-05 19:18:33.088920
29.12891959,-0.4863412082,-9.90658474,-0.9329017401,2024-06-05 19:18:33.128920
29.16891959,-0.4863412082,-9.90658474,-0.9329017401,2024-06-05 19:18:33.168920
29.20891959,-0.4863412082,-9.90658474,-0.9329017401,2024-06-05 19:18:33.208920
29.24891959,-0.4863412082,-9.90658474,-0.9329017401,2024-06-05 19:18:33.248920
29.28891959,-0.4863412082,-9.90658474,-0.9329017401,2024-06-05 19:18:33.288920
29.32891959,-0.4863412082,-9.90658474,-0.9329017401,2024-06-05 19:18:33.328920
29.36891959,-0.4863412082,-9.90658474,-0.9329017401,2024-06-05 19:18:33.368920
29.40891959,-0.4863412082,-9.90658474,-0.9329017401,2024-06-05 19:18:33.408920
29.44891959,-0.4863412082,-9.90658474,-0.9329017401,2024-06-05 19:18:33.448920
29.48891959,-0.4863412082,-9.90658474,-0.9329017401,2024-06-05 19:18:33.488920
29.52891959,-0.4863412082,-9.90658474,-0.9329017401,2024-06-05 19:18:33.528920
29.56891959,-0.4863412082,-9.90658474,-0.9329017401,2024-06-05 19:18:33.568920
29.60891959,-0.4863412082,-9.90658474,-0.9329017401,2024-06-05 19:18:33.608920
29.64891959,-0.4863412082,-9.90658474,-0.9329017401,2024-06-05 19:18:33.648920
29.68891959,-0.4863412082,-9.90658474,-0.9329017401,2024-06-05 19:18:33.688920
29.72891959,-0.4863412082,-9.90658474,-0.9329017401,2024-06-05 19:18:33.728920
29.76891959,-0.4863412082,-9.90658474,-0.9329017401,2024-06-05 19:18:33.768920
29.80891959,6.967301369,-11.12722397,-3.643670797,2024-06-05 19:18:33.808920
29.84891959,6.157629967,-11.72842026,-2.599203587,2024-06-05 19:18:33.848920
29.88891959,1.772782445,-10.7605238,20.97488594,2024-06-05 19:18:33.888920
29.92891959,-4.690530777,-9.964012146,1.43359983,2024-06-05 19:18:33.928920
29.96891959,0.280259341,-12.6003046,6.425925255,2024-06-05 19:18:33.968920
30.00891959,-0.3269194067,-10.7114706,-0.993021369,2024-06-05 19:18:34.008920
30.04891959,0.7402794957,-11.06830025,0.3221337497,2024-06-05 19:18:34.048920
30.08891959,0.6864410043,-10.40249729,-2.776272535,2024-06-05 19:18:34.088920
30.12891959,0.2000997961,-10.34387302,1.763211131,2024-06-05 19:18:34.128920
30.16891959,3.713062525,-10.05045319,1.481755376,2024-06-05 19:18:34.168920
30.20891959,2.939283609,-9.161520004,-0.399900496,2024-06-05 19:18:34.208920
30.24891959,2.939283609,-9.161520004,-0.399900496,2024-06-05 19:18:34.248920
30.28891959,2.939283609,-9.161520004,-0.399900496,2024-06-05 19:18:34.288920
30.32891959,2.939283609,-9.161520004,-0.399900496,2024-06-05 19:18:34.328920
30.36891959,2.939283609,-9.161520004,-0.399900496,2024-06-05 19:18:34.368920
30.40891959,2.939283609,-9.161520004,-0.399900496,2024-06-05 19:18:34.408920
30.44891959,2.939283609,-9.161520004,-0.399900496,2024-06-05 19:18:34.448920
30.48891959,2.939283609,-9.161520004,-0.399900496,2024-06-05 19:18:34.488920
30.52891959,2.939283609,-9.161520004,-0.399900496,2024-06-05 19:18:34.528920
30.56891959,2.939283609,-9.161520004,-0.399900496,2024-06-05 19:18:34.568920
30.60891959,2.939283609,-9.161520004,-0.399900496,2024-06-05 19:18:34.608920
30.64891959,2.939283609,-9.161520004,-0.399900496,2024-06-05 19:18:34.648920
30.68891959,2.939283609,-9.161520004,-0.399900496,2024-06-05 19:18:34.688920
30.72891959,2.939283609,-9.161520004,-0.399900496,2024-06-05 19:18:34.728920
30.76891959,2.939283609,-9.161520004,-0.399900496,2024-06-05 19:18:34.768920
30.80891959,2.939283609,-9.161520004,-0.399900496,2024-06-05 19:18:34.808920
30.84891959,2.939283609,-9.161520004,-0.399900496,2024-06-05 19:18:34.848920
30.88891959,2.939283609,-9.161520004,-0.399900496,2024-06-05 19:18:34.888920
30.92891959,2.939283609,-9.161520004,-0.399900496,2024-06-05 19:18:34.928920
30.96891959,2.939283609,-9.161520004,-0.399900496,2024-06-05 19:18:34.968920
31.00891959,2.939283609,-9.161520004,-0.399900496,2024-06-05 19:18:35.008920
31.04891959,2.939283609,-9.161520004,-0.399900496,2024-06-05 19:18:35.048920
31.08891959,2.939283609,-9.161520004,-0.399900496,2024-06-05 19:18:35.088920
31.12891959,2.497209549,-3.600300789,3.292523861,2024-06-05 19:18:35.128920
31.16891959,2.497209549,-3.600300789,3.292523861,2024-06-05 19:18:35.168920
31.20891959,2.497209549,-3.600300789,3.292523861,2024-06-05 19:18:35.208920
31.24891959,2.497209549,-3.600300789,3.292523861,2024-06-05 19:18:35.248920
31.28891959,2.497209549,-3.600300789,3.292523861,2024-06-05 19:18:35.288920
31.32891959,2.497209549,-3.600300789,3.292523861,2024-06-05 19:18:35.328920
31.36891959,2.497209549,-3.600300789,3.292523861,2024-06-05 19:18:35.368920
31.40891959,2.497209549,-3.600300789,3.292523861,2024-06-05 19:18:35.408920
31.44891959,2.497209549,-3.600300789,3.292523861,2024-06-05 19:18:35.448920
31.48891959,10.59422207,-8.555537224,-8.850153923,2024-06-05 19:18:35.488920
31.52891959,-0.323330164,-17.01057625,0.4636093974,2024-06-05 19:18:35.528920
31.56891959,-0.6095715761,-23.95514488,9.313762665,2024-06-05 19:18:35.568920
31.60891959,10.63968563,-15.16840172,10.73898792,2024-06-05 19:18:35.608920
31.64891959,3.723830223,-6.318248272,-3.072085142,2024-06-05 19:18:35.648920
31.68891959,-0.3436691463,-1.10309124,-13.49492168,2024-06-05 19:18:35.688920
31.72891959,0.1486541033,3.069692373,-0.8300103545,2024-06-05 19:18:35.728920
31.76891959,-8.051250458,-1.024128079,16.7156601,2024-06-05 19:18:35.768920
31.80891959,3.769293785,1.020538807,7.738687515,2024-06-05 19:18:35.808920
31.84891959,5.909673691,-12.50100327,14.21964741,2024-06-05 19:18:35.848920
31.88891959,5.909673691,-12.50100327,14.21964741,2024-06-05 19:18:35.888920
31.92891959,5.909673691,-12.50100327,14.21964741,2024-06-05 19:18:35.928920
31.96891959,5.909673691,-12.50100327,14.21964741,2024-06-05 19:18:35.968920
32.00891959,5.909673691,-12.50100327,14.21964741,2024-06-05 19:18:36.008920
32.04891959,5.909673691,-12.50100327,14.21964741,2024-06-05 19:18:36.048920
32.08891959,5.909673691,-12.50100327,14.21964741,2024-06-05 19:18:36.088920
32.12891959,4.527519703,-7.748258591,5.037788868,2024-06-05 19:18:36.128920
32.16891959,4.527519703,-7.748258591,5.037788868,2024-06-05 19:18:36.168920
32.20891959,4.527519703,-7.748258591,5.037788868,2024-06-05 19:18:36.208920
32.24891959,4.527519703,-7.748258591,5.037788868,2024-06-05 19:18:36.248920
32.28891959,4.527519703,-7.748258591,5.037788868,2024-06-05 19:18:36.288920
32.32891959,4.527519703,-7.748258591,5.037788868,2024-06-05 19:18:36.328920
32.36891959,4.527519703,-7.748258591,5.037788868,2024-06-05 19:18:36.368920
32.40891959,4.527519703,-7.748258591,5.037788868,2024-06-05 19:18:36.408920
32.44891959,4.527519703,-7.748258591,5.037788868,2024-06-05 19:18:36.448920
32.48891959,4.527519703,-7.748258591,5.037788868,2024-06-05 19:18:36.488920
32.52891959,4.527519703,-7.748258591,5.037788868,2024-06-05 19:18:36.528920
32.56891959,4.527519703,-7.748258591,5.037788868,2024-06-05 19:18:36.568920
32.60891959,4.527519703,-7.748258591,5.037788868,2024-06-05 19:18:36.608920
32.64891959,4.527519703,-7.748258591,5.037788868,2024-06-05 19:18:36.648920
32.68891959,4.527519703,-7.748258591,5.037788868,2024-06-05 19:18:36.688920
32.72891959,4.527519703,-7.748258591,5.037788868,2024-06-05 19:18:36.728920
32.76891959,4.527519703,-7.748258591,5.037788868,2024-06-05 19:18:36.768920
32.80891959,4.527519703,-7.748258591,5.037788868,2024-06-05 19:18:36.808920
32.84891959,4.527519703,-7.748258591,5.037788868,2024-06-05 19:18:36.848920
32.88891959,4.527519703,-7.748258591,5.037788868,2024-06-05 19:18:36.888920
32.92891959,4.527519703,-7.748258591,5.037788868,2024-06-05 19:18:36.928920
32.96891959,4.527519703,-7.748258591,5.037788868,2024-06-05 19:18:36.968920
33.00891959,4.527519703,-7.748258591,5.037788868,2024-06-05 19:18:37.008920
33.04891959,4.527519703,-7.748258591,5.037788868,2024-06-05 19:18:37.048920
33.08891959,4.527519703,-7.748258591,5.037788868,2024-06-05 19:18:37.088920
33.12891959,4.527519703,-7.748258591,5.037788868,2024-06-05 19:18:37.128920
33.16891959,4.712066174,-6.237789631,7.181757927,2024-06-05 19:18:37.168920
33.20891959,5.953940868,-4.41236496,-3.536890984,2024-06-05 19:18:37.208920
33.24891959,6.782754898,-5.648557186,6.940980434,2024-06-05 19:18:37.248920
33.28891959,0.2359921336,0.5389832854,-8.287241936,2024-06-05 19:18:37.288920
33.32891959,-1.016949654,-5.892923832,0.8730811477,2024-06-05 19:18:37.328920
33.36891959,25.00768852,-37.96153259,5.217250824,2024-06-05 19:18:37.368920
33.40891959,4.613661289,-4.945366383,6.758826733,2024-06-05 19:18:37.408920
33.44891959,-1.97138679,-0.7163512707,-2.779861689,2024-06-05 19:18:37.448920
33.48891959,-1.227817178,-5.68564558,-2.333301067,2024-06-05 19:18:37.488920
33.52891959,-6.585347176,-19.04896164,15.39003658,2024-06-05 19:18:37.528920
33.56891959,-6.585347176,-19.04896164,15.39003658,2024-06-05 19:18:37.568920
33.60891959,-6.585347176,-19.04896164,15.39003658,2024-06-05 19:18:37.608920
33.64891959,-6.585347176,-19.04896164,15.39003658,2024-06-05 19:18:37.648920
33.68891959,-6.585347176,-19.04896164,15.39003658,2024-06-05 19:18:37.688920
33.72891959,-6.585347176,-19.04896164,15.39003658,2024-06-05 19:18:37.728920
33.76891959,-6.585347176,-19.04896164,15.39003658,2024-06-05 19:18:37.768920
33.80891959,-6.585347176,-19.04896164,15.39003658,2024-06-05 19:18:37.808920
33.84891959,-6.585347176,-19.04896164,15.39003658,2024-06-05 19:18:37.848920
33.88891959,-6.585347176,-19.04896164,15.39003658,2024-06-05 19:18:37.888920
33.92891959,-6.585347176,-19.04896164,15.39003658,2024-06-05 19:18:37.928920
33.96891959,-6.585347176,-19.04896164,15.39003658,2024-06-05 19:18:37.968920
34.00891959,-6.585347176,-19.04896164,15.39003658,2024-06-05 19:18:38.008920
34.04891959,-6.585347176,-19.04896164,15.39003658,2024-06-05 19:18:38.048920
34.08891959,-6.585347176,-19.04896164,15.39003658,2024-06-05 19:18:38.088920
34.12891959,1.487737536,-2.473281384,-2.274377823,2024-06-05 19:18:38.128920
34.16891959,1.487737536,-2.473281384,-2.274377823,2024-06-05 19:18:38.168920
34.20891959,1.487737536,-2.473281384,-2.274377823,2024-06-05 19:18:38.208920
34.24891959,1.487737536,-2.473281384,-2.274377823,2024-06-05 19:18:38.248920
34.28891959,1.487737536,-2.473281384,-2.274377823,2024-06-05 19:18:38.288920
34.32891959,1.487737536,-2.473281384,-2.274377823,2024-06-05 19:18:38.328920
34.36891959,1.487737536,-2.473281384,-2.274377823,2024-06-05 19:18:38.368920
34.40891959,1.487737536,-2.473281384,-2.274377823,2024-06-05 19:18:38.408920
34.44891959,1.487737536,-2.473281384,-2.274377823,2024-06-05 19:18:38.448920
34.48891959,1.487737536,-2.473281384,-2.274377823,2024-06-05 19:18:38.488920
34.52891959,1.487737536,-2.473281384,-2.274377823,2024-06-05 19:18:38.528920
34.56891959,1.487737536,-2.473281384,-2.274377823,2024-06-05 19:18:38.568920
34.60891959,1.487737536,-2.473281384,-2.274377823,2024-06-05 19:18:38.608920
34.64891959,1.487737536,-2.473281384,-2.274377823,2024-06-05 19:18:38.648920
34.68891959,1.487737536,-2.473281384,-2.274377823,2024-06-05 19:18:38.688920
34.72891959,1.487737536,-2.473281384,-2.274377823,2024-06-05 19:18:38.728920
34.76891959,1.487737536,-2.473281384,-2.274377823,2024-06-05 19:18:38.768920
34.80891959,1.487737536,-2.473281384,-2.274377823,2024-06-05 19:18:38.808920
34.84891959,-4.695316315,-20.14966011,-4.121337891,2024-06-05 19:18:38.848920
34.88891959,0.7977072597,-11.54865932,-7.79372263,2024-06-05 19:18:38.888920
34.92891959,-2.112862349,-8.529216766,-6.077470303,2024-06-05 19:18:38.928920
34.96891959,0.4923232496,-7.656135082,-1.472184181,2024-06-05 19:18:38.968920
35.00891959,2.161915302,-6.457031727,5.684449196,2024-06-05 19:18:39.008920
35.04891959,1.281655669,-5.72512722,-0.04067798331,2024-06-05 19:18:39.048920
35.08891959,0.5258227587,-6.133701801,-0.4109672904,2024-06-05 19:18:39.088920
35.12891959,1.897209287,-7.127919674,-0.4743770957,2024-06-05 19:18:39.128920
35.16891959,-0.1510469317,-9.087342262,-2.615953445,2024-06-05 19:18:39.168920
35.20891959,-1.391725421,-12.3116703,-2.208575249,2024-06-05 19:18:39.208920
35.24891959,0.7654041648,-18.57099533,0.2252244353,2024-06-05 19:18:39.248920
35.28891959,0.7654041648,-18.57099533,0.2252244353,2024-06-05 19:18:39.288920
35.32891959,0.7654041648,-18.57099533,0.2252244353,2024-06-05 19:18:39.328920
35.36891959,0.7654041648,-18.57099533,0.2252244353,2024-06-05 19:18:39.368920
35.40891959,0.7654041648,-18.57099533,0.2252244353,2024-06-05 19:18:39.408920
35.44891959,0.7654041648,-18.57099533,0.2252244353,2024-06-05 19:18:39.448920
35.48891959,0.7654041648,-18.57099533,0.2252244353,2024-06-05 19:18:39.488920
35.52891959,0.7654041648,-18.57099533,0.2252244353,2024-06-05 19:18:39.528920
35.56891959,0.7654041648,-18.57099533,0.2252244353,2024-06-05 19:18:39.568920
35.60891959,0.7654041648,-18.57099533,0.2252244353,2024-06-05 19:18:39.608920
35.64891959,0.7654041648,-18.57099533,0.2252244353,2024-06-05 19:18:39.648920
35.68891959,0.7654041648,-18.57099533,0.2252244353,2024-06-05 19:18:39.688920
35.72891959,0.7654041648,-18.57099533,0.2252244353,2024-06-05 19:18:39.728920
35.76891959,0.7654041648,-18.57099533,0.2252244353,2024-06-05 19:18:39.768920
35.80891959,0.7654041648,-18.57099533,0.2252244353,2024-06-05 19:18:39.808920
35.84891959,0.7654041648,-18.57099533,0.2252244353,2024-06-05 19:18:39.848920
35.88891959,0.7654041648,-18.57099533,0.2252244353,2024-06-05 19:18:39.888920
35.92891959,0.7654041648,-18.57099533,0.2252244353,2024-06-05 19:18:39.928920
35.96891959,0.7654041648,-18.57099533,0.2252244353,2024-06-05 19:18:39.968920
36.00891959,0.7654041648,-18.57099533,0.2252244353,2024-06-05 19:18:40.008920
36.04891959,0.7654041648,-18.57099533,0.2252244353,2024-06-05 19:18:40.048920
36.08891959,0.7654041648,-18.57099533,0.2252244353,2024-06-05 19:18:40.088920
36.12891959,2.227717876,-6.878767014,-0.4492524564,2024-06-05 19:18:40.128920
36.16891959,2.227717876,-6.878767014,-0.4492524564,2024-06-05 19:18:40.168920
36.20891959,2.227717876,-6.878767014,-0.4492524564,2024-06-05 19:18:40.208920
36.24891959,2.227717876,-6.878767014,-0.4492524564,2024-06-05 19:18:40.248920
36.28891959,2.227717876,-6.878767014,-0.4492524564,2024-06-05 19:18:40.288920
36.32891959,2.227717876,-6.878767014,-0.4492524564,2024-06-05 19:18:40.328920
36.36891959,2.227717876,-6.878767014,-0.4492524564,2024-06-05 19:18:40.368920
36.40891959,2.227717876,-6.878767014,-0.4492524564,2024-06-05 19:18:40.408920
36.44891959,2.227717876,-6.878767014,-0.4492524564,2024-06-05 19:18:40.448920
36.48891959,2.227717876,-6.878767014,-0.4492524564,2024-06-05 19:18:40.488920
36.52891959,2.670988321,-8.46102047,0.2276172489,2024-06-05 19:18:40.528920
36.56891959,6.525227547,-10.40847969,0.418145746,2024-06-05 19:18:40.568920
36.60891959,5.2737813,-6.979265213,1.639681697,2024-06-05 19:18:40.608920
36.64891959,1.777568102,-3.013461113,0.485144794,2024-06-05 19:18:40.648920
36.68891959,1.463510156,-4.081856251,0.470787853,2024-06-05 19:18:40.688920
36.72891959,2.653042078,-8.935098648,-2.476870537,2024-06-05 19:18:40.728920
36.76891959,3.251846075,-10.57388306,-0.02991028316,2024-06-05 19:18:40.768920
36.80891959,-0.2024926096,-7.9782691,-0.5437689424,2024-06-05 19:18:40.808920
36.84891959,-0.1833500415,-3.186043262,2.82682085,2024-06-05 19:18:40.848920
36.88891959,-3.89880538,-2.348854542,-5.169394016,2024-06-05 19:18:40.888920
36.92891959,-3.89880538,-2.348854542,-5.169394016,2024-06-05 19:18:40.928920
36.96891959,-3.89880538,-2.348854542,-5.169394016,2024-06-05 19:18:40.968920
37.00891959,-3.89880538,-2.348854542,-5.169394016,2024-06-05 19:18:41.008920
37.04891959,-3.89880538,-2.348854542,-5.169394016,2024-06-05 19:18:41.048920
37.08891959,-3.89880538,-2.348854542,-5.169394016,2024-06-05 19:18:41.088920
37.12891959,-4.271188259,-14.29741478,3.876971006,2024-06-05 19:18:41.128920
37.16891959,-4.271188259,-14.29741478,3.876971006,2024-06-05 19:18:41.168920
37.20891959,-4.271188259,-14.29741478,3.876971006,2024-06-05 19:18:41.208920
37.24891959,-4.271188259,-14.29741478,3.876971006,2024-06-05 19:18:41.248920
37.28891959,-4.271188259,-14.29741478,3.876971006,2024-06-05 19:18:41.288920
37.32891959,-4.271188259,-14.29741478,3.876971006,2024-06-05 19:18:41.328920
37.36891959,-4.271188259,-14.29741478,3.876971006,2024-06-05 19:18:41.368920
37.40891959,-4.271188259,-14.29741478,3.876971006,2024-06-05 19:18:41.408920
37.44891959,-4.271188259,-14.29741478,3.876971006,2024-06-05 19:18:41.448920
37.48891959,-4.271188259,-14.29741478,3.876971006,2024-06-05 19:18:41.488920
37.52891959,-4.271188259,-14.29741478,3.876971006,2024-06-05 19:18:41.528920
37.56891959,-4.271188259,-14.29741478,3.876971006,2024-06-05 19:18:41.568920
37.60891959,-4.271188259,-14.29741478,3.876971006,2024-06-05 19:18:41.608920
37.64891959,-4.271188259,-14.29741478,3.876971006,2024-06-05 19:18:41.648920
37.68891959,-4.271188259,-14.29741478,3.876971006,2024-06-05 19:18:41.688920
37.72891959,-4.271188259,-14.29741478,3.876971006,2024-06-05 19:18:41.728920
37.76891959,-4.271188259,-14.29741478,3.876971006,2024-06-05 19:18:41.768920
37.80891959,-4.271188259,-14.29741478,3.876971006,2024-06-05 19:18:41.808920
37.84891959,-4.271188259,-14.29741478,3.876971006,2024-06-05 19:18:41.848920
37.88891959,-4.271188259,-14.29741478,3.876971006,2024-06-05 19:18:41.888920
37.92891959,-4.271188259,-14.29741478,3.876971006,2024-06-05 19:18:41.928920
37.96891959,-4.271188259,-14.29741478,3.876971006,2024-06-05 19:18:41.968920
38.00891959,-4.271188259,-14.29741478,3.876971006,2024-06-05 19:18:42.008920
38.04891959,-4.271188259,-14.29741478,3.876971006,2024-06-05 19:18:42.048920
38.08891959,-4.271188259,-14.29741478,3.876971006,2024-06-05 19:18:42.088920
38.12891959,-4.271188259,-14.29741478,3.876971006,2024-06-05 19:18:42.128920
38.16891959,-4.271188259,-14.29741478,3.876971006,2024-06-05 19:18:42.168920
38.20891959,13.81496143,-19.09322929,-0.6179464459,2024-06-05 19:18:42.208920
38.24891959,4.226921082,-12.47348499,-3.018246651,2024-06-05 19:18:42.248920
38.28891959,8.126624107,-11.45294666,1.077966571,2024-06-05 19:18:42.288920
38.32891959,9.911370277,-12.19920826,0.2383849621,2024-06-05 19:18:42.328920
38.36891959,7.573283672,-9.954441071,0.3364906907,2024-06-05 19:18:42.368920
38.40891959,2.251646042,-10.73779202,-0.08135596663,2024-06-05 19:18:42.408920
38.44891959,0.8455637097,-8.394919395,-0.3101696372,2024-06-05 19:18:42.448920
38.48891959,2.129612207,-6.660720825,-0.7307082415,2024-06-05 19:18:42.488920
38.52891959,0.6275177598,-8.099106789,-2.332104683,2024-06-05 19:18:42.528920
38.56891959,1.832603097,-10.67916775,2.697309256,2024-06-05 19:18:42.568920
38.60891959,1.832603097,-10.67916775,2.697309256,2024-06-05 19:18:42.608920
38.64891959,1.832603097,-10.67916775,2.697309256,2024-06-05 19:18:42.648920
38.68891959,1.832603097,-10.67916775,2.697309256,2024-06-05 19:18:42.688920
38.72891959,1.832603097,-10.67916775,2.697309256,2024-06-05 19:18:42.728920
38.76891959,1.832603097,-10.67916775,2.697309256,2024-06-05 19:18:42.768920
38.80891959,1.832603097,-10.67916775,2.697309256,2024-06-05 19:18:42.808920
38.84891959,1.832603097,-10.67916775,2.697309256,2024-06-05 19:18:42.848920
38.88891959,1.832603097,-10.67916775,2.697309256,2024-06-05 19:18:42.888920
38.92891959,1.832603097,-10.67916775,2.697309256,2024-06-05 19:18:42.928920
38.96891959,1.832603097,-10.67916775,2.697309256,2024-06-05 19:18:42.968920
39.00891959,1.832603097,-10.67916775,2.697309256,2024-06-05 19:18:43.008920
39.04891959,1.832603097,-10.67916775,2.697309256,2024-06-05 19:18:43.048920
39.08891959,1.832603097,-10.67916775,2.697309256,2024-06-05 19:18:43.088920
39.12891959,1.832603097,-10.67916775,2.697309256,2024-06-05 19:18:43.128920
39.16891959,1.832603097,-10.67916775,2.697309256,2024-06-05 19:18:43.168920
39.20891959,1.832603097,-10.67916775,2.697309256,2024-06-05 19:18:43.208920
39.24891959,1.832603097,-10.67916775,2.697309256,2024-06-05 19:18:43.248920
39.28891959,1.832603097,-10.67916775,2.697309256,2024-06-05 19:18:43.288920
39.32891959,1.832603097,-10.67916775,2.697309256,2024-06-05 19:18:43.328920
39.36891959,1.832603097,-10.67916775,2.697309256,2024-06-05 19:18:43.368920
39.40891959,1.832603097,-10.67916775,2.697309256,2024-06-05 19:18:43.408920
39.44891959,1.832603097,-10.67916775,2.697309256,2024-06-05 19:18:43.448920
39.48891959,1.832603097,-10.67916775,2.697309256,2024-06-05 19:18:43.488920
39.52891959,1.832603097,-10.67916775,2.697309256,2024-06-05 19:18:43.528920
39.56891959,1.832603097,-10.67916775,2.697309256,2024-06-05 19:18:43.568920
39.60891959,1.832603097,-10.67916775,2.697309256,2024-06-05 19:18:43.608920
39.64891959,1.832603097,-10.67916775,2.697309256,2024-06-05 19:18:43.648920
39.68891959,1.832603097,-10.67916775,2.697309256,2024-06-05 19:18:43.688920
39.72891959,1.832603097,-10.67916775,2.697309256,2024-06-05 19:18:43.728920
39.76891959,1.832603097,-10.67916775,2.697309256,2024-06-05 19:18:43.768920
39.80891959,1.832603097,-10.67916775,2.697309256,2024-06-05 19:18:43.808920
39.84891959,1.832603097,-10.67916775,2.697309256,2024-06-05 19:18:43.848920
39.88891959,1.497308731,-8.427222252,-1.625324726,2024-06-05 19:18:43.888920
39.92891959,3.92991209,-9.280263901,3.84706068,2024-06-05 19:18:43.928920
39.96891959,3.473481178,-6.490531445,1.173679471,2024-06-05 19:18:43.968920
40.00891959,3.550051451,-7.013961315,3.128615618,2024-06-05 19:18:44.008920
40.04891959,2.429013968,-8.397312164,1.640878081,2024-06-05 19:18:44.048920
40.08891959,1.706680775,-10.21914768,1.843370795,2024-06-05 19:18:44.088920
40.12891959,0.8347960114,-9.96042347,0.7091727853,2024-06-05 19:18:44.128920
40.16891959,1.000199914,-9.725627899,0.6924230456,2024-06-05 19:18:44.168920
40.20891959,3.70588398,-8.240582466,-3.789632797,2024-06-05 19:18:44.208920
40.24891959,4.865206718,-11.19063377,2.4158535,2024-06-05 19:18:44.248920
40.28891959,5.813961029,-9.635896683,5.222335339,2024-06-05 19:18:44.288920
40.32891959,5.813961029,-9.635896683,5.222335339,2024-06-05 19:18:44.328920
40.36891959,5.813961029,-9.635896683,5.222335339,2024-06-05 19:18:44.368920
40.40891959,5.813961029,-9.635896683,5.222335339,2024-06-05 19:18:44.408920
40.44891959,5.813961029,-9.635896683,5.222335339,2024-06-05 19:18:44.448920
40.48891959,3.690330744,-1.315155149,6.709774017,2024-06-05 19:18:44.488920
40.52891959,5.318048477,-4.051946163,3.928715706,2024-06-05 19:18:44.528920
40.56891959,5.227120876,-5.552844048,1.753639936,2024-06-05 19:18:44.568920
40.60891959,3.992125511,-13.7608242,2.611167669,2024-06-05 19:18:44.608920
40.64891959,7.193722248,-11.81695461,5.046164036,2024-06-05 19:18:44.648920
40.68891959,1.949851394,-4.695316315,-1.728216171,2024-06-05 19:18:44.688920
40.72891959,1.809871197,-2.497209549,0.0765703246,2024-06-05 19:18:44.728920
40.76891959,12.9511528,-18.15314865,16.92652893,2024-06-05 19:18:44.768920
40.80891959,0.2383849621,-8.838189125,-2.999104023,2024-06-05 19:18:44.808920
40.84891959,-1.40010035,-12.19681549,-2.99551487,2024-06-05 19:18:44.848920
40.88891959,-0.9846464992,-11.05274677,5.006682396,2024-06-05 19:18:44.888920
40.92891959,-0.5006981492,-8.422436714,-0.9379864931,2024-06-05 19:18:44.928920
40.96891959,0.9810572863,-7.621140003,1.756032705,2024-06-05 19:18:44.968920
41.00891959,3.475873947,-8.5148592,3.798007727,2024-06-05 19:18:45.008920
41.04891959,2.733201742,-9.116056442,-0.1414756328,2024-06-05 19:18:45.048920
41.08891959,-0.5964110494,-9.280263901,0.9439685345,2024-06-05 19:18:45.088920
41.12891959,0.1052841991,-9.838389397,-0.8934201598,2024-06-05 19:18:45.128920
41.16891959,0.1052841991,-9.838389397,-0.8934201598,2024-06-05 19:18:45.168920
41.20891959,0.1052841991,-9.838389397,-0.8934201598,2024-06-05 19:18:45.208920
41.24891959,0.1052841991,-9.838389397,-0.8934201598,2024-06-05 19:18:45.248920
41.28891959,0.1052841991,-9.838389397,-0.8934201598,2024-06-05 19:18:45.288920
41.32891959,0.1052841991,-9.838389397,-0.8934201598,2024-06-05 19:18:45.328920
41.36891959,1.068395257,-12.22911835,2.603989124,2024-06-05 19:18:45.368920
41.40891959,1.068395257,-12.22911835,2.603989124,2024-06-05 19:18:45.408920
41.44891959,1.068395257,-12.22911835,2.603989124,2024-06-05 19:18:45.448920
41.48891959,1.068395257,-12.22911835,2.603989124,2024-06-05 19:18:45.488920
41.52891959,1.068395257,-12.22911835,2.603989124,2024-06-05 19:18:45.528920
41.56891959,3.644867182,-10.86730289,-2.356033087,2024-06-05 19:18:45.568920
41.60891959,2.95603323,-10.54008484,-0.2970091105,2024-06-05 19:18:45.608920
41.64891959,2.595614433,-8.759226799,-2.406282187,2024-06-05 19:18:45.648920
41.68891959,3.589533091,-9.28265667,-5.00787878,2024-06-05 19:18:45.688920
41.72891959,3.291327477,-7.306184769,-2.193022013,2024-06-05 19:18:45.728920
41.76891959,4.635196686,-6.675077915,-1.164108157,2024-06-05 19:18:45.768920
41.80891959,5.406582832,-6.870391846,1.68275249,2024-06-05 19:18:45.808920
41.84891959,6.055934906,-7.393822193,2.30339098,2024-06-05 19:18:45.848920
41.88891959,6.388836384,-5.6126647,1.290030479,2024-06-05 19:18:45.888920
41.92891959,8.421239853,-7.71475935,2.027917147,2024-06-05 19:18:45.928920
41.96891959,4.897509575,-11.12363434,7.100401878,2024-06-05 19:18:45.968920
42.00891959,2.887837887,-8.7029953,4.272384644,2024-06-05 19:18:46.008920
42.04891959,0.7067800164,-4.247260094,-3.195614576,2024-06-05 19:18:46.048920
42.08891959,2.019542217,-8.636893272,-0.8479565382,2024-06-05 19:18:46.088920
42.12891959,1.439581871,-11.48883915,6.716952324,2024-06-05 19:18:46.128920
42.16891959,6.710970402,-11.58694458,4.750350952,2024-06-05 19:18:46.168920
42.20891959,7.206882477,-12.51775265,2.203789711,2024-06-05 19:18:46.208920
42.24891959,1.379761338,-5.52293396,-4.163511276,2024-06-05 19:18:46.248920
42.28891959,0.5210371017,-9.616754532,-1.499701619,2024-06-05 19:18:46.288920
42.32891959,1.237388372,-11.63839054,2.499602318,2024-06-05 19:18:46.328920
42.36891959,2.548954248,-8.380561829,-0.4348955154,2024-06-05 19:18:46.368920
42.40891959,4.619643211,-9.062217712,0.1220339537,2024-06-05 19:18:46.408920
42.44891959,1.278066397,-10.18564796,1.843370795,2024-06-05 19:18:46.448920
42.48891959,1.646860242,-9.924530983,0.03110669367,2024-06-05 19:18:46.488920
42.52891959,2.530709028,-9.525827408,2.741576433,2024-06-05 19:18:46.528920
42.56891959,3.199203968,-9.51745224,-0.1136590764,2024-06-05 19:18:46.568920
42.60891959,3.691527128,-8.488538742,0.2264208496,2024-06-05 19:18:46.608920
42.64891959,2.692523718,-10.75813103,0.9583254457,2024-06-05 19:18:46.648920
42.68891959,3.534498215,-7.977072716,0.1677966863,2024-06-05 19:18:46.688920
42.72891959,0.9846464992,-10.56042385,3.069692373,2024-06-05 19:18:46.728920
42.76891959,0.970289588,-9.325727463,1.917548299,2024-06-05 19:18:46.768920
42.80891959,2.702095032,-8.980861664,1.462313771,2024-06-05 19:18:46.808920
42.84891959,2.702095032,-8.980861664,1.462313771,2024-06-05 19:18:46.848920
42.88891959,2.702095032,-8.980861664,1.462313771,2024-06-05 19:18:46.888920
42.92891959,2.702095032,-8.980861664,1.462313771,2024-06-05 19:18:46.928920
42.96891959,2.702095032,-8.980861664,1.462313771,2024-06-05 19:18:46.968920
43.00891959,2.702095032,-8.980861664,1.462313771,2024-06-05 19:18:47.008920
43.04891959,2.702095032,-8.980861664,1.462313771,2024-06-05 19:18:47.048920
43.08891959,2.702095032,-8.980861664,1.462313771,2024-06-05 19:18:47.088920
43.12891959,2.702095032,-8.980861664,1.462313771,2024-06-05 19:18:47.128920
43.16891959,2.702095032,-8.980861664,1.462313771,2024-06-05 19:18:47.168920
43.20891959,2.702095032,-8.980861664,1.462313771,2024-06-05 19:18:47.208920
43.24891959,1.824228168,-6.621239185,1.579861164,2024-06-05 19:18:47.248920
43.28891959,5.868995667,-10.21436119,2.902194738,2024-06-05 19:18:47.288920
43.32891959,4.581357956,-11.47208881,5.341976643,2024-06-05 19:18:47.328920
43.36891959,4.550251484,-12.82313633,2.593221426,2024-06-05 19:18:47.368920
43.40891959,2.193022013,-9.578469276,0.9547362328,2024-06-05 19:18:47.408920
43.44891959,0.6000002623,-5.440082073,-0.7175477147,2024-06-05 19:18:47.448920
43.48891959,-0.6816553473,-3.342773199,1.43359983,2024-06-05 19:18:47.488920
43.52891959,0.6562315822,-5.601896763,0.5485545993,2024-06-05 19:18:47.528920
43.56891959,3.382553816,-10.70668507,-3.009871721,2024-06-05 19:18:47.568920
43.60891959,2.476870537,-9.295816422,-1.581057549,2024-06-05 19:18:47.608920
43.64891959,6.829713821,-9.87787056,-2.440978289,2024-06-05 19:18:47.648920
43.68891959,7.51346302,-8.265707016,-0.6047859192,2024-06-05 19:18:47.688920
43.72891959,6.01376152,-6.497709751,-1.575075507,2024-06-05 19:18:47.728920
43.76891959,0.665802896,-16.91217041,-5.364708424,2024-06-05 19:18:47.768920
43.80891959,-8.646464348,-20.34377861,18.14477348,2024-06-05 19:18:47.808920
43.84891959,-6.120541096,-8.681160927,0.1438684613,2024-06-05 19:18:47.848920
43.88891959,0.6514459848,-8.862117767,-1.885245085,2024-06-05 19:18:47.888920
43.92891959,0.2970091105,-12.09601784,-2.402693033,2024-06-05 19:18:47.928920
43.96891959,2.632703066,-8.943473816,2.030309916,2024-06-05 19:18:47.968920
44.00891959,0.6586244106,-7.26431036,-1.53918314,2024-06-05 19:18:48.008920
44.04891959,1.050449133,-6.988836765,-1.221835017,2024-06-05 19:18:48.048920
44.08891959,0.4145565331,-11.51994514,-3.77647233,2024-06-05 19:18:48.088920
44.12891959,2.474477768,-9.191430092,-2.140379906,2024-06-05 19:18:48.128920
44.16891959,2.967997313,-8.467002869,-1.712662816,2024-06-05 19:18:48.168920
44.20891959,2.30339098,-12.42054367,1.709073544,2024-06-05 19:18:48.208920
44.24891959,1.882852316,-11.49482059,-3.915555239,2024-06-05 19:18:48.248920
44.28891959,0.8778668046,-8.483752251,-1.309173107,2024-06-05 19:18:48.288920
44.32891959,1.363011599,-9.003593445,0.2395813614,2024-06-05 19:18:48.328920
44.36891959,1.164108157,-9.554540634,-3.903591156,2024-06-05 19:18:48.368920
44.40891959,0.9822536707,-9.107681274,-4.501198292,2024-06-05 19:18:48.408920
44.44891959,1.020538807,-9.48484993,-3.595515013,2024-06-05 19:18:48.448920
44.48891959,0.04785645381,-9.56411171,-3.000300407,2024-06-05 19:18:48.488920
44.52891959,0.04785645381,-9.56411171,-3.000300407,2024-06-05 19:18:48.528920
44.56891959,0.04785645381,-9.56411171,-3.000300407,2024-06-05 19:18:48.568920
44.60891959,0.04785645381,-9.56411171,-3.000300407,2024-06-05 19:18:48.608920
44.64891959,0.04785645381,-9.56411171,-3.000300407,2024-06-05 19:18:48.648920
44.68891959,0.04785645381,-9.56411171,-3.000300407,2024-06-05 19:18:48.688920
44.72891959,0.04785645381,-9.56411171,-3.000300407,2024-06-05 19:18:48.728920
44.76891959,0.04785645381,-9.56411171,-3.000300407,2024-06-05 19:18:48.768920
44.80891959,0.04785645381,-9.56411171,-3.000300407,2024-06-05 19:18:48.808920
44.84891959,0.04785645381,-9.56411171,-3.000300407,2024-06-05 19:18:48.848920
44.88891959,0.04785645381,-9.56411171,-3.000300407,2024-06-05 19:18:48.888920
44.92891959,2.551347256,-9.549755096,-2.14995122,2024-06-05 19:18:48.928920
44.96891959,3.484248877,-10.71625614,-3.416053534,2024-06-05 19:18:48.968920
45.00891959,4.452145576,-10.79402256,1.646860242,2024-06-05 19:18:49.008920
45.04891959,1.050449133,-9.366405487,2.456531525,2024-06-05 19:18:49.048920
45.08891959,2.191825628,-6.815057755,-0.6382854581,2024-06-05 19:18:49.088920
45.12891959,1.654038668,-7.42612505,-0.9053842425,2024-06-05 19:18:49.128920
45.16891959,2.419442892,-7.028318405,-0.4540380836,2024-06-05 19:18:49.168920
45.20891959,4.669892311,-7.781758308,3.413660526,2024-06-05 19:18:49.208920
45.24891959,4.43061018,-10.4659071,9.476474762,2024-06-05 19:18:49.248920
45.28891959,1.319940805,-7.596015453,6.76361227,2024-06-05 19:18:49.288920
45.32891959,0.7259225845,-6.321837425,-6.070291996,2024-06-05 19:18:49.328920
45.36891959,10.02742195,-12.12473106,-2.439781904,2024-06-05 19:18:49.368920
45.40891959,1.154536963,-10.57119179,4.486841679,2024-06-05 19:18:49.408920
45.44891959,3.050549746,-8.429914474,-3.214757204,2024-06-05 19:18:49.448920
45.48891959,4.836492538,-11.00369358,-0.008374879137,2024-06-05 19:18:49.488920
45.52891959,1.773978829,-12.00150108,4.617250443,2024-06-05 19:18:49.528920
45.56891959,2.796611547,-9.155537605,0.2132603228,2024-06-05 19:18:49.568920
45.60891959,1.276870012,-9.71605587,0.371186614,2024-06-05 19:18:49.608920
45.64891959,1.394118309,-9.786943436,1.63489604,2024-06-05 19:18:49.648920
45.68891959,-1.170090318,-10.02981567,2.918944597,2024-06-05 19:18:49.688920
45.72891959,-1.401296735,-8.287241936,5.997011662,2024-06-05 19:18:49.728920
45.76891959,1.173679471,-7.042675018,0.5162515044,2024-06-05 19:18:49.768920
45.80891959,-2.27078867,-9.87787056,2.053041935,2024-06-05 19:18:49.808920
45.84891959,-1.777568102,-11.66501045,1.868495345,2024-06-05 19:18:49.848920
45.88891959,4.749154568,-10.51974583,6.028417587,2024-06-05 19:18:49.888920
45.92891959,3.181257725,-12.39661598,7.120740891,2024-06-05 19:18:49.928920
45.96891959,7.206882477,-5.322834015,3.36700058,2024-06-05 19:18:49.968920
46.00891959,2.941676378,-7.761419296,3.664009571,2024-06-05 19:18:50.008920
46.04891959,0.8180462122,-7.727920055,2.367997169,2024-06-05 19:18:50.048920
46.08891959,-0.8503493667,-7.446464062,3.498605728,2024-06-05 19:18:50.088920
46.12891959,0.1869392693,-8.108677864,4.147658825,2024-06-05 19:18:50.128920
46.16891959,2.832803011,-9.021539688,4.952843666,2024-06-05 19:18:50.168920
46.20891959,2.832803011,-9.021539688,4.952843666,2024-06-05 19:18:50.208920
46.24891959,2.832803011,-9.021539688,4.952843666,2024-06-05 19:18:50.248920
46.28891959,2.832803011,-9.021539688,4.952843666,2024-06-05 19:18:50.288920
46.32891959,2.832803011,-9.021539688,4.952843666,2024-06-05 19:18:50.328920
46.36891959,2.832803011,-9.021539688,4.952843666,2024-06-05 19:18:50.368920
46.40891959,2.832803011,-9.021539688,4.952843666,2024-06-05 19:18:50.408920
46.44891959,2.832803011,-9.021539688,4.952843666,2024-06-05 19:18:50.448920
46.48891959,2.832803011,-9.021539688,4.952843666,2024-06-05 19:18:50.488920
46.52891959,2.832803011,-9.021539688,4.952843666,2024-06-05 19:18:50.528920
46.56891959,2.832803011,-9.021539688,4.952843666,2024-06-05 19:18:50.568920
46.60891959,2.108076811,-7.381857872,0.590429008,2024-06-05 19:18:50.608920
46.64891959,3.013461113,-9.126823425,-2.922533751,2024-06-05 19:18:50.648920
46.68891959,4.225724697,-11.78465176,-2.575275421,2024-06-05 19:18:50.688920
46.72891959,2.547757864,-9.635896683,0.05742774159,2024-06-05 19:18:50.728920
46.76891959,3.888037682,-9.302995682,7.811668396,2024-06-05 19:18:50.768920
46.80891959,0.5952146053,-8.929117203,1.995314956,2024-06-05 19:18:50.808920
46.84891959,5.108377457,-6.575775623,3.000300407,2024-06-05 19:18:50.848920
46.88891959,4.224528313,-6.602096558,-3.474677563,2024-06-05 19:18:50.888920
46.92891959,8.532805443,-11.60249805,2.060220242,2024-06-05 19:18:50.928920
46.96891959,3.272184849,-12.63260841,3.582354546,2024-06-05 19:18:50.968920
47.00891959,4.423431873,-10.62173939,1.834995866,2024-06-05 19:18:51.008920
47.04891959,4.091427803,-10.91994476,-0.9523434043,2024-06-05 19:18:51.048920
47.08891959,2.964408159,-8.333902359,0.1654038578,2024-06-05 19:18:51.088920
47.12891959,5.419743061,-9.975976944,4.479662895,2024-06-05 19:18:51.128920
47.16891959,2.710469961,-8.127820015,5.569593906,2024-06-05 19:18:51.168920
47.20891959,-1.025324464,-8.40688324,0.6622136831,2024-06-05 19:18:51.208920
47.24891959,0.5653043389,-7.373483181,3.021835804,2024-06-05 19:18:51.248920
47.28891959,3.196810961,-7.448856831,3.159722328,2024-06-05 19:18:51.288920
47.32891959,1.498505235,-7.570890903,1.83619225,2024-06-05 19:18:51.328920
47.36891959,1.484148264,-8.158926964,2.812463999,2024-06-05 19:18:51.368920
47.40891959,4.020839214,-9.487242699,5.050949574,2024-06-05 19:18:51.408920
47.44891959,4.30827713,-10.54965591,7.170990467,2024-06-05 19:18:51.448920
47.48891959,2.653042078,-8.72453022,3.679563046,2024-06-05 19:18:51.488920
47.52891959,0.9774680734,-7.267899513,-1.509272933,2024-06-05 19:18:51.528920
47.56891959,2.080559254,-6.467799664,-1.594218135,2024-06-05 19:18:51.568920
47.60891959,5.959922791,-11.83011532,-0.385543555,2024-06-05 19:18:51.608920
47.64891959,6.633203506,-10.77129078,7.896913052,2024-06-05 19:18:51.648920
47.68891959,4.468895435,-9.212965012,-4.915455818,2024-06-05 19:18:51.688920
47.72891959,-1.33788693,-11.9165554,0.9269196987,2024-06-05 19:18:51.728920
47.76891959,-1.372582912,-11.23609734,-0.4791627228,2024-06-05 19:18:51.768920
47.80891959,-1.379761338,-8.342276573,-0.4983053207,2024-06-05 19:18:51.808920
47.84891959,1.390529037,-7.633403301,0.8922237158,2024-06-05 19:18:51.848920
47.88891959,1.390529037,-7.633403301,0.8922237158,2024-06-05 19:18:51.888920
47.92891959,1.390529037,-7.633403301,0.8922237158,2024-06-05 19:18:51.928920
47.96891959,1.390529037,-7.633403301,0.8922237158,2024-06-05 19:18:51.968920
48.00891959,1.390529037,-7.633403301,0.8922237158,2024-06-05 19:18:52.008920
48.04891959,1.390529037,-7.633403301,0.8922237158,2024-06-05 19:18:52.048920
48.08891959,1.390529037,-7.633403301,0.8922237158,2024-06-05 19:18:52.088920
48.12891959,1.390529037,-7.633403301,0.8922237158,2024-06-05 19:18:52.128920
48.16891959,1.390529037,-7.633403301,0.8922237158,2024-06-05 19:18:52.168920
48.20891959,1.390529037,-7.633403301,0.8922237158,2024-06-05 19:18:52.208920
48.24891959,1.390529037,-7.633403301,0.8922237158,2024-06-05 19:18:52.248920
48.28891959,1.878066659,-11.15593719,2.9476583,2024-06-05 19:18:52.288920
48.32891959,-0.6119644046,-6.960123062,-5.035396099,2024-06-05 19:18:52.328920
48.36891959,4.09860611,-5.811567783,-5.114359379,2024-06-05 19:18:52.368920
48.40891959,4.09860611,-5.811567783,-5.114359379,2024-06-05 19:18:52.408920
48.44891959,4.304687977,-7.847560883,-4.116552353,2024-06-05 19:18:52.448920
48.48891959,5.804389477,-7.778169155,-4.087838173,2024-06-05 19:18:52.488920
48.52891959,9.4812603,-6.144469261,-4.171886444,2024-06-05 19:18:52.528920
48.56891959,10.04566765,-6.72413063,-3.038585663,2024-06-05 19:18:52.568920
48.60891959,7.854739666,-9.627521515,-2.80259347,2024-06-05 19:18:52.608920
48.64891959,6.702595234,-11.99193001,4.265206337,2024-06-05 19:18:52.648920
48.68891959,3.187239647,-7.998608112,6.314659119,2024-06-05 19:18:52.688920
48.72891959,2.221735716,-7.711170197,-1.174875975,2024-06-05 19:18:52.728920
48.76891959,4.547858715,-9.336494446,-1.615753531,2024-06-05 19:18:52.768920
48.80891959,4.558626175,-9.643074989,-1.712662816,2024-06-05 19:18:52.808920
48.84891959,3.728615999,-11.09581757,-3.305684566,2024-06-05 19:18:52.848920
48.88891959,1.315155149,-8.67039299,-3.602693558,2024-06-05 19:18:52.888920
48.92891959,1.147358418,-7.665706635,-2.958425999,2024-06-05 19:18:52.928920
48.96891959,1.688734531,-9.645467758,2.210968018,2024-06-05 19:18:52.968920
49.00891959,3.89043045,-10.26102161,1.57866478,2024-06-05 19:18:53.008920
49.04891959,3.584747314,-10.03101158,-2.64227438,2024-06-05 19:18:53.048920
49.08891959,6.454638958,-6.780362129,-1.94865489,2024-06-05 19:18:53.088920
49.12891959,7.954340458,-7.506284714,-2.152343988,2024-06-05 19:18:53.128920
49.16891959,10.57986546,-8.859724998,-4.30827713,2024-06-05 19:18:53.168920
49.20891959,6.809075832,-9.144769669,-2.438585281,2024-06-05 19:18:53.208920
49.24891959,4.529912472,-10.71266651,-1.93190515,2024-06-05 19:18:53.248920
49.28891959,-6.095416546,-15.85574055,17.76251984,2024-06-05 19:18:53.288920
49.32891959,1.843370795,-11.47089291,-2.479263306,2024-06-05 19:18:53.328920
49.36891959,-2.472084999,-10.23111153,-4.99352169,2024-06-05 19:18:53.368920
49.40891959,-2.541476727,-7.500302792,-0.05623133108,2024-06-05 19:18:53.408920
49.44891959,-0.2970091105,-9.223732948,2.739183664,2024-06-05 19:18:53.448920
49.48891959,2.214557409,-8.557929993,-0.2551347017,2024-06-05 19:18:53.488920
49.52891959,3.774079561,-8.528019905,-1.030110121,2024-06-05 19:18:53.528920
49.56891959,3.774079561,-8.528019905,-1.030110121,2024-06-05 19:18:53.568920
49.60891959,3.774079561,-8.528019905,-1.030110121,2024-06-05 19:18:53.608920
49.64891959,3.774079561,-8.528019905,-1.030110121,2024-06-05 19:18:53.648920
49.68891959,3.774079561,-8.528019905,-1.030110121,2024-06-05 19:18:53.688920
49.72891959,3.774079561,-8.528019905,-1.030110121,2024-06-05 19:18:53.728920
49.76891959,3.774079561,-8.528019905,-1.030110121,2024-06-05 19:18:53.768920
49.80891959,3.774079561,-8.528019905,-1.030110121,2024-06-05 19:18:53.808920
49.84891959,3.774079561,-8.528019905,-1.030110121,2024-06-05 19:18:53.848920
49.88891959,3.774079561,-8.528019905,-1.030110121,2024-06-05 19:18:53.888920
49.92891959,3.774079561,-8.528019905,-1.030110121,2024-06-05 19:18:53.928920
49.96891959,2.136790514,-12.60748386,5.747859001,2024-06-05 19:18:53.968920
50.00891959,-0.256331116,-5.406582832,1.363011599,2024-06-05 19:18:54.008920
50.04891959,-0.9391828775,-5.540879726,1.585843205,2024-06-05 19:18:54.048920
50.08891959,2.630310297,-7.358827114,-0.8994022012,2024-06-05 19:18:54.088920
50.12891959,4.735994339,-5.477170944,2.951247692,2024-06-05 19:18:54.128920
50.16891959,4.235296249,-7.196115017,-2.582453728,2024-06-05 19:18:54.168920
50.20891959,4.907081127,-10.95583725,-2.402693033,2024-06-05 19:18:54.208920
50.24891959,1.872084618,-11.35813046,-3.699902058,2024-06-05 19:18:54.248920
50.28891959,1.7883358,-10.38814068,1.050449133,2024-06-05 19:18:54.288920
50.32891959,-0.4085744619,-6.060720444,1.575075507,2024-06-05 19:18:54.328920
50.36891959,-0.803689301,-10.37019444,-3.474677563,2024-06-05 19:18:54.368920
50.40891959,7.246364117,-21.17019844,22.11177444,2024-06-05 19:18:54.408920
50.44891959,-3.896412611,-15.29282856,8.559126854,2024-06-05 19:18:54.448920
50.48891959,-1.450349569,-14.10120296,-4.981557846,2024-06-05 19:18:54.488920
50.52891959,-1.091127157,-12.40259838,-1.309173107,2024-06-05 19:18:54.528920
50.56891959,0.08733802289,-10.46351433,1.135394335,2024-06-05 19:18:54.568920
50.60891959,2.457727909,-9.524630547,3.89043045,2024-06-05 19:18:54.608920
50.64891959,3.115455151,-9.175876617,6.614060879,2024-06-05 19:18:54.648920
50.68891959,4.635196686,-8.492127419,5.682056427,2024-06-05 19:18:54.688920
50.72891959,3.303291559,-9.435796738,-0.323330164,2024-06-05 19:18:54.728920
50.76891959,-0.07896314561,-12.85185051,-4.677071095,2024-06-05 19:18:54.768920
50.80891959,6.858428001,-13.89871025,3.510569811,2024-06-05 19:18:54.808920
50.84891959,4.315455437,-9.845567703,2.234896421,2024-06-05 19:18:54.848920
50.88891959,3.968197346,-5.834300041,-0.4552344978,2024-06-05 19:18:54.888920
50.92891959,1.765604019,-4.933402061,-1.600200176,2024-06-05 19:18:54.928920
50.96891959,1.633699656,-3.178864956,-1.968993902,2024-06-05 19:18:54.968920
51.00891959,2.420639277,-5.145465851,1.223031521,2024-06-05 19:18:55.008920
51.04891959,6.256932259,-15.71456337,17.36620903,2024-06-05 19:18:55.048920
51.08891959,3.65563488,-8.222636223,-3.425624609,2024-06-05 19:18:55.088920
51.12891959,14.42812252,-7.21406126,-5.488237858,2024-06-05 19:18:55.128920
51.16891959,9.822835922,-10.73180962,-4.98275423,2024-06-05 19:18:55.168920
51.20891959,2.344068766,-10.32592678,3.049353361,2024-06-05 19:18:55.208920
51.24891959,2.344068766,-10.32592678,3.049353361,2024-06-05 19:18:55.248920
51.28891959,2.344068766,-10.32592678,3.049353361,2024-06-05 19:18:55.288920
51.32891959,2.344068766,-10.32592678,3.049353361,2024-06-05 19:18:55.328920
51.36891959,2.344068766,-10.32592678,3.049353361,2024-06-05 19:18:55.368920
51.40891959,2.344068766,-10.32592678,3.049353361,2024-06-05 19:18:55.408920
51.44891959,2.344068766,-10.32592678,3.049353361,2024-06-05 19:18:55.448920
51.48891959,2.344068766,-10.32592678,3.049353361,2024-06-05 19:18:55.488920
51.52891959,2.344068766,-10.32592678,3.049353361,2024-06-05 19:18:55.528920
51.56891959,2.344068766,-10.32592678,3.049353361,2024-06-05 19:18:55.568920
51.60891959,2.344068766,-10.32592678,3.049353361,2024-06-05 19:18:55.608920
51.64891959,3.023032188,-10.27896786,-3.227917671,2024-06-05 19:18:55.648920
51.68891959,5.459224701,-9.578469276,8.400900841,2024-06-05 19:18:55.688920
51.72891959,0.2491526604,-10.06002426,-4.138087749,2024-06-05 19:18:55.728920
51.76891959,1.529611826,-9.45613575,-3.113062143,2024-06-05 19:18:55.768920
51.80891959,2.656631231,-9.713663101,2.537887573,2024-06-05 19:18:55.808920
51.84891959,0.8204390407,-10.14855862,-2.833999395,2024-06-05 19:18:55.848920
51.88891959,2.293819666,-9.205786705,0.5521438122,2024-06-05 19:18:55.888920
51.92891959,2.594418049,-9.66580677,-0.08015955985,2024-06-05 19:18:55.928920
51.96891959,3.303291559,-8.868100166,1.380957723,2024-06-05 19:18:55.968920
52.00891959,1.263709426,-9.298210144,1.769193292,2024-06-05 19:18:56.008920
52.04891959,0.08973085135,-11.17986584,0.7666005492,2024-06-05 19:18:56.048920
52.08891959,0.007178467698,-11.50439262,1.907976985,2024-06-05 19:18:56.088920
52.12891959,0.01914258115,-10.62413216,4.89631319,2024-06-05 19:18:56.128920
52.16891959,2.432603359,-12.48903847,5.668895721,2024-06-05 19:18:56.168920
52.20891959,3.189632654,-12.53330612,1.632503271,2024-06-05 19:18:56.208920
52.24891959,6.531209469,-8.421239853,-1.876870275,2024-06-05 19:18:56.248920
52.28891959,2.82682085,-7.113562584,2.057827473,2024-06-05 19:18:56.288920
52.32891959,1.579861164,-6.083452702,1.590628862,2024-06-05 19:18:56.328920
52.36891959,0.8024929166,-2.273181438,1.486541033,2024-06-05 19:18:56.368920
52.40891959,2.440978289,-4.001696587,3.780061483,2024-06-05 19:18:56.408920
52.44891959,4.59691143,-9.941280365,9.212965012,2024-06-05 19:18:56.448920
52.48891959,6.660720825,-9.441779137,9.308977127,2024-06-05 19:18:56.488920
52.52891959,1.015753269,-5.264209747,7.379465103,2024-06-05 19:18:56.528920
52.56891959,6.078666687,-8.505288124,5.888138294,2024-06-05 19:18:56.568920
52.60891959,1.857727647,-4.200600147,1.952244163,2024-06-05 19:18:56.608920
52.64891959,7.509873867,-11.83609676,10.85055351,2024-06-05 19:18:56.648920
52.68891959,10.07438183,-22.89392853,11.44337559,2024-06-05 19:18:56.688920
52.72891959,2.244467735,-0.5736792088,-5.393422127,2024-06-05 19:18:56.728920
52.76891959,0.4025924206,0.5653043389,-6.26530695,2024-06-05 19:18:56.768920
52.80891959,5.478367329,-5.982655048,-4.860421181,2024-06-05 19:18:56.808920
52.84891959,7.143472672,-19.25384712,-3.203989506,2024-06-05 19:18:56.848920
52.88891959,7.143472672,-19.25384712,-3.203989506,2024-06-05 19:18:56.888920
52.92891959,7.143472672,-19.25384712,-3.203989506,2024-06-05 19:18:56.928920
52.96891959,7.143472672,-19.25384712,-3.203989506,2024-06-05 19:18:56.968920
53.00891959,7.143472672,-19.25384712,-3.203989506,2024-06-05 19:18:57.008920
53.04891959,7.143472672,-19.25384712,-3.203989506,2024-06-05 19:18:57.048920
53.08891959,7.143472672,-19.25384712,-3.203989506,2024-06-05 19:18:57.088920
53.12891959,7.143472672,-19.25384712,-3.203989506,2024-06-05 19:18:57.128920
53.16891959,7.143472672,-19.25384712,-3.203989506,2024-06-05 19:18:57.168920
53.20891959,7.143472672,-19.25384712,-3.203989506,2024-06-05 19:18:57.208920
53.24891959,7.143472672,-19.25384712,-3.203989506,2024-06-05 19:18:57.248920
53.28891959,7.143472672,-19.25384712,-3.203989506,2024-06-05 19:18:57.288920
53.32891959,6.780362129,-10.44317532,5.743073463,2024-06-05 19:18:57.328920
53.36891959,6.877570629,-11.1188488,-1.546361685,2024-06-05 19:18:57.368920
53.40891959,4.971986294,-10.29571724,-1.279262781,2024-06-05 19:18:57.408920
53.44891959,4.816154003,-9.132805824,-2.989532709,2024-06-05 19:18:57.448920
53.48891959,2.221735716,-9.876674652,0.7558328509,2024-06-05 19:18:57.488920
53.52891959,2.115255117,-5.848656654,-2.663809776,2024-06-05 19:18:57.528920
53.56891959,3.158525944,-5.447260857,6.726523399,2024-06-05 19:18:57.568920
53.60891959,3.097508907,-8.723334312,-10.46231747,2024-06-05 19:18:57.608920
53.64891959,4.819743156,-7.011568546,1.340279818,2024-06-05 19:18:57.648920
53.68891959,5.721538067,-9.358030319,-1.494915962,2024-06-05 19:18:57.688920
53.72891959,5.542076111,-11.54865932,6.185147285,2024-06-05 19:18:57.728920
53.76891959,3.265006542,-7.830811024,2.395514488,2024-06-05 19:18:57.768920
53.80891959,2.789433002,-8.266902924,-2.147558212,2024-06-05 19:18:57.808920
53.84891959,4.576572418,-9.003593445,0.4839483798,2024-06-05 19:18:57.848920
53.88891959,1.621735573,-10.717453,8.271688461,2024-06-05 19:18:57.888920
53.92891959,1.576271892,-9.395118713,2.297408819,2024-06-05 19:18:57.928920
53.96891959,0.4636093974,-9.264710426,-2.611167669,2024-06-05 19:18:57.968920
54.00891959,3.037389278,-8.018946648,0.5413761139,2024-06-05 19:18:58.008920
54.04891959,1.83619225,-8.937491417,-2.566900492,2024-06-05 19:18:58.048920
54.08891959,2.427817583,-9.283852577,-3.108276606,2024-06-05 19:18:58.088920
54.12891959,2.796611547,-10.1210413,-2.037488461,2024-06-05 19:18:58.128920
54.16891959,4.92502737,-11.05274677,-0.4683950245,2024-06-05 19:18:58.168920
54.20891959,9.738788605,-17.8142662,19.27777481,2024-06-05 19:18:58.208920
54.24891959,0.9487541914,-9.483653069,-2.797807932,2024-06-05 19:18:58.248920
54.28891959,-1.272084355,-11.26481056,9.240781784,2024-06-05 19:18:58.288920
54.32891959,0.6215356588,-15.08555031,1.435992718,2024-06-05 19:18:58.328920
54.36891959,-1.274477124,-8.100302696,-1.584646821,2024-06-05 19:18:58.368920
54.40891959,-0.3101696372,-6.756433964,-0.8228318691,2024-06-05 19:18:58.408920
54.44891959,-0.06699903309,-7.843971729,-1.413260818,2024-06-05 19:18:58.448920
54.48891959,2.444567442,-6.848856449,0.9305089116,2024-06-05 19:18:58.488920
54.52891959,1.16769743,-9.940084457,5.488237858,2024-06-05 19:18:58.528920
54.56891959,3.833899975,-10.14257717,0.0382851623,2024-06-05 19:18:58.568920
54.60891959,3.833899975,-10.14257717,0.0382851623,2024-06-05 19:18:58.608920
54.64891959,3.833899975,-10.14257717,0.0382851623,2024-06-05 19:18:58.648920
54.68891959,3.833899975,-10.14257717,0.0382851623,2024-06-05 19:18:58.688920
54.72891959,3.833899975,-10.14257717,0.0382851623,2024-06-05 19:18:58.728920
54.76891959,3.833899975,-10.14257717,0.0382851623,2024-06-05 19:18:58.768920
54.80891959,3.833899975,-10.14257717,0.0382851623,2024-06-05 19:18:58.808920
54.84891959,3.833899975,-10.14257717,0.0382851623,2024-06-05 19:18:58.848920
54.88891959,3.833899975,-10.14257717,0.0382851623,2024-06-05 19:18:58.888920
54.92891959,3.833899975,-10.14257717,0.0382851623,2024-06-05 19:18:58.928920
54.96891959,3.833899975,-10.14257717,0.0382851623,2024-06-05 19:18:58.968920
55.00891959,0.294616282,-6.615257263,2.351247311,2024-06-05 19:18:59.008920
55.04891959,2.73798728,-5.854638577,1.754836321,2024-06-05 19:18:59.048920
55.08891959,2.215753794,-4.872385025,-1.463510156,2024-06-05 19:18:59.088920
55.12891959,0.7785646915,-6.718148708,-2.406282187,2024-06-05 19:18:59.128920
55.16891959,1.53080833,-10.1401844,-3.885644913,2024-06-05 19:18:59.168920
55.20891959,1.94028008,-10.53769207,-2.79421854,2024-06-05 19:18:59.208920
55.24891959,2.994318485,-9.050253868,-0.08973085135,2024-06-05 19:18:59.248920
55.28891959,6.187540054,-13.18235874,-2.953640461,2024-06-05 19:18:59.288920
55.32891959,11.31625652,-15.75404549,7.889435291,2024-06-05 19:18:59.328920
55.36891959,-1.897209287,-8.943473816,1.69950223,2024-06-05 19:18:59.368920
55.40891959,4.03399992,-16.96242142,6.743273258,2024-06-05 19:18:59.408920
55.44891959,-0.509073019,-8.884849548,-3.89880538,2024-06-05 19:18:59.448920
55.48891959,-0.280259341,-6.290730953,-2.290230274,2024-06-05 19:18:59.488920
55.52891959,-0.3903291821,-7.398607731,-2.096112728,2024-06-05 19:18:59.528920
55.56891959,1.364207983,-7.099205494,-0.8718847632,2024-06-05 19:18:59.568920
55.60891959,4.211368084,-11.59292698,16.76979828,2024-06-05 19:18:59.608920
55.64891959,2.061416626,-10.62173939,-3.704687595,2024-06-05 19:18:59.648920
55.68891959,3.27577424,-9.738788605,2.082952023,2024-06-05 19:18:59.688920
55.72891959,2.569293261,-10.42762184,7.404589653,2024-06-05 19:18:59.728920
55.76891959,-3.921537161,-16.08934021,3.492623806,2024-06-05 19:18:59.768920
55.80891959,1.990529299,-8.288438797,-6.830910206,2024-06-05 19:18:59.808920
55.84891959,0.5916253924,-0.8826524615,4.776672363,2024-06-05 19:18:59.848920
55.88891959,7.599604607,-2.918944597,11.90429306,2024-06-05 19:18:59.888920
55.92891959,2.933301449,-9.383154869,9.904191971,2024-06-05 19:18:59.928920
55.96891959,-0.8419744968,6.495316982,10.11984539,2024-06-05 19:18:59.968920
56.00891959,-0.1292124242,-0.2922234535,7.475177765,2024-06-05 19:19:00.008920
56.04891959,5.080859661,-3.947858334,0.8670991063,2024-06-05 19:19:00.048920
56.08891959,9.116056442,-19.8155632,4.407579422,2024-06-05 19:19:00.088920
56.12891959,3.279363394,-14.4879427,2.07098794,2024-06-05 19:19:00.128920
56.16891959,6.127719879,-9.681360245,-4.032803535,2024-06-05 19:19:00.168920
56.20891959,3.032603502,-8.078767776,2.248056889,2024-06-05 19:19:00.208920
56.24891959,-1.73898387,-15.99242973,10.37378311,2024-06-05 19:19:00.248920
56.28891959,-1.73898387,-15.99242973,10.37378311,2024-06-05 19:19:00.288920
56.32891959,-1.73898387,-15.99242973,10.37378311,2024-06-05 19:19:00.328920
56.36891959,-1.73898387,-15.99242973,10.37378311,2024-06-05 19:19:00.368920
56.40891959,-1.73898387,-15.99242973,10.37378311,2024-06-05 19:19:00.408920
56.44891959,-1.73898387,-15.99242973,10.37378311,2024-06-05 19:19:00.448920
56.48891959,-1.73898387,-15.99242973,10.37378311,2024-06-05 19:19:00.488920
56.52891959,-1.73898387,-15.99242973,10.37378311,2024-06-05 19:19:00.528920
56.56891959,-1.73898387,-15.99242973,10.37378311,2024-06-05 19:19:00.568920
56.60891959,-1.73898387,-15.99242973,10.37378311,2024-06-05 19:19:00.608920
56.64891959,-1.73898387,-15.99242973,10.37378311,2024-06-05 19:19:00.648920
56.68891959,3.961018801,-15.00299835,-1.637288928,2024-06-05 19:19:00.688920
56.72891959,0.5808576941,-8.386544228,0.8575277925,2024-06-05 19:19:00.728920
56.76891959,4.819743156,-12.91286755,-6.504888535,2024-06-05 19:19:00.768920
56.80891959,6.381658077,-14.55972767,-2.676970243,2024-06-05 19:19:00.808920
56.84891959,12.15942764,-17.9650135,2.309372902,2024-06-05 19:19:00.848920
56.88891959,10.67079258,-14.82802296,-0.7175477147,2024-06-05 19:19:00.888920
56.92891959,9.949655533,-6.048756599,-6.761219501,2024-06-05 19:19:00.928920
56.96891959,3.382553816,-5.381458282,-3.848257065,2024-06-05 19:19:00.968920
57.00891959,3.868596077,-9.25394249,0.9858429432,2024-06-05 19:19:01.008920
57.04891959,4.994718075,-6.669095993,-1.445564032,2024-06-05 19:19:01.048920
57.08891959,5.224728107,-6.345765591,-1.894816399,2024-06-05 19:19:01.088920
57.12891959,5.089234829,-5.58754015,-0.9583254457,2024-06-05 19:19:01.128920
57.16891959,0.04905286431,-8.4646101,-1.564307809,2024-06-05 19:19:01.168920
57.20891959,3.68075943,-7.834400654,3.496212959,2024-06-05 19:19:01.208920
57.24891959,5.05812788,-10.24187946,1.291226864,2024-06-05 19:19:01.248920
57.28891959,4.277170658,-7.463213921,-0.5114658475,2024-06-05 19:19:01.288920
57.32891959,5.428118229,-8.241778374,3.454338551,2024-06-05 19:19:01.328920
57.36891959,3.473481178,-9.759127617,0.195314154,2024-06-05 19:19:01.368920
57.40891959,3.08434844,-9.383154869,0.1268195957,2024-06-05 19:19:01.408920
57.44891959,2.279462576,-8.965008736,0.1977069676,2024-06-05 19:19:01.448920
57.48891959,3.192025423,-9.466903687,-0.07058826834,2024-06-05 19:19:01.488920
57.52891959,4.065106392,-11.633605,2.123630047,2024-06-05 19:19:01.528920
57.56891959,1.905584097,-9.702896118,0.8479565382,2024-06-05 19:19:01.568920
57.60891959,1.60378933,-8.833403587,-0.7331010103,2024-06-05 19:19:01.608920
57.64891959,2.297408819,-8.817850113,0.08255238086,2024-06-05 19:19:01.648920
57.68891959,1.631306887,-8.010572433,-1.594218135,2024-06-05 19:19:01.688920
57.72891959,1.9797616,-8.773583412,-2.99551487,2024-06-05 19:19:01.728920
57.76891959,1.778764486,-13.72134209,-3.159722328,2024-06-05 19:19:01.768920
57.80891959,-1.021735311,-9.946066856,0.7390831113,2024-06-05 19:19:01.808920
57.84891959,-0.5736792088,-11.20499039,0.7546364665,2024-06-05 19:19:01.848920
57.88891959,1.986940145,-10.57747269,6.804290295,2024-06-05 19:19:01.888920
57.92891959,10.71625614,-7.242774963,8.51844883,2024-06-05 19:19:01.928920
57.96891959,10.71625614,-7.242774963,8.51844883,2024-06-05 19:19:01.968920
58.00891959,10.71625614,-7.242774963,8.51844883,2024-06-05 19:19:02.008920
58.04891959,10.71625614,-7.242774963,8.51844883,2024-06-05 19:19:02.048920
58.08891959,10.71625614,-7.242774963,8.51844883,2024-06-05 19:19:02.088920
58.12891959,2.442174673,-4.569394112,-1.439581871,2024-06-05 19:19:02.128920
58.16891959,2.442174673,-4.569394112,-1.439581871,2024-06-05 19:19:02.168920
58.20891959,2.442174673,-4.569394112,-1.439581871,2024-06-05 19:19:02.208920
58.24891959,2.442174673,-4.569394112,-1.439581871,2024-06-05 19:19:02.248920
58.28891959,2.442174673,-4.569394112,-1.439581871,2024-06-05 19:19:02.288920
58.32891959,2.357229471,-10.31635571,0.9511470199,2024-06-05 19:19:02.328920
58.36891959,1.759621978,-9.410672188,2.57766819,2024-06-05 19:19:02.368920
58.40891959,0.6311069727,-9.69452095,0.3005983531,2024-06-05 19:19:02.408920
58.44891959,0.432502687,-8.698209763,-0.280259341,2024-06-05 19:19:02.448920
58.48891959,0.7654041648,-8.256134987,-0.6035895348,2024-06-05 19:19:02.488920
58.52891959,1.40010035,-7.800900936,1.123430252,2024-06-05 19:19:02.528920
58.56891959,0.1797607988,-9.015557289,-0.05742774159,2024-06-05 19:19:02.568920
58.60891959,1.097109199,-10.15573788,-0.132801652,2024-06-05 19:19:02.608920
58.64891959,0.3903291821,-10.81316566,-0.05862415582,2024-06-05 19:19:02.648920
58.68891959,1.274477124,-11.80499077,-0.05623133108,2024-06-05 19:19:02.688920
58.72891959,1.57866478,-13.22901917,2.529512644,2024-06-05 19:19:02.728920
58.76891959,1.966601133,-11.690135,4.272384644,2024-06-05 19:19:02.768920
58.80891959,2.258824587,-10.43001461,5.483152866,2024-06-05 19:19:02.808920
58.84891959,3.873381615,-9.923335075,3.182454109,2024-06-05 19:19:02.848920
58.88891959,4.325026989,-10.46351433,-6.734898567,2024-06-05 19:19:02.888920
58.92891959,5.064109802,-7.500302792,1.57028985,2024-06-05 19:19:02.928920
58.96891959,2.854338408,-11.53310585,2.350050926,2024-06-05 19:19:02.968920
59.00891959,1.412064433,-8.632107735,1.620539188,2024-06-05 19:19:03.008920
59.04891959,3.294916868,-3.915555239,-1.100698471,2024-06-05 19:19:03.048920
59.08891959,2.382354021,-3.083152056,0.4217349887,2024-06-05 19:19:03.088920
59.12891959,2.018345833,-5.005486012,1.552343726,2024-06-05 19:19:03.128920
59.16891959,5.527719498,-9.372386932,14.59711552,2024-06-05 19:19:03.168920
59.20891959,3.006282568,-16.56969833,12.71785259,2024-06-05 19:19:03.208920
59.24891959,11.26840019,-18.38076591,9.374779701,2024-06-05 19:19:03.248920
59.28891959,1.6181463,0.1208375469,-7.349255562,2024-06-05 19:19:03.288920
59.32891959,2.249253273,1.972583175,-5.067699432,2024-06-05 19:19:03.328920
59.36891959,11.59531975,-6.987640381,-5.196911812,2024-06-05 19:19:03.368920
59.40891959,6.559025764,-22.6208477,-3.238685369,2024-06-05 19:19:03.408920
59.44891959,-2.588435888,-11.07906818,17.75414658,2024-06-05 19:19:03.448920
59.48891959,-2.560918331,-11.54865932,-3.697509289,2024-06-05 19:19:03.488920
59.52891959,1.149751306,-7.176972389,-0.3568296731,2024-06-05 19:19:03.528920
59.56891959,-0.8347960114,-8.216653824,-0.05503492057,2024-06-05 19:19:03.568920
59.60891959,-0.1606182158,-8.480163574,-0.3795614839,2024-06-05 19:19:03.608920
59.64891959,-0.1606182158,-8.480163574,-0.3795614839,2024-06-05 19:19:03.648920
59.68891959,-0.1606182158,-8.480163574,-0.3795614839,2024-06-05 19:19:03.688920
59.72891959,-0.1606182158,-8.480163574,-0.3795614839,2024-06-05 19:19:03.728920
59.76891959,-0.1606182158,-8.480163574,-0.3795614839,2024-06-05 19:19:03.768920
59.80891959,-0.1606182158,-8.480163574,-0.3795614839,2024-06-05 19:19:03.808920
59.84891959,-0.1606182158,-8.480163574,-0.3795614839,2024-06-05 19:19:03.848920
59.88891959,-0.1606182158,-8.480163574,-0.3795614839,2024-06-05 19:19:03.888920
59.92891959,-0.1606182158,-8.480163574,-0.3795614839,2024-06-05 19:19:03.928920
59.96891959,-0.1606182158,-8.480163574,-0.3795614839,2024-06-05 19:19:03.968920
60.00891959,4.985146999,-9.235996246,-0.9810572863,2024-06-05 19:19:04.008920
60.04891959,6.39601469,-7.860721588,-5.040181637,2024-06-05 19:19:04.048920
60.08891959,5.848656654,-8.477770805,2.07098794,2024-06-05 19:19:04.088920
60.12891959,3.267399311,-7.246364117,-3.579961777,2024-06-05 19:19:04.128920
60.16891959,3.172882795,-6.986443996,1.443171144,2024-06-05 19:19:04.168920
60.20891959,3.536890984,-6.506084919,0.4636093974,2024-06-05 19:19:04.208920
60.24891959,1.009771109,-10.31037331,4.47009182,2024-06-05 19:19:04.248920
60.28891959,-0.470787853,-11.9090786,3.746562004,2024-06-05 19:19:04.288920
60.32891959,2.464906454,-9.462118149,3.75134778,2024-06-05 19:19:04.328920
60.36891959,3.190829039,-9.928120613,4.425824642,2024-06-05 19:19:04.368920
60.40891959,3.429214001,-8.142177582,2.732005358,2024-06-05 19:19:04.408920
60.44891959,4.036392689,-6.63679266,1.856531262,2024-06-05 19:19:04.448920
60.48891959,3.006282568,-7.709973812,1.143769264,2024-06-05 19:19:04.488920
60.52891959,2.230110645,-8.120641708,0.5808576941,2024-06-05 19:19:04.528920
60.56891959,2.008774519,-8.642875671,1.994118571,2024-06-05 19:19:04.568920
60.60891959,1.899602056,-8.839385986,2.709273338,2024-06-05 19:19:04.608920
60.64891959,2.580060959,-9.470493317,0.8144569993,2024-06-05 19:19:04.648920
60.68891959,4.345366001,-8.520841599,3.350250721,2024-06-05 19:19:04.688920
60.72891959,2.885445118,-8.936295509,-0.537786901,2024-06-05 19:19:04.728920
60.76891959,1.499701619,-9.533005714,-3.310470104,2024-06-05 19:19:04.768920
60.80891959,2.324926376,-10.59900761,-3.364607811,2024-06-05 19:19:04.808920
60.84891959,3.033800125,-10.54128075,-1.398903966,2024-06-05 19:19:04.848920
60.88891959,2.516352177,-6.451049805,-0.9352945685,2024-06-05 19:19:04.888920
60.92891959,4.459323883,-6.951747894,-2.67338109,2024-06-05 19:19:04.928920
60.96891959,7.993822098,-17.44517326,1.351047516,2024-06-05 19:19:04.968920
61.00891959,-7.999804497,-19.90888214,33.98256683,2024-06-05 19:19:05.008920
61.04891959,3.920340776,-15.63530159,6.878767014,2024-06-05 19:19:05.048920
61.08891959,-0.6358926296,-7.037889481,-5.005486012,2024-06-05 19:19:05.088920
61.12891959,-0.7546364665,-8.231010437,-4.852046013,2024-06-05 19:19:05.128920
61.16891959,-0.4193421602,-10.41206837,-2.11645174,2024-06-05 19:19:05.168920
61.20891959,5.358726501,-8.376973152,5.993422508,2024-06-05 19:19:05.208920
61.24891959,2.473281384,-9.001200676,4.08424902,2024-06-05 19:19:05.248920
61.28891959,2.686541557,-9.568898201,-0.6732804775,2024-06-05 19:19:05.288920
61.32891959,2.686541557,-9.568898201,-0.6732804775,2024-06-05 19:19:05.328920
61.36891959,0.8288139701,-9.695717812,-0.7031907439,2024-06-05 19:19:05.368920
61.40891959,0.8288139701,-9.695717812,-0.7031907439,2024-06-05 19:19:05.408920
61.44891959,0.8288139701,-9.695717812,-0.7031907439,2024-06-05 19:19:05.448920
61.48891959,0.8288139701,-9.695717812,-0.7031907439,2024-06-05 19:19:05.488920
61.52891959,0.8288139701,-9.695717812,-0.7031907439,2024-06-05 19:19:05.528920
61.56891959,0.8288139701,-9.695717812,-0.7031907439,2024-06-05 19:19:05.568920
61.60891959,0.8288139701,-9.695717812,-0.7031907439,2024-06-05 19:19:05.608920
