Time (s),Gyroscope x (rad/s),Gyroscope y (rad/s),Gyroscope z (rad/s),Datetime
0.090704377,-0.6733604074,-0.3833507299,-0.02902759984,2024-06-05 19:18:04.090704
0.17524995,-0.5553858876,-0.4920045137,-0.004527240526,2024-06-05 19:18:04.175250
0.215577398,-0.5143743753,-0.5380758047,-0.0074566314,2024-06-05 19:18:04.215577
0.256570679,-0.2013290375,-0.5050535798,0.05778888986,2024-06-05 19:18:04.256571
0.297070054,-0.09666989744,-0.5175700784,0.2106498331,2024-06-05 19:18:04.297070
0.337556565,-0.1664426625,-0.5679023266,0.2026605755,2024-06-05 19:18:04.337557
0.377869533,-0.5426030755,1.35604167,0.03728315607,2024-06-05 19:18:04.377870
0.418125419,-0.3937367499,2.160691977,0.6621754766,2024-06-05 19:18:04.418125
0.458977658,0.1424749196,0.8824124336,1.095059514,2024-06-05 19:18:04.458978
0.499481825,-0.07536523789,0.8986572027,1.391194344,2024-06-05 19:18:04.499482
0.539954273,-0.7979927063,-0.2691044807,0.7372744083,2024-06-05 19:18:04.539954
0.580433283,-0.8110417724,0.1651111245,0.1656437367,2024-06-05 19:18:04.580433
0.620966304,-0.06204982474,0.6370093226,0.1177082509,2024-06-05 19:18:04.620966
0.661371669,0.08095771074,0.5555190444,0.1746982187,2024-06-05 19:18:04.661372
0.701934013,0.2712349594,0.7924002409,0.5047873259,2024-06-05 19:18:04.701934
0.742388544,1.006645203,0.02356828004,0.4669715166,2024-06-05 19:18:04.742389
0.782874273,-0.04527240247,1.031811357,0.6515231729,2024-06-05 19:18:04.782874
0.823221721,-1.445521235,1.958031416,0.5109124184,2024-06-05 19:18:04.823222
0.863764273,-3.126325846,2.577863932,0.07430000603,2024-06-05 19:18:04.863764
0.904034013,-5.208723068,3.650686741,-2.490514755,2024-06-05 19:18:04.904034
0.944686096,-5.425897598,4.26492691,-3.756011724,2024-06-05 19:18:04.944686
0.985349742,-4.819114208,2.260823965,-2.791176796,2024-06-05 19:18:04.985350
1.02581344,-3.973052979,3.215006351,-3.526453972,2024-06-05 19:18:05.025813
1.066292606,-4.313794136,1.982531786,-1.145125508,2024-06-05 19:18:05.066293
1.106768544,-5.137086391,-0.4531235099,0.003994623665,2024-06-05 19:18:05.106769
1.146921617,-4.343620777,-1.106510758,0.7884055972,2024-06-05 19:18:05.146922
1.187574013,1.473883033,0.4332835376,0.9001219273,2024-06-05 19:18:05.187574
1.228215836,0.1525946259,-0.09627043456,0.6259575486,2024-06-05 19:18:05.228216
1.268695419,-0.5607120395,-1.766289473,0.05885412544,2024-06-05 19:18:05.268695
1.30918094,-1.210903645,-2.13685751,0.01944050193,2024-06-05 19:18:05.309181
1.349669013,-1.316627979,-1.536731839,-2.634587526,2024-06-05 19:18:05.349669
1.389893804,-1.919150472,-2.546306372,-5.874493599,2024-06-05 19:18:05.389894
1.430482294,-3.477186918,-6.246127129,-10.26684856,2024-06-05 19:18:05.430482
1.471135263,-3.605547428,2.405429363,-12.14791775,2024-06-05 19:18:05.471135
1.51164344,0.1203713343,-4.599942684,-7.155170441,2024-06-05 19:18:05.511643
1.552084429,4.8236413,-2.271076918,-0.2644441128,2024-06-05 19:18:05.552084
1.592286825,1.468290567,1.170557976,1.737528205,2024-06-05 19:18:05.592287
1.633110627,-0.7844109535,-1.530340433,0.391073674,2024-06-05 19:18:05.633111
1.673646669,0.1701709777,0.1115831584,0.02423405088,2024-06-05 19:18:05.673647
1.714033388,0.7908023596,-2.332860231,-0.06924014539,2024-06-05 19:18:05.714033
1.754520523,1.54791677,-1.152049541,-0.5250267386,2024-06-05 19:18:05.754521
1.795010002,1.126217604,-0.9635032415,-0.1821548492,2024-06-05 19:18:05.795010
1.835495888,1.132342696,-1.446453333,-0.389742136,2024-06-05 19:18:05.835496
1.876033856,1.878139019,-1.086537719,-0.5005263686,2024-06-05 19:18:05.876034
1.916204898,1.592922807,-1.664559722,-0.4581833482,2024-06-05 19:18:05.916205
1.956922398,1.578542233,-0.4560528994,-0.1083874628,2024-06-05 19:18:05.956922
1.997480419,1.300116897,-1.117695808,0.4270252883,2024-06-05 19:18:05.997480
2.037946565,1.242061734,1.205444336,0.8750889301,2024-06-05 19:18:06.037947
2.078438648,-0.2316881865,1.130079031,0.9784165621,2024-06-05 19:18:06.078439
2.118864221,-1.011705041,-2.709286928,1.704239726,2024-06-05 19:18:06.118864
2.159035263,-0.00798924733,-1.961892962,1.71489203,2024-06-05 19:18:06.159035
2.199813804,0.7244915962,-2.905023575,1.119826198,2024-06-05 19:18:06.199814
2.240361617,1.827806711,-2.266815901,0.6813496947,2024-06-05 19:18:06.240362
2.280773544,1.288931966,-2.850963116,0.5559184551,2024-06-05 19:18:06.280774
2.321333856,0.1746982187,-1.73566401,0.2093182951,2024-06-05 19:18:06.321334
2.361779481,0.2595174015,-1.316228509,0.1741656065,2024-06-05 19:18:06.361779
2.402099846,0.2106498331,-1.464562297,-0.1347519755,2024-06-05 19:18:06.402100
2.442334065,-0.7042521834,-0.4422048628,-0.4264926612,2024-06-05 19:18:06.442334
2.483273179,-0.04047885537,0.6303516626,-0.6965292692,2024-06-05 19:18:06.483273
2.523507346,0.3817528784,-0.6404713392,-0.336081028,2024-06-05 19:18:06.523507
2.564103283,0.3234313726,-1.969615817,-0.2609820962,2024-06-05 19:18:06.564103
2.604600315,0.9584434032,-3.845624447,-0.4491288662,2024-06-05 19:18:06.604600
2.645136825,0.1081211492,-3.42232728,-0.06204982474,2024-06-05 19:18:06.645137
2.685551096,-1.154446244,-1.715424657,0.6643059254,2024-06-05 19:18:06.685551
2.726039377,-1.69411993,0.2428731322,0.6536536217,2024-06-05 19:18:06.726039
2.766536044,-1.090798616,2.44457674,0.9089100957,2024-06-05 19:18:06.766536
2.80705844,-0.8102428913,1.793319821,0.4973306656,2024-06-05 19:18:06.807058
2.847538231,-0.6073159575,0.3691032529,0.2271609455,2024-06-05 19:18:06.847538
2.887976356,0.8113080859,-0.9437964559,-0.03248960897,2024-06-05 19:18:06.887976
2.928455106,0.7143719196,2.161757231,0.03195698932,2024-06-05 19:18:06.928455
2.968987138,1.226349473,3.923785925,0.5788210034,2024-06-05 19:18:06.968987
3.0094487,2.500634432,1.778939128,0.3463338912,2024-06-05 19:18:07.009449
3.04994844,3.287575483,1.836728096,-0.775090158,2024-06-05 19:18:07.049948
3.090435263,0.9704272747,1.974808931,-1.031944513,2024-06-05 19:18:07.090435
3.130870523,-0.2665745616,2.645772457,0.1302247345,2024-06-05 19:18:07.130871
3.171155002,-0.3334179223,1.365096092,0.2093182951,2024-06-05 19:18:07.171155
3.211861669,0.04713656008,0.2684387267,-0.4422048628,2024-06-05 19:18:07.211862
3.252280783,-0.1611164957,-0.2667077184,-0.6627081037,2024-06-05 19:18:07.252281
3.2928287,-0.8400694132,-0.2043915838,-0.6861432195,2024-06-05 19:18:07.292829
3.333281044,-0.6448654532,-1.344723582,-0.6696321368,2024-06-05 19:18:07.333281
3.373565575,0.4571181238,-0.6125090122,-0.3515268862,2024-06-05 19:18:07.373566
3.414044481,-0.1613828093,0.01451379992,-0.1169093251,2024-06-05 19:18:07.414044
3.454764221,0.6488600373,-0.7504566908,0.07643046975,2024-06-05 19:18:07.454764
3.495231252,-0.03888100386,-1.419023514,-0.03142437339,2024-06-05 19:18:07.495231
3.535710783,-2.066152573,1.811961412,-0.112115778,2024-06-05 19:18:07.535711
3.576207658,-2.678528547,4.208735466,0.1936061084,2024-06-05 19:18:07.576208
3.616711981,-3.560008764,2.589048862,-0.2122476846,2024-06-05 19:18:07.616712
3.657156773,-3.187576771,-0.5066514611,-0.0,2024-06-05 19:18:07.657157
3.697651981,-2.251636267,-2.815544128,-0.1818885356,2024-06-05 19:18:07.697652
3.73812219,-1.568555593,-2.13685751,-0.2484655976,2024-06-05 19:18:07.738122
3.778624377,-1.172555208,0.7007901669,0.07536523789,2024-06-05 19:18:07.778624
3.819151148,-1.566691518,1.906101346,0.9134373069,2024-06-05 19:18:07.819151
3.859632919,-2.389317751,2.442446232,0.9424648881,2024-06-05 19:18:07.859633
3.900074638,-1.561365247,4.307935715,0.5410051942,2024-06-05 19:18:07.900075
3.940541669,-1.658700943,1.305443048,0.1464695334,2024-06-05 19:18:07.940542
3.981034794,-0.4006607831,1.379743099,0.08495233208,2024-06-05 19:18:07.981035
4.021551408,-0.2977326214,1.189998388,0.4523245692,2024-06-05 19:18:08.021551
4.062009898,1.20238173,0.1776276082,0.2454030514,2024-06-05 19:18:08.062010
4.102493804,2.647902966,0.9561797976,0.8601756692,2024-06-05 19:18:08.102494
4.142973492,3.342701197,0.2695039511,0.9392692447,2024-06-05 19:18:08.142973
4.183329013,2.53472209,1.371753812,-0.1310236603,2024-06-05 19:18:08.183329
4.223925054,1.913291693,2.299172401,0.2720338702,2024-06-05 19:18:08.223925
4.264449065,0.05246272683,2.06082654,0.861507237,2024-06-05 19:18:08.264449
4.3049137,-0.01917419396,0.4154408872,0.9344756603,2024-06-05 19:18:08.304914
4.345388283,0.391073674,-1.57907486,0.143540144,2024-06-05 19:18:08.345388
4.385852658,0.6182346344,-1.486399531,0.08495233208,2024-06-05 19:18:08.385853
4.4263162,-0.08894696087,-1.842320561,-0.1451379955,2024-06-05 19:18:08.426316
4.466811148,-0.06817491353,-1.857233763,-0.7913349867,2024-06-05 19:18:08.466811
4.507302763,-0.3873453438,-0.7573806643,-0.0181089621,2024-06-05 19:18:08.507303
4.547786461,-1.144326568,-0.6055849791,0.8089113235,2024-06-05 19:18:08.547786
4.588271773,-0.4459331632,0.3736304939,0.2244978547,2024-06-05 19:18:08.588272
4.628784065,-0.710909903,3.678382874,-0.420101285,2024-06-05 19:18:08.628784
4.66928469,-1.367226601,0.9215596914,-0.8320801258,2024-06-05 19:18:08.669285
4.709753648,-0.5865439177,-2.783586979,-1.497983932,2024-06-05 19:18:08.709754
4.750204325,-2.308093548,-3.907407999,-0.6414034367,2024-06-05 19:18:08.750204
4.790698752,-3.49369812,7.900300503,1.005047321,2024-06-05 19:18:08.790699
4.831199429,0.1206376404,0.8182321191,0.6901378632,2024-06-05 19:18:08.831199
4.871678179,0.5375432372,2.849231958,0.2231663167,2024-06-05 19:18:08.871678
4.912123856,1.45737195,0.7820141912,0.1198387146,2024-06-05 19:18:08.912124
4.952601929,0.7513887286,1.086670876,0.1006645188,2024-06-05 19:18:08.952602
4.993037346,1.588928223,0.01637795754,0.1358172148,2024-06-05 19:18:08.993037
5.033438336,1.062836289,-2.081465244,1.309437752,2024-06-05 19:18:09.033438
5.074088231,0.5375432372,-2.312887192,3.022199154,2024-06-05 19:18:09.074088
5.114569013,0.9318125844,-0.5689675808,0.08734910935,2024-06-05 19:18:09.114569
5.154994533,0.9334104657,-1.299451113,0.9019860625,2024-06-05 19:18:09.154995
5.195528961,-0.0229025092,-1.643787742,1.06656456,2024-06-05 19:18:09.195529
5.2360087,-0.2058562785,-2.056432247,1.062569976,2024-06-05 19:18:09.236009
5.276472919,0.9824111462,-2.445375443,0.3705679476,2024-06-05 19:18:09.276473
5.316975575,0.3758940995,-2.508490562,0.05432688445,2024-06-05 19:18:09.316976
5.357465419,1.622483015,-0.527423501,-0.667767942,2024-06-05 19:18:09.357465
5.397866669,-0.03248960897,0.405321151,0.04500609636,2024-06-05 19:18:09.397867
5.438461356,-1.530207276,-0.6724283695,0.5918700695,2024-06-05 19:18:09.438461
5.478879117,-2.279598713,4.954132557,-0.6613765359,2024-06-05 19:18:09.478879
5.519375211,-0.3414071798,3.287974834,-0.1509967744,2024-06-05 19:18:09.519375
5.559866877,-2.815277815,-0.7395380139,-0.8935973644,2024-06-05 19:18:09.559867
5.600346252,-1.298252702,-2.691710711,-0.3232982159,2024-06-05 19:18:09.600346
5.640790575,-1.423151374,-3.565068722,0.2776263654,2024-06-05 19:18:09.640791
5.681340836,-1.947379112,-1.077216864,1.415694714,2024-06-05 19:18:09.681341
5.721844481,-2.590913057,4.885291576,1.530606747,2024-06-05 19:18:09.721844
5.762260783,-2.394643784,8.073534012,0.8599093556,2024-06-05 19:18:09.762261
5.802678179,-1.08147788,3.322594881,0.3828181326,2024-06-05 19:18:09.802678
5.843095575,0.05885412544,-0.7467283607,0.4549876451,2024-06-05 19:18:09.843096
5.883730627,0.9608401656,1.628741264,1.080146313,2024-06-05 19:18:09.883731
5.924147971,2.509422779,0.3962666988,1.237534523,2024-06-05 19:18:09.924148
5.964678127,3.131119251,-1.56868875,2.228467464,2024-06-05 19:18:09.964678
6.005149586,2.765744448,-2.048176765,-0.6046528816,2024-06-05 19:18:10.005150
6.045655158,3.412207603,3.505548716,-2.047777414,2024-06-05 19:18:10.045655
6.086107658,-0.3873453438,2.213154793,0.9062470198,2024-06-05 19:18:10.086108
6.126614794,0.5239614844,-1.029547691,1.09106493,2024-06-05 19:18:10.126615
6.167050002,1.705304861,-1.748979449,0.2917406857,2024-06-05 19:18:10.167050
6.207571877,0.9925308824,-1.550579786,-0.6760234833,2024-06-05 19:18:10.207572
6.248071565,-0.1792254597,-3.008883715,-1.277214408,2024-06-05 19:18:10.248072
6.288523075,2.45083499,-2.669873476,-0.851254344,2024-06-05 19:18:10.288523
6.329020627,-0.5870765448,-0.7118419409,0.7090457082,2024-06-05 19:18:10.329021
6.369481096,0.2135792226,3.198495388,0.08921326697,2024-06-05 19:18:10.369481
6.409906773,-1.522217989,1.728606939,-1.156044126,2024-06-05 19:18:10.409907
6.450441096,-1.997977734,2.504895449,-0.1552577168,2024-06-05 19:18:10.450441
6.490954742,-3.256017923,-1.985594392,-0.371633172,2024-06-05 19:18:10.490955
6.531455523,-1.483070731,-2.419011116,-0.6914693713,2024-06-05 19:18:10.531456
6.571943804,-1.124353409,-1.497318149,-0.328358084,2024-06-05 19:18:10.571944
6.612351513,-2.105566263,-0.06271559745,0.9027850032,2024-06-05 19:18:10.612352
6.652843231,-3.013943672,5.657319546,1.372286439,2024-06-05 19:18:10.652843
6.693273804,-2.480395079,8.455420494,0.6597787142,2024-06-05 19:18:10.693274
6.733767086,-0.3830844164,0.9391360879,0.1568555683,2024-06-05 19:18:10.733767
6.774336252,0.02796236612,-0.167374745,-0.037815772,2024-06-05 19:18:10.774336
6.8148137,0.4557865858,1.063768387,0.741269052,2024-06-05 19:18:10.814814
6.855322502,1.661364079,-0.1625811905,1.057510138,2024-06-05 19:18:10.855323
6.895828283,2.688248634,-1.059374213,1.750311017,2024-06-05 19:18:10.895828
6.936280783,2.313153505,-1.886527658,1.706902742,2024-06-05 19:18:10.936281
6.976746773,2.127802849,-0.1484668553,-2.254565716,2024-06-05 19:18:10.976747
7.01721495,2.276136637,1.763759613,-0.6001256704,2024-06-05 19:18:11.017215
7.057706304,-0.9412665367,0.1568555683,0.5508586168,2024-06-05 19:18:11.057706
7.098187398,-1.412498951,-1.282673717,0.8392704725,2024-06-05 19:18:11.098187
7.138668596,-0.6504579186,-3.390636683,0.3338173926,2024-06-05 19:18:11.138669
7.179133283,-0.4549876451,-2.665612459,-0.5809514523,2024-06-05 19:18:11.179133
7.219624846,3.140173912,1.225151181,-1.231143117,2024-06-05 19:18:11.219625
7.260096356,0.3609808385,-2.629927158,0.1954702586,2024-06-05 19:18:11.260096
7.300585471,-0.5908048749,0.9045159817,0.8198299408,2024-06-05 19:18:11.300585
7.341082294,0.056723658,0.7079805136,-0.1904104054,2024-06-05 19:18:11.341082
7.381610315,-0.04846810177,-0.8394036293,-0.4531235099,2024-06-05 19:18:11.381610
7.422056408,-2.117283821,0.7228937745,-0.383883357,2024-06-05 19:18:11.422056
7.462490627,-3.332448244,0.8291507363,0.2981320918,2024-06-05 19:18:11.462491
7.502940836,-2.327001572,-1.564694166,-0.3390104175,2024-06-05 19:18:11.502941
7.543390992,0.250729233,1.041398406,-1.011971354,2024-06-05 19:18:11.543391
7.583941825,-1.999841809,1.741123319,-0.5404726267,2024-06-05 19:18:11.583942
7.624501148,-1.914090633,2.294112444,-0.3737636507,2024-06-05 19:18:11.624501
7.664971825,-0.6549851298,2.34657526,-0.288944453,2024-06-05 19:18:11.664972
7.705420783,-0.6994586587,1.451113701,-0.2892107666,2024-06-05 19:18:11.705421
7.745912763,-0.3728315532,0.5280892849,-0.5162385702,2024-06-05 19:18:11.745913
7.786401721,1.067097187,2.672935963,-1.733000994,2024-06-05 19:18:11.786402
7.82687245,0.5159722567,-0.1162435561,-0.1968017966,2024-06-05 19:18:11.826872
7.867395419,0.4054543078,0.4026580751,0.4640421271,2024-06-05 19:18:11.867395
7.907867398,-0.2817541361,0.8661676049,-0.8829450011,2024-06-05 19:18:11.907867
7.9483137,-0.6848116517,1.089333892,-1.733000994,2024-06-05 19:18:11.948314
7.988818023,-1.112902164,0.9660332203,-1.068961382,2024-06-05 19:18:11.988818
8.02933469,-0.8973256946,-0.8002563119,-0.9335435629,2024-06-05 19:18:12.029335
8.069778179,-0.8150364161,0.1248985752,-1.225550652,2024-06-05 19:18:12.069778
8.110246044,-1.295855999,-0.2723001838,-1.366161346,2024-06-05 19:18:12.110246
8.150720419,-0.5290213227,-0.1034607589,-1.054314375,2024-06-05 19:18:12.150720
8.191223856,-0.5330159664,0.3730978668,-0.6499252915,2024-06-05 19:18:12.191224
8.231717033,-0.2908086181,0.3222329915,-0.3985303044,2024-06-05 19:18:12.231717
8.272169117,0.1571218669,0.7444647551,-0.06684337556,2024-06-05 19:18:12.272169
8.312674533,0.1872147024,0.8184984326,0.1006645188,2024-06-05 19:18:12.312675
8.353114638,0.02103835158,0.3403419554,0.3623123765,2024-06-05 19:18:12.353115
8.393551408,0.2592510879,0.5491276383,0.5585815907,2024-06-05 19:18:12.393551
8.434106148,0.4294220507,0.332885325,0.7945306897,2024-06-05 19:18:12.434106
8.474589533,0.5516575575,0.7220948339,0.9211602807,2024-06-05 19:18:12.474590
8.515075731,0.984275341,1.004381537,0.9983896613,2024-06-05 19:18:12.515076
8.555566148,1.409303308,1.446852803,1.175218344,2024-06-05 19:18:12.555566
8.596051669,0.8913337588,1.585599303,1.384003997,2024-06-05 19:18:12.596052
8.636481148,0.8561810255,1.16043818,1.571884513,2024-06-05 19:18:12.636481
8.677017502,1.444455981,1.240330696,1.696516752,2024-06-05 19:18:12.677018
8.71748094,1.109706521,0.4372781515,1.614493847,2024-06-05 19:18:12.717481
8.757962294,1.127282858,0.4351477027,1.571884513,2024-06-05 19:18:12.757962
8.798443908,0.8238245845,-0.227560401,1.413564205,2024-06-05 19:18:12.798444
8.838911877,-0.1584534049,-1.586531401,1.458304048,2024-06-05 19:18:12.838912
8.879402138,-1.327014089,-0.5391410589,1.381340981,2024-06-05 19:18:12.879402
8.919902658,-0.3014609516,-1.160305023,0.8291507363,2024-06-05 19:18:12.919903
8.960376565,0.7937317491,-0.4829500318,1.025286794,2024-06-05 19:18:12.960377
9.000891773,-0.2750964165,-2.008230448,1.423683882,2024-06-05 19:18:13.000892
9.041385158,0.7372744083,-1.484535336,0.8070471883,2024-06-05 19:18:13.041385
9.081877971,-0.1925408691,-0.3497959077,0.8219604492,2024-06-05 19:18:13.081878
9.122259533,-0.7572475076,-1.134206891,0.60678339,2024-06-05 19:18:13.122260
9.162724481,-0.7993242145,-2.538583517,-0.07163692266,2024-06-05 19:18:13.162724
9.203229794,-0.9162335396,-2.798766613,-0.4986622036,2024-06-05 19:18:13.203230
9.243694742,0.3649754524,0.9665657878,-0.5734948516,2024-06-05 19:18:13.243695
9.284220106,0.2746969759,1.694785714,-0.4166392684,2024-06-05 19:18:13.284220
9.324716044,-0.4027912319,0.2181064636,-0.2713681161,2024-06-05 19:18:13.324716
9.365205471,1.939389825,-0.5644403696,0.2983984053,2024-06-05 19:18:13.365205
9.405623283,1.045526266,0.1917419434,-0.1041265279,2024-06-05 19:18:13.405623
9.446138752,0.3194367588,3.491966963,-1.759099126,2024-06-05 19:18:13.446139
9.486628283,-1.148321152,0.2516613007,-2.565347433,2024-06-05 19:18:13.486628
9.527123075,-1.487597942,-3.187709808,0.6717625856,2024-06-05 19:18:13.527123
9.567603492,-1.793719292,-2.071079254,0.5231625438,2024-06-05 19:18:13.567603
9.608104273,-2.204366684,-2.888778925,0.8243572116,2024-06-05 19:18:13.608104
9.648558179,-2.542178631,-0.1452711523,0.5918700695,2024-06-05 19:18:13.648558
9.689057033,-0.6970618367,0.8752220869,-0.240476355,2024-06-05 19:18:13.689057
9.729543283,0.07270215452,0.8169005513,-1.167761683,2024-06-05 19:18:13.729543
9.770002138,0.4485962689,-2.47866416,-0.4190360308,2024-06-05 19:18:13.770002
9.810498336,2.059894323,-3.352288246,0.256588012,2024-06-05 19:18:13.810498
9.850964533,0.5710980296,3.95680809,0.3700353205,2024-06-05 19:18:13.850965
9.891485888,0.9142362475,4.137098789,0.7572475076,2024-06-05 19:18:13.891486
9.932001981,1.219958067,0.4703003764,-0.2426068187,2024-06-05 19:18:13.932002
9.972454481,0.1616491079,-1.31489706,-0.002130466048,2024-06-05 19:18:13.972454
10.01292677,-0.8278192282,-0.2054568231,-0.5620435476,2024-06-05 19:18:14.012927
10.05338896,-0.73221457,1.79837966,-0.6323489547,2024-06-05 19:18:14.053389
10.09386901,-1.234871387,2.809285879,0.07722939551,2024-06-05 19:18:14.093869
10.13435709,1.372286439,1.02834928,-0.2873466015,2024-06-05 19:18:14.134357
10.17484104,1.536199212,0.6435338855,-0.3312874734,2024-06-05 19:18:14.174841
10.21533917,-0.8557815552,1.901307821,-0.6837464571,2024-06-05 19:18:14.215339
10.25581532,-1.518223405,5.506189346,-1.795317054,2024-06-05 19:18:14.255815
10.29629344,0.5780220628,0.665104866,-0.1488663107,2024-06-05 19:18:14.296293
10.33678479,-0.5785546899,1.204911709,-0.2804225981,2024-06-05 19:18:14.336785
10.3772638,-0.06125089899,-0.5954652429,0.12117026,2024-06-05 19:18:14.377264
10.41774604,-0.4001281559,-1.533536077,-0.06577813625,2024-06-05 19:18:14.417746
10.45823094,-1.188267469,1.40131402,-0.1629806459,2024-06-05 19:18:14.458231
10.49869657,-1.039401174,0.6648385525,-0.1515294015,2024-06-05 19:18:14.498697
10.5391786,-0.5503259897,-1.002650619,0.265642494,2024-06-05 19:18:14.539179
10.57965964,-0.4326177537,-0.8420667052,0.3724320829,2024-06-05 19:18:14.579660
10.62015516,-0.5681686401,2.127669811,0.9770849943,2024-06-05 19:18:14.620155
10.66061615,-0.68321383,1.731003642,0.8025199175,2024-06-05 19:18:14.660616
10.70111823,-0.8062482476,0.2117150575,0.5157059431,2024-06-05 19:18:14.701118
10.74164505,-0.7551170588,0.09001219273,0.2890776098,2024-06-05 19:18:14.741645
10.78208386,-0.3408745527,0.5523233414,0.1999974996,2024-06-05 19:18:14.782084
10.82251667,-0.7402037978,2.201437235,0.7386059761,2024-06-05 19:18:14.822517
10.86299037,-0.6142399907,1.956433654,0.4629769027,2024-06-05 19:18:14.862990
10.90346422,-0.004793548491,-0.079493016,-0.04500609636,2024-06-05 19:18:14.903464
10.94398901,-0.5559184551,-0.7728265524,0.112115778,2024-06-05 19:18:14.943989
10.98451308,0.2358159572,0.4804200828,0.5516575575,2024-06-05 19:18:14.984513
11.0249938,0.002663082443,0.820895195,0.4166392684,2024-06-05 19:18:15.024994
11.06545255,-0.1928071827,-1.747647882,0.04687025398,2024-06-05 19:18:15.065453
11.10594948,0.3181052208,-4.110068321,0.01917419396,2024-06-05 19:18:15.105949
11.14643886,0.4099815488,-4.652937889,0.1848179251,2024-06-05 19:18:15.146439
11.18693261,0.08255556226,-1.848445654,0.2034595013,2024-06-05 19:18:15.186933
11.22739032,-0.1968017966,3.187310457,0.701322794,2024-06-05 19:18:15.227390
11.26787334,0.5271571875,3.915263891,0.3721657991,2024-06-05 19:18:15.267873
11.30835703,1.267361045,-2.841109514,-0.4315525293,2024-06-05 19:18:15.308357
11.34882854,0.2829525173,-8.653020859,-0.2127802968,2024-06-05 19:18:15.348829
11.38930245,0.3244965971,-8.190842628,0.1941387206,2024-06-05 19:18:15.389302
11.42980896,0.4214328229,1.635665298,0.1808233112,2024-06-05 19:18:15.429809
11.47028594,-0.4957328141,2.037923813,0.7415353656,2024-06-05 19:18:15.470286
11.51075292,0.6491263509,-0.4041227698,0.0868164897,2024-06-05 19:18:15.510753
11.5512638,1.028216124,-1.907033443,-0.554586947,2024-06-05 19:18:15.551264
11.59177448,0.3327521682,-1.699446082,-0.4166392684,2024-06-05 19:18:15.591774
11.63220495,0.4230306745,-0.6252917647,-0.4153077304,2024-06-05 19:18:15.632205
11.6726575,0.1395455301,-0.2872134447,-0.3038577139,2024-06-05 19:18:15.672657
11.71312203,0.8035851717,1.121557236,-0.3288906813,2024-06-05 19:18:15.713122
11.75359854,0.935274601,1.751243114,-0.3464670479,2024-06-05 19:18:15.753599
11.79415026,0.4304873049,-0.2038589716,-0.3916063011,2024-06-05 19:18:15.794150
11.83463042,1.051917553,-0.818897903,-0.6712299585,2024-06-05 19:18:15.834630
11.87511406,1.054314375,-0.2392779738,-0.05565842614,2024-06-05 19:18:15.875114
11.91559063,0.8889369369,-0.05499265343,-0.2905423045,2024-06-05 19:18:15.915591
11.95606719,1.538329601,0.000133154128,-0.7793511152,2024-06-05 19:18:15.956067
11.99653339,0.6054518223,0.1264964193,-0.7106435895,2024-06-05 19:18:15.996533
12.03702167,-0.3778914213,0.9228912592,-0.2279598713,2024-06-05 19:18:16.037022
12.07753354,-0.3493964374,1.450847387,-0.1592523307,2024-06-05 19:18:16.077534
12.11801776,-1.097988963,2.132996082,-0.3833507299,2024-06-05 19:18:16.118018
12.15849526,-1.254578233,1.757634521,-0.1584534049,2024-06-05 19:18:16.158495
12.19896917,-1.03460753,0.48468104,-0.3571193814,2024-06-05 19:18:16.198969
12.23944099,-1.245790005,-0.5740274191,-0.484814167,2024-06-05 19:18:16.239441
12.27994443,-1.520620108,-1.004248381,-0.5138418078,2024-06-05 19:18:16.279944
12.32038229,-1.378944159,-0.8639039993,-0.3286243975,2024-06-05 19:18:16.320382
12.36087209,-1.223420143,-0.4227643609,-0.07270215452,2024-06-05 19:18:16.360872
12.40134953,-2.525134802,0.1387466043,0.475759685,2024-06-05 19:18:16.401350
12.44187412,-2.797568321,1.06323576,1.007444143,2024-06-05 19:18:16.441874
12.4823188,-1.949243307,1.990787387,0.6991923451,2024-06-05 19:18:16.482319
12.52279719,-0.2367480397,-2.721537113,-0.006391398143,2024-06-05 19:18:16.522797
12.56327558,-0.4422048628,-2.903958321,-0.3195699155,2024-06-05 19:18:16.563276
12.60375396,-0.2697702646,3.304219723,0.5194342732,2024-06-05 19:18:16.603754
12.64426047,-0.1328878254,2.70835495,0.4011933804,2024-06-05 19:18:16.644260
12.68474599,0.4792217016,0.7364754677,-0.1672415882,2024-06-05 19:18:16.684746
12.72526156,0.7311493158,-0.7858756781,-0.5226299763,2024-06-05 19:18:16.725262
12.76572667,1.13260901,-0.4254274368,-0.3286243975,2024-06-05 19:18:16.765727
12.80620599,0.1201050207,-0.1178414002,0.4898740351,2024-06-05 19:18:16.806206
12.84666318,0.3785571754,0.08841434121,0.2738980353,2024-06-05 19:18:16.846663
12.88723755,0.1366161406,0.5568505526,-0.08468602598,2024-06-05 19:18:16.887238
12.9276563,-0.646463275,0.8834776282,-0.164844811,2024-06-05 19:18:16.927656
12.96814547,0.716768682,0.2985315621,0.4379439354,2024-06-05 19:18:16.968145
13.0086499,0.4350145459,-0.2573869228,0.2746969759,2024-06-05 19:18:17.008650
13.04908089,-0.2940043211,0.9737561345,-0.06364767253,2024-06-05 19:18:17.049081
13.08955849,-0.112115778,2.885982513,0.1153114736,2024-06-05 19:18:17.089558
13.1300436,-0.2205032408,3.309545755,0.1552577168,2024-06-05 19:18:17.130044
13.17052375,-0.1022623703,0.327026546,-0.4533897936,2024-06-05 19:18:17.170524
13.21102604,-0.1320888996,-1.34152782,-0.4403406978,2024-06-05 19:18:17.211026
13.25155938,-0.6581808329,-2.064954281,0.3039908707,2024-06-05 19:18:17.251559
13.29204844,0.5820167065,-0.2962679267,-0.1571218669,2024-06-05 19:18:17.292048
13.3324125,-0.04074516147,3.50288558,0.2348838747,2024-06-05 19:18:17.332413
13.37288974,-0.6536536217,3.400889635,0.4661726058,2024-06-05 19:18:17.372890
13.41336985,0.186149478,1.10105145,0.3213009238,2024-06-05 19:18:17.413370
13.45390151,0.3165073693,-1.705304861,-0.07430000603,2024-06-05 19:18:17.453902
13.49438917,-1.03540647,-1.228613138,0.5090482235,2024-06-05 19:18:17.494389
13.53487016,0.06577813625,2.260025024,0.07643046975,2024-06-05 19:18:17.534870
13.57536625,-0.686409533,1.05205071,0.2675066292,2024-06-05 19:18:17.575366
13.61583672,0.04074516147,-0.7067821026,-0.08521863818,2024-06-05 19:18:17.615837
13.65630266,-0.3757609427,-0.6348788738,-0.1909430176,2024-06-05 19:18:17.656303
13.69682698,-0.4227643609,0.9138367772,0.103061296,2024-06-05 19:18:17.696827
13.73731604,-0.5508586168,0.5493939519,0.2061225921,2024-06-05 19:18:17.737316
13.77778959,-0.3507279754,0.2615146935,0.09480573982,2024-06-05 19:18:17.777790
13.81826193,-0.4251611233,1.327280402,0.3133116663,2024-06-05 19:18:17.818262
13.85873495,-0.03754946589,0.640604496,0.116643019,2024-06-05 19:18:17.858735
13.89920433,0.005059856921,-0.3109148741,-0.1398118287,2024-06-05 19:18:17.899204
13.93970047,0.2127802968,-0.5157059431,-0.1699046642,2024-06-05 19:18:17.939700
13.98018891,0.5218310356,0.1230344176,-0.213312909,2024-06-05 19:18:17.980189
14.0206725,0.999188602,-0.409715265,-0.3645760119,2024-06-05 19:18:18.020672
14.0611463,0.8543168902,0.3989297748,-0.1864157766,2024-06-05 19:18:18.061146
14.10166011,-0.2790910602,2.217149496,-0.1496652365,2024-06-05 19:18:18.101660
14.14214151,0.01944050193,-1.164832354,-1.217561364,2024-06-05 19:18:18.142142
14.18262167,0.4078511,-4.499810696,-1.587862968,2024-06-05 19:18:18.182622
14.22310182,0.3455349505,-4.120986938,0.1707035899,2024-06-05 19:18:18.223102
14.26358203,0.3252955377,-5.229362011,0.2095845938,2024-06-05 19:18:18.263582
14.30404594,1.161103964,-3.805411816,-1.226349473,2024-06-05 19:18:18.304046
14.34452901,0.6358109713,1.866421461,-0.6022561193,2024-06-05 19:18:18.344529
14.38501464,0.3119801283,3.166005611,0.3862801194,2024-06-05 19:18:18.385015
14.42549646,2.297707558,0.4766917825,-0.3422061205,2024-06-05 19:18:18.425496
14.46596058,1.484535336,-1.582270503,-0.4853467941,2024-06-05 19:18:18.465961
14.50645026,1.16003871,-1.132875323,0.04181039706,2024-06-05 19:18:18.506450
14.54693818,1.581471562,0.4063864052,-0.07935985923,2024-06-05 19:18:18.546938
14.5874237,0.8540505767,-0.5234288573,0.1003982127,2024-06-05 19:18:18.587424
14.62788927,0.6275554299,-0.2786915898,0.4477973282,2024-06-05 19:18:18.627889
14.66837563,1.064167738,-0.7568480372,0.3913399875,2024-06-05 19:18:18.668376
14.70886209,0.3687037826,-2.507425308,0.3641765416,2024-06-05 19:18:18.708862
14.74933563,0.2374138087,-0.917165637,0.4773575366,2024-06-05 19:18:18.749336
14.78982563,-0.03834838793,-0.641802907,0.6198324561,2024-06-05 19:18:18.789826
14.83030797,0.5495271087,-0.9491226077,0.5298202634,2024-06-05 19:18:18.830308
14.87080662,0.1270290315,-0.6460638046,0.5178363919,2024-06-05 19:18:18.870807
14.91129354,-0.0929415822,-0.2667077184,0.4384765327,2024-06-05 19:18:18.911294
14.9517825,-0.4081174135,-0.3332847953,0.2973331809,2024-06-05 19:18:18.951783
14.99225755,0.3633776009,-0.2922733128,-0.07669677585,2024-06-05 19:18:18.992258
15.03273297,0.3399424851,0.2684387267,-0.1533935517,2024-06-05 19:18:19.032733
15.07318698,-0.3264939189,0.7575138211,0.2186390758,2024-06-05 19:18:19.073187
15.11365427,-0.02503297664,-0.5521901846,-0.04473978654,2024-06-05 19:18:19.113654
15.15413495,0.9153015018,-0.1937392503,-0.5282224417,2024-06-05 19:18:19.154135
15.19465146,0.02077204362,1.424482822,0.2093182951,2024-06-05 19:18:19.194651
15.23514344,-0.3584509194,0.8957278132,0.3412740231,2024-06-05 19:18:19.235143
15.27562604,0.1509967744,-0.5282224417,-0.1688394397,2024-06-05 19:18:19.275626
15.3160786,0.2286256403,-0.3146432042,-0.3411408663,2024-06-05 19:18:19.316079
15.35657453,0.05858781561,0.8312812448,0.01304910425,2024-06-05 19:18:19.356575
15.39700683,0.2677729428,0.9026518464,0.01304910425,2024-06-05 19:18:19.397007
15.43756287,0.3388772607,0.6762897968,-0.08468602598,2024-06-05 19:18:19.437563
15.47802907,0.2111824453,0.6013240218,0.2061225921,2024-06-05 19:18:19.478029
15.51852,0.2888112962,-1.038069606,-0.05246272683,2024-06-05 19:18:19.518520
15.55899526,0.5681686401,-0.6766892672,-0.06524552405,2024-06-05 19:18:19.558995
15.59946037,0.4509930313,-0.6665695906,-0.1113168523,2024-06-05 19:18:19.599460
15.63993073,0.3926715255,0.1451379955,-0.3030588031,2024-06-05 19:18:19.639931
15.68045974,0.3804213405,1.297187567,-0.07749570161,2024-06-05 19:18:19.680460
15.72091115,-0.352858454,1.828738809,0.005592473317,2024-06-05 19:18:19.720911
15.76146844,-1.009042025,1.937525749,-0.09027849883,2024-06-05 19:18:19.761468
15.80193912,-1.273752332,2.242182255,-0.4669715166,2024-06-05 19:18:19.801939
15.84231479,-1.038069606,1.65963304,-0.7636389136,2024-06-05 19:18:19.842315
15.88279599,-0.796394825,0.09134373069,-0.9527177811,2024-06-05 19:18:19.882796
15.92327724,-1.119826198,-1.018629074,-0.9537830353,2024-06-05 19:18:19.923277
15.96375854,-1.382938743,0.6669690013,-0.5963973403,2024-06-05 19:18:19.963759
16.00433417,-1.956699967,1.726742744,-0.1488663107,2024-06-05 19:18:20.004334
16.04477115,-2.077337503,0.3547225893,-0.08628387749,2024-06-05 19:18:20.044771
16.08525313,-1.279611111,-0.9568455815,-0.2173075378,2024-06-05 19:18:20.085253
16.12574823,-1.434602618,-0.3591166735,0.2768274248,2024-06-05 19:18:20.125748
16.16622995,-2.239386082,2.783187628,0.9336767197,2024-06-05 19:18:20.166230
16.20671396,-2.082397461,3.909937859,0.9208939672,2024-06-05 19:18:20.206714
16.24723068,-0.4728302956,-2.214885712,-1.061771035,2024-06-05 19:18:20.247231
16.28766912,0.3236976862,-2.629128218,-1.039933681,2024-06-05 19:18:20.287669
16.32816302,-0.738073349,3.514336824,0.8892032504,2024-06-05 19:18:20.328163
16.36862417,0.4794880152,-0.01478010789,0.3777582645,2024-06-05 19:18:20.368624
16.40911558,0.3133116663,0.1065233052,-0.1150451675,2024-06-05 19:18:20.409116
16.44958485,-0.3131785095,0.3624455333,-0.03009283356,2024-06-05 19:18:20.449585
16.49006797,-0.4006607831,0.1403444558,-0.1041265279,2024-06-05 19:18:20.490068
16.53056011,-0.677355051,0.68321383,0.08122401685,2024-06-05 19:18:20.530560
16.5710324,-0.7066489458,0.5137086511,-0.0037283157,2024-06-05 19:18:20.571032
16.61158328,-0.6840127707,0.2388785034,-0.2532591522,2024-06-05 19:18:20.611583
16.65200828,-0.1813559234,0.2181064636,-0.6579145193,2024-06-05 19:18:20.652008
16.69243985,0.6318163276,0.1387466043,-0.5599130988,2024-06-05 19:18:20.692440
16.73292151,2.147509813,-0.01904104091,0.05352795869,2024-06-05 19:18:20.732922
16.77340907,2.755092144,-0.4699009061,0.886806488,2024-06-05 19:18:20.773409
16.8139086,2.543243885,-0.5625761747,0.9520519972,2024-06-05 19:18:20.813909
16.85442985,2.51315093,0.8334116936,-0.006391398143,2024-06-05 19:18:20.854430
16.89491906,1.723413825,1.731802583,0.4754934013,2024-06-05 19:18:20.894919
16.93540151,1.328079224,-1.396121025,0.9752208591,2024-06-05 19:18:20.935402
16.97589662,1.319291115,-1.29998374,1.675744653,2024-06-05 19:18:20.975897
17.01639282,1.361634135,-1.893451691,1.215697169,2024-06-05 19:18:21.016393
17.05685443,1.231941938,-1.957898259,0.6129084229,2024-06-05 19:18:21.056854
17.09732703,0.628354311,-2.644307852,0.1869483888,2024-06-05 19:18:21.097327
17.13779636,0.1158440933,-2.237521887,-0.1182408631,2024-06-05 19:18:21.137796
17.17828474,-0.2093182951,-1.645651817,0.1800243855,2024-06-05 19:18:21.178285
17.21877808,-0.8400694132,-1.135804653,-0.02023942769,2024-06-05 19:18:21.218778
17.25925912,0.1573881805,-0.1221023351,-0.5740274191,2024-06-05 19:18:21.259259
17.29974516,-0.6983934045,-0.8686975241,-0.5508586168,2024-06-05 19:18:21.299745
17.34022401,-2.096511841,-0.2757622004,-0.000266308256,2024-06-05 19:18:21.340224
17.38070172,-1.137402534,2.553629875,1.036738038,2024-06-05 19:18:21.380702
17.42117479,-0.3876116574,1.822347403,0.5500596762,2024-06-05 19:18:21.421175
17.46168349,-0.860308826,-0.8449960947,0.05778888986,2024-06-05 19:18:21.461683
17.50217578,-2.338452816,1.322753072,0.4243622124,2024-06-05 19:18:21.502176
17.54256776,0.1059906855,-1.041265249,0.2685718834,2024-06-05 19:18:21.542568
17.58304959,-1.182941318,-0.6311505437,0.154458791,2024-06-05 19:18:21.583050
17.62354558,-0.4991948307,3.547625542,0.4334166944,2024-06-05 19:18:21.623546
17.66405896,1.26842618,1.506772161,0.9147688746,2024-06-05 19:18:21.664059
17.70454266,1.658700943,-0.687607944,0.4475310147,2024-06-05 19:18:21.704543
17.74503125,3.065873861,-2.049774647,0.1547250897,2024-06-05 19:18:21.745031
17.78552292,2.268946409,-0.5792204738,-0.2021279633,2024-06-05 19:18:21.785523
17.82601443,1.508236766,2.184659719,-0.2194380015,2024-06-05 19:18:21.826014
17.86649016,2.279598713,2.393711805,-0.2306229472,2024-06-05 19:18:21.866490
17.90698386,-0.2199706137,0.1688394397,0.162181735,2024-06-05 19:18:21.906984
17.94748636,-0.7836120725,-1.276015997,0.2367480397,2024-06-05 19:18:21.947486
17.98792948,-0.08521863818,-2.887181044,-0.3581846058,2024-06-05 19:18:21.987929
18.02841193,1.249518394,-0.8833444715,-0.8113080859,2024-06-05 19:18:22.028412
18.06889693,-1.472418308,-1.369490266,-0.005592473317,2024-06-05 19:18:22.068897
18.1093899,-2.3989048,0.325695008,0.5876091719,2024-06-05 19:18:22.109390
18.14987979,-0.07456631213,0.918630302,-0.03595161438,2024-06-05 19:18:22.149880
18.19035662,0.3093170524,-0.2440715134,0.02236989327,2024-06-05 19:18:22.190357
18.23082688,-1.121424079,-1.653108478,0.06551183015,2024-06-05 19:18:22.230827
18.27132964,-1.469755292,-1.792654037,0.1312899739,2024-06-05 19:18:22.271330
18.31185261,-0.9433969855,-0.3047898114,0.1778939217,2024-06-05 19:18:22.311853
18.35234912,-1.217561364,1.939389825,0.5157059431,2024-06-05 19:18:22.352349
18.3927137,-1.789990902,3.931775093,0.554586947,2024-06-05 19:18:22.392714
18.4331962,-1.386667132,1.914090633,-0.1632469594,2024-06-05 19:18:22.433196
18.47367875,-0.9954602718,-0.7603100538,-0.7974600792,2024-06-05 19:18:22.473679
18.51421209,0.02316881903,-6.528147221,-0.6240934134,2024-06-05 19:18:22.514212
18.55469656,0.3063876629,0.3145100474,-0.09507204592,2024-06-05 19:18:22.554697
18.59518432,0.3207682967,0.6430012584,0.1342193633,2024-06-05 19:18:22.595184
18.63563849,0.3090507388,0.9939955473,0.3165073693,2024-06-05 19:18:22.635638
18.67612912,1.006911516,-1.964289665,0.6435338855,2024-06-05 19:18:22.676129
18.71661657,0.3958672285,-2.328333139,0.1850842386,2024-06-05 19:18:22.716617
18.75708313,-0.918630302,0.4042559266,-0.06924014539,2024-06-05 19:18:22.757083
18.79756188,-0.511977613,0.4876104295,-0.2442046702,2024-06-05 19:18:22.797562
18.83806193,1.038868546,-3.17519331,-1.044461012,2024-06-05 19:18:22.838062
18.87853651,1.417026281,-4.9814291,-1.494521976,2024-06-05 19:18:22.878537
18.91903104,1.137136221,-0.00599193573,-0.5908048749,2024-06-05 19:18:22.919031
18.95953365,0.6121095419,1.753373504,0.06045197323,2024-06-05 19:18:22.959534
19.00000282,1.13633728,0.9423317909,0.02236989327,2024-06-05 19:18:23.000003
19.04046479,1.064966679,0.2231663167,-0.4794880152,2024-06-05 19:18:23.040465
19.08095948,0.7039858699,-0.2256962508,-0.7524539828,2024-06-05 19:18:23.080959
19.1214812,1.001585364,0.1318225861,-0.4014596939,2024-06-05 19:18:23.121481
19.16196417,1.96282506,0.738073349,-0.8328790665,2024-06-05 19:18:23.161964
19.20238672,0.4762923121,0.5081161261,-0.8227593303,2024-06-05 19:18:23.202387
19.24286974,0.04607132822,2.484123468,-0.4962654412,2024-06-05 19:18:23.242870
19.28331011,0.4613790512,2.316748619,-0.1387466043,2024-06-05 19:18:23.283310
19.32384391,0.8849423528,1.333405495,0.24753353,2024-06-05 19:18:23.323844
19.36430651,0.1464695334,0.9950608015,0.2480661422,2024-06-05 19:18:23.364307
19.40477542,0.4560528994,-0.420101285,-0.698659718,2024-06-05 19:18:23.404775
19.44530412,-0.1762960702,-0.06005251035,-0.4952002168,2024-06-05 19:18:23.445304
19.48578578,-0.2348838747,-0.6516563296,-0.4986622036,2024-06-05 19:18:23.485786
19.52627005,-0.4203675687,-0.3090507388,-0.5378095508,2024-06-05 19:18:23.526270
19.56673443,-0.8568468094,-0.3745625615,-0.4342156053,2024-06-05 19:18:23.566734
19.60721578,-1.14006567,0.4766917825,-0.1496652365,2024-06-05 19:18:23.607216
19.64767714,-1.187468529,0.3850817382,-0.0149132628,2024-06-05 19:18:23.647677
19.68820068,-0.5330159664,-0.01451379992,-0.4344819188,2024-06-05 19:18:23.688201
19.72868063,-0.5947995186,-0.1830869317,0.09081111848,2024-06-05 19:18:23.728681
19.7691375,0.0114512546,-0.258452177,0.01944050193,2024-06-05 19:18:23.769137
19.80964703,0.3396761715,-1.54046011,-0.07643046975,2024-06-05 19:18:23.809647
19.85010849,0.1704372764,-2.308359861,0.01038602181,2024-06-05 19:18:23.850108
19.89062063,-1.312899709,-2.775597811,0.08149032295,2024-06-05 19:18:23.890621
19.93106349,-1.430607915,-2.725531816,0.4485962689,2024-06-05 19:18:23.931063
19.97163672,-1.479342341,-3.319532394,1.058575273,2024-06-05 19:18:23.971637
20.01208318,-0.7729597092,-1.65630424,0.4672378302,2024-06-05 19:18:24.012083
20.0525025,0.7886719108,1.821015835,0.4166392684,2024-06-05 19:18:24.052502
20.09298417,0.9595086575,3.191038609,1.28626883,2024-06-05 19:18:24.092984
20.13346193,-0.3571193814,-2.862680674,0.3098496497,2024-06-05 19:18:24.133462
20.17395698,0.405188024,-3.913266659,-0.248199299,2024-06-05 19:18:24.173957
20.21446261,-0.1451379955,-1.869483948,-0.02796236612,2024-06-05 19:18:24.214463
20.25494552,-0.3675054014,-0.7499240637,0.3146432042,2024-06-05 19:18:24.254946
20.29543839,0.08495233208,-0.3117138147,0.5007926822,2024-06-05 19:18:24.295438
20.3359163,0.1262301207,0.3209014535,0.1733666807,2024-06-05 19:18:24.335916
20.37636792,0.2328865677,-0.3170399666,0.4240958989,2024-06-05 19:18:24.376368
20.4168325,0.2954690158,-0.9240896702,-0.05832150951,2024-06-05 19:18:24.416833
20.45734209,0.01118494663,-0.6913362145,-0.266308248,2024-06-05 19:18:24.457342
20.49782714,-0.4776238501,0.7223611474,-0.09906667471,2024-06-05 19:18:24.497827
20.53832573,-0.4872109592,1.810097218,0.4243622124,2024-06-05 19:18:24.538326
20.57883156,-0.5436683297,1.614094377,0.3513937294,2024-06-05 19:18:24.578832
20.61926474,-0.4232969582,-0.2347507328,-0.005592473317,2024-06-05 19:18:24.619265
20.65973901,0.4850804806,-1.843385696,-0.4603138268,2024-06-05 19:18:24.659739
20.70025125,0.1302247345,0.06817491353,-0.1275616586,2024-06-05 19:18:24.700251
20.74072995,-0.3046566546,1.641257763,0.3175725937,2024-06-05 19:18:24.740730
20.78123037,0.07296846062,2.085859299,0.2922733128,2024-06-05 19:18:24.781230
20.82174151,0.5673697591,1.401580334,-0.009054481052,2024-06-05 19:18:24.821742
20.86219495,0.2952027023,0.8187647462,-0.2492645234,2024-06-05 19:18:24.862195
20.90261568,0.781481564,-0.9344756603,-0.6762897968,2024-06-05 19:18:24.902616
20.94309735,0.9605738521,-1.139799356,-0.4669715166,2024-06-05 19:18:24.943097
20.98357912,0.4765586257,1.386400819,-0.1845516264,2024-06-05 19:18:24.983579
21.02408625,0.5713643432,3.138842344,-0.2197043151,2024-06-05 19:18:25.024086
21.06457703,0.216508612,2.456294298,-0.239144817,2024-06-05 19:18:25.064577
21.10505735,-0.2828193605,0.5904054046,-0.2111824453,2024-06-05 19:18:25.105057
21.14553938,-0.4608464241,-0.1604507267,-0.1491326243,2024-06-05 19:18:25.145539
21.18604282,-0.5117112994,-0.5439345837,-0.1874810159,2024-06-05 19:18:25.186043
21.22651828,-0.1555240154,-1.197455049,-0.2367480397,2024-06-05 19:18:25.226518
21.26700651,-0.06311506033,0.240476355,0.1203713343,2024-06-05 19:18:25.267007
21.30748542,-0.3382114768,3.476787329,0.2472672164,2024-06-05 19:18:25.307485
21.34796427,-0.331553787,3.794359922,0.4352808297,2024-06-05 19:18:25.347964
21.38844755,-0.3902747631,1.539528012,0.1147788614,2024-06-05 19:18:25.388448
21.42893089,-0.6001256704,0.5267577171,-0.07403369248,2024-06-05 19:18:25.428931
21.46940453,-0.9119726419,0.5062519908,0.04447348043,2024-06-05 19:18:25.469405
21.50989271,-1.259371758,-0.09600412846,0.01997311972,2024-06-05 19:18:25.509893
21.55038469,-1.350715518,-0.09600412846,0.03754946589,2024-06-05 19:18:25.550385
21.59085224,-1.18240869,1.121557236,0.2640446424,2024-06-05 19:18:25.590852
21.63132209,-1.288133025,2.717143059,0.4784227908,2024-06-05 19:18:25.631322
21.67185474,-1.489994645,3.591033697,0.6549851298,2024-06-05 19:18:25.671855
21.71229735,-1.470820546,2.950695515,0.4547213614,2024-06-05 19:18:25.712297
21.75277094,-0.9519188404,-0.3055887222,-0.1368824393,2024-06-05 19:18:25.752771
21.79326505,0.3391435742,-6.930139542,-0.6555177569,2024-06-05 19:18:25.793265
21.83374724,-0.5117112994,2.434989452,-0.07563154399,2024-06-05 19:18:25.833747
21.87425662,0.5449998379,1.314231277,0.6443328261,2024-06-05 19:18:25.874257
21.91475005,0.5215647221,-1.33194077,0.3268933892,2024-06-05 19:18:25.914750
21.95520334,0.2515281439,-0.2363485843,0.1209039465,2024-06-05 19:18:25.955203
21.99571308,-0.1525946259,1.179346085,0.2645772398,2024-06-05 19:18:25.995713
22.03616787,0.01757634431,1.644719839,0.2653761804,2024-06-05 19:18:26.036168
22.07666078,0.369769007,0.8246235251,-0.08708280325,2024-06-05 19:18:26.076661
22.11712636,-0.2077204436,-0.02543243766,0.2467346042,2024-06-05 19:18:26.117126
22.15760886,0.2197043151,0.2101172209,0.2717675865,2024-06-05 19:18:26.157609
22.19812703,0.2587184608,0.1451379955,0.0596530512,2024-06-05 19:18:26.198127
22.2385663,0.2986647189,-0.1178414002,-0.2742975056,2024-06-05 19:18:26.238566
22.2790525,1.12967968,-0.9805470109,-0.4808195531,2024-06-05 19:18:26.279052
22.31953005,0.9802806973,-0.8050498366,-0.5101134777,2024-06-05 19:18:26.319530
22.36006547,0.7862751484,-0.8684312105,-0.4294220507,2024-06-05 19:18:26.360065
22.40054802,1.067097187,-1.946180701,-0.6422023773,2024-06-05 19:18:26.400548
22.44098969,0.5673697591,-1.509834647,-0.7428668737,2024-06-05 19:18:26.440990
22.48151323,0.3130453527,-2.107297182,-0.3523258269,2024-06-05 19:18:26.481513
22.52200901,0.6467295885,-2.393578529,-0.3876116574,2024-06-05 19:18:26.522009
22.56238276,0.1592523307,-0.5997262001,-0.8158353567,2024-06-05 19:18:26.562383
22.60286526,0.4786891043,-0.3157084286,-0.7311493158,2024-06-05 19:18:26.602865
22.64339849,0.7892045379,-3.552019596,0.1091863886,2024-06-05 19:18:26.643398
22.68388094,-0.08974587917,-4.225379944,-0.3971987665,2024-06-05 19:18:26.683881
22.72435854,3.021400213,-0.6380745769,-1.81289351,2024-06-05 19:18:26.724359
22.76482886,0.5963973403,1.635398984,0.1318225861,2024-06-05 19:18:26.764829
22.8053349,-0.348331213,0.9143694043,0.2938711643,2024-06-05 19:18:26.805335
22.84581235,-0.2127802968,-0.4227643609,0.8628387451,2024-06-05 19:18:26.845812
22.88629448,0.6613765359,-1.178680301,0.2348838747,2024-06-05 19:18:26.886294
22.92675933,0.4917382002,-0.524227798,0.5356790423,2024-06-05 19:18:26.926759
22.96725349,0.1677742004,0.6975944638,0.9371387362,2024-06-05 19:18:26.967253
23.00775334,0.2901428342,0.7974600792,0.7657693624,2024-06-05 19:18:27.007753
23.04823511,-0.4749607742,0.6781539917,0.5527228117,2024-06-05 19:18:27.048235
23.08874219,-0.3286243975,-1.321820974,-0.1259638071,2024-06-05 19:18:27.088742
23.12919,0.2226337045,-1.160305023,-0.1424749196,2024-06-05 19:18:27.129190
23.16967261,-0.2740311921,-0.3703016341,0.1802906841,2024-06-05 19:18:27.169673
23.21016047,-0.7734923363,-0.112781547,0.4656399786,2024-06-05 19:18:27.210160
23.25062922,-0.3707011044,0.1262301207,0.1784265339,2024-06-05 19:18:27.250629
23.29109427,0.1920082569,0.1760297567,-0.2202369273,2024-06-05 19:18:27.291094
23.3316537,-0.1877473146,-0.028361829,-0.008255556226,2024-06-05 19:18:27.331654
23.3721475,0.0820229426,0.9364729524,0.2810883522,2024-06-05 19:18:27.372148
23.41263,0.5439345837,2.803426981,0.3487306535,2024-06-05 19:18:27.412630
23.45311261,-0.6690995097,0.7143719196,0.4773575366,2024-06-05 19:18:27.453113
23.49349214,0.0705716908,-0.9280842543,0.1147788614,2024-06-05 19:18:27.493492
23.53398834,0.4046553969,-1.015699744,-0.2444709837,2024-06-05 19:18:27.533988
23.57450464,0.06258244067,-0.3636439145,-0.1283605844,2024-06-05 19:18:27.574505
23.6150136,0.4030575454,-0.08082455397,0.01225017942,2024-06-05 19:18:27.615014
23.65550677,0.3364804685,-0.6963961124,0.2101172209,2024-06-05 19:18:27.655507
23.69595302,0.003462007269,-0.9211602807,0.2138455361,2024-06-05 19:18:27.695953
23.73642261,-0.1627143472,-0.9608401656,-0.0260982085,2024-06-05 19:18:27.736423
23.77690292,-0.108920075,-0.398796618,-0.1411433816,2024-06-05 19:18:27.776903
23.81740448,0.08894696087,-0.5031894445,-0.3624455333,2024-06-05 19:18:27.817404
23.8578774,0.1139799356,-0.2810883522,-0.4057206213,2024-06-05 19:18:27.857877
23.8983599,0.1027949899,0.4423380196,-0.2932053804,2024-06-05 19:18:27.898360
23.93884896,0.1195724085,0.467903614,-0.4139761925,2024-06-05 19:18:27.938849
23.97933224,0.1944050342,-1.412099481,-0.4914718866,2024-06-05 19:18:27.979332
24.01980167,0.172567755,-1.608635068,-0.4153077304,2024-06-05 19:18:28.019802
24.06028953,0.2709686458,-1.573216081,-0.4272916019,2024-06-05 19:18:28.060290
24.1007649,0.502923131,-1.517291307,-0.1102516204,2024-06-05 19:18:28.100765
24.14126469,0.4579170346,-1.326614618,0.08015878499,2024-06-05 19:18:28.141265
24.18175052,0.5537880063,-1.430741072,0.24234052,2024-06-05 19:18:28.181751
24.22223959,0.4669715166,-2.317947149,0.0410114713,2024-06-05 19:18:28.222240
24.26266526,0.8367405534,-3.491567612,-0.5628424883,2024-06-05 19:18:28.262665
24.30317849,1.350981832,-3.465735674,-0.7210295796,2024-06-05 19:18:28.303178
24.34366073,2.027537823,-2.365350008,-0.3448691964,2024-06-05 19:18:28.343661
24.38409084,1.590526104,-1.151516914,0.2858819067,2024-06-05 19:18:28.384091
24.42461636,1.078015804,-1.672282696,0.4270252883,2024-06-05 19:18:28.424616
24.46510328,1.411167502,-1.8266083,0.8708279729,2024-06-05 19:18:28.465103
24.50557464,1.043662071,-0.369769007,0.8214278221,2024-06-05 19:18:28.505575
24.54605844,1.288665652,-1.858831644,0.4746944606,2024-06-05 19:18:28.546058
24.58654938,0.5961310267,-3.243900776,0.7396711707,2024-06-05 19:18:28.586549
24.62702037,0.1608501822,-2.486387014,1.030612946,2024-06-05 19:18:28.627020
24.66751792,0.7772206664,-2.599301815,0.3878779709,2024-06-05 19:18:28.667518
24.70802162,1.045259953,-2.542577982,-0.08655018359,2024-06-05 19:18:28.708022
24.7485062,1.633135438,-1.85110867,-0.3009283245,2024-06-05 19:18:28.748506
24.78896532,1.232740879,-5.19953537,0.5255593657,2024-06-05 19:18:28.788965
24.82944406,0.3063876629,-3.641366005,1.855236411,2024-06-05 19:18:28.829444
24.86995995,1.836594939,-3.275591612,1.145125508,2024-06-05 19:18:28.869960
24.91043412,1.333938003,0.7484593391,-0.8701622486,2024-06-05 19:18:28.910434
24.95090584,-0.07270215452,2.457891941,-1.006911516,2024-06-05 19:18:28.950906
24.99139953,-0.158986032,4.99887228,0.5788210034,2024-06-05 19:18:28.991400
25.03191203,-0.4129109383,2.824465275,-0.1464695334,2024-06-05 19:18:29.031912
25.07233136,-0.2159759998,-8.038781166,-1.106510758,2024-06-05 19:18:29.072331
25.11277604,0.6081148982,1.181210279,-0.4118457139,2024-06-05 19:18:29.112776
25.15325844,-2.09784317,2.388119221,0.5604457259,2024-06-05 19:18:29.153258
25.19377573,-1.531538725,3.163609028,0.4693683088,2024-06-05 19:18:29.193776
25.23425125,-0.7188991308,2.553363562,-0.09054480493,2024-06-05 19:18:29.234251
25.27474448,-0.7042521834,-0.3021267056,-0.3881442845,2024-06-05 19:18:29.274744
25.31524735,-0.4637758136,-0.7235595584,-0.484814167,2024-06-05 19:18:29.315247
25.35572068,-0.7127740383,1.158574104,-0.4067858756,2024-06-05 19:18:29.355721
25.39615625,-0.8826786876,1.848445654,-0.1011971384,2024-06-05 19:18:29.396156
25.43672761,-0.3886769116,2.377466917,-0.1584534049,2024-06-05 19:18:29.436728
25.47716802,0.04979964346,5.349600315,-0.05698996782,2024-06-05 19:18:29.477168
25.51765323,-0.4081174135,5.536681652,0.3450023532,2024-06-05 19:18:29.517653
25.55814323,-0.7173013091,2.086391926,-0.3230319023,2024-06-05 19:18:29.558143
25.59862761,-0.4382102489,1.856567979,-0.5149070024,2024-06-05 19:18:29.598628
25.63907229,-0.5503259897,3.559875727,-0.1262301207,2024-06-05 19:18:29.639072
25.67958334,-0.08548495173,2.962679386,-0.4752270877,2024-06-05 19:18:29.679583
25.72008271,0.2063889056,1.664426565,-0.9101084471,2024-06-05 19:18:29.720083
25.76055282,0.1520620137,1.810896158,-0.9781502485,2024-06-05 19:18:29.760553
25.80102136,-0.1366161406,2.181996584,-0.5753589869,2024-06-05 19:18:29.801021
25.84156073,-0.1182408631,3.494896412,0.2709686458,2024-06-05 19:18:29.841561
25.88204328,0.1981333494,2.119946957,-0.2316881865,2024-06-05 19:18:29.882043
25.92244938,0.1842853129,-0.1213034093,-1.481739163,2024-06-05 19:18:29.922449
25.96293203,0.2723001838,-1.340995193,-1.096391082,2024-06-05 19:18:29.962932
26.00341479,-0.319303602,-0.7110430598,-0.7007901669,2024-06-05 19:18:30.003415
26.04389745,-0.4683030546,0.1549914032,-1.109972835,2024-06-05 19:18:30.043897
26.08439328,-0.4230306745,0.5038552284,-0.8110417724,2024-06-05 19:18:30.084393
26.12488287,-0.2497971505,0.6704310179,-0.3363473415,2024-06-05 19:18:30.124883
26.16536558,0.1193061024,0.7950633168,-0.03541899845,2024-06-05 19:18:30.165366
26.20584662,0.1968017966,0.06444659829,-0.1509967744,2024-06-05 19:18:30.205847
26.24633464,0.04420717061,0.3691032529,-0.08149032295,2024-06-05 19:18:30.246335
26.28683615,-0.3809539676,0.646463275,-0.233286038,2024-06-05 19:18:30.286836
26.32732339,-1.848845124,1.933797359,0.02583190054,2024-06-05 19:18:30.327323
26.36778563,-1.666956544,3.400889635,-1.594787002,2024-06-05 19:18:30.367786
26.40826229,-1.082543015,1.644719839,-0.3621792197,2024-06-05 19:18:30.408262
26.44879193,-0.9742887616,1.573615432,0.527423501,2024-06-05 19:18:30.448792
26.48922604,-1.225018024,-0.3101159632,0.07696308941,2024-06-05 19:18:30.489226
26.52968719,-1.140598297,1.74937892,0.2271609455,2024-06-05 19:18:30.529687
26.57018198,-1.185071707,1.666823387,0.2098509073,2024-06-05 19:18:30.570182
26.6106774,-0.4528571963,0.523029387,-0.1334204376,2024-06-05 19:18:30.610677
26.65113068,-0.4043890834,-1.674679518,-0.2266283184,2024-06-05 19:18:30.651131
26.69168287,-0.7146382332,-1.115831614,-0.1206376404,2024-06-05 19:18:30.691683
26.73218334,-0.9455274343,-0.530619204,0.08015878499,2024-06-05 19:18:30.732183
26.77258157,-0.9348751307,0.112115778,0.04793548584,2024-06-05 19:18:30.772582
26.81307058,-1.28254056,1.00012064,0.2789579034,2024-06-05 19:18:30.813071
26.85355245,-1.374683261,1.978803515,0.3258281648,2024-06-05 19:18:30.853552
26.8940536,-0.2037258148,0.9884030819,-0.08521863818,2024-06-05 19:18:30.894054
26.93453047,-1.070825458,-0.5671034455,0.7609758377,2024-06-05 19:18:30.934530
26.97501735,-0.3544562757,1.796249151,1.552976608,2024-06-05 19:18:30.975017
27.01551808,-0.2282261699,-0.7728265524,0.5809514523,2024-06-05 19:18:31.015518
27.05597755,1.340329409,-1.158440948,-0.004527240526,2024-06-05 19:18:31.055978
27.0964613,2.049108982,0.3339505494,-0.01118494663,2024-06-05 19:18:31.096461
27.13694391,2.327001572,-0.1223686412,0.6009245515,2024-06-05 19:18:31.136944
27.17742943,2.30463171,0.8035851717,0.7902697325,2024-06-05 19:18:31.177429
27.21790735,2.444976091,2.591179371,-0.7215622067,2024-06-05 19:18:31.217907
27.25836839,1.330209732,1.301448464,0.1419423074,2024-06-05 19:18:31.258368
27.29886073,0.1240996495,0.3989297748,0.5295539498,2024-06-05 19:18:31.298861
27.33935677,-0.06684337556,-1.91715312,0.2071878165,2024-06-05 19:18:31.339357
27.37983526,0.2749632597,-3.076126575,-0.5431357026,2024-06-05 19:18:31.379835
27.42030844,1.325682521,0.07456631213,-0.7508561015,2024-06-05 19:18:31.420308
27.46078641,-1.573881745,1.005446792,0.2603163123,2024-06-05 19:18:31.460786
27.50130724,-1.473483562,1.4428581,0.1909430176,2024-06-05 19:18:31.501307
27.54182,0.1810896099,-0.6266233325,-0.9354077578,2024-06-05 19:18:31.541820
27.5822861,0.03941362351,-1.3556422,-0.7220948339,2024-06-05 19:18:31.582286
27.62270964,-0.7362091541,-2.202369213,-0.4272916019,2024-06-05 19:18:31.622710
27.66319396,-1.175750971,1.648181796,0.02476666868,2024-06-05 19:18:31.663194
27.70367599,-2.254033089,1.902373075,1.238067031,2024-06-05 19:18:31.703676
27.74417865,-1.956699967,1.66629076,0.656050384,2024-06-05 19:18:31.744179
27.78467568,-2.093848705,3.779180527,0.2412752807,2024-06-05 19:18:31.784676
27.82514766,-1.91382432,1.315030217,-0.4115794003,2024-06-05 19:18:31.825148
27.86565089,-0.6981270909,-8.719864845,-1.374150634,2024-06-05 19:18:31.865651
27.90614709,0.1323551983,-2.542577982,-1.018096447,2024-06-05 19:18:31.906147
27.94660938,-1.038868546,6.576216221,0.6579145193,2024-06-05 19:18:31.946609
27.98708417,0.4283568263,2.221143961,0.2263620198,2024-06-05 19:18:31.987084
28.02757,0.7678998709,-1.86149466,-0.278025806,2024-06-05 19:18:32.027570
28.0680436,0.2842840552,-2.26601696,-0.008788172156,2024-06-05 19:18:32.068044
28.10852943,-0.03275591508,-0.1194392517,0.03808208182,2024-06-05 19:18:32.108529
28.14900328,-0.597995162,1.931134343,0.4454005659,2024-06-05 19:18:32.149003
28.18948521,-0.8067808747,2.367613554,0.5468640327,2024-06-05 19:18:32.189485
28.22997276,-0.08655018359,1.056311727,0.2090519816,2024-06-05 19:18:32.229973
28.27044094,0.3452686667,-0.84686023,-0.05352795869,2024-06-05 19:18:32.270441
28.3109362,0.1688394397,-0.4296883643,0.2712349594,2024-06-05 19:18:32.310936
28.35144875,-0.1238333359,0.5722964406,0.1896114796,2024-06-05 19:18:32.351449
28.39194136,-0.2623136342,1.316894293,-0.03169068322,2024-06-05 19:18:32.391941
28.43243604,-0.1941387206,0.4580501914,-0.04021254554,2024-06-05 19:18:32.432436
28.47292459,-0.1659100503,0.487344116,-0.2021279633,2024-06-05 19:18:32.472925
28.51340714,-0.2162422985,0.2492645234,-0.2500634491,2024-06-05 19:18:32.513407
28.55388979,-0.1081211492,0.2226337045,-0.2114487588,2024-06-05 19:18:32.553890
28.59433485,-0.1262301207,0.3611139953,-0.09666989744,2024-06-05 19:18:32.594335
28.63483964,0.1818885356,0.1254311949,-0.1880136281,2024-06-05 19:18:32.634840
28.67530198,0.853251636,-0.04540555924,-0.2985315621,2024-06-05 19:18:32.675302
28.71576141,1.413297892,0.423430115,0.06471290439,2024-06-05 19:18:32.715761
28.7562274,1.268692493,-0.4520582557,0.1624480337,2024-06-05 19:18:32.756227
28.79672021,0.5844134688,-0.6292864084,0.4496614933,2024-06-05 19:18:32.796720
28.83721698,0.3194367588,-0.5292876363,0.4320851564,2024-06-05 19:18:32.837217
28.87770318,0.5465977192,-1.240064383,-0.6904041767,2024-06-05 19:18:32.877703
28.91819646,1.169625878,-1.170957446,-0.6802844405,2024-06-05 19:18:32.918196
28.95864735,1.062836289,-0.1950708032,0.4073184729,2024-06-05 19:18:32.958647
28.99913662,0.2930722237,-3.094501972,0.3391435742,2024-06-05 19:18:32.999137
29.03961901,-1.38427031,-6.880074024,-0.5990604162,2024-06-05 19:18:33.039619
29.08011505,0.4834826291,-3.041240215,-0.7612421513,2024-06-05 19:18:33.080115
29.12058724,-0.1584534049,2.124207735,0.05459319428,2024-06-05 19:18:33.120587
29.16108823,0.692268312,2.417146921,0.08495233208,2024-06-05 19:18:33.161088
29.20159938,0.08095771074,2.418478489,-0.1158440933,2024-06-05 19:18:33.201599
29.24210578,-0.2660419345,0.9457937479,0.597995162,2024-06-05 19:18:33.242106
29.28258834,0.2074541301,-1.160571337,-0.02902759984,2024-06-05 19:18:33.282588
29.32302198,-0.1187734827,-0.7179670334,-0.4222317338,2024-06-05 19:18:33.323022
29.36352011,-0.5314181447,0.4023917615,0.06311506033,2024-06-05 19:18:33.363520
29.40400308,0.07430000603,0.6501916051,0.09906667471,2024-06-05 19:18:33.404003
29.44443521,0.5039883852,-0.22303316,-0.04340824485,2024-06-05 19:18:33.444435
29.48493292,-0.4856131077,-0.4238295853,-0.02503297664,2024-06-05 19:18:33.484933
29.52539651,-0.5388747454,0.9700278044,0.2063889056,2024-06-05 19:18:33.525397
29.56587974,-0.3499290347,1.643654585,0.2386122048,2024-06-05 19:18:33.565880
29.60638297,-0.3768261969,1.42288506,0.4320851564,2024-06-05 19:18:33.606383
29.64682828,-0.2503297627,0.8557815552,0.4621779919,2024-06-05 19:18:33.646828
29.68735985,-0.1451379955,0.743932128,0.3543231487,2024-06-05 19:18:33.687360
29.72782714,-0.1983996481,1.270823002,0.3050560951,2024-06-05 19:18:33.727827
29.76830375,-0.4432700872,1.744851708,0.3279586136,2024-06-05 19:18:33.768304
29.80877459,-0.5838808417,0.3054555655,-0.06178351492,2024-06-05 19:18:33.808775
29.84927146,-0.02370143496,-3.461740971,-0.5772231221,2024-06-05 19:18:33.849271
29.88975078,2.734852552,-4.80286932,-1.190397859,2024-06-05 19:18:33.889751
29.9302487,0.5830819011,-0.1284937263,0.2167749256,2024-06-05 19:18:33.930249
29.97073391,0.4243622124,3.470129728,0.6240934134,2024-06-05 19:18:33.970734
30.01122688,0.018907886,2.143648386,0.5615109801,2024-06-05 19:18:34.011227
30.05172511,0.8153027296,-1.115831614,0.5742937326,2024-06-05 19:18:34.051725
30.09215584,0.984541595,-3.007818699,0.1153114736,2024-06-05 19:18:34.092156
30.1326336,0.2541912198,-1.258705974,-0.03035914153,2024-06-05 19:18:34.132634
30.17311589,0.2991973162,0.3608476818,-0.04314193875,2024-06-05 19:18:34.173116
30.21359808,0.354855746,-0.8199630976,0.213312909,2024-06-05 19:18:34.213598
30.25408703,0.3782908916,-2.002638102,-0.03035914153,2024-06-05 19:18:34.254087
30.2945888,0.1957365721,-0.6348788738,-0.07509893179,2024-06-05 19:18:34.294589
30.33507,0.2229000032,-0.7991910577,-0.1840189993,2024-06-05 19:18:34.335070
30.37552526,0.7639052272,-1.436866164,-0.4856131077,2024-06-05 19:18:34.375525
30.41601896,0.9118394852,-0.8955946565,-0.4488625526,2024-06-05 19:18:34.416019
30.45652011,0.9962592125,-0.5716306567,-0.3793561161,2024-06-05 19:18:34.456520
30.49698875,1.400248766,-0.5497934222,-0.1850842386,2024-06-05 19:18:34.496989
30.5374686,1.532470822,0.65871346,0.07909355313,2024-06-05 19:18:34.537469
30.57796209,1.469089508,0.5986609459,-0.6829475164,2024-06-05 19:18:34.577962
30.61842682,-0.05539211631,1.023289442,-0.9306141734,2024-06-05 19:18:34.618427
30.65890005,-1.837660074,0.9457937479,-0.4991948307,2024-06-05 19:18:34.658900
30.69938782,-2.412486553,0.7268883586,0.1661763489,2024-06-05 19:18:34.699388
30.7398837,-0.5660381913,0.6552514434,-0.1669752747,2024-06-05 19:18:34.739884
30.78036193,0.05166380107,0.07323476672,-0.5788210034,2024-06-05 19:18:34.780362
30.82083584,0.2109161317,0.02995967865,-0.1083874628,2024-06-05 19:18:34.820836
30.86132177,2.374138117,2.029402018,0.6403381824,2024-06-05 19:18:34.861322
30.90185203,1.787061572,0.2247641683,-1.290529847,2024-06-05 19:18:34.901852
30.94232662,-0.08069140464,-1.279744267,-2.433791161,2024-06-05 19:18:34.942327
30.98277677,-1.505174279,4.005276203,-0.5234288573,2024-06-05 19:18:34.982777
31.02325297,0.0713706091,-1.17495203,-1.205044866,2024-06-05 19:18:35.023253
31.06369839,-0.5476629138,-0.9600412846,-1.096657395,2024-06-05 19:18:35.063698
31.10419995,-0.6507242322,0.01238333434,-0.4073184729,2024-06-05 19:18:35.104200
31.14469219,-0.7018554211,-1.299451113,-0.09480573982,2024-06-05 19:18:35.144692
31.18518078,0.8017209768,-2.527132273,-0.05485950038,2024-06-05 19:18:35.185181
31.22566865,1.030879259,-0.8508548737,0.1267627329,2024-06-05 19:18:35.225669
31.26615959,0.3138442934,0.5288882256,-0.2221010923,2024-06-05 19:18:35.266160
31.30663511,0.3708342612,-0.151928857,0.01198387146,2024-06-05 19:18:35.306635
31.34710521,0.5098471642,-0.4358134568,0.4254274368,2024-06-05 19:18:35.347105
31.38758417,1.045526266,-1.440860868,0.9906666875,2024-06-05 19:18:35.387584
31.42805136,-1.084140897,-1.160571337,1.986792803,2024-06-05 19:18:35.428051
31.46855052,-1.283605814,1.619420528,-0.1744319052,2024-06-05 19:18:35.468551
31.50904709,-3.106885195,1.627942324,0.9256874919,2024-06-05 19:18:35.509047
31.54952485,-3.211011887,5.357589722,2.703694582,2024-06-05 19:18:35.549525
31.59002,1.074820161,1.771216154,0.2728328109,2024-06-05 19:18:35.590020
31.63046032,2.438318491,4.072918415,-2.114088058,2024-06-05 19:18:35.630460
31.67097,0.0868164897,2.090120316,-0.8523195982,2024-06-05 19:18:35.670970
31.71149219,0.9192960858,-1.405974388,-0.06204982474,2024-06-05 19:18:35.711492
31.75194761,5.337483406,-3.390636683,0.1976007223,2024-06-05 19:18:35.751948
31.79238032,0.4914718866,-2.130732298,0.4238295853,2024-06-05 19:18:35.792380
31.83288505,0.5370106101,-2.72206974,-0.8792167306,2024-06-05 19:18:35.832885
31.87339448,0.06497921795,1.137269378,0.9717588425,2024-06-05 19:18:35.873394
31.91387677,1.679473042,-1.490660429,-1.195191503,2024-06-05 19:18:35.913877
31.95434584,-1.114500046,2.879058599,-2.037391424,2024-06-05 19:18:35.954346
31.99491558,1.23433876,4.177577496,-0.429155767,2024-06-05 19:18:35.994916
32.03531229,-0.4637758136,5.845599174,1.277480721,2024-06-05 19:18:36.035312
32.0758188,0.6254249215,-0.5085155964,3.238441467,2024-06-05 19:18:36.075819
32.11628823,-1.706636429,-0.02862813696,2.610087156,2024-06-05 19:18:36.116288
32.15675229,-1.063368917,1.679339886,-1.163500786,2024-06-05 19:18:36.156752
32.19727125,-1.445521235,-0.7781527042,-1.852307081,2024-06-05 19:18:36.197271
32.23772938,-1.004781008,-0.04007939249,-0.4637758136,2024-06-05 19:18:36.237729
32.27822313,-0.9026518464,-1.838858485,0.09587097168,2024-06-05 19:18:36.278223
32.31867308,-1.108374953,-2.074275017,0.05485950038,2024-06-05 19:18:36.318673
32.35917578,-1.2833395,-2.296642303,0.3300890923,2024-06-05 19:18:36.359176
32.39965802,-0.802786231,-2.747369051,0.4805532396,2024-06-05 19:18:36.399658
32.44011688,-0.7085131407,-2.461087704,0.7391385436,2024-06-05 19:18:36.440117
32.48061386,-1.009840965,-1.946713328,0.6469959021,2024-06-05 19:18:36.480614
32.52110755,-0.8981245756,-2.778793573,0.230090335,2024-06-05 19:18:36.521108
32.56166917,-0.2804225981,-3.668529272,-0.186149478,2024-06-05 19:18:36.561669
32.60207021,0.2715012729,-2.292115211,-0.2657756507,2024-06-05 19:18:36.602070
32.64252401,0.9070459008,-0.813039124,-0.233286038,2024-06-05 19:18:36.642524
32.68299292,1.567623496,0.2500634491,-0.1733666807,2024-06-05 19:18:36.682993
32.72349229,1.585466146,-1.067363501,-0.6595124006,2024-06-05 19:18:36.723492
32.76405547,1.861361504,-0.2928059399,-0.06577813625,2024-06-05 19:18:36.764055
32.80445818,1.545253634,2.134593725,0.6238270998,2024-06-05 19:18:36.804458
32.84496787,0.5415378213,-1.632869124,0.6248922944,2024-06-05 19:18:36.844968
32.8855088,0.2989310026,-0.767234087,0.9682968259,2024-06-05 19:18:36.885509
32.92599198,-0.3765598834,0.1182408631,1.296921253,2024-06-05 19:18:36.925992
32.96639568,-0.1653774232,-0.5426030755,0.8916000128,2024-06-05 19:18:36.966396
33.00688891,0.3796224296,-1.476279855,0.4166392684,2024-06-05 19:18:37.006889
33.04737964,0.5641740561,-1.543922067,0.071104303,2024-06-05 19:18:37.047380
33.08785037,0.9054480791,-2.080666304,0.14993155,2024-06-05 19:18:37.087850
33.12835448,2.124074697,-0.5354127288,0.4541887343,2024-06-05 19:18:37.128354
33.16883766,1.737794518,1.002783775,0.6387403607,2024-06-05 19:18:37.168838
33.20930656,2.116351604,-1.734598875,0.416905582,2024-06-05 19:18:37.209307
33.24980396,0.1651111245,-1.60650456,-0.07802832127,2024-06-05 19:18:37.249804
33.29027203,-4.085567951,0.8792167306,0.2989310026,2024-06-05 19:18:37.290272
33.33073391,-3.987433434,4.552938938,0.3260944486,2024-06-05 19:18:37.330734
33.37124209,-0.4888088107,1.911161184,-0.753785491,2024-06-05 19:18:37.371242
33.41172401,0.1264964193,1.247254729,-0.4134435654,2024-06-05 19:18:37.411724
33.45224552,-1.493456721,2.658022642,0.1038602218,2024-06-05 19:18:37.452246
33.49265203,-2.198241472,3.141771555,0.392937839,2024-06-05 19:18:37.492652
33.53313406,1.630205989,6.26516819,1.703973413,2024-06-05 19:18:37.533134
33.57362625,0.3527252972,2.661218405,0.4584496617,2024-06-05 19:18:37.573626
33.61412547,0.5857450366,3.701152086,0.07456631213,2024-06-05 19:18:37.614125
33.65460823,0.8521864414,2.611152411,0.6235607862,2024-06-05 19:18:37.654608
33.69510047,1.878405333,-3.611938953,1.457505107,2024-06-05 19:18:37.695100
33.73558282,0.3591166735,7.088726521,1.443657041,2024-06-05 19:18:37.735583
33.77607547,-2.660419464,-2.05004096,-0.1528609395,2024-06-05 19:18:37.776075
33.8165524,-1.35976994,-6.359574318,-1.454841971,2024-06-05 19:18:37.816552
33.8570499,-1.739658713,-5.590609074,-2.151104927,2024-06-05 19:18:37.857050
33.89753933,-0.7641715407,-2.169879675,-0.2117150575,2024-06-05 19:18:37.897539
33.93800104,-1.883198857,-0.1956034154,0.04979964346,2024-06-05 19:18:37.938001
33.97850282,-0.7908023596,0.1203713343,0.4978632927,2024-06-05 19:18:37.978503
34.01897818,-0.08335448056,-0.0467370972,0.4262263775,2024-06-05 19:18:38.018978
34.05943917,1.719152927,1.975607753,-0.9681636691,2024-06-05 19:18:38.059439
34.0999312,2.442579269,2.4214077,-2.419676781,2024-06-05 19:18:38.099931
34.14041375,1.973477364,2.792774677,-2.159893036,2024-06-05 19:18:38.140414
34.18089438,0.2834851444,0.8174331784,-0.9207608104,2024-06-05 19:18:38.180894
34.22137729,1.541525364,0.8102428913,-0.4722976983,2024-06-05 19:18:38.221377
34.26186162,5.067047119,-0.1561897993,0.5852124095,2024-06-05 19:18:38.261862
34.30233276,3.692630291,-1.935528398,-1.335802197,2024-06-05 19:18:38.302333
34.34280604,-1.379210472,2.890776157,-2.499302864,2024-06-05 19:18:38.342806
34.38325552,-3.11327672,4.391290188,-2.493710518,2024-06-05 19:18:38.383256
34.42377005,-2.105832577,2.298373461,-1.236469269,2024-06-05 19:18:38.423770
34.4642538,-1.181077123,0.1600512564,-0.6451317668,2024-06-05 19:18:38.464254
34.50475089,-0.7340787053,-2.096378565,-0.53328228,2024-06-05 19:18:38.504751
34.54523907,-1.637396336,-3.934038639,0.03435376659,2024-06-05 19:18:38.545239
34.58571938,-3.171331882,-3.417800188,1.50184536,2024-06-05 19:18:38.585719
34.62617922,-4.092492104,-1.265630007,1.347786069,2024-06-05 19:18:38.626179
34.6666613,-3.74083209,3.724587202,1.134473205,2024-06-05 19:18:38.666661
34.70716235,-2.791176796,0.9109073877,-0.8943963051,2024-06-05 19:18:38.707162
34.74764334,-0.5002600551,-8.68524456,-2.483590841,2024-06-05 19:18:38.747643
34.78810839,1.320090055,-6.318030357,-2.093049765,2024-06-05 19:18:38.788108
34.82860313,-1.489195824,9.905335426,1.09106493,2024-06-05 19:18:38.828603
34.86912375,1.139799356,1.266029477,1.376547337,2024-06-05 19:18:38.869124
34.90957985,0.2557890713,-0.9986559749,0.6659038067,2024-06-05 19:18:38.909580
34.95005412,-0.5117112994,-1.367093444,0.3202356696,2024-06-05 19:18:38.950054
34.99054818,0.09826774895,-1.0109061,0.007190322969,2024-06-05 19:18:38.990548
35.03101568,0.8304823041,-0.2086525112,-0.322499305,2024-06-05 19:18:39.031016
35.07152656,0.3114475012,1.227015257,0.1352845877,2024-06-05 19:18:39.071527
35.11199599,-0.139012903,0.7796174288,0.3519263566,2024-06-05 19:18:39.111996
35.15246302,-0.1661763489,-0.4829500318,-0.2205032408,2024-06-05 19:18:39.152463
35.19294599,-0.1262301207,-1.727142215,-0.5007926822,2024-06-05 19:18:39.192946
35.23342896,-0.1496652365,-1.645651817,-1.023688912,2024-06-05 19:18:39.233429
35.27391198,1.884530425,-1.51303041,-0.49839589,2024-06-05 19:18:39.273912
35.31440688,-0.1547250897,-1.857500076,0.2399437428,2024-06-05 19:18:39.314407
35.35488922,1.595585942,-2.059894323,-0.3549889028,2024-06-05 19:18:39.354889
35.39531479,3.153489113,-1.587064028,-0.8161016703,2024-06-05 19:18:39.395315
35.43584469,4.32098484,0.1877473146,-1.710098505,2024-06-05 19:18:39.435845
35.47630802,2.874664545,0.8339443207,-1.48892951,2024-06-05 19:18:39.476308
35.51682505,1.435135245,0.8584446907,0.5457987785,2024-06-05 19:18:39.516825
35.5573,0.5343475342,0.5616441369,0.8599093556,2024-06-05 19:18:39.557300
35.59776782,0.1318225861,-0.06404713541,0.4459331632,2024-06-05 19:18:39.597768
35.63821771,-0.5002600551,-0.8756215572,0.3564535975,2024-06-05 19:18:39.638218
35.67873151,-0.6352783442,-1.304510951,0.2608489394,2024-06-05 19:18:39.678732
35.71922151,0.2162422985,-2.168548107,0.2541912198,2024-06-05 19:18:39.719222
35.75971453,-0.1174419373,-0.6591129303,0.24234052,2024-06-05 19:18:39.759715
35.80022318,0.2832188308,0.5480623841,0.2933385372,2024-06-05 19:18:39.800223
35.84067776,-0.1038602218,0.3376788795,0.1451379955,2024-06-05 19:18:39.840678
35.88117459,0.3396761715,0.9990554452,-0.3464670479,2024-06-05 19:18:39.881175
35.92167479,0.1299584359,-0.7922670841,-0.1398118287,2024-06-05 19:18:39.921675
35.96212641,1.87893784,-0.822093606,-0.8070471883,2024-06-05 19:18:39.962126
36.00257672,0.1914756298,1.181476593,0.3079854846,2024-06-05 19:18:40.002577
36.04305959,-0.3014609516,3.071066856,0.3647091687,2024-06-05 19:18:40.043060
36.08350589,-0.4414059222,2.805024862,0.164844811,2024-06-05 19:18:40.083506
36.12398875,-0.2316881865,1.494255662,0.05858781561,2024-06-05 19:18:40.123989
36.16446979,0.2058562785,0.3099828064,-0.2972000241,2024-06-05 19:18:40.164470
36.2050086,0.5335485935,-0.06005251035,-0.8967930675,2024-06-05 19:18:40.205009
36.24549729,-0.02636451647,0.4444684684,-0.8640371561,2024-06-05 19:18:40.245497
36.2859761,-0.2263620198,0.4665720761,-1.005846262,2024-06-05 19:18:40.285976
36.32644938,-0.9561797976,2.296509266,-0.6448654532,2024-06-05 19:18:40.326449
36.36695979,-0.9172987938,1.773080349,-0.3966661394,2024-06-05 19:18:40.366960
36.4073825,-0.09320788831,0.8315475583,-0.6888062954,2024-06-05 19:18:40.407382
36.44788094,-0.1651111245,0.1832200736,-0.4451342523,2024-06-05 19:18:40.447881
36.48843828,-0.4688356817,-1.012237668,-0.3382114768,2024-06-05 19:18:40.488438
36.52886646,-1.147788525,-1.791056156,-0.1320888996,2024-06-05 19:18:40.528866
36.56933146,-1.450048447,-1.765224218,-0.4115794003,2024-06-05 19:18:40.569331
36.60985318,-1.14752233,-1.222488046,-0.6291532516,2024-06-05 19:18:40.609853
36.65030808,-1.178147674,0.03808208182,-0.07536523789,2024-06-05 19:18:40.650308
36.69078625,-1.379210472,0.2106498331,0.6150389314,2024-06-05 19:18:40.690786
36.73126063,-2.382127285,-0.8860075474,1.099586844,2024-06-05 19:18:40.731261
36.77178532,-2.873865604,-0.07922670245,1.141929746,2024-06-05 19:18:40.771785
36.8122275,-2.405029774,0.3797555864,1.400515079,2024-06-05 19:18:40.812227
36.85269063,-1.137402534,2.013157368,0.7977263927,2024-06-05 19:18:40.852691
36.89317235,-2.507824898,6.335473537,0.7742912769,2024-06-05 19:18:40.893172
36.93365396,0.2685718834,-4.781298637,-0.9050486088,2024-06-05 19:18:40.933654
36.97415479,-0.6675016284,2.184393406,0.009587096982,2024-06-05 19:18:40.974155
37.01467558,-0.3571193814,-0.2323539555,-0.1472684592,2024-06-05 19:18:41.014676
37.05515839,-0.3504616618,-0.09147688746,-0.5013253093,2024-06-05 19:18:41.055158
37.09563172,0.1746982187,-0.7579132915,-0.7588453889,2024-06-05 19:18:41.095632
37.13609526,1.05990684,-0.9520519972,0.006924014539,2024-06-05 19:18:41.136095
37.1765838,2.264951706,-1.037536979,0.6414034367,2024-06-05 19:18:41.176584
37.2170813,2.661484718,-1.095592141,0.4536561072,2024-06-05 19:18:41.217081
37.25756953,2.291316271,0.01557903271,-0.3860138059,2024-06-05 19:18:41.257570
37.2980525,2.741510391,1.817553878,-0.2221010923,2024-06-05 19:18:41.298052
37.33853167,2.908485651,0.6957303286,-0.1933397949,2024-06-05 19:18:41.338532
37.37902282,1.25804019,0.3259612918,0.412378341,2024-06-05 19:18:41.379023
37.41948698,0.5218310356,0.4045222402,1.552443981,2024-06-05 19:18:41.419487
37.45996026,0.5007926822,-1.15045166,0.9954602718,2024-06-05 19:18:41.459960
37.50048021,0.02583190054,-1.811162472,-0.006657706574,2024-06-05 19:18:41.500480
37.54093287,-0.9588428736,-2.261223316,-0.4171718955,2024-06-05 19:18:41.540933
37.58143782,-0.5322170258,-2.127004147,-0.2034595013,2024-06-05 19:18:41.581438
37.6219163,0.7428668737,-1.909163833,-0.3155752718,2024-06-05 19:18:41.621916
37.66235933,0.2856155932,-0.7464620471,-0.2348838747,2024-06-05 19:18:41.662359
37.7028099,-1.498782873,0.3038577139,0.7364754677,2024-06-05 19:18:41.702810
37.74329266,-1.64884758,1.811961412,0.4515256584,2024-06-05 19:18:41.743293
37.78377542,-0.04447348043,3.154288054,-0.09587097168,2024-06-05 19:18:41.783775
37.82429089,-0.03861469775,0.6967955232,-0.3366136253,2024-06-05 19:18:41.824291
37.86483245,-0.2894770801,-2.640845776,-0.9157009125,2024-06-05 19:18:41.864832
37.90533682,-1.698647261,-2.465082407,0.05805519968,2024-06-05 19:18:41.905337
37.94578032,-2.468411207,2.946434498,0.759378016,2024-06-05 19:18:41.945780
37.9862774,-0.5295539498,2.99410367,0.539673686,2024-06-05 19:18:41.986277
38.02673276,-0.05912043154,2.163088799,0.5170374513,2024-06-05 19:18:42.026733
38.06718386,1.588129282,2.163621426,0.3125127256,2024-06-05 19:18:42.067184
38.10768875,1.279877424,0.9135704637,0.917165637,2024-06-05 19:18:42.107689
38.14818532,-0.001065233024,-0.3782908916,1.200251341,2024-06-05 19:18:42.148185
38.18866969,1.215963483,1.713427305,-1.423950195,2024-06-05 19:18:42.188670
38.22913193,0.3609808385,-1.959762454,-1.072955966,2024-06-05 19:18:42.229132
38.2696149,-0.2207695395,-0.1545919478,0.2394111156,2024-06-05 19:18:42.269615
38.31010568,-0.2298240215,0.294803232,-0.6214303374,2024-06-05 19:18:42.310106
38.35057375,-0.294803232,0.5896064639,-0.625158608,2024-06-05 19:18:42.350574
38.39104854,-1.109706521,0.8081123829,-0.0822892487,2024-06-05 19:18:42.391049
38.43151964,-1.280942678,0.6962629557,0.6975944638,2024-06-05 19:18:42.431520
38.47200313,-0.9927971959,0.8741568327,0.1001319066,2024-06-05 19:18:42.472003
38.51248834,-0.8605751395,-0.1138467789,-0.4403406978,2024-06-05 19:18:42.512488
38.55297021,-1.245790005,-1.806102633,-0.5708317757,2024-06-05 19:18:42.552970
38.59345209,-0.8973256946,-0.5764242411,-0.327026546,2024-06-05 19:18:42.593452
38.63396646,-0.3770924807,0.1440727711,-0.2197043151,2024-06-05 19:18:42.633966
38.67446844,-0.27536273,0.008388710208,0.0868164897,2024-06-05 19:18:42.674468
38.71491141,-0.3878779709,-0.3159747422,-0.1736329794,2024-06-05 19:18:42.714911
38.75543589,-0.6232944727,-0.9653674364,-0.493868649,2024-06-05 19:18:42.755436
38.79589969,-0.01731003635,-1.958164573,-0.4896077216,2024-06-05 19:18:42.795900
38.83639438,1.091863871,-4.530968666,0.2356828004,2024-06-05 19:18:42.836394
38.8769061,0.8137048483,-3.853347301,-0.1933397949,2024-06-05 19:18:42.876906
38.91735219,0.1347519755,-0.07017222792,-0.5615109801,2024-06-05 19:18:42.917352
38.95782823,1.646450758,1.262833714,-0.6874747872,2024-06-05 19:18:42.957828
38.99835177,2.654560804,1.672149539,-0.2774932086,2024-06-05 19:18:42.998352
39.03878084,1.857899547,1.25138247,-0.1794917583,2024-06-05 19:18:43.038781
39.07927709,0.2912080884,-0.3340837061,-0.2985315621,2024-06-05 19:18:43.079277
39.11975052,-0.145404309,-1.042863131,0.1174419373,2024-06-05 19:18:43.119751
39.1602336,0.157654494,-1.114500046,0.02529928461,2024-06-05 19:18:43.160234
39.20072354,1.100918293,-1.213699818,-0.3376788795,2024-06-05 19:18:43.200724
39.24117224,1.779338598,0.1342193633,-0.7071815729,2024-06-05 19:18:43.241172
39.28172735,-0.3822855055,0.2551233172,0.03115806542,2024-06-05 19:18:43.281727
39.3221588,-1.057776451,0.2274272442,0.4616453648,2024-06-05 19:18:43.322159
39.36261682,-0.2849498391,-0.6591129303,0.1531272531,2024-06-05 19:18:43.362617
39.40309849,0.1552577168,-0.4693683088,0.02316881903,2024-06-05 19:18:43.403098
39.44357979,0.09240896255,-0.6982602477,0.1808233112,2024-06-05 19:18:43.443580
39.48406136,-0.6320826411,-1.661364079,0.1856168509,2024-06-05 19:18:43.484061
39.52458849,-0.9756202698,0.8717600703,0.6504579186,2024-06-05 19:18:43.524588
39.56505604,-1.052716494,2.659087896,0.8030525446,2024-06-05 19:18:43.565056
39.60556235,-0.8627055883,2.619407892,0.6344794035,2024-06-05 19:18:43.605562
39.64601485,0.6698983908,-1.848978162,-0.4699009061,2024-06-05 19:18:43.646015
39.68650313,1.920215726,-4.325911522,-1.301714778,2024-06-05 19:18:43.686503
39.72698969,0.7545844316,-0.4334166944,-0.5276898146,2024-06-05 19:18:43.726990
39.76744834,-0.5492607951,1.599979997,1.278812289,2024-06-05 19:18:43.767448
39.80794688,0.7468615174,3.477319956,1.134206891,2024-06-05 19:18:43.807947
39.84844735,0.02103835158,0.2484655976,0.2786915898,2024-06-05 19:18:43.848447
39.88891995,-0.4451342523,-2.103036404,-0.07323476672,2024-06-05 19:18:43.888920
39.92939782,0.4041227698,-0.7786853313,-0.4469984174,2024-06-05 19:18:43.929398
39.96989537,0.3316869438,-0.3505948186,-0.2364817262,2024-06-05 19:18:43.969895
40.01036297,0.03648423031,0.4825505614,-0.2023942769,2024-06-05 19:18:44.010363
40.05082813,0.1715025157,0.4766917825,-0.223698929,2024-06-05 19:18:44.050828
40.09131365,0.5876091719,0.2769605815,-0.2790910602,2024-06-05 19:18:44.091314
40.13185073,0.750323534,0.4729634523,-0.0817566365,2024-06-05 19:18:44.131851
40.17228422,0.6983934045,0.5794867873,-0.03222329915,2024-06-05 19:18:44.172284
40.21276646,0.4230306745,-0.6963961124,-0.1925408691,2024-06-05 19:18:44.212766
40.25323568,1.755903482,-0.7901365757,-0.2548570037,2024-06-05 19:18:44.253236
40.29371787,3.989697218,-0.9768186808,-0.7007901669,2024-06-05 19:18:44.293718
40.33422448,2.887979984,0.1786928326,0.3170399666,2024-06-05 19:18:44.334224
40.37468214,0.8998556137,0.1536598653,0.667767942,2024-06-05 19:18:44.374682
40.41518125,1.007710457,-0.2496639937,-0.2836183012,2024-06-05 19:18:44.415181
40.45568813,0.08015878499,-0.3631113172,-0.3480648994,2024-06-05 19:18:44.455688
40.49615099,-1.221289635,-0.3604482114,-0.2519276142,2024-06-05 19:18:44.496151
40.53663724,-1.851241827,-0.5818835497,-0.609446466,2024-06-05 19:18:44.536637
40.57711318,-3.082651138,0.1493989378,-0.7817478776,2024-06-05 19:18:44.577113
40.61763677,-3.047232151,0.1086537689,0.8203625679,2024-06-05 19:18:44.617637
40.6581186,-1.974542618,-0.3069202602,0.8094439507,2024-06-05 19:18:44.658119
40.69861162,-1.960694551,-0.6665695906,0.2175738513,2024-06-05 19:18:44.698612
40.73904365,-1.130744815,-0.1511299312,-0.0117175635,2024-06-05 19:18:44.739044
40.77955026,1.266828418,2.520075083,-0.704518497,2024-06-05 19:18:44.779550
40.82001084,-1.697049379,0.3443365693,0.4209001958,2024-06-05 19:18:44.820011
40.86049953,-1.398118377,-0.8511211872,1.215963483,2024-06-05 19:18:44.860500
40.90095167,-0.5465977192,1.435401559,0.7335460782,2024-06-05 19:18:44.900952
40.94146302,-0.9335435629,1.376547337,0.08282186836,2024-06-05 19:18:44.941463
40.98193938,-1.7668221,1.993450403,0.1501978636,2024-06-05 19:18:44.981939
41.02245886,-1.155777812,1.348052382,-0.2114487588,2024-06-05 19:18:45.022459
41.06288604,-0.5308855176,0.1629806459,-0.2617810071,2024-06-05 19:18:45.062886
41.10336797,-0.5830819011,-0.6351451874,-0.4081174135,2024-06-05 19:18:45.103368
41.14383573,-0.6901378632,0.1102516204,-0.2647103965,2024-06-05 19:18:45.143836
41.18433516,-0.7007901669,0.5123770833,-0.1936061084,2024-06-05 19:18:45.184335
41.22484412,-0.7527202964,0.06258244067,-0.3676385581,2024-06-05 19:18:45.224844
41.26531255,-0.4936023653,-0.4259600639,-0.3560541272,2024-06-05 19:18:45.265313
41.30579979,-0.1027949899,-1.16003871,-0.4488625526,2024-06-05 19:18:45.305800
41.34628334,0.4637758136,-1.410768032,0.2167749256,2024-06-05 19:18:45.346283
41.38676844,1.171756268,-1.052716494,0.2077204436,2024-06-05 19:18:45.386768
41.4272449,1.756169796,-0.339409858,0.2467346042,2024-06-05 19:18:45.427245
41.46773459,2.173341751,-1.186802745,0.3532578945,2024-06-05 19:18:45.467735
41.50823766,2.481194019,-2.943904638,0.157654494,2024-06-05 19:18:45.508238
41.54868474,2.12274313,-2.92765975,-0.4438027143,2024-06-05 19:18:45.548685
41.58917427,2.170412302,-0.8782846332,-0.845395565,2024-06-05 19:18:45.589174
41.62965933,2.246842861,1.040333152,-0.06950645149,2024-06-05 19:18:45.629659
41.67014313,1.921280861,0.07270215452,0.1914756298,2024-06-05 19:18:45.670143
41.71062427,0.8692301512,-1.243260145,0.1027949899,2024-06-05 19:18:45.710624
41.7511086,0.7114425302,-0.7038527131,0.2354165018,2024-06-05 19:18:45.751109
41.79161151,0.6419360638,-1.48187232,-0.04500609636,2024-06-05 19:18:45.791612
41.83210146,0.7620410919,-1.560166955,-0.4299546778,2024-06-05 19:18:45.832101
41.87257177,0.1962691844,-0.904915452,-0.2617810071,2024-06-05 19:18:45.872572
41.91303026,-0.4126446545,-0.1782933772,-0.03861469775,2024-06-05 19:18:45.913030
41.9534962,-0.4499278069,-0.4398080707,0.2853493094,2024-06-05 19:18:45.953496
41.99394563,-0.5021241903,1.435934067,0.5372769237,2024-06-05 19:18:45.993946
42.03442792,-0.7849435806,2.404097795,0.2557890713,2024-06-05 19:18:46.034428
42.07493828,-0.6733604074,0.2828193605,0.1438064575,2024-06-05 19:18:46.074938
42.11545985,-0.2418078929,0.1568555683,0.1909430176,2024-06-05 19:18:46.115460
42.15595479,-0.1328878254,-0.1572550237,-0.354189992,2024-06-05 19:18:46.155955
42.19642459,0.1432738453,-0.3106485903,-0.6786866188,2024-06-05 19:18:46.196425
42.23691693,-0.7892045379,1.846048832,0.0410114713,2024-06-05 19:18:46.236917
42.27738532,-0.7149044871,0.222367391,0.6581808329,2024-06-05 19:18:46.277385
42.31786438,-0.1193061024,0.02197043039,0.1270290315,2024-06-05 19:18:46.317864
42.3583512,-0.3961335421,1.122888803,-0.0822892487,2024-06-05 19:18:46.358351
42.39883401,-0.5189016461,0.4058537781,0.06444659829,2024-06-05 19:18:46.398834
42.4392999,-0.1456706226,-0.0954715088,-0.05539211631,2024-06-05 19:18:46.439300
42.47982922,-0.01864157803,-0.0352858454,-0.1110505462,2024-06-05 19:18:46.479829
42.52030552,-0.1496652365,0.8142374754,0.06444659829,2024-06-05 19:18:46.520306
42.56076474,-0.1486000121,0.427957356,0.02902759984,2024-06-05 19:18:46.560765
42.6012349,0.1715025157,-0.001198387123,-0.108920075,2024-06-05 19:18:46.601235
42.64171292,0.2122476846,0.1664426625,-0.2612484097,2024-06-05 19:18:46.641713
42.68223922,0.104392834,0.9058475494,-0.1949376464,2024-06-05 19:18:46.682239
42.7226962,0.4331503808,0.9500547051,-0.2143781483,2024-06-05 19:18:46.722696
42.76315104,0.386546433,1.842054248,0.05832150951,2024-06-05 19:18:46.763151
42.80363365,0.4651073813,0.9841421843,0.0410114713,2024-06-05 19:18:46.803634
42.84411625,0.8585777879,0.3376788795,-0.2050573528,2024-06-05 19:18:46.844116
42.88457823,0.8415340781,-0.6207645535,-0.527423501,2024-06-05 19:18:46.884578
42.92509151,0.6589797735,-0.2459356785,-0.6856105924,2024-06-05 19:18:46.925092
42.96558375,-0.009320789017,1.470820546,-0.6762897968,2024-06-05 19:18:46.965584
43.00605308,-0.3030588031,2.221410275,-0.3857475221,2024-06-05 19:18:47.006053
43.0465461,0.2960016131,2.216084242,-0.3703016341,2024-06-05 19:18:47.046546
43.08704401,-0.6912030578,2.64976716,0.0149132628,2024-06-05 19:18:47.087044
43.1275412,-1.028748751,2.865210533,0.2247641683,2024-06-05 19:18:47.127541
43.16801245,-0.5415378213,1.179612398,-0.4107804894,2024-06-05 19:18:47.168012
43.20847688,-0.6430012584,0.08149032295,-0.3214340508,2024-06-05 19:18:47.208477
43.24894261,-0.3443365693,-0.004127778113,-0.3163742125,2024-06-05 19:18:47.248943
43.28945125,-0.2330197245,-1.786795259,-0.7370080948,2024-06-05 19:18:47.289451
43.32994854,-1.117695808,-1.174685717,-0.4352808297,2024-06-05 19:18:47.329949
43.37040844,-1.937525749,-0.9166330099,-0.3009283245,2024-06-05 19:18:47.370408
43.4108911,-1.975341439,-1.636597395,-0.3432713449,2024-06-05 19:18:47.410891
43.4513611,-1.819817424,-2.03885603,-0.07403369248,2024-06-05 19:18:47.451361
43.49185026,-0.9873378873,-1.388398051,0.4363460839,2024-06-05 19:18:47.491850
43.53238724,-0.4525908828,0.1901440918,0.6797518134,2024-06-05 19:18:47.532387
43.57281667,-1.143793941,1.554707646,0.4805532396,2024-06-05 19:18:47.572817
43.61329932,-1.420754552,0.7833457589,0.5567173958,2024-06-05 19:18:47.613299
43.65378198,-1.487331629,1.349916577,0.225563094,2024-06-05 19:18:47.653782
43.69426464,-1.018629074,2.707556009,0.3801550269,2024-06-05 19:18:47.694265
43.73475261,-0.7010564804,1.587463498,-0.4102478623,2024-06-05 19:18:47.734753
43.77523292,-0.8288844228,-1.003449559,0.3247629106,2024-06-05 19:18:47.775233
43.81572729,0.177094996,-0.5906717181,0.7242252827,2024-06-05 19:18:47.815727
43.85618354,0.3487306535,1.079480529,0.4302209914,2024-06-05 19:18:47.856184
43.89665693,0.0005326165119,1.166030645,-0.4749607742,2024-06-05 19:18:47.896657
43.93718058,-0.4009270668,0.9756202698,-0.484814167,2024-06-05 19:18:47.937181
43.97765406,-0.03541899845,0.3113143444,-0.04793548584,2024-06-05 19:18:47.977654
44.01815386,0.03248960897,0.03861469775,0.4134435654,2024-06-05 19:18:48.018154
44.05860209,0.1488663107,-0.2968005538,0.07003907114,2024-06-05 19:18:48.058602
44.099105,-0.5071840882,0.556584239,0.1355509013,2024-06-05 19:18:48.099105
44.13956,-0.6608439088,1.090931773,0.112115778,2024-06-05 19:18:48.139560
44.18005672,-0.4296883643,0.2151770741,-0.1054580659,2024-06-05 19:18:48.180057
44.22060594,0.9248885512,-1.302913189,-0.1451379955,2024-06-05 19:18:48.220606
44.26103005,0.5452661514,-0.8828118443,-0.1669752747,2024-06-05 19:18:48.261030
44.30151667,0.1501978636,0.2183727771,0.2440715134,2024-06-05 19:18:48.301517
44.34199698,0.9429975152,1.33526957,0.07163692266,2024-06-05 19:18:48.341997
44.38251682,0.2600499988,1.905568719,0.1446053833,2024-06-05 19:18:48.382517
44.42300058,-0.1611164957,0.796394825,0.1789591461,2024-06-05 19:18:48.423001
44.46338964,-0.1459369212,-0.9557803273,-0.04979964346,2024-06-05 19:18:48.463390
44.50387308,-0.579886198,-1.912625909,-0.01091863867,2024-06-05 19:18:48.503873
44.5443724,-0.8051829934,-1.919017315,0.06710968167,2024-06-05 19:18:48.544372
44.58489386,0.1784265339,0.5912043452,0.003994623665,2024-06-05 19:18:48.584894
44.62535839,-0.2026605755,1.370155931,0.277892679,2024-06-05 19:18:48.625358
44.66582672,-0.6973281503,-0.5663045049,0.169372052,2024-06-05 19:18:48.665827
44.70633396,0.1541924775,-2.333925486,0.06231613085,2024-06-05 19:18:48.706334
44.74680177,1.071358085,-1.304244637,-0.1091863886,2024-06-05 19:18:48.746802
44.78729688,1.297187567,0.1350182891,-0.5258256793,2024-06-05 19:18:48.787297
44.82779282,1.892519593,0.9258206487,-0.3892095089,2024-06-05 19:18:48.827793
44.86826188,2.592510939,0.9007876515,-0.07696308941,2024-06-05 19:18:48.868262
44.90873875,2.540847063,0.2500634491,-0.2711018026,2024-06-05 19:18:48.908739
44.94924276,1.892519593,-0.04220985994,-0.1517957002,2024-06-05 19:18:48.949243
44.98971844,2.079068661,-1.233140349,-0.5508586168,2024-06-05 19:18:48.989718
45.03019266,1.13260901,-0.7693645358,-0.2194380015,2024-06-05 19:18:49.030193
45.07068115,0.4177044928,-0.398796618,0.1720351279,2024-06-05 19:18:49.070681
45.1111588,0.3157084286,-1.177615166,0.03675054014,2024-06-05 19:18:49.111159
45.15164198,-0.0980014354,-2.117416859,0.211981371,2024-06-05 19:18:49.151642
45.19213948,-0.401992321,-2.801163435,0.2874797583,2024-06-05 19:18:49.192139
45.2326338,0.253392309,-2.384790421,0.3010614812,2024-06-05 19:18:49.232634
45.27307229,0.5383421183,-1.079613686,0.01597849466,2024-06-05 19:18:49.273072
45.31355459,0.8724258542,-0.05046541616,0.2773600519,2024-06-05 19:18:49.313555
45.35403688,0.3663070202,-1.436866164,0.6768224239,2024-06-05 19:18:49.354037
45.39449339,0.9280842543,-1.419822454,-0.3982639909,2024-06-05 19:18:49.394493
45.4349912,-0.4675041437,2.501966,0.9115731716,2024-06-05 19:18:49.434991
45.47549479,-0.3358147144,-0.6955971718,0.2111824453,2024-06-05 19:18:49.475495
45.51598172,0.3886769116,-2.343512535,-0.7822805047,2024-06-05 19:18:49.515982
45.55647979,-0.6461969614,1.246189475,-0.04660394415,2024-06-05 19:18:49.556480
45.59695516,-1.27215457,1.536066055,0.3114475012,2024-06-05 19:18:49.596955
45.63738745,-0.8272866011,0.3414071798,0.1270290315,2024-06-05 19:18:49.637387
45.67789834,-0.3950682878,0.8760210276,-0.06018566713,2024-06-05 19:18:49.677898
45.71839063,-0.1011971384,1.560832739,0.3812202811,2024-06-05 19:18:49.718391
45.75889266,1.051917553,0.8030525446,0.1033276021,2024-06-05 19:18:49.758893
45.79935412,0.3133116663,0.02037258074,0.3785571754,2024-06-05 19:18:49.799354
45.83982974,0.4959991276,1.621550918,0.855914712,2024-06-05 19:18:49.839830
45.88030464,0.8126396537,0.1291595101,0.2202369273,2024-06-05 19:18:49.880305
45.92080078,1.780670166,-1.558569074,-0.1328878254,2024-06-05 19:18:49.920801
45.96129156,0.560978353,0.2625799477,0.6714962721,2024-06-05 19:18:49.961292
46.00176886,-0.4832163453,0.4497946501,0.8352758288,2024-06-05 19:18:50.001769
46.04228297,-0.9362066984,-0.2310224175,0.7146382332,2024-06-05 19:18:50.042283
46.08278287,-0.8035851717,-1.466959,0.4786891043,2024-06-05 19:18:50.082783
46.12321427,-0.7939980626,-1.998909712,-0.02476666868,2024-06-05 19:18:50.123214
46.16365578,-0.1656437367,-2.040720224,-0.3344831765,2024-06-05 19:18:50.163656
46.20417865,0.5303528905,-2.272674561,-0.21784015,2024-06-05 19:18:50.204179
46.24468464,-0.009587096982,-2.582790613,-0.3501953483,2024-06-05 19:18:50.244685
46.28516552,-0.5993267298,-1.542590618,-0.6408708096,2024-06-05 19:18:50.285166
46.32562406,-0.3456681073,-3.267069578,-0.6917356849,2024-06-05 19:18:50.325624
46.36614485,0.6552514434,-2.779592514,-0.1214365661,2024-06-05 19:18:50.366145
46.40662755,-0.2513949871,-3.255618334,-0.01198387146,2024-06-05 19:18:50.406628
46.44708313,-0.4328840673,-2.53805089,0.1960028708,2024-06-05 19:18:50.447083
46.48754985,0.1206376404,-1.203846455,0.1842853129,2024-06-05 19:18:50.487550
46.52806318,0.7798837423,0.6717625856,0.2922733128,2024-06-05 19:18:50.528063
46.56855063,0.4656399786,1.519554853,0.3665733039,2024-06-05 19:18:50.568551
46.60899922,-0.5346138477,0.6536536217,0.941666007,2024-06-05 19:18:50.608999
46.64948193,-0.8613740802,-1.061771035,0.5828156471,2024-06-05 19:18:50.649482
46.68996964,-0.9748213887,-0.9467258453,-0.06151720881,2024-06-05 19:18:50.689970
46.73047558,-0.07856093347,2.123941422,0.3825518191,2024-06-05 19:18:50.730476
46.77096578,0.4129109383,5.208456993,0.6105116606,2024-06-05 19:18:50.770966
46.81140844,0.1406107545,2.95255971,0.7849435806,2024-06-05 19:18:50.811408
46.8518975,1.522883773,3.285311699,0.2555227578,2024-06-05 19:18:50.851897
46.89235099,0.9890688658,2.670805454,0.2973331809,2024-06-05 19:18:50.892351
46.93285584,1.70077765,0.9804138541,-0.670963645,2024-06-05 19:18:50.932856
46.97332505,1.437531948,1.651910067,-1.00052011,2024-06-05 19:18:50.973325
47.01380714,0.1294258088,1.107709169,-0.4177044928,2024-06-05 19:18:51.013807
47.05428933,-0.2023942769,-0.6367430687,-0.4872109592,2024-06-05 19:18:51.054289
47.09477151,-0.6310173869,-0.4480636418,-0.6728277802,2024-06-05 19:18:51.094772
47.13529865,-0.4272916019,0.6170362234,-0.7945306897,2024-06-05 19:18:51.135299
47.17578084,-0.3894758224,0.9785496593,-0.6288869381,2024-06-05 19:18:51.175781
47.21623839,-0.8278192282,0.1946713328,-0.3454017937,2024-06-05 19:18:51.216238
47.25675214,0.1275616586,0.04340824485,-0.5476629138,2024-06-05 19:18:51.256752
47.29722787,0.3524589837,0.1395455301,-0.7359428406,2024-06-05 19:18:51.297228
47.33773328,-0.4691019952,-0.2816209793,-0.1688394397,2024-06-05 19:18:51.337733
47.37820047,-0.7543181181,-0.0573894307,-0.07776200771,2024-06-05 19:18:51.378200
47.41868266,-0.4669715166,0.05006595328,-0.2311555594,2024-06-05 19:18:51.418683
47.45911078,-0.5223636627,0.3504616618,0.01251648832,2024-06-05 19:18:51.459111
47.49960729,-0.768432498,0.4354139864,0.2629793882,2024-06-05 19:18:51.499607
47.54009339,-1.492125154,0.2127802968,0.3873453438,2024-06-05 19:18:51.540093
47.58060792,-1.810230374,0.006790860556,0.2459356785,2024-06-05 19:18:51.580608
47.62107735,-0.5897396207,0.8352758288,-0.3950682878,2024-06-05 19:18:51.621077
47.66154255,1.02794981,1.585599303,-0.4603138268,2024-06-05 19:18:51.661543
47.70204672,-1.313698649,-0.6420692205,-0.2319544852,2024-06-05 19:18:51.702047
47.74256094,-1.631537557,0.8137048483,0.9544488192,2024-06-05 19:18:51.742561
47.7829938,-1.074287534,2.015820265,1.459369302,2024-06-05 19:18:51.782994
47.8234762,-0.5780220628,1.116763711,0.6051855087,2024-06-05 19:18:51.823476
47.86398073,-0.881613493,1.181742907,-0.145404309,2024-06-05 19:18:51.863981
47.90443047,-1.161103964,0.9748213887,-0.1744319052,2024-06-05 19:18:51.904430
47.94493792,-0.4350145459,0.5315513015,-0.1520620137,2024-06-05 19:18:51.944938
47.98542308,-0.7910686731,0.290275991,0.08548495173,2024-06-05 19:18:51.985423
48.02591808,-0.5007926822,0.3685706258,-0.2231663167,2024-06-05 19:18:52.025918
48.06639974,-0.4720313847,0.3906742036,-0.3953346014,2024-06-05 19:18:52.066400
48.10686844,-0.2489982247,0.5469971299,-0.4438027143,2024-06-05 19:18:52.106868
48.14735188,0.08628387749,0.7053174376,-0.317972064,2024-06-05 19:18:52.147352
48.18782948,0.3841496706,0.6866758466,-0.2474003732,2024-06-05 19:18:52.187829
48.22830391,1.11849463,0.4681699276,0.09826774895,2024-06-05 19:18:52.228304
48.26879662,1.802773714,0.5592473149,0.4054543078,2024-06-05 19:18:52.268797
48.30927047,0.9073122144,0.9841421843,0.5921363831,2024-06-05 19:18:52.309270
48.3497574,0.07323476672,-0.5665708184,0.8083786964,2024-06-05 19:18:52.349757
48.39025308,0.05166380107,-2.832055092,0.2451367527,2024-06-05 19:18:52.390253
48.43071151,0.1006645188,-2.924197912,0.199731186,2024-06-05 19:18:52.430712
48.47118792,-0.07962616533,-1.067097187,0.4363460839,2024-06-05 19:18:52.471188
48.51168604,0.04181039706,-0.2214353085,0.007722939365,2024-06-05 19:18:52.511686
48.55217693,0.4717650712,-1.438197732,-0.8768199086,2024-06-05 19:18:52.552177
48.59269698,0.8521864414,-3.201025248,-0.1600512564,2024-06-05 19:18:52.592697
48.63317938,-0.1720351279,-8.273931503,-0.2420742065,2024-06-05 19:18:52.633179
48.6736675,0.901719749,-0.785343051,-0.524227798,2024-06-05 19:18:52.673668
48.71414717,-0.3664401472,3.110080957,-0.1174419373,2024-06-05 19:18:52.714147
48.75462514,-0.3605813682,1.698780417,0.2338186502,2024-06-05 19:18:52.754625
48.79507165,0.5687012672,0.06258244067,-0.1057243794,2024-06-05 19:18:52.795072
48.8355529,1.357373238,-0.06511236727,-0.2135792226,2024-06-05 19:18:52.835553
48.87600779,1.156044126,-0.1346188188,-0.003994623665,2024-06-05 19:18:52.876008
48.91649972,0.3844159544,-0.7089125514,0.06657706201,2024-06-05 19:18:52.916500
48.95700826,0.2226337045,-2.092650175,-0.009853405878,2024-06-05 19:18:52.957008
48.99748248,0.9025186896,-1.979202986,-0.2836183012,2024-06-05 19:18:52.997482
49.03796024,0.2826862037,0.5579158068,0.1688394397,2024-06-05 19:18:53.037960
49.07844915,-0.5583152771,3.019669294,0.9411333799,2024-06-05 19:18:53.078449
49.11892722,-1.12222302,4.092625141,0.9214265943,2024-06-05 19:18:53.118927
49.15941305,-1.325149894,3.618463516,0.2402100414,2024-06-05 19:18:53.159413
49.19989795,-0.6480611563,-0.4967980385,-0.3892095089,2024-06-05 19:18:53.199898
49.24039232,0.4211665094,-3.929245234,-1.197854519,2024-06-05 19:18:53.240392
49.28087347,0.2717675865,-4.761591434,-0.8509880304,2024-06-05 19:18:53.280873
49.32134686,0.4432700872,5.745201111,1.064434052,2024-06-05 19:18:53.321347
49.36182352,0.7069152594,2.020081282,0.3031919599,2024-06-05 19:18:53.361824
49.40230456,-0.07509893179,-2.020214319,0.4182371199,2024-06-05 19:18:53.402305
49.442773,0.3276923001,-2.197575808,0.1539261788,2024-06-05 19:18:53.442773
49.48329727,0.6856105924,-1.5234164,-0.1776276082,2024-06-05 19:18:53.483297
49.52379368,-0.1573881805,-0.7746906877,-0.9330109954,2024-06-05 19:18:53.523794
49.56427144,0.4121120274,-0.2254299372,-0.7681661844,2024-06-05 19:18:53.564271
49.6047042,1.203713298,-0.08135717362,-0.3267602324,2024-06-05 19:18:53.604704
49.6452266,0.6083812118,-0.4416722357,-0.4581833482,2024-06-05 19:18:53.645227
49.68569858,0.07563154399,1.770683646,0.04979964346,2024-06-05 19:18:53.685699
49.72615899,0.06710968167,1.200650811,0.2864145339,2024-06-05 19:18:53.726159
49.76664597,0.701322794,-1.14672339,-0.1664426625,2024-06-05 19:18:53.766646
49.80714988,0.610245347,0.1267627329,0.03541899845,2024-06-05 19:18:53.807150
49.84761342,1.245257378,-0.5212984085,0.05938674137,2024-06-05 19:18:53.847613
49.88805831,0.5529890656,0.2497971505,0.2266283184,2024-06-05 19:18:53.888058
49.92858686,0.6158378124,1.426080704,0.000266308256,2024-06-05 19:18:53.928587
49.96905863,0.2454030514,1.095991611,-0.07989247888,2024-06-05 19:18:53.969059
50.00955868,-0.3432713449,0.03195698932,-0.2141118348,2024-06-05 19:18:54.009559
50.05004284,-1.569887161,0.9106410742,-0.3110480309,2024-06-05 19:18:54.050043
50.09050936,-1.768952608,1.335535884,-0.3563204408,2024-06-05 19:18:54.090509
50.13100759,-0.8291507363,0.02143781446,-0.6480611563,2024-06-05 19:18:54.131008
50.17146029,-1.60357511,-2.432592869,-0.4177044928,2024-06-05 19:18:54.171460
50.21201342,-2.662816286,-2.29424572,0.03834838793,2024-06-05 19:18:54.212013
50.25248175,-3.750685453,-1.470953703,0.7101109624,2024-06-05 19:18:54.252482
50.29289483,-2.849631548,0.1169093251,0.8734911084,2024-06-05 19:18:54.292895
50.33337045,-1.754039288,2.670272827,1.09852159,2024-06-05 19:18:54.333370
50.37382915,-1.801442146,3.682776928,1.293459177,2024-06-05 19:18:54.373829
50.41433821,0.4706998467,0.6247591972,-0.332885325,2024-06-05 19:18:54.414338
50.45486555,-0.2484655976,1.762161732,0.603853941,2024-06-05 19:18:54.454866
50.49532743,0.2613815665,0.8768199086,0.692268312,2024-06-05 19:18:54.495327
50.53582561,-0.4651073813,-0.009453942999,0.3340837061,2024-06-05 19:18:54.535826
50.57631972,0.3420729637,-0.3873453438,0.2266283184,2024-06-05 19:18:54.576320
50.61678576,1.091331244,-0.4776238501,-0.1113168523,2024-06-05 19:18:54.616786
50.65731436,2.236722946,0.8826786876,-0.208785668,2024-06-05 19:18:54.657314
50.69774134,3.085580587,1.159106731,-0.308917582,2024-06-05 19:18:54.697741
50.73826029,2.889311314,1.239798069,-0.2697702646,2024-06-05 19:18:54.738260
50.77869482,2.788380623,-0.02303566411,-0.1738992929,2024-06-05 19:18:54.778695
50.81922139,2.865077257,0.2442046702,-1.344324112,2024-06-05 19:18:54.819221
50.85968514,1.601711035,0.5672366023,-0.6874747872,2024-06-05 19:18:54.859685
50.90014634,0.7961285114,-0.3165073693,0.3095833361,2024-06-05 19:18:54.900146
50.94064691,0.2818872929,-2.036991835,0.1781602204,2024-06-05 19:18:54.940647
50.98113154,-0.6086475253,-2.822201729,0.1579207927,2024-06-05 19:18:54.981132
51.02158884,-0.7404701114,-3.48917079,0.53328228,2024-06-05 19:18:55.021589
51.06213019,0.9568455815,-4.008338928,0.1946713328,2024-06-05 19:18:55.062130
51.10260009,-0.4075847864,3.389172077,0.9440627694,2024-06-05 19:18:55.102600
51.14301118,-0.6581808329,1.795716524,0.5146406889,2024-06-05 19:18:55.143011
51.18348686,-1.496652365,-3.279586077,-0.2292914093,2024-06-05 19:18:55.183487
51.22396972,0.05166380107,-3.373060465,0.0181089621,2024-06-05 19:18:55.223970
51.26447196,-0.006924014539,1.040066838,-0.09666989744,2024-06-05 19:18:55.264472
51.30498831,-1.75643611,1.25804019,1.411433816,2024-06-05 19:18:55.304988
51.34545529,-0.6278216839,0.9774844646,1.446852803,2024-06-05 19:18:55.345455
51.38592706,0.6448654532,2.300237656,0.6712299585,2024-06-05 19:18:55.385927
51.42640837,-0.8714937568,0.6967955232,0.3798887134,2024-06-05 19:18:55.426408
51.46690529,-0.4536561072,-3.297428846,-0.1754971445,2024-06-05 19:18:55.466905
51.50740769,-0.6520557404,-4.632964611,-0.9612396359,2024-06-05 19:18:55.507408
51.5478805,-0.3749620318,-3.843760252,-0.8227593303,2024-06-05 19:18:55.547880
51.58835571,0.1086537689,-1.063368917,-0.128626883,2024-06-05 19:18:55.588356
51.62884175,-0.2466014475,0.4631100595,0.3476654291,2024-06-05 19:18:55.628842
51.66935665,0.5372769237,0.07856093347,0.01757634431,2024-06-05 19:18:55.669357
51.70980259,0.7756227851,-0.4901403487,0.08548495173,2024-06-05 19:18:55.709803
51.75030962,-0.7127740383,-0.6604444981,0.3623123765,2024-06-05 19:18:55.750310
51.79080305,-0.5053198934,-1.015965939,0.1131810099,2024-06-05 19:18:55.790803
51.83125691,0.1496652365,-0.4541887343,-0.09320788831,2024-06-05 19:18:55.831257
51.87172384,-0.2617810071,0.3371462524,0.04607132822,2024-06-05 19:18:55.871724
51.91222884,0.09134373069,1.007044673,-0.1254311949,2024-06-05 19:18:55.912229
51.95274654,0.3282249272,0.9135704637,-0.2189053893,2024-06-05 19:18:55.952747
51.99322394,0.4991948307,0.753519237,-0.3660407066,2024-06-05 19:18:55.993224
52.03367873,0.5641740561,0.769231379,-0.1629806459,2024-06-05 19:18:56.033679
52.07414019,1.139266729,0.1912093312,0.1533935517,2024-06-05 19:18:56.074140
52.11463946,2.101971149,0.9236901999,0.2493976802,2024-06-05 19:18:56.114639
52.15510644,3.02938962,0.6680342555,-0.1115831584,2024-06-05 19:18:56.155106
52.19558592,3.648423195,-1.096657395,-0.8501890898,2024-06-05 19:18:56.195586
52.23607123,2.329398394,-0.3668396175,-0.4296883643,2024-06-05 19:18:56.236071
52.27655899,0.8014547229,0.1355509013,0.7793511152,2024-06-05 19:18:56.276559
52.31705936,-0.3860138059,0.162181735,0.7881392837,2024-06-05 19:18:56.317059
52.35758201,-0.314776361,-0.6125090122,0.3010614812,2024-06-05 19:18:56.357582
52.39808061,-0.2617810071,-1.25551033,-0.1936061084,2024-06-05 19:18:56.398081
52.43849889,0.8014547229,-1.991985798,-0.5263582468,2024-06-05 19:18:56.438499
52.47896436,1.654972672,-2.796902418,-0.2221010923,2024-06-05 19:18:56.478964
52.51946649,0.08495233208,-1.45737195,0.5263582468,2024-06-05 19:18:56.519466
52.55995722,-0.4153077304,-0.901719749,1.010639787,2024-06-05 19:18:56.559957
52.60042227,0.480286926,-1.858032703,0.6616428494,2024-06-05 19:18:56.600422
52.6408955,-0.5580489635,0.9170324802,-0.1067896113,2024-06-05 19:18:56.640895
52.68140394,0.6422023773,0.1392792165,-1.087336659,2024-06-05 19:18:56.681404
52.721878,-0.03275591508,1.99025476,0.8049166799,2024-06-05 19:18:56.721878
52.76236884,-1.711696267,1.15005219,0.8022536039,2024-06-05 19:18:56.762369
52.80287691,-3.184114695,-0.5399399996,0.1675078869,2024-06-05 19:18:56.802877
52.84330571,-1.671217442,-3.226058245,0.04500609636,2024-06-05 19:18:56.843306
52.88377347,0.4472647011,2.275470972,0.2866808474,2024-06-05 19:18:56.883773
52.92429087,-1.260969639,2.333526134,0.5742937326,2024-06-05 19:18:56.924291
52.96477253,-1.310236573,-3.104887962,0.02636451647,2024-06-05 19:18:56.964773
53.00526186,-0.7772206664,-2.571605682,-0.3003957272,2024-06-05 19:18:57.005262
53.04571331,-0.3725652397,0.4979964495,0.06577813625,2024-06-05 19:18:57.045713
53.08622451,-1.117429495,1.309437752,0.5250267386,2024-06-05 19:18:57.086225
53.1267143,-0.90957582,2.640180111,0.6603113413,2024-06-05 19:18:57.126714
53.16718686,-0.5087819099,1.163633943,0.6874747872,2024-06-05 19:18:57.167187
53.20766342,0.3045234978,-0.9288831949,0.4057206213,2024-06-05 19:18:57.207663
53.24813139,1.523682714,-0.7259563208,0.3010614812,2024-06-05 19:18:57.248131
53.28863008,2.048576355,1.310502887,0.6323489547,2024-06-05 19:18:57.288630
53.3290968,2.308892488,2.639913797,-0.5465977192,2024-06-05 19:18:57.329097
53.3696068,2.013157368,2.057630777,-0.6970618367,2024-06-05 19:18:57.369607
53.4101404,1.766555786,1.601844192,0.06631075591,2024-06-05 19:18:57.410140
53.45058118,1.172288895,0.302526176,-0.190676704,2024-06-05 19:18:57.450581
53.49108196,0.3061213493,0.7612421513,-0.04713656008,2024-06-05 19:18:57.491082
53.53153514,-0.9449948668,0.9801475406,0.3061213493,2024-06-05 19:18:57.531535
53.57204305,1.018629074,0.08468602598,-0.1206376404,2024-06-05 19:18:57.572043
53.61251134,-0.5852124095,-0.5816172361,-0.7804163694,2024-06-05 19:18:57.612511
53.65300134,-0.4616453648,0.3387441039,-0.2679060996,2024-06-05 19:18:57.653001
53.69346988,-0.4762923121,-1.610499144,-0.8091776371,2024-06-05 19:18:57.693470
53.73393092,-0.3640433848,-0.4744281471,-0.8504554033,2024-06-05 19:18:57.733931
53.7744091,-0.8477923274,2.060560226,-0.4845478833,2024-06-05 19:18:57.774409
53.81489154,-1.501712203,1.89225328,-0.1097190008,2024-06-05 19:18:57.814892
53.85538284,-0.5114449859,-0.1521951705,-0.391073674,2024-06-05 19:18:57.855383
53.89583238,0.3876116574,0.263112545,-0.4360797703,2024-06-05 19:18:57.895832
53.93641113,-0.999188602,1.805303693,0.005858781748,2024-06-05 19:18:57.936411
53.97684982,-1.511299372,1.521152735,0.3111811876,2024-06-05 19:18:57.976850
54.01735347,-0.4557865858,0.1685731262,-0.052196417,2024-06-05 19:18:58.017353
54.05782191,-0.6352783442,-0.8260881901,-0.1541924775,2024-06-05 19:18:58.057822
54.09831498,-1.654972672,-1.396387339,-0.03701684624,2024-06-05 19:18:58.098315
54.13876878,-2.070679903,-1.428344369,0.3636439145,2024-06-05 19:18:58.138769
54.17925446,-1.516891837,0.08548495173,0.2973331809,2024-06-05 19:18:58.179254
54.21973108,1.061238408,0.8858743906,-0.7165023685,2024-06-05 19:18:58.219731
54.260253,-0.9087769389,-0.3756277859,-0.112115778,2024-06-05 19:18:58.260253
54.30072566,0.2587184608,1.900242567,0.6531209946,2024-06-05 19:18:58.300726
54.34121081,0.4360797703,1.879204154,0.5268908739,2024-06-05 19:18:58.341211
54.38169717,0.7026543617,-0.3940030634,0.7857425213,2024-06-05 19:18:58.381697
54.42218071,0.8753552437,-1.597183824,0.3234313726,2024-06-05 19:18:58.422181
54.46262144,0.03275591508,-1.584134698,-0.1022623703,2024-06-05 19:18:58.462621
54.503128,-0.6898715496,0.04979964346,-0.6920019984,2024-06-05 19:18:58.503128
54.54357639,0.5894733071,0.976685524,-0.3299559355,2024-06-05 19:18:58.543576
54.58407134,0.9643021822,-0.1809564531,-0.1571218669,2024-06-05 19:18:58.584071
54.6245854,0.8974588513,-1.207841039,-0.145404309,2024-06-05 19:18:58.624585
54.66508946,0.7908023596,-1.435268402,-0.3440702558,2024-06-05 19:18:58.665089
54.70553108,0.5101134777,0.1949376464,-0.07802832127,2024-06-05 19:18:58.705531
54.74598748,1.050319791,1.046990871,0.2114487588,2024-06-05 19:18:58.745987
54.78650634,1.718886614,-0.1647116542,0.4981296062,2024-06-05 19:18:58.786506
54.82698873,1.540726423,0.4228975177,0.1640458852,2024-06-05 19:18:58.826989
54.8674443,0.880415082,0.1683068126,-0.5796199441,2024-06-05 19:18:58.867444
54.90792019,-0.497064352,0.6037208438,0.1155777797,2024-06-05 19:18:58.907920
54.94842055,-0.8041177988,0.6175688505,-0.2149107605,2024-06-05 19:18:58.948421
54.98891597,-0.4150414169,0.6792191863,-0.1701709777,2024-06-05 19:18:58.988916
55.02940394,-0.4411396384,0.5603125691,-0.2671071887,2024-06-05 19:18:59.029404
55.06987462,-0.8560478687,-0.7286193967,-0.3363473415,2024-06-05 19:18:59.069875
55.11037858,-1.173087835,-1.499182343,-0.08495233208,2024-06-05 19:18:59.110379
55.1508541,-1.669087052,-2.071611881,0.2981320918,2024-06-05 19:18:59.150854
55.19131295,-2.646038771,-1.704772353,0.5604457259,2024-06-05 19:18:59.191313
55.23179368,-2.43964982,0.02995967865,0.5963973403,2024-06-05 19:18:59.231794
55.27228144,-2.160159349,1.955102086,0.2754958868,2024-06-05 19:18:59.272281
55.31277368,1.138467789,-7.562755108,-1.978270888,2024-06-05 19:18:59.312774
55.353253,-0.03169068322,0.9180977345,-0.4464657903,2024-06-05 19:18:59.353253
55.393718,-0.5924026966,4.568385124,1.064167738,2024-06-05 19:18:59.393718
55.43420061,1.389862776,0.7492582798,-0.0817566365,2024-06-05 19:18:59.434201
55.47468305,0.8097102642,-1.017297506,-0.02529928461,2024-06-05 19:18:59.474683
55.51519477,-0.04021254554,-0.2893439233,-0.018907886,2024-06-05 19:18:59.515195
55.55568092,-0.305721879,0.1991985738,-0.2785584331,2024-06-05 19:18:59.555681
55.59617634,0.5228962898,0.517170608,-0.6701647043,2024-06-05 19:18:59.596176
55.63666795,0.852452755,1.707302213,-0.894662559,2024-06-05 19:18:59.636668
55.67713706,0.07829462737,2.339651108,0.2050573528,2024-06-05 19:18:59.677137
55.71757977,1.635798454,2.849231958,-0.1307573467,2024-06-05 19:18:59.717580
55.75804748,3.089575291,1.14712286,-0.08868064731,2024-06-05 19:18:59.758047
55.79856936,4.826038361,-2.332327604,0.7015891075,2024-06-05 19:18:59.798569
55.83906394,5.769834518,-2.692509651,1.190664172,2024-06-05 19:18:59.839064
55.87950233,1.997178793,0.7862751484,1.032743454,2024-06-05 19:18:59.879502
55.91999498,1.023156285,0.80864501,1.714359403,2024-06-05 19:18:59.919995
55.96048243,0.1645784974,-0.1961360276,0.137681365,2024-06-05 19:18:59.960482
56.0009855,-2.100506306,-1.229678392,-0.2740311921,2024-06-05 19:19:00.000985
56.04148358,-4.497014523,-0.2975994647,-0.999987483,2024-06-05 19:19:00.041484
56.08196233,-3.623656511,2.060027599,-3.077857733,2024-06-05 19:19:00.081962
56.1224292,-4.899272919,2.401168346,-0.9026518464,2024-06-05 19:19:00.122429
56.16291415,-4.134302616,1.706769586,0.5495271087,2024-06-05 19:19:00.162914
56.2033817,-2.170811653,-2.280397654,0.334882617,2024-06-05 19:19:00.203382
56.24385738,0.5814840794,-0.9027850032,0.1645784974,2024-06-05 19:19:00.243857
56.28435467,0.143540144,1.389330149,0.418769747,2024-06-05 19:19:00.284355
56.32483701,-2.096511841,-1.026884675,1.197588205,2024-06-05 19:19:00.324837
56.36533269,-2.147909164,4.694348812,0.24234052,2024-06-05 19:19:00.365333
56.40581566,-0.8832113147,0.3243634701,-1.35976994,2024-06-05 19:19:00.405816
56.44632498,-0.4994611442,0.6247591972,-0.3227656186,2024-06-05 19:19:00.446325
56.48678035,-0.1938724071,0.3592498302,-0.6371424794,2024-06-05 19:19:00.486780
56.52724665,-0.4629769027,0.4146419466,-0.8174331784,2024-06-05 19:19:00.527247
56.56772592,-0.2295577228,-0.2256962508,-0.3531247377,2024-06-05 19:19:00.567726
56.60823561,-0.0037283157,-0.02516612969,-0.7764217257,2024-06-05 19:19:00.608236
56.64872967,0.5753589869,-0.9086437821,-0.09560466558,2024-06-05 19:19:00.648730
56.68920128,1.069227695,-0.9283505678,1.091331244,2024-06-05 19:19:00.689201
56.72962066,0.8628387451,-1.013569236,1.702908158,2024-06-05 19:19:00.729621
56.77016904,-0.08814803511,-2.325936317,1.217028737,2024-06-05 19:19:00.770169
56.81061482,1.422352433,-2.921534777,0.861507237,2024-06-05 19:19:00.810615
56.8511016,4.122851372,-0.5657718778,-0.04793548584,2024-06-05 19:19:00.851102
56.89154561,4.034703255,2.70462656,0.03914731368,2024-06-05 19:19:00.891546
56.93206358,1.313964963,0.9071790576,0.3833507299,2024-06-05 19:19:00.932064
56.97255884,0.1035939083,-1.39425683,0.2605826259,2024-06-05 19:19:00.972559
57.01305092,0.9035838842,0.617302537,-0.3592498302,2024-06-05 19:19:01.013051
57.05353295,1.181343436,1.365362406,-0.8762873411,2024-06-05 19:19:01.053533
57.09398425,1.044461012,1.080279469,-0.826753974,2024-06-05 19:19:01.093984
57.13450701,0.5045210123,-0.2432725877,-0.8565804958,2024-06-05 19:19:01.134507
57.17492503,-1.00052011,-0.5904054046,-0.1709699035,2024-06-05 19:19:01.174925
57.21547186,-0.5173037648,-0.7483261824,-0.2537917793,2024-06-05 19:19:01.215472
57.25593962,-0.296667397,-1.018895388,-0.3844159544,2024-06-05 19:19:01.255940
57.2964305,-1.350715518,-0.8697627783,0.0458050184,2024-06-05 19:19:01.296430
57.3369191,-1.177348852,-0.3279586136,0.2143781483,2024-06-05 19:19:01.336919
57.37737029,-1.315829039,-0.6950645447,0.4195686579,2024-06-05 19:19:01.377370
57.41785316,-1.625412464,-1.487997413,0.414242506,2024-06-05 19:19:01.417853
57.45835087,-1.479874969,-1.264298439,0.3165073693,2024-06-05 19:19:01.458351
57.49884618,-1.354443789,0.2604494691,0.1619154215,2024-06-05 19:19:01.498846
57.53930144,-0.4027912319,-0.1711030602,0.1968017966,2024-06-05 19:19:01.539301
57.57981399,-0.2117150575,0.3187709749,0.37296471,2024-06-05 19:19:01.579814
57.62030201,-0.7178338766,0.9516525269,0.4560528994,2024-06-05 19:19:01.620302
57.66078727,-0.509314537,0.4966649115,0.02343512699,2024-06-05 19:19:01.660787
57.7012617,-0.4107804894,1.031545043,-0.007190322969,2024-06-05 19:19:01.701262
57.74167649,-0.6648385525,1.933797359,-0.09853405505,2024-06-05 19:19:01.741676
57.78223347,0.5516575575,-1.465361238,-0.1797580719,2024-06-05 19:19:01.782233
57.82269222,0.1227681041,0.3158415854,0.1368824393,2024-06-05 19:19:01.822692
57.86318753,-0.6906704903,2.325803041,0.3106485903,2024-06-05 19:19:01.863188
57.90360894,2.081465244,0.8451292515,-0.2929390669,2024-06-05 19:19:01.903609
57.94409102,3.948419333,2.374271154,-1.946580172,2024-06-05 19:19:01.944091
57.984583,0.05778888986,3.978911638,-0.8334116936,2024-06-05 19:19:01.984583
58.02507399,-1.262301087,6.510437965,0.8488575816,2024-06-05 19:19:02.025074
58.06558915,0.4400743842,-2.450968027,0.5849460959,2024-06-05 19:19:02.065589
58.10609597,2.436187983,0.1637795717,0.649658978,2024-06-05 19:19:02.106096
58.14656628,-1.639793038,0.476958096,-0.5726959109,2024-06-05 19:19:02.146566
58.18705055,0.4256937504,0.692268312,-0.05086487532,2024-06-05 19:19:02.187051
58.22753368,-0.7151708007,-0.9813459516,-0.1059906855,2024-06-05 19:19:02.227534
58.26801186,-0.8597761989,-1.612629652,0.128626883,2024-06-05 19:19:02.268012
58.30850066,-1.017297506,-2.209027052,0.09826774895,2024-06-05 19:19:02.308501
58.34898618,-1.154179931,-1.266428947,0.1155777797,2024-06-05 19:19:02.348986
58.38946972,-0.8949288726,0.02889444493,0.04607132822,2024-06-05 19:19:02.389470
58.42994805,-1.291328788,-0.7275541425,0.1424749196,2024-06-05 19:19:02.429948
58.47042456,-1.275350213,-2.176803589,0.2725664973,2024-06-05 19:19:02.470425
58.51090436,-1.091597557,-2.015953541,-0.06577813625,2024-06-05 19:19:02.510904
58.55137665,-0.6113106012,-0.9501878619,-0.1187734827,2024-06-05 19:19:02.551377
58.59187154,-0.7615084648,-0.255256474,-0.07003907114,2024-06-05 19:19:02.591872
58.63233238,-0.5372769237,-0.5157059431,-0.01411433797,2024-06-05 19:19:02.632332
58.67281258,0.02876129188,-1.078282118,-0.1294258088,2024-06-05 19:19:02.672813
58.71331826,0.7340787053,-1.964555979,-0.3320863843,2024-06-05 19:19:02.713318
58.7538017,1.252714038,-1.425148606,-0.1850842386,2024-06-05 19:19:02.753802
58.79428509,1.894650102,-0.01850842312,-0.3512606025,2024-06-05 19:19:02.794285
58.83476847,2.619141579,2.030999899,-0.8768199086,2024-06-05 19:19:02.834768
58.87524227,2.263353825,1.511565685,-1.308372498,2024-06-05 19:19:02.875242
58.91572415,2.120612621,-1.148321152,-0.603853941,2024-06-05 19:19:02.915724
58.95621988,3.516334295,-0.5596467853,-0.6304848194,2024-06-05 19:19:02.956220
58.99671347,1.853372335,-0.1535267085,0.2026605755,2024-06-05 19:19:02.996713
59.03717534,0.2973331809,0.1312899739,0.6882736683,2024-06-05 19:19:03.037175
59.0776692,-0.05592473224,-0.6071828008,0.5255593657,2024-06-05 19:19:03.077669
59.11813488,-0.7082468271,-0.9621717334,0.3239639997,2024-06-05 19:19:03.118135
59.15862394,-0.4145087898,-1.24805367,0.2186390758,2024-06-05 19:19:03.158624
59.19912019,0.8315475583,-2.079334974,-0.09001219273,2024-06-05 19:19:03.199120
59.23958149,0.5916038156,0.6223623753,-0.1171756312,2024-06-05 19:19:03.239581
59.28007217,0.3039908707,3.268001795,0.2856155932,2024-06-05 19:19:03.280072
59.32056389,-1.345123053,3.176924229,0.7934654355,2024-06-05 19:19:03.320564
59.36104581,-2.947100401,1.662828803,-0.7529866099,2024-06-05 19:19:03.361046
59.40149587,-2.546439648,-2.069747686,-0.3280917704,2024-06-05 19:19:03.401496
59.44198456,-0.4754934013,-2.586519003,0.2877460718,2024-06-05 19:19:03.441985
59.48247399,-1.21649611,0.491871357,0.6850779653,2024-06-05 19:19:03.482474
59.5229642,-1.632070184,-1.010639787,0.3889431953,2024-06-05 19:19:03.522964
59.56345337,-1.275350213,-1.378811002,-0.2141118348,2024-06-05 19:19:03.563453
59.60391925,-1.471619368,-0.2115819156,0.1677742004,2024-06-05 19:19:03.603919
59.64441514,-2.176670551,2.346042633,0.4209001958,2024-06-05 19:19:03.644415
59.68489717,-0.4454005659,4.029776573,0.03222329915,2024-06-05 19:19:03.684897
59.72535003,-0.7916013002,1.025153637,0.4384765327,2024-06-05 19:19:03.725350
59.76586608,0.1334204376,-0.1050586104,0.5207657814,2024-06-05 19:19:03.765866
59.80637102,1.606238246,0.7239589691,0.5284887552,2024-06-05 19:19:03.806371
59.84684899,1.86482358,0.2458025217,0.5521901846,2024-06-05 19:19:03.846849
59.88727581,2.431660652,-0.6212971807,0.5865439177,2024-06-05 19:19:03.887276
59.92778066,1.739126086,0.6965292692,-0.6403381824,2024-06-05 19:19:03.927781
59.96828618,2.065486908,2.380928993,-0.3940030634,2024-06-05 19:19:03.968286
60.0087716,2.201570272,1.929802775,0.4363460839,2024-06-05 19:19:04.008772
60.04925493,0.643800199,-0.4416722357,0.1094526947,2024-06-05 19:19:04.049255
60.08972805,0.1264964193,0.1270290315,0.2386122048,2024-06-05 19:19:04.089728
60.13018451,-0.616104126,0.1691057384,0.3489969671,2024-06-05 19:19:04.130185
60.17069665,-0.292140156,-0.2243647128,-0.1528609395,2024-06-05 19:19:04.170697
60.21111118,0.7316819429,-1.089467049,-0.6137073636,2024-06-05 19:19:04.211111
60.25166753,1.197321892,-1.859630585,-0.2860150635,2024-06-05 19:19:04.251668
60.29214795,-0.3475322723,0.5267577171,0.1653774232,2024-06-05 19:19:04.292148
60.33260972,-0.2106498331,1.111703873,0.2717675865,2024-06-05 19:19:04.332610
60.37307706,0.7609758377,0.1078548431,0.1531272531,2024-06-05 19:19:04.373077
60.41354352,0.4371449947,0.05885412544,-0.02769605815,2024-06-05 19:19:04.413544
60.4540204,-0.01411433797,0.3075860441,-0.1368824393,2024-06-05 19:19:04.454020
60.49450264,-0.2487319112,0.1920082569,-0.1147788614,2024-06-05 19:19:04.494503
60.53498498,-0.3262276053,-0.1798912287,-0.1520620137,2024-06-05 19:19:04.534985
60.57547634,-0.05938674137,-0.9765523672,-0.2937380075,2024-06-05 19:19:04.575476
60.615998,-0.3163742125,-1.137668848,-0.1893451661,2024-06-05 19:19:04.615998
60.65648139,-0.7761554122,-0.6226286888,0.06204982474,2024-06-05 19:19:04.656481
60.6969618,-0.6291532516,-0.02809552103,-0.05912043154,2024-06-05 19:19:04.696962
60.7373943,-0.952185154,-0.1274285018,0.1057243794,2024-06-05 19:19:04.737394
60.77792894,-1.915155768,-0.6143731475,0.356187284,2024-06-05 19:19:04.777929
60.8183891,-2.501433372,-0.9371387362,0.3053224087,2024-06-05 19:19:04.818389
60.85890154,-2.165219307,-0.3412740231,0.1637795717,2024-06-05 19:19:04.858902
60.89933331,-2.161757231,2.270943642,0.2122476846,2024-06-05 19:19:04.899333
60.93983212,-1.728207469,2.587717295,-0.3019935489,2024-06-05 19:19:04.939832
60.98034733,1.440461397,-9.71026516,-2.184393406,2024-06-05 19:19:04.980347
61.02083066,0.002929390874,2.296242952,-0.2455362082,2024-06-05 19:19:05.020831
61.06131858,0.8668333888,3.029256344,0.2159759998,2024-06-05 19:19:05.061319
61.10179227,0.4238295853,0.3563204408,0.6014571786,2024-06-05 19:19:05.101792
61.14224566,-0.5362116694,-0.800788939,0.4219654202,2024-06-05 19:19:05.142246
61.18274321,-0.3966661394,-2.094248056,-0.3509942889,2024-06-05 19:19:05.182743
61.22324602,-0.2266283184,-0.9544488192,-0.820895195,2024-06-05 19:19:05.223246
61.26370024,-0.3440702558,1.243526459,-0.1201050207,2024-06-05 19:19:05.263700
61.30416144,-0.02583190054,0.1139799356,0.00798924733,2024-06-05 19:19:05.304161
61.34464686,-0.06098458916,-0.273365438,-0.1717688292,2024-06-05 19:19:05.344647
61.38513462,-0.07296846062,-0.3868127465,-0.2402100414,2024-06-05 19:19:05.385135
61.42562394,-0.1137136221,-0.3660407066,-0.204258427,2024-06-05 19:19:05.425624
61.46612993,-0.1584534049,-0.368437469,-0.1483336985,2024-06-05 19:19:05.466130
61.50662863,-0.1834863871,-0.7198312283,-0.1163767055,2024-06-05 19:19:05.506629
61.5471029,-0.332885325,-0.8849423528,-0.07776200771,2024-06-05 19:19:05.547103
61.58756858,-0.3998618424,-0.5234288573,0.08308817446,2024-06-05 19:19:05.587569
61.62800795,-0.1888125539,-0.7443315983,0.3889431953,2024-06-05 19:19:05.628008
61.66854003,0.2360822707,-1.275749683,0.07882724702,2024-06-05 19:19:05.668540
61.70901701,1.051917553,-1.003982067,-0.09507204592,2024-06-05 19:19:05.709017
61.74947795,2.246310234,-1.024487853,-0.02370143496,2024-06-05 19:19:05.749478
61.78998941,2.885050535,-0.1119826213,0.1712362021,2024-06-05 19:19:05.789989
61.83046503,2.211423874,2.377466917,-1.091597557,2024-06-05 19:19:05.830465
61.87094061,2.601831675,0.0980014354,-1.17788136,2024-06-05 19:19:05.870941
61.91141331,2.377866507,-0.5465977192,-0.7607095242,2024-06-05 19:19:05.911413
61.95192029,1.699712396,-0.05312849581,-0.7178338766,2024-06-05 19:19:05.951920
61.992388,0.9643021822,0.9396686554,0.1017297506,2024-06-05 19:19:05.992388
