Time (s),Linear Acceleration x (m/s^2),Linear Acceleration y (m/s^2),Linear Acceleration z (m/s^2),Datetime
0.090704377,0.06877732277,-0.338727951,0.7058296204,2024-06-05 19:18:04.090704
0.17524995,0.1860897541,0.4677681923,-0.4000296593,2024-06-05 19:18:04.175250
0.215577398,0.1634955406,0.2398400307,0.4265632629,2024-06-05 19:18:04.215577
0.256570679,0.2428171635,-0.1378278732,0.915845871,2024-06-05 19:18:04.256571
0.297070054,0.01811385155,0.2251243591,-0.7061886787,2024-06-05 19:18:04.297070
0.337556565,0.04730796814,-0.4632835388,-0.1534337997,2024-06-05 19:18:04.337557
0.377869533,-0.07167339325,1.458600998,-1.183606148,2024-06-05 19:18:04.377870
0.418125419,0.1141514778,-0.08527755737,-0.09107208252,2024-06-05 19:18:04.418125
0.458977658,0.1447110176,0.3163723946,0.05823898315,2024-06-05 19:18:04.458978
0.499481825,0.9193387032,-2.152179241,0.04938793182,2024-06-05 19:18:04.499482
0.539954273,0.9709320068,-1.544835806,1.484675407,2024-06-05 19:18:04.539954
0.580433283,0.2170119286,0.4074811935,1.234638214,2024-06-05 19:18:04.580433
0.620966304,-0.2351830006,1.160999775,0.3876800537,2024-06-05 19:18:04.620966
0.661371669,0.1425247192,-0.1719350815,1.025184631,2024-06-05 19:18:04.661372
0.701934013,0.1963479519,-0.6881501675,0.4596776962,2024-06-05 19:18:04.701934
0.742388544,-0.1205933094,-0.4840874672,-0.3361449242,2024-06-05 19:18:04.742389
0.782874273,0.1404862404,-0.5605697632,-1.297428608,2024-06-05 19:18:04.782874
0.823221721,0.9032671452,-3.496851683,-2.569925308,2024-06-05 19:18:04.823222
0.863764273,6.929032326,-6.758568764,-4.057266712,2024-06-05 19:18:04.863764
0.904034013,10.72956657,-6.623250484,-5.982261658,2024-06-05 19:18:04.904034
0.944686096,-1.160060883,-10.44321156,-1.253468037,2024-06-05 19:18:04.944686
0.985349742,-6.706701279,-5.621116161,0.9655981064,2024-06-05 19:18:04.985350
1.02581344,-7.051555157,-2.407572269,3.485495567,2024-06-05 19:18:05.025813
1.066292606,-21.85793877,-2.22716856,-2.923316479,2024-06-05 19:18:05.066293
1.106768544,-7.214744091,2.351816177,-0.6428396702,2024-06-05 19:18:05.106769
1.146921617,-8.09016037,4.773831367,17.43480492,2024-06-05 19:18:05.146922
1.187574013,-0.9902353287,9.172179222,15.51058865,2024-06-05 19:18:05.187574
1.228215836,5.438702106,5.743929863,-2.270361185,2024-06-05 19:18:05.228216
1.268695419,2.24234724,2.667207956,-5.828308105,2024-06-05 19:18:05.268695
1.30918094,2.244297028,0.8909993172,-3.438360691,2024-06-05 19:18:05.309181
1.349669013,14.19261932,3.687010288,-0.6038853526,2024-06-05 19:18:05.349669
1.389893804,8.208023071,-5.746470928,-6.400974274,2024-06-05 19:18:05.389894
1.430482294,5.946598053,-3.932026863,2.493708611,2024-06-05 19:18:05.430482
1.471135263,-5.655640602,-10.02050209,2.940936089,2024-06-05 19:18:05.471135
1.51164344,-11.35525322,-13.87573242,-2.933347702,2024-06-05 19:18:05.511643
1.552084429,0.9029784203,-15.30913639,-0.07505980134,2024-06-05 19:18:05.552084
1.592286825,5.056193829,3.710829735,-9.559382439,2024-06-05 19:18:05.592287
1.633110627,7.181083679,5.360631466,2.268767595,2024-06-05 19:18:05.633111
1.673646669,-1.466680527,-1.512778282,-1.648057938,2024-06-05 19:18:05.673647
1.714033388,-3.07576704,-2.332619667,-0.9626162052,2024-06-05 19:18:05.714033
1.754520523,-4.409891605,-1.32668972,0.4547469914,2024-06-05 19:18:05.754521
1.795010002,-2.579626083,-1.50480938,-1.769191146,2024-06-05 19:18:05.795010
1.835495888,0.01743841171,0.03107261658,0.6957041621,2024-06-05 19:18:05.835496
1.876033856,1.365327835,-1.457426071,2.909553051,2024-06-05 19:18:05.876034
1.916204898,2.391319275,-1.560500145,2.679329157,2024-06-05 19:18:05.916205
1.956922398,0.9360442162,-2.254644394,3.037850142,2024-06-05 19:18:05.956922
1.997480419,-2.025768042,-1.233588219,-0.398499012,2024-06-05 19:18:05.997480
2.037946565,-1.975697279,0.3684453964,-1.420940757,2024-06-05 19:18:06.037947
2.078438648,-2.066152811,1.49755621,-9.824621201,2024-06-05 19:18:06.078439
2.118864221,-3.220733166,0.9133033752,-2.821071386,2024-06-05 19:18:06.118864
2.159035263,-3.310086012,-0.8865785599,-0.6864595413,2024-06-05 19:18:06.159035
2.199813804,-0.2186684608,-0.004000663757,-1.098696589,2024-06-05 19:18:06.199814
2.240361617,3.74895668,0.7587871552,-0.2284023762,2024-06-05 19:18:06.240362
2.280773544,5.871673584,2.497899055,-1.702255011,2024-06-05 19:18:06.280774
2.321333856,1.139899254,1.960784912,1.903405786,2024-06-05 19:18:06.321334
2.361779481,-0.04176449776,-2.218907356,2.693309307,2024-06-05 19:18:06.361779
2.402099846,-0.4072210789,2.452557087,-1.996055961,2024-06-05 19:18:06.402100
2.442334065,2.693431854,2.338571548,-4.315460205,2024-06-05 19:18:06.442334
2.483273179,8.480137825,-7.554572105,5.889599323,2024-06-05 19:18:06.483273
2.523507346,-0.8749446869,3.608426094,-3.780418158,2024-06-05 19:18:06.523507
2.564103283,-1.678669453,4.320138931,-1.959929228,2024-06-05 19:18:06.564103
2.604600315,2.425649643,-3.021077156,-2.990289211,2024-06-05 19:18:06.604600
2.645136825,-2.443201065,-1.725235939,-3.38455987,2024-06-05 19:18:06.645137
2.685551096,-2.574077129,0.1530599594,-0.4374593496,2024-06-05 19:18:06.685551
2.726039377,-1.490259647,-0.5336751938,2.396939278,2024-06-05 19:18:06.726039
2.766536044,-0.02415513992,-0.05363845825,3.603057146,2024-06-05 19:18:06.766536
2.80705844,-0.07348251343,2.123800278,-0.192992568,2024-06-05 19:18:06.807058
2.847538231,0.1472172737,0.6072397232,-0.369892478,2024-06-05 19:18:06.847538
2.887976356,3.184967756,-0.6304340363,11.23136616,2024-06-05 19:18:06.887976
2.928455106,-1.84526062,-1.190281868,0.7422754765,2024-06-05 19:18:06.928455
2.968987138,-1.207266331,-3.7809515,7.340970516,2024-06-05 19:18:06.968987
3.0094487,3.701775789,-4.044335365,-0.8406977654,2024-06-05 19:18:07.009449
3.04994844,4.766208649,-1.30182457,-3.622558117,2024-06-05 19:18:07.049948
3.090435263,5.92340374,-0.07487106323,-4.813255787,2024-06-05 19:18:07.090435
3.130870523,4.200961113,0.03840637207,-0.8290872574,2024-06-05 19:18:07.130871
3.171155002,0.1787621975,2.162602901,-4.22918272,2024-06-05 19:18:07.171155
3.211861669,0.03909826279,4.777417183,-3.10034585,2024-06-05 19:18:07.211862
3.252280783,-0.4667782784,5.94946003,-2.812440395,2024-06-05 19:18:07.252281
3.2928287,-0.4324061871,4.770078182,-2.477368593,2024-06-05 19:18:07.292829
3.333281044,0.1401700974,-0.739402771,3.993242979,2024-06-05 19:18:07.333281
3.373565575,-0.1380553246,-4.097153664,8.585221291,2024-06-05 19:18:07.373566
3.414044481,-0.008686065674,0.03621196747,3.882307529,2024-06-05 19:18:07.414044
3.454764221,1.831801891,-0.4067411423,2.050477982,2024-06-05 19:18:07.454764
3.495231252,2.58160305,3.339907169,-1.170143604,2024-06-05 19:18:07.495231
3.535710783,3.309493542,0.1400527954,-2.540032625,2024-06-05 19:18:07.535711
3.576207658,3.417093754,1.231945038,-5.595892906,2024-06-05 19:18:07.576208
3.616711981,2.806355476,2.030341625,-5.357878685,2024-06-05 19:18:07.616712
3.657156773,1.212056637,-1.188968658,-4.035475731,2024-06-05 19:18:07.657157
3.697651981,-0.2598323822,-0.7217149734,-1.808932424,2024-06-05 19:18:07.697652
3.73812219,-3.099745274,-0.9171876907,1.77261281,2024-06-05 19:18:07.738122
3.778624377,-5.007359505,-2.311940193,2.890771151,2024-06-05 19:18:07.778624
3.819151148,-4.582837582,-1.526500702,1.057909846,2024-06-05 19:18:07.819151
3.859632919,-2.66868186,-0.3249635696,0.2942047119,2024-06-05 19:18:07.859633
3.900074638,0.8913617134,-0.6910142899,8.188241959,2024-06-05 19:18:07.900075
3.940541669,2.850319386,-1.441726685,0.3038563728,2024-06-05 19:18:07.940542
3.981034794,-2.184525967,-3.21746254,5.400537491,2024-06-05 19:18:07.981035
4.021551408,-5.840970039,-5.877415657,3.444257736,2024-06-05 19:18:08.021551
4.062009898,-5.088592529,-4.565355301,8.221801758,2024-06-05 19:18:08.062010
4.102493804,-4.023375988,-2.829366684,8.283713341,2024-06-05 19:18:08.102494
4.142973492,-1.661223412,-1.292383194,-0.5402544141,2024-06-05 19:18:08.142973
4.183329013,1.913965225,-3.062353134,-1.585424423,2024-06-05 19:18:08.183329
4.223925054,5.258700371,-9.841556549,-3.373110771,2024-06-05 19:18:08.223925
4.264449065,1.068427801,-5.923027039,-2.588246822,2024-06-05 19:18:08.264449
4.3049137,3.134501219,-0.004746437073,-3.931270599,2024-06-05 19:18:08.304914
4.345388283,2.8486588,4.331924915,-4.643185616,2024-06-05 19:18:08.345388
4.385852658,0.3326663971,8.379817009,-4.050664902,2024-06-05 19:18:08.385853
4.4263162,0.9486513138,9.706693649,-5.613085747,2024-06-05 19:18:08.426316
4.466811148,0.06861901283,3.54053688,9.453375816,2024-06-05 19:18:08.466811
4.507302763,-3.245610952,-3.967453957,2.435847759,2024-06-05 19:18:08.507303
4.547786461,-0.6835365295,6.325587273,-4.15182209,2024-06-05 19:18:08.547786
4.588271773,5.846880913,2.616851807,-4.209499359,2024-06-05 19:18:08.588272
4.628784065,14.38302803,-8.069044113,-16.08514214,2024-06-05 19:18:08.628784
4.66928469,2.706762075,3.364719391,-4.830970764,2024-06-05 19:18:08.669285
4.709753648,3.455605984,-4.174135208,-5.032752991,2024-06-05 19:18:08.709754
4.750204325,-2.62528801,-11.37350559,-7.462752342,2024-06-05 19:18:08.750204
4.790698752,-5.572760582,-4.925225258,24.11474991,2024-06-05 19:18:08.790699
4.831199429,-2.922703028,3.499463081,4.641965866,2024-06-05 19:18:08.831199
4.871678179,-7.103506088,5.675764084,1.652675152,2024-06-05 19:18:08.871678
4.912123856,-6.328887939,3.675388336,1.523477077,2024-06-05 19:18:08.912124
4.952601929,-4.108368874,0.8995780945,-2.009916306,2024-06-05 19:18:08.952602
4.993037346,-1.845428467,-1.557702065,-0.5439312458,2024-06-05 19:18:08.993037
5.033438336,-2.137862682,-7.604101181,1.608324289,2024-06-05 19:18:09.033438
5.074088231,2.074562311,-7.66104126,-1.931883812,2024-06-05 19:18:09.074088
5.114569013,13.07243729,-8.841520309,-0.09333074093,2024-06-05 19:18:09.114569
5.154994533,5.143889904,-1.699475288,-2.381551743,2024-06-05 19:18:09.154995
5.195528961,3.888370991,4.837228298,-1.360177994,2024-06-05 19:18:09.195529
5.2360087,-0.001345157623,7.073469162,-2.97328043,2024-06-05 19:18:09.236009
5.276472919,-0.2812763453,10.09582138,-3.519057035,2024-06-05 19:18:09.276473
5.316975575,0.1373069286,10.97427654,-5.942869186,2024-06-05 19:18:09.316976
5.357465419,4.1073246,-1.394802094,18.40414619,2024-06-05 19:18:09.357465
5.397866669,0.1172630787,-6.159247398,2.584348679,2024-06-05 19:18:09.397867
5.438461356,0.5184357166,6.777816772,-11.74994278,2024-06-05 19:18:09.438461
5.478879117,18.36333656,-9.564781189,-7.33852911,2024-06-05 19:18:09.478879
5.519375211,5.311410427,3.572622299,-1.29412961,2024-06-05 19:18:09.519375
5.559866877,3.959139824,3.183124542,-7.39402914,2024-06-05 19:18:09.559867
5.600346252,3.447308064,-9.344091415,-2.555225611,2024-06-05 19:18:09.600346
5.640790575,-3.932153702,-0.5834436417,-1.627636433,2024-06-05 19:18:09.640791
5.681340836,-6.247251511,0.2479038239,3.559760571,2024-06-05 19:18:09.681341
5.721844481,-5.521109104,1.280812263,5.788811684,2024-06-05 19:18:09.721844
5.762260783,-1.636040568,3.186778069,8.653339386,2024-06-05 19:18:09.762261
5.802678179,-3.078577757,-4.070214272,5.57710743,2024-06-05 19:18:09.802678
5.843095575,-7.871203423,-3.043063164,4.499771595,2024-06-05 19:18:09.843096
5.883730627,-6.274015427,-4.754169464,8.348660469,2024-06-05 19:18:09.883731
5.924147971,-2.20213747,-2.808615685,6.671550751,2024-06-05 19:18:09.924148
5.964678127,-1.135486245,-6.972252846,-1.997766852,2024-06-05 19:18:09.964678
6.005149586,12.39944553,-10.26093674,-1.484957457,2024-06-05 19:18:10.005150
6.045655158,7.509362221,-10.93124104,-0.6169698238,2024-06-05 19:18:10.045655
6.086107658,3.168563366,3.168319702,-5.33932209,2024-06-05 19:18:10.086108
6.126614794,1.449826241,5.250992775,-4.437333107,2024-06-05 19:18:10.126615
6.167050002,-0.1763952374,8.793889046,-6.202339172,2024-06-05 19:18:10.167050
6.207571877,2.659710407,11.91886044,-6.702381134,2024-06-05 19:18:10.207572
6.248071565,-0.05685865879,10.54103756,-8.954561234,2024-06-05 19:18:10.248072
6.288523075,-2.305177212,-12.52871037,24.89413834,2024-06-05 19:18:10.288523
6.329020627,0.4115767479,-5.740517616,-0.676627636,2024-06-05 19:18:10.329021
6.369481096,9.410011292,3.67298317,-8.614749908,2024-06-05 19:18:10.369481
6.409906773,12.50781059,-7.256489754,-3.421657085,2024-06-05 19:18:10.409907
6.450441096,3.508664608,4.908043385,-10.28263474,2024-06-05 19:18:10.450441
6.490954742,2.081401587,-0.2603969574,-10.2479105,2024-06-05 19:18:10.490955
6.531455523,2.253102303,-3.303627014,-2.297142982,2024-06-05 19:18:10.531456
6.571943804,-5.853341579,0.638428688,-3.486467838,2024-06-05 19:18:10.571944
6.612351513,-6.795049667,-1.402446747,-0.1683572531,2024-06-05 19:18:10.612352
6.652843231,-3.634306908,0.126332283,8.250836372,2024-06-05 19:18:10.652843
6.693273804,-1.686185718,0.4935121536,9.230276108,2024-06-05 19:18:10.693274
6.733767086,-1.389624119,-0.933839798,3.172585726,2024-06-05 19:18:10.733767
6.774336252,-6.983207703,-2.017394066,3.471942902,2024-06-05 19:18:10.774336
6.8148137,-9.763145447,-3.165550232,3.455497026,2024-06-05 19:18:10.814814
6.855322502,-5.768671513,-3.924091339,4.6837883,2024-06-05 19:18:10.855323
6.895828283,-2.362392426,-3.338411331,2.630321264,2024-06-05 19:18:10.895828
6.936280783,1.977220178,-3.384423256,-4.996023655,2024-06-05 19:18:10.936281
6.976746773,14.45513725,-8.712471008,1.99017942,2024-06-05 19:18:10.976747
7.01721495,2.61105442,-3.277277946,-6.49328804,2024-06-05 19:18:11.017215
7.057706304,2.917744398,4.707909584,-6.050852299,2024-06-05 19:18:11.057706
7.098187398,-0.3484708667,3.62229538,-4.738861561,2024-06-05 19:18:11.098187
7.138668596,1.005080462,7.499591827,-4.616334438,2024-06-05 19:18:11.138669
7.179133283,1.117998958,9.684470177,-1.336237788,2024-06-05 19:18:11.179133
7.219624846,2.326521397,-4.211733818,18.22146416,2024-06-05 19:18:11.219625
7.260096356,-3.82224226,-7.36397934,-1.970407367,2024-06-05 19:18:11.260096
7.300585471,2.089440823,0.2409391403,-5.185351372,2024-06-05 19:18:11.300585
7.341082294,4.724898815,1.468465805,-5.642606735,2024-06-05 19:18:11.341082
7.381610315,2.899278879,5.141217232,-9.564118385,2024-06-05 19:18:11.381610
7.422056408,3.342261553,-2.543079376,-8.918744087,2024-06-05 19:18:11.422056
7.462490627,2.349043369,-2.158529282,-6.87276125,2024-06-05 19:18:11.462491
7.502940836,1.332496405,-2.721351624,0.3698371649,2024-06-05 19:18:11.502941
7.543390992,-1.635809183,-1.200661659,6.248727322,2024-06-05 19:18:11.543391
7.583941825,-0.4286081791,0.6761817932,1.614696741,2024-06-05 19:18:11.583942
7.624501148,-1.230262041,1.536014557,4.495541096,2024-06-05 19:18:11.624501
7.664971825,-2.908163548,3.099296093,2.096694469,2024-06-05 19:18:11.664972
7.705420783,-6.152444839,0.9667787552,-2.304680109,2024-06-05 19:18:11.705421
7.745912763,-4.771009922,1.526099205,0.5463374853,2024-06-05 19:18:11.745913
7.786401721,0.2754559517,-0.112985611,0.677459836,2024-06-05 19:18:11.786402
7.82687245,2.730859756,-6.966629028,-5.417821407,2024-06-05 19:18:11.826872
7.867395419,4.236653805,-1.823583603,-3.21365118,2024-06-05 19:18:11.867395
7.907867398,5.090731144,2.201284885,-0.3213768601,2024-06-05 19:18:11.907867
7.9483137,4.006423473,0.6710453033,-0.8362487555,2024-06-05 19:18:11.948314
7.988818023,7.188844204,3.250031471,-5.197013855,2024-06-05 19:18:11.988818
8.02933469,2.008534908,-0.4862179756,1.208886385,2024-06-05 19:18:12.029335
8.069778179,-0.8738694191,0.1148471832,-0.03026258945,2024-06-05 19:18:12.069778
8.110246044,1.208891392,-0.3808822632,-0.6710526943,2024-06-05 19:18:12.110246
8.150720419,0.985663414,-0.6507587433,2.041132927,2024-06-05 19:18:12.150720
8.191223856,-0.6749606133,-0.06428623199,1.544884324,2024-06-05 19:18:12.191224
8.231717033,1.191417694,-0.4163403511,1.227131844,2024-06-05 19:18:12.231717
8.272169117,1.431687832,-0.07768774033,2.736419916,2024-06-05 19:18:12.272169
8.312674533,-0.8447003365,1.264143467,-0.1969767809,2024-06-05 19:18:12.312675
8.353114638,-0.4270987511,1.47330904,-0.1189849377,2024-06-05 19:18:12.353115
8.393551408,0.3456449509,1.426202297,1.314639211,2024-06-05 19:18:12.393551
8.434106148,-0.7006015778,1.291957378,1.451575756,2024-06-05 19:18:12.434106
8.474589533,-0.9602541924,1.224755287,0.8337674737,2024-06-05 19:18:12.474590
8.515075731,-0.04751825333,1.692903519,1.899658322,2024-06-05 19:18:12.515076
8.555566148,-0.4003653526,1.731136799,1.378012419,2024-06-05 19:18:12.555566
8.596051669,-0.6706461906,2.57386446,-2.084671259,2024-06-05 19:18:12.596052
8.636481148,0.01738786697,2.550723076,-0.4031345844,2024-06-05 19:18:12.636481
8.677017502,0.9149923325,1.75183773,0.5701599121,2024-06-05 19:18:12.677018
8.71748094,1.338656425,1.855554581,-0.4348182678,2024-06-05 19:18:12.717481
8.757962294,2.27680397,1.305930138,0.7190539837,2024-06-05 19:18:12.757962
8.798443908,5.190027237,2.537313461,-0.905785799,2024-06-05 19:18:12.798444
8.838911877,6.996082306,0.1499824524,-0.3609318733,2024-06-05 19:18:12.838912
8.879402138,3.488588572,-1.508230209,-3.557339668,2024-06-05 19:18:12.879402
8.919902658,-0.3727428913,-2.136347771,0.2970507145,2024-06-05 19:18:12.919903
8.960376565,-5.318666458,-3.248703957,-1.584088802,2024-06-05 19:18:12.960377
9.000891773,-1.208343983,-5.505526543,-2.994893074,2024-06-05 19:18:13.000892
9.041385158,3.114416361,-5.5164814,1.359227896,2024-06-05 19:18:13.041385
9.081877971,1.743697643,-1.148654938,-3.933110237,2024-06-05 19:18:13.081878
9.122259533,2.192528725,-3.111644745,-2.417763948,2024-06-05 19:18:13.122260
9.162724481,3.174641609,-2.49926281,-3.965217113,2024-06-05 19:18:13.162724
9.203229794,4.272173405,-1.906560898,-0.8729133606,2024-06-05 19:18:13.203230
9.243694742,4.747445583,1.019060135,4.362593174,2024-06-05 19:18:13.243695
9.284220106,2.018565178,7.219041824,-3.789757252,2024-06-05 19:18:13.284220
9.324716044,-1.990936279,9.851635933,-1.274488688,2024-06-05 19:18:13.324716
9.365205471,-3.954032183,5.623094559,2.711313248,2024-06-05 19:18:13.365205
9.405623283,-1.692777991,5.034674644,-0.7897102833,2024-06-05 19:18:13.405623
9.446138752,6.06081295,7.276014328,-3.554386854,2024-06-05 19:18:13.446139
9.486628283,3.816529989,-1.261873245,-4.29438591,2024-06-05 19:18:13.486628
9.527123075,-1.657435179,-21.06761932,0.8271534443,2024-06-05 19:18:13.527123
9.567603492,-5.022195339,-6.809240341,3.399047852,2024-06-05 19:18:13.567603
9.608104273,-3.408753395,-0.6447763443,-1.877797127,2024-06-05 19:18:13.608104
9.648558179,-0.8745653629,3.174577713,2.827965736,2024-06-05 19:18:13.648558
9.689057033,1.931622982,5.640003204,6.51088047,2024-06-05 19:18:13.689057
9.729543283,0.5258467197,7.867997169,0.7442517281,2024-06-05 19:18:13.729543
9.770002138,-4.669006824,7.225812435,4.131453514,2024-06-05 19:18:13.770002
9.810498336,-0.9815671444,-1.671507835,9.471006393,2024-06-05 19:18:13.810498
9.850964533,2.83364749,-18.82771301,7.028865814,2024-06-05 19:18:13.850965
9.891485888,0.6670007706,-2.634310722,-3.296388149,2024-06-05 19:18:13.891486
9.932001981,2.240051985,-6.646431923,-5.80788517,2024-06-05 19:18:13.932002
9.972454481,-3.120470285,-3.84653759,-5.572706223,2024-06-05 19:18:13.972454
10.01292677,1.261994839,-0.6472988129,-2.175702333,2024-06-05 19:18:14.012927
10.05338896,0.4125461578,1.631138325,-1.532459974,2024-06-05 19:18:14.053389
10.09386901,-0.3556919098,7.321731091,-3.277971745,2024-06-05 19:18:14.093869
10.13435709,1.165035486,11.51695251,7.695180893,2024-06-05 19:18:14.134357
10.17484104,-1.974457502,4.704677582,-3.02492094,2024-06-05 19:18:14.174841
10.21533917,1.011378527,5.745210648,-3.629354239,2024-06-05 19:18:14.215339
10.25581532,3.96260643,-2.868955612,-0.9214015007,2024-06-05 19:18:14.255815
10.29629344,-2.088517189,-16.35484314,-0.8541597128,2024-06-05 19:18:14.296293
10.33678479,-7.672866821,-6.524280548,0.9027392864,2024-06-05 19:18:14.336785
10.3772638,-7.661253929,-4.010941505,-1.566080451,2024-06-05 19:18:14.377264
10.41774604,-5.311394215,1.422750473,0.6348091364,2024-06-05 19:18:14.417746
10.45823094,-1.830703497,3.393544197,2.106461525,2024-06-05 19:18:14.458231
10.49869657,-0.5162558556,2.215713024,-0.3474341631,2024-06-05 19:18:14.498697
10.5391786,-1.13345623,2.229625225,0.2539634109,2024-06-05 19:18:14.539179
10.57965964,-1.246739149,-0.09157657623,3.410173416,2024-06-05 19:18:14.579660
10.62015516,-2.72791028,-0.1711654663,3.120770216,2024-06-05 19:18:14.620155
10.66061615,0.1062452793,-0.05399990082,-0.6653410792,2024-06-05 19:18:14.660616
10.70111823,0.8744935989,-1.136171341,-1.940083861,2024-06-05 19:18:14.701118
10.74164505,1.748905182,-2.397213936,-0.8131338954,2024-06-05 19:18:14.741645
10.78208386,-0.3481571674,-1.090112686,0.9827390313,2024-06-05 19:18:14.782084
10.82251667,-1.988042951,1.185118675,-1.124490499,2024-06-05 19:18:14.822517
10.86299037,-0.3435231447,-0.8425951004,-1.594644785,2024-06-05 19:18:14.862990
10.90346422,-2.2194767,-1.017026901,-2.606987476,2024-06-05 19:18:14.903464
10.94398901,-3.148768663,0.06477165222,-1.050842166,2024-06-05 19:18:14.943989
10.98451308,-4.009393215,-0.2284584045,4.056070805,2024-06-05 19:18:14.984513
11.0249938,-1.375474095,0.06407165527,1.195368767,2024-06-05 19:18:15.024994
11.06545255,-2.527373791,-0.7928104401,0.1940784454,2024-06-05 19:18:15.065453
11.10594948,-4.036383152,-0.5245361328,-1.055080652,2024-06-05 19:18:15.105949
11.14643886,-2.519645691,-1.004834175,-0.7405149937,2024-06-05 19:18:15.146439
11.18693261,-0.6374781132,0.5141181946,0.1643140018,2024-06-05 19:18:15.186933
11.22739032,0.5228475928,-0.155462265,-0.8545013666,2024-06-05 19:18:15.227390
11.26787334,8.979663849,0.1173830032,-2.277206898,2024-06-05 19:18:15.267873
11.30835703,3.580714226,4.138257027,-3.668792725,2024-06-05 19:18:15.308357
11.34882854,3.182206154,0.4297466278,-3.950002193,2024-06-05 19:18:15.348829
11.38930245,0.3298324347,-3.662003517,15.21850967,2024-06-05 19:18:15.389302
11.42980896,-1.913249016,1.106642723,2.598000765,2024-06-05 19:18:15.429809
11.47028594,-0.2477064431,0.08888626099,-2.409337997,2024-06-05 19:18:15.470286
11.51075292,0.9443750978,-0.0669631958,-1.033763885,2024-06-05 19:18:15.510753
11.5512638,1.00052917,0.6391496658,-4.136764526,2024-06-05 19:18:15.551264
11.59177448,0.5476330519,-0.2388782501,-3.501973629,2024-06-05 19:18:15.591774
11.63220495,0.4318187237,0.5971345901,-2.288490295,2024-06-05 19:18:15.632205
11.6726575,-0.1238268614,0.675157547,-3.173863888,2024-06-05 19:18:15.672657
11.71312203,0.07373785973,-0.02235031128,2.74630022,2024-06-05 19:18:15.713122
11.75359854,0.1562800407,-0.2048931122,-3.370288849,2024-06-05 19:18:15.753599
11.79415026,1.332981348,0.04478359222,-4.151207924,2024-06-05 19:18:15.794150
11.83463042,0.9383530617,-0.6701889038,-0.1109675169,2024-06-05 19:18:15.834630
11.87511406,-2.218817234,-2.646186829,-1.897400975,2024-06-05 19:18:15.875114
11.91559063,0.3354313374,-2.649044037,0.9478209019,2024-06-05 19:18:15.915591
11.95606719,2.679304123,-0.7787466049,3.180459023,2024-06-05 19:18:15.956067
11.99653339,1.224341631,2.644695759,0.5816669464,2024-06-05 19:18:15.996533
12.03702167,0.4733655453,0.9715223312,0.7161068916,2024-06-05 19:18:16.037022
12.07753354,-0.03887295723,-0.2816905975,-0.3866064548,2024-06-05 19:18:16.077534
12.11801776,0.134146452,2.346867561,-2.756130457,2024-06-05 19:18:16.118018
12.15849526,0.6181149483,1.023212433,-1.29443121,2024-06-05 19:18:16.158495
12.19896917,1.036838293,1.140855789,-2.192274809,2024-06-05 19:18:16.198969
12.23944099,-0.1403532028,1.320466042,-4.006874561,2024-06-05 19:18:16.239441
12.27994443,-0.2289524078,0.8141031265,-3.592235565,2024-06-05 19:18:16.279944
12.32038229,-0.1056540012,0.1191101074,-0.2701677084,2024-06-05 19:18:16.320382
12.36087209,-0.9372286797,-0.7587156296,-0.8917115927,2024-06-05 19:18:16.360872
12.40134953,-2.242948771,-1.118414879,-2.77042079,2024-06-05 19:18:16.401350
12.44187412,-1.507757425,0.5306854248,0.5325934887,2024-06-05 19:18:16.441874
12.4823188,0.9859428406,1.290275574,0.7542665005,2024-06-05 19:18:16.482319
12.52279719,1.003685236,-3.627959251,3.034548759,2024-06-05 19:18:16.522797
12.56327558,-1.731240392,-6.832247734,8.693100929,2024-06-05 19:18:16.563276
12.60375396,-0.582937479,-1.425758362,5.827321053,2024-06-05 19:18:16.603754
12.64426047,-0.08053350449,-1.56431675,1.145862699,2024-06-05 19:18:16.644260
12.68474599,0.1836071014,-0.5081996918,0.508679986,2024-06-05 19:18:16.684746
12.72526156,-1.976629853,-1.474660873,3.615960836,2024-06-05 19:18:16.725262
12.76572667,-3.174652576,-1.412742615,1.96214962,2024-06-05 19:18:16.765727
12.80620599,-4.630608559,-0.9425468445,-0.1723014116,2024-06-05 19:18:16.806206
12.84666318,-2.586983204,0.7807321548,1.711841583,2024-06-05 19:18:16.846663
12.88723755,-1.982033253,0.4901685715,-0.6509555578,2024-06-05 19:18:16.887238
12.9276563,-1.119374871,0.1438207626,-0.3957339525,2024-06-05 19:18:16.927656
12.96814547,-1.206954479,-1.93292141,5.409497261,2024-06-05 19:18:16.968145
13.0086499,-0.1456897259,-0.7153215408,-2.722048998,2024-06-05 19:18:17.008650
13.04908089,1.158207893,1.326748848,-0.1369982958,2024-06-05 19:18:17.049081
13.08955849,2.531674623,0.6693887711,-0.03824919462,2024-06-05 19:18:17.089558
13.1300436,4.749724388,2.136820316,-1.266059399,2024-06-05 19:18:17.130044
13.17052375,3.008981228,1.882973194,-1.668822527,2024-06-05 19:18:17.170524
13.21102604,0.8161811829,-1.374191284,-2.326223373,2024-06-05 19:18:17.211026
13.25155938,-2.294515371,-0.04449653625,-1.299537182,2024-06-05 19:18:17.251559
13.29204844,1.265781164,-0.1246480942,8.696342468,2024-06-05 19:18:17.292048
13.3324125,-1.914081573,-1.244805336,-0.4132820368,2024-06-05 19:18:17.332413
13.37288974,-0.9682887793,0.1748199463,-0.9593552947,2024-06-05 19:18:17.372890
13.41336985,0.009156703949,-0.131483078,-1.155391216,2024-06-05 19:18:17.413370
13.45390151,-2.764074802,-0.4816036224,-4.86694622,2024-06-05 19:18:17.453902
13.49438917,-4.28593111,-0.12758255,-0.3746597767,2024-06-05 19:18:17.494389
13.53487016,-0.6490664482,-0.3312988281,7.46811676,2024-06-05 19:18:17.534870
13.57536625,-0.2411620617,-0.05491256714,-0.9853196144,2024-06-05 19:18:17.575366
13.61583672,0.83365345,0.9248380661,-0.1549400091,2024-06-05 19:18:17.615837
13.65630266,0.1600492001,0.0004224777222,1.855839014,2024-06-05 19:18:17.656303
13.69682698,-1.592326403,-1.148557663,1.146118879,2024-06-05 19:18:17.696827
13.73731604,-1.380829334,-0.8533582687,0.1394062042,2024-06-05 19:18:17.737316
13.77778959,-0.835641861,-0.2742271423,2.001833439,2024-06-05 19:18:17.777790
13.81826193,-1.875694156,-1.334960938,0.7800015211,2024-06-05 19:18:17.818262
13.85873495,-1.310211182,-1.191193581,0.3955481052,2024-06-05 19:18:17.858735
13.89920433,-1.614062667,-2.295633316,0.1342458725,2024-06-05 19:18:17.899204
13.93970047,0.8927019835,-2.451462746,2.237344027,2024-06-05 19:18:17.939700
13.98018891,0.3590173721,-1.850359917,2.465128422,2024-06-05 19:18:17.980189
14.0206725,-0.0121049881,-4.086037636,1.476201057,2024-06-05 19:18:18.020672
14.0611463,-2.255295277,-3.87592411,-3.252226114,2024-06-05 19:18:18.061146
14.10166011,0.6182656288,1.307017326,-7.252063751,2024-06-05 19:18:18.101660
14.14214151,7.069081783,6.764847279,-6.471261024,2024-06-05 19:18:18.142142
14.18262167,-0.08526992798,7.947419167,-1.499083877,2024-06-05 19:18:18.182622
14.22310182,-3.359997749,6.727013588,0.830927968,2024-06-05 19:18:18.223102
14.26358203,1.902898788,3.769164562,2.849994183,2024-06-05 19:18:18.263582
14.30404594,5.454600334,0.8746805191,8.871653557,2024-06-05 19:18:18.304046
14.34452901,-2.032488585,0.3020944595,1.758473396,2024-06-05 19:18:18.344529
14.38501464,-0.147550106,-4.68526268,-0.197614491,2024-06-05 19:18:18.385015
14.42549646,1.594396114,-4.248180389,0.8653472066,2024-06-05 19:18:18.425496
14.46596058,-3.032473564,-0.6842813492,-4.916930199,2024-06-05 19:18:18.465961
14.50645026,-2.037116289,-2.617763519,1.024589181,2024-06-05 19:18:18.506450
14.54693818,0.918394804,-1.213577271,2.086415291,2024-06-05 19:18:18.546938
14.5874237,0.3354668617,0.5837745667,-2.200860977,2024-06-05 19:18:18.587424
14.62788927,-0.6852748394,-1.414521217,-2.234713316,2024-06-05 19:18:18.627889
14.66837563,-1.168278813,0.1057605743,-2.268497944,2024-06-05 19:18:18.668376
14.70886209,-2.00494647,-1.027888298,-0.4212396145,2024-06-05 19:18:18.708862
14.74933563,-0.2414646149,-0.3122339249,-1.972116709,2024-06-05 19:18:18.749336
14.78982563,1.168760777,1.367619514,-3.940307617,2024-06-05 19:18:18.789826
14.83030797,2.043397665,1.887052536,0.6204737425,2024-06-05 19:18:18.830308
14.87080662,2.390736103,1.74443531,-1.441127896,2024-06-05 19:18:18.870807
14.91129354,2.860397577,-0.872877121,-3.13284874,2024-06-05 19:18:18.911294
14.9517825,1.114789486,0.1548261642,-2.981592178,2024-06-05 19:18:18.951783
14.99225755,1.447280884,-0.3564252853,-0.4187673926,2024-06-05 19:18:18.992258
15.03273297,0.2228369713,0.4934206009,-3.020805359,2024-06-05 19:18:19.032733
15.07318698,0.4849300385,0.9213991165,-4.16064167,2024-06-05 19:18:19.073187
15.11365427,0.9892427921,-0.9149637222,-1.549786329,2024-06-05 19:18:19.113654
15.15413495,1.096769333,-4.222300529,4.623269081,2024-06-05 19:18:19.154135
15.19465146,-0.5306280851,1.50805521,-2.671348333,2024-06-05 19:18:19.194651
15.23514344,-0.6622852087,-0.133313179,-2.236241341,2024-06-05 19:18:19.235143
15.27562604,-0.9912523031,-0.2778863907,-0.4809792042,2024-06-05 19:18:19.275626
15.3160786,-2.549361467,-0.08308601379,-0.4837822914,2024-06-05 19:18:19.316079
15.35657453,-1.380009651,0.2282772064,-0.3852635622,2024-06-05 19:18:19.356575
15.39700683,0.5274167061,0.1493654251,-0.9472353458,2024-06-05 19:18:19.397007
15.43756287,0.4073214531,0.07480239868,-1.917997122,2024-06-05 19:18:19.437563
15.47802907,-1.305001736,-0.03348445892,-3.815484047,2024-06-05 19:18:19.478029
15.51852,-0.8967115879,-1.703424454,-3.804800034,2024-06-05 19:18:19.518520
15.55899526,-0.1276180744,-1.755925179,-1.675022364,2024-06-05 19:18:19.558995
15.59946037,3.386171341,-2.625720024,0.9826292992,2024-06-05 19:18:19.599460
15.63993073,3.185905695,-0.5790052414,5.495779991,2024-06-05 19:18:19.639931
15.68045974,0.6452150345,1.121379852,3.091011763,2024-06-05 19:18:19.680460
15.72091115,0.6355364323,2.078839302,-1.218486667,2024-06-05 19:18:19.720911
15.76146844,0.7846479416,1.60547924,-1.53320539,2024-06-05 19:18:19.761468
15.80193912,2.074416637,2.364821911,-2.343240023,2024-06-05 19:18:19.801939
15.84231479,2.248187542,2.4170928,-3.015073299,2024-06-05 19:18:19.842315
15.88279599,1.928418398,1.387600899,-2.913626671,2024-06-05 19:18:19.882796
15.92327724,0.1285567284,-2.045789719,-1.648081779,2024-06-05 19:18:19.923277
15.96375854,0.01946973801,-3.249691963,3.531736851,2024-06-05 19:18:19.963759
16.00433417,-2.584179401,-0.7298269272,-3.691900492,2024-06-05 19:18:20.004334
16.04477115,-2.445865393,1.992598057,-2.019127369,2024-06-05 19:18:20.044771
16.08525313,-4.264685631,0.4744625092,-0.842685163,2024-06-05 19:18:20.085253
16.12574823,-4.21428442,-0.5287122726,-1.058618784,2024-06-05 19:18:20.125748
16.16622995,-3.956461906,0.5409965515,0.3437303305,2024-06-05 19:18:20.166230
16.20671396,-1.278782845,2.365015984,0.5013036728,2024-06-05 19:18:20.206714
16.24723068,4.215154648,-4.141442299,5.440972328,2024-06-05 19:18:20.247231
16.28766912,-6.068697929,-9.132504463,20.59214211,2024-06-05 19:18:20.287669
16.32816302,-1.301090717,-5.190781593,0.4097516537,2024-06-05 19:18:20.328163
16.36862417,-2.998697758,-3.655327797,1.014125824,2024-06-05 19:18:20.368624
16.40911558,-2.114599705,-2.839391708,0.1546561718,2024-06-05 19:18:20.409116
16.44958485,-1.084952712,-0.8052520752,-0.8014984131,2024-06-05 19:18:20.449585
16.49006797,-0.6859359741,0.9849996567,-0.6140260696,2024-06-05 19:18:20.490068
16.53056011,-1.069181442,1.124499321,0.7681014538,2024-06-05 19:18:20.530560
16.5710324,-2.130208254,1.522240162,0.1408698559,2024-06-05 19:18:20.571032
16.61158328,-3.778651953,-1.252168655,2.975834131,2024-06-05 19:18:20.611583
16.65200828,-3.418836832,-5.523179054,6.912191391,2024-06-05 19:18:20.652008
16.69243985,-5.258339405,-8.418480873,8.182170868,2024-06-05 19:18:20.692440
16.73292151,-6.086027145,-5.438361168,7.14177227,2024-06-05 19:18:20.732922
16.77340907,-5.329343796,-1.962130547,1.831785679,2024-06-05 19:18:20.773409
16.8139086,0.5696218014,-0.6422462463,-2.309193611,2024-06-05 19:18:20.813909
16.85442985,3.087442875,-2.736248016,-1.503828645,2024-06-05 19:18:20.854430
16.89491906,1.916688204,-0.5030250549,-6.704276085,2024-06-05 19:18:20.894919
16.93540151,0.6137313843,1.353480339,-3.022872686,2024-06-05 19:18:20.935402
16.97589662,-2.918469906,0.2868556976,-4.268848419,2024-06-05 19:18:20.975897
17.01639282,1.257096767,3.171477318,-4.912789345,2024-06-05 19:18:21.016393
17.05685443,3.071286678,4.569102287,-3.370385408,2024-06-05 19:18:21.056854
17.09732703,2.78710103,4.753995895,-1.132197857,2024-06-05 19:18:21.097327
17.13779636,1.137969255,-1.520781517,6.302749634,2024-06-05 19:18:21.137796
17.17828474,0.4843387604,-4.534113884,2.206944227,2024-06-05 19:18:21.178285
17.21877808,4.410433769,-4.193126678,-0.35648489,2024-06-05 19:18:21.218778
17.25925912,3.705495119,-0.8398475647,-2.917446375,2024-06-05 19:18:21.259259
17.29974516,0.7362611294,4.163221836,-8.474672318,2024-06-05 19:18:21.299745
17.34022401,0.2593569756,-0.6369285583,-8.645852089,2024-06-05 19:18:21.340224
17.38070172,0.6442599297,-0.006039619446,-3.255991459,2024-06-05 19:18:21.380702
17.42117479,3.250704765,-0.3641662598,-4.997337341,2024-06-05 19:18:21.421175
17.46168349,-1.489377022,1.109807014,-3.803851843,2024-06-05 19:18:21.461683
17.50217578,-5.885809898,-4.470179558,16.02399063,2024-06-05 19:18:21.502176
17.54256776,-0.6997711658,2.39487505,-1.074853659,2024-06-05 19:18:21.542568
17.58304959,-1.723302126,1.882967949,1.125810504,2024-06-05 19:18:21.583050
17.62354558,0.2965711355,0.7045087814,13.07021618,2024-06-05 19:18:21.623546
17.66405896,-2.329693079,1.285532951,-0.3469288051,2024-06-05 19:18:21.664059
17.70454266,-1.808957577,2.369262695,-0.5285724998,2024-06-05 19:18:21.704543
17.74503125,-3.433810234,-5.35832119,0.34963274,2024-06-05 19:18:21.745031
17.78552292,2.290599823,-8.927495956,-6.211346149,2024-06-05 19:18:21.785523
17.82601443,4.859985352,-6.960416794,-5.409309387,2024-06-05 19:18:21.826014
17.86649016,8.918074608,-4.125203133,-6.545091629,2024-06-05 19:18:21.866490
17.90698386,2.878164053,1.902657509,-8.183389664,2024-06-05 19:18:21.906984
17.94748636,1.709241152,1.983932018,-7.851115704,2024-06-05 19:18:21.947486
17.98792948,2.07697463,0.7399892807,-1.663397312,2024-06-05 19:18:21.987929
18.02841193,1.781752348,-1.073504448,0.5179319382,2024-06-05 19:18:22.028412
18.06889693,0.8004999161,3.375601292,-7.315844536,2024-06-05 19:18:22.068897
18.1093899,2.252078295,2.995202065,-1.862858534,2024-06-05 19:18:22.109390
18.14987979,3.211197376,0.8149328232,2.390412569,2024-06-05 19:18:22.149880
18.19035662,-0.3554973602,0.7529258728,-5.811142921,2024-06-05 19:18:22.190357
18.23082688,1.166773319,-0.3532857895,-6.293148518,2024-06-05 19:18:22.230827
18.27132964,1.307775974,-0.3284816742,-0.4674828053,2024-06-05 19:18:22.271330
18.31185261,0.4943563938,-0.1332092285,-0.776673615,2024-06-05 19:18:22.311853
18.35234912,1.370116234,-0.2844276428,-2.31362462,2024-06-05 19:18:22.352349
18.3927137,4.293164253,0.3269109726,-2.487112284,2024-06-05 19:18:22.392714
18.4331962,7.23333025,0.5559844971,-2.216992378,2024-06-05 19:18:22.433196
18.47367875,4.564183712,-4.982046127,-3.750103474,2024-06-05 19:18:22.473679
18.51421209,-4.052700043,-8.454697609,12.37409687,2024-06-05 19:18:22.514212
18.55469656,-5.308411598,-1.20798111,7.481277466,2024-06-05 19:18:22.554697
18.59518432,-5.053986549,-3.297843933,1.547117591,2024-06-05 19:18:22.595184
18.63563849,-6.96122551,-2.836855888,1.974805951,2024-06-05 19:18:22.635638
18.67612912,-3.511947393,0.8719787598,-0.998603344,2024-06-05 19:18:22.676129
18.71661657,-1.032374382,2.816654682,-2.083828449,2024-06-05 19:18:22.716617
18.75708313,-0.298717618,3.974416256,-0.9430376887,2024-06-05 19:18:22.757083
18.79756188,0.7810009718,1.987545967,0.1637119651,2024-06-05 19:18:22.797562
18.83806193,4.041855335,-0.7968683243,2.28823328,2024-06-05 19:18:22.838062
18.87853651,1.085410357,-1.22558403,3.325434923,2024-06-05 19:18:22.878537
18.91903104,-0.9299558401,-0.506734848,3.307431221,2024-06-05 19:18:22.919031
18.95953365,-1.692629457,-0.06262683868,-1.265064836,2024-06-05 19:18:22.959534
19.00000282,-0.9263902903,0.53901577,-2.403231382,2024-06-05 19:18:23.000003
19.04046479,-1.0981884,0.9817838669,-2.00844717,2024-06-05 19:18:23.040465
19.08095948,0.5507435799,-1.034010887,-4.290147781,2024-06-05 19:18:23.080959
19.1214812,-0.08458065987,-1.554741859,-3.855766535,2024-06-05 19:18:23.121481
19.16196417,6.305964947,2.598506451,-3.686146975,2024-06-05 19:18:23.161964
19.20238672,5.080805302,1.910459518,-0.2587711811,2024-06-05 19:18:23.202387
19.24286974,-1.258016109,-1.858373642,4.656609535,2024-06-05 19:18:23.242870
19.28331011,-1.765283585,0.4181671143,5.43911314,2024-06-05 19:18:23.283310
19.32384391,-5.643325806,-4.928740501,7.314444542,2024-06-05 19:18:23.323844
19.36430651,-0.3356659412,0.3632736206,4.46180582,2024-06-05 19:18:23.364307
19.40477542,-1.940540552,3.109698772,-0.7669320107,2024-06-05 19:18:23.404775
19.44530412,-1.655745029,2.816917896,-1.943353891,2024-06-05 19:18:23.445304
19.48578578,1.067090273,4.551303864,-0.7306134701,2024-06-05 19:18:23.485786
19.52627005,-0.2617070675,3.906803131,-0.7040953636,2024-06-05 19:18:23.526270
19.56673443,-0.8327460289,2.217173576,1.952314377,2024-06-05 19:18:23.566734
19.60721578,-0.7240457535,-0.7825222015,3.142466784,2024-06-05 19:18:23.607216
19.64767714,1.385218382,3.58716011,2.528241396,2024-06-05 19:18:23.647677
19.68820068,-1.42035675,0.1241703033,7.313490391,2024-06-05 19:18:23.688201
19.72868063,-0.6413412094,-3.456084251,5.275902748,2024-06-05 19:18:23.728681
19.7691375,0.7440266609,-3.596394539,5.064801216,2024-06-05 19:18:23.769137
19.80964703,-1.253051281,1.680672169,-2.302464485,2024-06-05 19:18:23.809647
19.85010849,-0.6973032951,2.558358192,-2.157135248,2024-06-05 19:18:23.850108
19.89062063,1.035851002,-0.8748931885,-2.876371861,2024-06-05 19:18:23.890621
19.93106349,-3.402365208,-4.263908386,-1.941342115,2024-06-05 19:18:23.931063
19.97163672,-2.969458342,-2.365945816,-2.011720181,2024-06-05 19:18:23.971637
20.01208318,-0.7199544907,2.579807281,3.616963387,2024-06-05 19:18:24.012083
20.0525025,-0.9237067699,2.250576019,2.085698128,2024-06-05 19:18:24.052502
20.09298417,2.948512554,-2.189673424,-3.305707693,2024-06-05 19:18:24.092984
20.13346193,1.504445791,-0.7016572952,-2.223626137,2024-06-05 19:18:24.133462
20.17395698,0.1094369888,-0.2748804092,3.896009922,2024-06-05 19:18:24.173957
20.21446261,-2.331272602,0.3594493866,0.2003382444,2024-06-05 19:18:24.214463
20.25494552,-3.107721329,0.8618602753,1.062982559,2024-06-05 19:18:24.254946
20.29543839,-1.970656157,-0.5803842545,1.464322686,2024-06-05 19:18:24.295438
20.3359163,-1.532575369,-2.106398582,0.2709561586,2024-06-05 19:18:24.335916
20.37636792,-2.639012337,0.2231369019,-0.249370575,2024-06-05 19:18:24.376368
20.4168325,-1.488242865,0.04306983948,-0.6881459951,2024-06-05 19:18:24.416833
20.45734209,-1.631133556,-1.03694725,-1.014672041,2024-06-05 19:18:24.457342
20.49782714,-0.8398659229,-0.7399721146,-1.047415257,2024-06-05 19:18:24.497827
20.53832573,0.5641171932,0.09093379974,-0.6797975302,2024-06-05 19:18:24.538326
20.57883156,1.812308073,1.211063385,-0.9877939224,2024-06-05 19:18:24.578832
20.61926474,1.584628105,0.1996593475,-0.05596888065,2024-06-05 19:18:24.619265
20.65973901,0.9582951069,-1.522470474,2.855792761,2024-06-05 19:18:24.659739
20.70025125,-1.149257779,-1.228205681,1.659479022,2024-06-05 19:18:24.700251
20.74072995,-1.212753296,-0.1620693207,0.313939333,2024-06-05 19:18:24.740730
20.78123037,-0.4699277878,0.6773099899,0.5606715679,2024-06-05 19:18:24.781230
20.82174151,-0.1031422615,1.013771057,-1.797681451,2024-06-05 19:18:24.821742
20.86219495,0.9377877712,1.460517883,-2.706571579,2024-06-05 19:18:24.862195
20.90261568,3.895081282,0.6821088791,0.001592069864,2024-06-05 19:18:24.902616
20.94309735,0.673363924,-0.1750440598,0.07089662552,2024-06-05 19:18:24.943097
20.98357912,0.1143581867,0.2271366119,0.98616153,2024-06-05 19:18:24.983579
21.02408625,2.969633818,-0.7137365341,-0.9308798313,2024-06-05 19:18:25.024086
21.06457703,2.372725248,0.7983379364,-5.690761566,2024-06-05 19:18:25.064577
21.10505735,0.2315306664,1.47522068,-4.727270603,2024-06-05 19:18:25.105057
21.14553938,-1.235090017,0.4958896637,-3.767833471,2024-06-05 19:18:25.145539
21.18604282,-1.16169405,0.2582778931,-1.234551907,2024-06-05 19:18:25.186043
21.22651828,-0.9924213886,-1.324345589,1.627246022,2024-06-05 19:18:25.226518
21.26700651,-1.6121912,-1.781971931,4.376164436,2024-06-05 19:18:25.267007
21.30748542,0.4283595085,-0.3274793625,1.364080429,2024-06-05 19:18:25.307485
21.34796427,2.293290854,2.10846138,-1.802538395,2024-06-05 19:18:25.347964
21.38844755,2.602464199,0.952548027,-3.522857189,2024-06-05 19:18:25.388448
21.42893089,1.07489419,0.6070251465,-2.778595209,2024-06-05 19:18:25.428931
21.46940453,-0.01191020012,0.7262983322,-2.976870775,2024-06-05 19:18:25.469405
21.50989271,0.2055556774,-0.1661329269,-2.784499407,2024-06-05 19:18:25.509893
21.55038469,0.3615765572,-0.4083604813,-1.418278694,2024-06-05 19:18:25.550385
21.59085224,-0.3799510002,0.9562644958,-0.05840390921,2024-06-05 19:18:25.590852
21.63132209,-0.09977698326,0.4205093384,-0.9514789581,2024-06-05 19:18:25.631322
21.67185474,-0.1909565926,0.503865242,-1.324283242,2024-06-05 19:18:25.671855
21.71229735,0.832069397,-0.6712741852,-1.958322287,2024-06-05 19:18:25.712297
21.75277094,-0.1413133144,-1.46444416,-1.357547998,2024-06-05 19:18:25.752771
21.79326505,-2.842191219,-4.580924034,12.95973873,2024-06-05 19:18:25.793265
21.83374724,-5.623540878,-4.182871819,7.600161552,2024-06-05 19:18:25.833747
21.87425662,-3.016179323,-4.285293579,1.490777493,2024-06-05 19:18:25.874257
21.91475005,-2.727846384,-2.069918633,0.5638206005,2024-06-05 19:18:25.914750
21.95520334,-0.6892770529,-0.4119710922,1.967758536,2024-06-05 19:18:25.955203
21.99571308,0.02374172211,0.7975149155,0.034542799,2024-06-05 19:18:25.995713
22.03616787,1.804640412,1.949400425,1.422698259,2024-06-05 19:18:26.036168
22.07666078,1.000212908,1.497553825,-0.348990202,2024-06-05 19:18:26.076661
22.11712636,-1.822749019,-0.1662082672,-0.4649014473,2024-06-05 19:18:26.117126
22.15760886,-2.780559063,-1.291745186,2.525967121,2024-06-05 19:18:26.157609
22.19812703,-2.800528526,-2.005766869,1.56731987,2024-06-05 19:18:26.198127
22.2385663,0.124199152,-4.989326477,3.448106766,2024-06-05 19:18:26.238566
22.2790525,1.459707975,-6.975876808,3.528451443,2024-06-05 19:18:26.279052
22.31953005,0.06699156761,-3.15272522,-0.6062333584,2024-06-05 19:18:26.319530
22.36006547,-1.327634096,1.949590206,-2.443272591,2024-06-05 19:18:26.360065
22.40054802,-1.635260344,5.017516613,-2.326687574,2024-06-05 19:18:26.400548
22.44098969,-1.463084936,6.551826954,-2.51441884,2024-06-05 19:18:26.440990
22.48151323,-2.945438862,4.887431145,-3.779409409,2024-06-05 19:18:26.481513
22.52200901,-1.756612062,4.450221539,-3.280615568,2024-06-05 19:18:26.522009
22.56238276,0.1763663292,5.838470459,-1.112056136,2024-06-05 19:18:26.562383
22.60286526,-1.984984756,2.082706928,-2.076332808,2024-06-05 19:18:26.602865
22.64339849,-2.718061447,-2.427792549,-5.366204262,2024-06-05 19:18:26.643398
22.68388094,3.000563622,-4.798258781,2.084566832,2024-06-05 19:18:26.683881
22.72435854,7.662490368,-7.265979767,13.52657604,2024-06-05 19:18:26.724359
22.76482886,6.2850914,-0.1373004913,0.1255233288,2024-06-05 19:18:26.764829
22.8053349,-0.01576423645,0.1765127182,-0.8409044743,2024-06-05 19:18:26.805335
22.84581235,-1.850665331,-2.937606812,-1.022871614,2024-06-05 19:18:26.845812
22.88629448,-1.640757799,0.8990440369,1.00258112,2024-06-05 19:18:26.886294
22.92675933,-2.742585182,1.803315639,-0.5497207046,2024-06-05 19:18:26.926759
22.96725349,-0.140999794,3.943347931,-1.060390115,2024-06-05 19:18:26.967253
23.00775334,2.549664497,2.729236603,-1.987717867,2024-06-05 19:18:27.007753
23.04823511,6.427997589,-1.386985779,-5.281442642,2024-06-05 19:18:27.048235
23.08874219,4.350944519,-1.14371109,-1.366057277,2024-06-05 19:18:27.088742
23.12919,-0.1852970123,-2.230121613,0.2082390189,2024-06-05 19:18:27.129190
23.16967261,-1.369063139,-0.4175920486,-1.973179698,2024-06-05 19:18:27.169673
23.21016047,-1.057139516,0.3358421326,-1.642180443,2024-06-05 19:18:27.210160
23.25062922,-0.1390964985,0.1842164993,-0.164347291,2024-06-05 19:18:27.250629
23.29109427,-0.6331684589,0.6408243179,-1.599336624,2024-06-05 19:18:27.291094
23.3316537,-0.9856024981,0.2222166061,-2.174280643,2024-06-05 19:18:27.331654
23.3721475,-1.143459797,-0.9414415359,4.974218845,2024-06-05 19:18:27.372148
23.41263,-1.180691242,-1.248660088,0.2756342888,2024-06-05 19:18:27.412630
23.45311261,-1.880087852,-0.45337677,-2.722890854,2024-06-05 19:18:27.453113
23.49349214,-0.6618211269,0.9007606506,0.9008647203,2024-06-05 19:18:27.493492
23.53398834,-0.6753976345,0.3114910126,-0.1111304015,2024-06-05 19:18:27.533988
23.57450464,0.2278831005,0.1814699173,0.5070048571,2024-06-05 19:18:27.574505
23.6150136,0.3203749657,-0.1196165085,0.3313956261,2024-06-05 19:18:27.615014
23.65550677,-1.615912437,-0.6215372086,-1.722441196,2024-06-05 19:18:27.655507
23.69595302,-1.660664558,-0.4487571716,-0.2293969542,2024-06-05 19:18:27.695953
23.73642261,-1.165240765,0.2521238327,-1.11468935,2024-06-05 19:18:27.736423
23.77690292,-0.4788595438,0.5759620667,-0.4387050271,2024-06-05 19:18:27.776903
23.81740448,0.9627282619,-0.03549194336,0.8903030753,2024-06-05 19:18:27.817404
23.8578774,0.6600551605,-0.5883693695,1.402824879,2024-06-05 19:18:27.857877
23.8983599,-0.6286094189,-0.04577922821,1.189113617,2024-06-05 19:18:27.898360
23.93884896,-0.9123625755,-0.09707069397,-0.3458352089,2024-06-05 19:18:27.938849
23.97933224,-1.458616495,-0.5616226196,-1.760284781,2024-06-05 19:18:27.979332
24.01980167,-3.305649519,-0.0563993454,0.5202356577,2024-06-05 19:18:28.019802
24.06028953,-3.579171658,-1.535420418,-0.1579850912,2024-06-05 19:18:28.060290
24.1007649,-4.519219875,-2.095603943,-0.3077428937,2024-06-05 19:18:28.100765
24.14126469,-4.196608543,-0.8063716888,-0.1623373926,2024-06-05 19:18:28.141265
24.18175052,-3.302515984,-0.9372644424,-0.3925359845,2024-06-05 19:18:28.181751
24.22223959,-1.591012001,-1.748063087,-2.042537451,2024-06-05 19:18:28.222240
24.26266526,0.2081944942,-2.491075516,-0.2603738904,2024-06-05 19:18:28.262665
24.30317849,-0.3325438499,-0.4142847061,1.664561868,2024-06-05 19:18:28.303178
24.34366073,-1.466539383,0.03326702118,5.664048672,2024-06-05 19:18:28.343661
24.38409084,-1.448856115,0.1153678894,1.023875713,2024-06-05 19:18:28.384091
24.42461636,-1.927525163,-1.764881134,-4.120551586,2024-06-05 19:18:28.424616
24.46510328,-1.74225378,-0.9466981888,-2.41225338,2024-06-05 19:18:28.465103
24.50557464,0.5750722885,-1.811663628,-2.810015202,2024-06-05 19:18:28.505575
24.54605844,2.632609129,-3.286021233,-2.93765974,2024-06-05 19:18:28.546058
24.58654938,1.406534433,-2.230851173,-3.37078476,2024-06-05 19:18:28.586549
24.62702037,3.165816069,-1.085887909,0.6674163342,2024-06-05 19:18:28.627020
24.66751792,3.433116674,3.703505993,-0.9579281807,2024-06-05 19:18:28.667518
24.70802162,0.6287975311,6.190845013,-1.770559192,2024-06-05 19:18:28.708022
24.7485062,0.2026236057,7.223796844,1.393097758,2024-06-05 19:18:28.748506
24.78896532,-0.3944997787,3.211050987,4.260608673,2024-06-05 19:18:28.788965
24.82944406,-6.187430382,-2.070199966,1.019805431,2024-06-05 19:18:28.829444
24.86995995,-2.927562237,2.603397369,2.539558887,2024-06-05 19:18:28.869960
24.91043412,-0.5370430946,3.02445507,-5.196344376,2024-06-05 19:18:28.910434
24.95090584,-0.8655136824,-3.218791008,-7.017477989,2024-06-05 19:18:28.950906
24.99139953,7.963282585,-6.457452774,-9.049405098,2024-06-05 19:18:28.991400
25.03191203,8.928748131,-2.775704384,-8.346238136,2024-06-05 19:18:29.031912
25.07233136,2.76970911,-3.166611671,4.009804249,2024-06-05 19:18:29.072331
25.11277604,-2.767294645,-3.623972893,0.5846660137,2024-06-05 19:18:29.112776
25.15325844,-2.799679279,-3.424429893,-4.528632641,2024-06-05 19:18:29.153258
25.19377573,-0.4582241774,-0.2719573975,1.802356124,2024-06-05 19:18:29.193776
25.23425125,1.259576559,1.938951015,-3.019631147,2024-06-05 19:18:29.234251
25.27474448,0.1470057964,0.9137458801,-0.6374368668,2024-06-05 19:18:29.274744
25.31524735,1.451380491,0.4812355042,2.337219715,2024-06-05 19:18:29.315247
25.35572068,0.3309755325,-0.06129741669,-1.152887821,2024-06-05 19:18:29.355721
25.39615625,-2.081831694,1.587498188,-1.741740823,2024-06-05 19:18:29.396156
25.43672761,-0.9142034054,-0.1644458771,-1.006724954,2024-06-05 19:18:29.436728
25.47716802,-0.6979422569,-2.372494698,2.50970602,2024-06-05 19:18:29.477168
25.51765323,0.7508592606,0.8133897781,-6.355432034,2024-06-05 19:18:29.517653
25.55814323,1.70555532,0.5245332718,-6.287823677,2024-06-05 19:18:29.558143
25.59862761,-1.947570801,-1.298760414,-0.6806563735,2024-06-05 19:18:29.598628
25.63907229,-1.451947689,-0.5414180756,-1.638566256,2024-06-05 19:18:29.639072
25.67958334,3.752176285,-0.4793672562,0.1964193583,2024-06-05 19:18:29.679583
25.72008271,4.440336227,0.5141830444,1.834277749,2024-06-05 19:18:29.720083
25.76055282,2.377349138,-0.01048469543,-0.9694968462,2024-06-05 19:18:29.760553
25.80102136,-2.032375097,-0.8792047501,-0.3887419701,2024-06-05 19:18:29.801021
25.84156073,-5.926246643,-4.784601212,3.812875032,2024-06-05 19:18:29.841561
25.88204328,-5.606253624,0.1505823135,2.034894705,2024-06-05 19:18:29.882043
25.92244938,-1.734497666,3.043362617,-0.1394262314,2024-06-05 19:18:29.922449
25.96293203,-1.382629752,0.7225208282,-2.337361097,2024-06-05 19:18:29.962932
26.00341479,0.4584643841,1.51292944,-0.1010892391,2024-06-05 19:18:30.003415
26.04389745,1.935618877,0.8453249931,1.835175514,2024-06-05 19:18:30.043897
26.08439328,1.832099915,0.7338619232,1.588404894,2024-06-05 19:18:30.084393
26.12488287,-0.7952792645,-0.7473535538,3.676483154,2024-06-05 19:18:30.124883
26.16536558,-2.944252968,0.4811611176,1.425207853,2024-06-05 19:18:30.165366
26.20584662,-2.136726618,1.672902107,0.08454394341,2024-06-05 19:18:30.205847
26.24633464,0.7958185673,2.684229851,1.923337221,2024-06-05 19:18:30.246335
26.28683615,2.684022427,1.019145012,2.170487642,2024-06-05 19:18:30.286836
26.32732339,-1.580341101,2.79202795,-3.118283749,2024-06-05 19:18:30.327323
26.36778563,2.458558083,-6.074318886,-0.3583903313,2024-06-05 19:18:30.367786
26.40826229,-3.179843903,-6.296462059,-3.045474529,2024-06-05 19:18:30.408262
26.44879193,-1.236669064,4.302739143,-3.561395168,2024-06-05 19:18:30.448792
26.48922604,-0.02064538002,-2.86237812,0.08343851566,2024-06-05 19:18:30.489226
26.52968719,-3.185901642,-1.843815804,0.3752310276,2024-06-05 19:18:30.529687
26.57018198,-2.595091105,2.038862228,-0.1830188036,2024-06-05 19:18:30.570182
26.6106774,-1.441313744,-0.03603839874,0.6886923313,2024-06-05 19:18:30.610677
26.65113068,-1.542078137,-0.4971828461,-0.3979654908,2024-06-05 19:18:30.651131
26.69168287,-1.805024147,-0.1045198441,0.7069906592,2024-06-05 19:18:30.691683
26.73218334,-2.206516027,0.7413988113,-0.02952444553,2024-06-05 19:18:30.732183
26.77258157,-1.907366753,-0.450006485,0.6379954815,2024-06-05 19:18:30.772582
26.81307058,-2.119383812,-0.5045871735,-0.6054477692,2024-06-05 19:18:30.813071
26.85355245,0.225433588,-0.3900709152,0.8289200664,2024-06-05 19:18:30.853552
26.8940536,1.363896847,-0.3392925262,1.780129433,2024-06-05 19:18:30.894054
26.93453047,-6.018524647,-3.03579998,4.719427109,2024-06-05 19:18:30.934530
26.97501735,-5.800761223,-1.378417969,4.497545719,2024-06-05 19:18:30.975017
27.01551808,-4.980285168,-2.444013596,0.1055743694,2024-06-05 19:18:31.015518
27.05597755,0.3244181871,-4.561153412,7.322314262,2024-06-05 19:18:31.055978
27.0964613,5.730208397,-3.609798431,-1.46892345,2024-06-05 19:18:31.096461
27.13694391,2.367680311,-0.782207489,-1.654571056,2024-06-05 19:18:31.136944
27.17742943,4.361201286,-1.108400345,-3.330085516,2024-06-05 19:18:31.177429
27.21790735,8.114094734,-4.214646339,-3.677452564,2024-06-05 19:18:31.217907
27.25836839,1.998242021,1.716238976,-8.162843704,2024-06-05 19:18:31.258368
27.29886073,1.176629901,3.359455109,-6.836253166,2024-06-05 19:18:31.298861
27.33935677,1.683769464,3.464686871,-6.154434681,2024-06-05 19:18:31.339357
27.37983526,1.918104053,1.640144348,-4.16125536,2024-06-05 19:18:31.379835
27.42030844,3.890288115,-2.504423141,1.811520338,2024-06-05 19:18:31.420308
27.46078641,2.931829453,0.8279390335,-7.806141376,2024-06-05 19:18:31.460786
27.50130724,5.426322937,1.673550606,-3.258918762,2024-06-05 19:18:31.501307
27.54182,5.727938652,-0.2082843781,-0.3628078699,2024-06-05 19:18:31.541820
27.5822861,1.009797573,0.7755899429,-3.839060783,2024-06-05 19:18:31.582286
27.62270964,2.961615562,0.5985984802,5.461363792,2024-06-05 19:18:31.622710
27.66319396,-0.9949537516,-1.00487709,-0.738565743,2024-06-05 19:18:31.663194
27.70367599,-2.389168262,0.2489385605,-4.028538704,2024-06-05 19:18:31.703676
27.74417865,0.5608013868,1.961981297,-2.173858643,2024-06-05 19:18:31.744179
27.78467568,-0.07194924355,1.956856251,-6.581130505,2024-06-05 19:18:31.784676
27.82514766,3.593899488,-0.01517963409,-5.566707611,2024-06-05 19:18:31.825148
27.86565089,1.293548346,-5.795137405,1.737397194,2024-06-05 19:18:31.865651
27.90614709,0.3902175426,-3.909221649,24.72457123,2024-06-05 19:18:31.906147
27.94660938,-1.325008869,-2.819215775,1.882475972,2024-06-05 19:18:31.946609
27.98708417,0.9137086868,-3.441718102,1.656212568,2024-06-05 19:18:31.987084
28.02757,-2.897507191,0.1406898499,-1.73505795,2024-06-05 19:18:32.027570
28.0680436,-3.149514198,0.2813177109,0.6331079602,2024-06-05 19:18:32.068044
28.10852943,-3.72045517,-1.69421196,0.9338975549,2024-06-05 19:18:32.108529
28.14900328,-2.829927444,-0.5260286331,0.3451570272,2024-06-05 19:18:32.149003
28.18948521,-0.6687794924,1.471477509,0.1315411329,2024-06-05 19:18:32.189485
28.22997276,1.904029369,0.9667701721,2.468608141,2024-06-05 19:18:32.229973
28.27044094,-0.3875666857,-0.6293439865,-1.054251075,2024-06-05 19:18:32.270441
28.3109362,-2.783725739,-0.5067033768,1.723689079,2024-06-05 19:18:32.310936
28.35144875,-1.689485669,-0.4988336563,0.0205296278,2024-06-05 19:18:32.351449
28.39194136,1.905819416,-0.7178058624,1.004831791,2024-06-05 19:18:32.391941
28.43243604,1.003168344,0.8691616058,-1.054699659,2024-06-05 19:18:32.432436
28.47292459,-2.246742964,0.3852424622,0.2311401367,2024-06-05 19:18:32.472925
28.51340714,-2.599157572,-0.19099617,0.08728122711,2024-06-05 19:18:32.513407
28.55388979,-2.879835367,-0.8827371597,1.110101938,2024-06-05 19:18:32.553890
28.59433485,-3.691008091,-1.977589607,1.524948239,2024-06-05 19:18:32.594335
28.63483964,-2.553594828,-2.425191879,2.794077873,2024-06-05 19:18:32.634840
28.67530198,-2.228528023,-4.512537003,5.335040569,2024-06-05 19:18:32.675302
28.71576141,-2.439693451,-3.161422729,2.251449823,2024-06-05 19:18:32.715761
28.7562274,-2.724675655,-0.1894731522,-2.748994589,2024-06-05 19:18:32.756227
28.79672021,-2.351144314,-0.7091245651,-4.552826881,2024-06-05 19:18:32.796720
28.83721698,1.751582623,2.591572285,-4.229035378,2024-06-05 19:18:32.837217
28.87770318,6.676036835,3.853115559,-4.058385849,2024-06-05 19:18:32.877703
28.91819646,4.495973587,2.816209793,-3.074500561,2024-06-05 19:18:32.918196
28.95864735,4.224164009,3.674238682,-3.568646669,2024-06-05 19:18:32.958647
28.99913662,5.138679504,-0.805390358,-6.396393776,2024-06-05 19:18:32.999137
29.03961901,2.939296007,0.4067392349,-0.2069154978,2024-06-05 19:18:33.039619
29.08011505,1.276309729,1.596201897,8.13571167,2024-06-05 19:18:33.080115
29.12058724,0.001044511795,-1.822148323,0.7288038731,2024-06-05 19:18:33.120587
29.16108823,5.262591362,2.586148739,0.9674901962,2024-06-05 19:18:33.161088
29.20159938,0.1531090736,1.341822624,-3.299769163,2024-06-05 19:18:33.201599
29.24210578,-2.771083593,-1.37264061,-3.694727659,2024-06-05 19:18:33.242106
29.28258834,-0.4860668182,-2.276054382,-2.698362827,2024-06-05 19:18:33.282588
29.32302198,-1.693881989,-0.5360603333,-2.921313286,2024-06-05 19:18:33.323022
29.36352011,-0.7914652824,1.571437836,-1.254686475,2024-06-05 19:18:33.363520
29.40400308,4.015159607,1.741954803,0.9173247814,2024-06-05 19:18:33.404003
29.44443521,4.276256561,1.29297924,-1.132119417,2024-06-05 19:18:33.444435
29.48493292,2.206632614,0.02123069763,-1.148867846,2024-06-05 19:18:33.484933
29.52539651,1.105322838,0.02878856659,1.073650241,2024-06-05 19:18:33.525397
29.56587974,0.8692948818,0.9486856461,-1.118449807,2024-06-05 19:18:33.565880
29.60638297,0.529712677,1.798340797,-1.974311471,2024-06-05 19:18:33.606383
29.64682828,0.8402721882,1.627840519,-2.006822348,2024-06-05 19:18:33.646828
29.68735985,1.313113928,1.755897045,-1.999966621,2024-06-05 19:18:33.687360
29.72782714,1.884901285,1.381572723,-2.218539,2024-06-05 19:18:33.727827
29.76830375,3.051980972,0.04269981384,-3.008535147,2024-06-05 19:18:33.768304
29.80877459,4.873096466,-2.111401558,-3.011395931,2024-06-05 19:18:33.808775
29.84927146,1.475171328,-1.904376984,1.934164762,2024-06-05 19:18:33.849271
29.88975078,-3.178304672,-1.00621891,12.62022781,2024-06-05 19:18:33.889751
29.9302487,-6.724729538,-0.9007377625,1.545139551,2024-06-05 19:18:33.930249
29.97073391,-1.579153776,-2.991874695,4.326909542,2024-06-05 19:18:33.970734
30.01122688,-2.459375858,-1.15881443,-1.35856235,2024-06-05 19:18:34.011227
30.05172511,-0.9857729673,-1.365346909,-2.007665634,2024-06-05 19:18:34.051725
30.09215584,-1.710956812,-0.6595907211,-3.379794598,2024-06-05 19:18:34.092156
30.1326336,-0.9487948418,-0.7942523956,0.7509404421,2024-06-05 19:18:34.132634
30.17311589,1.711199522,-0.5040111542,0.5092251301,2024-06-05 19:18:34.173116
30.21359808,0.5564990044,1.259694099,-2.675311089,2024-06-05 19:18:34.213598
30.25408703,0.2599525452,1.230910301,-3.184483767,2024-06-05 19:18:34.254087
30.2945888,0.3753490448,0.192196846,-1.42267549,2024-06-05 19:18:34.294589
30.33507,1.352939129,1.119160652,-2.53981781,2024-06-05 19:18:34.335070
30.37552526,2.413828373,0.9845046997,-2.413375854,2024-06-05 19:18:34.375525
30.41601896,2.860711098,0.6423330307,-1.295994759,2024-06-05 19:18:34.416019
30.45652011,2.613377571,0.8868112564,-1.812985539,2024-06-05 19:18:34.456520
30.49698875,0.1549801826,-0.8635416031,-1.147548318,2024-06-05 19:18:34.496989
30.5374686,2.874377251,0.04914569855,2.84070158,2024-06-05 19:18:34.537469
30.57796209,4.167926788,-1.414904594,5.833109379,2024-06-05 19:18:34.577962
30.61842682,-0.5585086346,-4.647889137,0.9620234966,2024-06-05 19:18:34.618427
30.65890005,-2.365616083,-4.65324688,-0.8932507038,2024-06-05 19:18:34.658900
30.69938782,-5.741812706,-5.622439384,1.940907717,2024-06-05 19:18:34.699388
30.7398837,-2.557955742,1.343606949,9.871440887,2024-06-05 19:18:34.739884
30.78036193,-2.852382898,8.947291374,-5.823980331,2024-06-05 19:18:34.780362
30.82083584,-3.239998817,10.15771198,3.392874718,2024-06-05 19:18:34.820836
30.86132177,2.287708759,9.793649673,2.036663294,2024-06-05 19:18:34.861322
30.90185203,12.45763016,11.3047123,-8.793931961,2024-06-05 19:18:34.901852
30.94232662,-3.343567133,-6.848536015,9.771040916,2024-06-05 19:18:34.942327
30.98277677,-4.161689758,-9.482622147,2.24960804,2024-06-05 19:18:34.982777
31.02325297,-0.7587995529,-6.321427345,7.683190346,2024-06-05 19:18:35.023253
31.06369839,-1.989741802,1.223582745,4.068312168,2024-06-05 19:18:35.063698
31.10419995,-0.2942318916,0.5372514725,4.339427948,2024-06-05 19:18:35.104200
31.14469219,-3.588909149,3.896499872,-1.786342621,2024-06-05 19:18:35.144692
31.18518078,-4.022303581,0.7536702156,3.267614365,2024-06-05 19:18:35.185181
31.22566865,-1.651331663,-1.773583889,2.336412191,2024-06-05 19:18:35.225669
31.26615959,7.935193539,6.034192085,0.6846091747,2024-06-05 19:18:35.266160
31.30663511,2.21670723,2.164694786,4.442765236,2024-06-05 19:18:35.306635
31.34710521,-0.8966302872,0.1600971222,3.964541912,2024-06-05 19:18:35.347105
31.38758417,0.7656145096,0.400531292,6.723765373,2024-06-05 19:18:35.387584
31.42805136,0.07373762131,3.500296116,-3.277814627,2024-06-05 19:18:35.428051
31.46855052,8.521339417,2.85246706,-3.342057943,2024-06-05 19:18:35.468551
31.50904709,-3.286132336,-7.302818298,-5.303297997,2024-06-05 19:18:35.509047
31.54952485,-2.316574335,-8.776319504,2.192868233,2024-06-05 19:18:35.549525
31.59002,12.28661823,-12.48551559,13.00125313,2024-06-05 19:18:35.590020
31.63046032,2.845276594,2.249287605,-0.3556818962,2024-06-05 19:18:35.630460
31.67097,-3.654392958,5.997561455,-18.16831017,2024-06-05 19:18:35.670970
31.71149219,-3.228024721,10.37497234,-7.028178215,2024-06-05 19:18:35.711492
31.75194761,-10.11705208,7.977749825,-1.086729527,2024-06-05 19:18:35.751948
31.79238032,-4.286819458,6.189412117,-4.796952248,2024-06-05 19:18:35.792380
31.83288505,3.730607986,-0.7632288933,12.5961113,2024-06-05 19:18:35.832885
31.87339448,-3.681047678,-0.6323451996,-2.878229618,2024-06-05 19:18:35.873394
31.91387677,10.67163467,8.894927979,-2.58486557,2024-06-05 19:18:35.913877
31.95434584,3.751226902,-6.780222416,-9.7342453,2024-06-05 19:18:35.954346
31.99491558,2.337377548,-26.36976051,2.868319511,2024-06-05 19:18:35.994916
32.03531229,-3.800909519,-3.982734203,-4.352713585,2024-06-05 19:18:36.035312
32.0758188,-11.34597778,4.726391792,-2.228070259,2024-06-05 19:18:36.075819
32.11628823,0.4417845607,-0.9479913712,-1.675296307,2024-06-05 19:18:36.116288
32.15675229,6.514523983,-4.343616486,0.007704257965,2024-06-05 19:18:36.156752
32.19727125,-3.039183617,-9.367463112,-3.245501518,2024-06-05 19:18:36.197271
32.23772938,-2.113636971,-3.859787941,-1.25328064,2024-06-05 19:18:36.237729
32.27822313,-3.932095528,-2.214631081,-2.616545439,2024-06-05 19:18:36.278223
32.31867308,-3.652906656,-0.6511125565,-1.588624001,2024-06-05 19:18:36.318673
32.35917578,-3.228765965,-1.496626854,-2.31227994,2024-06-05 19:18:36.359176
32.39965802,-3.239443779,-0.669470787,-1.299054384,2024-06-05 19:18:36.399658
32.44011688,-4.100780487,0.1631937027,-2.383213043,2024-06-05 19:18:36.440117
32.48061386,-2.064982414,1.398706436,-1.983345032,2024-06-05 19:18:36.480614
32.52110755,-0.1833527088,-1.383107185,-1.672418356,2024-06-05 19:18:36.521108
32.56166917,0.9312634468,-3.297625542,1.967848301,2024-06-05 19:18:36.561669
32.60207021,0.04949736595,-2.430013657,3.429958105,2024-06-05 19:18:36.602070
32.64252401,-0.7794997692,1.848888397,4.745836258,2024-06-05 19:18:36.642524
32.68299292,0.48741436,-0.3393449783,3.687851429,2024-06-05 19:18:36.682993
32.72349229,0.296287775,-2.287257195,-0.1005001068,2024-06-05 19:18:36.723492
32.76405547,0.06541919708,0.06802272797,-1.387919664,2024-06-05 19:18:36.764055
32.80445818,3.772011757,1.645857334,-4.729250908,2024-06-05 19:18:36.804458
32.84496787,2.571048975,4.074329376,-6.899180412,2024-06-05 19:18:36.844968
32.8855088,-3.372255802,0.3011960983,2.833366156,2024-06-05 19:18:36.885509
32.92599198,-1.524163127,0.216586113,-2.03441906,2024-06-05 19:18:36.925992
32.96639568,1.946630001,3.137681961,0.4096431732,2024-06-05 19:18:36.966396
33.00688891,-0.1558120251,1.658413887,3.398697853,2024-06-05 19:18:37.006889
33.04737964,0.2761616707,2.536046982,2.889063358,2024-06-05 19:18:37.047380
33.08785037,-0.2136526108,-4.698882103,6.526358604,2024-06-05 19:18:37.087850
33.12835448,0.4833285809,-4.948905945,8.950836182,2024-06-05 19:18:37.128354
33.16883766,2.274433136,2.656835556,-5.986666679,2024-06-05 19:18:37.168838
33.20930656,2.847047806,3.430877209,-4.894434929,2024-06-05 19:18:37.209307
33.24980396,2.666906118,3.006545544,-4.669709682,2024-06-05 19:18:37.249804
33.29027203,-3.79037261,8.078824043,-10.13752365,2024-06-05 19:18:37.290272
33.33073391,6.86322403,-1.8885355,6.064736366,2024-06-05 19:18:37.330734
33.37124209,15.22870636,-23.02343178,0.4194717407,2024-06-05 19:18:37.371242
33.41172401,0.8371977806,6.046645641,1.053604603,2024-06-05 19:18:37.411724
33.45224552,-4.400690079,8.072304726,-5.379629135,2024-06-05 19:18:37.452246
33.49265203,-2.812412262,0.01890945435,-1.000024199,2024-06-05 19:18:37.492652
33.53313406,-4.260638714,-5.923714638,12.79192352,2024-06-05 19:18:37.533134
33.57362625,3.266395569,6.417346478,-9.707536697,2024-06-05 19:18:37.573626
33.61412547,1.82870388,8.916856766,1.395483017,2024-06-05 19:18:37.614125
33.65460823,0.10838449,7.791166306,-7.29937458,2024-06-05 19:18:37.654608
33.69510047,-1.239145398,-3.796232224,-18.3180542,2024-06-05 19:18:37.695100
33.73558282,5.346175194,-23.41531181,12.04847336,2024-06-05 19:18:37.735583
33.77607547,8.817462921,-6.73333168,-8.497758865,2024-06-05 19:18:37.776075
33.8165524,8.143507004,-6.297059059,-4.87190485,2024-06-05 19:18:37.816552
33.8570499,11.62501717,-13.757617,-2.512241125,2024-06-05 19:18:37.857050
33.89753933,4.918887138,-9.324830055,3.787505388,2024-06-05 19:18:37.897539
33.93800104,2.709205627,1.906666756,4.529275417,2024-06-05 19:18:37.938001
33.97850282,-0.08197113872,2.609793663,2.905881405,2024-06-05 19:18:37.978503
34.01897818,1.152893305,-5.508164406,8.880225182,2024-06-05 19:18:38.018978
34.05943917,2.731618881,4.54979372,5.281952858,2024-06-05 19:18:38.059439
34.0999312,3.998298168,7.260980606,-2.552700043,2024-06-05 19:18:38.099931
34.14041375,-1.497070432,6.782034874,-7.10961628,2024-06-05 19:18:38.140414
34.18089438,-1.0772053,6.941098213,-14.09759045,2024-06-05 19:18:38.180894
34.22137729,0.4536800385,2.581889153,-0.5928843021,2024-06-05 19:18:38.221377
34.26186162,-4.346423149,-2.613911152,-14.84270096,2024-06-05 19:18:38.261862
34.30233276,-0.3323163986,7.818474293,-3.704800606,2024-06-05 19:18:38.302333
34.34280604,4.824555397,9.264387131,4.602074146,2024-06-05 19:18:38.342806
34.38325552,1.505190849,-2.347818375,1.430829525,2024-06-05 19:18:38.383256
34.42377005,-1.236253262,-10.83651066,6.477463245,2024-06-05 19:18:38.423770
34.4642538,-4.956738949,-4.203434467,4.614014149,2024-06-05 19:18:38.464254
34.50475089,-6.588244438,-0.05937337875,-0.1242446899,2024-06-05 19:18:38.504751
34.54523907,-7.570278168,0.7958402634,-2.353833675,2024-06-05 19:18:38.545239
34.58571938,-5.725969315,-2.41417408,-6.291254044,2024-06-05 19:18:38.585719
34.62617922,-1.111395955,2.104667187,-2.637119293,2024-06-05 19:18:38.626179
34.6666613,0.4146709442,5.806609154,-1.562161684,2024-06-05 19:18:38.666661
34.70716235,12.33358192,4.809834003,-7.988451004,2024-06-05 19:18:38.707162
34.74764334,9.241352081,-5.073248863,1.649963975,2024-06-05 19:18:38.747643
34.78810839,12.49427223,-21.50840759,40.18662262,2024-06-05 19:18:38.788108
34.82860313,-4.321763992,-5.630302429,-3.497419357,2024-06-05 19:18:38.828603
34.86912375,-2.243263721,-6.109043121,-6.51887989,2024-06-05 19:18:38.869124
34.90957985,-5.004414082,0.8367414474,-6.54173708,2024-06-05 19:18:38.909580
34.95005412,-2.559635401,1.564754486,-1.146491766,2024-06-05 19:18:38.950054
34.99054818,-1.53090167,2.510446072,4.239561558,2024-06-05 19:18:38.990548
35.03101568,-0.7268565893,3.440582752,2.070632219,2024-06-05 19:18:39.031016
35.07152656,-1.651993632,3.887719154,1.413808346,2024-06-05 19:18:39.071527
35.11199599,-1.088800311,2.335475922,-0.04889053106,2024-06-05 19:18:39.111996
35.15246302,-2.11485076,1.05294323,-1.026672602,2024-06-05 19:18:39.152463
35.19294599,-3.860152006,-2.243063927,-1.205384851,2024-06-05 19:18:39.192946
35.23342896,-2.139987946,-7.495803833,0.3537590504,2024-06-05 19:18:39.233429
35.27391198,-4.153398514,-4.603131294,8.353354454,2024-06-05 19:18:39.273912
35.31440688,-3.856514931,-0.7341222763,-2.755862713,2024-06-05 19:18:39.314407
35.35488922,-1.83185482,0.3642559052,3.33410573,2024-06-05 19:18:39.354889
35.39531479,0.7723045349,0.3158607483,3.978789806,2024-06-05 19:18:39.395315
35.43584469,3.46417141,-2.232629776,4.369672775,2024-06-05 19:18:39.435845
35.47630802,-0.4126939774,-2.704431534,-4.219529152,2024-06-05 19:18:39.476308
35.51682505,-1.568879128,-2.063227654,-6.225205898,2024-06-05 19:18:39.516825
35.5573,0.9606249332,0.449201107,-1.52243185,2024-06-05 19:18:39.557300
35.59776782,-0.4401214123,4.399731636,-3.54893446,2024-06-05 19:18:39.597768
35.63821771,-0.4838564396,5.584144592,-2.717978954,2024-06-05 19:18:39.638218
35.67873151,-0.4621345997,2.79886198,-0.2702305317,2024-06-05 19:18:39.678732
35.71922151,0.9935343266,-2.779911041,5.446433067,2024-06-05 19:18:39.719222
35.75971453,2.341976404,-0.8535966873,5.043711662,2024-06-05 19:18:39.759715
35.80022318,1.655271292,1.404341221,3.424380302,2024-06-05 19:18:39.800223
35.84067776,0.5772690773,-1.14766407,-3.662810326,2024-06-05 19:18:39.840678
35.88117459,5.899523735,-1.1789217,-6.179832458,2024-06-05 19:18:39.881175
35.92167479,-2.895689011,2.358442307,-3.66338253,2024-06-05 19:18:39.921675
35.96212641,2.097643852,-8.568007469,4.501441002,2024-06-05 19:18:39.962126
36.00257672,-2.081171513,1.516792297,-4.217199802,2024-06-05 19:18:40.002577
36.04305959,-0.02267885208,3.391799927,-0.9222145081,2024-06-05 19:18:40.043060
36.08350589,1.247769117,-2.932324409,-3.89722538,2024-06-05 19:18:40.083506
36.12398875,0.3180449009,1.046954155,-5.349730015,2024-06-05 19:18:40.123989
36.16446979,1.206044912,-1.805315018,-3.623615265,2024-06-05 19:18:40.164470
36.2050086,4.317088604,-7.220632553,-3.857995987,2024-06-05 19:18:40.205009
36.24549729,3.560904741,-2.751070976,-6.271432877,2024-06-05 19:18:40.245497
36.2859761,3.948337317,-2.910766602,-2.287241459,2024-06-05 19:18:40.285976
36.32644938,-3.100861549,2.21336031,-0.1829695702,2024-06-05 19:18:40.326449
36.36695979,-2.870507002,0.434530735,4.251308441,2024-06-05 19:18:40.366960
36.4073825,-2.132089376,-2.517142296,4.311532974,2024-06-05 19:18:40.407382
36.44788094,-0.1893270016,0.8987121582,0.623208046,2024-06-05 19:18:40.447881
36.48843828,-0.3640339375,2.378439903,-2.137681007,2024-06-05 19:18:40.488438
36.52886646,0.08308529854,-0.9333095551,-3.572830439,2024-06-05 19:18:40.528866
36.56933146,2.747498989,-0.94394207,-1.840351939,2024-06-05 19:18:40.569331
36.60985318,-0.04010248184,2.751460075,-0.8435190916,2024-06-05 19:18:40.609853
36.65030808,-2.895568848,5.769553661,-0.9515767097,2024-06-05 19:18:40.650308
36.69078625,-1.904131413,3.517295837,-2.038676262,2024-06-05 19:18:40.690786
36.73126063,-0.1169121265,-0.5728912354,-2.213957071,2024-06-05 19:18:40.731261
36.77178532,-1.194679022,-0.7527370453,0.7490626574,2024-06-05 19:18:40.771785
36.8122275,-2.633925915,2.383088589,2.368165255,2024-06-05 19:18:40.812227
36.85269063,-3.835357904,6.412564278,2.984966278,2024-06-05 19:18:40.852691
36.89317235,-5.631549835,5.397340298,-3.062752008,2024-06-05 19:18:40.893172
36.93365396,-2.15020895,-17.78109741,15.81856251,2024-06-05 19:18:40.933654
36.97415479,-7.567870617,-14.25984669,2.020634651,2024-06-05 19:18:40.974155
37.01467558,-1.12143743,-6.950514793,2.82894659,2024-06-05 19:18:41.014676
37.05515839,-2.605231762,-8.053877831,3.291982651,2024-06-05 19:18:41.055158
37.09563172,-5.131948471,-6.06838131,3.979131937,2024-06-05 19:18:41.095632
37.13609526,-7.123129845,-3.920069695,7.201211929,2024-06-05 19:18:41.136095
37.1765838,-4.390782356,0.8914728165,5.898069382,2024-06-05 19:18:41.176584
37.2170813,0.4484267235,2.394995213,1.406324267,2024-06-05 19:18:41.217081
37.25756953,2.339456558,4.340882778,-2.067801237,2024-06-05 19:18:41.257570
37.2980525,1.655491352,1.840569973,0.2857993841,2024-06-05 19:18:41.298052
37.33853167,4.353117466,-2.721543312,-5.783206463,2024-06-05 19:18:41.338532
37.37902282,-1.298930764,-3.40965271,-0.5644099712,2024-06-05 19:18:41.379023
37.41948698,0.03482782841,-3.293216705,-3.482697487,2024-06-05 19:18:41.419487
37.45996026,1.629764557,2.054411411,-3.008538246,2024-06-05 19:18:41.459960
37.50048021,0.6768854856,5.537528038,-2.230667353,2024-06-05 19:18:41.500480
37.54093287,-1.510685205,4.567677021,0.3066215515,2024-06-05 19:18:41.540933
37.58143782,-1.000014067,-0.3763103485,4.178868771,2024-06-05 19:18:41.581438
37.6219163,1.212642431,-1.316349983,4.339083195,2024-06-05 19:18:41.621916
37.66235933,0.34095788,3.892967224,-1.818294287,2024-06-05 19:18:41.662359
37.7028099,-1.97674191,2.508080959,-6.39866972,2024-06-05 19:18:41.702810
37.74329266,4.781544685,-4.327690125,1.524888635,2024-06-05 19:18:41.743293
37.78377542,3.740261316,-0.0453119278,-2.950531006,2024-06-05 19:18:41.783775
37.82429089,2.922370434,2.623234749,-4.641199589,2024-06-05 19:18:41.824291
37.86483245,4.096770763,-5.03504467,-6.561454773,2024-06-05 19:18:41.864832
37.90533682,-3.125836849,-3.967318535,-1.434822798,2024-06-05 19:18:41.905337
37.94578032,-2.203943968,-1.471731186,5.971009731,2024-06-05 19:18:41.945780
37.9862774,-0.05831813812,3.312333584,9.690782547,2024-06-05 19:18:41.986277
38.02673276,-1.907908916,2.379403114,3.478520632,2024-06-05 19:18:42.026733
38.06718386,-2.746602774,4.60609293,6.009777546,2024-06-05 19:18:42.067184
38.10768875,-4.722481728,4.043629169,-5.735275269,2024-06-05 19:18:42.107689
38.14818532,-3.467788696,-1.395857811,-7.564956665,2024-06-05 19:18:42.148185
38.18866969,10.51297474,-8.318758965,0.4061758518,2024-06-05 19:18:42.188670
38.22913193,3.468628407,-5.054585457,-7.533761024,2024-06-05 19:18:42.229132
38.2696149,4.423399448,-1.003369331,-0.1374186277,2024-06-05 19:18:42.269615
38.31010568,7.102211475,-3.212916374,-1.777422905,2024-06-05 19:18:42.310106
38.35057375,5.669433117,-1.16738987,-1.10799408,2024-06-05 19:18:42.350574
38.39104854,1.016855717,-0.6444749832,-1.309694767,2024-06-05 19:18:42.391049
38.43151964,-1.788880587,0.4598398209,-1.499089479,2024-06-05 19:18:42.431520
38.47200313,0.3067276478,2.914703369,-1.030264854,2024-06-05 19:18:42.472003
38.51248834,-1.659877658,1.944437981,-1.789894819,2024-06-05 19:18:42.512488
38.55297021,-1.182971716,-0.3295001984,1.018300295,2024-06-05 19:18:42.552970
38.59345209,-0.8007018566,-1.8644104,4.333416462,2024-06-05 19:18:42.593452
38.63396646,-0.5289962292,-1.561665535,3.233414888,2024-06-05 19:18:42.633966
38.67446844,-3.726915836,0.1807556152,0.08070868254,2024-06-05 19:18:42.674468
38.71491141,-1.954607129,1.809185982,-1.62825799,2024-06-05 19:18:42.714911
38.75543589,-1.042164564,4.143361568,-1.938464999,2024-06-05 19:18:42.755436
38.79589969,0.06996297836,4.579828739,0.1298396587,2024-06-05 19:18:42.795900
38.83639438,-2.153719902,-3.450816154,1.355810046,2024-06-05 19:18:42.836394
38.8769061,-0.04176044464,-2.35233593,2.872448921,2024-06-05 19:18:42.876906
38.91735219,0.7914738655,2.053996086,2.17212677,2024-06-05 19:18:42.917352
38.95782823,4.03413105,-1.664226532,2.208661556,2024-06-05 19:18:42.957828
38.99835177,5.898496628,-1.7597332,-2.150020599,2024-06-05 19:18:42.998352
39.03878084,3.961446524,2.517114162,-4.438114166,2024-06-05 19:18:43.038781
39.07927709,0.1960895061,2.067158699,-5.057396889,2024-06-05 19:18:43.079277
39.11975052,-1.251398563,0.5074453354,-1.608486533,2024-06-05 19:18:43.119751
39.1602336,-1.400105,-1.427217484,-2.023139238,2024-06-05 19:18:43.160234
39.20072354,-1.095400572,-2.096014977,3.382355213,2024-06-05 19:18:43.200724
39.24117224,-1.217570782,0.003127098083,-0.3526767492,2024-06-05 19:18:43.241172
39.28172735,-0.8649661541,1.258317471,-5.827699184,2024-06-05 19:18:43.281727
39.3221588,1.271450758,0.6920557022,-3.314067841,2024-06-05 19:18:43.322159
39.36261682,2.127551317,0.4847345352,-2.070864439,2024-06-05 19:18:43.362617
39.40309849,1.745882034,0.8333082199,-1.821537137,2024-06-05 19:18:43.403098
39.44357979,2.001528025,1.536411285,-2.103689432,2024-06-05 19:18:43.443580
39.48406136,3.172334194,1.436168671,-2.063148022,2024-06-05 19:18:43.484061
39.52458849,0.5945091248,1.132856369,0.9721111655,2024-06-05 19:18:43.524588
39.56505604,0.7806534767,0.7178792953,-1.424379826,2024-06-05 19:18:43.565056
39.60556235,2.77306056,0.4496183395,-1.956820369,2024-06-05 19:18:43.605562
39.64601485,6.085762978,-3.455064774,-0.05193635076,2024-06-05 19:18:43.646015
39.68650313,0.5133070946,-4.398029327,5.810183525,2024-06-05 19:18:43.686503
39.72698969,-6.232086182,-0.460149765,2.65405488,2024-06-05 19:18:43.726990
39.76744834,-6.602945328,-2.199505806,-2.452691555,2024-06-05 19:18:43.767448
39.80794688,-3.124594927,-3.986721039,5.4258461,2024-06-05 19:18:43.807947
39.84844735,-4.188296795,0.1809272766,-5.883218765,2024-06-05 19:18:43.848447
39.88891995,0.08271980286,0.9961338043,-0.5212751031,2024-06-05 19:18:43.888920
39.92939782,1.236314058,0.6934585571,2.150051594,2024-06-05 19:18:43.929398
39.96989537,0.4224231243,3.009601116,0.4792479277,2024-06-05 19:18:43.969895
40.01036297,0.7204914093,2.096199512,2.040280819,2024-06-05 19:18:44.010363
40.05082813,-0.6285271645,0.3153886795,-0.09255313873,2024-06-05 19:18:44.050828
40.09131365,-1.65575242,-0.776137352,0.4443588257,2024-06-05 19:18:44.091314
40.13185073,-2.005752087,-0.8323497772,-1.540285707,2024-06-05 19:18:44.131851
40.17228422,-0.9340286255,-0.01602840424,-1.631052852,2024-06-05 19:18:44.172284
40.21276646,0.9836771488,0.1192140579,-4.814402103,2024-06-05 19:18:44.212766
40.25323568,1.770911694,-1.731601715,-0.2614872456,2024-06-05 19:18:44.253236
40.29371787,1.694724321,-1.717673302,2.310946226,2024-06-05 19:18:44.293718
40.33422448,0.2510623932,-0.0873837471,3.200115681,2024-06-05 19:18:44.334224
40.37468214,-0.06420922279,4.68086195,4.08872509,2024-06-05 19:18:44.374682
40.41518125,-2.848715067,2.633000374,5.353199482,2024-06-05 19:18:44.415181
40.45568813,-4.546035767,3.33100462,3.419520855,2024-06-05 19:18:44.455688
40.49615099,0.9393131733,5.425038338,0.6488108635,2024-06-05 19:18:44.496151
40.53663724,1.426538944,3.478172302,-1.02060008,2024-06-05 19:18:44.536637
40.57711318,0.6859073639,1.348596573,-1.798156023,2024-06-05 19:18:44.577113
40.61763677,0.3307259083,-7.039269447,0.6086773872,2024-06-05 19:18:44.617637
40.6581186,2.069098473,-0.5551586151,0.9209017754,2024-06-05 19:18:44.658119
40.69861162,-1.87244463,5.456400394,-2.15133357,2024-06-05 19:18:44.698612
40.73904365,-0.6006872654,4.11396122,6.58949852,2024-06-05 19:18:44.739044
40.77955026,6.527732849,-9.30354023,2.082901001,2024-06-05 19:18:44.779550
40.82001084,-3.33383584,0.3849840164,-3.559121847,2024-06-05 19:18:44.820011
40.86049953,-5.363993168,-3.393478394,0.1478878111,2024-06-05 19:18:44.860500
40.90095167,-2.802181482,-0.6192388535,1.567587733,2024-06-05 19:18:44.900952
40.94146302,-3.079978943,1.603178978,1.476215601,2024-06-05 19:18:44.941463
40.98193938,-0.8742675781,1.476626396,1.421998978,2024-06-05 19:18:44.981939
41.02245886,0.04297852516,0.2818012238,4.120759964,2024-06-05 19:18:45.022459
41.06288604,-0.65447402,0.7068653107,0.9756909013,2024-06-05 19:18:45.062886
41.10336797,-3.36721611,-0.1209821701,1.771319866,2024-06-05 19:18:45.103368
41.14383573,-2.511874914,-0.6541280746,0.9217413664,2024-06-05 19:18:45.143836
41.18433516,-1.744144082,-0.4286565781,-0.04287362099,2024-06-05 19:18:45.184335
41.22484412,-0.3257067204,-0.6411705017,-0.1348361969,2024-06-05 19:18:45.224844
41.26531255,-3.083618641,-2.9348526,0.6694595814,2024-06-05 19:18:45.265313
41.30579979,-2.841004848,-3.082773209,0.2288281918,2024-06-05 19:18:45.305800
41.34628334,-3.463641882,-3.9000597,2.145081282,2024-06-05 19:18:45.346283
41.38676844,-1.423725486,-2.762298584,5.020223141,2024-06-05 19:18:45.386768
41.4272449,-0.0322432518,-2.260984421,4.457772255,2024-06-05 19:18:45.427245
41.46773459,-0.2356240749,-1.790141106,-0.4102468491,2024-06-05 19:18:45.467735
41.50823766,-1.453466177,-1.354371071,-3.575510263,2024-06-05 19:18:45.508238
41.54868474,0.2505488396,-1.220172882,-3.66992712,2024-06-05 19:18:45.548685
41.58917427,0.7947449684,-1.311336517,-1.770928383,2024-06-05 19:18:45.589174
41.62965933,-0.7300720215,0.05069255829,-4.104034901,2024-06-05 19:18:45.629659
41.67014313,0.3380525112,-0.07827281952,-6.937652588,2024-06-05 19:18:45.670143
41.71062427,0.319981575,0.9166431427,-6.687096119,2024-06-05 19:18:45.710624
41.7511086,1.052165985,2.157810211,-3.775308609,2024-06-05 19:18:45.751109
41.79161151,1.934384584,1.915290356,-2.611998796,2024-06-05 19:18:45.791612
41.83210146,2.130824327,1.218353748,-0.3683235645,2024-06-05 19:18:45.832101
41.87257177,2.481033564,2.713026524,-1.497662544,2024-06-05 19:18:45.872572
41.91303026,4.130522728,1.509410381,-1.018225193,2024-06-05 19:18:45.913030
41.9534962,1.86239481,-1.721212387,2.49397707,2024-06-05 19:18:45.953496
41.99394563,-0.555639267,-1.204817772,3.516461372,2024-06-05 19:18:45.993946
42.03442792,-2.339470863,3.853289127,-5.33425045,2024-06-05 19:18:46.034428
42.07493828,-0.06730985641,2.081475735,-4.712627411,2024-06-05 19:18:46.074938
42.11545985,-1.96380043,-2.270300865,4.513903618,2024-06-05 19:18:46.115460
42.15595479,2.550873518,-2.436555862,1.869423866,2024-06-05 19:18:46.155955
42.19642459,5.148438454,-3.543241501,1.089773178,2024-06-05 19:18:46.196425
42.23691693,-0.6070256233,2.077437878,-4.857766151,2024-06-05 19:18:46.236917
42.27738532,-2.793178558,1.06363678,-4.953962326,2024-06-05 19:18:46.277385
42.31786438,-1.452360272,-2.560647964,0.7429152727,2024-06-05 19:18:46.317864
42.3583512,-0.805618763,-0.05155277252,-2.300548553,2024-06-05 19:18:46.358351
42.39883401,1.513325214,0.6081104279,-1.98803401,2024-06-05 19:18:46.398834
42.4392999,-0.9810780287,-0.866194725,0.1185281277,2024-06-05 19:18:46.439300
42.47982922,-1.243145227,-0.7577066422,-1.345546603,2024-06-05 19:18:46.479829
42.52030552,-0.59166646,-0.1555633545,0.5013943911,2024-06-05 19:18:46.520306
42.56076474,0.3240828514,-0.3982810974,-1.588769674,2024-06-05 19:18:46.560765
42.6012349,0.7693424225,0.9705381393,-1.158486724,2024-06-05 19:18:46.601235
42.64171292,0.294280529,-1.171129227,-0.9433763623,2024-06-05 19:18:46.641713
42.68223922,-0.3895003796,0.6126041412,-2.402282476,2024-06-05 19:18:46.682239
42.7226962,-0.3363959789,-0.6454057693,0.544110775,2024-06-05 19:18:46.722696
42.76315104,-2.318489313,-0.894241333,-0.06006979942,2024-06-05 19:18:46.763151
42.80363365,-0.497533083,0.1382932663,-2.154168129,2024-06-05 19:18:46.803634
42.84411625,1.056991816,-0.2582378387,-2.493089199,2024-06-05 19:18:46.844116
42.88457823,2.848718166,-0.7601423264,-5.288690567,2024-06-05 19:18:46.884578
42.92509151,2.570988894,-3.799289703,-3.477741718,2024-06-05 19:18:46.925092
42.96558375,5.644871235,-3.657530785,-0.7838380337,2024-06-05 19:18:46.965584
43.00605308,2.574991941,0.9772777557,-0.3688704967,2024-06-05 19:18:47.006053
43.0465461,0.4531333447,0.7515325546,3.959373951,2024-06-05 19:18:47.046546
43.08704401,-3.705535889,0.5421180725,-3.403488874,2024-06-05 19:18:47.087044
43.1275412,-1.245474219,1.783287048,-0.9581894875,2024-06-05 19:18:47.127541
43.16801245,-1.197811723,1.250977993,-0.6629552841,2024-06-05 19:18:47.168012
43.20847688,-1.027958632,1.418867111,-1.333287477,2024-06-05 19:18:47.208477
43.24894261,0.7052829266,1.775266647,-2.175928831,2024-06-05 19:18:47.248943
43.28945125,3.522428274,-1.879061699,0.3746209145,2024-06-05 19:18:47.289451
43.32994854,1.533558846,-2.89368248,1.970932007,2024-06-05 19:18:47.329949
43.37040844,1.234035492,-3.056920052,0.1750473976,2024-06-05 19:18:47.370408
43.4108911,-1.805868149,0.7988739014,-1.065080285,2024-06-05 19:18:47.410891
43.4513611,-3.027037382,4.553534985,-0.4028255939,2024-06-05 19:18:47.451361
43.49185026,-3.705585241,5.789068222,1.895950913,2024-06-05 19:18:47.491850
43.53238724,-1.435355186,2.237169266,0.08505395055,2024-06-05 19:18:47.532387
43.57281667,0.3471601009,-1.83325386,-2.675997496,2024-06-05 19:18:47.572817
43.61329932,1.479698896,0.7519226074,-0.03605473042,2024-06-05 19:18:47.613299
43.65378198,4.137246132,-1.47892189,-0.3336268663,2024-06-05 19:18:47.653782
43.69426464,4.618078232,2.417513847,1.269315124,2024-06-05 19:18:47.694265
43.73475261,2.255613804,0.05138587952,-0.5984619856,2024-06-05 19:18:47.734753
43.77523292,-3.790072203,-9.20827961,-0.7248933315,2024-06-05 19:18:47.775233
43.81572729,-8.707344055,-7.297402382,11.8437109,2024-06-05 19:18:47.815727
43.85618354,-5.991018772,1.606199741,2.026622295,2024-06-05 19:18:47.856184
43.89665693,-1.73611939,-0.5501813889,-0.2887452841,2024-06-05 19:18:47.896657
43.93718058,-1.736028433,-2.212656021,0.2452367544,2024-06-05 19:18:47.937181
43.97765406,-1.385914326,0.5504198074,1.984389305,2024-06-05 19:18:47.977654
44.01815386,-1.539652109,2.548212528,0.5733323097,2024-06-05 19:18:48.018154
44.05860209,-1.645000577,1.014025688,-0.1426483393,2024-06-05 19:18:48.058602
44.099105,-1.403805614,-1.931031227,-1.656973243,2024-06-05 19:18:48.099105
44.13956,0.3028428555,0.5648412704,0.1905114651,2024-06-05 19:18:48.139560
44.18005672,0.4865608215,0.1490259171,0.298076272,2024-06-05 19:18:48.180057
44.22060594,-0.4744427204,-4.497477531,9.954437256,2024-06-05 19:18:48.220606
44.26103005,-1.479640961,-1.258779526,-1.759881139,2024-06-05 19:18:48.261030
44.30151667,-1.127282858,0.867398262,1.375595093,2024-06-05 19:18:48.301517
44.34199698,-1.200107813,0.250453949,0.06370472908,2024-06-05 19:18:48.341997
44.38251682,-1.428064823,0.0270318985,-3.293059349,2024-06-05 19:18:48.382517
44.42300058,-1.193545818,0.3824205399,-3.214003563,2024-06-05 19:18:48.423001
44.46338964,-1.533002138,-0.084233284,-2.500201941,2024-06-05 19:18:48.463390
44.50387308,-2.134038925,-0.03854942322,-1.081777096,2024-06-05 19:18:48.503873
44.5443724,-1.99100709,-0.2981901169,1.089597702,2024-06-05 19:18:48.544372
44.58489386,0.6673901081,-0.8248376846,10.86892128,2024-06-05 19:18:48.584894
44.62535839,-1.142833948,-0.7770242691,-1.785829306,2024-06-05 19:18:48.625358
44.66582672,-1.101313114,-0.99817276,-0.6848342419,2024-06-05 19:18:48.665827
44.70633396,0.01544511318,-1.762825012,1.210099936,2024-06-05 19:18:48.706334
44.74680177,2.054517746,-2.17732811,5.874414444,2024-06-05 19:18:48.746802
44.78729688,3.085978746,-0.6182413101,3.250318527,2024-06-05 19:18:48.787297
44.82779282,0.7876563072,-0.8501434326,4.085926056,2024-06-05 19:18:48.827793
44.86826188,-0.7315596342,-0.2277870178,1.19325757,2024-06-05 19:18:48.868262
44.90873875,0.1996650696,-0.0117483139,-2.570422411,2024-06-05 19:18:48.908739
44.94924276,0.8020453453,-1.342961311,-6.046082497,2024-06-05 19:18:48.949243
44.98971844,2.253457546,-1.697336197,-2.744734526,2024-06-05 19:18:48.989718
45.03019266,-1.235919356,-1.09950161,-1.132933378,2024-06-05 19:18:49.030193
45.07068115,-1.139813185,1.31894207,-3.536599159,2024-06-05 19:18:49.070681
45.1111588,-1.060441732,1.826249123,-3.924799204,2024-06-05 19:18:49.111159
45.15164198,-0.8806533813,1.617938995,-3.607916355,2024-06-05 19:18:49.151642
45.19213948,0.7185719013,1.438640594,-0.6388833523,2024-06-05 19:18:49.192139
45.2326338,1.390684605,-1.23759079,6.530879021,2024-06-05 19:18:49.232634
45.27307229,-1.572066426,0.8545789719,4.7134552,2024-06-05 19:18:49.273072
45.31355459,-1.851885676,2.057703972,-5.38122654,2024-06-05 19:18:49.313555
45.35403688,3.325021982,-1.493853569,-6.851174355,2024-06-05 19:18:49.354037
45.39449339,2.668678284,-3.808643341,3.683880329,2024-06-05 19:18:49.394493
45.4349912,-1.307206392,0.9070644379,-5.648262978,2024-06-05 19:18:49.434991
45.47549479,1.80973959,-1.433558464,-3.964221478,2024-06-05 19:18:49.475495
45.51598172,-1.024133444,-3.056456566,2.325063705,2024-06-05 19:18:49.515982
45.55647979,-0.5229930878,-0.9886369705,-0.9165247679,2024-06-05 19:18:49.556480
45.59695516,-1.624015689,-0.3461999893,-1.947530508,2024-06-05 19:18:49.596955
45.63738745,-1.58977592,-0.5614461899,-0.6680463552,2024-06-05 19:18:49.637387
45.67789834,-3.532037973,-0.6954755783,1.612360954,2024-06-05 19:18:49.677898
45.71839063,-4.501036644,0.2176456451,2.232891083,2024-06-05 19:18:49.718391
45.75889266,-1.339207411,2.066383839,0.8419675827,2024-06-05 19:18:49.758893
45.79935412,-3.216086388,0.3628320694,-1.260276794,2024-06-05 19:18:49.799354
45.83982974,-4.572387695,-2.796888351,-0.6188471317,2024-06-05 19:18:49.839830
45.88030464,1.69762218,-1.402575493,1.256931543,2024-06-05 19:18:49.880305
45.92080078,1.780324936,-3.103253365,3.842246532,2024-06-05 19:18:49.920801
45.96129156,4.913340092,1.803935051,0.1570880413,2024-06-05 19:18:49.961292
46.00176886,2.29090023,2.020589828,-0.2124664783,2024-06-05 19:18:50.001769
46.04228297,0.2139629126,1.239003658,-0.7824850082,2024-06-05 19:18:50.042283
46.08278287,-2.032078743,1.662002563,0.0105946064,2024-06-05 19:18:50.082783
46.12321427,-1.68426621,1.500238419,1.011810303,2024-06-05 19:18:50.123214
46.16365578,0.5289957523,0.4249000549,2.346523523,2024-06-05 19:18:50.163656
46.20417865,0.9155132771,1.370097637,3.098124504,2024-06-05 19:18:50.204179
46.24468464,-0.2890012264,2.905107975,4.583826065,2024-06-05 19:18:50.244685
46.28516552,-0.6579678059,0.5453176498,3.759654045,2024-06-05 19:18:50.285166
46.32562406,-0.7764847279,-3.920611382,1.436843634,2024-06-05 19:18:50.325624
46.36614485,-3.642383337,-2.965547562,-1.325419426,2024-06-05 19:18:50.366145
46.40662755,-3.227617741,2.636694908,-4.058876038,2024-06-05 19:18:50.406628
46.44708313,-2.711350918,1.021920204,-1.958941221,2024-06-05 19:18:50.447083
46.48754985,-1.208941698,0.9621210098,-0.1437736899,2024-06-05 19:18:50.487550
46.52806318,1.49997735,-3.903962135,-2.31340003,2024-06-05 19:18:50.528063
46.56855063,1.824071884,-2.074561119,-1.335861921,2024-06-05 19:18:50.568551
46.60899922,-1.192189455,0.7968893051,-1.949979067,2024-06-05 19:18:50.608999
46.64948193,0.9267878532,-0.1365242004,-3.074015617,2024-06-05 19:18:50.649482
46.68996964,0.9069759846,-2.28821373,-1.458201885,2024-06-05 19:18:50.689970
46.73047558,1.199614525,1.142951965,8.235761642,2024-06-05 19:18:50.730476
46.77096578,0.505384922,0.2250490189,2.421469927,2024-06-05 19:18:50.770966
46.81140844,0.3237593174,1.628460884,4.663118839,2024-06-05 19:18:50.811408
46.8518975,3.042610645,3.102590084,-1.310530424,2024-06-05 19:18:50.851897
46.89235099,2.860787868,1.709414959,-5.706345081,2024-06-05 19:18:50.892351
46.93285584,6.638397694,-3.063049316,1.021635771,2024-06-05 19:18:50.932856
46.97332505,2.312905312,-2.103661537,-1.108226299,2024-06-05 19:18:50.973325
47.01380714,2.353301764,-2.811420441,-2.767589092,2024-06-05 19:18:51.013807
47.05428933,1.751582861,-0.9158363342,-4.367948055,2024-06-05 19:18:51.054289
47.09477151,1.272330046,0.02296543121,-2.047881126,2024-06-05 19:18:51.094772
47.13529865,1.994147539,-0.4242353439,1.682178736,2024-06-05 19:18:51.135299
47.17578084,-1.096652389,0.8816747665,1.194930792,2024-06-05 19:18:51.175781
47.21623839,-3.679713249,0.5225811005,-1.900532126,2024-06-05 19:18:51.216238
47.25675214,-1.579771757,1.777489662,0.8118216991,2024-06-05 19:18:51.256752
47.29722787,-0.2381501198,1.176247597,-0.2679624557,2024-06-05 19:18:51.297228
47.33773328,-1.838928342,1.151722431,-0.7684965134,2024-06-05 19:18:51.337733
47.37820047,-1.228899002,0.6034936905,0.9296188354,2024-06-05 19:18:51.378200
47.41868266,1.230121374,-1.045785904,3.298065424,2024-06-05 19:18:51.418683
47.45911078,0.3801953793,-1.273659706,4.228756428,2024-06-05 19:18:51.459111
47.49960729,-0.7900426388,0.8697481155,0.3450336456,2024-06-05 19:18:51.499607
47.54009339,-2.20359993,1.995847702,-3.524707317,2024-06-05 19:18:51.540093
47.58060792,0.02102637291,2.130597115,-2.134496689,2024-06-05 19:18:51.580608
47.62107735,2.603697062,-4.121197701,1.979471207,2024-06-05 19:18:51.621077
47.66154255,2.2997365,-0.5816392899,-0.2016198635,2024-06-05 19:18:51.661543
47.70204672,-0.1516985893,-0.795923233,-4.436944008,2024-06-05 19:18:51.702047
47.74256094,-5.193210602,-2.565078735,3.781425238,2024-06-05 19:18:51.742561
47.7829938,-3.49022913,-0.9009437561,-1.150058508,2024-06-05 19:18:51.782994
47.8234762,-2.30491209,1.992659092,0.8948751092,2024-06-05 19:18:51.823476
47.86398073,-0.749329567,1.165571213,-0.07695990801,2024-06-05 19:18:51.863981
47.90443047,0.3015534878,0.1442470551,1.668942809,2024-06-05 19:18:51.904430
47.94493792,0.3431222439,0.2853746414,0.9537367821,2024-06-05 19:18:51.944938
47.98542308,-3.536464214,-0.5703401566,0.521045506,2024-06-05 19:18:51.985423
48.02591808,-2.039893389,-0.4155502319,0.572686255,2024-06-05 19:18:52.025918
48.06639974,-0.1302955151,-0.2329769135,2.147769213,2024-06-05 19:18:52.066400
48.10686844,-1.090022922,-1.089791298,0.7296981812,2024-06-05 19:18:52.106868
48.14735188,-3.672550201,-2.694906235,2.048846722,2024-06-05 19:18:52.147352
48.18782948,-2.822089911,-3.730408669,1.274312496,2024-06-05 19:18:52.187829
48.22830391,-2.072276831,-7.24695015,2.789251089,2024-06-05 19:18:52.228304
48.26879662,-1.896826982,-4.178334236,2.749233961,2024-06-05 19:18:52.268797
48.30927047,-3.244319916,1.293221474,-4.323896885,2024-06-05 19:18:52.309270
48.3497574,0.7953500748,3.889679909,-6.139176369,2024-06-05 19:18:52.349757
48.39025308,3.084449291,2.121146202,-4.414113045,2024-06-05 19:18:52.390253
48.43071151,2.549972773,2.014932632,-3.722062588,2024-06-05 19:18:52.430712
48.47118792,3.279153585,1.561736107,-4.069297314,2024-06-05 19:18:52.471188
48.51168604,6.386086941,3.177806377,-4.13123703,2024-06-05 19:18:52.511686
48.55217693,8.119672775,3.233475208,-3.443890095,2024-06-05 19:18:52.552177
48.59269698,5.786088467,0.6353120804,-2.407040358,2024-06-05 19:18:52.592697
48.63317938,5.408293724,-2.299253464,-0.02728652954,2024-06-05 19:18:52.633179
48.67366456,1.70420289,0.1117868423,13.46399021,2024-06-05 19:18:52.673665
48.71414701,-0.7181286812,1.822924137,-0.7104862332,2024-06-05 19:18:52.714147
48.75462514,0.8779120445,0.2953176498,-1.147536159,2024-06-05 19:18:52.754625
48.79507165,2.289477587,-0.06752967834,-1.551324368,2024-06-05 19:18:52.795072
48.8355529,1.204243183,-1.269025803,-3.189080715,2024-06-05 19:18:52.835553
48.87600779,-1.06377244,-0.2093133926,-4.461982727,2024-06-05 19:18:52.876008
48.91649972,-1.660078049,1.714374065,-3.82004571,2024-06-05 19:18:52.916500
48.95700826,-1.526490688,0.3426141739,-0.582414031,2024-06-05 19:18:52.957008
48.99748248,0.3693888187,-0.9604263306,1.306935668,2024-06-05 19:18:52.997482
49.03796024,1.128778696,-0.7086992264,-2.899184227,2024-06-05 19:18:53.037960
49.07844915,3.246399164,1.942451477,-2.903063774,2024-06-05 19:18:53.078449
49.11892727,5.078489304,2.415913582,-2.895493507,2024-06-05 19:18:53.118927
49.15941305,8.434307098,0.9795970917,-4.110609055,2024-06-05 19:18:53.159413
49.19989795,5.538013458,0.5900068283,-3.851091862,2024-06-05 19:18:53.199898
49.24039232,2.733377457,-0.8414993286,-1.871304631,2024-06-05 19:18:53.240392
49.28087347,-5.156331062,-4.53170681,7.351354599,2024-06-05 19:18:53.280873
49.32134686,-5.987164497,-4.658530235,11.55056763,2024-06-05 19:18:53.321347
49.36182352,-2.888769388,-1.392963409,-5.264805794,2024-06-05 19:18:53.361824
49.40230456,-4.980267525,2.141337872,-2.917173386,2024-06-05 19:18:53.402305
49.442773,-2.851970673,0.1910858154,2.236363888,2024-06-05 19:18:53.442773
49.48329727,-0.7331972122,0.833325386,-0.3594995439,2024-06-05 19:18:53.483297
49.52379368,1.056889057,1.0271492,-1.903449774,2024-06-05 19:18:53.523794
49.56427144,0.8733592033,-0.08188533783,2.2286551,2024-06-05 19:18:53.564271
49.6047042,3.118065596,1.025222778,-1.427951932,2024-06-05 19:18:53.604704
49.6452266,1.492757559,0.5843544006,-1.122277737,2024-06-05 19:18:53.645227
49.68569858,-2.677798748,-0.2259864807,-1.294435978,2024-06-05 19:18:53.685699
49.72615899,-1.79918015,-0.2087984085,-4.214039803,2024-06-05 19:18:53.726159
49.76664597,-1.070164442,-0.6204099655,-3.270115376,2024-06-05 19:18:53.766646
49.80714988,-0.3991060257,-0.313076973,-3.168304205,2024-06-05 19:18:53.807150
49.84761342,2.333198547,-1.658851624,0.3106558323,2024-06-05 19:18:53.847613
49.88805831,2.951886654,-1.651403427,4.626166821,2024-06-05 19:18:53.888058
49.92858686,2.510131121,-2.538300514,7.362142563,2024-06-05 19:18:53.928587
49.96905863,-0.6203351021,-1.650349617,1.106127739,2024-06-05 19:18:53.969059
50.00955868,-3.104208946,3.947354317,-1.894471049,2024-06-05 19:18:54.009559
50.05004284,-2.648856163,3.075973511,-2.338542461,2024-06-05 19:18:54.050043
50.09050936,0.6452121735,1.953490257,-2.355414391,2024-06-05 19:18:54.090509
50.13100759,1.927569866,3.565372944,-0.1870917082,2024-06-05 19:18:54.131008
50.17146029,1.631543398,1.066943169,-3.392788887,2024-06-05 19:18:54.171460
50.21201342,0.3423559666,-2.217661858,-2.896354914,2024-06-05 19:18:54.212013
50.25248175,-1.182073951,-1.919307709,-1.185130477,2024-06-05 19:18:54.252482
50.29289483,-1.240737915,-0.1422395706,5.010528564,2024-06-05 19:18:54.292895
50.33337045,-2.953632116,2.317158222,3.004899502,2024-06-05 19:18:54.333370
50.37382915,-1.283810616,-3.624908447,5.503656864,2024-06-05 19:18:54.373829
50.41433821,0.7573399544,-9.515368462,8.110078812,2024-06-05 19:18:54.414338
50.45486555,-5.105658054,-6.608795166,8.136969566,2024-06-05 19:18:54.454866
50.49532743,-4.043993473,-4.56932354,-0.9386484623,2024-06-05 19:18:54.495327
50.53582561,-3.935374498,-3.139481544,1.871829987,2024-06-05 19:18:54.535826
50.57631972,-1.230558515,-0.7063207626,4.573474884,2024-06-05 19:18:54.576320
50.61678576,0.4493963718,-0.008213043213,7.105903625,2024-06-05 19:18:54.616786
50.65731436,1.123559952,0.4383411407,7.809076786,2024-06-05 19:18:54.657314
50.69774134,1.790676832,0.9299898148,4.338824272,2024-06-05 19:18:54.697741
50.73826029,-0.06565952301,-0.6463804245,-3.490977764,2024-06-05 19:18:54.738260
50.77869482,-0.9056572914,-3.970298767,-3.49068141,2024-06-05 19:18:54.778695
50.81922139,3.728175879,-4.09223938,-1.003302336,2024-06-05 19:18:54.819221
50.85968514,1.017075539,-0.4562034607,-2.410300493,2024-06-05 19:18:54.859685
50.90014634,-0.1139023304,2.728831768,-5.007160187,2024-06-05 19:18:54.900146
50.94064691,-1.77368331,3.811752796,-5.561602592,2024-06-05 19:18:54.940647
50.98113154,-1.998403907,5.071211815,-5.092312813,2024-06-05 19:18:54.981132
51.02158884,-1.228206158,1.096465588,1.088299513,2024-06-05 19:18:55.021589
51.06213019,3.093229294,-6.350379944,8.023885727,2024-06-05 19:18:55.062130
51.10260009,1.068165779,1.046904564,-5.359398842,2024-06-05 19:18:55.102600
51.14301118,11.70287991,0.1280937195,-9.49841404,2024-06-05 19:18:55.143011
51.18348686,3.487484932,-0.8988800049,-4.497028351,2024-06-05 19:18:55.183487
51.22396972,-1.353957176,-2.362127304,9.311929703,2024-06-05 19:18:55.223970
51.26447196,-4.388245583,-2.404725075,-1.166535139,2024-06-05 19:18:55.264472
51.30498831,-5.507156372,-2.409925461,-3.217729807,2024-06-05 19:18:55.304988
51.34545529,-3.042795658,-1.396826744,2.005110979,2024-06-05 19:18:55.345455
51.38592706,-5.332598686,0.09420585632,3.198777676,2024-06-05 19:18:55.385927
51.42640837,-3.524257183,1.433160782,-3.636095047,2024-06-05 19:18:55.426408
51.46690529,-0.4138402939,3.428961277,-1.447276592,2024-06-05 19:18:55.466905
51.50740769,-0.01115870476,0.1975374222,-1.840564966,2024-06-05 19:18:55.507408
51.5478805,-0.3087706566,-1.536581039,0.6998928785,2024-06-05 19:18:55.547880
51.58835571,-1.005182743,-0.3188114166,0.5050891638,2024-06-05 19:18:55.588356
51.62884175,0.223293066,-0.6108531952,-1.687571287,2024-06-05 19:18:55.628842
51.66935665,2.082636833,-0.2164793015,5.632557869,2024-06-05 19:18:55.669357
51.70980259,-1.872176409,-0.7459459305,-2.470068693,2024-06-05 19:18:55.709803
51.75030962,-1.127508521,0.001187324524,-2.378691673,2024-06-05 19:18:55.750310
51.79080305,-0.08421683311,-0.2794103622,2.412108898,2024-06-05 19:18:55.790803
51.83125691,-0.99129498,-0.4671583176,-0.2403651476,2024-06-05 19:18:55.831257
51.87172384,-0.6738865376,-0.05543804169,0.6770220995,2024-06-05 19:18:55.871724
51.91222884,0.2318923473,-0.1483068466,1.357233047,2024-06-05 19:18:55.912229
51.95274654,0.4102659225,0.3963708878,1.991357565,2024-06-05 19:18:55.952747
51.99322394,-0.859552145,0.2307224274,2.335006952,2024-06-05 19:18:55.993224
52.03367873,-2.389859676,-1.253898621,1.27374506,2024-06-05 19:18:56.033679
52.07414019,-2.701466084,-2.12438488,1.272521257,2024-06-05 19:18:56.074140
52.11463946,-2.951312304,-1.275640488,3.120103359,2024-06-05 19:18:56.114639
52.15510644,-0.7317435741,-2.7153759,3.35643959,2024-06-05 19:18:56.155106
52.19558592,0.2105023861,-3.685792923,-1.056002855,2024-06-05 19:18:56.195586
52.23607123,1.894036293,-1.310025215,-5.853827953,2024-06-05 19:18:56.236071
52.27655899,1.35975337,1.494600296,-3.069792032,2024-06-05 19:18:56.276559
52.31705936,-1.063955903,1.529247284,-2.564815521,2024-06-05 19:18:56.317059
52.35758201,-1.882105827,5.368606091,-2.662317276,2024-06-05 19:18:56.357582
52.39808061,-0.8584265709,5.218205452,-0.937567234,2024-06-05 19:18:56.398081
52.43849889,0.7107975483,-0.004023551941,4.044331551,2024-06-05 19:18:56.438499
52.47896436,2.484173298,-2.657658577,4.800382137,2024-06-05 19:18:56.478964
52.51946649,-1.400388718,2.261031151,4.175517082,2024-06-05 19:18:56.519466
52.55995722,-0.1241290569,1.433315277,2.90230155,2024-06-05 19:18:56.559957
52.60042227,-0.2331361771,0.5556125641,-1.773848772,2024-06-05 19:18:56.600422
52.6408955,0.6793010235,0.08445644379,4.726501465,2024-06-05 19:18:56.640895
52.68140394,9.408621788,-13.26845932,7.315724373,2024-06-05 19:18:56.681404
52.721878,0.6925342083,4.034926891,-9.975744247,2024-06-05 19:18:56.721878
52.76236884,-2.597908497,9.311601639,-9.201108932,2024-06-05 19:18:56.762369
52.80287691,0.3501188755,5.645154953,-7.470143318,2024-06-05 19:18:56.802877
52.84330571,4.793023109,-11.85826492,-5.265603065,2024-06-05 19:18:56.843306
52.88377347,-3.714555979,-0.7833328247,16.19172668,2024-06-05 19:18:56.883773
52.92429087,-0.6551308632,-1.805251122,-9.376271248,2024-06-05 19:18:56.924291
52.96477253,-0.5632612705,1.272781372,-2.310875654,2024-06-05 19:18:56.964773
53.00526186,-0.08932852745,0.9095258713,4.596847057,2024-06-05 19:18:57.005262
53.04571331,-1.50545454,-0.6836824417,0.3516336679,2024-06-05 19:18:57.045713
53.08622451,-1.29626298,0.4030370712,0.6891316175,2024-06-05 19:18:57.086225
53.1267143,-1.717352152,-0.7889633179,4.862375259,2024-06-05 19:18:57.126714
53.16718686,-1.368914127,-0.7395954132,2.001814127,2024-06-05 19:18:57.167187
53.20766342,-0.6387499571,-0.510512352,-0.4166755974,2024-06-05 19:18:57.207663
53.24813139,-1.401176453,-4.048232079,5.633839607,2024-06-05 19:18:57.248131
53.28863008,1.221596241,-4.075694084,1.854782939,2024-06-05 19:18:57.288630
53.3290968,5.097465515,-1.230704308,1.024830103,2024-06-05 19:18:57.329097
53.3696068,4.445866108,-1.884198189,-5.654711723,2024-06-05 19:18:57.369607
53.4101404,3.574441433,-0.4441204071,-5.922748566,2024-06-05 19:18:57.410140
53.45058118,2.901038647,-0.8807401657,-6.11756897,2024-06-05 19:18:57.450581
53.49108196,-0.381934166,-0.580121994,-5.238185406,2024-06-05 19:18:57.491082
53.53153514,1.30832231,3.748024464,-6.731354713,2024-06-05 19:18:57.531535
53.57204305,2.80453968,1.039758682,4.050450325,2024-06-05 19:18:57.572043
53.61251134,0.5377159119,1.004640102,-8.833932877,2024-06-05 19:18:57.612511
53.65300134,4.318341255,2.01170826,-1.540881157,2024-06-05 19:18:57.653001
53.69346988,2.521393061,-1.483542442,-4.854441643,2024-06-05 19:18:57.693470
53.73393092,2.145601511,-1.886681557,3.112597227,2024-06-05 19:18:57.733931
53.7744091,0.4830901623,1.243851662,-2.69822216,2024-06-05 19:18:57.774409
53.81489154,0.6550526619,0.4533176422,-4.903980255,2024-06-05 19:18:57.814892
53.85538284,1.016098738,-0.493314743,1.747368097,2024-06-05 19:18:57.855383
53.89583238,-1.326910853,-1.724924088,3.42448473,2024-06-05 19:18:57.895832
53.93641113,-1.12002182,-0.1276817322,-2.044433117,2024-06-05 19:18:57.936411
53.97684982,-1.361249089,0.1559925079,-4.162124634,2024-06-05 19:18:57.976850
54.01735347,0.5512070656,1.191635132,-2.096274137,2024-06-05 19:18:58.017353
54.05782191,-0.4616644382,0.3180484772,-4.577649117,2024-06-05 19:18:58.057822
54.09831498,0.2207279205,-0.08273696899,-3.828061581,2024-06-05 19:18:58.098315
54.13876878,0.4505369663,-0.72240448,-1.474591017,2024-06-05 19:18:58.138769
54.17925446,3.8974576,-2.916855812,1.908954144,2024-06-05 19:18:58.179254
54.21973108,4.186706066,-5.752304077,8.068555832,2024-06-05 19:18:58.219731
54.260253,-2.334212303,0.4475240707,-0.04315051436,2024-06-05 19:18:58.260253
54.30072566,-2.199348927,-3.04102993,6.833042622,2024-06-05 19:18:58.300726
54.34121081,-2.868718147,-3.625879288,-0.0813703835,2024-06-05 19:18:58.341211
54.38169717,-2.592849731,2.372754574,-1.832035065,2024-06-05 19:18:58.381697
54.42218071,-2.100312948,2.520390034,-1.695568085,2024-06-05 19:18:58.422181
54.46262144,-1.058498621,2.18512249,-1.64639926,2024-06-05 19:18:58.462621
54.503128,0.4094436169,2.158594131,2.60919404,2024-06-05 19:18:58.503128
54.54357639,-0.9488379955,-0.8144073486,2.545622349,2024-06-05 19:18:58.543576
54.58407134,1.295894384,-0.6633062363,-0.9153774977,2024-06-05 19:18:58.584071
54.6245854,0.03869533539,0.2631082535,-1.607564211,2024-06-05 19:18:58.624585
54.66508946,-0.3567011356,1.015357971,-3.212816715,2024-06-05 19:18:58.665089
54.70553108,-1.249876738,0.3818798065,-3.156190395,2024-06-05 19:18:58.705531
54.74598748,0.1502809525,0.258887291,-2.317260027,2024-06-05 19:18:58.745987
54.78650634,0.69033885,-2.25403595,-2.360939503,2024-06-05 19:18:58.786506
54.82698873,6.506554127,-3.379384995,4.474103928,2024-06-05 19:18:58.826989
54.8674443,4.940378189,-1.230895042,4.582820415,2024-06-05 19:18:58.867444
54.90792019,-0.1965329647,-1.336060524,1.592211723,2024-06-05 19:18:58.907920
54.94842055,-2.149653673,0.6337842941,-1.240761995,2024-06-05 19:18:58.948421
54.98891597,-2.055456877,2.516449928,-0.8878643513,2024-06-05 19:18:58.988916
55.02940394,-0.04416298866,3.072744846,-0.538308382,2024-06-05 19:18:59.029404
55.06987462,-0.03524160385,3.995510578,-3.546481133,2024-06-05 19:18:59.069875
55.11037858,-1.412792206,3.135038376,-4.219478607,2024-06-05 19:18:59.110379
55.1508541,-1.175364494,0.04552936554,-4.72611618,2024-06-05 19:18:59.150854
55.19131295,-0.5167118311,-1.106443405,-3.338418245,2024-06-05 19:18:59.191313
55.23179368,0.4852275848,0.1059093475,0.6221008301,2024-06-05 19:18:59.231794
55.27228144,2.225905657,-2.274523735,-0.9156463146,2024-06-05 19:18:59.272281
55.31277368,8.824661255,-7.74281311,10.05394173,2024-06-05 19:18:59.312774
55.353253,-4.169761658,-1.282162666,11.63143539,2024-06-05 19:18:59.353253
55.393718,-1.169155121,-4.630469322,4.508020878,2024-06-05 19:18:59.393718
55.43420061,-1.175856829,-2.511361122,0.2666148543,2024-06-05 19:18:59.434201
55.47468305,-3.082042456,3.037800789,-1.913272738,2024-06-05 19:18:59.474683
55.51519477,-2.906519651,2.433016777,-1.640184641,2024-06-05 19:18:59.515195
55.55568092,-1.656003714,2.161865234,-0.441085577,2024-06-05 19:18:59.555681
55.59617634,0.1977477074,-0.1873025894,8.100962639,2024-06-05 19:18:59.596176
55.63666795,0.3315653801,-2.277199745,0.003829419613,2024-06-05 19:18:59.636668
55.67713706,-1.166309118,-0.788608551,0.2829750776,2024-06-05 19:18:59.677137
55.71757977,-0.335457325,-0.8871088028,4.752415657,2024-06-05 19:18:59.717580
55.75804748,-3.954102993,-5.052739143,1.61930728,2024-06-05 19:18:59.758047
55.79856936,-2.983058453,-3.667172432,-7.077106953,2024-06-05 19:18:59.798569
55.83906394,-4.707020283,4.125475883,-7.450510025,2024-06-05 19:18:59.839064
55.87950233,5.825145721,9.091647148,2.671852112,2024-06-05 19:18:59.879502
55.91999498,1.038279772,-7.092329025,7.288311005,2024-06-05 19:18:59.919995
55.96048243,-3.242051601,10.40603733,2.222741604,2024-06-05 19:18:59.960482
56.0009855,-2.418531418,9.053519249,2.013858795,2024-06-05 19:19:00.000985
56.04148358,0.3836443424,4.98974514,-2.772166729,2024-06-05 19:19:00.041484
56.08196233,5.573924065,-5.351993561,4.028032303,2024-06-05 19:19:00.081962
56.1224292,-0.9283041954,-7.931567192,-3.553667068,2024-06-05 19:19:00.122429
56.16291415,4.647702217,-1.57899189,-4.13887167,2024-06-05 19:19:00.162914
56.2033817,-0.02101135254,1.297603607,0.8790517449,2024-06-05 19:19:00.203382
56.24385738,-4.052612782,-4.44036293,7.030117989,2024-06-05 19:19:00.243857
56.28435467,-7.278102875,-2.160927773,-2.497153282,2024-06-05 19:19:00.284355
56.32483701,-5.5919981,2.974739552,1.521066904,2024-06-05 19:19:00.324837
56.36533269,1.833120346,8.090296745,6.092871189,2024-06-05 19:19:00.365333
56.40581566,3.189223528,5.151050091,-1.696270823,2024-06-05 19:19:00.405816
56.44632498,-2.964092731,0.7321777344,2.547932625,2024-06-05 19:19:00.446325
56.48678035,-4.409524918,-3.660331726,3.368605614,2024-06-05 19:19:00.486780
56.52724665,-4.340749741,-2.474736214,0.5774695277,2024-06-05 19:19:00.527247
56.56772592,-6.213862896,-4.415710449,1.709177971,2024-06-05 19:19:00.567726
56.60823561,-4.471038818,-3.330604553,1.819754958,2024-06-05 19:19:00.608236
56.64872967,-3.242474079,-3.933097839,-1.014167905,2024-06-05 19:19:00.648730
56.68920128,0.2801923752,-3.768563271,0.2257239819,2024-06-05 19:19:00.689201
56.72962066,-0.5132181644,-1.064774513,-0.03809171915,2024-06-05 19:19:00.729621
56.77016904,2.690296173,-2.925827026,-3.690965652,2024-06-05 19:19:00.770169
56.81061482,6.02457571,-6.515627861,-0.1595981121,2024-06-05 19:19:00.810615
56.8511016,10.29659176,-7.64490509,1.215806961,2024-06-05 19:19:00.851102
56.89154561,8.278138161,-3.3279562,-4.228034019,2024-06-05 19:19:00.891546
56.93206358,7.30627346,4.342061043,-11.31120586,2024-06-05 19:19:00.932064
56.97255884,1.8427912,2.931802273,-3.329561949,2024-06-05 19:19:00.972559
57.01305092,2.636101246,0.4123411179,-2.602188587,2024-06-05 19:19:01.013051
57.05353295,3.194967747,2.638482094,-5.417933941,2024-06-05 19:19:01.053533
57.09398425,3.423249722,2.676357746,-5.641021729,2024-06-05 19:19:01.093984
57.13450701,1.441087484,2.457588196,-5.003935814,2024-06-05 19:19:01.134507
57.17492503,-1.630815387,0.3439188004,-5.063866615,2024-06-05 19:19:01.174925
57.21547186,1.652257919,0.07869148254,1.565510035,2024-06-05 19:19:01.215472
57.25593962,1.892490387,-0.5540676117,-3.09673357,2024-06-05 19:19:01.255940
57.2964305,1.524486303,1.513211727,-2.11295557,2024-06-05 19:19:01.296430
57.3369191,2.103858948,0.4017934799,0.8954553604,2024-06-05 19:19:01.336919
57.37737029,0.3438692093,-0.443780899,-1.650978208,2024-06-05 19:19:01.377370
57.41785316,-0.4222550392,0.04921627045,-0.9029693604,2024-06-05 19:19:01.417853
57.45835087,0.2545385361,0.6209783554,0.8279654384,2024-06-05 19:19:01.458351
57.49884618,0.2896988392,-0.8167829514,0.1842294335,2024-06-05 19:19:01.498846
57.53930144,1.412102461,-1.609763145,2.55943346,2024-06-05 19:19:01.539301
57.57981399,-1.004261732,0.06224441528,0.88613832,2024-06-05 19:19:01.579814
57.62030201,-0.4317569733,0.5450544357,0.4839043617,2024-06-05 19:19:01.620302
57.66078727,-0.08379006386,0.9897384644,0.3414080143,2024-06-05 19:19:01.660787
57.7012617,-0.9106619358,1.668232918,-0.7853240967,2024-06-05 19:19:01.701262
57.74167649,0.1916325092,-1.052798271,-2.646038532,2024-06-05 19:19:01.741676
57.78223347,-2.6954422,-3.541311264,4.399393082,2024-06-05 19:19:01.782233
57.82269222,-4.789611816,-0.736790657,3.025918961,2024-06-05 19:19:01.822692
57.86318753,-2.364614248,-1.76634407,1.862425685,2024-06-05 19:19:01.863188
57.90360894,3.206542492,0.2770586014,7.932611942,2024-06-05 19:19:01.903609
57.94409102,6.44077158,2.535130024,1.870713353,2024-06-05 19:19:01.944091
57.984583,1.323294163,7.705518246,-8.183115005,2024-06-05 19:19:01.984583
58.02507399,0.9793035984,2.486159325,-7.198540688,2024-06-05 19:19:02.025074
58.06558915,-0.9583089352,-9.706124306,-7.97315979,2024-06-05 19:19:02.065589
58.10609597,-5.773043633,-4.956515312,4.037659645,2024-06-05 19:19:02.106096
58.14656628,-0.1511223316,2.954821587,0.2877495289,2024-06-05 19:19:02.146566
58.18705055,-1.229717255,-6.282841682,0.646948576,2024-06-05 19:19:02.187051
58.22753368,-0.6752684116,-0.937541008,-2.463160992,2024-06-05 19:19:02.227534
58.26801186,0.4615375996,-1.165572166,-2.429909706,2024-06-05 19:19:02.268012
58.30850066,0.3950102329,-0.9114961624,-1.323783636,2024-06-05 19:19:02.308501
58.34898618,-0.4969125986,-0.3315229416,1.007551193,2024-06-05 19:19:02.348986
58.38946972,-1.224903226,0.3141794205,1.831984282,2024-06-05 19:19:02.389470
58.42994805,-1.81712389,0.7247667313,-0.7260493636,2024-06-05 19:19:02.429948
58.47042456,-1.557122469,1.15234375,0.1150996685,2024-06-05 19:19:02.470425
58.51090436,-0.5060896873,1.722035885,1.855196476,2024-06-05 19:19:02.510904
58.55137665,-1.809103012,0.8519639969,2.16323638,2024-06-05 19:19:02.551377
58.59187154,-0.9409389496,-0.4934463501,1.357279181,2024-06-05 19:19:02.591872
58.63233238,-1.536274195,-1.31801796,1.865444183,2024-06-05 19:19:02.632332
58.67281258,-0.9627028108,-2.045846939,2.061785698,2024-06-05 19:19:02.672813
58.71331826,-0.1903238297,-3.522883415,3.932727814,2024-06-05 19:19:02.713318
58.7538017,-0.0914529562,-2.495542526,5.007639885,2024-06-05 19:19:02.753802
58.79428509,0.1767536402,-1.145736694,5.979647636,2024-06-05 19:19:02.794285
58.83476847,1.057828188,-0.4386396408,4.066352367,2024-06-05 19:19:02.834768
58.87524227,1.359234333,-0.8089427948,-5.320075512,2024-06-05 19:19:02.875242
58.91572415,1.680060387,0.8308286667,-3.347037315,2024-06-05 19:19:02.915724
58.95621988,0.5882613659,-1.506111145,0.1678981781,2024-06-05 19:19:02.956220
58.99671347,-2.728392124,-2.169275284,-3.37515831,2024-06-05 19:19:02.996713
59.03717534,0.1552987099,3.851055145,-4.538912296,2024-06-05 19:19:03.037175
59.0776692,-0.4228136539,5.380222321,-3.921371698,2024-06-05 19:19:03.077669
59.11813488,-1.10315311,4.095962524,-2.396441221,2024-06-05 19:19:03.118135
59.15862394,0.9559860229,0.7222204208,8.368452072,2024-06-05 19:19:03.158624
59.19912019,0.9797134399,-6.27649498,10.25661469,2024-06-05 19:19:03.199120
59.23958149,6.421215057,-10.08553028,4.264151096,2024-06-05 19:19:03.239581
59.28007217,0.4237856865,4.817968845,-10.02918053,2024-06-05 19:19:03.280072
59.32056389,-0.6259889603,10.68148613,-8.687440872,2024-06-05 19:19:03.320564
59.36104581,6.149931908,5.501348019,-7.36153698,2024-06-05 19:19:03.361046
59.40149587,6.506224632,-13.75482464,-6.098452091,2024-06-05 19:19:03.401496
59.44198456,-1.97659409,-1.418438911,9.071412086,2024-06-05 19:19:03.441985
59.48247399,-4.854790688,-2.658412933,-2.900911331,2024-06-05 19:19:03.482474
59.5229642,-1.278551102,1.819848061,-1.296166658,2024-06-05 19:19:03.522964
59.56345337,-2.291599035,1.885056019,0.5857855082,2024-06-05 19:19:03.563453
59.60391925,-2.408805847,1.152990341,0.7594096661,2024-06-05 19:19:03.603919
59.64441514,-1.954676151,0.04284381866,0.676574111,2024-06-05 19:19:03.644415
59.68489717,2.482934713,-0.4262666702,12.62899494,2024-06-05 19:19:03.684897
59.72535003,-2.208637476,-2.240637779,-2.896752357,2024-06-05 19:19:03.725350
59.76586608,-4.214666367,-1.302765846,3.026198387,2024-06-05 19:19:03.765866
59.80637102,-3.314341784,-4.878446579,6.380895615,2024-06-05 19:19:03.806371
59.84684899,-1.121167302,-3.956510544,1.955822468,2024-06-05 19:19:03.846849
59.88727581,-0.2893365622,-2.39554882,-2.540313482,2024-06-05 19:19:03.887276
59.92778066,5.057952881,-2.226777077,-3.660875797,2024-06-05 19:19:03.927781
59.96828618,2.059666157,-2.631191254,-2.449138403,2024-06-05 19:19:03.968286
60.0087716,5.020409107,0.8905229568,-5.734906673,2024-06-05 19:19:04.008772
60.04925493,4.978450298,1.05848217,-7.676515579,2024-06-05 19:19:04.049255
60.08972805,4.317772865,0.8025789261,-1.070276976,2024-06-05 19:19:04.089728
60.13018451,2.020977974,2.373638153,-6.253975868,2024-06-05 19:19:04.130185
60.17069665,2.313860178,2.195883274,-1.954191923,2024-06-05 19:19:04.170697
60.21111118,1.640606284,2.175796032,-2.494474411,2024-06-05 19:19:04.211111
60.25166753,-1.141452551,-2.468682289,1.424339294,2024-06-05 19:19:04.251668
60.29214795,-1.336617112,-2.065345764,-0.7497622967,2024-06-05 19:19:04.292148
60.33260972,1.271313906,-0.6731100082,0.883951664,2024-06-05 19:19:04.332610
60.37307706,1.670494318,-0.5325574875,-0.2400257587,2024-06-05 19:19:04.373077
60.41354352,2.193759441,1.305795193,-1.537456512,2024-06-05 19:19:04.413544
60.4540204,2.630764008,2.055700779,-2.169291973,2024-06-05 19:19:04.454020
60.49450264,1.073443413,0.9593434334,-2.939590216,2024-06-05 19:19:04.494503
60.53498498,0.6764830351,0.8055715561,-2.691865444,2024-06-05 19:19:04.534985
60.57547634,0.06328749657,0.07582759857,-1.53256011,2024-06-05 19:19:04.575476
60.615998,0.137748003,0.02285766602,-0.8328096867,2024-06-05 19:19:04.615998
60.65648139,0.9237689972,-0.2916088104,-2.022251129,2024-06-05 19:19:04.656481
60.6969618,2.010942936,0.6411027908,0.1657640934,2024-06-05 19:19:04.696962
60.7373943,0.4057376385,0.09736251831,-3.987243414,2024-06-05 19:19:04.737394
60.77792894,-0.4902335405,-0.2404966354,-4.924567223,2024-06-05 19:19:04.777929
60.8183891,0.5917781591,-1.539450645,-3.436144829,2024-06-05 19:19:04.818389
60.85890154,1.106292009,0.1140966415,-0.8062378168,2024-06-05 19:19:04.858902
60.89933331,0.7125548124,3.70456171,-0.2148398161,2024-06-05 19:19:04.899333
60.93983212,4.380334854,0.1005239487,-1.268850565,2024-06-05 19:19:04.939832
60.98034733,4.779998779,-9.01306057,4.502664566,2024-06-05 19:19:04.980347
61.02083066,-6.950258732,-8.256162643,22.40392303,2024-06-05 19:19:05.020831
61.06131858,-0.6848834753,-3.441824913,2.134590387,2024-06-05 19:19:05.061319
61.10179227,-3.938223362,2.633093834,-4.536896706,2024-06-05 19:19:05.101792
61.14224566,-2.271607876,0.6513547897,-3.296494961,2024-06-05 19:19:05.142246
61.18274321,-1.719913006,-0.2647657394,2.019958019,2024-06-05 19:19:05.182743
61.22324602,1.744343042,1.058028221,5.267615318,2024-06-05 19:19:05.223246
61.26370024,0.07894992828,-0.4232711792,3.775249481,2024-06-05 19:19:05.263700
61.30416144,-1.136487961,0.01386833191,0.4367188215,2024-06-05 19:19:05.304161
61.34464686,-2.135075092,-0.1701726913,1.632589102,2024-06-05 19:19:05.344647
61.38513462,-1.274566412,-0.2253780365,0.9917356968,2024-06-05 19:19:05.385135
61.42562394,-1.643484235,-0.07639980316,1.623253345,2024-06-05 19:19:05.425624
61.46612993,-2.639705896,-0.3666219711,1.296442866,2024-06-05 19:19:05.466130
61.50662863,-2.839880705,-0.2987661362,0.7257078886,2024-06-05 19:19:05.506629
61.5471029,-3.464122295,-0.5925064087,1.580888033,2024-06-05 19:19:05.547103
61.58756858,-4.054535866,-1.340548515,1.569655895,2024-06-05 19:19:05.587569
61.62800795,-2.70590353,-1.344204903,1.453404188,2024-06-05 19:19:05.628008
61.66854003,1.218059063,-0.5648803711,3.510808945,2024-06-05 19:19:05.668540
61.70901701,2.091429472,-4.3155756,7.1194067,2024-06-05 19:19:05.709017
61.74947795,-0.1748806238,-3.608704567,6.473224163,2024-06-05 19:19:05.749478
61.78998941,-0.3992704153,-1.449503899,3.088718653,2024-06-05 19:19:05.789989
61.83046503,5.111280918,-2.114022255,-2.89650774,2024-06-05 19:19:05.830465
61.87094061,3.227488279,-0.444486618,-4.77804184,2024-06-05 19:19:05.870941
61.91141331,1.701361895,1.061761856,-2.672205448,2024-06-05 19:19:05.911413
61.95192029,-0.3628706932,0.04727363586,-0.7513041496,2024-06-05 19:19:05.951920
61.992388,-0.2626159191,0.5621509552,-3.263103962,2024-06-05 19:19:05.992388
62.03287316,0.1992623806,3.201801777,-2.699872971,2024-06-05 19:19:06.032873
62.07335321,-0.7194626331,2.883218765,-0.9253194332,2024-06-05 19:19:06.073353
62.11383493,-0.5937488079,1.767794609,0.663107872,2024-06-05 19:19:06.113835
62.15429701,-1.277287722,1.895731449,0.8637852669,2024-06-05 19:19:06.154297
62.1948105,-0.9324634075,1.241867542,0.4256825447,2024-06-05 19:19:06.194811
62.23527816,-0.05410718918,0.04433107376,0.3442158699,2024-06-05 19:19:06.235278
62.27577081,0.2436389923,1.956257343,0.1957120895,2024-06-05 19:19:06.275771
62.31628441,-0.3942255974,3.190387011,1.695212364,2024-06-05 19:19:06.316284
62.35675524,18.06306076,-16.26830292,6.70208931,2024-06-05 19:19:06.356755
62.39722738,-2.029510975,-10.76220894,-11.04269409,2024-06-05 19:19:06.397227
62.43768451,-8.622220993,12.11630535,-6.091119766,2024-06-05 19:19:06.437685
62.47818587,-2.363604546,-11.63282585,0.5820274353,2024-06-05 19:19:06.478186
62.51869034,-1.589912891,4.577723503,1.825930119,2024-06-05 19:19:06.518690
62.55917368,-3.106225491,-0.001669406891,-2.215666533,2024-06-05 19:19:06.559174
62.59963415,1.18919754,-1.209952831,-0.3514308929,2024-06-05 19:19:06.599634
62.6401066,-0.2456140518,-1.351121426,-1.177350521,2024-06-05 19:19:06.640107
62.68062201,-1.905139923,-0.84887743,-0.6338744164,2024-06-05 19:19:06.680622
62.72105337,-0.7690939903,0.1263232231,0.4318509102,2024-06-05 19:19:06.721053
62.76155759,-0.8572397232,-1.775524139,-0.9899654388,2024-06-05 19:19:06.761558
62.80204253,-0.6053264141,-1.47021246,-1.208508015,2024-06-05 19:19:06.802043
62.84252274,0.4373993874,-0.9103560448,-0.9175481796,2024-06-05 19:19:06.842523
62.88295665,-0.5791475773,-0.873796463,-0.8108303547,2024-06-05 19:19:06.882957
62.92343972,-0.3683583736,-1.243492603,-0.5499837399,2024-06-05 19:19:06.923440
