Time (s),Acceleration x (m/s^2),Acceleration y (m/s^2),Acceleration z (m/s^2),Datetime
0.000862923,-5.631807327,5.104787827,2.256431818,2024-06-11 14:17:07.000863
0.0208186,-2.385943174,6.374479294,5.195715427,2024-06-11 14:17:07.020819
0.0608186,0.0,0.0,0.0,2024-06-11 14:17:07.060819
0.1008186,0.0,0.0,0.0,2024-06-11 14:17:07.100819
0.1408186,0.0,0.0,0.0,2024-06-11 14:17:07.140819
0.1808186,0.0,0.0,0.0,2024-06-11 14:17:07.180819
0.2208186,0.0,0.0,0.0,2024-06-11 14:17:07.220819
0.2608186,0.0,0.0,0.0,2024-06-11 14:17:07.260819
0.3008186,0.0,0.0,0.0,2024-06-11 14:17:07.300819
0.3408186,0.0,0.0,0.0,2024-06-11 14:17:07.340819
0.3808186,0.0,0.0,0.0,2024-06-11 14:17:07.380819
0.4208186,0.0,0.0,0.0,2024-06-11 14:17:07.420819
0.4608186,-0.07058826834,1.62652123,10.20239735,2024-06-11 14:17:07.460819
0.5008186,1.288834095,5.365904808,2.752344131,2024-06-11 14:17:07.500819
0.5408186,0.2814557552,4.417449474,6.845267296,2024-06-11 14:17:07.540819
0.5808186,1.559522152,5.437689304,6.434299946,2024-06-11 14:17:07.580819
0.6208186,0.01316052489,5.594718456,4.568197727,2024-06-11 14:17:07.620819
0.6608186,0.01316052489,5.594718456,4.568197727,2024-06-11 14:17:07.660819
0.7008186,0.01316052489,5.594718456,4.568197727,2024-06-11 14:17:07.700819
0.7408186,0.01316052489,5.594718456,4.568197727,2024-06-11 14:17:07.740819
0.7808186,0.01316052489,5.594718456,4.568197727,2024-06-11 14:17:07.780819
0.8208186,0.01316052489,5.594718456,4.568197727,2024-06-11 14:17:07.820819
0.8608186,0.01316052489,5.594718456,4.568197727,2024-06-11 14:17:07.860819
0.9008186,0.01316052489,5.594718456,4.568197727,2024-06-11 14:17:07.900819
0.9408186,0.01316052489,5.594718456,4.568197727,2024-06-11 14:17:07.940819
0.9808186,0.01316052489,5.594718456,4.568197727,2024-06-11 14:17:07.980819
1.0208186,0.9149555564,-10.55922699,9.845567703,2024-06-11 14:17:08.020819
1.0608186,0.9149555564,-10.55922699,9.845567703,2024-06-11 14:17:08.060819
1.1008186,0.9149555564,-10.55922699,9.845567703,2024-06-11 14:17:08.100819
1.1408186,0.9149555564,-10.55922699,9.845567703,2024-06-11 14:17:08.140819
1.1808186,0.9149555564,-10.55922699,9.845567703,2024-06-11 14:17:08.180819
1.2208186,0.9149555564,-10.55922699,9.845567703,2024-06-11 14:17:08.220819
1.2608186,0.9149555564,-10.55922699,9.845567703,2024-06-11 14:17:08.260819
1.3008186,0.9149555564,-10.55922699,9.845567703,2024-06-11 14:17:08.300819
1.3408186,0.9149555564,-10.55922699,9.845567703,2024-06-11 14:17:08.340819
1.3808186,-3.570390463,-3.250649452,4.241278172,2024-06-11 14:17:08.380819
1.4208186,-3.570390463,-3.250649452,4.241278172,2024-06-11 14:17:08.420819
1.4608186,-3.570390463,-3.250649452,4.241278172,2024-06-11 14:17:08.460819
1.5008186,-3.570390463,-3.250649452,4.241278172,2024-06-11 14:17:08.500819
1.5408186,-3.570390463,-3.250649452,4.241278172,2024-06-11 14:17:08.540819
1.5808186,-3.570390463,-3.250649452,4.241278172,2024-06-11 14:17:08.580819
1.6208186,-3.570390463,-3.250649452,4.241278172,2024-06-11 14:17:08.620819
1.6608186,-3.570390463,-3.250649452,4.241278172,2024-06-11 14:17:08.660819
1.7008186,-3.570390463,-3.250649452,4.241278172,2024-06-11 14:17:08.700819
1.7408186,-3.570390463,-3.250649452,4.241278172,2024-06-11 14:17:08.740819
1.7808186,-3.570390463,-3.250649452,4.241278172,2024-06-11 14:17:08.780819
1.8208186,-3.570390463,-3.250649452,4.241278172,2024-06-11 14:17:08.820819
1.8608186,-3.570390463,-3.250649452,4.241278172,2024-06-11 14:17:08.860819
1.9008186,-3.570390463,-3.250649452,4.241278172,2024-06-11 14:17:08.900819
1.9408186,-3.570390463,-3.250649452,4.241278172,2024-06-11 14:17:08.940819
1.9808186,-3.570390463,-3.250649452,4.241278172,2024-06-11 14:17:08.980819
2.0208186,-3.570390463,-3.250649452,4.241278172,2024-06-11 14:17:09.020819
2.0608186,-3.570390463,-3.250649452,4.241278172,2024-06-11 14:17:09.060819
2.1008186,-3.570390463,-3.250649452,4.241278172,2024-06-11 14:17:09.100819
2.1408186,2.030309916,-9.277871132,-2.657827854,2024-06-11 14:17:09.140819
2.1808186,-14.13470268,-19.77368736,4.067499161,2024-06-11 14:17:09.180819
2.2208186,-5.810371399,-7.836793423,6.124130249,2024-06-11 14:17:09.220819
2.2608186,0.2431706041,-4.434199333,-0.347258389,2024-06-11 14:17:09.260819
2.3008186,-2.323729992,-10.47428226,-3.800400496,2024-06-11 14:17:09.300819
2.3408186,-2.323729992,-10.47428226,-3.800400496,2024-06-11 14:17:09.340819
2.3808186,5.009075165,-10.35224819,1.462313771,2024-06-11 14:17:09.380819
2.4208186,5.009075165,-10.35224819,1.462313771,2024-06-11 14:17:09.420819
2.4608186,5.009075165,-10.35224819,1.462313771,2024-06-11 14:17:09.460819
2.5008186,5.009075165,-10.35224819,1.462313771,2024-06-11 14:17:09.500819
2.5408186,5.009075165,-10.35224819,1.462313771,2024-06-11 14:17:09.540819
2.5808186,5.009075165,-10.35224819,1.462313771,2024-06-11 14:17:09.580819
2.6208186,3.468695641,-8.939884186,-0.3125624657,2024-06-11 14:17:09.620819
2.6608186,3.468695641,-8.939884186,-0.3125624657,2024-06-11 14:17:09.660819
2.7008186,3.468695641,-8.939884186,-0.3125624657,2024-06-11 14:17:09.700819
2.7408186,3.468695641,-8.939884186,-0.3125624657,2024-06-11 14:17:09.740819
2.7808186,3.468695641,-8.939884186,-0.3125624657,2024-06-11 14:17:09.780819
2.8208186,3.468695641,-8.939884186,-0.3125624657,2024-06-11 14:17:09.820819
2.8608186,3.468695641,-8.939884186,-0.3125624657,2024-06-11 14:17:09.860819
2.9008186,3.468695641,-8.939884186,-0.3125624657,2024-06-11 14:17:09.900819
2.9408186,3.468695641,-8.939884186,-0.3125624657,2024-06-11 14:17:09.940819
2.9808186,3.468695641,-8.939884186,-0.3125624657,2024-06-11 14:17:09.980819
3.0208186,3.468695641,-8.939884186,-0.3125624657,2024-06-11 14:17:10.020819
3.0608186,3.468695641,-8.939884186,-0.3125624657,2024-06-11 14:17:10.060819
3.1008186,3.468695641,-8.939884186,-0.3125624657,2024-06-11 14:17:10.100819
3.1408186,3.468695641,-8.939884186,-0.3125624657,2024-06-11 14:17:10.140819
3.1808186,3.468695641,-8.939884186,-0.3125624657,2024-06-11 14:17:10.180819
3.2208186,3.468695641,-8.939884186,-0.3125624657,2024-06-11 14:17:10.220819
3.2608186,3.468695641,-8.939884186,-0.3125624657,2024-06-11 14:17:10.260819
3.3008186,3.468695641,-8.939884186,-0.3125624657,2024-06-11 14:17:10.300819
3.3408186,3.468695641,-8.939884186,-0.3125624657,2024-06-11 14:17:10.340819
3.3808186,3.468695641,-8.939884186,-0.3125624657,2024-06-11 14:17:10.380819
3.4208186,3.468695641,-8.939884186,-0.3125624657,2024-06-11 14:17:10.420819
3.4608186,3.468695641,-8.939884186,-0.3125624657,2024-06-11 14:17:10.460819
3.5008186,3.468695641,-8.939884186,-0.3125624657,2024-06-11 14:17:10.500819
3.5408186,3.468695641,-8.939884186,-0.3125624657,2024-06-11 14:17:10.540819
3.5808186,3.468695641,-8.939884186,-0.3125624657,2024-06-11 14:17:10.580819
3.6208186,3.468695641,-8.939884186,-0.3125624657,2024-06-11 14:17:10.620819
3.6608186,3.468695641,-8.939884186,-0.3125624657,2024-06-11 14:17:10.660819
3.7008186,3.468695641,-8.939884186,-0.3125624657,2024-06-11 14:17:10.700819
3.7408186,3.468695641,-8.939884186,-0.3125624657,2024-06-11 14:17:10.740819
3.7808186,3.468695641,-8.939884186,-0.3125624657,2024-06-11 14:17:10.780819
3.8208186,1.594218135,-9.126823425,-0.1845464408,2024-06-11 14:17:10.820819
3.8608186,1.655235052,-9.834799767,-0.4145565331,2024-06-11 14:17:10.860819
3.9008186,1.821835399,-9.882657051,-0.9786644578,2024-06-11 14:17:10.900819
3.9408186,2.423032045,-8.921937943,-0.832403183,2024-06-11 14:17:10.940819
3.9808186,1.848156333,-8.954241753,-0.4145565331,2024-06-11 14:17:10.980819
4.0208186,1.848156333,-8.954241753,-0.4145565331,2024-06-11 14:17:11.020819
4.0608186,1.848156333,-8.954241753,-0.4145565331,2024-06-11 14:17:11.060819
4.1008186,1.848156333,-8.954241753,-0.4145565331,2024-06-11 14:17:11.100819
4.1408186,2.723630428,-8.977272034,-1.925923109,2024-06-11 14:17:11.140819
4.1808186,2.723630428,-8.977272034,-1.925923109,2024-06-11 14:17:11.180819
4.2208186,2.723630428,-8.977272034,-1.925923109,2024-06-11 14:17:11.220819
4.2608186,2.723630428,-8.977272034,-1.925923109,2024-06-11 14:17:11.260819
4.3008186,2.723630428,-8.977272034,-1.925923109,2024-06-11 14:17:11.300819
4.3408186,2.723630428,-8.977272034,-1.925923109,2024-06-11 14:17:11.340819
4.3808186,2.445763826,-7.808079243,-0.1414756328,2024-06-11 14:17:11.380819
4.4208186,2.445763826,-7.808079243,-0.1414756328,2024-06-11 14:17:11.420819
4.4608186,2.445763826,-7.808079243,-0.1414756328,2024-06-11 14:17:11.460819
4.5008186,2.445763826,-7.808079243,-0.1414756328,2024-06-11 14:17:11.500819
4.5408186,2.445763826,-7.808079243,-0.1414756328,2024-06-11 14:17:11.540819
4.5808186,2.445763826,-7.808079243,-0.1414756328,2024-06-11 14:17:11.580819
4.6208186,6.02363205,-7.61755085,-2.049452543,2024-06-11 14:17:11.620819
4.6608186,6.02363205,-7.61755085,-2.049452543,2024-06-11 14:17:11.660819
4.7008186,6.02363205,-7.61755085,-2.049452543,2024-06-11 14:17:11.700819
4.7408186,6.02363205,-7.61755085,-2.049452543,2024-06-11 14:17:11.740819
4.7808186,6.02363205,-7.61755085,-2.049452543,2024-06-11 14:17:11.780819
4.8208186,6.02363205,-7.61755085,-2.049452543,2024-06-11 14:17:11.820819
4.8608186,6.02363205,-7.61755085,-2.049452543,2024-06-11 14:17:11.860819
4.9008186,6.02363205,-7.61755085,-2.049452543,2024-06-11 14:17:11.900819
4.9408186,6.02363205,-7.61755085,-2.049452543,2024-06-11 14:17:11.940819
4.9808186,6.02363205,-7.61755085,-2.049452543,2024-06-11 14:17:11.980819
5.0208186,6.02363205,-7.61755085,-2.049452543,2024-06-11 14:17:12.020819
5.0608186,6.02363205,-7.61755085,-2.049452543,2024-06-11 14:17:12.060819
5.1008186,6.02363205,-7.61755085,-2.049452543,2024-06-11 14:17:12.100819
5.1408186,6.02363205,-7.61755085,-2.049452543,2024-06-11 14:17:12.140819
5.1808186,6.02363205,-7.61755085,-2.049452543,2024-06-11 14:17:12.180819
5.2208186,6.02363205,-7.61755085,-2.049452543,2024-06-11 14:17:12.220819
5.2608186,6.02363205,-7.61755085,-2.049452543,2024-06-11 14:17:12.260819
5.3008186,6.02363205,-7.61755085,-2.049452543,2024-06-11 14:17:12.300819
5.3408186,6.02363205,-7.61755085,-2.049452543,2024-06-11 14:17:12.340819
5.3808186,6.02363205,-7.61755085,-2.049452543,2024-06-11 14:17:12.380819
5.4208186,6.02363205,-7.61755085,-2.049452543,2024-06-11 14:17:12.420819
5.4608186,6.02363205,-7.61755085,-2.049452543,2024-06-11 14:17:12.460819
5.5008186,0.4085744619,-9.814460754,1.382154226,2024-06-11 14:17:12.500819
5.5408186,1.815853238,-9.501898766,-2.017149448,2024-06-11 14:17:12.540819
5.5808186,2.833999395,-8.829814911,-4.045963764,2024-06-11 14:17:12.580819
5.6208186,5.773283005,-9.707681656,2.044667006,2024-06-11 14:17:12.620819
5.6608186,1.959422588,-9.635896683,1.896012783,2024-06-11 14:17:12.660819
5.7008186,1.959422588,-9.635896683,1.896012783,2024-06-11 14:17:12.700819
5.7408186,1.959422588,-9.635896683,1.896012783,2024-06-11 14:17:12.740819
5.7808186,1.959422588,-9.635896683,1.896012783,2024-06-11 14:17:12.780819
5.8208186,1.959422588,-9.635896683,1.896012783,2024-06-11 14:17:12.820819
5.8608186,1.959422588,-9.635896683,1.896012783,2024-06-11 14:17:12.860819
5.9008186,1.959422588,-9.635896683,1.896012783,2024-06-11 14:17:12.900819
5.9408186,1.959422588,-9.635896683,1.896012783,2024-06-11 14:17:12.940819
5.9808186,1.959422588,-9.635896683,1.896012783,2024-06-11 14:17:12.980819
6.0208186,1.959422588,-9.635896683,1.896012783,2024-06-11 14:17:13.020819
6.0608186,1.959422588,-9.635896683,1.896012783,2024-06-11 14:17:13.060819
6.1008186,1.959422588,-9.635896683,1.896012783,2024-06-11 14:17:13.100819
6.1408186,1.959422588,-9.635896683,1.896012783,2024-06-11 14:17:13.140819
6.1808186,1.959422588,-9.635896683,1.896012783,2024-06-11 14:17:13.180819
6.2208186,1.959422588,-9.635896683,1.896012783,2024-06-11 14:17:13.220819
6.2608186,1.959422588,-9.635896683,1.896012783,2024-06-11 14:17:13.260819
6.3008186,1.959422588,-9.635896683,1.896012783,2024-06-11 14:17:13.300819
6.3408186,1.959422588,-9.635896683,1.896012783,2024-06-11 14:17:13.340819
6.3808186,1.959422588,-9.635896683,1.896012783,2024-06-11 14:17:13.380819
6.4208186,1.959422588,-9.635896683,1.896012783,2024-06-11 14:17:13.420819
6.4608186,1.959422588,-9.635896683,1.896012783,2024-06-11 14:17:13.460819
6.5008186,1.959422588,-9.635896683,1.896012783,2024-06-11 14:17:13.500819
6.5408186,1.959422588,-9.635896683,1.896012783,2024-06-11 14:17:13.540819
6.5808186,1.959422588,-9.635896683,1.896012783,2024-06-11 14:17:13.580819
6.6208186,6.024828434,-11.42183971,-1.880459547,2024-06-11 14:17:13.620819
6.6608186,6.024828434,-11.42183971,-1.880459547,2024-06-11 14:17:13.660819
6.7008186,6.024828434,-11.42183971,-1.880459547,2024-06-11 14:17:13.700819
6.7408186,6.024828434,-11.42183971,-1.880459547,2024-06-11 14:17:13.740819
6.7808186,6.024828434,-11.42183971,-1.880459547,2024-06-11 14:17:13.780819
6.8208186,6.024828434,-11.42183971,-1.880459547,2024-06-11 14:17:13.820819
6.8608186,6.024828434,-11.42183971,-1.880459547,2024-06-11 14:17:13.860819
6.9008186,6.024828434,-11.42183971,-1.880459547,2024-06-11 14:17:13.900819
6.9408186,6.024828434,-11.42183971,-1.880459547,2024-06-11 14:17:13.940819
6.9808186,6.024828434,-11.42183971,-1.880459547,2024-06-11 14:17:13.980819
7.0208186,6.024828434,-11.42183971,-1.880459547,2024-06-11 14:17:14.020819
7.0608186,6.024828434,-11.42183971,-1.880459547,2024-06-11 14:17:14.060819
7.1008186,6.024828434,-11.42183971,-1.880459547,2024-06-11 14:17:14.100819
7.1408186,6.024828434,-11.42183971,-1.880459547,2024-06-11 14:17:14.140819
7.1808186,1.80508554,-10.13659477,-2.159522533,2024-06-11 14:17:14.180819
7.2208186,1.490130305,-9.560523033,-1.541576028,2024-06-11 14:17:14.220819
7.2608186,1.758425593,-9.395118713,-2.299801588,2024-06-11 14:17:14.260819
7.3008186,2.11645174,-9.792925835,-3.192025423,2024-06-11 14:17:14.300819
7.3408186,4.434199333,-9.086145401,-1.372582912,2024-06-11 14:17:14.340819
7.3808186,3.92991209,-9.490832329,4.36211586,2024-06-11 14:17:14.380819
7.4208186,3.92991209,-9.490832329,4.36211586,2024-06-11 14:17:14.420819
7.4608186,3.92991209,-9.490832329,4.36211586,2024-06-11 14:17:14.460819
7.5008186,3.92991209,-9.490832329,4.36211586,2024-06-11 14:17:14.500819
7.5408186,3.92991209,-9.490832329,4.36211586,2024-06-11 14:17:14.540819
7.5808186,3.92991209,-9.490832329,4.36211586,2024-06-11 14:17:14.580819
7.6208186,3.92991209,-9.490832329,4.36211586,2024-06-11 14:17:14.620819
7.6608186,3.92991209,-9.490832329,4.36211586,2024-06-11 14:17:14.660819
7.7008186,3.92991209,-9.490832329,4.36211586,2024-06-11 14:17:14.700819
7.7408186,3.92991209,-9.490832329,4.36211586,2024-06-11 14:17:14.740819
7.7808186,3.92991209,-9.490832329,4.36211586,2024-06-11 14:17:14.780819
7.8208186,3.92991209,-9.490832329,4.36211586,2024-06-11 14:17:14.820819
7.8608186,3.92991209,-9.490832329,4.36211586,2024-06-11 14:17:14.860819
7.9008186,3.92991209,-9.490832329,4.36211586,2024-06-11 14:17:14.900819
7.9408186,3.92991209,-9.490832329,4.36211586,2024-06-11 14:17:14.940819
7.9808186,3.92991209,-9.490832329,4.36211586,2024-06-11 14:17:14.980819
8.0208186,3.92991209,-9.490832329,4.36211586,2024-06-11 14:17:15.020819
8.0608186,3.92991209,-9.490832329,4.36211586,2024-06-11 14:17:15.060819
8.1008186,3.92991209,-9.490832329,4.36211586,2024-06-11 14:17:15.100819
8.1408186,3.92991209,-9.490832329,4.36211586,2024-06-11 14:17:15.140819
8.1808186,3.92991209,-9.490832329,4.36211586,2024-06-11 14:17:15.180819
8.2208186,3.92991209,-9.490832329,4.36211586,2024-06-11 14:17:15.220819
8.2608186,3.92991209,-9.490832329,4.36211586,2024-06-11 14:17:15.260819
8.3008186,3.92991209,-9.490832329,4.36211586,2024-06-11 14:17:15.300819
8.3408186,3.92991209,-9.490832329,4.36211586,2024-06-11 14:17:15.340819
8.3808186,6.580561161,-6.25094986,4.868795872,2024-06-11 14:17:15.380819
8.4208186,6.580561161,-6.25094986,4.868795872,2024-06-11 14:17:15.420819
8.4608186,6.580561161,-6.25094986,4.868795872,2024-06-11 14:17:15.460819
8.5008186,6.580561161,-6.25094986,4.868795872,2024-06-11 14:17:15.500819
8.5408186,6.580561161,-6.25094986,4.868795872,2024-06-11 14:17:15.540819
8.5808186,6.580561161,-6.25094986,4.868795872,2024-06-11 14:17:15.580819
8.6208186,2.559721947,-11.62403297,5.387440205,2024-06-11 14:17:15.620819
8.6608186,2.559721947,-11.62403297,5.387440205,2024-06-11 14:17:15.660819
8.7008186,2.559721947,-11.62403297,5.387440205,2024-06-11 14:17:15.700819
8.7408186,2.559721947,-11.62403297,5.387440205,2024-06-11 14:17:15.740819
8.7808186,2.559721947,-11.62403297,5.387440205,2024-06-11 14:17:15.780819
8.8208186,2.559721947,-11.62403297,5.387440205,2024-06-11 14:17:15.820819
8.8608186,7.279863834,-8.907581329,0.1124626622,2024-06-11 14:17:15.860819
8.9008186,-0.08374879509,-14.49272823,-0.05623133108,2024-06-11 14:17:15.900819
8.9408186,-0.9954141974,-10.5664053,1.281655669,2024-06-11 14:17:15.940819
8.9808186,2.862713099,-8.835796356,-0.5234299302,2024-06-11 14:17:15.980819
9.0208186,5.158626556,-8.300402641,2.885445118,2024-06-11 14:17:16.020819
9.0608186,5.158626556,-8.300402641,2.885445118,2024-06-11 14:17:16.060819
9.1008186,5.158626556,-8.300402641,2.885445118,2024-06-11 14:17:16.100819
9.1408186,2.036292076,-9.566504478,2.442174673,2024-06-11 14:17:16.140819
9.1808186,2.036292076,-9.566504478,2.442174673,2024-06-11 14:17:16.180819
9.2208186,2.036292076,-9.566504478,2.442174673,2024-06-11 14:17:16.220819
9.2608186,2.036292076,-9.566504478,2.442174673,2024-06-11 14:17:16.260819
9.3008186,2.036292076,-9.566504478,2.442174673,2024-06-11 14:17:16.300819
9.3408186,2.036292076,-9.566504478,2.442174673,2024-06-11 14:17:16.340819
9.3808186,2.036292076,-9.566504478,2.442174673,2024-06-11 14:17:16.380819
9.4208186,2.036292076,-9.566504478,2.442174673,2024-06-11 14:17:16.420819
9.4608186,2.036292076,-9.566504478,2.442174673,2024-06-11 14:17:16.460819
9.5008186,2.036292076,-9.566504478,2.442174673,2024-06-11 14:17:16.500819
9.5408186,2.036292076,-9.566504478,2.442174673,2024-06-11 14:17:16.540819
9.5808186,2.036292076,-9.566504478,2.442174673,2024-06-11 14:17:16.580819
9.6208186,8.111070633,-11.47926712,5.993422508,2024-06-11 14:17:16.620819
9.6608186,8.111070633,-11.47926712,5.993422508,2024-06-11 14:17:16.660819
9.7008186,8.111070633,-11.47926712,5.993422508,2024-06-11 14:17:16.700819
9.7408186,8.111070633,-11.47926712,5.993422508,2024-06-11 14:17:16.740819
9.7808186,8.111070633,-11.47926712,5.993422508,2024-06-11 14:17:16.780819
9.8208186,8.111070633,-11.47926712,5.993422508,2024-06-11 14:17:16.820819
9.8608186,8.111070633,-11.47926712,5.993422508,2024-06-11 14:17:16.860819
9.9008186,8.111070633,-11.47926712,5.993422508,2024-06-11 14:17:16.900819
9.9408186,8.111070633,-11.47926712,5.993422508,2024-06-11 14:17:16.940819
9.9808186,8.111070633,-11.47926712,5.993422508,2024-06-11 14:17:16.980819
10.0208186,8.111070633,-11.47926712,5.993422508,2024-06-11 14:17:17.020819
10.0608186,8.111070633,-11.47926712,5.993422508,2024-06-11 14:17:17.060819
10.1008186,8.111070633,-11.47926712,5.993422508,2024-06-11 14:17:17.100819
10.1408186,8.111070633,-11.47926712,5.993422508,2024-06-11 14:17:17.140819
10.1808186,8.111070633,-11.47926712,5.993422508,2024-06-11 14:17:17.180819
10.2208186,8.111070633,-11.47926712,5.993422508,2024-06-11 14:17:17.220819
10.2608186,8.111070633,-11.47926712,5.993422508,2024-06-11 14:17:17.260819
10.3008186,8.111070633,-11.47926712,5.993422508,2024-06-11 14:17:17.300819
10.3408186,8.111070633,-11.47926712,5.993422508,2024-06-11 14:17:17.340819
10.3808186,8.111070633,-11.47926712,5.993422508,2024-06-11 14:17:17.380819
10.4208186,8.111070633,-11.47926712,5.993422508,2024-06-11 14:17:17.420819
10.4608186,8.111070633,-11.47926712,5.993422508,2024-06-11 14:17:17.460819
10.5008186,8.111070633,-11.47926712,5.993422508,2024-06-11 14:17:17.500819
10.5408186,1.004985452,-5.375475883,-1.49132669,2024-06-11 14:17:17.540819
10.5808186,5.672485352,-6.986443996,-0.5449653864,2024-06-11 14:17:17.580819
10.6208186,24.97538567,-30.24318504,24.02094841,2024-06-11 14:17:17.620819
10.6608186,7.935198307,-14.41855145,41.93690872,2024-06-11 14:17:17.660819
10.7008186,-1.022931695,-16.6151619,-1.220638633,2024-06-11 14:17:17.700819
10.7408186,-1.022931695,-16.6151619,-1.220638633,2024-06-11 14:17:17.740819
10.7808186,-1.022931695,-16.6151619,-1.220638633,2024-06-11 14:17:17.780819
10.8208186,-1.022931695,-16.6151619,-1.220638633,2024-06-11 14:17:17.820819
10.8608186,-1.022931695,-16.6151619,-1.220638633,2024-06-11 14:17:17.860819
10.9008186,-1.022931695,-16.6151619,-1.220638633,2024-06-11 14:17:17.900819
10.9408186,-1.022931695,-16.6151619,-1.220638633,2024-06-11 14:17:17.940819
10.9808186,-1.022931695,-16.6151619,-1.220638633,2024-06-11 14:17:17.980819
11.0208186,-1.022931695,-16.6151619,-1.220638633,2024-06-11 14:17:18.020819
11.0608186,-1.022931695,-16.6151619,-1.220638633,2024-06-11 14:17:18.060819
11.1008186,-1.022931695,-16.6151619,-1.220638633,2024-06-11 14:17:18.100819
11.1408186,-1.022931695,-16.6151619,-1.220638633,2024-06-11 14:17:18.140819
11.1808186,-1.022931695,-16.6151619,-1.220638633,2024-06-11 14:17:18.180819
11.2208186,-1.022931695,-16.6151619,-1.220638633,2024-06-11 14:17:18.220819
11.2608186,-1.022931695,-16.6151619,-1.220638633,2024-06-11 14:17:18.260819
11.3008186,-1.022931695,-16.6151619,-1.220638633,2024-06-11 14:17:18.300819
11.3408186,-1.022931695,-16.6151619,-1.220638633,2024-06-11 14:17:18.340819
11.3808186,7.51346302,-10.14855862,20.64318085,2024-06-11 14:17:18.380819
11.4208186,7.51346302,-10.14855862,20.64318085,2024-06-11 14:17:18.420819
11.4608186,7.51346302,-10.14855862,20.64318085,2024-06-11 14:17:18.460819
11.5008186,7.51346302,-10.14855862,20.64318085,2024-06-11 14:17:18.500819
11.5408186,7.51346302,-10.14855862,20.64318085,2024-06-11 14:17:18.540819
11.5808186,7.51346302,-10.14855862,20.64318085,2024-06-11 14:17:18.580819
11.6208186,7.51346302,-10.14855862,20.64318085,2024-06-11 14:17:18.620819
11.6608186,7.51346302,-10.14855862,20.64318085,2024-06-11 14:17:18.660819
11.7008186,7.51346302,-10.14855862,20.64318085,2024-06-11 14:17:18.700819
11.7408186,7.51346302,-10.14855862,20.64318085,2024-06-11 14:17:18.740819
11.7808186,7.51346302,-10.14855862,20.64318085,2024-06-11 14:17:18.780819
11.8208186,7.51346302,-10.14855862,20.64318085,2024-06-11 14:17:18.820819
11.8608186,7.51346302,-10.14855862,20.64318085,2024-06-11 14:17:18.860819
11.9008186,7.51346302,-10.14855862,20.64318085,2024-06-11 14:17:18.900819
11.9408186,7.51346302,-10.14855862,20.64318085,2024-06-11 14:17:18.940819
11.9808186,7.51346302,-10.14855862,20.64318085,2024-06-11 14:17:18.980819
12.0208186,7.51346302,-10.14855862,20.64318085,2024-06-11 14:17:19.020819
12.0608186,7.51346302,-10.14855862,20.64318085,2024-06-11 14:17:19.060819
12.1008186,7.51346302,-10.14855862,20.64318085,2024-06-11 14:17:19.100819
12.1408186,7.51346302,-10.14855862,20.64318085,2024-06-11 14:17:19.140819
12.1808186,7.51346302,-10.14855862,20.64318085,2024-06-11 14:17:19.180819
12.2208186,1.159322619,-8.523234367,-1.061216831,2024-06-11 14:17:19.220819
12.2608186,1.223031521,-8.269295692,-4.211368084,2024-06-11 14:17:19.260819
12.3008186,0.8371888399,-5.859424591,-4.629214287,2024-06-11 14:17:19.300819
12.3408186,-0.2491526604,-2.917748213,-4.955236435,2024-06-11 14:17:19.340819
12.3808186,2.335694075,-4.403990269,-1.794317842,2024-06-11 14:17:19.380819
12.4208186,2.335694075,-4.403990269,-1.794317842,2024-06-11 14:17:19.420819
12.4608186,2.335694075,-4.403990269,-1.794317842,2024-06-11 14:17:19.460819
12.5008186,2.335694075,-4.403990269,-1.794317842,2024-06-11 14:17:19.500819
12.5408186,2.335694075,-4.403990269,-1.794317842,2024-06-11 14:17:19.540819
12.5808186,2.335694075,-4.403990269,-1.794317842,2024-06-11 14:17:19.580819
12.6208186,-0.07537391037,-12.48784256,-0.05264209956,2024-06-11 14:17:19.620819
12.6608186,-0.07537391037,-12.48784256,-0.05264209956,2024-06-11 14:17:19.660819
12.7008186,-0.07537391037,-12.48784256,-0.05264209956,2024-06-11 14:17:19.700819
12.7408186,-0.07537391037,-12.48784256,-0.05264209956,2024-06-11 14:17:19.740819
12.7808186,-0.07537391037,-12.48784256,-0.05264209956,2024-06-11 14:17:19.780819
12.8208186,-0.07537391037,-12.48784256,-0.05264209956,2024-06-11 14:17:19.820819
12.8608186,-0.07537391037,-12.48784256,-0.05264209956,2024-06-11 14:17:19.860819
12.9008186,-0.07537391037,-12.48784256,-0.05264209956,2024-06-11 14:17:19.900819
12.9408186,-0.07537391037,-12.48784256,-0.05264209956,2024-06-11 14:17:19.940819
12.9808186,-0.07537391037,-12.48784256,-0.05264209956,2024-06-11 14:17:19.980819
13.0208186,-0.07537391037,-12.48784256,-0.05264209956,2024-06-11 14:17:20.020819
13.0608186,-0.07537391037,-12.48784256,-0.05264209956,2024-06-11 14:17:20.060819
13.1008186,-0.07537391037,-12.48784256,-0.05264209956,2024-06-11 14:17:20.100819
13.1408186,-0.07537391037,-12.48784256,-0.05264209956,2024-06-11 14:17:20.140819
13.1808186,-0.07537391037,-12.48784256,-0.05264209956,2024-06-11 14:17:20.180819
13.2208186,-0.07537391037,-12.48784256,-0.05264209956,2024-06-11 14:17:20.220819
13.2608186,-0.07537391037,-12.48784256,-0.05264209956,2024-06-11 14:17:20.260819
13.3008186,-0.07537391037,-12.48784256,-0.05264209956,2024-06-11 14:17:20.300819
13.3408186,-0.07537391037,-12.48784256,-0.05264209956,2024-06-11 14:17:20.340819
13.3808186,-0.07537391037,-12.48784256,-0.05264209956,2024-06-11 14:17:20.380819
13.4208186,-0.07537391037,-12.48784256,-0.05264209956,2024-06-11 14:17:20.420819
13.4608186,-0.07537391037,-12.48784256,-0.05264209956,2024-06-11 14:17:20.460819
13.5008186,-0.07537391037,-12.48784256,-0.05264209956,2024-06-11 14:17:20.500819
13.5408186,-0.07537391037,-12.48784256,-0.05264209956,2024-06-11 14:17:20.540819
13.5808186,-0.07537391037,-12.48784256,-0.05264209956,2024-06-11 14:17:20.580819
13.6208186,1.709073544,-10.46112156,-0.4145565331,2024-06-11 14:17:20.620819
13.6608186,1.709073544,-10.46112156,-0.4145565331,2024-06-11 14:17:20.660819
13.7008186,1.709073544,-10.46112156,-0.4145565331,2024-06-11 14:17:20.700819
13.7408186,1.709073544,-10.46112156,-0.4145565331,2024-06-11 14:17:20.740819
13.7808186,1.709073544,-10.46112156,-0.4145565331,2024-06-11 14:17:20.780819
13.8208186,1.709073544,-10.46112156,-0.4145565331,2024-06-11 14:17:20.820819
13.8608186,1.709073544,-10.46112156,-0.4145565331,2024-06-11 14:17:20.860819
13.9008186,0.3544368446,-10.39053345,-0.8204390407,2024-06-11 14:17:20.900819
13.9408186,0.5593222976,-10.11505985,1.233799219,2024-06-11 14:17:20.940819
13.9808186,2.83519578,-8.426025391,1.728216171,2024-06-11 14:17:20.980819
14.0208186,2.530709028,-8.148159027,0.03948157281,2024-06-11 14:17:21.020819
14.0608186,2.358425856,-8.767601013,1.272084355,2024-06-11 14:17:21.060819
14.1008186,2.358425856,-8.767601013,1.272084355,2024-06-11 14:17:21.100819
14.1408186,1.784746647,-10.22393322,-0.88504529,2024-06-11 14:17:21.140819
14.1808186,1.784746647,-10.22393322,-0.88504529,2024-06-11 14:17:21.180819
14.2208186,1.784746647,-10.22393322,-0.88504529,2024-06-11 14:17:21.220819
14.2608186,1.784746647,-10.22393322,-0.88504529,2024-06-11 14:17:21.260819
14.3008186,1.784746647,-10.22393322,-0.88504529,2024-06-11 14:17:21.300819
14.3408186,1.784746647,-10.22393322,-0.88504529,2024-06-11 14:17:21.340819
14.3808186,3.345465183,-8.472985268,1.945065737,2024-06-11 14:17:21.380819
14.4208186,3.345465183,-8.472985268,1.945065737,2024-06-11 14:17:21.420819
14.4608186,3.345465183,-8.472985268,1.945065737,2024-06-11 14:17:21.460819
14.5008186,3.345465183,-8.472985268,1.945065737,2024-06-11 14:17:21.500819
14.5408186,3.345465183,-8.472985268,1.945065737,2024-06-11 14:17:21.540819
14.5808186,3.345465183,-8.472985268,1.945065737,2024-06-11 14:17:21.580819
14.6208186,3.798007727,-6.482156754,5.531308651,2024-06-11 14:17:21.620819
14.6608186,3.798007727,-6.482156754,5.531308651,2024-06-11 14:17:21.660819
14.7008186,3.798007727,-6.482156754,5.531308651,2024-06-11 14:17:21.700819
14.7408186,3.798007727,-6.482156754,5.531308651,2024-06-11 14:17:21.740819
14.7808186,3.798007727,-6.482156754,5.531308651,2024-06-11 14:17:21.780819
14.8208186,3.798007727,-6.482156754,5.531308651,2024-06-11 14:17:21.820819
14.8608186,3.798007727,-6.482156754,5.531308651,2024-06-11 14:17:21.860819
14.9008186,3.798007727,-6.482156754,5.531308651,2024-06-11 14:17:21.900819
14.9408186,3.798007727,-6.482156754,5.531308651,2024-06-11 14:17:21.940819
14.9808186,3.798007727,-6.482156754,5.531308651,2024-06-11 14:17:21.980819
15.0208186,3.798007727,-6.482156754,5.531308651,2024-06-11 14:17:22.020819
15.0608186,3.798007727,-6.482156754,5.531308651,2024-06-11 14:17:22.060819
15.1008186,3.798007727,-6.482156754,5.531308651,2024-06-11 14:17:22.100819
15.1408186,3.798007727,-6.482156754,5.531308651,2024-06-11 14:17:22.140819
15.1808186,3.798007727,-6.482156754,5.531308651,2024-06-11 14:17:22.180819
15.2208186,3.798007727,-6.482156754,5.531308651,2024-06-11 14:17:22.220819
15.2608186,3.798007727,-6.482156754,5.531308651,2024-06-11 14:17:22.260819
15.3008186,3.798007727,-6.482156754,5.531308651,2024-06-11 14:17:22.300819
15.3408186,3.798007727,-6.482156754,5.531308651,2024-06-11 14:17:22.340819
15.3808186,3.798007727,-6.482156754,5.531308651,2024-06-11 14:17:22.380819
15.4208186,3.798007727,-6.482156754,5.531308651,2024-06-11 14:17:22.420819
15.4608186,3.798007727,-6.482156754,5.531308651,2024-06-11 14:17:22.460819
15.5008186,3.798007727,-6.482156754,5.531308651,2024-06-11 14:17:22.500819
15.5408186,3.798007727,-6.482156754,5.531308651,2024-06-11 14:17:22.540819
15.5808186,2.791825771,-9.289834976,2.566900492,2024-06-11 14:17:22.580819
15.6208186,2.48045969,-9.244371414,0.36161533,2024-06-11 14:17:22.620819
15.6608186,2.714059114,-9.349655151,-0.07058826834,2024-06-11 14:17:22.660819
15.7008186,1.244566917,-9.601201057,2.167897224,2024-06-11 14:17:22.700819
15.7408186,4.007678986,-9.661021233,1.814656854,2024-06-11 14:17:22.740819
15.7808186,4.007678986,-9.661021233,1.814656854,2024-06-11 14:17:22.780819
15.8208186,4.007678986,-9.661021233,1.814656854,2024-06-11 14:17:22.820819
15.8608186,4.007678986,-9.661021233,1.814656854,2024-06-11 14:17:22.860819
15.9008186,4.007678986,-9.661021233,1.814656854,2024-06-11 14:17:22.900819
15.9408186,4.007678986,-9.661021233,1.814656854,2024-06-11 14:17:22.940819
15.9808186,4.007678986,-9.661021233,1.814656854,2024-06-11 14:17:22.980819
16.0208186,4.007678986,-9.661021233,1.814656854,2024-06-11 14:17:23.020819
16.0608186,4.007678986,-9.661021233,1.814656854,2024-06-11 14:17:23.060819
16.1008186,4.007678986,-9.661021233,1.814656854,2024-06-11 14:17:23.100819
16.1408186,4.007678986,-9.661021233,1.814656854,2024-06-11 14:17:23.140819
16.1808186,4.007678986,-9.661021233,1.814656854,2024-06-11 14:17:23.180819
16.2208186,4.007678986,-9.661021233,1.814656854,2024-06-11 14:17:23.220819
16.2608186,4.007678986,-9.661021233,1.814656854,2024-06-11 14:17:23.260819
16.3008186,4.007678986,-9.661021233,1.814656854,2024-06-11 14:17:23.300819
16.3408186,4.007678986,-9.661021233,1.814656854,2024-06-11 14:17:23.340819
16.3808186,4.007678986,-9.661021233,1.814656854,2024-06-11 14:17:23.380819
16.4208186,4.007678986,-9.661021233,1.814656854,2024-06-11 14:17:23.420819
16.4608186,4.007678986,-9.661021233,1.814656854,2024-06-11 14:17:23.460819
16.5008186,4.007678986,-9.661021233,1.814656854,2024-06-11 14:17:23.500819
16.5408186,4.007678986,-9.661021233,1.814656854,2024-06-11 14:17:23.540819
16.5808186,4.007678986,-9.661021233,1.814656854,2024-06-11 14:17:23.580819
16.6208186,4.007678986,-9.661021233,1.814656854,2024-06-11 14:17:23.620819
16.6608186,4.007678986,-9.661021233,1.814656854,2024-06-11 14:17:23.660819
16.7008186,4.007678986,-9.661021233,1.814656854,2024-06-11 14:17:23.700819
16.7408186,4.007678986,-9.661021233,1.814656854,2024-06-11 14:17:23.740819
16.7808186,4.007678986,-9.661021233,1.814656854,2024-06-11 14:17:23.780819
16.8208186,4.007678986,-9.661021233,1.814656854,2024-06-11 14:17:23.820819
16.8608186,4.007678986,-9.661021233,1.814656854,2024-06-11 14:17:23.860819
16.9008186,4.007678986,-9.661021233,1.814656854,2024-06-11 14:17:23.900819
16.9408186,4.007678986,-9.661021233,1.814656854,2024-06-11 14:17:23.940819
16.9808186,4.007678986,-9.661021233,1.814656854,2024-06-11 14:17:23.980819
17.0208186,4.007678986,-9.661021233,1.814656854,2024-06-11 14:17:24.020819
17.0608186,4.007678986,-9.661021233,1.814656854,2024-06-11 14:17:24.060819
17.1008186,4.007678986,-9.661021233,1.814656854,2024-06-11 14:17:24.100819
17.1408186,4.007678986,-9.661021233,1.814656854,2024-06-11 14:17:24.140819
17.1808186,4.007678986,-9.661021233,1.814656854,2024-06-11 14:17:24.180819
17.2208186,4.007678986,-9.661021233,1.814656854,2024-06-11 14:17:24.220819
17.2608186,1.025324464,-9.720842361,-0.9738788009,2024-06-11 14:17:24.260819
17.3008186,3.999304056,-11.69252777,-2.957229614,2024-06-11 14:17:24.300819
17.3408186,4.271188259,-7.544569969,-3.544069529,2024-06-11 14:17:24.340819
17.3808186,3.121437073,-7.889435291,0.4899304509,2024-06-11 14:17:24.380819
17.4208186,1.793121457,-11.42064381,8.157731056,2024-06-11 14:17:24.420819
17.4608186,1.793121457,-11.42064381,8.157731056,2024-06-11 14:17:24.460819
17.5008186,1.793121457,-11.42064381,8.157731056,2024-06-11 14:17:24.500819
17.5408186,1.793121457,-11.42064381,8.157731056,2024-06-11 14:17:24.540819
17.5808186,1.793121457,-11.42064381,8.157731056,2024-06-11 14:17:24.580819
17.6208186,2.202593327,-9.049057007,0.8252246976,2024-06-11 14:17:24.620819
17.6608186,2.202593327,-9.049057007,0.8252246976,2024-06-11 14:17:24.660819
17.7008186,2.202593327,-9.049057007,0.8252246976,2024-06-11 14:17:24.700819
17.7408186,2.202593327,-9.049057007,0.8252246976,2024-06-11 14:17:24.740819
17.7808186,2.202593327,-9.049057007,0.8252246976,2024-06-11 14:17:24.780819
17.8208186,2.202593327,-9.049057007,0.8252246976,2024-06-11 14:17:24.820819
17.8608186,2.202593327,-9.049057007,0.8252246976,2024-06-11 14:17:24.860819
17.9008186,2.202593327,-9.049057007,0.8252246976,2024-06-11 14:17:24.900819
17.9408186,2.202593327,-9.049057007,0.8252246976,2024-06-11 14:17:24.940819
17.9808186,2.202593327,-9.049057007,0.8252246976,2024-06-11 14:17:24.980819
18.0208186,2.202593327,-9.049057007,0.8252246976,2024-06-11 14:17:25.020819
18.0608186,2.202593327,-9.049057007,0.8252246976,2024-06-11 14:17:25.060819
18.1008186,2.202593327,-9.049057007,0.8252246976,2024-06-11 14:17:25.100819
18.1408186,2.202593327,-9.049057007,0.8252246976,2024-06-11 14:17:25.140819
18.1808186,2.202593327,-9.049057007,0.8252246976,2024-06-11 14:17:25.180819
18.2208186,2.202593327,-9.049057007,0.8252246976,2024-06-11 14:17:25.220819
18.2608186,2.202593327,-9.049057007,0.8252246976,2024-06-11 14:17:25.260819
18.3008186,2.202593327,-9.049057007,0.8252246976,2024-06-11 14:17:25.300819
18.3408186,2.202593327,-9.049057007,0.8252246976,2024-06-11 14:17:25.340819
18.3808186,2.032702923,-7.599604607,2.039881229,2024-06-11 14:17:25.380819
18.4208186,2.032702923,-7.599604607,2.039881229,2024-06-11 14:17:25.420819
18.4608186,2.032702923,-7.599604607,2.039881229,2024-06-11 14:17:25.460819
18.5008186,2.032702923,-7.599604607,2.039881229,2024-06-11 14:17:25.500819
18.5408186,2.032702923,-7.599604607,2.039881229,2024-06-11 14:17:25.540819
18.5808186,2.032702923,-7.599604607,2.039881229,2024-06-11 14:17:25.580819
18.6208186,2.032702923,-7.599604607,2.039881229,2024-06-11 14:17:25.620819
18.6608186,2.032702923,-7.599604607,2.039881229,2024-06-11 14:17:25.660819
18.7008186,2.032702923,-7.599604607,2.039881229,2024-06-11 14:17:25.700819
18.7408186,2.032702923,-7.599604607,2.039881229,2024-06-11 14:17:25.740819
18.7808186,2.032702923,-7.599604607,2.039881229,2024-06-11 14:17:25.780819
18.8208186,2.032702923,-7.599604607,2.039881229,2024-06-11 14:17:25.820819
18.8608186,2.032702923,-7.599604607,2.039881229,2024-06-11 14:17:25.860819
18.9008186,2.032702923,-7.599604607,2.039881229,2024-06-11 14:17:25.900819
18.9408186,2.969193697,-9.932906151,3.428017616,2024-06-11 14:17:25.940819
18.9808186,1.954637051,-9.91017437,1.67437768,2024-06-11 14:17:25.980819
19.0208186,2.321336985,-8.711369514,-0.1462612897,2024-06-11 14:17:26.020819
19.0608186,2.999104023,-8.887242317,0.04426721856,2024-06-11 14:17:26.060819
19.1008186,3.490231037,-8.966505051,-0.6394818425,2024-06-11 14:17:26.100819
19.1408186,3.732205153,-9.009575844,-0.8647062778,2024-06-11 14:17:26.140819
19.1808186,3.732205153,-9.009575844,-0.8647062778,2024-06-11 14:17:26.180819
19.2208186,3.732205153,-9.009575844,-0.8647062778,2024-06-11 14:17:26.220819
19.2608186,3.732205153,-9.009575844,-0.8647062778,2024-06-11 14:17:26.260819
19.3008186,3.732205153,-9.009575844,-0.8647062778,2024-06-11 14:17:26.300819
19.3408186,3.732205153,-9.009575844,-0.8647062778,2024-06-11 14:17:26.340819
19.3808186,3.732205153,-9.009575844,-0.8647062778,2024-06-11 14:17:26.380819
19.4208186,3.732205153,-9.009575844,-0.8647062778,2024-06-11 14:17:26.420819
19.4608186,3.732205153,-9.009575844,-0.8647062778,2024-06-11 14:17:26.460819
19.5008186,3.732205153,-9.009575844,-0.8647062778,2024-06-11 14:17:26.500819
19.5408186,3.732205153,-9.009575844,-0.8647062778,2024-06-11 14:17:26.540819
19.5808186,3.732205153,-9.009575844,-0.8647062778,2024-06-11 14:17:26.580819
19.6208186,1.90079844,-9.619147301,-0.3747758567,2024-06-11 14:17:26.620819
19.6608186,1.90079844,-9.619147301,-0.3747758567,2024-06-11 14:17:26.660819
19.7008186,1.90079844,-9.619147301,-0.3747758567,2024-06-11 14:17:26.700819
19.7408186,1.90079844,-9.619147301,-0.3747758567,2024-06-11 14:17:26.740819
19.7808186,1.90079844,-9.619147301,-0.3747758567,2024-06-11 14:17:26.780819
19.8208186,1.90079844,-9.619147301,-0.3747758567,2024-06-11 14:17:26.820819
19.8608186,1.90079844,-9.619147301,-0.3747758567,2024-06-11 14:17:26.860819
19.9008186,1.90079844,-9.619147301,-0.3747758567,2024-06-11 14:17:26.900819
19.9408186,1.90079844,-9.619147301,-0.3747758567,2024-06-11 14:17:26.940819
19.9808186,1.90079844,-9.619147301,-0.3747758567,2024-06-11 14:17:26.980819
20.0208186,1.90079844,-9.619147301,-0.3747758567,2024-06-11 14:17:27.020819
20.0608186,1.90079844,-9.619147301,-0.3747758567,2024-06-11 14:17:27.060819
20.1008186,1.90079844,-9.619147301,-0.3747758567,2024-06-11 14:17:27.100819
20.1408186,1.90079844,-9.619147301,-0.3747758567,2024-06-11 14:17:27.140819
20.1808186,1.90079844,-9.619147301,-0.3747758567,2024-06-11 14:17:27.180819
20.2208186,1.90079844,-9.619147301,-0.3747758567,2024-06-11 14:17:27.220819
20.2608186,1.90079844,-9.619147301,-0.3747758567,2024-06-11 14:17:27.260819
20.3008186,1.90079844,-9.619147301,-0.3747758567,2024-06-11 14:17:27.300819
20.3408186,1.90079844,-9.619147301,-0.3747758567,2024-06-11 14:17:27.340819
20.3808186,1.90079844,-9.619147301,-0.3747758567,2024-06-11 14:17:27.380819
20.4208186,1.90079844,-9.619147301,-0.3747758567,2024-06-11 14:17:27.420819
20.4608186,1.90079844,-9.619147301,-0.3747758567,2024-06-11 14:17:27.460819
20.5008186,1.90079844,-9.619147301,-0.3747758567,2024-06-11 14:17:27.500819
20.5408186,1.90079844,-9.619147301,-0.3747758567,2024-06-11 14:17:27.540819
20.5808186,1.90079844,-9.619147301,-0.3747758567,2024-06-11 14:17:27.580819
20.6208186,1.90079844,-9.619147301,-0.3747758567,2024-06-11 14:17:27.620819
20.6608186,2.01475668,-8.869296074,-1.579861164,2024-06-11 14:17:27.660819
20.7008186,1.572682738,-9.536594391,1.109073281,2024-06-11 14:17:27.700819
20.7408186,2.323729992,-8.286046028,-0.7689933777,2024-06-11 14:17:27.740819
20.7808186,3.215953588,-8.190332413,-0.2850449979,2024-06-11 14:17:27.780819
20.8208186,3.215953588,-8.190332413,-0.2850449979,2024-06-11 14:17:27.820819
20.8608186,3.215953588,-8.190332413,-0.2850449979,2024-06-11 14:17:27.860819
20.9008186,3.215953588,-8.190332413,-0.2850449979,2024-06-11 14:17:27.900819
20.9408186,3.215953588,-8.190332413,-0.2850449979,2024-06-11 14:17:27.940819
20.9808186,3.215953588,-8.190332413,-0.2850449979,2024-06-11 14:17:27.980819
21.0208186,3.215953588,-8.190332413,-0.2850449979,2024-06-11 14:17:28.020819
21.0608186,3.215953588,-8.190332413,-0.2850449979,2024-06-11 14:17:28.060819
21.1008186,3.215953588,-8.190332413,-0.2850449979,2024-06-11 14:17:28.100819
21.1408186,3.215953588,-8.190332413,-0.2850449979,2024-06-11 14:17:28.140819
21.1808186,3.215953588,-8.190332413,-0.2850449979,2024-06-11 14:17:28.180819
21.2208186,3.215953588,-8.190332413,-0.2850449979,2024-06-11 14:17:28.220819
21.2608186,3.215953588,-8.190332413,-0.2850449979,2024-06-11 14:17:28.260819
21.3008186,3.215953588,-8.190332413,-0.2850449979,2024-06-11 14:17:28.300819
21.3408186,3.215953588,-8.190332413,-0.2850449979,2024-06-11 14:17:28.340819
21.3808186,0.9678967595,-9.279067039,0.804885745,2024-06-11 14:17:28.380819
21.4208186,0.9678967595,-9.279067039,0.804885745,2024-06-11 14:17:28.420819
21.4608186,0.9678967595,-9.279067039,0.804885745,2024-06-11 14:17:28.460819
21.5008186,0.9678967595,-9.279067039,0.804885745,2024-06-11 14:17:28.500819
21.5408186,0.9678967595,-9.279067039,0.804885745,2024-06-11 14:17:28.540819
21.5808186,0.9678967595,-9.279067039,0.804885745,2024-06-11 14:17:28.580819
21.6208186,0.9678967595,-9.279067039,0.804885745,2024-06-11 14:17:28.620819
21.6608186,0.9678967595,-9.279067039,0.804885745,2024-06-11 14:17:28.660819
21.7008186,0.9678967595,-9.279067039,0.804885745,2024-06-11 14:17:28.700819
21.7408186,0.9678967595,-9.279067039,0.804885745,2024-06-11 14:17:28.740819
21.7808186,0.9678967595,-9.279067039,0.804885745,2024-06-11 14:17:28.780819
21.8208186,0.9678967595,-9.279067039,0.804885745,2024-06-11 14:17:28.820819
21.8608186,0.9678967595,-9.279067039,0.804885745,2024-06-11 14:17:28.860819
21.9008186,0.9678967595,-9.279067039,0.804885745,2024-06-11 14:17:28.900819
21.9408186,0.9678967595,-9.279067039,0.804885745,2024-06-11 14:17:28.940819
21.9808186,0.9678967595,-9.279067039,0.804885745,2024-06-11 14:17:28.980819
22.0208186,0.9678967595,-9.279067039,0.804885745,2024-06-11 14:17:29.020819
22.0608186,0.9678967595,-9.279067039,0.804885745,2024-06-11 14:17:29.060819
22.1008186,0.9678967595,-9.279067039,0.804885745,2024-06-11 14:17:29.100819
22.1408186,0.9678967595,-9.279067039,0.804885745,2024-06-11 14:17:29.140819
22.1808186,0.9678967595,-9.279067039,0.804885745,2024-06-11 14:17:29.180819
22.2208186,0.9678967595,-9.279067039,0.804885745,2024-06-11 14:17:29.220819
22.2608186,0.9678967595,-9.279067039,0.804885745,2024-06-11 14:17:29.260819
22.3008186,3.349054337,-9.241978645,-0.6083751321,2024-06-11 14:17:29.300819
22.3408186,3.304488182,-9.319745064,-0.6035895348,2024-06-11 14:17:29.340819
22.3808186,2.988336325,-9.518648148,-0.6000002623,2024-06-11 14:17:29.380819
22.4208186,2.692523718,-9.107681274,-0.3161516786,2024-06-11 14:17:29.420819
22.4608186,2.854338408,-9.218947411,-0.03230310604,2024-06-11 14:17:29.460819
22.5008186,2.854338408,-9.218947411,-0.03230310604,2024-06-11 14:17:29.500819
22.5408186,2.854338408,-9.218947411,-0.03230310604,2024-06-11 14:17:29.540819
22.5808186,2.854338408,-9.218947411,-0.03230310604,2024-06-11 14:17:29.580819
22.6208186,2.854338408,-9.218947411,-0.03230310604,2024-06-11 14:17:29.620819
22.6608186,2.854338408,-9.218947411,-0.03230310604,2024-06-11 14:17:29.660819
22.7008186,2.854338408,-9.218947411,-0.03230310604,2024-06-11 14:17:29.700819
22.7408186,2.854338408,-9.218947411,-0.03230310604,2024-06-11 14:17:29.740819
22.7808186,2.854338408,-9.218947411,-0.03230310604,2024-06-11 14:17:29.780819
22.8208186,2.854338408,-9.218947411,-0.03230310604,2024-06-11 14:17:29.820819
22.8608186,2.854338408,-9.218947411,-0.03230310604,2024-06-11 14:17:29.860819
22.9008186,2.854338408,-9.218947411,-0.03230310604,2024-06-11 14:17:29.900819
22.9408186,2.854338408,-9.218947411,-0.03230310604,2024-06-11 14:17:29.940819
22.9808186,2.854338408,-9.218947411,-0.03230310604,2024-06-11 14:17:29.980819
23.0208186,2.854338408,-9.218947411,-0.03230310604,2024-06-11 14:17:30.020819
23.0608186,2.854338408,-9.218947411,-0.03230310604,2024-06-11 14:17:30.060819
23.1008186,2.854338408,-9.218947411,-0.03230310604,2024-06-11 14:17:30.100819
23.1408186,2.854338408,-9.218947411,-0.03230310604,2024-06-11 14:17:30.140819
23.1808186,2.854338408,-9.218947411,-0.03230310604,2024-06-11 14:17:30.180819
23.2208186,2.854338408,-9.218947411,-0.03230310604,2024-06-11 14:17:30.220819
23.2608186,2.854338408,-9.218947411,-0.03230310604,2024-06-11 14:17:30.260819
23.3008186,2.854338408,-9.218947411,-0.03230310604,2024-06-11 14:17:30.300819
23.3408186,2.854338408,-9.218947411,-0.03230310604,2024-06-11 14:17:30.340819
23.3808186,2.854338408,-9.218947411,-0.03230310604,2024-06-11 14:17:30.380819
23.4208186,2.854338408,-9.218947411,-0.03230310604,2024-06-11 14:17:30.420819
23.4608186,2.854338408,-9.218947411,-0.03230310604,2024-06-11 14:17:30.460819
23.5008186,2.854338408,-9.218947411,-0.03230310604,2024-06-11 14:17:30.500819
23.5408186,2.854338408,-9.218947411,-0.03230310604,2024-06-11 14:17:30.540819
23.5808186,2.854338408,-9.218947411,-0.03230310604,2024-06-11 14:17:30.580819
23.6208186,4.41625309,-8.553144455,0.4731806815,2024-06-11 14:17:30.620819
23.6608186,4.41625309,-8.553144455,0.4731806815,2024-06-11 14:17:30.660819
23.7008186,4.41625309,-8.553144455,0.4731806815,2024-06-11 14:17:30.700819
23.7408186,4.41625309,-8.553144455,0.4731806815,2024-06-11 14:17:30.740819
23.7808186,4.41625309,-8.553144455,0.4731806815,2024-06-11 14:17:30.780819
23.8208186,4.41625309,-8.553144455,0.4731806815,2024-06-11 14:17:30.820819
23.8608186,4.41625309,-8.553144455,0.4731806815,2024-06-11 14:17:30.860819
23.9008186,4.41625309,-8.553144455,0.4731806815,2024-06-11 14:17:30.900819
23.9408186,4.41625309,-8.553144455,0.4731806815,2024-06-11 14:17:30.940819
23.9808186,4.41625309,-8.553144455,0.4731806815,2024-06-11 14:17:30.980819
24.0208186,1.652842283,-7.798508167,0.1785643846,2024-06-11 14:17:31.020819
24.0608186,1.925923109,-8.084749222,-1.083948612,2024-06-11 14:17:31.060819
24.1008186,2.850749016,-9.629914284,-0.8503493667,2024-06-11 14:17:31.100819
24.1408186,2.730808735,-10.33310509,-1.05523479,2024-06-11 14:17:31.140819
24.1808186,2.730808735,-10.33310509,-1.05523479,2024-06-11 14:17:31.180819
24.2208186,2.730808735,-10.33310509,-1.05523479,2024-06-11 14:17:31.220819
24.2608186,2.730808735,-10.33310509,-1.05523479,2024-06-11 14:17:31.260819
24.3008186,2.730808735,-10.33310509,-1.05523479,2024-06-11 14:17:31.300819
24.3408186,2.730808735,-10.33310509,-1.05523479,2024-06-11 14:17:31.340819
24.3808186,2.700898647,-8.750851631,1.127019525,2024-06-11 14:17:31.380819
24.4208186,2.700898647,-8.750851631,1.127019525,2024-06-11 14:17:31.420819
24.4608186,2.700898647,-8.750851631,1.127019525,2024-06-11 14:17:31.460819
24.5008186,2.700898647,-8.750851631,1.127019525,2024-06-11 14:17:31.500819
24.5408186,2.700898647,-8.750851631,1.127019525,2024-06-11 14:17:31.540819
24.5808186,2.700898647,-8.750851631,1.127019525,2024-06-11 14:17:31.580819
24.6208186,1.625324726,-9.695717812,-0.3879363835,2024-06-11 14:17:31.620819
24.6608186,1.625324726,-9.695717812,-0.3879363835,2024-06-11 14:17:31.660819
24.7008186,1.625324726,-9.695717812,-0.3879363835,2024-06-11 14:17:31.700819
24.7408186,1.625324726,-9.695717812,-0.3879363835,2024-06-11 14:17:31.740819
24.7808186,1.625324726,-9.695717812,-0.3879363835,2024-06-11 14:17:31.780819
24.8208186,1.625324726,-9.695717812,-0.3879363835,2024-06-11 14:17:31.820819
24.8608186,1.625324726,-9.695717812,-0.3879363835,2024-06-11 14:17:31.860819
24.9008186,1.625324726,-9.695717812,-0.3879363835,2024-06-11 14:17:31.900819
24.9408186,1.625324726,-9.695717812,-0.3879363835,2024-06-11 14:17:31.940819
24.9808186,1.625324726,-9.695717812,-0.3879363835,2024-06-11 14:17:31.980819
25.0208186,1.625324726,-9.695717812,-0.3879363835,2024-06-11 14:17:32.020819
25.0608186,1.625324726,-9.695717812,-0.3879363835,2024-06-11 14:17:32.060819
25.1008186,1.625324726,-9.695717812,-0.3879363835,2024-06-11 14:17:32.100819
25.1408186,1.625324726,-9.695717812,-0.3879363835,2024-06-11 14:17:32.140819
25.1808186,1.625324726,-9.695717812,-0.3879363835,2024-06-11 14:17:32.180819
25.2208186,1.625324726,-9.695717812,-0.3879363835,2024-06-11 14:17:32.220819
25.2608186,1.625324726,-9.695717812,-0.3879363835,2024-06-11 14:17:32.260819
25.3008186,1.625324726,-9.695717812,-0.3879363835,2024-06-11 14:17:32.300819
25.3408186,1.625324726,-9.695717812,-0.3879363835,2024-06-11 14:17:32.340819
25.3808186,1.625324726,-9.695717812,-0.3879363835,2024-06-11 14:17:32.380819
25.4208186,1.625324726,-9.695717812,-0.3879363835,2024-06-11 14:17:32.420819
25.4608186,1.625324726,-9.695717812,-0.3879363835,2024-06-11 14:17:32.460819
25.5008186,1.625324726,-9.695717812,-0.3879363835,2024-06-11 14:17:32.500819
25.5408186,1.625324726,-9.695717812,-0.3879363835,2024-06-11 14:17:32.540819
25.5808186,1.625324726,-9.695717812,-0.3879363835,2024-06-11 14:17:32.580819
25.6208186,2.341675997,-9.263513565,-0.7701897621,2024-06-11 14:17:32.620819
25.6608186,2.341675997,-9.263513565,-0.7701897621,2024-06-11 14:17:32.660819
25.7008186,1.681556106,-9.275477409,-0.8479565382,2024-06-11 14:17:32.700819
25.7408186,2.250449657,-9.358030319,-1.643270969,2024-06-11 14:17:32.740819
25.7808186,4.061517239,-8.168797493,0.6047859192,2024-06-11 14:17:32.780819
25.8208186,1.63489604,-10.92114162,4.075874329,2024-06-11 14:17:32.820819
25.8608186,1.63489604,-10.92114162,4.075874329,2024-06-11 14:17:32.860819
25.9008186,1.63489604,-10.92114162,4.075874329,2024-06-11 14:17:32.900819
25.9408186,1.63489604,-10.92114162,4.075874329,2024-06-11 14:17:32.940819
25.9808186,1.63489604,-10.92114162,4.075874329,2024-06-11 14:17:32.980819
26.0208186,1.63489604,-10.92114162,4.075874329,2024-06-11 14:17:33.020819
26.0608186,1.63489604,-10.92114162,4.075874329,2024-06-11 14:17:33.060819
26.1008186,1.63489604,-10.92114162,4.075874329,2024-06-11 14:17:33.100819
26.1408186,1.63489604,-10.92114162,4.075874329,2024-06-11 14:17:33.140819
26.1808186,1.63489604,-10.92114162,4.075874329,2024-06-11 14:17:33.180819
26.2208186,1.63489604,-10.92114162,4.075874329,2024-06-11 14:17:33.220819
26.2608186,1.63489604,-10.92114162,4.075874329,2024-06-11 14:17:33.260819
26.3008186,1.63489604,-10.92114162,4.075874329,2024-06-11 14:17:33.300819
26.3408186,1.63489604,-10.92114162,4.075874329,2024-06-11 14:17:33.340819
26.3808186,1.63489604,-10.92114162,4.075874329,2024-06-11 14:17:33.380819
26.4208186,1.63489604,-10.92114162,4.075874329,2024-06-11 14:17:33.420819
26.4608186,1.63489604,-10.92114162,4.075874329,2024-06-11 14:17:33.460819
26.5008186,1.63489604,-10.92114162,4.075874329,2024-06-11 14:17:33.500819
26.5408186,1.63489604,-10.92114162,4.075874329,2024-06-11 14:17:33.540819
26.5808186,1.63489604,-10.92114162,4.075874329,2024-06-11 14:17:33.580819
26.6208186,0.8659027219,-9.492028236,-0.8886345029,2024-06-11 14:17:33.620819
26.6608186,0.8659027219,-9.492028236,-0.8886345029,2024-06-11 14:17:33.660819
26.7008186,0.8659027219,-9.492028236,-0.8886345029,2024-06-11 14:17:33.700819
26.7408186,0.8659027219,-9.492028236,-0.8886345029,2024-06-11 14:17:33.740819
26.7808186,0.8659027219,-9.492028236,-0.8886345029,2024-06-11 14:17:33.780819
26.8208186,0.8659027219,-9.492028236,-0.8886345029,2024-06-11 14:17:33.820819
26.8608186,0.8659027219,-9.492028236,-0.8886345029,2024-06-11 14:17:33.860819
26.9008186,0.8659027219,-9.492028236,-0.8886345029,2024-06-11 14:17:33.900819
26.9408186,0.8659027219,-9.492028236,-0.8886345029,2024-06-11 14:17:33.940819
26.9808186,0.8659027219,-9.492028236,-0.8886345029,2024-06-11 14:17:33.980819
27.0208186,0.8659027219,-9.492028236,-0.8886345029,2024-06-11 14:17:34.020819
27.0608186,0.8659027219,-9.492028236,-0.8886345029,2024-06-11 14:17:34.060819
27.1008186,0.8659027219,-9.492028236,-0.8886345029,2024-06-11 14:17:34.100819
27.1408186,0.8659027219,-9.492028236,-0.8886345029,2024-06-11 14:17:34.140819
27.1808186,0.8659027219,-9.492028236,-0.8886345029,2024-06-11 14:17:34.180819
27.2208186,0.8659027219,-9.492028236,-0.8886345029,2024-06-11 14:17:34.220819
27.2608186,0.8659027219,-9.492028236,-0.8886345029,2024-06-11 14:17:34.260819
27.3008186,0.8659027219,-9.492028236,-0.8886345029,2024-06-11 14:17:34.300819
27.3408186,0.8659027219,-9.492028236,-0.8886345029,2024-06-11 14:17:34.340819
27.3808186,4.574179649,-8.534002304,1.276870012,2024-06-11 14:17:34.380819
27.4208186,4.168296814,-9.014361382,0.1220339537,2024-06-11 14:17:34.420819
27.4608186,4.911866665,-8.972486496,0.02751746029,2024-06-11 14:17:34.460819
27.5008186,4.963611603,-8.242975235,-0.294616282,2024-06-11 14:17:34.500819
27.5408186,4.963611603,-8.242975235,-0.294616282,2024-06-11 14:17:34.540819
27.5808186,4.963611603,-8.242975235,-0.294616282,2024-06-11 14:17:34.580819
27.6208186,3.023032188,-8.98803997,-1.262513041,2024-06-11 14:17:34.620819
27.6608186,3.023032188,-8.98803997,-1.262513041,2024-06-11 14:17:34.660819
27.7008186,3.023032188,-8.98803997,-1.262513041,2024-06-11 14:17:34.700819
27.7408186,3.023032188,-8.98803997,-1.262513041,2024-06-11 14:17:34.740819
27.7808186,3.023032188,-8.98803997,-1.262513041,2024-06-11 14:17:34.780819
27.8208186,3.023032188,-8.98803997,-1.262513041,2024-06-11 14:17:34.820819
27.8608186,3.023032188,-8.98803997,-1.262513041,2024-06-11 14:17:34.860819
27.9008186,3.023032188,-8.98803997,-1.262513041,2024-06-11 14:17:34.900819
27.9408186,3.023032188,-8.98803997,-1.262513041,2024-06-11 14:17:34.940819
27.9808186,3.023032188,-8.98803997,-1.262513041,2024-06-11 14:17:34.980819
28.0208186,3.023032188,-8.98803997,-1.262513041,2024-06-11 14:17:35.020819
28.0608186,3.023032188,-8.98803997,-1.262513041,2024-06-11 14:17:35.060819
28.1008186,3.023032188,-8.98803997,-1.262513041,2024-06-11 14:17:35.100819
28.1408186,3.023032188,-8.98803997,-1.262513041,2024-06-11 14:17:35.140819
28.1808186,3.023032188,-8.98803997,-1.262513041,2024-06-11 14:17:35.180819
28.2208186,3.023032188,-8.98803997,-1.262513041,2024-06-11 14:17:35.220819
28.2608186,3.023032188,-8.98803997,-1.262513041,2024-06-11 14:17:35.260819
28.3008186,3.023032188,-8.98803997,-1.262513041,2024-06-11 14:17:35.300819
28.3408186,3.023032188,-8.98803997,-1.262513041,2024-06-11 14:17:35.340819
28.3808186,2.201396942,-9.494421005,0.1977069676,2024-06-11 14:17:35.380819
28.4208186,2.201396942,-9.494421005,0.1977069676,2024-06-11 14:17:35.420819
28.4608186,2.201396942,-9.494421005,0.1977069676,2024-06-11 14:17:35.460819
28.5008186,2.201396942,-9.494421005,0.1977069676,2024-06-11 14:17:35.500819
28.5408186,2.201396942,-9.494421005,0.1977069676,2024-06-11 14:17:35.540819
28.5808186,2.201396942,-9.494421005,0.1977069676,2024-06-11 14:17:35.580819
28.6208186,4.028017998,-9.022735596,-0.1052841991,2024-06-11 14:17:35.620819
28.6208186,4.028017998,-9.022735596,-0.1052841991,2024-06-11 14:17:35.620819
28.7008186,4.028017998,-9.022735596,-0.1052841991,2024-06-11 14:17:35.700819
28.7408186,4.028017998,-9.022735596,-0.1052841991,2024-06-11 14:17:35.740819
28.7808186,4.028017998,-9.022735596,-0.1052841991,2024-06-11 14:17:35.780819
28.8208186,4.028017998,-9.022735596,-0.1052841991,2024-06-11 14:17:35.820819
28.8608186,4.028017998,-9.022735596,-0.1052841991,2024-06-11 14:17:35.860819
28.9008186,4.028017998,-9.022735596,-0.1052841991,2024-06-11 14:17:35.900819
28.9408186,4.028017998,-9.022735596,-0.1052841991,2024-06-11 14:17:35.940819
28.9808186,4.028017998,-9.022735596,-0.1052841991,2024-06-11 14:17:35.980819
29.0208186,4.028017998,-9.022735596,-0.1052841991,2024-06-11 14:17:36.020819
29.0608186,1.94028008,-10.03101158,-0.9750752449,2024-06-11 14:17:36.060819
29.1008186,1.56191504,-10.9929266,3.807579041,2024-06-11 14:17:36.100819
29.1408186,2.524727106,-9.0921278,0.2862414122,2024-06-11 14:17:36.140819
29.1808186,2.388336182,-9.246764183,-0.7618148923,2024-06-11 14:17:36.180819
29.2208186,2.388336182,-9.246764183,-0.7618148923,2024-06-11 14:17:36.220819
29.2608186,2.388336182,-9.246764183,-0.7618148923,2024-06-11 14:17:36.260819
29.3008186,2.388336182,-9.246764183,-0.7618148923,2024-06-11 14:17:36.300819
29.3408186,2.388336182,-9.246764183,-0.7618148923,2024-06-11 14:17:36.340819
29.3808186,2.623131752,-9.107681274,-0.9017950296,2024-06-11 14:17:36.380819
29.4208186,2.623131752,-9.107681274,-0.9017950296,2024-06-11 14:17:36.420819
29.4608186,2.623131752,-9.107681274,-0.9017950296,2024-06-11 14:17:36.460819
29.5008186,2.623131752,-9.107681274,-0.9017950296,2024-06-11 14:17:36.500819
29.5408186,2.623131752,-9.107681274,-0.9017950296,2024-06-11 14:17:36.540819
29.5808186,2.623131752,-9.107681274,-0.9017950296,2024-06-11 14:17:36.580819
29.6208186,2.130808592,-9.944869995,1.413260818,2024-06-11 14:17:36.620819
29.6608186,2.130808592,-9.944869995,1.413260818,2024-06-11 14:17:36.660819
29.7008186,2.130808592,-9.944869995,1.413260818,2024-06-11 14:17:36.700819
29.7408186,2.130808592,-9.944869995,1.413260818,2024-06-11 14:17:36.740819
29.7808186,2.130808592,-9.944869995,1.413260818,2024-06-11 14:17:36.780819
29.8208186,2.130808592,-9.944869995,1.413260818,2024-06-11 14:17:36.820819
29.8608186,2.130808592,-9.944869995,1.413260818,2024-06-11 14:17:36.860819
29.9008186,2.130808592,-9.944869995,1.413260818,2024-06-11 14:17:36.900819
29.9408186,2.130808592,-9.944869995,1.413260818,2024-06-11 14:17:36.940819
29.9808186,2.130808592,-9.944869995,1.413260818,2024-06-11 14:17:36.980819
30.0208186,2.130808592,-9.944869995,1.413260818,2024-06-11 14:17:37.020819
30.0608186,2.130808592,-9.944869995,1.413260818,2024-06-11 14:17:37.060819
30.1008186,2.130808592,-9.944869995,1.413260818,2024-06-11 14:17:37.100819
30.1408186,2.130808592,-9.944869995,1.413260818,2024-06-11 14:17:37.140819
30.1808186,2.130808592,-9.944869995,1.413260818,2024-06-11 14:17:37.180819
30.2208186,2.130808592,-9.944869995,1.413260818,2024-06-11 14:17:37.220819
30.2608186,2.130808592,-9.944869995,1.413260818,2024-06-11 14:17:37.260819
30.3008186,2.130808592,-9.944869995,1.413260818,2024-06-11 14:17:37.300819
30.3408186,2.130808592,-9.944869995,1.413260818,2024-06-11 14:17:37.340819
30.3808186,2.130808592,-9.944869995,1.413260818,2024-06-11 14:17:37.380819
30.4208186,2.130808592,-9.944869995,1.413260818,2024-06-11 14:17:37.420819
30.4608186,2.130808592,-9.944869995,1.413260818,2024-06-11 14:17:37.460819
30.5008186,2.130808592,-9.944869995,1.413260818,2024-06-11 14:17:37.500819
30.5408186,2.130808592,-9.944869995,1.413260818,2024-06-11 14:17:37.540819
30.5808186,2.130808592,-9.944869995,1.413260818,2024-06-11 14:17:37.580819
30.6208186,1.339083314,-10.4228363,-0.1402792335,2024-06-11 14:17:37.620819
30.6608186,1.339083314,-10.4228363,-0.1402792335,2024-06-11 14:17:37.660819
30.7008186,1.339083314,-10.4228363,-0.1402792335,2024-06-11 14:17:37.700819
30.7408186,2.621935368,-9.233603477,-1.541576028,2024-06-11 14:17:37.740819
30.7808186,2.562114954,-9.123234749,-0.6167500615,2024-06-11 14:17:37.780819
30.8208186,2.682952404,-9.902996063,0.2240280211,2024-06-11 14:17:37.820819
30.8608186,2.457727909,-9.267103195,0.2252244353,2024-06-11 14:17:37.860819
30.9008186,2.457727909,-9.267103195,0.2252244353,2024-06-11 14:17:37.900819
30.9408186,2.457727909,-9.267103195,0.2252244353,2024-06-11 14:17:37.940819
30.9808186,2.457727909,-9.267103195,0.2252244353,2024-06-11 14:17:37.980819
31.0208186,2.457727909,-9.267103195,0.2252244353,2024-06-11 14:17:38.020819
31.0608186,2.457727909,-9.267103195,0.2252244353,2024-06-11 14:17:38.060819
31.1008186,2.457727909,-9.267103195,0.2252244353,2024-06-11 14:17:38.100819
31.1408186,2.457727909,-9.267103195,0.2252244353,2024-06-11 14:17:38.140819
31.1808186,2.457727909,-9.267103195,0.2252244353,2024-06-11 14:17:38.180819
31.2208186,2.457727909,-9.267103195,0.2252244353,2024-06-11 14:17:38.220819
31.2608186,2.457727909,-9.267103195,0.2252244353,2024-06-11 14:17:38.260819
31.3008186,2.457727909,-9.267103195,0.2252244353,2024-06-11 14:17:38.300819
31.3408186,2.457727909,-9.267103195,0.2252244353,2024-06-11 14:17:38.340819
31.3808186,4.149154663,-8.35663414,0.913759172,2024-06-11 14:17:38.380819
31.4208186,4.149154663,-8.35663414,0.913759172,2024-06-11 14:17:38.420819
31.4608186,4.149154663,-8.35663414,0.913759172,2024-06-11 14:17:38.460819
31.5008186,4.149154663,-8.35663414,0.913759172,2024-06-11 14:17:38.500819
31.5408186,4.149154663,-8.35663414,0.913759172,2024-06-11 14:17:38.540819
31.5808186,4.149154663,-8.35663414,0.913759172,2024-06-11 14:17:38.580819
31.6208186,4.149154663,-8.35663414,0.913759172,2024-06-11 14:17:38.620819
31.6608186,4.149154663,-8.35663414,0.913759172,2024-06-11 14:17:38.660819
31.7008186,4.149154663,-8.35663414,0.913759172,2024-06-11 14:17:38.700819
31.7408186,4.149154663,-8.35663414,0.913759172,2024-06-11 14:17:38.740819
31.7808186,4.149154663,-8.35663414,0.913759172,2024-06-11 14:17:38.780819
31.8208186,4.149154663,-8.35663414,0.913759172,2024-06-11 14:17:38.820819
31.8608186,4.149154663,-8.35663414,0.913759172,2024-06-11 14:17:38.860819
31.9008186,4.149154663,-8.35663414,0.913759172,2024-06-11 14:17:38.900819
31.9408186,4.149154663,-8.35663414,0.913759172,2024-06-11 14:17:38.940819
31.9808186,4.149154663,-8.35663414,0.913759172,2024-06-11 14:17:38.980819
32.0208186,4.149154663,-8.35663414,0.913759172,2024-06-11 14:17:39.020819
32.0608186,4.149154663,-8.35663414,0.913759172,2024-06-11 14:17:39.060819
32.1008186,4.149154663,-8.35663414,0.913759172,2024-06-11 14:17:39.100819
32.1408186,4.149154663,-8.35663414,0.913759172,2024-06-11 14:17:39.140819
32.1808186,4.149154663,-8.35663414,0.913759172,2024-06-11 14:17:39.180819
32.2208186,4.149154663,-8.35663414,0.913759172,2024-06-11 14:17:39.220819
32.2608186,4.149154663,-8.35663414,0.913759172,2024-06-11 14:17:39.260819
32.3008186,4.149154663,-8.35663414,0.913759172,2024-06-11 14:17:39.300819
32.3408186,4.149154663,-8.35663414,0.913759172,2024-06-11 14:17:39.340819
32.3808186,4.149154663,-8.35663414,0.913759172,2024-06-11 14:17:39.380819
32.4208186,3.079562664,-10.26461124,3.333201885,2024-06-11 14:17:39.420819
32.4608186,1.894816399,-9.771389961,0.3640081584,2024-06-11 14:17:39.460819
32.5008186,2.507977247,-9.229715347,-0.9352945685,2024-06-11 14:17:39.500819
32.5408186,2.849552631,-9.504291534,-0.004785645287,2024-06-11 14:17:39.540819
32.5808186,1.639681697,-9.034700394,0.4540380836,2024-06-11 14:17:39.580819
32.6208186,1.762014747,-10.11745262,0.07178468257,2024-06-11 14:17:39.620819
32.6608186,1.762014747,-10.11745262,0.07178468257,2024-06-11 14:17:39.660819
32.7008186,1.762014747,-10.11745262,0.07178468257,2024-06-11 14:17:39.700819
32.7408186,1.762014747,-10.11745262,0.07178468257,2024-06-11 14:17:39.740819
32.7808186,1.762014747,-10.11745262,0.07178468257,2024-06-11 14:17:39.780819
32.8208186,1.762014747,-10.11745262,0.07178468257,2024-06-11 14:17:39.820819
32.8608186,1.762014747,-10.11745262,0.07178468257,2024-06-11 14:17:39.860819
32.9008186,1.762014747,-10.11745262,0.07178468257,2024-06-11 14:17:39.900819
32.9408186,1.762014747,-10.11745262,0.07178468257,2024-06-11 14:17:39.940819
32.9808186,1.762014747,-10.11745262,0.07178468257,2024-06-11 14:17:39.980819
33.0208186,1.762014747,-10.11745262,0.07178468257,2024-06-11 14:17:40.020819
33.0608186,1.762014747,-10.11745262,0.07178468257,2024-06-11 14:17:40.060819
33.1008186,1.762014747,-10.11745262,0.07178468257,2024-06-11 14:17:40.100819
33.1408186,1.762014747,-10.11745262,0.07178468257,2024-06-11 14:17:40.140819
33.1808186,1.762014747,-10.11745262,0.07178468257,2024-06-11 14:17:40.180819
33.2208186,1.762014747,-10.11745262,0.07178468257,2024-06-11 14:17:40.220819
33.2608186,1.762014747,-10.11745262,0.07178468257,2024-06-11 14:17:40.260819
33.3008186,1.762014747,-10.11745262,0.07178468257,2024-06-11 14:17:40.300819
33.3408186,1.762014747,-10.11745262,0.07178468257,2024-06-11 14:17:40.340819
33.3808186,1.762014747,-10.11745262,0.07178468257,2024-06-11 14:17:40.380819
33.4208186,1.762014747,-10.11745262,0.07178468257,2024-06-11 14:17:40.420819
33.4608186,1.762014747,-10.11745262,0.07178468257,2024-06-11 14:17:40.460819
33.5008186,1.762014747,-10.11745262,0.07178468257,2024-06-11 14:17:40.500819
33.5408186,1.762014747,-10.11745262,0.07178468257,2024-06-11 14:17:40.540819
33.5808186,1.762014747,-10.11745262,0.07178468257,2024-06-11 14:17:40.580819
33.6208186,1.762014747,-10.11745262,0.07178468257,2024-06-11 14:17:40.620819
33.6608186,1.762014747,-10.11745262,0.07178468257,2024-06-11 14:17:40.660819
33.7008186,1.762014747,-10.11745262,0.07178468257,2024-06-11 14:17:40.700819
33.7408186,1.762014747,-10.11745262,0.07178468257,2024-06-11 14:17:40.740819
33.7808186,1.762014747,-10.11745262,0.07178468257,2024-06-11 14:17:40.780819
33.8208186,1.762014747,-10.11745262,0.07178468257,2024-06-11 14:17:40.820819
33.8608186,1.762014747,-10.11745262,0.07178468257,2024-06-11 14:17:40.860819
33.9008186,1.762014747,-10.11745262,0.07178468257,2024-06-11 14:17:40.900819
33.9408186,1.762014747,-10.11745262,0.07178468257,2024-06-11 14:17:40.940819
33.9808186,1.762014747,-10.11745262,0.07178468257,2024-06-11 14:17:40.980819
34.0208186,1.762014747,-10.11745262,0.07178468257,2024-06-11 14:17:41.020819
34.0608186,1.762014747,-10.11745262,0.07178468257,2024-06-11 14:17:41.060819
34.1008186,2.892623425,-9.050253868,1.229013562,2024-06-11 14:17:41.100819
34.1408186,4.244867325,-8.896813393,1.426421404,2024-06-11 14:17:41.140819
34.1808186,2.233700037,-8.984451294,0.7187440991,2024-06-11 14:17:41.180819
34.2208186,0.8958129883,-9.974780083,0.8228318691,2024-06-11 14:17:41.220819
34.2608186,1.117448211,-9.705288887,0.9882357717,2024-06-11 14:17:41.260819
34.3008186,1.117448211,-9.705288887,0.9882357717,2024-06-11 14:17:41.300819
34.3408186,1.117448211,-9.705288887,0.9882357717,2024-06-11 14:17:41.340819
34.3808186,3.023032188,-9.308977127,-0.4193421602,2024-06-11 14:17:41.380819
34.4208186,3.023032188,-9.308977127,-0.4193421602,2024-06-11 14:17:41.420819
34.4608186,3.023032188,-9.308977127,-0.4193421602,2024-06-11 14:17:41.460819
34.5008186,3.023032188,-9.308977127,-0.4193421602,2024-06-11 14:17:41.500819
34.5408186,3.023032188,-9.308977127,-0.4193421602,2024-06-11 14:17:41.540819
34.5808186,3.023032188,-9.308977127,-0.4193421602,2024-06-11 14:17:41.580819
34.6208186,4.292723656,-8.723334312,-0.5234299302,2024-06-11 14:17:41.620819
34.6608186,4.292723656,-8.723334312,-0.5234299302,2024-06-11 14:17:41.660819
34.7008186,4.292723656,-8.723334312,-0.5234299302,2024-06-11 14:17:41.700819
34.7408186,4.292723656,-8.723334312,-0.5234299302,2024-06-11 14:17:41.740819
34.7808186,4.292723656,-8.723334312,-0.5234299302,2024-06-11 14:17:41.780819
34.8208186,4.292723656,-8.723334312,-0.5234299302,2024-06-11 14:17:41.820819
34.8608186,4.292723656,-8.723334312,-0.5234299302,2024-06-11 14:17:41.860819
34.9008186,4.292723656,-8.723334312,-0.5234299302,2024-06-11 14:17:41.900819
34.9408186,4.292723656,-8.723334312,-0.5234299302,2024-06-11 14:17:41.940819
34.9808186,4.292723656,-8.723334312,-0.5234299302,2024-06-11 14:17:41.980819
35.0208186,4.292723656,-8.723334312,-0.5234299302,2024-06-11 14:17:42.020819
35.0608186,4.292723656,-8.723334312,-0.5234299302,2024-06-11 14:17:42.060819
35.1008186,4.292723656,-8.723334312,-0.5234299302,2024-06-11 14:17:42.100819
35.1408186,4.292723656,-8.723334312,-0.5234299302,2024-06-11 14:17:42.140819
35.1808186,4.292723656,-8.723334312,-0.5234299302,2024-06-11 14:17:42.180819
35.2208186,4.292723656,-8.723334312,-0.5234299302,2024-06-11 14:17:42.220819
35.2608186,4.292723656,-8.723334312,-0.5234299302,2024-06-11 14:17:42.260819
35.3008186,4.292723656,-8.723334312,-0.5234299302,2024-06-11 14:17:42.300819
35.3408186,4.292723656,-8.723334312,-0.5234299302,2024-06-11 14:17:42.340819
35.3808186,4.292723656,-8.723334312,-0.5234299302,2024-06-11 14:17:42.380819
35.4208186,4.292723656,-8.723334312,-0.5234299302,2024-06-11 14:17:42.420819
35.4608186,4.292723656,-8.723334312,-0.5234299302,2024-06-11 14:17:42.460819
35.5008186,4.292723656,-8.723334312,-0.5234299302,2024-06-11 14:17:42.500819
35.5408186,4.292723656,-8.723334312,-0.5234299302,2024-06-11 14:17:42.540819
35.5808186,4.292723656,-8.723334312,-0.5234299302,2024-06-11 14:17:42.580819
35.6208186,6.460621357,-9.132805824,5.934798241,2024-06-11 14:17:42.620819
35.6608186,6.460621357,-9.132805824,5.934798241,2024-06-11 14:17:42.660819
35.7008186,6.460621357,-9.132805824,5.934798241,2024-06-11 14:17:42.700819
35.7408186,6.460621357,-9.132805824,5.934798241,2024-06-11 14:17:42.740819
35.7808186,5.205286503,-7.532605648,-0.5246263742,2024-06-11 14:17:42.780819
35.8208186,5.398207664,-7.802097321,-0.07896314561,2024-06-11 14:17:42.820819
35.8608186,5.313262463,-7.024729252,-1.934298038,2024-06-11 14:17:42.860819
35.9008186,6.15045166,-7.515855789,-3.232703447,2024-06-11 14:17:42.900819
35.9408186,4.684548378,-7.051050186,-2.099701881,2024-06-11 14:17:42.940819
35.9808186,4.684548378,-7.051050186,-2.099701881,2024-06-11 14:17:42.980819
36.0208186,4.684548378,-7.051050186,-2.099701881,2024-06-11 14:17:43.020819
36.0608186,4.684548378,-7.051050186,-2.099701881,2024-06-11 14:17:43.060819
36.1008186,4.684548378,-7.051050186,-2.099701881,2024-06-11 14:17:43.100819
36.1408186,4.588536739,-6.833303452,2.668595552,2024-06-11 14:17:43.140819
36.1808186,4.588536739,-6.833303452,2.668595552,2024-06-11 14:17:43.180819
36.2208186,4.588536739,-6.833303452,2.668595552,2024-06-11 14:17:43.220819
36.2608186,4.588536739,-6.833303452,2.668595552,2024-06-11 14:17:43.260819
36.3008186,4.588536739,-6.833303452,2.668595552,2024-06-11 14:17:43.300819
36.3408186,4.588536739,-6.833303452,2.668595552,2024-06-11 14:17:43.340819
36.3808186,4.588536739,-6.833303452,2.668595552,2024-06-11 14:17:43.380819
36.4208186,4.588536739,-6.833303452,2.668595552,2024-06-11 14:17:43.420819
36.4608186,4.588536739,-6.833303452,2.668595552,2024-06-11 14:17:43.460819
36.5008186,4.588536739,-6.833303452,2.668595552,2024-06-11 14:17:43.500819
36.5408186,4.588536739,-6.833303452,2.668595552,2024-06-11 14:17:43.540819
36.5808186,4.588536739,-6.833303452,2.668595552,2024-06-11 14:17:43.580819
36.6208186,2.572882652,-7.254739285,1.40010035,2024-06-11 14:17:43.620819
36.6608186,2.572882652,-7.254739285,1.40010035,2024-06-11 14:17:43.660819
36.7008186,2.572882652,-7.254739285,1.40010035,2024-06-11 14:17:43.700819
36.7408186,2.572882652,-7.254739285,1.40010035,2024-06-11 14:17:43.740819
36.7808186,2.572882652,-7.254739285,1.40010035,2024-06-11 14:17:43.780819
36.8208186,2.572882652,-7.254739285,1.40010035,2024-06-11 14:17:43.820819
36.8608186,2.572882652,-7.254739285,1.40010035,2024-06-11 14:17:43.860819
36.9008186,2.572882652,-7.254739285,1.40010035,2024-06-11 14:17:43.900819
36.9408186,2.572882652,-7.254739285,1.40010035,2024-06-11 14:17:43.940819
36.9808186,2.572882652,-7.254739285,1.40010035,2024-06-11 14:17:43.980819
37.0208186,2.572882652,-7.254739285,1.40010035,2024-06-11 14:17:44.020819
37.0608186,2.572882652,-7.254739285,1.40010035,2024-06-11 14:17:44.060819
37.1008186,2.572882652,-7.254739285,1.40010035,2024-06-11 14:17:44.100819
37.1408186,2.572882652,-7.254739285,1.40010035,2024-06-11 14:17:44.140819
37.1808186,2.572882652,-7.254739285,1.40010035,2024-06-11 14:17:44.180819
37.2208186,2.572882652,-7.254739285,1.40010035,2024-06-11 14:17:44.220819
37.2608186,2.572882652,-7.254739285,1.40010035,2024-06-11 14:17:44.260819
37.3008186,2.572882652,-7.254739285,1.40010035,2024-06-11 14:17:44.300819
37.3408186,2.572882652,-7.254739285,1.40010035,2024-06-11 14:17:44.340819
37.3808186,2.572882652,-7.254739285,1.40010035,2024-06-11 14:17:44.380819
37.4208186,2.572882652,-7.254739285,1.40010035,2024-06-11 14:17:44.420819
37.4608186,2.82083869,-8.717351913,2.011167526,2024-06-11 14:17:44.460819
37.5008186,4.456931114,-8.286046028,0.1845464408,2024-06-11 14:17:44.500819
37.5408186,4.698905468,-8.860920906,0.1438684613,2024-06-11 14:17:44.540819
37.5808186,4.299902439,-10.23828983,0.1989033818,2024-06-11 14:17:44.580819
37.6208186,5.491827011,-10.44915771,-1.249352574,2024-06-11 14:17:44.620819
37.6608186,5.491827011,-10.44915771,-1.249352574,2024-06-11 14:17:44.660819
37.7008186,5.491827011,-10.44915771,-1.249352574,2024-06-11 14:17:44.700819
37.7408186,5.491827011,-10.44915771,-1.249352574,2024-06-11 14:17:44.740819
37.7808186,5.491827011,-10.44915771,-1.249352574,2024-06-11 14:17:44.780819
37.8208186,5.491827011,-10.44915771,-1.249352574,2024-06-11 14:17:44.820819
37.8608186,5.491827011,-10.44915771,-1.249352574,2024-06-11 14:17:44.860819
37.9008186,5.491827011,-10.44915771,-1.249352574,2024-06-11 14:17:44.900819
37.9408186,5.491827011,-10.44915771,-1.249352574,2024-06-11 14:17:44.940819
37.9808186,5.491827011,-10.44915771,-1.249352574,2024-06-11 14:17:44.980819
38.0208186,5.491827011,-10.44915771,-1.249352574,2024-06-11 14:17:45.020819
38.0608186,5.491827011,-10.44915771,-1.249352574,2024-06-11 14:17:45.060819
38.1008186,5.491827011,-10.44915771,-1.249352574,2024-06-11 14:17:45.100819
38.1408186,5.491827011,-10.44915771,-1.249352574,2024-06-11 14:17:45.140819
38.1808186,5.491827011,-10.44915771,-1.249352574,2024-06-11 14:17:45.180819
38.2208186,5.491827011,-10.44915771,-1.249352574,2024-06-11 14:17:45.220819
38.2608186,5.491827011,-10.44915771,-1.249352574,2024-06-11 14:17:45.260819
38.3008186,5.491827011,-10.44915771,-1.249352574,2024-06-11 14:17:45.300819
38.3408186,5.491827011,-10.44915771,-1.249352574,2024-06-11 14:17:45.340819
38.3808186,1.856531262,-9.172286987,4.34775877,2024-06-11 14:17:45.380819
38.4208186,1.856531262,-9.172286987,4.34775877,2024-06-11 14:17:45.420819
38.4608186,1.856531262,-9.172286987,4.34775877,2024-06-11 14:17:45.460819
38.5008186,1.856531262,-9.172286987,4.34775877,2024-06-11 14:17:45.500819
38.5408186,1.856531262,-9.172286987,4.34775877,2024-06-11 14:17:45.540819
38.5808186,1.856531262,-9.172286987,4.34775877,2024-06-11 14:17:45.580819
38.6208186,0.2359921336,-9.504291534,0.6406782866,2024-06-11 14:17:45.620819
38.6608186,0.2359921336,-9.504291534,0.6406782866,2024-06-11 14:17:45.660819
38.7008186,0.2359921336,-9.504291534,0.6406782866,2024-06-11 14:17:45.700819
38.7408186,0.2359921336,-9.504291534,0.6406782866,2024-06-11 14:17:45.740819
38.7808186,0.2359921336,-9.504291534,0.6406782866,2024-06-11 14:17:45.780819
38.8208186,0.2359921336,-9.504291534,0.6406782866,2024-06-11 14:17:45.820819
38.8608186,0.2359921336,-9.504291534,0.6406782866,2024-06-11 14:17:45.860819
38.9008186,0.2359921336,-9.504291534,0.6406782866,2024-06-11 14:17:45.900819
38.9408186,0.2359921336,-9.504291534,0.6406782866,2024-06-11 14:17:45.940819
38.9808186,0.2359921336,-9.504291534,0.6406782866,2024-06-11 14:17:45.980819
39.0208186,0.2359921336,-9.504291534,0.6406782866,2024-06-11 14:17:46.020819
39.0608186,0.2359921336,-9.504291534,0.6406782866,2024-06-11 14:17:46.060819
39.1008186,0.2359921336,-9.504291534,0.6406782866,2024-06-11 14:17:46.100819
39.1408186,3.187239647,-9.259924889,-0.318544507,2024-06-11 14:17:46.140819
39.1808186,3.634099483,-9.578469276,-0.6669993401,2024-06-11 14:17:46.180819
39.2208186,3.254238844,-9.349655151,-0.5102694035,2024-06-11 14:17:46.220819
39.2608186,1.660020709,-9.442975044,-0.5042873621,2024-06-11 14:17:46.260819
39.3008186,0.6924230456,-9.756733894,-0.5174478889,2024-06-11 14:17:46.300819
39.3408186,0.6924230456,-9.756733894,-0.5174478889,2024-06-11 14:17:46.340819
39.3808186,2.191825628,-9.469296455,-0.1881356835,2024-06-11 14:17:46.380819
39.4208186,2.191825628,-9.469296455,-0.1881356835,2024-06-11 14:17:46.420819
39.4608186,2.191825628,-9.469296455,-0.1881356835,2024-06-11 14:17:46.460819
39.5008186,2.191825628,-9.469296455,-0.1881356835,2024-06-11 14:17:46.500819
39.5408186,2.191825628,-9.469296455,-0.1881356835,2024-06-11 14:17:46.540819
39.5808186,2.191825628,-9.469296455,-0.1881356835,2024-06-11 14:17:46.580819
39.6208186,2.191825628,-9.469296455,-0.1881356835,2024-06-11 14:17:46.620819
39.6608186,2.191825628,-9.469296455,-0.1881356835,2024-06-11 14:17:46.660819
39.7008186,2.191825628,-9.469296455,-0.1881356835,2024-06-11 14:17:46.700819
39.7408186,2.191825628,-9.469296455,-0.1881356835,2024-06-11 14:17:46.740819
39.7808186,2.191825628,-9.469296455,-0.1881356835,2024-06-11 14:17:46.780819
39.8208186,2.191825628,-9.469296455,-0.1881356835,2024-06-11 14:17:46.820819
39.8608186,2.191825628,-9.469296455,-0.1881356835,2024-06-11 14:17:46.860819
39.9008186,2.191825628,-9.469296455,-0.1881356835,2024-06-11 14:17:46.900819
39.9408186,2.191825628,-9.469296455,-0.1881356835,2024-06-11 14:17:46.940819
39.9808186,2.191825628,-9.469296455,-0.1881356835,2024-06-11 14:17:46.980819
40.0208186,2.191825628,-9.469296455,-0.1881356835,2024-06-11 14:17:47.020819
40.0608186,2.191825628,-9.469296455,-0.1881356835,2024-06-11 14:17:47.060819
40.1008186,2.191825628,-9.469296455,-0.1881356835,2024-06-11 14:17:47.100819
40.1408186,2.191825628,-9.469296455,-0.1881356835,2024-06-11 14:17:47.140819
40.1808186,2.191825628,-9.469296455,-0.1881356835,2024-06-11 14:17:47.180819
40.2208186,2.191825628,-9.469296455,-0.1881356835,2024-06-11 14:17:47.220819
40.2608186,2.191825628,-9.469296455,-0.1881356835,2024-06-11 14:17:47.260819
40.3008186,2.191825628,-9.469296455,-0.1881356835,2024-06-11 14:17:47.300819
40.3408186,2.191825628,-9.469296455,-0.1881356835,2024-06-11 14:17:47.340819
40.3808186,2.191825628,-9.469296455,-0.1881356835,2024-06-11 14:17:47.380819
40.4208186,2.191825628,-9.469296455,-0.1881356835,2024-06-11 14:17:47.420819
40.4608186,2.191825628,-9.469296455,-0.1881356835,2024-06-11 14:17:47.460819
40.5008186,2.191825628,-9.469296455,-0.1881356835,2024-06-11 14:17:47.500819
40.5408186,2.191825628,-9.469296455,-0.1881356835,2024-06-11 14:17:47.540819
40.5808186,2.191825628,-9.469296455,-0.1881356835,2024-06-11 14:17:47.580819
40.6208186,6.243771553,-8.257331848,1.741675735,2024-06-11 14:17:47.620819
40.6608186,6.243771553,-8.257331848,1.741675735,2024-06-11 14:17:47.660819
40.7008186,6.243771553,-8.257331848,1.741675735,2024-06-11 14:17:47.700819
40.7408186,6.243771553,-8.257331848,1.741675735,2024-06-11 14:17:47.740819
40.7808186,6.243771553,-8.257331848,1.741675735,2024-06-11 14:17:47.780819
40.8208186,3.540480137,-9.616754532,0.1076770201,2024-06-11 14:17:47.820819
40.8608186,3.477070332,-9.080163956,0.3975076675,2024-06-11 14:17:47.860819
40.9008186,2.86630249,-8.966505051,-0.2814557552,2024-06-11 14:17:47.900819
40.9408186,1.7138592,-8.991629601,-0.2527419031,2024-06-11 14:17:47.940819
40.9808186,2.002493382,-9.738788605,-1.388136268,2024-06-11 14:17:47.980819
41.0208186,2.002493382,-9.738788605,-1.388136268,2024-06-11 14:17:48.020819
41.0608186,2.002493382,-9.738788605,-1.388136268,2024-06-11 14:17:48.060819
41.1008186,2.002493382,-9.738788605,-1.388136268,2024-06-11 14:17:48.100819
41.1408186,5.616253853,-8.907581329,11.19900799,2024-06-11 14:17:48.140819
41.1808186,5.616253853,-8.907581329,11.19900799,2024-06-11 14:17:48.180819
41.2208186,5.616253853,-8.907581329,11.19900799,2024-06-11 14:17:48.220819
41.2608186,5.616253853,-8.907581329,11.19900799,2024-06-11 14:17:48.260819
41.3008186,5.616253853,-8.907581329,11.19900799,2024-06-11 14:17:48.300819
41.3408186,5.616253853,-8.907581329,11.19900799,2024-06-11 14:17:48.340819
41.3808186,3.18006134,-9.25753212,-0.4037888348,2024-06-11 14:17:48.380819
41.4208186,3.18006134,-9.25753212,-0.4037888348,2024-06-11 14:17:48.420819
41.4608186,3.18006134,-9.25753212,-0.4037888348,2024-06-11 14:17:48.460819
41.5008186,3.18006134,-9.25753212,-0.4037888348,2024-06-11 14:17:48.500819
41.5408186,3.18006134,-9.25753212,-0.4037888348,2024-06-11 14:17:48.540819
41.5808186,3.18006134,-9.25753212,-0.4037888348,2024-06-11 14:17:48.580819
41.6208186,6.331408501,-9.905388832,3.386143208,2024-06-11 14:17:48.620819
41.6608186,6.331408501,-9.905388832,3.386143208,2024-06-11 14:17:48.660819
41.7008186,6.331408501,-9.905388832,3.386143208,2024-06-11 14:17:48.700819
41.7408186,6.331408501,-9.905388832,3.386143208,2024-06-11 14:17:48.740819
41.7808186,6.331408501,-9.905388832,3.386143208,2024-06-11 14:17:48.780819
41.8208186,6.331408501,-9.905388832,3.386143208,2024-06-11 14:17:48.820819
41.8608186,6.331408501,-9.905388832,3.386143208,2024-06-11 14:17:48.860819
41.9008186,6.331408501,-9.905388832,3.386143208,2024-06-11 14:17:48.900819
41.9408186,6.331408501,-9.905388832,3.386143208,2024-06-11 14:17:48.940819
41.9808186,6.331408501,-9.905388832,3.386143208,2024-06-11 14:17:48.980819
42.0208186,6.331408501,-9.905388832,3.386143208,2024-06-11 14:17:49.020819
42.0608186,6.331408501,-9.905388832,3.386143208,2024-06-11 14:17:49.060819
42.1008186,6.331408501,-9.905388832,3.386143208,2024-06-11 14:17:49.100819
42.1408186,6.331408501,-9.905388832,3.386143208,2024-06-11 14:17:49.140819
42.1808186,6.331408501,-9.905388832,3.386143208,2024-06-11 14:17:49.180819
42.2208186,6.331408501,-9.905388832,3.386143208,2024-06-11 14:17:49.220819
42.2608186,6.331408501,-9.905388832,3.386143208,2024-06-11 14:17:49.260819
42.3008186,6.331408501,-9.905388832,3.386143208,2024-06-11 14:17:49.300819
42.3408186,6.331408501,-9.905388832,3.386143208,2024-06-11 14:17:49.340819
42.3808186,6.331408501,-9.905388832,3.386143208,2024-06-11 14:17:49.380819
42.4208186,6.331408501,-9.905388832,3.386143208,2024-06-11 14:17:49.420819
42.4608186,6.331408501,-9.905388832,3.386143208,2024-06-11 14:17:49.460819
42.5008186,4.424628258,-10.86491013,-3.746562004,2024-06-11 14:17:49.500819
42.5408186,0.6334998012,-10.01186943,6.131309032,2024-06-11 14:17:49.540819
42.5808186,-1.700698733,-10.60618591,1.512862086,2024-06-11 14:17:49.580819
42.6208186,1.158126116,-9.961619377,-1.094716311,2024-06-11 14:17:49.620819
42.6608186,4.220939159,-9.165108681,-1.390529037,2024-06-11 14:17:49.660819
42.7008186,4.220939159,-9.165108681,-1.390529037,2024-06-11 14:17:49.700819
42.7408186,4.220939159,-9.165108681,-1.390529037,2024-06-11 14:17:49.740819
42.7808186,4.220939159,-9.165108681,-1.390529037,2024-06-11 14:17:49.780819
42.8208186,4.220939159,-9.165108681,-1.390529037,2024-06-11 14:17:49.820819
42.8608186,4.220939159,-9.165108681,-1.390529037,2024-06-11 14:17:49.860819
42.9008186,4.220939159,-9.165108681,-1.390529037,2024-06-11 14:17:49.900819
42.9408186,4.220939159,-9.165108681,-1.390529037,2024-06-11 14:17:49.940819
42.9808186,4.220939159,-9.165108681,-1.390529037,2024-06-11 14:17:49.980819
43.0208186,4.220939159,-9.165108681,-1.390529037,2024-06-11 14:17:50.020819
43.0608186,4.220939159,-9.165108681,-1.390529037,2024-06-11 14:17:50.060819
43.1008186,4.220939159,-9.165108681,-1.390529037,2024-06-11 14:17:50.100819
43.1408186,4.220939159,-9.165108681,-1.390529037,2024-06-11 14:17:50.140819
43.1808186,4.220939159,-9.165108681,-1.390529037,2024-06-11 14:17:50.180819
43.2208186,4.220939159,-9.165108681,-1.390529037,2024-06-11 14:17:50.220819
43.2608186,4.220939159,-9.165108681,-1.390529037,2024-06-11 14:17:50.260819
43.3008186,4.220939159,-9.165108681,-1.390529037,2024-06-11 14:17:50.300819
43.3408186,4.220939159,-9.165108681,-1.390529037,2024-06-11 14:17:50.340819
43.3808186,4.220939159,-9.165108681,-1.390529037,2024-06-11 14:17:50.380819
43.4208186,4.220939159,-9.165108681,-1.390529037,2024-06-11 14:17:50.420819
43.4608186,4.220939159,-9.165108681,-1.390529037,2024-06-11 14:17:50.460819
43.5008186,4.220939159,-9.165108681,-1.390529037,2024-06-11 14:17:50.500819
43.5408186,4.220939159,-9.165108681,-1.390529037,2024-06-11 14:17:50.540819
43.5808186,4.220939159,-9.165108681,-1.390529037,2024-06-11 14:17:50.580819
43.6208186,4.220939159,-9.165108681,-1.390529037,2024-06-11 14:17:50.620819
43.6608186,4.220939159,-9.165108681,-1.390529037,2024-06-11 14:17:50.660819
43.7008186,4.220939159,-9.165108681,-1.390529037,2024-06-11 14:17:50.700819
43.7408186,4.220939159,-9.165108681,-1.390529037,2024-06-11 14:17:50.740819
43.7808186,4.220939159,-9.165108681,-1.390529037,2024-06-11 14:17:50.780819
43.8208186,4.220939159,-9.165108681,-1.390529037,2024-06-11 14:17:50.820819
43.8608186,4.220939159,-9.165108681,-1.390529037,2024-06-11 14:17:50.860819
43.9008186,4.220939159,-9.165108681,-1.390529037,2024-06-11 14:17:50.900819
43.9408186,4.220939159,-9.165108681,-1.390529037,2024-06-11 14:17:50.940819
43.9808186,4.220939159,-9.165108681,-1.390529037,2024-06-11 14:17:50.980819
44.0208186,4.220939159,-9.165108681,-1.390529037,2024-06-11 14:17:51.020819
44.0608186,4.220939159,-9.165108681,-1.390529037,2024-06-11 14:17:51.060819
44.1008186,4.220939159,-9.165108681,-1.390529037,2024-06-11 14:17:51.100819
44.1408186,4.220939159,-9.165108681,-1.390529037,2024-06-11 14:17:51.140819
44.1808186,3.122633457,-9.080163956,1.052842021,2024-06-11 14:17:51.180819
44.2208186,1.985743642,-10.1712904,2.121237278,2024-06-11 14:17:51.220819
44.2608186,2.583650351,-9.478867531,0.323330164,2024-06-11 14:17:51.260819
44.3008186,3.087937593,-9.45972538,-1.465902925,2024-06-11 14:17:51.300819
44.3408186,3.575176239,-8.453842163,-1.515254974,2024-06-11 14:17:51.340819
44.3808186,3.347857952,-9.059824944,-1.670788407,2024-06-11 14:17:51.380819
44.4208186,3.347857952,-9.059824944,-1.670788407,2024-06-11 14:17:51.420819
44.4608186,3.347857952,-9.059824944,-1.670788407,2024-06-11 14:17:51.460819
44.5008186,3.347857952,-9.059824944,-1.670788407,2024-06-11 14:17:51.500819
44.5408186,3.347857952,-9.059824944,-1.670788407,2024-06-11 14:17:51.540819
44.5808186,3.347857952,-9.059824944,-1.670788407,2024-06-11 14:17:51.580819
44.6208186,3.347857952,-9.059824944,-1.670788407,2024-06-11 14:17:51.620819
44.6608186,3.347857952,-9.059824944,-1.670788407,2024-06-11 14:17:51.660819
44.7008186,3.347857952,-9.059824944,-1.670788407,2024-06-11 14:17:51.700819
44.7408186,3.347857952,-9.059824944,-1.670788407,2024-06-11 14:17:51.740819
44.7808186,3.347857952,-9.059824944,-1.670788407,2024-06-11 14:17:51.780819
44.8208186,3.347857952,-9.059824944,-1.670788407,2024-06-11 14:17:51.820819
44.8608186,3.347857952,-9.059824944,-1.670788407,2024-06-11 14:17:51.860819
44.9008186,3.347857952,-9.059824944,-1.670788407,2024-06-11 14:17:51.900819
44.9408186,3.347857952,-9.059824944,-1.670788407,2024-06-11 14:17:51.940819
44.9808186,3.347857952,-9.059824944,-1.670788407,2024-06-11 14:17:51.980819
45.0208186,3.347857952,-9.059824944,-1.670788407,2024-06-11 14:17:52.020819
45.0608186,3.347857952,-9.059824944,-1.670788407,2024-06-11 14:17:52.060819
45.1008186,3.347857952,-9.059824944,-1.670788407,2024-06-11 14:17:52.100819
45.1408186,3.347857952,-9.059824944,-1.670788407,2024-06-11 14:17:52.140819
45.1808186,3.347857952,-9.059824944,-1.670788407,2024-06-11 14:17:52.180819
45.2208186,3.347857952,-9.059824944,-1.670788407,2024-06-11 14:17:52.220819
45.2608186,3.347857952,-9.059824944,-1.670788407,2024-06-11 14:17:52.260819
45.3008186,3.347857952,-9.059824944,-1.670788407,2024-06-11 14:17:52.300819
45.3408186,3.347857952,-9.059824944,-1.670788407,2024-06-11 14:17:52.340819
45.3808186,1.376172066,-7.72552681,7.395018578,2024-06-11 14:17:52.380819
45.4208186,1.376172066,-7.72552681,7.395018578,2024-06-11 14:17:52.420819
45.4608186,1.376172066,-7.72552681,7.395018578,2024-06-11 14:17:52.460819
45.5008186,1.376172066,-7.72552681,7.395018578,2024-06-11 14:17:52.500819
45.5408186,1.376172066,-7.72552681,7.395018578,2024-06-11 14:17:52.540819
45.5808186,1.376172066,-7.72552681,7.395018578,2024-06-11 14:17:52.580819
45.6208186,1.376172066,-7.72552681,7.395018578,2024-06-11 14:17:52.620819
45.6608186,1.376172066,-7.72552681,7.395018578,2024-06-11 14:17:52.660819
45.7008186,1.376172066,-7.72552681,7.395018578,2024-06-11 14:17:52.700819
45.7408186,1.376172066,-7.72552681,7.395018578,2024-06-11 14:17:52.740819
45.7808186,1.376172066,-7.72552681,7.395018578,2024-06-11 14:17:52.780819
45.8208186,1.376172066,-7.72552681,7.395018578,2024-06-11 14:17:52.820819
45.8608186,3.588336706,-8.09671402,-2.904587507,2024-06-11 14:17:52.860819
45.9008186,6.693024158,-11.73559856,-3.044567823,2024-06-11 14:17:52.900819
45.9408186,-2.8519454,-15.15045547,-6.204289913,2024-06-11 14:17:52.940819
45.9808186,-6.794719219,-16.98156357,-2.072184324,2024-06-11 14:17:52.980819
46.0208186,-9.01316452,-15.94577026,5.395814896,2024-06-11 14:17:53.020819
46.0608186,-9.01316452,-15.94577026,5.395814896,2024-06-11 14:17:53.060819
46.1008186,-9.01316452,-15.94577026,5.395814896,2024-06-11 14:17:53.100819
46.1408186,1.037288666,-6.91106987,-0.879063189,2024-06-11 14:17:53.140819
46.1808186,1.037288666,-6.91106987,-0.879063189,2024-06-11 14:17:53.180819
46.2208186,1.037288666,-6.91106987,-0.879063189,2024-06-11 14:17:53.220819
46.2608186,1.037288666,-6.91106987,-0.879063189,2024-06-11 14:17:53.260819
46.3008186,1.037288666,-6.91106987,-0.879063189,2024-06-11 14:17:53.300819
46.3408186,1.037288666,-6.91106987,-0.879063189,2024-06-11 14:17:53.340819
46.3808186,1.660020709,-8.119445801,-1.686341763,2024-06-11 14:17:53.380819
46.4208186,1.660020709,-8.119445801,-1.686341763,2024-06-11 14:17:53.420819
46.4608186,1.660020709,-8.119445801,-1.686341763,2024-06-11 14:17:53.460819
46.5008186,1.660020709,-8.119445801,-1.686341763,2024-06-11 14:17:53.500819
46.5408186,1.660020709,-8.119445801,-1.686341763,2024-06-11 14:17:53.540819
46.5808186,1.660020709,-8.119445801,-1.686341763,2024-06-11 14:17:53.580819
46.6208186,7.282256603,-25.22932434,10.93549824,2024-06-11 14:17:53.620819
46.6608186,7.282256603,-25.22932434,10.93549824,2024-06-11 14:17:53.660819
46.7008186,7.282256603,-25.22932434,10.93549824,2024-06-11 14:17:53.700819
46.7408186,7.282256603,-25.22932434,10.93549824,2024-06-11 14:17:53.740819
46.7808186,7.282256603,-25.22932434,10.93549824,2024-06-11 14:17:53.780819
46.8208186,7.282256603,-25.22932434,10.93549824,2024-06-11 14:17:53.820819
46.8608186,7.282256603,-25.22932434,10.93549824,2024-06-11 14:17:53.860819
46.9008186,7.282256603,-25.22932434,10.93549824,2024-06-11 14:17:53.900819
46.9408186,7.282256603,-25.22932434,10.93549824,2024-06-11 14:17:53.940819
46.9808186,7.282256603,-25.22932434,10.93549824,2024-06-11 14:17:53.980819
47.0208186,7.282256603,-25.22932434,10.93549824,2024-06-11 14:17:54.020819
47.0608186,7.282256603,-25.22932434,10.93549824,2024-06-11 14:17:54.060819
47.1008186,7.282256603,-25.22932434,10.93549824,2024-06-11 14:17:54.100819
47.1408186,7.282256603,-25.22932434,10.93549824,2024-06-11 14:17:54.140819
47.1808186,7.282256603,-25.22932434,10.93549824,2024-06-11 14:17:54.180819
47.2208186,7.282256603,-25.22932434,10.93549824,2024-06-11 14:17:54.220819
47.2608186,7.282256603,-25.22932434,10.93549824,2024-06-11 14:17:54.260819
47.3008186,7.282256603,-25.22932434,10.93549824,2024-06-11 14:17:54.300819
47.3408186,7.282256603,-25.22932434,10.93549824,2024-06-11 14:17:54.340819
47.3808186,7.282256603,-25.22932434,10.93549824,2024-06-11 14:17:54.380819
47.4208186,7.282256603,-25.22932434,10.93549824,2024-06-11 14:17:54.420819
47.4608186,7.282256603,-25.22932434,10.93549824,2024-06-11 14:17:54.460819
47.5008186,7.282256603,-25.22932434,10.93549824,2024-06-11 14:17:54.500819
47.5408186,0.8096713424,0.1462612897,-5.138287544,2024-06-11 14:17:54.540819
47.5808186,0.1342971772,-0.03708875179,-0.8335995674,2024-06-11 14:17:54.580819
47.6208186,2.871088028,-1.268495083,18.28236198,2024-06-11 14:17:54.620819
47.6608186,12.8949213,-14.1562376,9.865906715,2024-06-11 14:17:54.660819
47.7008186,11.38953686,-24.33709908,-15.63889027,2024-06-11 14:17:54.700819
47.7408186,11.38953686,-24.33709908,-15.63889027,2024-06-11 14:17:54.740819
47.7808186,11.38953686,-24.33709908,-15.63889027,2024-06-11 14:17:54.780819
47.8208186,11.38953686,-24.33709908,-15.63889027,2024-06-11 14:17:54.820819
47.8608186,11.38953686,-24.33709908,-15.63889027,2024-06-11 14:17:54.860819
47.9008186,11.38953686,-24.33709908,-15.63889027,2024-06-11 14:17:54.900819
47.9408186,11.38953686,-24.33709908,-15.63889027,2024-06-11 14:17:54.940819
47.9808186,11.38953686,-24.33709908,-15.63889027,2024-06-11 14:17:54.980819
48.0208186,11.38953686,-24.33709908,-15.63889027,2024-06-11 14:17:55.020819
48.0608186,11.38953686,-24.33709908,-15.63889027,2024-06-11 14:17:55.060819
48.1008186,11.38953686,-24.33709908,-15.63889027,2024-06-11 14:17:55.100819
48.1408186,11.38953686,-24.33709908,-15.63889027,2024-06-11 14:17:55.140819
48.1808186,11.38953686,-24.33709908,-15.63889027,2024-06-11 14:17:55.180819
48.2208186,11.38953686,-24.33709908,-15.63889027,2024-06-11 14:17:55.220819
48.2608186,11.38953686,-24.33709908,-15.63889027,2024-06-11 14:17:55.260819
48.3008186,11.38953686,-24.33709908,-15.63889027,2024-06-11 14:17:55.300819
48.3408186,11.38953686,-24.33709908,-15.63889027,2024-06-11 14:17:55.340819
48.3808186,-17.31715584,-0.3388835192,-1.361815214,2024-06-11 14:17:55.380819
48.4208186,-17.31715584,-0.3388835192,-1.361815214,2024-06-11 14:17:55.420819
48.4608186,-17.31715584,-0.3388835192,-1.361815214,2024-06-11 14:17:55.460819
48.5008186,-17.31715584,-0.3388835192,-1.361815214,2024-06-11 14:17:55.500819
48.5408186,-17.31715584,-0.3388835192,-1.361815214,2024-06-11 14:17:55.540819
48.5808186,-17.31715584,-0.3388835192,-1.361815214,2024-06-11 14:17:55.580819
48.6208186,-6.569793701,-4.702494621,1.171286702,2024-06-11 14:17:55.620819
48.6608186,-6.569793701,-4.702494621,1.171286702,2024-06-11 14:17:55.660819
48.7008186,-6.569793701,-4.702494621,1.171286702,2024-06-11 14:17:55.700819
48.7408186,-6.569793701,-4.702494621,1.171286702,2024-06-11 14:17:55.740819
48.7808186,-6.569793701,-4.702494621,1.171286702,2024-06-11 14:17:55.780819
48.8208186,-6.569793701,-4.702494621,1.171286702,2024-06-11 14:17:55.820819
48.8608186,-6.569793701,-4.702494621,1.171286702,2024-06-11 14:17:55.860819
48.9008186,-6.569793701,-4.702494621,1.171286702,2024-06-11 14:17:55.900819
48.9408186,-6.569793701,-4.702494621,1.171286702,2024-06-11 14:17:55.940819
48.9808186,-6.569793701,-4.702494621,1.171286702,2024-06-11 14:17:55.980819
49.0208186,-6.569793701,-4.702494621,1.171286702,2024-06-11 14:17:56.020819
49.0608186,-6.569793701,-4.702494621,1.171286702,2024-06-11 14:17:56.060819
49.1008186,-6.569793701,-4.702494621,1.171286702,2024-06-11 14:17:56.100819
49.1408186,-6.569793701,-4.702494621,1.171286702,2024-06-11 14:17:56.140819
49.1808186,-6.569793701,-4.702494621,1.171286702,2024-06-11 14:17:56.180819
49.2208186,-3.807579041,-7.851150036,3.617349625,2024-06-11 14:17:56.220819
49.2608186,-5.444868088,-7.812865257,5.192125797,2024-06-11 14:17:56.260819
49.3008186,-8.672785759,-10.56161976,13.07468224,2024-06-11 14:17:56.300819
49.3408186,-12.13430309,-13.26999664,7.809275627,2024-06-11 14:17:56.340819
49.3808186,-3.327219963,-5.138287544,10.16171932,2024-06-11 14:17:56.380819
49.4208186,-3.327219963,-5.138287544,10.16171932,2024-06-11 14:17:56.420819
49.4608186,-3.327219963,-5.138287544,10.16171932,2024-06-11 14:17:56.460819
49.5008186,-3.327219963,-5.138287544,10.16171932,2024-06-11 14:17:56.500819
49.5408186,-3.327219963,-5.138287544,10.16171932,2024-06-11 14:17:56.540819
49.5808186,-3.327219963,-5.138287544,10.16171932,2024-06-11 14:17:56.580819
49.6208186,-3.327219963,-5.138287544,10.16171932,2024-06-11 14:17:56.620819
49.6608186,-3.327219963,-5.138287544,10.16171932,2024-06-11 14:17:56.660819
49.7008186,-3.327219963,-5.138287544,10.16171932,2024-06-11 14:17:56.700819
49.7408186,-3.327219963,-5.138287544,10.16171932,2024-06-11 14:17:56.740819
49.7808186,-3.327219963,-5.138287544,10.16171932,2024-06-11 14:17:56.780819
49.8208186,-3.327219963,-5.138287544,10.16171932,2024-06-11 14:17:56.820819
49.8608186,-3.327219963,-5.138287544,10.16171932,2024-06-11 14:17:56.860819
49.9008186,-3.327219963,-5.138287544,10.16171932,2024-06-11 14:17:56.900819
49.9408186,-3.327219963,-5.138287544,10.16171932,2024-06-11 14:17:56.940819
49.9808186,-3.327219963,-5.138287544,10.16171932,2024-06-11 14:17:56.980819
50.0208186,-3.327219963,-5.138287544,10.16171932,2024-06-11 14:17:57.020819
50.0608186,-3.327219963,-5.138287544,10.16171932,2024-06-11 14:17:57.060819
50.1008186,-3.327219963,-5.138287544,10.16171932,2024-06-11 14:17:57.100819
50.1408186,-3.327219963,-5.138287544,10.16171932,2024-06-11 14:17:57.140819
50.1808186,-3.327219963,-5.138287544,10.16171932,2024-06-11 14:17:57.180819
50.2208186,-3.327219963,-5.138287544,10.16171932,2024-06-11 14:17:57.220819
50.2608186,-3.327219963,-5.138287544,10.16171932,2024-06-11 14:17:57.260819
50.3008186,-3.327219963,-5.138287544,10.16171932,2024-06-11 14:17:57.300819
50.3408186,-3.327219963,-5.138287544,10.16171932,2024-06-11 14:17:57.340819
50.3808186,-3.327219963,-5.138287544,10.16171932,2024-06-11 14:17:57.380819
50.4208186,-3.327219963,-5.138287544,10.16171932,2024-06-11 14:17:57.420819
50.4608186,-3.327219963,-5.138287544,10.16171932,2024-06-11 14:17:57.460819
50.5008186,-3.327219963,-5.138287544,10.16171932,2024-06-11 14:17:57.500819
50.5408186,-3.327219963,-5.138287544,10.16171932,2024-06-11 14:17:57.540819
50.5808186,-3.327219963,-5.138287544,10.16171932,2024-06-11 14:17:57.580819
50.6208186,0.3819543123,-2.720041037,0.1184447184,2024-06-11 14:17:57.620819
50.6608186,0.3819543123,-2.720041037,0.1184447184,2024-06-11 14:17:57.660819
50.7008186,0.3819543123,-2.720041037,0.1184447184,2024-06-11 14:17:57.700819
50.7408186,0.3819543123,-2.720041037,0.1184447184,2024-06-11 14:17:57.740819
50.7808186,0.3819543123,-2.720041037,0.1184447184,2024-06-11 14:17:57.780819
50.8208186,0.3819543123,-2.720041037,0.1184447184,2024-06-11 14:17:57.820819
50.8608186,0.3819543123,-2.720041037,0.1184447184,2024-06-11 14:17:57.860819
50.9008186,1.856531262,-2.906980515,-4.388436794,2024-06-11 14:17:57.900819
50.9408186,-4.394418716,-7.446464062,-2.460120678,2024-06-11 14:17:57.940819
50.9808186,-8.929117203,-13.05553913,0.09212367237,2024-06-11 14:17:57.980819
51.0208186,-5.060520649,-6.722934246,0.4779663086,2024-06-11 14:17:58.020819
51.0608186,-4.278367043,-4.886742115,1.297209024,2024-06-11 14:17:58.060819
51.1008186,-4.278367043,-4.886742115,1.297209024,2024-06-11 14:17:58.100819
51.1408186,-7.534998417,-6.716952324,-0.1701895148,2024-06-11 14:17:58.140819
51.1808186,-7.869096279,-7.074978352,0.3209373355,2024-06-11 14:17:58.180819
51.2208186,-12.03858948,-7.313363075,6.97567606,2024-06-11 14:17:58.220819
51.2608186,-11.36889839,-6.014957905,-2.499602318,2024-06-11 14:17:58.260819
51.3008186,-9.810872078,-7.942376614,-1.286441326,2024-06-11 14:17:58.300819
51.3408186,-8.72453022,-11.98834038,8.685946465,2024-06-11 14:17:58.340819
51.3808186,-10.58106136,-8.278866768,-2.832803011,2024-06-11 14:17:58.380819
51.4208186,-6.891927242,-12.72144127,0.6107679605,2024-06-11 14:17:58.420819
51.4608186,-9.435796738,-18.96521378,2.49481678,2024-06-11 14:17:58.460819
51.5008186,-1.219442248,-6.502495766,-3.081955671,2024-06-11 14:17:58.500819
51.5408186,-1.516451359,-2.886641502,-6.927819729,2024-06-11 14:17:58.540819
51.5808186,-3.492623806,-1.773978829,1.224227905,2024-06-11 14:17:58.580819
51.6208186,-3.492623806,-1.773978829,1.224227905,2024-06-11 14:17:58.620819
51.6608186,0.1785643846,-2.898605585,-3.273381472,2024-06-11 14:17:58.660819
51.7008186,-5.858228207,-6.55394125,2.421835661,2024-06-11 14:17:58.700819
51.7408186,-16.0259304,-15.41755486,20.1735878,2024-06-11 14:17:58.740819
51.7808186,-0.5078766346,-6.230610847,1.138983607,2024-06-11 14:17:58.780819
51.8208186,-4.587339878,-9.950852394,-0.8539385796,2024-06-11 14:17:58.820819
51.8608186,-4.587339878,-9.950852394,-0.8539385796,2024-06-11 14:17:58.860819
51.9008186,1.159322619,-3.792025566,-5.900102615,2024-06-11 14:17:58.900819
51.9408186,-1.890030742,-3.115455151,-2.556132793,2024-06-11 14:17:58.940819
51.9808186,-10.03460121,-11.971591,-2.509173632,2024-06-11 14:17:58.980819
52.0208186,-6.164808273,-7.439285755,0.1558325738,2024-06-11 14:17:59.020819
52.0608186,-4.351347923,-4.264009953,0.4971089065,2024-06-11 14:17:59.060819
52.1008186,-6.931408882,-8.88604641,1.164108157,2024-06-11 14:17:59.100819
52.1408186,-6.931408882,-8.88604641,1.164108157,2024-06-11 14:17:59.140819
52.1808186,-6.826124668,-6.374479294,0.1917249113,2024-06-11 14:17:59.180819
52.2208186,-8.209475517,-6.401997089,2.159522533,2024-06-11 14:17:59.220819
52.2608186,-11.61087322,-5.659324646,-1.462313771,2024-06-11 14:17:59.260819
52.3008186,-11.65065384,-6.991229534,-1.706680775,2024-06-11 14:17:59.300819
52.3408186,-12.80638695,-11.41346455,7.082156658,2024-06-11 14:17:59.340819
52.3808186,-8.726922989,-8.437092781,1.280459166,2024-06-11 14:17:59.380819
52.4208186,-6.183950901,-8.750851631,0.4049852192,2024-06-11 14:17:59.420819
52.4608186,-6.243771553,-18.82732582,0.4624129832,2024-06-11 14:17:59.460819
52.5008186,-3.857828379,-7.621140003,0.5688936114,2024-06-11 14:17:59.500819
52.5408186,-4.057928085,-3.468695641,-6.094220161,2024-06-11 14:17:59.540819
52.5808186,-5.042574406,-2.419442892,-3.310470104,2024-06-11 14:17:59.580819
52.6208186,-5.080859661,-2.733201742,1.546361685,2024-06-11 14:17:59.620819
52.6608186,-1.838585138,-3.851846218,-0.7247261405,2024-06-11 14:17:59.660819
52.7008186,-0.8886345029,-5.078466892,-1.165304661,2024-06-11 14:17:59.700819
52.7408186,-3.51894474,-7.802097321,0.8395816684,2024-06-11 14:17:59.740819
52.7808186,-22.39442635,-17.58066559,26.69433022,2024-06-11 14:17:59.780819
52.8208186,-1.4479568,-7.995018482,3.21954298,2024-06-11 14:17:59.820819
52.8608186,-2.978765011,-8.510073662,-1.74047935,2024-06-11 14:17:59.860819
52.9008186,-10.134202,-15.359828,-2.105684042,2024-06-11 14:17:59.900819
52.9408186,-2.284248352,-4.801796913,-2.530709028,2024-06-11 14:17:59.940819
52.9808186,-2.691327333,-4.581357956,-1.990529299,2024-06-11 14:17:59.980819
53.0208186,-7.996214867,-12.135499,-1.613360643,2024-06-11 14:18:00.020819
53.0608186,-4.777868748,-6.212665081,-0.1256231815,2024-06-11 14:18:00.060819
53.1008186,-5.000699997,-4.679463863,-1.479362607,2024-06-11 14:18:00.100819
53.1408186,-7.544569969,-5.373083115,-0.195314154,2024-06-11 14:18:00.140819
53.1808186,-8.685946465,-7.143472672,0.3580260873,2024-06-11 14:18:00.180819
53.2208186,-6.313462734,-8.205885887,2.505584478,2024-06-11 14:18:00.220819
53.2608186,-7.760222912,-7.042675018,0.7845467329,2024-06-11 14:18:00.260819
53.3008186,-8.478966713,-5.554040432,-0.0143569354,2024-06-11 14:18:00.300819
53.3408186,-10.42403316,-4.637589455,-2.433799744,2024-06-11 14:18:00.340819
53.3808186,-11.90548897,-7.943572998,-1.342672586,2024-06-11 14:18:00.380819
53.4208186,-10.06959629,-10.51137066,8.131409645,2024-06-11 14:18:00.420819
53.4608186,-7.049853802,-8.704191208,2.350050926,2024-06-11 14:18:00.460819
53.5008186,-4.999503613,-8.720941544,0.2623131871,2024-06-11 14:18:00.500819
53.5408186,-4.999503613,-8.720941544,0.2623131871,2024-06-11 14:18:00.540819
53.5808186,-4.468895435,-11.03480053,-0.4719842672,2024-06-11 14:18:00.580819
53.6208186,-5.652146339,-4.051946163,-5.290530682,2024-06-11 14:18:00.620819
53.6608186,-7.998608112,-2.037488461,2.346461773,2024-06-11 14:18:00.660819
53.7008186,-3.908376694,-2.751147747,-1.984547257,2024-06-11 14:18:00.700819
53.7408186,-2.184647083,-5.647360325,-0.7247261405,2024-06-11 14:18:00.740819
53.7808186,-2.89980197,-6.363711834,0.04307080805,2024-06-11 14:18:00.780819
53.8208186,-4.885545731,-9.993923187,5.437689304,2024-06-11 14:18:00.820819
53.8608186,-10.06839943,-11.219347,13.63879013,2024-06-11 14:18:00.860819
53.9008186,-5.701199055,-8.292027473,5.313262463,2024-06-11 14:18:00.900819
53.9408186,-5.818746567,-8.747262001,3.101098061,2024-06-11 14:18:00.940819
53.9808186,-7.460821152,-8.253742218,-3.011068106,2024-06-11 14:18:00.980819
54.0208186,-7.471588612,-12.21236897,-2.705684185,2024-06-11 14:18:01.020819
54.0608186,-3.256631613,-6.477370739,0.3747758567,2024-06-11 14:18:01.060819
54.1008186,-0.832403183,-7.115955353,-0.7031907439,2024-06-11 14:18:01.100819
54.1408186,-9.373583794,-10.04207802,6.002993584,2024-06-11 14:18:01.140819
54.1808186,-6.810272217,-7.458428383,-2.200200319,2024-06-11 14:18:01.180819
54.2208186,-5.125126839,-4.703691006,-1.484148264,2024-06-11 14:18:01.220819
54.2608186,-5.515755177,-4.601696968,-0.6071787477,2024-06-11 14:18:01.260819
54.3008186,-7.928019524,-7.508677483,-0.7079764009,2024-06-11 14:18:01.300819
54.3408186,-5.604289532,-6.999604225,1.723430514,2024-06-11 14:18:01.340819
54.3808186,-7.772187233,-6.660720825,-1.031306505,2024-06-11 14:18:01.380819
54.4208186,-7.786543846,-6.138487339,-0.6203392744,2024-06-11 14:18:01.420819
54.4608186,-7.157829762,-6.340980053,0.3628117442,2024-06-11 14:18:01.460819
54.5008186,-6.230610847,-6.86082077,-0.003589233849,2024-06-11 14:18:01.500819
54.5408186,-7.89930582,-5.876173973,-1.420439363,2024-06-11 14:18:01.540819
54.5808186,-8.669196129,-6.47497797,-1.015753269,2024-06-11 14:18:01.580819
54.6208186,-8.25254631,-7.273881912,-1.504487276,2024-06-11 14:18:01.620819
54.6608186,-8.547162056,-8.943473816,-1.286441326,2024-06-11 14:18:01.660819
54.7008186,-4.570590496,-8.659625053,0.2814557552,2024-06-11 14:18:01.700819
54.7408186,0.4695914388,-7.607979774,-0.2168495506,2024-06-11 14:18:01.740819
54.7808186,-6.944569588,-7.576872826,-1.142572761,2024-06-11 14:18:01.780819
54.8208186,-7.860721588,-5.654539108,-2.025524378,2024-06-11 14:18:01.820819
54.8608186,-7.266703129,-7.309773922,-0.7701897621,2024-06-11 14:18:01.860819
54.9008186,-4.045963764,-8.846564293,-0.7713862062,2024-06-11 14:18:01.900819
54.9408186,-4.03399992,-8.858528137,-0.9822536707,2024-06-11 14:18:01.940819
54.9808186,-3.679563046,-9.891031265,0.2264208496,2024-06-11 14:18:01.980819
55.0208186,-2.649452925,-11.13320541,1.438385487,2024-06-11 14:18:02.020819
55.0608186,-3.129812002,-10.25384331,2.187039852,2024-06-11 14:18:02.060819
55.1008186,-5.459224701,-8.453842163,0.1701895148,2024-06-11 14:18:02.100819
55.1408186,-6.526423931,-6.590132713,-2.033899307,2024-06-11 14:18:02.140819
55.1808186,-6.787540436,-6.366104603,-1.7138592,2024-06-11 14:18:02.180819
55.2208186,-6.787540436,-6.366104603,-1.7138592,2024-06-11 14:18:02.220819
55.2608186,-7.176972389,-7.900502205,1.630110383,2024-06-11 14:18:02.260819
55.3008186,-5.368297577,-9.766305923,1.141376376,2024-06-11 14:18:02.300819
55.3408186,-3.607479334,-9.319745064,-0.4528416991,2024-06-11 14:18:02.340819
55.3808186,-4.405186653,-8.494520187,-1.514058471,2024-06-11 14:18:02.380819
55.4208186,-4.695316315,-7.94955492,-1.707877159,2024-06-11 14:18:02.420819
55.4608186,-5.453242779,-7.285845757,-1.419242978,2024-06-11 14:18:02.460819
55.5008186,-5.957530022,-7.025925636,-1.435992718,2024-06-11 14:18:02.500819
55.5408186,-5.979065418,-7.906484127,-1.274477124,2024-06-11 14:18:02.540819
55.5808186,-6.273681641,-9.289834976,-1.286441326,2024-06-11 14:18:02.580819
55.6208186,-6.300302029,-9.319745064,-1.177268744,2024-06-11 14:18:02.620819
55.6608186,-5.392225742,-6.18634367,-1.292423368,2024-06-11 14:18:02.660819
55.7008186,-8.379365921,-6.575775623,-3.584747314,2024-06-11 14:18:02.700819
55.7408186,-11.10688496,-4.417449474,3.268595695,2024-06-11 14:18:02.740819
55.7808186,-8.508877754,-5.603093147,1.802692771,2024-06-11 14:18:02.780819
55.8208186,-8.508877754,-5.603093147,1.802692771,2024-06-11 14:18:02.820819
55.8608186,-4.447360039,-8.151748657,0.9858429432,2024-06-11 14:18:02.860819
55.9008186,-5.172983646,-7.095616341,0.06580262631,2024-06-11 14:18:02.900819
55.9408186,-4.79820776,-7.695616722,0.3867399693,2024-06-11 14:18:02.940819
55.9808186,-4.79820776,-7.695616722,0.3867399693,2024-06-11 14:18:02.980819
56.0208186,-7.330112934,-6.946962357,0.08973085135,2024-06-11 14:18:03.020819
56.0608186,-7.287042141,-6.736094952,0.5198407173,2024-06-11 14:18:03.060819
56.1008186,-5.247459888,-8.447860718,1.260120273,2024-06-11 14:18:03.100819
56.1408186,-5.277370453,-8.052446365,1.214656591,2024-06-11 14:18:03.140819
56.1808186,-7.814061642,-6.955337048,-2.297408819,2024-06-11 14:18:03.180819
56.2208186,-7.459624767,-5.891727448,-0.3293122053,2024-06-11 14:18:03.220819
56.2608186,-3.377768278,-7.582854748,2.196611166,2024-06-11 14:18:03.260819
56.3008186,-2.263610125,-9.503094673,3.043371201,2024-06-11 14:18:03.300819
56.3408186,-3.407678604,-8.676374435,2.39910388,2024-06-11 14:18:03.340819
56.3808186,-7.368697166,-7.960322857,0.7163512707,2024-06-11 14:18:03.380819
56.4208186,-7.384250641,-6.550352097,2.609971285,2024-06-11 14:18:03.420819
56.4608186,-7.365108013,-5.504987717,0.3903291821,2024-06-11 14:18:03.460819
56.5008186,-6.701398849,-7.018746853,-0.7570292354,2024-06-11 14:18:03.500819
56.5408186,-5.33240509,-7.794919014,-1.390529037,2024-06-11 14:18:03.540819
56.5808186,-4.620839596,-9.291030884,2.897409201,2024-06-11 14:18:03.580819
56.6208186,-5.879763603,-8.98803997,4.933402061,2024-06-11 14:18:03.620819
56.6608186,-6.879963398,-6.594918251,0.2874378264,2024-06-11 14:18:03.660819
56.7008186,-6.391229153,-7.475177765,-0.6275177598,2024-06-11 14:18:03.700819
56.7408186,-7.429714203,-6.766005039,1.673181176,2024-06-11 14:18:03.740819
56.7808186,-6.991229534,-6.709774017,0.5485545993,2024-06-11 14:18:03.780819
56.8208186,-5.738287926,-7.094419956,-0.7558328509,2024-06-11 14:18:03.820819
56.8608186,-6.421139717,-6.815057755,-0.05144568533,2024-06-11 14:18:03.860819
56.9008186,-6.36251545,-7.187740326,0.2264208496,2024-06-11 14:18:03.900819
56.9408186,-6.6762743,-7.773383617,-0.3735794425,2024-06-11 14:18:03.940819
56.9808186,-6.364908218,-7.495516777,-0.5102694035,2024-06-11 14:18:03.980819
57.0208186,-4.561018944,-8.066802979,1.829013824,2024-06-11 14:18:04.020819
57.0608186,-3.854238987,-8.688339233,5.441278458,2024-06-11 14:18:04.060819
57.1008186,-4.829314232,-9.065806389,3.805186272,2024-06-11 14:18:04.100819
57.1408186,-4.540679932,-10.03101158,3.33439827,2024-06-11 14:18:04.140819
57.1808186,-4.779065132,-8.177172661,5.143073082,2024-06-11 14:18:04.180819
57.2208186,-4.194618225,-7.297810078,4.799404144,2024-06-11 14:18:04.220819
57.2608186,-4.301098824,-7.659724236,3.714258909,2024-06-11 14:18:04.260819
57.3008186,-4.08424902,-7.877471447,3.26979208,2024-06-11 14:18:04.300819
57.3408186,-5.398207664,-7.888238907,3.569194078,2024-06-11 14:18:04.340819
57.3808186,-5.328815937,-6.785147667,3.820739508,2024-06-11 14:18:04.380819
57.4208186,-5.035396099,-5.500202179,3.091526747,2024-06-11 14:18:04.420819
57.4608186,-6.126523495,-6.679863453,2.108076811,2024-06-11 14:18:04.460819
57.5008186,-5.711966991,-9.77737236,2.438585281,2024-06-11 14:18:04.500819
57.5408186,-5.279763222,-8.932705879,4.144069672,2024-06-11 14:18:04.540819
57.5808186,-3.565604925,-7.817650795,3.590729475,2024-06-11 14:18:04.580819
57.6208186,-4.145266056,-7.381857872,2.452942371,2024-06-11 14:18:04.620819
57.6608186,-4.145266056,-7.381857872,2.452942371,2024-06-11 14:18:04.660819
57.7008186,-5.908477306,-7.618747234,0.5318048596,2024-06-11 14:18:04.700819
57.7408186,-6.76361227,-7.861917973,-0.1342971772,2024-06-11 14:18:04.740819
57.7808186,-6.163611889,-7.384250641,-0.5174478889,2024-06-11 14:18:04.780819
57.8208186,-8.379365921,-6.274878502,1.9797616,2024-06-11 14:18:04.820819
57.8608186,-6.783951283,-7.276274681,0.9305089116,2024-06-11 14:18:04.860819
57.9008186,-3.324826956,-7.47398138,2.3201406,2024-06-11 14:18:04.900819
57.9408186,-6.356533527,-7.647760391,0.9571290612,2024-06-11 14:18:04.940819
57.9808186,-7.981858253,-6.809075832,0.2647060156,2024-06-11 14:18:04.980819
58.0208186,-6.87158823,-7.615158081,-0.4683950245,2024-06-11 14:18:05.020819
58.0608186,-5.138287544,-8.40688324,0.3520440459,2024-06-11 14:18:05.060819
58.1008186,-2.765504837,-8.937491417,1.030110121,2024-06-11 14:18:05.100819
58.1408186,-5.581557751,-7.429714203,-0.6804589629,2024-06-11 14:18:05.140819
58.1808186,-8.076375008,-6.836892605,-1.092323542,2024-06-11 14:18:05.180819
58.2208186,-7.821239948,-6.357729912,1.11984098,2024-06-11 14:18:05.220819
58.2608186,-6.507281303,-8.01416111,0.4552344978,2024-06-11 14:18:05.260819
58.3008186,-5.769693375,-7.76500845,0.1821536273,2024-06-11 14:18:05.300819
58.3408186,-6.320641041,-7.374679565,-0.1821536273,2024-06-11 14:18:05.340819
58.3808186,-6.873981476,-6.833303452,-0.4863412082,2024-06-11 14:18:05.380819
58.4208186,-6.480959892,-6.504888535,-0.7055835724,2024-06-11 14:18:05.420819
58.4608186,-6.480959892,-6.504888535,-0.7055835724,2024-06-11 14:18:05.460819
58.5008186,-6.605686188,-7.466803074,-0.9631111026,2024-06-11 14:18:05.500819
58.5408186,-6.610471725,-6.888338089,-0.8659027219,2024-06-11 14:18:05.540819
58.5808186,-7.083353043,-6.243771553,-1.161715388,2024-06-11 14:18:05.580819
58.6208186,-7.641777992,-6.163611889,-1.309173107,2024-06-11 14:18:05.620819
58.6608186,-7.97467947,-5.997011662,-0.6323033571,2024-06-11 14:18:05.660819
58.7008186,-7.597211838,-6.253343105,1.051645517,2024-06-11 14:18:05.700819
58.7408186,-8.523234367,-6.893123627,0.7247261405,2024-06-11 14:18:05.740819
58.7808186,-8.311170578,-8.511270523,0.4217349887,2024-06-11 14:18:05.780819
58.8208186,-7.176972389,-8.880064011,0.07776673883,2024-06-11 14:18:05.820819
58.8608186,-4.776672363,-8.797511101,1.571486235,2024-06-11 14:18:05.860819
58.9008186,-5.021039009,-8.611768723,3.947858334,2024-06-11 14:18:05.900819
58.9408186,-4.118945122,-9.85274601,3.734597921,2024-06-11 14:18:05.940819
58.9808186,-4.152743816,-10.6109724,0.5318048596,2024-06-11 14:18:05.980819
59.0208186,-4.721637249,-5.67487812,-1.457528114,2024-06-11 14:18:06.020819
59.0608186,-6.392425537,-5.25942421,0.7570292354,2024-06-11 14:18:06.060819
59.1008186,-5.784050465,-5.991029739,2.132004976,2024-06-11 14:18:06.100819
59.1408186,-5.430510998,-7.036693096,1.359422326,2024-06-11 14:18:06.140819
59.1808186,-4.844867706,-8.484949112,0.6514459848,2024-06-11 14:18:06.180819
59.2208186,-4.791028976,-8.992825508,0.936490953,2024-06-11 14:18:06.220819
59.2608186,-16.4342041,-7.396214962,15.33709621,2024-06-11 14:18:06.260819
59.3008186,-6.576972008,-10.37617588,8.238189697,2024-06-11 14:18:06.300819
59.3008186,-6.576972008,-10.37617588,8.238189697,2024-06-11 14:18:06.300819
59.3808186,0.1028913707,-3.805186272,-8.809475899,2024-06-11 14:18:06.380819
59.4208186,-4.403990269,-1.963011861,4.940580368,2024-06-11 14:18:06.420819
59.4608186,-6.999604225,-7.157829762,1.421635747,2024-06-11 14:18:06.460819
59.5008186,-7.715955734,-10.22154045,1.966601133,2024-06-11 14:18:06.500819
59.5408186,-4.632803917,-7.835597038,2.291426897,2024-06-11 14:18:06.540819
59.5808186,-6.177968979,-7.450053215,2.51994133,2024-06-11 14:18:06.580819
59.6208186,-8.698209763,-7.85234642,4.491627216,2024-06-11 14:18:06.620819
59.6608186,-8.698209763,-7.85234642,4.491627216,2024-06-11 14:18:06.660819
59.7008186,-7.477570534,-5.279763222,-2.01475668,2024-06-11 14:18:06.700819
59.7408186,-7.948358536,-3.659224033,-3.086741209,2024-06-11 14:18:06.740819
59.7808186,-4.551447868,-3.201596737,-1.646860242,2024-06-11 14:18:06.780819
59.8208186,-7.476374149,-9.209376335,10.748559,2024-06-11 14:18:06.820819
59.8608186,-11.18824005,-12.08285713,4.319045067,2024-06-11 14:18:06.860819
59.9008186,-6.534798622,-7.501499176,1.89242363,2024-06-11 14:18:06.900819
59.9408186,-3.230310678,-4.409972191,2.151147604,2024-06-11 14:18:06.940819
59.9808186,-0.9257232547,-1.04685986,-3.095116138,2024-06-11 14:18:06.980819
60.0208186,0.08853443712,-0.4683950245,2.13559413,2024-06-11 14:18:07.020819
60.0608186,-7.467999458,-8.044071198,-8.127820015,2024-06-11 14:18:07.060819
60.1008186,-10.17966557,-14.15504169,0.2467598319,2024-06-11 14:18:07.100819
60.1408186,-10.17966557,-14.15504169,0.2467598319,2024-06-11 14:18:07.140819
60.1808186,-5.546862125,-8.530412674,3.914358854,2024-06-11 14:18:07.180819
60.2208186,-5.431707382,-4.242474556,6.181558132,2024-06-11 14:18:07.220819
60.2608186,-8.290831566,-8.11824894,-3.884448528,2024-06-11 14:18:07.260819
60.3008186,-8.972486496,-5.231906891,-3.968197346,2024-06-11 14:18:07.300819
60.3408186,-7.867899895,-5.434100151,1.735394597,2024-06-11 14:18:07.340819
60.3808186,-3.468695641,-7.705187798,2.653042078,2024-06-11 14:18:07.380819
60.4208186,-2.145165443,-16.15514183,1.677966833,2024-06-11 14:18:07.420819
60.4608186,-11.02881908,-6.889534473,1.049252748,2024-06-11 14:18:07.460819
60.5008186,-14.35155201,-1.775175333,3.783650875,2024-06-11 14:18:07.500819
60.5408186,-8.265707016,-0.332901448,0.4121637046,2024-06-11 14:18:07.540819
60.5808186,-0.4791627228,-2.003689766,4.371686935,2024-06-11 14:18:07.580819
60.6208186,1.695913076,-2.942872763,2.203789711,2024-06-11 14:18:07.620819
60.6608186,2.352443695,-1.386939883,-1.439581871,2024-06-11 14:18:07.660819
60.7008186,-2.983550787,-9.553344727,-9.397511482,2024-06-11 14:18:07.700819
60.7408186,-6.869195461,-14.11795235,-3.40648222,2024-06-11 14:18:07.740819
60.7808186,-17.23430443,-10.44197845,5.901299,2024-06-11 14:18:07.780819
60.8208186,-10.97019482,-9.037093163,-5.041378021,2024-06-11 14:18:07.820819
60.8608186,-10.01545811,-15.64128304,2.965604544,2024-06-11 14:18:07.860819
60.9008186,-10.01545811,-15.64128304,2.965604544,2024-06-11 14:18:07.900819
60.9408186,-9.141180992,-10.80000496,6.742076874,2024-06-11 14:18:07.940819
60.9808186,-5.983851433,-7.737491131,-0.2084746659,2024-06-11 14:18:07.980819
61.0208186,-6.157629967,-8.57228756,-2.589632273,2024-06-11 14:18:08.020819
61.0608186,-8.854939461,-10.91515923,-0.3436691463,2024-06-11 14:18:08.060819
61.1008186,-8.854939461,-10.91515923,-0.3436691463,2024-06-11 14:18:08.100819
61.1408186,-4.895116806,-6.732505798,-2.978765011,2024-06-11 14:18:08.140819
61.1808186,-3.522534132,-4.511966228,-1.970190287,2024-06-11 14:18:08.180819
61.2208186,-3.522534132,-4.511966228,-1.970190287,2024-06-11 14:18:08.220819
61.2608186,-7.94955492,-2.994318485,0.9149555564,2024-06-11 14:18:08.260819
61.3008186,-6.01376152,-9.186644554,-1.943869352,2024-06-11 14:18:08.300819
61.3408186,-0.3652045429,-7.271489143,1.296012521,2024-06-11 14:18:08.340819
61.3808186,-1.444367528,-2.676970243,2.605185747,2024-06-11 14:18:08.380819
61.4208186,-13.99083424,-5.266602516,15.3538456,2024-06-11 14:18:08.420819
61.4608186,-7.524230957,-1.640878081,-5.098805904,2024-06-11 14:18:08.460819
61.5008186,2.341675997,-2.350050926,-6.361319065,2024-06-11 14:18:08.500819
61.5408186,-2.009970903,-30.97748184,-21.34038925,2024-06-11 14:18:08.540819
61.5808186,4.04476738,-9.549755096,-6.486942291,2024-06-11 14:18:08.580819
61.6208186,-2.001296997,-9.440582275,-9.959226608,2024-06-11 14:18:08.620819
61.6608186,-10.77966595,-17.96860313,-6.094220161,2024-06-11 14:18:08.660819
61.7008186,-18.01765633,-14.18495178,37.36272812,2024-06-11 14:18:08.700819
61.7408186,-9.371191025,-8.032107353,2.264806747,2024-06-11 14:18:08.740819
61.7808186,-6.460621357,-4.561018944,4.814957142,2024-06-11 14:18:08.780819
61.8208186,-6.325426579,-4.638785839,5.061717033,2024-06-11 14:18:08.820819
61.8608186,-3.746562004,-3.365804195,-1.309173107,2024-06-11 14:18:08.860819
61.9008186,-0.1304088384,-0.05503492057,-0.4899304509,2024-06-11 14:18:08.900819
61.9008186,-0.1304088384,-0.05503492057,-0.4899304509,2024-06-11 14:18:08.900819
61.9808186,-7.580461979,-4.553840637,-5.672485352,2024-06-11 14:18:08.980819
62.0208186,-18.43340874,-27.18665314,-2.478066921,2024-06-11 14:18:09.020819
62.0608186,2.814856768,-22.23500443,4.787439823,2024-06-11 14:18:09.060819
62.1008186,-4.442574501,-5.012664318,0.993021369,2024-06-11 14:18:09.100819
62.1408186,-4.442574501,-5.012664318,0.993021369,2024-06-11 14:18:09.140819
62.1808186,0.7199404836,-8.221439362,-1.711466432,2024-06-11 14:18:09.180819
62.2208186,-1.270887971,-10.05882835,2.44935298,2024-06-11 14:18:09.220819
62.2608186,-3.925126553,-6.746862411,8.884849548,2024-06-11 14:18:09.260819
62.3008186,1.087537885,-7.72552681,0.7713862062,2024-06-11 14:18:09.300819
62.3408186,3.217149973,-4.817350388,-3.850649834,2024-06-11 14:18:09.340819
62.3808186,7.083353043,-11.63719368,-7.003193855,2024-06-11 14:18:09.380819
62.4208186,-19.84906197,-25.18146706,44.29294205,2024-06-11 14:18:09.420819
62.4608186,-3.033800125,-7.983054638,-14.06052494,2024-06-11 14:18:09.460819
62.5008186,-1.097109199,-1.324726462,0.05982056633,2024-06-11 14:18:09.500819
