Time (s),Gyroscope x (rad/s),Gyroscope y (rad/s),Gyroscope z (rad/s),Datetime
0.082678183,-0.7424674034,-1.603708267,0.08308817446,2024-06-11 14:17:07.082678
0.122797089,-0.6742925048,-1.813559175,0.07456631213,2024-06-11 14:17:07.122797
0.20792011,-0.681216538,-1.379476786,0.9398018122,2024-06-11 14:17:07.207920
0.248343079,-0.7296846509,-0.3158415854,2.101172209,2024-06-11 14:17:07.248343
0.288885683,-0.84020257,0.1229012609,3.241237879,2024-06-11 14:17:07.288886
0.329302923,-1.255776525,0.7744244337,3.607145309,2024-06-11 14:17:07.329303
0.3698261,-0.06138405204,0.9552477002,2.576931953,2024-06-11 14:17:07.369826
0.409693756,1.409303308,1.048189282,0.8668333888,2024-06-11 14:17:07.409694
0.450789954,2.856688738,0.06777545065,0.6440665126,2024-06-11 14:17:07.450790
0.491294381,1.616224766,0.2896102369,0.2768274248,2024-06-11 14:17:07.491294
0.53168761,0.7881392837,-0.3555215299,0.009054481052,2024-06-11 14:17:07.531688
0.572219694,0.734877646,0.2030600458,-0.03115806542,2024-06-11 14:17:07.572220
0.612740631,-0.6543194056,-0.2703028917,0.1026618332,2024-06-11 14:17:07.612741
0.652730319,-0.3833507299,-0.504121542,-0.1515294015,2024-06-11 14:17:07.652730
0.693543756,-0.084020257,-0.7125077248,-0.0977351293,2024-06-11 14:17:07.693544
0.734015214,-0.947524786,-0.3073197305,0.5742937326,2024-06-11 14:17:07.734015
0.774488808,-0.3876116574,-0.301194638,0.230756104,2024-06-11 14:17:07.774489
0.814974433,-0.617302537,0.6250254512,0.2632457018,2024-06-11 14:17:07.814974
0.855447141,-2.086258888,0.8764204979,0.9424648881,2024-06-11 14:17:07.855447
0.895856464,-2.29424572,0.4850804806,1.043129444,2024-06-11 14:17:07.895856
0.936465058,-2.221010923,-0.4982627332,1.040732622,2024-06-11 14:17:07.936465
0.976949537,-3.10994792,-1.017696977,1.546585202,2024-06-11 14:17:07.976950
1.017462714,-3.706877708,-0.2388785034,1.836328626,2024-06-11 14:17:08.017463
1.057454641,-3.545095444,-0.05659050494,2.457226276,2024-06-11 14:17:08.057455
1.0983861,-4.613524437,1.916354179,1.902106762,2024-06-11 14:17:08.098386
1.138806829,-3.902614355,2.416081667,1.55457449,2024-06-11 14:17:08.138807
1.179322714,-2.465881348,1.776276112,1.555373311,2024-06-11 14:17:08.179323
1.219785527,-1.629407048,3.240172625,1.105445623,2024-06-11 14:17:08.219786
1.260235631,0.2868140042,1.734865189,1.245523691,2024-06-11 14:17:08.260236
1.300757766,1.40797174,2.190917969,0.1418091506,2024-06-11 14:17:08.300758
1.34125136,1.183340788,0.4619116783,0.2680392563,2024-06-11 14:17:08.341251
1.381739121,0.1299584359,0.03129122034,0.3039908707,2024-06-11 14:17:08.381739
1.422171412,0.4740287066,0.2419410497,0.3250292242,2024-06-11 14:17:08.422171
1.46266386,0.2271609455,0.1532603949,0.8734911084,2024-06-11 14:17:08.462664
1.502938131,0.1083874628,0.3239639997,1.088401794,2024-06-11 14:17:08.502938
1.543677194,-0.3844159544,-0.003861469682,0.7256900072,2024-06-11 14:17:08.543677
1.584176777,-0.6047860384,0.05153064802,0.9429975152,2024-06-11 14:17:08.584177
1.624622402,-0.1681736708,0.2568543255,1.12967968,2024-06-11 14:17:08.624622
1.665034694,-0.5055862069,0.4472647011,0.8889369369,2024-06-11 14:17:08.665035
1.705640579,-0.389742136,0.2845503688,1.270290375,2024-06-11 14:17:08.705641
1.746081464,-0.8548495173,0.9872047305,0.4099815488,2024-06-11 14:17:08.746081
1.786581985,-1.794784546,2.112090826,-0.5860112906,2024-06-11 14:17:08.786582
1.82707386,-0.5797531009,1.021025896,-0.4591154456,2024-06-11 14:17:08.827074
1.867557194,1.247121572,-0.5736280084,-0.09933298081,2024-06-11 14:17:08.867557
1.907977141,0.5382089615,-0.8632382154,0.1817553788,2024-06-11 14:17:08.907977
1.948498287,-0.2155765295,-1.197188735,-1.137402534,2024-06-11 14:17:08.948498
1.988980214,-2.02474165,-0.1592523307,-4.909658909,2024-06-11 14:17:08.988980
2.029483131,-1.91422379,-0.4452674091,-4.305272579,2024-06-11 14:17:09.029483
2.069952246,0.3600487709,-0.3800218701,-2.952959061,2024-06-11 14:17:09.069952
2.11045735,0.01850842312,0.9456605911,-4.391556263,2024-06-11 14:17:09.110457
2.150938183,-1.338065863,-0.02063889056,-4.828967571,2024-06-11 14:17:09.150938
2.191400996,-0.6529878378,0.1689725816,-1.577343822,2024-06-11 14:17:09.191401
2.231838548,0.1262301207,-0.6904041767,-1.5475173,2024-06-11 14:17:09.231839
2.272325162,-1.789458275,-0.2926727831,-1.267361045,2024-06-11 14:17:09.272325
2.312720787,-2.419011116,-3.005554914,-1.493190408,2024-06-11 14:17:09.312721
2.353276569,-0.9043828249,0.7022548914,-3.436042309,2024-06-11 14:17:09.353277
2.393637975,1.199585557,1.026085734,-2.787448406,2024-06-11 14:17:09.393638
2.434203704,3.161744833,-4.205806255,3.169867277,2024-06-11 14:17:09.434204
2.474785996,0.258585304,-5.997661591,0.4999937415,2024-06-11 14:17:09.474786
2.515273079,0.6287537813,1.925941348,-1.130478501,2024-06-11 14:17:09.515273
2.555781829,-0.1322220564,4.040029526,-1.174419403,2024-06-11 14:17:09.555782
2.596246516,-0.64499861,1.634466887,-0.1003982127,2024-06-11 14:17:09.596247
2.636503391,0.1041265279,-0.01611164957,-0.06284874678,2024-06-11 14:17:09.636503
2.677123183,0.5259587765,-0.270835489,-0.3403419554,2024-06-11 14:17:09.677123
2.717685214,0.1941387206,-1.26509738,0.006125089712,2024-06-11 14:17:09.717685
2.758180683,-0.5223636627,-0.4913387299,0.4286231399,2024-06-11 14:17:09.758181
2.798668131,-0.7086462975,0.6955971718,0.5473966002,2024-06-11 14:17:09.798668
2.83916011,-0.5994598866,0.1322220564,0.4414059222,2024-06-11 14:17:09.839160
2.879639798,-0.1343525201,-0.2338186502,0.2717675865,2024-06-11 14:17:09.879640
2.920073391,0.1195724085,-0.4383433759,0.2355496585,2024-06-11 14:17:09.920073
2.960581725,-0.2328865677,0.5244941115,0.6083812118,2024-06-11 14:17:09.960582
3.001083287,-0.7286193967,0.9861394763,0.7525871396,2024-06-11 14:17:10.001083
3.041510527,-0.7499240637,-0.6085143685,0.5212984085,2024-06-11 14:17:10.041511
3.081793444,-0.8519201279,-0.281221509,0.6339467764,2024-06-11 14:17:10.081793
3.122023704,-1.041531563,-0.06071828306,1.018895388,2024-06-11 14:17:10.122024
3.162253964,-0.6612433791,2.005301237,0.8356752992,2024-06-11 14:17:10.162254
3.203462714,1.189732075,0.1513962448,0.04181039706,2024-06-11 14:17:10.203463
3.243965319,-0.4078511,0.705716908,-0.4673709869,2024-06-11 14:17:10.243965
3.284431985,-0.5575163364,1.05697751,0.2435389012,2024-06-11 14:17:10.284432
3.324908444,-0.08481918275,0.8766867518,0.5679023266,2024-06-11 14:17:10.324908
3.365408444,-0.4928034246,-1.178547144,0.4699009061,2024-06-11 14:17:10.365408
3.405689277,-1.046857715,-2.209692717,0.4121120274,2024-06-11 14:17:10.405689
3.446361204,-0.8388710022,-2.720605135,0.3202356696,2024-06-11 14:17:10.446361
3.48689136,0.3235645294,-0.6668358445,0.02396774292,2024-06-11 14:17:10.486891
3.527318652,-0.1063901484,1.979735613,0.339409858,2024-06-11 14:17:10.527319
3.567849433,-0.1612496525,1.73273468,0.3308880031,2024-06-11 14:17:10.567849
3.608330006,-0.1585865617,0.3282249272,0.0926752761,2024-06-11 14:17:10.608330
3.648610944,-0.3282249272,-0.3978645205,0.04500609636,2024-06-11 14:17:10.648611
3.689306048,-0.34846434,-0.1810896099,0.05752258375,2024-06-11 14:17:10.689306
3.729719121,-0.4286231399,-0.04247616604,0.1013302878,2024-06-11 14:17:10.729719
3.770194641,-0.5607120395,-0.01078548469,0.09600412846,2024-06-11 14:17:10.770195
3.810709329,-0.2704360485,0.39746508,0.01997311972,2024-06-11 14:17:10.810709
3.851205266,-0.3250292242,0.7267552018,0.01225017942,2024-06-11 14:17:10.851205
3.891620006,-0.4358134568,1.098255277,0.06204982474,2024-06-11 14:17:10.891620
3.931940579,-0.5936011076,1.038868546,-0.03994623944,2024-06-11 14:17:10.931941
3.972604433,-0.4195686579,0.844197154,-0.2319544852,2024-06-11 14:17:10.972604
4.013094016,-0.1804238409,0.932078898,-0.225563094,2024-06-11 14:17:11.013094
4.0535461,0.151263088,1.2235533,-0.09533835202,2024-06-11 14:17:11.053546
4.094013964,0.3754946291,1.294657588,0.1271621883,2024-06-11 14:17:11.094014
4.134513079,0.2410089672,1.398517847,0.03621792421,2024-06-11 14:17:11.134513
4.174833652,-0.2193048447,0.929415822,-0.3576519787,2024-06-11 14:17:11.174834
4.215447662,0.0929415822,-0.5336817503,-0.5362116694,2024-06-11 14:17:11.215448
4.255969589,1.042729974,-0.7939980626,-0.5370106101,2024-06-11 14:17:11.255970
4.296460423,1.117828846,-0.5754921436,-0.4822842479,2024-06-11 14:17:11.296460
4.336944746,0.1744319052,-0.3182383776,0.09946613014,2024-06-11 14:17:11.336945
4.377443756,0.05885412544,0.1639127284,0.3711005449,2024-06-11 14:17:11.377444
4.417797141,0.4596480429,0.5691007376,0.3170399666,2024-06-11 14:17:11.417797
4.458368235,0.2836183012,-0.0758978501,0.2065220475,2024-06-11 14:17:11.458368
4.49887735,-0.04007939249,-0.7979927063,0.0487344116,2024-06-11 14:17:11.498877
4.539338339,-0.04434032366,-0.7868077159,-0.3291569948,2024-06-11 14:17:11.539338
4.579806516,-0.1482005417,-0.8102428913,-0.2881455421,2024-06-11 14:17:11.579807
4.620293808,-0.5159722567,-0.8552489877,-0.1802906841,2024-06-11 14:17:11.620294
4.660647194,-0.9893351793,-2.693175316,-0.1414096802,2024-06-11 14:17:11.660647
4.701288652,-0.02543243766,-1.639659882,-0.06045197323,2024-06-11 14:17:11.701289
4.741706621,0.5107792616,0.1753639877,0.1910761744,2024-06-11 14:17:11.741707
4.782066048,0.4612458944,0.1529940963,0.4011933804,2024-06-11 14:17:11.782066
4.822467819,0.7766880393,1.412632108,0.5729622245,2024-06-11 14:17:11.822468
4.862989902,0.9449948668,1.945115447,0.6600450277,2024-06-11 14:17:11.862990
4.903689589,0.8587109447,1.507704139,0.4605801404,2024-06-11 14:17:11.903690
4.944160891,0.7252905369,0.4430037737,0.2821536064,2024-06-11 14:17:11.944161
4.984631048,0.6653711796,-0.08601756394,0.1002650559,2024-06-11 14:17:11.984631
5.025119277,0.611443758,0.1689725816,-0.05113118514,2024-06-11 14:17:12.025119
5.065615839,0.2814878225,0.5069177747,-0.08548495173,2024-06-11 14:17:12.065616
5.106128496,0.05406057462,-0.3038577139,-0.06817491353,2024-06-11 14:17:12.106128
5.146577141,-0.5826824903,-1.732068896,0.003195699072,2024-06-11 14:17:12.146577
5.18704485,-3.067338467,-5.604856491,-0.3629781604,2024-06-11 14:17:12.187045
5.227524121,1.183873296,-2.945901871,0.04260931909,2024-06-11 14:17:12.227524
5.268025839,0.949522078,2.434456825,0.2776263654,2024-06-11 14:17:12.268026
5.308536256,-0.2712349594,2.25935936,0.4131772518,2024-06-11 14:17:12.308536
5.348989277,-0.4824174047,-1.470021605,-0.03834838793,2024-06-11 14:17:12.348989
5.389465475,-0.03155753016,-3.904877901,-0.5343475342,2024-06-11 14:17:12.389465
5.429951777,1.42581439,-3.197430134,-0.8432651162,2024-06-11 14:17:12.429952
5.470451412,0.3163742125,1.888391852,-0.2782921195,2024-06-11 14:17:12.470451
5.510955944,0.9641690254,2.72579813,0.1508636326,2024-06-11 14:17:12.510956
5.551413704,1.367492914,0.8793498874,-0.140877068,2024-06-11 14:17:12.551414
5.591812766,0.9391360879,-1.139399886,-0.5692338943,2024-06-11 14:17:12.591813
5.632211829,1.127682328,-0.8741568327,-0.8387378454,2024-06-11 14:17:12.632212
5.672763808,0.5632419586,1.317560077,-0.4628437459,2024-06-11 14:17:12.672764
5.713334069,0.6752246022,0.5659050345,-0.4620448351,2024-06-11 14:17:12.713334
5.753810787,0.95857656,-0.8706948161,-0.9545819163,2024-06-11 14:17:12.753811
5.794274121,0.3091838956,-0.5941337347,-0.6246260405,2024-06-11 14:17:12.794274
5.834758808,-0.6532541513,0.4922707975,-0.2282261699,2024-06-11 14:17:12.834759
5.875237871,-0.7147713304,0.3018604219,-0.3818860352,2024-06-11 14:17:12.875238
5.915753183,-0.548728168,-0.9375382066,-0.5447335243,2024-06-11 14:17:12.915753
5.9562261,-0.4158403277,-0.1288931966,-0.4966649115,2024-06-11 14:17:12.956226
5.996693444,-0.6260907054,1.405974388,0.3045234978,2024-06-11 14:17:12.996693
6.037183912,-1.358038902,2.101704836,0.5596467853,2024-06-11 14:17:13.037184
6.077697871,-1.602776289,1.583868384,0.5649729371,2024-06-11 14:17:13.077698
6.118166725,-0.9336767197,-1.621817231,-0.04181039706,2024-06-11 14:17:13.118167
6.158617454,-0.6071828008,-1.774411917,0.2954690158,2024-06-11 14:17:13.158617
6.199100735,-1.087869167,1.138734102,0.7675004005,2024-06-11 14:17:13.199101
6.239594069,-1.237401366,0.9451280236,0.7086462975,2024-06-11 14:17:13.239594
6.280096308,-0.6399387121,0.2936048508,0.3452686667,2024-06-11 14:17:13.280096
6.320603756,-0.5042546988,-0.3957340717,0.08441971987,2024-06-11 14:17:13.320604
6.361061152,-0.6154384017,0.4432700872,0.1223686412,2024-06-11 14:17:13.361061
6.401491464,-0.1676410437,1.045259953,0.141542837,2024-06-11 14:17:13.401491
6.441920944,-0.02569874749,0.8449960947,0.2470009029,2024-06-11 14:17:13.441921
6.482419746,0.02596505545,1.203313828,0.403323859,2024-06-11 14:17:13.482420
6.522883808,-0.3199693561,0.5442008972,0.3854812086,2024-06-11 14:17:13.522884
6.563450319,-0.5287550688,-0.1800243855,0.2264951766,2024-06-11 14:17:13.563450
6.603879798,-0.2541912198,0.0685743764,0.1290263534,2024-06-11 14:17:13.603880
6.644330735,-0.4991948307,-0.2910749316,-0.07163692266,2024-06-11 14:17:13.644331
6.684760266,-1.114500046,-2.151371241,-0.2750964165,2024-06-11 14:17:13.684760
6.72537386,-0.3785571754,-1.971879482,-0.504121542,2024-06-11 14:17:13.725374
6.765860214,0.354189992,-1.237401366,-0.8206288815,2024-06-11 14:17:13.765860
6.806324173,0.6279548407,-0.0758978501,-0.422098577,2024-06-11 14:17:13.806324
6.84683136,0.5193011165,0.9592423439,0.06764229387,2024-06-11 14:17:13.846831
6.887267454,0.3171731234,-0.476958096,0.03035914153,2024-06-11 14:17:13.887267
6.927764433,0.146735847,-1.749112606,0.2850829959,2024-06-11 14:17:13.927764
6.968276256,0.325695008,-1.708367467,0.04553871229,2024-06-11 14:17:13.968276
7.008762714,0.4186365902,0.4531235099,-0.009320789017,2024-06-11 14:17:14.008763
7.049197975,0.2841508985,1.582270503,0.04766917601,2024-06-11 14:17:14.049198
7.089756933,0.3246297538,0.9256874919,-0.01864157803,2024-06-11 14:17:14.089757
7.130186516,0.3629781604,0.5204994678,-0.08468602598,2024-06-11 14:17:14.130187
7.170728912,0.2974663079,0.1071890742,-0.03888100386,2024-06-11 14:17:14.170729
7.211207298,0.3190372884,-0.3467333615,0.1306242049,2024-06-11 14:17:14.211207
7.251646516,0.1517957002,-0.4676373005,0.2097177505,2024-06-11 14:17:14.251647
7.292085735,-0.378823489,-0.4788222313,0.2707023323,2024-06-11 14:17:14.292086
7.332554381,-0.8809477091,-1.878272176,0.08149032295,2024-06-11 14:17:14.332554
7.373058756,0.7194317579,-1.049387693,-0.5268908739,2024-06-11 14:17:14.373059
7.413543548,-0.1822880059,1.609167695,-0.0,2024-06-11 14:17:14.413544
7.454045735,1.050452948,2.019681931,-0.1059906855,2024-06-11 14:17:14.454046
7.494517871,2.624734163,0.4198349714,-0.2836183012,2024-06-11 14:17:14.494518
7.535019225,3.298360825,0.850055933,-0.4428706169,2024-06-11 14:17:14.535019
7.575476516,1.937525749,0.2616478503,0.5090482235,2024-06-11 14:17:14.575477
7.615960527,0.1962691844,-1.484934807,1.107842326,2024-06-11 14:17:14.615961
7.656409589,-0.2131797522,-1.20943892,1.533003449,2024-06-11 14:17:14.656410
7.696964694,-0.5481955409,-1.21982491,1.051917553,2024-06-11 14:17:14.696965
7.737395266,-0.5314181447,-2.038190126,0.4901403487,2024-06-11 14:17:14.737395
7.777882246,-1.222488046,-3.679980516,0.2789579034,2024-06-11 14:17:14.777882
7.818396412,0.4362129271,-7.086862087,0.1215697154,2024-06-11 14:17:14.818396
7.858829798,0.413044095,-2.726730347,-0.5993267298,2024-06-11 14:17:14.858830
7.89929761,-0.3133116663,1.425947547,0.7219616771,2024-06-11 14:17:14.899298
7.939802506,-0.1346188188,0.8367405534,0.5644403696,2024-06-11 14:17:14.939803
7.980285423,0.6786866188,-0.2410089672,0.5809514523,2024-06-11 14:17:14.980285
8.020782246,0.952185154,-1.333938003,0.3023930192,2024-06-11 14:17:15.020782
8.061320527,-0.02356828004,-1.9827981,-0.2495308369,2024-06-11 14:17:15.061321
8.101717141,-0.209451437,-1.026485205,-0.4575175941,2024-06-11 14:17:15.101717
8.14217636,0.3054555655,-1.120758295,-0.2428731322,2024-06-11 14:17:15.142176
8.182668548,0.8888037801,-3.254420042,-0.771894455,2024-06-11 14:17:15.182669
8.223155423,0.9753540158,1.062303662,-0.952185154,2024-06-11 14:17:15.223155
8.263678339,1.074154377,2.433657885,-0.6456643939,2024-06-11 14:17:15.263678
8.304160319,1.581604719,0.2805557549,-1.021957874,2024-06-11 14:17:15.304160
8.344646048,3.565468073,0.6963961124,-1.348851323,2024-06-11 14:17:15.344646
8.385098287,3.889964581,-1.550712943,-2.027005196,2024-06-11 14:17:15.385098
8.425576256,0.3075860441,1.19905293,-1.164299726,2024-06-11 14:17:15.425576
8.466098912,-0.7374075651,1.20943892,0.3588503897,2024-06-11 14:17:15.466099
8.506601464,-1.176017284,0.9070459008,-0.799590528,2024-06-11 14:17:15.506601
8.547039641,-1.71569097,-1.393324852,-1.226083159,2024-06-11 14:17:15.547040
8.587510787,-1.909430146,-0.9892020226,0.2861482203,2024-06-11 14:17:15.587511
8.627987558,-2.841642141,0.2062557489,1.30783987,2024-06-11 14:17:15.627988
8.668470891,-2.623535872,0.5909380317,0.947524786,2024-06-11 14:17:15.668471
8.708975631,-0.8998556137,-0.5137086511,0.7238258123,2024-06-11 14:17:15.708976
8.749440527,-1.055379629,0.2536586225,0.2691044807,2024-06-11 14:17:15.749441
8.789932246,-1.512764096,2.39104867,-0.2985315621,2024-06-11 14:17:15.789932
8.830447714,-0.5604457259,2.223940134,-0.486012578,2024-06-11 14:17:15.830448
8.870911621,0.3989297748,-0.03635107726,-0.8033188581,2024-06-11 14:17:15.870912
8.911346673,-0.3963998258,1.718886614,-0.08282186836,2024-06-11 14:17:15.911347
8.951834954,-1.071890712,2.453897476,0.1260969639,2024-06-11 14:17:15.951835
8.99233386,-0.5082492828,0.7565817833,-0.08149032295,2024-06-11 14:17:15.992334
9.032867558,-0.05552527308,0.1639127284,-0.2998631001,2024-06-11 14:17:16.032868
9.073311256,-0.7509892583,2.509555817,-0.06471290439,2024-06-11 14:17:16.073311
9.113788756,-0.1924077123,1.192927837,-0.2399437428,2024-06-11 14:17:16.113789
9.154264694,-0.1021292135,0.8404688835,-0.06338136643,2024-06-11 14:17:16.154265
9.194755006,-0.208119899,1.750311017,0.3724320829,2024-06-11 14:17:16.194755
9.235244694,1.122089863,1.681603432,-0.052196417,2024-06-11 14:17:16.235245
9.275716777,1.77760756,-0.9412665367,-1.814491272,2024-06-11 14:17:16.275717
9.316177871,-0.2853493094,0.8974588513,-1.321421623,2024-06-11 14:17:16.316178
9.356698912,-0.8737573624,5.772497654,0.2760285139,2024-06-11 14:17:16.356699
9.397183339,2.040320635,1.81915164,0.347132802,2024-06-11 14:17:16.397183
9.437636621,1.807700396,-1.051518202,-0.08628387749,2024-06-11 14:17:16.437637
9.478111048,0.1470021605,2.487984896,0.4379439354,2024-06-11 14:17:16.478111
9.518621777,0.4260932207,0.7565817833,0.06178351492,2024-06-11 14:17:16.518622
9.559105683,0.4540555775,-1.502511144,-0.2386122048,2024-06-11 14:17:16.559106
9.599579016,-0.01185071748,1.559634328,0.07190322876,2024-06-11 14:17:16.599579
9.640050423,1.156709909,-2.107696772,-0.2372806519,2024-06-11 14:17:16.640050
9.680566777,-0.2336854935,0.3665733039,-0.1659100503,2024-06-11 14:17:16.680567
9.721067714,-0.7848104239,1.866554618,-0.03169068322,2024-06-11 14:17:16.721068
9.761471516,-0.02037258074,0.3521926701,-0.3469996452,2024-06-11 14:17:16.761472
9.801954589,0.2018616647,0.6079817414,0.04234301299,2024-06-11 14:17:16.801955
9.84242761,0.2442046702,0.2704360485,0.3772256374,2024-06-11 14:17:16.842428
9.8828961,-0.02569874749,0.6583139896,-0.02263620123,2024-06-11 14:17:16.882896
9.9234261,-0.2856155932,1.387865424,0.1543256342,2024-06-11 14:17:16.923426
9.963895006,-0.00998655986,1.863358855,-0.08042509109,2024-06-11 14:17:16.963895
10.00439146,0.3326190114,0.7198312283,-1.253246665,2024-06-11 14:17:17.004391
10.04487636,-1.042863131,2.457093239,0.01970681176,2024-06-11 14:17:17.044876
10.08533896,-2.024209023,2.655759096,0.8535179496,2024-06-11 14:17:17.085339
10.12581678,-1.02129221,-1.114100575,0.1556571722,2024-06-11 14:17:17.125817
10.16631881,0.2274272442,-2.087190866,-2.109294653,2024-06-11 14:17:17.166319
10.20681141,0.05885412544,-2.155632257,-1.238067031,2024-06-11 14:17:17.206811
10.24727402,-1.244857907,1.613162279,-1.4993155,2024-06-11 14:17:17.247274
10.28775074,0.5091813803,2.684254169,-1.096790552,2024-06-11 14:17:17.287751
10.32824792,0.6159709692,0.7525871396,-1.195191503,2024-06-11 14:17:17.328248
10.36873136,-0.6673684716,-1.968683839,-1.284404755,2024-06-11 14:17:17.368731
10.40916339,-1.921147704,-4.330039024,-1.016099095,2024-06-11 14:17:17.409163
10.44970032,-3.071066856,-4.317389488,0.4043890834,2024-06-11 14:17:17.449700
10.49017027,-3.865064859,-2.891042471,2.325137377,2024-06-11 14:17:17.490170
10.53070344,-4.042426109,-1.167628527,3.061612844,2024-06-11 14:17:17.530703
10.57116943,-3.992892742,0.5260919333,1.926207662,2024-06-11 14:17:17.571169
10.61158527,2.921135187,-8.857146263,-2.921401501,2024-06-11 14:17:17.611585
10.65205829,1.215031385,-1.706236959,-2.00729847,2024-06-11 14:17:17.652058
10.69253933,0.3946688473,12.34298801,-0.3331516385,2024-06-11 14:17:17.692539
10.73301225,0.2703028917,6.516163349,1.270024061,2024-06-11 14:17:17.733012
10.77353787,-1.292260766,-2.015287638,-0.313444823,2024-06-11 14:17:17.773538
10.81402084,-2.788380623,-2.972799063,-0.2652430236,2024-06-11 14:17:17.814021
10.85451068,-3.730845451,-11.32795429,-0.04447348043,2024-06-11 14:17:17.854511
10.8949473,0.08708280325,-2.051239252,-0.5742937326,2024-06-11 14:17:17.894947
10.93545532,-0.4011933804,5.104197025,0.06444659829,2024-06-11 14:17:17.935455
10.97592376,2.439783096,2.31049037,0.1660431921,2024-06-11 14:17:17.975924
11.0164849,2.641245365,-0.5848129392,0.01038602181,2024-06-11 14:17:18.016485
11.05689063,3.078922987,-0.4894745648,-0.2340849638,2024-06-11 14:17:18.056891
11.09743334,3.334578753,-0.4212996662,-0.5311518312,2024-06-11 14:17:18.097433
11.13786672,2.878792286,0.1447385401,-0.2833519876,2024-06-11 14:17:18.137867
11.17834074,2.103968382,1.017297506,-0.05725627393,2024-06-11 14:17:18.178341
11.21880579,1.399449944,0.04833494872,0.235283345,2024-06-11 14:17:18.218806
11.25929146,1.054447532,-1.752840996,0.5993267298,2024-06-11 14:17:18.259291
11.29982146,0.9441959262,-1.32408464,0.8133054376,2024-06-11 14:17:18.299821
11.34027688,-0.3127790391,-1.450847387,0.5386084318,2024-06-11 14:17:18.340277
11.38079928,-0.3508611321,-1.333139181,0.03515268862,2024-06-11 14:17:18.380799
11.42127584,2.87160182,-2.113022804,-0.5998593569,2024-06-11 14:17:18.421276
11.46166667,-0.1774944514,-1.58240366,0.3266270757,2024-06-11 14:17:18.461667
11.50214318,-1.485600591,2.234592676,1.173087835,2024-06-11 14:17:18.502143
11.54262891,-0.8678985834,3.98383832,-1.15790832,2024-06-11 14:17:18.542629
11.58312011,-1.835662842,-0.8621729612,0.3636439145,2024-06-11 14:17:18.583120
11.62362615,-2.238587141,-0.3251623809,0.1426080763,2024-06-11 14:17:18.623626
11.66411141,-2.014355659,0.7184996605,-0.1217028722,2024-06-11 14:17:18.664111
11.70460376,-3.107018471,-0.4942681193,0.1995980442,2024-06-11 14:17:18.704604
11.74508501,-2.327267885,-0.2410089672,0.9544488192,2024-06-11 14:17:18.745085
11.78556751,-1.681869745,0.9488562942,1.206642747,2024-06-11 14:17:18.785568
11.82603391,-2.257228851,2.198108435,0.5082492828,2024-06-11 14:17:18.826034
11.86651355,-1.190797329,2.13978672,-0.01225017942,2024-06-11 14:17:18.866514
11.90698292,-0.6492595077,1.57534647,-0.2058562785,2024-06-11 14:17:18.906983
11.94748391,0.1105179265,0.3940030634,0.06764229387,2024-06-11 14:17:18.947484
11.98797725,2.014755011,-0.2591179311,-0.05352795869,2024-06-11 14:17:18.987977
12.02847521,4.251345158,-0.03768261895,0.2057231218,2024-06-11 14:17:19.028475
12.0689835,4.055608273,0.09254211932,0.9403344393,2024-06-11 14:17:19.068983
12.10945407,2.531260014,1.563362598,0.2627131045,2024-06-11 14:17:19.109454
12.1498912,3.40275383,-3.815398455,-0.6888062954,2024-06-11 14:17:19.149891
12.19040063,3.517266273,-1.209971547,-0.7545844316,2024-06-11 14:17:19.190401
12.23091792,1.609300733,0.1753639877,-0.2503297627,2024-06-11 14:17:19.230918
12.27135308,0.278025806,-0.0243672058,0.5330159664,2024-06-11 14:17:19.271353
12.31177501,-0.4363460839,-0.8528521657,0.9206276536,2024-06-11 14:17:19.311775
12.35227173,-2.233793736,-4.438160419,1.11183691,2024-06-11 14:17:19.352272
12.39278933,1.204645395,-8.51613903,-0.2825530469,2024-06-11 14:17:19.392789
12.43326074,1.826341987,-1.813026547,-1.126217604,2024-06-11 14:17:19.433261
12.4737349,-1.139533043,4.648943424,0.9669652581,2024-06-11 14:17:19.473735
12.51421381,-1.042330503,1.717022538,0.3274259865,2024-06-11 14:17:19.514214
12.55471907,0.5347470045,2.832854033,0.9014534354,2024-06-11 14:17:19.554719
12.59520131,-0.9376713634,-1.606371403,0.3434045017,2024-06-11 14:17:19.595201
12.63567459,-0.9216928482,-1.966020703,-0.02183727734,2024-06-11 14:17:19.635675
12.67619574,-0.7770875096,0.2621804774,0.5985277891,2024-06-11 14:17:19.676196
12.71667803,-0.8705616593,0.4725640118,0.5596467853,2024-06-11 14:17:19.716678
12.7571336,-0.1705704331,-1.528076768,0.037815772,2024-06-11 14:17:19.757134
12.79761006,-0.02649767138,-1.004115224,-0.02956021577,2024-06-11 14:17:19.797610
12.83807501,0.2138455361,-0.2804225981,-0.2114487588,2024-06-11 14:17:19.838075
12.87853423,0.2601831555,-0.8861407042,-0.225563094,2024-06-11 14:17:19.878534
12.91902844,0.2258294076,-0.7806826234,-0.03888100386,2024-06-11 14:17:19.919028
12.95953329,0.2910749316,-0.7292851806,0.02849498391,2024-06-11 14:17:19.959533
13.0000237,0.2671071887,-0.3930709958,-0.2977326214,2024-06-11 14:17:20.000024
13.04051646,0.3627118468,-0.5081161261,-0.8408682942,2024-06-11 14:17:20.040516
13.0810361,-0.04993279651,0.05392742157,-0.8507217169,2024-06-11 14:17:20.081036
13.12146542,-0.1745650619,1.166030645,-0.9987891316,2024-06-11 14:17:20.121465
13.16191922,0.05432688445,0.9698946476,-1.156843066,2024-06-11 14:17:20.161919
13.20239256,-0.1274285018,-0.06444659829,-0.8722926974,2024-06-11 14:17:20.202393
13.24291037,-0.204924196,-1.172422051,-0.5051867366,2024-06-11 14:17:20.242910
13.28338745,0.4849473238,0.776288569,0.09733566642,2024-06-11 14:17:20.283387
13.32389068,0.1944050342,3.881043434,0.230756104,2024-06-11 14:17:20.323891
13.36437725,-0.7981258631,4.371449947,0.4089163244,2024-06-11 14:17:20.364377
13.4048573,-1.32448411,4.371982574,0.5330159664,2024-06-11 14:17:20.404857
13.44532824,-1.331408143,3.778514624,0.4171718955,2024-06-11 14:17:20.445328
13.48577448,-1.698114634,1.814624429,-0.1022623703,2024-06-11 14:17:20.485774
13.52628428,-1.953371048,0.7786853313,-0.1645784974,2024-06-11 14:17:20.526284
13.56673975,-2.110226631,0.2744306624,0.2235657871,2024-06-11 14:17:20.566740
13.60723641,-2.506892681,-0.3430050313,0.2033263594,2024-06-11 14:17:20.607236
13.64771594,-2.110759258,-0.02809552103,0.07536523789,2024-06-11 14:17:20.647716
13.68818589,-1.534335017,0.6548519731,0.1761629134,2024-06-11 14:17:20.688186
13.72866933,-2.265750647,-0.9620385766,0.1806901544,2024-06-11 14:17:20.728669
13.76917959,-0.03315537795,-1.798113346,-0.2846835256,2024-06-11 14:17:20.769180
13.80963495,0.490539819,1.280809522,-0.6395393014,2024-06-11 14:17:20.809635
13.85011964,0.8600425124,-0.2343512625,-0.6733604074,2024-06-11 14:17:20.850120
13.89058287,1.030213475,-0.701322794,-0.3707011044,2024-06-11 14:17:20.890583
13.93111839,0.5866770744,-1.009974003,0.01118494663,2024-06-11 14:17:20.931118
13.97155334,0.970826745,-0.7455299497,-0.1483336985,2024-06-11 14:17:20.971553
14.01206042,0.4146419466,-0.3083849549,-0.2412752807,2024-06-11 14:17:21.012060
14.05251287,0.5057193637,-0.5121107697,-0.4412727654,2024-06-11 14:17:21.052513
14.09299214,0.6930672526,-0.5941337347,-0.4833494723,2024-06-11 14:17:21.092992
14.13350646,0.321167767,-0.7678998709,-0.3374125659,2024-06-11 14:17:21.133506
14.17398584,0.2742975056,-0.2868140042,-0.2748301327,2024-06-11 14:17:21.173986
14.21446995,0.5773562789,-0.7990579009,-0.4857462645,2024-06-11 14:17:21.214470
14.2549411,0.3627118468,-0.5368774533,-0.5412715077,2024-06-11 14:17:21.254941
14.29541271,0.8171668649,-0.7979927063,-0.4141093493,2024-06-11 14:17:21.295413
14.3359162,0.781481564,-0.7862751484,-0.5426030755,2024-06-11 14:17:21.335916
14.3764123,0.9180977345,0.4555202723,-0.4332835376,2024-06-11 14:17:21.376412
14.41689167,1.541924834,0.3117138147,-0.4822842479,2024-06-11 14:17:21.416892
14.45736553,1.430075288,-0.5824161768,-0.3869459033,2024-06-11 14:17:21.457366
14.49781339,1.475347757,0.0171768833,-0.01517957076,2024-06-11 14:17:21.497813
14.53831589,1.813825488,-0.4087831676,-0.3991960883,2024-06-11 14:17:21.538316
14.57879714,1.516092896,-2.064554691,-0.5492607951,2024-06-11 14:17:21.578797
14.61928886,1.532337666,-1.353911161,0.0146469539,2024-06-11 14:17:21.619289
14.6597687,-0.03608476743,-0.1414096802,0.7430000305,2024-06-11 14:17:21.659769
14.70030162,-0.2653761804,-0.7101109624,0.3889431953,2024-06-11 14:17:21.700302
14.74075021,0.2181064636,-1.991320014,-0.04154408723,2024-06-11 14:17:21.740750
14.78123766,-0.5909380317,-1.952438951,0.5921363831,2024-06-11 14:17:21.781238
14.82171798,-0.8481917977,-1.622349858,1.156843066,2024-06-11 14:17:21.821718
14.86212964,0.6565830112,-2.367080927,0.7416685224,2024-06-11 14:17:21.862130
14.902631,0.8374063373,-2.104501009,0.2914743721,2024-06-11 14:17:21.902631
14.94311553,0.8443303108,-0.4463326335,-0.133154124,2024-06-11 14:17:21.943116
14.98360589,0.01451379992,-0.7545844316,0.7912018299,2024-06-11 14:17:21.983606
15.02409084,-0.8191642165,-1.936726809,1.122755647,2024-06-11 14:17:22.024091
15.06457865,0.4820179343,-0.05659050494,1.400648236,2024-06-11 14:17:22.064579
15.10505245,0.03515268862,-0.2881455421,1.121424079,2024-06-11 14:17:22.105052
15.14551641,-0.2853493094,-1.496119738,0.3612471521,2024-06-11 14:17:22.145516
15.18602574,0.02543243766,-3.07719183,-0.1869483888,2024-06-11 14:17:22.186026
15.22654089,0.04021254554,-1.504109025,0.06551183015,2024-06-11 14:17:22.226541
15.26698344,0.07616416365,0.363910228,0.03888100386,2024-06-11 14:17:22.266983
15.30744995,0.1960028708,0.6199656129,0.2137123793,2024-06-11 14:17:22.307450
15.34794068,0.2897433937,-0.5906717181,0.01065232977,2024-06-11 14:17:22.347941
15.38843324,0.343803972,-0.3954677582,-0.1201050207,2024-06-11 14:17:22.388433
15.42890266,0.513176024,0.2858819067,-0.2998631001,2024-06-11 14:17:22.428903
15.46936355,0.3746957183,0.638607204,-0.3717663288,2024-06-11 14:17:22.469364
15.50985662,0.7271546721,0.5864107609,-0.5359453559,2024-06-11 14:17:22.509857
15.55036115,0.7897371054,0.0621829778,-0.8411346078,2024-06-11 14:17:22.550361
15.59086469,0.4159734845,1.302646875,-0.7415353656,2024-06-11 14:17:22.590865
15.63135751,0.5280892849,0.7752233148,-0.8797492981,2024-06-11 14:17:22.631358
15.67183818,0.4300878346,0.4864120185,-0.722627461,2024-06-11 14:17:22.671838
15.71231886,0.3914731443,0.7003906965,-0.6512568593,2024-06-11 14:17:22.712319
15.75279959,0.5922695398,0.3236976862,-0.9428643584,2024-06-11 14:17:22.752800
15.79325704,0.2684387267,0.5165048838,-0.646463275,2024-06-11 14:17:22.793257
15.83372922,-0.3159747422,0.9613727927,-0.2580527067,2024-06-11 14:17:22.833729
15.87418162,-0.4363460839,0.2419410497,-0.02769605815,2024-06-11 14:17:22.874182
15.91467516,-0.6963961124,-0.9449948668,-0.006657706574,2024-06-11 14:17:22.914675
15.95515902,-0.709178865,-0.9231575727,0.3154421151,2024-06-11 14:17:22.955159
15.9956387,-0.5591141582,-0.3608476818,0.9592423439,2024-06-11 14:17:22.995639
16.03612631,0.8680317402,-0.3597824574,-0.2961347699,2024-06-11 14:17:23.036126
16.07664438,0.9551145434,0.6426018476,-0.4263595045,2024-06-11 14:17:23.076644
16.11711443,-0.2989310026,-0.4444684684,0.1945381761,2024-06-11 14:17:23.117114
16.15757933,-0.5290213227,1.496252894,0.4147751033,2024-06-11 14:17:23.157579
16.19805454,-0.7624405622,2.066285849,0.7645710111,2024-06-11 14:17:23.198055
16.23851714,-1.633135438,1.183340788,0.8838770986,2024-06-11 14:17:23.238517
16.27904678,-1.266162634,-1.14712286,0.5473966002,2024-06-11 14:17:23.279047
16.31951756,0.1073222235,-4.388893127,-0.1973344237,2024-06-11 14:17:23.319518
16.35999902,0.5440677404,-1.371221185,-1.073888063,2024-06-11 14:17:23.359999
16.40048975,-0.2374138087,2.81927228,-0.4742949903,2024-06-11 14:17:23.400490
16.44097568,-1.257374406,3.186111927,-0.1270290315,2024-06-11 14:17:23.440976
16.4814198,0.7069152594,0.9885362387,0.02476666868,2024-06-11 14:17:23.481420
16.52186459,2.450169086,-2.521939278,-0.8810808659,2024-06-11 14:17:23.521865
16.56233475,2.081065893,-1.900242567,-1.88559556,2024-06-11 14:17:23.562335
16.60281391,1.950042248,-1.703840256,-0.5585815907,2024-06-11 14:17:23.602814
16.64329402,0.007589785382,-0.9223586321,-0.05326165259,2024-06-11 14:17:23.643294
16.68380626,-0.8242240548,0.9246222377,0.129292652,2024-06-11 14:17:23.683806
16.72432214,-1.419822454,1.459768653,0.6491263509,2024-06-11 14:17:23.724322
16.76478594,-1.015699744,-0.9636363983,0.9003882408,2024-06-11 14:17:23.764786
16.80528141,-0.2595174015,-3.802349329,0.855914712,2024-06-11 14:17:23.805281
16.84576615,0.701322794,-1.168161154,-0.02716344222,2024-06-11 14:17:23.845766
16.88620615,-0.3122464418,1.038602233,-0.4023917615,2024-06-11 14:17:23.886206
16.92670553,-0.7227606177,1.921680331,0.9232907295,2024-06-11 14:17:23.926706
16.96719074,-0.9930635095,-0.1275616586,1.545253634,2024-06-11 14:17:23.967191
17.0076461,-0.1601844132,0.8540505767,0.843398273,2024-06-11 14:17:24.007646
17.04812985,-0.1482005417,-2.279199123,0.9256874919,2024-06-11 14:17:24.048130
17.08868131,0.4181039631,-1.67374742,0.7169018388,2024-06-11 14:17:24.088681
17.12913933,1.041132092,-1.235004544,-0.1675078869,2024-06-11 14:17:24.129139
17.16959745,-0.05073172227,-2.10157156,0.6698983908,2024-06-11 14:17:24.169597
17.21008548,-0.5479292274,1.012237668,0.2379464209,2024-06-11 14:17:24.210085
17.25053537,-0.1532603949,2.542577982,0.3010614812,2024-06-11 14:17:24.250535
17.29107021,-0.0621829778,2.171211243,0.3165073693,2024-06-11 14:17:24.291070
17.33148094,-0.570032835,0.6796186566,0.3189041317,2024-06-11 14:17:24.331481
17.37196266,-0.8545832038,-3.046033859,-0.02343512699,2024-06-11 14:17:24.371963
17.41244443,0.4777570069,-0.475093931,-0.1145125479,2024-06-11 14:17:24.412444
17.4529262,-0.6207645535,1.067896128,0.2717675865,2024-06-11 14:17:24.452926
17.49345667,-0.2675066292,0.2941374779,0.2608489394,2024-06-11 14:17:24.493457
17.53394209,-0.2616478503,-1.093062282,0.21264714,2024-06-11 14:17:24.533942
17.57442308,-0.2240983993,-1.176416755,-0.01917419396,2024-06-11 14:17:24.574423
17.6149048,-0.3258281648,0.2842840552,-0.01278279629,2024-06-11 14:17:24.614905
17.65532058,-0.2323539555,1.181476593,0.1189066395,2024-06-11 14:17:24.655321
17.69587678,-0.0949388966,0.6591129303,-0.02663082629,2024-06-11 14:17:24.695877
17.73632943,-0.1034607589,0.4699009061,-0.04234301299,2024-06-11 14:17:24.736329
17.77687016,-0.3367467821,0.9315462708,-0.08788172156,2024-06-11 14:17:24.776870
17.8173535,-0.4107804894,1.130212188,-0.3477985859,2024-06-11 14:17:24.817353
17.85778329,-0.4366123974,2.315816641,-0.2103835195,2024-06-11 14:17:24.857783
17.89823751,-0.4794880152,1.409702778,-0.3667064607,2024-06-11 14:17:24.898238
17.93875245,-0.339409858,1.20198226,-0.4990616739,2024-06-11 14:17:24.938752
17.97927579,-0.4438027143,2.407559872,-0.6469959021,2024-06-11 14:17:24.979276
18.01974933,-0.2600499988,3.368000507,-0.4657731354,2024-06-11 14:17:25.019749
18.06016386,-0.02916075476,2.69464016,-0.08122401685,2024-06-11 14:17:25.060164
18.10070256,0.02889444493,1.651244283,-0.01544587873,2024-06-11 14:17:25.100703
18.14120271,-0.02809552103,-1.722481847,-0.597995162,2024-06-11 14:17:25.141203
18.18160048,1.002783775,-3.528983831,-1.174685717,2024-06-11 14:17:25.181600
18.22208225,0.7204970121,0.8953283429,-0.6262238622,2024-06-11 14:17:25.222082
18.26256407,-0.8050498366,5.046142101,0.07163692266,2024-06-11 14:17:25.262564
18.30305407,-1.272021413,3.824053288,0.5066514611,2024-06-11 14:17:25.303054
18.34354412,-0.7211627364,1.3556422,0.4334166944,2024-06-11 14:17:25.343544
18.38400964,0.304390341,-0.6434007287,0.1183740199,2024-06-11 14:17:25.384010
18.4245061,0.5222305059,-2.323406458,0.03994623944,2024-06-11 14:17:25.424506
18.46501162,-0.1713693589,-0.3573856652,0.02130465955,2024-06-11 14:17:25.465012
18.50548657,-0.5663045049,2.217282534,-0.06551183015,2024-06-11 14:17:25.505487
18.54598704,-0.8457950354,2.399037838,-0.04766917601,2024-06-11 14:17:25.545987
18.58647021,-0.3095833361,0.718765974,-0.08734910935,2024-06-11 14:17:25.586470
18.62691558,-0.04567186534,-0.1547250897,-0.04047885537,2024-06-11 14:17:25.626916
18.66741641,-0.492537111,-0.7649704814,0.5436683297,2024-06-11 14:17:25.667416
18.70792761,-0.2994636297,-5.1458745,0.4227643609,2024-06-11 14:17:25.707928
18.74837876,-0.1998643428,-0.1677742004,0.4659062922,2024-06-11 14:17:25.748379
18.78885032,-0.7280867696,2.899963856,0.3953346014,2024-06-11 14:17:25.788850
18.82933907,-0.2174406946,1.097456336,-0.05432688445,2024-06-11 14:17:25.829339
18.86979568,-0.1135804728,-1.781868577,0.003462007269,2024-06-11 14:17:25.869796
18.91027287,-0.3870790601,-1.899177313,0.2869471312,2024-06-11 14:17:25.910273
18.95079063,-0.2829525173,-0.225563094,0.2914743721,2024-06-11 14:17:25.950791
18.99127417,-0.3279586136,0.9070459008,0.4296883643,2024-06-11 14:17:25.991274
19.03171245,-0.3724320829,0.5627093315,0.352991581,2024-06-11 14:17:26.031712
19.07218756,-0.114113085,0.4150414169,0.2408758104,2024-06-11 14:17:26.072188
19.11265693,-0.05019910634,-0.2553896308,0.1660431921,2024-06-11 14:17:26.112657
19.15316235,0.01371487509,-0.666303277,0.0596530512,2024-06-11 14:17:26.153162
19.19365006,0.1366161406,-0.3730978668,0.04527240247,2024-06-11 14:17:26.193650
19.23413673,0.1177082509,0.121836029,0.06524552405,2024-06-11 14:17:26.234137
19.2746174,0.1717688292,0.733679235,0.1282274276,2024-06-11 14:17:26.274617
19.31511214,0.03382114694,0.9129046798,0.1455374658,2024-06-11 14:17:26.315112
19.35559313,-0.0904116556,1.196922421,0.09320788831,2024-06-11 14:17:26.355593
19.39607016,-0.2446041405,0.9161003828,-0.002929390874,2024-06-11 14:17:26.396070
19.43655511,-0.233951807,0.590139091,-0.1339530498,2024-06-11 14:17:26.436555
19.47705787,-0.3247629106,0.04247616604,-0.1651111245,2024-06-11 14:17:26.477058
19.51751448,-0.3801550269,-0.2695039511,-0.1379476786,2024-06-11 14:17:26.517514
19.55798667,-0.2264951766,-0.02782921307,-0.003462007269,2024-06-11 14:17:26.557987
19.59849693,0.03382114694,0.6279548407,0.0954715088,2024-06-11 14:17:26.598497
19.63899084,0.06204982474,0.7041190267,0.1580539495,2024-06-11 14:17:26.638991
19.67948662,0.07030537724,0.4768249393,0.1271621883,2024-06-11 14:17:26.679487
19.71993141,-0.03395430371,-0.004926702939,0.0868164897,2024-06-11 14:17:26.719931
19.7604323,-0.3844159544,-0.6529878378,0.03462007269,2024-06-11 14:17:26.760432
19.80092152,-0.6319494843,-1.327014089,0.0260982085,2024-06-11 14:17:26.800922
19.84136214,-0.1820216924,-1.234471917,0.1306242049,2024-06-11 14:17:26.841362
19.88183938,0.06018566713,0.4129109383,0.1655105799,2024-06-11 14:17:26.881839
19.92232094,-0.1607170254,0.9645684958,0.1029281393,2024-06-11 14:17:26.922321
19.96280261,0.02729659714,0.7805495262,-0.1227681041,2024-06-11 14:17:26.962803
20.00329771,-0.1351514459,0.02117150649,-0.2244978547,2024-06-11 14:17:27.003298
20.04376131,-0.3455349505,-0.3107817471,-0.1608501822,2024-06-11 14:17:27.043761
20.08424292,-0.4541887343,-0.2716344297,-0.1440727711,2024-06-11 14:17:27.084243
20.12472766,-0.3175725937,-0.08441971987,-0.1406107545,2024-06-11 14:17:27.124728
20.1652086,-0.24753353,0.2512618303,-0.09640359133,2024-06-11 14:17:27.165209
20.20571454,-0.2968005538,0.360714525,0.0599193573,2024-06-11 14:17:27.205715
20.2461586,-0.1569887102,0.3319532275,0.2821536064,2024-06-11 14:17:27.246159
20.28672407,0.1520620137,0.6527215242,0.4837489426,2024-06-11 14:17:27.286724
20.32712042,0.3605813682,1.158840418,0.4049217105,2024-06-11 14:17:27.327120
20.36765511,0.2468677461,1.0591079,0.2296908647,2024-06-11 14:17:27.367655
20.40813605,0.2010627389,-0.6981270909,-0.263112545,2024-06-11 14:17:27.408136
20.44858636,1.426613331,-1.635398984,-0.7939980626,2024-06-11 14:17:27.448586
20.48913298,2.242448568,0.418769747,-0.9188966155,2024-06-11 14:17:27.489133
20.52957266,2.125006676,1.562829971,-0.7191654444,2024-06-11 14:17:27.529573
20.5700362,1.806102633,1.380408883,-0.600391984,2024-06-11 14:17:27.570036
20.61050094,1.228613138,1.323951483,-0.4822842479,2024-06-11 14:17:27.610501
20.65100126,0.577888906,-0.1416759938,-0.1288931966,2024-06-11 14:17:27.651001
20.69142881,0.1187734827,-0.01637795754,0.3181052208,2024-06-11 14:17:27.691429
20.73191006,-0.7011896372,0.9440627694,0.674159348,2024-06-11 14:17:27.731910
20.77239131,-1.198253989,-0.2167749256,0.7589785457,2024-06-11 14:17:27.772391
20.81289495,-0.2773600519,-1.388264894,-0.08761541545,2024-06-11 14:17:27.812895
20.85340376,-0.4683030546,-2.838313341,-0.5982614756,2024-06-11 14:17:27.853404
20.89392417,-0.9323452115,-1.452711582,-0.6395393014,2024-06-11 14:17:27.893924
20.93438074,-1.348718166,1.933664203,-0.07030537724,2024-06-11 14:17:27.934381
20.97483839,-1.007710457,1.318092704,-0.01011971384,2024-06-11 14:17:27.974838
21.01533527,-0.7342118621,0.9866721034,0.1740324497,2024-06-11 14:17:28.015335
21.05579813,-0.5986609459,0.2829525173,0.3492632806,2024-06-11 14:17:28.055798
21.09627365,-0.7086462975,-2.369211435,0.4880098701,2024-06-11 14:17:28.096274
21.13677516,-0.367105931,-0.2833519876,0.4864120185,2024-06-11 14:17:28.136775
21.1772623,-0.256588012,1.927006483,0.2246310115,2024-06-11 14:17:28.177262
21.2177137,-0.4062532485,1.369223952,0.08628387749,2024-06-11 14:17:28.217714
21.25822214,-0.2227668613,0.2065220475,-0.1533935517,2024-06-11 14:17:28.258222
21.29874917,-0.1404775977,-0.3182383776,-0.3251623809,2024-06-11 14:17:28.298749
21.33918193,-0.2201037705,-0.4777570069,-0.1914756298,2024-06-11 14:17:28.339182
21.37969235,-0.0731016174,0.09067796171,0.09161003679,2024-06-11 14:17:28.379692
21.4201737,0.004926702939,0.5340812206,0.1753639877,2024-06-11 14:17:28.420174
21.46062902,-0.1359503716,0.527423501,0.164179042,2024-06-11 14:17:28.460629
21.50115678,-0.1924077123,0.1439396143,0.06497921795,2024-06-11 14:17:28.501157
21.54158943,-0.06431344151,0.09387365729,-0.0487344116,2024-06-11 14:17:28.541589
21.58207079,-0.1098521575,-0.05392742157,0.02130465955,2024-06-11 14:17:28.582071
21.62255214,-0.07603100687,0.2866808474,0.07749570161,2024-06-11 14:17:28.622552
21.66304011,-0.0954715088,0.0845528692,0.02902759984,2024-06-11 14:17:28.663040
21.70352928,-0.04940018058,0.001997311832,-0.01384802908,2024-06-11 14:17:28.703529
21.74399183,-0.01904104091,0.2022611201,0.0114512546,2024-06-11 14:17:28.743992
21.78446324,-0.009453942999,0.2179733068,0.02689713426,2024-06-11 14:17:28.784463
21.82495928,0.006258244161,0.08188978583,0.02876129188,2024-06-11 14:17:28.824959
21.865421,0.02143781446,0.1359503716,-0.008255556226,2024-06-11 14:17:28.865421
21.90588198,0.08468602598,0.1466026902,-0.03089175746,2024-06-11 14:17:28.905882
21.94638219,0.02383458801,0.2017285079,0.01624480449,2024-06-11 14:17:28.946382
21.98689027,0.03169068322,0.1290263534,0.008521864191,2024-06-11 14:17:28.986890
22.0273687,0.03062544949,0.04860125855,-0.02103835158,2024-06-11 14:17:29.027369
22.0678486,-0.05499265343,-0.04620448127,0.0007989247679,2024-06-11 14:17:29.067849
22.10836501,-0.03315537795,-0.1893451661,-0.01065232977,2024-06-11 14:17:29.108365
22.14882751,-0.05099803209,-0.1017297506,0.02503297664,2024-06-11 14:17:29.148828
22.18931928,-0.03315537795,0.02916075476,0.01731003635,2024-06-11 14:17:29.189319
22.22975527,0.02463351376,0.07203638554,-0.01704372838,2024-06-11 14:17:29.229755
22.27025688,0.05086487532,0.2483324558,-0.03009283356,2024-06-11 14:17:29.270257
22.31077933,-0.002263620263,0.2699034214,-0.03648423031,2024-06-11 14:17:29.310779
22.35124126,-0.001731003635,0.1402112991,-0.06098458916,2024-06-11 14:17:29.351241
22.39168818,-0.05845466256,-0.02303566411,-0.05432688445,2024-06-11 14:17:29.391688
22.43215318,-0.08055824786,-0.03102491237,-0.03382114694,2024-06-11 14:17:29.432153
22.47260225,-0.04274247587,-0.03102491237,-0.04260931909,2024-06-11 14:17:29.472602
22.51312756,-0.00998655986,0.09893351793,-0.0074566314,2024-06-11 14:17:29.513128
22.55362068,-0.04567186534,0.1316894293,0.03275591508,2024-06-11 14:17:29.553621
22.59410969,-0.02995967865,-0.1035939083,-0.01704372838,2024-06-11 14:17:29.594110
22.63459719,-0.02010627277,-0.2388785034,-0.01411433797,2024-06-11 14:17:29.634597
22.675066,-0.02276935615,-0.1728340536,0.009853405878,2024-06-11 14:17:29.675066
22.71553428,0.09347419441,-0.1430075318,-0.03941362351,2024-06-11 14:17:29.715534
22.75602074,0.08921326697,0.05685681105,-0.0229025092,2024-06-11 14:17:29.756021
22.79653287,0.06125089899,-0.03209014609,-0.02956021577,2024-06-11 14:17:29.796533
22.83699298,0.07509893179,-0.1731003672,-0.03222329915,2024-06-11 14:17:29.836993
22.87743115,0.05885412544,-0.1579207927,-0.005059856921,2024-06-11 14:17:29.877431
22.91794943,0.09693620354,-0.172567755,-0.0114512546,2024-06-11 14:17:29.917949
22.95843792,0.1155777797,-0.267639786,-0.03435376659,2024-06-11 14:17:29.958438
22.9989312,0.1715025157,-0.3645760119,-0.05485950038,2024-06-11 14:17:29.998931
23.03940631,0.2229000032,-0.4399412274,-0.01597849466,2024-06-11 14:17:30.039406
23.0798762,0.2825530469,-0.3512606025,-0.0298265256,2024-06-11 14:17:30.079876
23.12036469,0.409848392,-0.4854799509,-0.08575125784,2024-06-11 14:17:30.120365
23.16086183,0.5214315653,-0.5416709781,-0.137681365,2024-06-11 14:17:30.160862
23.20131949,0.7545844316,-0.6258243918,-0.2031932026,2024-06-11 14:17:30.201319
23.24176917,1.057376981,-0.5099803209,-0.2141118348,2024-06-11 14:17:30.241769
23.28224152,1.566425204,-0.7655031085,-0.3214340508,2024-06-11 14:17:30.282242
23.32272219,1.929003835,-0.9247553945,-0.4101147056,2024-06-11 14:17:30.322722
23.36326975,1.91675365,-0.5659050345,-0.6166367531,2024-06-11 14:17:30.363270
23.40375037,1.552843451,0.2054568231,-0.6235607862,2024-06-11 14:17:30.403750
23.44421594,0.9050486088,0.497064352,-0.2977326214,2024-06-11 14:17:30.444216
23.48468037,0.2242315561,0.1154446304,0.09107742459,2024-06-11 14:17:30.484680
23.52517027,0.03169068322,-0.3999949992,0.5724295974,2024-06-11 14:17:30.525170
23.56566704,-0.06378082931,-0.496398598,0.8423330188,2024-06-11 14:17:30.565667
23.60611558,-0.3026593328,-0.9125052094,1.005846262,2024-06-11 14:17:30.606116
23.64659626,-0.4581833482,-1.110105991,0.9627043605,2024-06-11 14:17:30.646596
23.68708141,-0.7384728193,-0.9106410742,0.9541825056,2024-06-11 14:17:30.687081
23.72756891,-1.072689652,-0.7391385436,0.7896040082,2024-06-11 14:17:30.727569
23.76807693,-0.993329823,0.203592658,0.5109124184,2024-06-11 14:17:30.768077
23.80851001,-1.361500978,1.373218536,0.1047922969,2024-06-11 14:17:30.808510
23.84902402,-1.585199952,0.1468690038,-0.4255605936,2024-06-11 14:17:30.849024
23.88949485,-1.011438727,-0.2069215178,-0.3334179223,2024-06-11 14:17:30.889495
23.92996011,-0.2113156021,-0.6744256616,0.3481980562,2024-06-11 14:17:30.929960
23.97046183,0.1003982127,0.07256899774,0.4829500318,2024-06-11 14:17:30.970462
24.0109923,0.02197043039,0.9584434032,-0.1403444558,2024-06-11 14:17:31.010992
24.0514185,-0.1287600398,0.9091764092,-0.07856093347,2024-06-11 14:17:31.051419
24.09190021,-0.176429227,0.2059894353,-0.08708280325,2024-06-11 14:17:31.091900
24.13238193,0.1094526947,-0.8528521657,-0.1078548431,2024-06-11 14:17:31.132382
24.17286365,0.2998631001,-1.062969446,-0.2375469655,2024-06-11 14:17:31.172864
24.21337386,-0.2073209733,-1.193460464,-0.4628437459,2024-06-11 14:17:31.213374
24.25384162,0.112115778,-1.545919418,0.0599193573,2024-06-11 14:17:31.253842
24.29433084,0.6584471464,0.7533860803,0.1244991124,2024-06-11 14:17:31.294331
24.33481803,0.07882724702,0.06484606117,0.1508636326,2024-06-11 14:17:31.334818
24.37525308,0.4503272474,-0.8139711618,-0.06924014539,2024-06-11 14:17:31.375253
24.41573464,0.2511286736,-0.4734960794,-0.09187635034,2024-06-11 14:17:31.415735
24.45623209,-0.07150376588,-0.6591129303,-0.0117175635,2024-06-11 14:17:31.456232
24.49674193,0.2703028917,-0.4886756539,-0.1366161406,2024-06-11 14:17:31.496742
24.53721553,0.4276910722,-0.1360835135,-0.2463351339,2024-06-11 14:17:31.537216
24.57770626,0.4244953692,-0.3765598834,-0.3310211599,2024-06-11 14:17:31.577706
24.61816839,0.4018591642,-0.46018067,-0.3046566546,2024-06-11 14:17:31.618168
24.65864995,0.2535254657,-0.5006595254,-0.214644447,2024-06-11 14:17:31.658650
24.69914485,0.4151745737,-0.2039921284,-0.1470021605,2024-06-11 14:17:31.699145
24.73960303,0.6218297482,0.151928857,-0.1304910481,2024-06-11 14:17:31.739603
24.78007433,0.8528521657,0.0731016174,-0.03035914153,2024-06-11 14:17:31.780074
24.82061662,1.504109025,-0.6375419497,-0.2838846147,2024-06-11 14:17:31.820617
24.86111792,2.324471712,-1.663893938,-1.016365409,2024-06-11 14:17:31.861118
24.90152287,1.677209377,-0.8424661756,-0.8648360372,2024-06-11 14:17:31.901523
24.94198475,0.3446028829,1.716223598,0.002130466048,2024-06-11 14:17:31.941985
24.98246662,-0.2770937383,0.6095796227,0.4504604042,2024-06-11 14:17:31.982467
25.02295058,-0.2347507328,-3.031653166,-0.3818860352,2024-06-11 14:17:32.022951
25.06345266,0.1392792165,-3.572125673,-0.07509893179,2024-06-11 14:17:32.063453
25.1039611,-1.254178762,-1.2235533,0.8971925378,2024-06-11 14:17:32.103961
25.14443136,-1.162169218,-0.235949114,0.7075810432,2024-06-11 14:17:32.144431
25.18490313,-0.3780245781,0.3386109471,0.3356815577,2024-06-11 14:17:32.184903
25.2253724,-0.3244965971,-0.4151745737,0.5593804717,2024-06-11 14:17:32.225372
25.26587725,0.8395367861,-2.598902225,0.2944037914,2024-06-11 14:17:32.265877
25.30636282,0.1424749196,-1.482005477,0.7145050764,2024-06-11 14:17:32.306363
25.34684001,-0.4648410678,0.153793022,0.4858794212,2024-06-11 14:17:32.346840
25.38735589,0.1773612946,-1.199585557,0.2837514579,2024-06-11 14:17:32.387356
25.42777266,-0.01371487509,-0.6045197248,0.3961335421,2024-06-11 14:17:32.427773
25.46825745,-0.08348763734,0.1577876359,0.3537905216,2024-06-11 14:17:32.468257
25.50875282,-0.1857500076,-0.3938699067,0.3098496497,2024-06-11 14:17:32.508753
25.5492385,-0.07789516449,-0.009453942999,0.2946700752,2024-06-11 14:17:32.549239
25.58972761,0.008655018173,0.2968005538,0.1423417628,2024-06-11 14:17:32.589728
25.63019558,-0.02063889056,0.1793586165,0.0949388966,2024-06-11 14:17:32.630196
25.67068615,0.03142437339,0.2134460658,0.06790860742,2024-06-11 14:17:32.670686
25.71117865,-0.03874785081,-0.01318225823,0.1340862066,2024-06-11 14:17:32.711179
25.75164443,-0.1532603949,-0.7836120725,0.0949388966,2024-06-11 14:17:32.751644
25.79211464,0.4974638224,-1.782667518,-0.2977326214,2024-06-11 14:17:32.792115
25.83257381,0.5129097104,1.167362213,-0.09134373069,2024-06-11 14:17:32.832574
25.87310506,0.05858781561,1.398251534,0.2728328109,2024-06-11 14:17:32.873105
25.91357219,-0.2667077184,0.1814890802,0.2898765504,2024-06-11 14:17:32.913572
25.95405084,-0.3210346103,-0.5328828096,0.2083862126,2024-06-11 14:17:32.954051
25.99453459,-0.1793586165,-0.6476616859,-0.04633763805,2024-06-11 14:17:32.994535
26.03501219,0.1115831584,0.2083862126,-0.05086487532,2024-06-11 14:17:33.035012
26.07547792,-0.1921414137,1.008509398,0.07696308941,2024-06-11 14:17:33.075478
26.11597574,-0.2928059399,0.7544512749,0.03994623944,2024-06-11 14:17:33.115976
26.15644298,-0.3495295942,0.7027874589,0.03941362351,2024-06-11 14:17:33.156443
26.19692079,-0.521032095,0.6439333558,0.0822892487,2024-06-11 14:17:33.196921
26.23741787,-0.4467321038,0.572030127,-0.0490007177,2024-06-11 14:17:33.237418
26.27789417,-0.2193048447,0.9581770897,-0.03701684624,2024-06-11 14:17:33.277894
26.31838329,-0.3415403366,1.034074903,0.09600412846,2024-06-11 14:17:33.318383
26.35889245,-0.6340799332,0.8580452204,0.1101184636,2024-06-11 14:17:33.358892
26.39935657,-0.521032095,0.899056673,-0.05246272683,2024-06-11 14:17:33.399357
26.43982391,-0.4714987576,1.012503982,-0.05006595328,2024-06-11 14:17:33.439824
26.48031579,-0.6181014776,1.154179931,-0.01651111245,2024-06-11 14:17:33.480316
26.52082922,-0.6724283695,1.031944513,-0.08042509109,2024-06-11 14:17:33.520829
26.561286,-0.554586947,0.8969262242,-0.2007964253,2024-06-11 14:17:33.561286
26.60174756,-0.4632432163,0.9592423439,-0.06098458916,2024-06-11 14:17:33.601748
26.64222896,-0.6212971807,1.036205411,0.03222329915,2024-06-11 14:17:33.642229
26.68271048,-0.03022598661,1.544987321,0.3647091687,2024-06-11 14:17:33.682710
26.72320178,0.0171768833,1.756968737,0.2006632686,2024-06-11 14:17:33.723202
26.76367657,-0.1929403245,1.456040382,-0.2910749316,2024-06-11 14:17:33.763677
26.80416412,0.104392834,1.087336659,-0.3520595133,2024-06-11 14:17:33.804164
26.84462683,0.3051892519,-0.2466014475,-0.4215659797,2024-06-11 14:17:33.844627
26.88509777,0.3355484009,0.08615072072,-0.6624417901,2024-06-11 14:17:33.885098
26.92558178,0.4580501914,1.562829971,-0.5030562878,2024-06-11 14:17:33.925582
26.96608058,0.2814878225,0.8561810255,-0.2135792226,2024-06-11 14:17:33.966081
27.00662719,0.1400781423,-0.3733641803,-0.03062544949,2024-06-11 14:17:34.006627
27.04704313,0.4804200828,0.03315537795,0.0298265256,2024-06-11 14:17:34.047043
27.08758954,0.3632444739,1.040199995,0.1442059278,2024-06-11 14:17:34.087590
27.12804433,-0.07869409025,1.080146313,0.3210346103,2024-06-11 14:17:34.128044
27.16848579,-0.1846847683,0.825289309,0.2286256403,2024-06-11 14:17:34.168486
27.20898464,-0.1750976741,0.6346125603,0.0822892487,2024-06-11 14:17:34.208985
27.24942891,-0.07816147059,0.05632419512,-0.009587096982,2024-06-11 14:17:34.249429
27.28998032,0.04420717061,-0.4633763731,-0.04340824485,2024-06-11 14:17:34.289980
27.330421,0.008122402243,-0.7878729701,-0.052196417,2024-06-11 14:17:34.330421
27.37091251,0.2037258148,-0.294803232,-0.1446053833,2024-06-11 14:17:34.370913
27.41139407,0.1970681101,0.3521926701,-0.08415340632,2024-06-11 14:17:34.411394
27.45187568,0.1643121988,0.3969324529,-0.04740286991,2024-06-11 14:17:34.451876
27.49231631,0.1691057384,0.1452711523,-0.1339530498,2024-06-11 14:17:34.492316
27.53279787,0.01451379992,0.1937392503,-0.1565892547,2024-06-11 14:17:34.532798
27.57327943,-0.1703041345,0.2912080884,0.001065233024,2024-06-11 14:17:34.573279
27.61378396,-0.5263582468,0.3175725937,0.2291582525,2024-06-11 14:17:34.613784
27.65426553,-0.8218272924,0.2358159572,0.4075847864,2024-06-11 14:17:34.654266
27.69476339,-0.9504541755,-0.3829512596,0.3505948186,2024-06-11 14:17:34.694763
27.73521719,-0.4683030546,-1.281741619,0.1745650619,2024-06-11 14:17:34.735217
27.77569344,-0.1766955256,-0.7548507452,0.1335535944,2024-06-11 14:17:34.775693
27.81619943,-0.2933385372,1.203580141,0.4635095298,2024-06-11 14:17:34.816199
27.85665896,-0.7890713811,2.22367382,0.4523245692,2024-06-11 14:17:34.856659
27.89713324,-0.2866808474,2.645106792,0.3559209704,2024-06-11 14:17:34.897133
27.93761287,-0.1753639877,0.4621779919,0.0181089621,2024-06-11 14:17:34.937613
27.978131,-0.04034570232,-0.3720326424,0.03967992961,2024-06-11 14:17:34.978131
28.01863641,-0.04114462435,0.6207645535,-0.1147788614,2024-06-11 14:17:35.018636
28.05906245,-0.6441996694,0.268838197,-0.1049254537,2024-06-11 14:17:35.059062
28.09959501,-0.1878804713,-0.3368799388,0.2920069993,2024-06-11 14:17:35.099595
28.14003735,0.237813279,2.222342491,0.3260944486,2024-06-11 14:17:35.140037
28.18050256,-0.08774857223,2.081997871,0.4318188429,2024-06-11 14:17:35.180503
28.2210549,-0.2046578974,0.7805495262,0.1782933772,2024-06-11 14:17:35.221055
28.26147126,-0.1689725816,-0.4463326335,-0.02263620123,2024-06-11 14:17:35.261471
28.30195219,0.006524552125,-1.071224928,-0.1019960642,2024-06-11 14:17:35.301952
28.34243313,0.1254311949,-0.3632444739,-0.001065233024,2024-06-11 14:17:35.342433
28.38293537,0.151263088,0.347132802,0.06045197323,2024-06-11 14:17:35.382935
28.42341204,0.2580527067,0.3143768907,0.0868164897,2024-06-11 14:17:35.423412
28.46388209,-0.0006657706108,-0.7010564804,0.08548495173,2024-06-11 14:17:35.463882
28.5043649,-0.04993279651,-1.70037818,0.03648423031,2024-06-11 14:17:35.504365
28.54486277,0.2796236575,-1.592523336,-0.01091863867,2024-06-11 14:17:35.544863
28.58534714,0.2420742065,-0.5166380405,0.1109173894,2024-06-11 14:17:35.585347
28.62580449,0.1834863871,-0.08335448056,0.1788259894,2024-06-11 14:17:35.625804
28.66630198,0.1749645174,-0.2290250957,0.1575213373,2024-06-11 14:17:35.666302
28.70681214,0.2103835195,-0.6292864084,0.08415340632,2024-06-11 14:17:35.706812
28.74727792,0.1928071827,-0.4332835376,0.1591191888,2024-06-11 14:17:35.747278
28.78774521,0.172567755,-0.8706948161,0.0954715088,2024-06-11 14:17:35.787745
28.82822271,0.3707011044,-1.365096092,0.09161003679,2024-06-11 14:17:35.828223
28.86867521,0.6459306479,-0.793199122,0.1756303012,2024-06-11 14:17:35.868675
28.90916011,0.4452674091,-0.3880111277,0.1452711523,2024-06-11 14:17:35.909160
28.94965917,0.5009258389,-0.8850755095,0.08521863818,2024-06-11 14:17:35.949659
28.99015579,0.3882774413,-1.269358277,-0.05059856921,2024-06-11 14:17:35.990156
29.03067292,-0.07816147059,-1.715824127,-0.1800243855,2024-06-11 14:17:36.030673
29.07113818,-0.02276935615,-2.324205399,-0.2290250957,2024-06-11 14:17:36.071138
29.11159902,0.4671046734,-0.7268883586,-0.07776200771,2024-06-11 14:17:36.111599
29.15208975,0.1310236603,0.7786853313,-0.03675054014,2024-06-11 14:17:36.152090
29.19257053,0.2926727831,-0.221035853,-0.2263620198,2024-06-11 14:17:36.192571
29.23305131,0.3408745527,-0.6754909158,-0.2700365782,2024-06-11 14:17:36.233051
29.27352324,0.2500634491,-0.08947957307,-0.1877473146,2024-06-11 14:17:36.273523
29.31399324,0.3493964374,-0.1587197185,-0.2218347788,2024-06-11 14:17:36.313993
29.35449084,0.4726971686,0.02729659714,-0.2407426685,2024-06-11 14:17:36.354491
29.39498172,0.3973319232,0.2121145278,-0.2913412452,2024-06-11 14:17:36.394982
29.43543126,0.4655068219,-0.1094526947,-0.3821523488,2024-06-11 14:17:36.435431
29.47593693,0.6090469956,-0.5509917736,-0.3840165138,2024-06-11 14:17:36.475937
29.51642553,0.5579158068,-0.339276731,-0.4218322635,2024-06-11 14:17:36.516426
29.55690579,0.7063826323,-0.1723014414,-0.4276910722,2024-06-11 14:17:36.556906
29.59741303,1.027284145,-0.2420742065,-0.4077179432,2024-06-11 14:17:36.597413
29.63790662,1.068561912,-0.599193573,-0.09507204592,2024-06-11 14:17:36.637907
29.67836792,0.9300816059,-0.5107792616,-0.02876129188,2024-06-11 14:17:36.678368
29.7188223,0.6792191863,-0.2556559145,-0.5702991486,2024-06-11 14:17:36.718822
29.75928615,0.6973281503,-0.5917369723,-1.000386953,2024-06-11 14:17:36.759286
29.79980199,0.3840165138,-0.826753974,-0.1555240154,2024-06-11 14:17:36.799802
29.84027923,0.4133104086,-0.499594301,0.1913424879,2024-06-11 14:17:36.840279
29.88073183,0.1581871063,-0.2580527067,0.08655018359,2024-06-11 14:17:36.880732
29.92121766,-0.3521926701,-0.3217003644,0.5002600551,2024-06-11 14:17:36.921218
29.96171287,-0.904915452,-1.078681588,0.8471265435,2024-06-11 14:17:36.961713
30.00220006,-1.135804653,-1.749645233,0.5710980296,2024-06-11 14:17:37.002200
30.04268146,-1.47441566,-1.161503434,0.3567199111,2024-06-11 14:17:37.042681
30.08314844,-0.9549813867,-0.08042509109,0.2470009029,2024-06-11 14:17:37.083148
30.12363615,0.4588491321,-0.9817453623,0.04846810177,2024-06-11 14:17:37.123636
30.16411756,-0.3551220596,-0.8563141823,0.1183740199,2024-06-11 14:17:37.164118
30.20461188,-1.154446244,0.84020257,0.398796618,2024-06-11 14:17:37.204612
30.245061,-0.0126496423,0.2089188248,0.4344819188,2024-06-11 14:17:37.245061
30.28557782,0.2455362082,-0.9271522164,0.3758940995,2024-06-11 14:17:37.285578
30.32603152,0.145404309,-0.8792167306,0.4179708064,2024-06-11 14:17:37.326032
30.36649818,-0.0384815447,-0.2886781394,0.2608489394,2024-06-11 14:17:37.366498
30.40697959,-0.1745650619,0.1599181145,0.1804238409,2024-06-11 14:17:37.406980
30.44746063,0.06231613085,-0.2242315561,0.1061238423,2024-06-11 14:17:37.447461
30.48797631,-0.04567186534,-0.4268921316,0.2190385461,2024-06-11 14:17:37.487976
30.5284337,-0.1157109365,-0.5208989382,0.1769618392,2024-06-11 14:17:37.528434
30.56891787,0.143540144,0.02117150649,-0.002663082443,2024-06-11 14:17:37.568918
30.60941969,-0.02063889056,0.4302209914,0.0705716908,2024-06-11 14:17:37.609420
30.64991219,-0.06457975507,0.6561835408,0.2222342342,2024-06-11 14:17:37.649912
30.69036798,-0.1205044836,0.7379401922,0.2390116602,2024-06-11 14:17:37.690368
30.7309086,-0.2547238469,0.5632419586,0.2225005478,2024-06-11 14:17:37.730909
30.77130225,-0.3740299344,0.258452177,0.1788259894,2024-06-11 14:17:37.771302
30.81176339,-0.1921414137,0.2720338702,0.103727065,2024-06-11 14:17:37.811763
30.85224449,0.1158440933,0.8042509556,-0.01011971384,2024-06-11 14:17:37.852244
30.89275511,0.2556559145,1.169226408,-0.05406057462,2024-06-11 14:17:37.892755
30.93323646,0.2266283184,1.060173154,-0.03035914153,2024-06-11 14:17:37.933236
30.97376157,0.2705691755,0.8292838931,0.02263620123,2024-06-11 14:17:37.973762
31.01422058,0.08628387749,0.5204994678,0.1071890742,2024-06-11 14:17:38.014221
31.0547186,-0.6521888971,-0.228758797,0.1942718774,2024-06-11 14:17:38.054719
31.09518626,-1.082543015,-1.012637138,0.3053224087,2024-06-11 14:17:38.095186
31.13565678,0.09001219273,-1.085072994,-0.1776276082,2024-06-11 14:17:38.135657
31.1761212,-0.1708367467,1.876674294,-0.2151770741,2024-06-11 14:17:38.176121
31.2166685,-0.3892095089,1.887326598,-0.02183727734,2024-06-11 14:17:38.216669
31.2571123,-0.2288919389,0.7320814133,-0.1256974936,2024-06-11 14:17:38.257112
31.29764329,-0.1894783229,0.137015596,-0.1848179251,2024-06-11 14:17:38.297643
31.33807303,0.1352845877,0.6356778145,-0.1248985752,2024-06-11 14:17:38.338073
31.37858745,0.2351501882,1.336734295,-0.2015953511,2024-06-11 14:17:38.378587
31.4189987,0.09986559302,2.177336216,-0.3504616618,2024-06-11 14:17:38.418999
31.45950209,0.5912043452,1.046857715,-0.02929390781,2024-06-11 14:17:38.459502
31.49999198,0.2567211688,-1.858032703,0.1964023411,2024-06-11 14:17:38.499992
31.54047136,0.02356828004,-2.954423904,0.08868064731,2024-06-11 14:17:38.540471
31.58099251,0.444734782,-1.542457461,-0.04234301299,2024-06-11 14:17:38.580993
31.62141938,0.3896089792,-1.69079113,-0.09081111848,2024-06-11 14:17:38.621419
31.66190074,0.4117125571,-1.336334825,-0.1102516204,2024-06-11 14:17:38.661901
31.70238204,0.319303602,-0.5922695398,-0.02556559257,2024-06-11 14:17:38.702382
31.74286339,0.2479329854,-0.499594301,0.149265781,2024-06-11 14:17:38.742863
31.78335131,0.2468677461,-0.790536046,0.2155765295,2024-06-11 14:17:38.783351
31.82384896,0.1920082569,-0.8307486176,0.1844184697,2024-06-11 14:17:38.823849
31.86431745,-0.02995967865,-0.8424661756,0.1431406885,2024-06-11 14:17:38.864317
31.904776,0.008122402243,-0.5097140074,0.1079879999,2024-06-11 14:17:38.904776
31.94529094,-0.002263620263,-0.1579207927,0.1721682847,2024-06-11 14:17:38.945291
31.98578381,-0.03448691964,-0.08441971987,0.2235657871,2024-06-11 14:17:38.985784
32.02626412,-0.108254306,0.08135717362,0.2312887162,2024-06-11 14:17:39.026264
32.06672938,-0.2011958808,0.2395442724,0.1601844132,2024-06-11 14:17:39.066729
32.10723563,-0.07576470077,-0.0126496423,0.02716344222,2024-06-11 14:17:39.107236
32.14770318,0.1209039465,-0.0512643382,-0.05326165259,2024-06-11 14:17:39.147703
32.18817568,0.214644447,0.2062557489,0.01517957076,2024-06-11 14:17:39.188176
32.22865745,0.1653774232,0.4549876451,0.01384802908,2024-06-11 14:17:39.228657
32.26917146,0.1323551983,0.363910228,0.0490007177,2024-06-11 14:17:39.269171
32.30965652,0.06204982474,-0.01291595027,0.02236989327,2024-06-11 14:17:39.309657
32.35011298,-0.2856155932,-0.6789528728,0.03834838793,2024-06-11 14:17:39.350113
32.39063193,-0.1548582464,-0.8094439507,-0.1470021605,2024-06-11 14:17:39.390632
32.43109688,0.2266283184,0.2587184608,-0.1896114796,2024-06-11 14:17:39.431097
32.4715274,-0.1447385401,1.537530661,-0.001065233024,2024-06-11 14:17:39.471527
32.51197339,-0.1942718774,0.8854749799,-0.116643019,2024-06-11 14:17:39.511973
32.55246386,-0.03608476743,0.4326177537,-0.3336842358,2024-06-11 14:17:39.552464
32.59296448,-0.1569887102,0.7648373246,-0.3150426745,2024-06-11 14:17:39.592964
32.63344485,-0.1969349533,0.6873416305,-0.2559222281,2024-06-11 14:17:39.633445
32.67395636,-0.2568543255,0.8902685046,-0.276694268,2024-06-11 14:17:39.673956
32.7144423,-0.1561897993,0.4272916019,-0.297998935,2024-06-11 14:17:39.714442
32.75491058,-0.02330197208,1.065499306,-0.1493989378,2024-06-11 14:17:39.754911
32.79538751,0.2364817262,0.4616453648,-0.3456681073,2024-06-11 14:17:39.795388
32.83590157,0.3896089792,-0.2833519876,-0.2402100414,2024-06-11 14:17:39.835902
32.87633667,0.1240996495,-0.5081161261,-0.03648423031,2024-06-11 14:17:39.876337
32.91683985,-0.03368799388,-0.0355521515,0.138347134,2024-06-11 14:17:39.916840
32.95732652,-0.1532603949,-0.3129121959,0.1737661362,2024-06-11 14:17:39.957327
32.99778574,-0.0243672058,-0.7844109535,0.03675054014,2024-06-11 14:17:39.997786
33.03827365,0.01025286783,-0.9575113058,-0.1240996495,2024-06-11 14:17:40.038274
33.07878516,0.009187635034,-0.6792191863,0.03967992961,2024-06-11 14:17:40.078785
33.11927126,0.1198387146,-0.2111824453,0.2789579034,2024-06-11 14:17:40.119271
33.1597374,0.1882799417,-0.1853505522,0.2890776098,2024-06-11 14:17:40.159737
33.20022266,0.2244978547,-0.8597761989,0.1580539495,2024-06-11 14:17:40.200223
33.24072318,0.2372806519,-1.479342341,0.05592473224,2024-06-11 14:17:40.240723
33.28121683,0.2151770741,-0.4005276263,0.08468602598,2024-06-11 14:17:40.281217
33.32170048,0.06178351492,0.1165098622,0.2059894353,2024-06-11 14:17:40.321700
33.36218141,0.056723658,-0.5483286977,0.209451437,2024-06-11 14:17:40.362181
33.4026624,-0.005193010904,-0.7154371142,0.2448704392,2024-06-11 14:17:40.402662
33.44314339,-0.08694964647,-0.6607108116,0.1812227666,2024-06-11 14:17:40.443143
33.48359824,-0.0733679235,-0.00998655986,0.1282274276,2024-06-11 14:17:40.483598
33.52406271,-0.02916075476,0.3732310236,0.06524552405,2024-06-11 14:17:40.524063
33.56452063,-0.0432750918,0.2810883522,0.01118494663,2024-06-11 14:17:40.564521
33.6050335,0.01398118306,0.243006289,-0.009320789017,2024-06-11 14:17:40.605033
33.64545126,0.06897383928,0.2917406857,0.0181089621,2024-06-11 14:17:40.645451
33.68597162,-0.09121058136,0.168706283,0.07190322876,2024-06-11 14:17:40.685972
33.72647626,-0.1974675655,0.1071890742,0.08761541545,2024-06-11 14:17:40.726476
33.76696402,-0.2326202542,0.07523208112,0.02103835158,2024-06-11 14:17:40.766964
33.80747834,-0.127961114,0.2232994735,-0.05539211631,2024-06-11 14:17:40.807478
33.8479737,-0.03475322574,0.8489907384,-0.02396774292,2024-06-11 14:17:40.847974
33.8883673,0.03675054014,0.9738892913,0.0007989247679,2024-06-11 14:17:40.888367
33.928851,0.0490007177,0.5896064639,-0.03941362351,2024-06-11 14:17:40.928851
33.96934834,-0.08082455397,0.4576507509,-0.02316881903,2024-06-11 14:17:40.969348
34.00984792,-0.2946700752,0.171901986,-0.03834838793,2024-06-11 14:17:41.009848
34.05031235,0.03941362351,0.07922670245,-0.1006645188,2024-06-11 14:17:41.050312
34.09084074,-0.1870815456,1.371620655,-0.1619154215,2024-06-11 14:17:41.090841
34.13127948,-0.1817553788,1.825543046,-0.3611139953,2024-06-11 14:17:41.131279
34.17176084,-0.08295502514,1.258972287,-0.5497934222,2024-06-11 14:17:41.171761
34.21224219,0.01025286783,1.244591594,-0.5123770833,2024-06-11 14:17:41.212242
34.25273495,0.1014634445,1.034341216,-0.455653429,2024-06-11 14:17:41.252735
34.2932162,0.2063889056,1.221955419,-0.3416734934,2024-06-11 14:17:41.293216
34.33369115,0.06311506033,0.9065132737,-0.3201025128,2024-06-11 14:17:41.333691
34.37419157,0.0487344116,-0.09720251709,-0.2388785034,2024-06-11 14:17:41.374192
34.41467287,0.2625799477,0.2563216984,-0.2348838747,2024-06-11 14:17:41.414673
34.45511532,0.5770899653,0.1205044836,-0.3001294136,2024-06-11 14:17:41.455115
34.49558678,0.8885374665,-1.603974581,-0.5348801613,2024-06-11 14:17:41.495587
34.53608313,0.4380770922,-0.7175676227,-0.6493926644,2024-06-11 14:17:41.536083
34.57657183,-0.1756303012,0.9539161921,-0.04260931909,2024-06-11 14:17:41.576572
34.61707568,-0.1873478591,-0.4378107786,0.147401616,2024-06-11 14:17:41.617076
34.65755704,-0.1639127284,-1.946047544,0.4904066622,2024-06-11 14:17:41.657557
34.69803667,-0.5449998379,-2.589315176,0.5266245604,2024-06-11 14:17:41.698037
34.7384799,-0.1964023411,-1.148720622,0.2302234918,2024-06-11 14:17:41.738480
34.77897839,0.08149032295,-2.354564428,-0.06284874678,2024-06-11 14:17:41.778978
34.81951511,0.4271584451,-2.215817928,-0.5340812206,2024-06-11 14:17:41.819515
34.85994662,1.405841231,-2.41182065,-1.186403275,2024-06-11 14:17:41.859947
34.90041464,1.328878164,-1.060838938,-0.8017209768,2024-06-11 14:17:41.900415
34.94098006,0.2213021666,1.465361238,-0.3973319232,2024-06-11 14:17:41.940980
34.98141516,0.04181039706,3.009016991,-0.6613765359,2024-06-11 14:17:41.981415
35.02184933,0.04740286991,2.059361696,-0.9223586321,2024-06-11 14:17:42.021849
35.06233053,-0.499727428,1.145924449,-0.8701622486,2024-06-11 14:17:42.062331
35.10281126,-0.7046516538,-0.1565892547,-0.805449307,2024-06-11 14:17:42.102811
35.14327646,0.8912006021,-1.822081089,-0.9870715737,2024-06-11 14:17:42.143276
35.18381589,1.487331629,-1.239531755,-1.966020703,2024-06-11 14:17:42.183816
35.22428298,1.688394308,-1.866554618,-2.372806549,2024-06-11 14:17:42.224283
35.26474667,0.1688394397,0.7624405622,-0.6584471464,2024-06-11 14:17:42.264747
35.30523235,-0.758179605,1.558036447,-0.5159722567,2024-06-11 14:17:42.305232
35.34571277,-1.013835549,1.176150441,0.7419347763,2024-06-11 14:17:42.345713
35.38617386,-1.258705974,-0.1182408631,1.07322228,2024-06-11 14:17:42.386174
35.42666714,-0.8716269135,-1.158574104,1.406773329,2024-06-11 14:17:42.426667
35.46717902,-0.3170399666,-1.756302953,1.022623658,2024-06-11 14:17:42.467179
35.50766459,-0.06005251035,-1.972145796,1.290529847,2024-06-11 14:17:42.507665
35.54813298,-0.1849510819,-3.092904091,1.557503819,2024-06-11 14:17:42.548133
35.5886187,-1.388664365,-2.08745718,1.079081059,2024-06-11 14:17:42.588619
35.62909448,-1.044461012,1.426480174,0.4232969582,2024-06-11 14:17:42.629094
35.66957412,0.1446053833,2.815544128,0.3476654291,2024-06-11 14:17:42.669574
35.71004511,1.264697909,0.9848079085,0.0949388966,2024-06-11 14:17:42.710045
35.75053261,1.646051288,0.7451304793,-0.06631075591,2024-06-11 14:17:42.750533
35.79105558,1.885062933,0.7078473568,0.1074553803,2024-06-11 14:17:42.791056
35.83151735,1.772281408,1.114500046,-0.1688394397,2024-06-11 14:17:42.831517
35.87194574,0.9090432525,2.693841219,0.02183727734,2024-06-11 14:17:42.871946
35.91242079,0.4340824485,0.8974588513,0.0260982085,2024-06-11 14:17:42.912421
35.9529023,0.8203625679,-2.169746399,-0.04154408723,2024-06-11 14:17:42.952902
35.99341287,1.798912287,-2.1796,-0.1129147038,2024-06-11 14:17:42.993413
36.03392501,1.154046774,-1.377612591,0.167374745,2024-06-11 14:17:43.033925
36.07440412,-0.1948044896,0.2251636237,0.3724320829,2024-06-11 14:17:43.074404
36.11487251,-0.4584496617,1.416893125,0.3990629315,2024-06-11 14:17:43.114873
36.15535027,-0.4315525293,0.8133054376,0.4946675897,2024-06-11 14:17:43.155350
36.19582553,-0.2046578974,-0.4774906933,0.7145050764,2024-06-11 14:17:43.195826
36.23632292,-0.4869446456,-1.280143738,0.8455287218,2024-06-11 14:17:43.236323
36.27679126,-0.4685693681,-0.878950417,0.3963998258,2024-06-11 14:17:43.276791
36.31728245,-0.04434032366,-0.2521939278,0.5173037648,2024-06-11 14:17:43.317282
36.35779209,0.2213021666,-0.3989297748,0.07829462737,2024-06-11 14:17:43.357792
36.39824933,1.004115224,-0.4114462435,-0.6422023773,2024-06-11 14:17:43.398249
36.43870896,0.7274209857,-0.4372781515,0.07190322876,2024-06-11 14:17:43.438709
36.47923704,-1.173354149,-0.1193061024,0.329023838,2024-06-11 14:17:43.479237
36.51970511,-0.3282249272,1.901440978,0.3769593239,2024-06-11 14:17:43.519705
36.56016152,-0.782679975,1.584667325,0.545532465,2024-06-11 14:17:43.560162
36.60068318,-0.654053092,-1.218759775,0.7366086245,2024-06-11 14:17:43.600683
36.64118662,-0.6284874678,-0.8211615086,0.2368811965,2024-06-11 14:17:43.641187
36.68158839,-0.5548532605,-1.172954679,0.37296471,2024-06-11 14:17:43.681588
36.72203693,-0.6428681016,-1.289464593,0.3663070202,2024-06-11 14:17:43.722037
36.76253058,-0.511977613,0.2928059399,0.2983984053,2024-06-11 14:17:43.762531
36.80303105,-0.4661726058,1.946713328,0.167374745,2024-06-11 14:17:43.803031
36.84355162,-0.5399399996,2.062557459,0.1063901484,2024-06-11 14:17:43.843552
36.88404188,-0.3569862247,2.591046095,-0.08282186836,2024-06-11 14:17:43.884042
36.92450589,-0.2134460658,2.999696255,-0.1014634445,2024-06-11 14:17:43.924506
36.96498839,-0.4842815697,0.8399362564,0.2485987544,2024-06-11 14:17:43.964988
37.00545574,-0.08774857223,-0.4979964495,-0.1147788614,2024-06-11 14:17:44.005456
37.045946,-0.05872096866,2.426201344,-0.2926727831,2024-06-11 14:17:44.045946
37.08647188,0.1201050207,2.975595236,0.01651111245,2024-06-11 14:17:44.086472
37.12690558,0.2742975056,1.81915164,0.03621792421,2024-06-11 14:17:44.126906
37.16740339,0.3038577139,-0.771894455,0.09600412846,2024-06-11 14:17:44.167403
37.20785542,0.34513551,-0.4742949903,-0.06897383928,2024-06-11 14:17:44.207855
37.24835876,-0.3766930401,-0.5824161768,-0.08149032295,2024-06-11 14:17:44.248359
37.28886688,-0.539673686,0.3447360396,-0.228758797,2024-06-11 14:17:44.288867
37.32929454,-0.6756240726,1.158174634,-0.186149478,2024-06-11 14:17:44.329295
37.3698198,-0.7467283607,0.7451304793,-0.1736329794,2024-06-11 14:17:44.369820
37.41030199,-0.2576532364,-0.632748425,-0.04154408723,2024-06-11 14:17:44.410302
37.45079886,-0.01291595027,-0.1773612946,-0.002130466048,2024-06-11 14:17:44.450799
37.49130725,-0.1849510819,0.9198287129,0.02370143496,2024-06-11 14:17:44.491307
37.53167917,-0.2917406857,0.7824136615,-0.001597849536,2024-06-11 14:17:44.531679
37.57216126,-0.04513924941,1.086271405,-0.2290250957,2024-06-11 14:17:44.572161
37.61263995,-0.2238320857,0.9358072281,-0.3837502003,2024-06-11 14:17:44.612640
37.65312042,-0.03075860441,-0.6962629557,-0.5143743753,2024-06-11 14:17:44.653120
37.69362365,0.3986634612,-1.194525719,-0.3792229593,2024-06-11 14:17:44.693624
37.73413027,-0.06671021879,-0.3462007344,-0.2665745616,2024-06-11 14:17:44.734130
37.77460751,0.0003994623839,1.371620655,-0.6765561104,2024-06-11 14:17:44.774608
37.81508032,-0.3412740231,0.4432700872,-0.6089138389,2024-06-11 14:17:44.815080
37.85556058,-0.3625786901,0.1961360276,-0.3435376585,2024-06-11 14:17:44.855561
37.89602574,-0.4991948307,0.1015966013,0.01837527007,2024-06-11 14:17:44.896026
37.93653824,-0.7145050764,-0.09533835202,0.1681736708,2024-06-11 14:17:44.936538
37.97700396,-0.5769568086,0.0842865631,0.351660043,2024-06-11 14:17:44.977004
38.01754662,-0.6340799332,-0.03022598661,0.4240958989,2024-06-11 14:17:45.017547
38.05802949,-0.4733629227,-0.8701622486,0.2983984053,2024-06-11 14:17:45.058029
38.09850386,-0.6998580694,0.2786915898,0.4126446545,2024-06-11 14:17:45.098504
38.13893672,-0.6553846002,2.691178083,0.4046553969,2024-06-11 14:17:45.138937
38.17940318,-0.1021292135,2.807022095,0.5202331543,2024-06-11 14:17:45.179403
38.21989714,-0.250729233,-1.061637878,0.4344819188,2024-06-11 14:17:45.219897
38.26036532,0.1978670359,-1.571218729,0.4531235099,2024-06-11 14:17:45.260365
38.30089969,0.2029268891,-1.055779099,0.1495320797,2024-06-11 14:17:45.300900
38.34140655,-0.7046516538,-2.131664515,0.37296471,2024-06-11 14:17:45.341407
38.38179082,0.5089150667,-0.9684299827,0.4083836973,2024-06-11 14:17:45.381791
38.4222729,0.5539211631,1.961892962,0.2808220685,2024-06-11 14:17:45.422273
38.46276493,-0.527423501,1.859097958,-0.1664426625,2024-06-11 14:17:45.462765
38.50325936,-0.9214265943,-0.7356765866,0.009587096982,2024-06-11 14:17:45.503259
38.54376092,0.6007914543,-1.554175019,-0.2726996541,2024-06-11 14:17:45.543761
38.58422863,0.09480573982,-0.09240896255,-0.3153089881,2024-06-11 14:17:45.584229
38.62468738,0.1174419373,1.571351886,0.1748313755,2024-06-11 14:17:45.624687
38.66516848,0.05512581021,1.114233732,0.3625786901,2024-06-11 14:17:45.665168
38.70567712,-0.1162435561,-0.5477960706,0.08015878499,2024-06-11 14:17:45.705677
38.74615525,0.154458791,-1.219558716,0.239810586,2024-06-11 14:17:45.746155
38.78665066,0.01344856713,-0.513974905,0.1886793971,2024-06-11 14:17:45.786651
38.82713978,-0.1063901484,0.09413997084,0.1468690038,2024-06-11 14:17:45.827140
38.8675704,0.04660394415,0.2440715134,0.1391460598,2024-06-11 14:17:45.867570
38.90805124,0.2154433727,0.1521951705,0.006391398143,2024-06-11 14:17:45.908051
38.94854941,0.09693620354,-0.2564548552,-0.03195698932,2024-06-11 14:17:45.948549
38.98904472,-0.0736342296,-0.4356803,-0.1347519755,2024-06-11 14:17:45.989045
39.02953186,-0.0683080703,-0.6685668826,-0.09480573982,2024-06-11 14:17:46.029532
39.07001618,-0.08535179496,-0.6404713392,0.02050573565,2024-06-11 14:17:46.070016
39.11053519,0.01371487509,-0.1131810099,0.103727065,2024-06-11 14:17:46.110535
39.15103514,-0.07017222792,0.5066514611,0.0487344116,2024-06-11 14:17:46.151035
39.19148629,-0.1593854874,0.7943975329,0.1250317246,2024-06-11 14:17:46.191486
39.23190321,-0.08109086752,0.6985265613,0.06444659829,2024-06-11 14:17:46.231903
39.27238962,-0.008122402243,0.3854812086,-0.009054481052,2024-06-11 14:17:46.272390
39.312884,-0.03182383627,0.08801487833,-0.03062544949,2024-06-11 14:17:46.312884
39.35339228,0.003328853287,-0.1773612946,0.004260932095,2024-06-11 14:17:46.353392
39.39388571,0.1123820841,-0.2415415943,-0.07989247888,2024-06-11 14:17:46.393886
39.43434629,0.07483261824,-0.2537917793,-0.04047885537,2024-06-11 14:17:46.434346
39.47481665,0.08708280325,0.04141093418,0.06284874678,2024-06-11 14:17:46.474817
39.51530379,0.06657706201,0.2589847744,0.06204982474,2024-06-11 14:17:46.515304
39.55579499,0.003595161485,0.253392309,0.02956021577,2024-06-11 14:17:46.555795
39.59627295,-0.02010627277,0.2720338702,-0.01970681176,2024-06-11 14:17:46.596273
39.63675071,-0.02383458801,0.382019192,-0.03248960897,2024-06-11 14:17:46.636751
39.67727124,-0.06804175675,0.5316844583,-0.02236989327,2024-06-11 14:17:46.677271
39.71773061,-0.1045259908,0.6042534113,-0.01411433797,2024-06-11 14:17:46.717731
39.75818243,-0.1079879999,0.6673684716,-0.03728315607,2024-06-11 14:17:46.758182
39.79866025,-0.1870815456,0.6641727686,-0.04207670316,2024-06-11 14:17:46.798660
39.83917717,-0.1660431921,0.7448641658,-0.06684337556,2024-06-11 14:17:46.839177
39.87961957,-0.243006289,0.6926677823,-0.05938674137,2024-06-11 14:17:46.879620
39.92010056,-0.2544575334,0.6210308671,-0.0229025092,2024-06-11 14:17:46.920101
39.96060624,-0.07896039635,0.8447297812,-0.01091863867,2024-06-11 14:17:46.960606
40.00109014,-0.04886756465,0.819696784,0.005592473317,2024-06-11 14:17:47.001090
40.04156655,-0.02276935615,0.6098458767,-0.03515268862,2024-06-11 14:17:47.041567
40.08204764,-0.1330209672,0.5872097015,-0.052196417,2024-06-11 14:17:47.082048
40.12248816,-0.117308788,0.6473953724,-0.09320788831,2024-06-11 14:17:47.122488
40.16294842,0.07190322876,0.7477935553,-0.1414096802,2024-06-11 14:17:47.162948
40.20347624,-0.04274247587,0.6021229625,-0.2604494691,2024-06-11 14:17:47.203476
40.24398821,-0.05579157919,0.1314231306,-0.1917419434,2024-06-11 14:17:47.243988
40.28446842,0.071104303,-0.2061225921,-0.06844121963,2024-06-11 14:17:47.284468
40.3249154,0.2434057444,-0.4990616739,-0.1131810099,2024-06-11 14:17:47.324915
40.36542743,0.1850842386,-0.408516854,-0.1568555683,2024-06-11 14:17:47.365427
40.40590769,0.2567211688,-0.3800218701,-0.1946713328,2024-06-11 14:17:47.405908
40.44635884,0.2655093372,-0.5395405293,-0.09533835202,2024-06-11 14:17:47.446359
40.48691983,0.2252967805,-0.7753564715,0.01677742042,2024-06-11 14:17:47.486920
40.52734295,0.2127802968,-0.7391385436,0.05619104207,2024-06-11 14:17:47.527343
40.5678429,0.2026605755,-0.1091863886,-0.2103835195,2024-06-11 14:17:47.567843
40.60830978,0.09427312016,-0.8549826741,-0.2402100414,2024-06-11 14:17:47.608310
40.64879134,-0.0243672058,-0.03182383627,-0.1310236603,2024-06-11 14:17:47.648791
40.68929353,-0.1210371032,0.5085155964,0.1854836941,2024-06-11 14:17:47.689294
40.72974915,0.1651111245,-0.01211702544,0.2762948275,2024-06-11 14:17:47.729749
40.77023946,0.3997286856,-1.297986388,0.2115819156,2024-06-11 14:17:47.770239
40.81073139,0.4489957094,-2.028336763,0.1268958896,2024-06-11 14:17:47.810731
40.85123061,0.5621767044,-1.392792225,0.08362079412,2024-06-11 14:17:47.851231
40.89166051,0.6047860384,-0.4655068219,0.108254306,2024-06-11 14:17:47.891661
40.93214202,0.9180977345,-0.1515294015,0.1426080763,2024-06-11 14:17:47.932142
40.97260155,1.169226408,-0.3019935489,0.2225005478,2024-06-11 14:17:47.972602
41.01308311,0.6515231729,-1.197455049,0.1237001866,2024-06-11 14:17:48.013083
41.05358394,-0.04806863889,-1.591191888,0.1942718774,2024-06-11 14:17:48.053584
41.09410176,-0.7352771163,-1.822347403,0.2621804774,2024-06-11 14:17:48.094102
41.13458118,0.1323551983,-2.153235435,-0.05539211631,2024-06-11 14:17:48.134581
41.1750629,0.5560516119,0.5170374513,-0.3251623809,2024-06-11 14:17:48.175063
41.21553884,0.1496652365,0.3455349505,-0.14993155,2024-06-11 14:17:48.215539
41.25598696,0.1531272531,-0.3898752928,-0.1717688292,2024-06-11 14:17:48.255987
41.29650806,0.1025286764,0.1002650559,-0.08868064731,2024-06-11 14:17:48.296508
41.3369553,0.3280917704,0.4398080707,-0.1810896099,2024-06-11 14:17:48.336955
41.37746905,0.4822842479,0.06191666797,-0.3563204408,2024-06-11 14:17:48.377469
41.41795077,0.491871357,-0.258585304,-0.4287562966,2024-06-11 14:17:48.417951
41.45839634,0.3986634612,0.168706283,-0.3006620109,2024-06-11 14:17:48.458396
41.4989016,0.3515268862,0.2416747361,-0.1818885356,2024-06-11 14:17:48.498902
41.5393892,0.6266233325,0.2696371078,-0.1110505462,2024-06-11 14:17:48.539389
41.57984545,0.646463275,-0.517170608,-0.1190397888,2024-06-11 14:17:48.579845
41.62035181,0.6563166976,-0.9876041412,-0.1994648874,2024-06-11 14:17:48.620352
41.66083337,0.4561860561,0.8191642165,-0.4798874855,2024-06-11 14:17:48.660833
41.70135014,0.4173050225,0.3511274457,-0.9034507871,2024-06-11 14:17:48.701350
41.74174176,0.3906742036,-0.5129097104,-0.6680342555,2024-06-11 14:17:48.741742
41.78222327,0.4902735054,-0.9673647285,-0.5065183043,2024-06-11 14:17:48.782223
41.82268488,0.04660394415,-1.354443789,-0.08468602598,2024-06-11 14:17:48.822685
41.86319702,-0.1857500076,0.1351514459,0.2621804774,2024-06-11 14:17:48.863197
41.90372655,-0.9150351882,2.252701521,0.6456643939,2024-06-11 14:17:48.903727
41.94418837,-1.306641459,-0.1728340536,0.6177020073,2024-06-11 14:17:48.944188
41.98468118,-0.8625724316,-3.286643267,0.2675066292,2024-06-11 14:17:48.984681
42.02516014,-0.730483532,-2.638049603,0.3031919599,2024-06-11 14:17:49.025160
42.06566165,-0.9342093468,-0.5054530501,0.6515231729,2024-06-11 14:17:49.065662
42.10615983,-1.104380369,1.192128897,1.249252081,2024-06-11 14:17:49.106160
42.14660228,-1.180278182,2.248706818,1.507970452,2024-06-11 14:17:49.146602
42.18707592,-0.77042979,1.087070346,0.8852086663,2024-06-11 14:17:49.187076
42.22756124,-0.3889431953,-2.351368666,0.1508636326,2024-06-11 14:17:49.227561
42.26806681,-0.4339492917,-3.753348589,-0.2239652425,2024-06-11 14:17:49.268067
42.30854853,0.01025286783,-1.292660236,-0.3408745527,2024-06-11 14:17:49.308549
42.34902577,0.6824148893,-0.8073135018,-0.3126458824,2024-06-11 14:17:49.349026
42.38951269,0.4940018058,2.511420012,0.09733566642,2024-06-11 14:17:49.389513
42.42998525,0.2234326303,2.026339531,0.1623148769,2024-06-11 14:17:49.429985
42.47046821,0.1760297567,-0.06790860742,-0.07190322876,2024-06-11 14:17:49.470468
42.51098514,0.03408745676,-2.823400021,-0.2732322812,2024-06-11 14:17:49.510985
42.55146009,0.8006557822,-0.7678998709,-0.2860150635,2024-06-11 14:17:49.551460
42.59194155,0.2985315621,1.133141637,0.1521951705,2024-06-11 14:17:49.591942
42.63242504,0.1664426625,0.0621829778,0.1407439113,2024-06-11 14:17:49.632425
42.67290733,0.134485662,-1.075752258,-0.1099853069,2024-06-11 14:17:49.672907
42.71335483,0.2687050402,-0.1051917598,-0.2013290375,2024-06-11 14:17:49.713355
42.75381769,0.1201050207,0.6151720881,-0.08149032295,2024-06-11 14:17:49.753818
42.79430176,0.02010627277,1.046325088,-0.05352795869,2024-06-11 14:17:49.794302
42.83478478,-0.028361829,0.5378095508,-0.07483261824,2024-06-11 14:17:49.834785
42.87522196,0.02569874749,0.4262263775,-0.1699046642,2024-06-11 14:17:49.875222
42.9157366,0.03355484083,1.241129637,-0.2402100414,2024-06-11 14:17:49.915737
42.95622837,0.03541899845,1.461632848,-0.2687050402,2024-06-11 14:17:49.956228
42.99670853,0.1659100503,1.116364241,-0.297998935,2024-06-11 14:17:49.996709
43.03723186,0.06284874678,0.4706998467,-0.3826849759,2024-06-11 14:17:50.037232
43.07773504,0.1432738453,-0.2418078929,-0.4519250989,2024-06-11 14:17:50.077735
43.11817207,0.1573881805,-0.5858781338,-0.3999949992,2024-06-11 14:17:50.118172
43.1586315,0.3983971477,-0.225563094,-0.3517931998,2024-06-11 14:17:50.158631
43.19912092,0.8834776282,-0.2031932026,-0.4545882046,2024-06-11 14:17:50.199121
43.23960181,0.5003932118,-1.118627787,-0.1669752747,2024-06-11 14:17:50.239602
43.28008238,-0.1455374658,0.1995980442,0.2693707943,2024-06-11 14:17:50.280082
43.32058363,0.0977351293,-0.1651111245,0.6840127707,2024-06-11 14:17:50.320584
43.36107879,-0.07443315536,-1.323019385,0.8969262242,2024-06-11 14:17:50.361079
43.4015629,-0.1149120107,-2.355629683,0.3327521682,2024-06-11 14:17:50.401563
43.44204525,-0.1639127284,-2.948032379,-0.007722939365,2024-06-11 14:17:50.442045
43.4824903,0.0410114713,-0.8517869711,0.147401616,2024-06-11 14:17:50.482490
43.522954,0.1464695334,-0.0817566365,0.4382102489,2024-06-11 14:17:50.522954
43.56344311,-0.07603100687,-0.008388710208,0.3226324618,2024-06-11 14:17:50.563443
43.60392598,0.06870753318,-1.564561009,0.2632457018,2024-06-11 14:17:50.603926
43.64440707,-0.118640326,-2.808220625,-0.04207670316,2024-06-11 14:17:50.644407
43.68489498,0.583747685,-2.554162502,-0.108920075,2024-06-11 14:17:50.684895
43.72536603,0.2945369184,0.5023905039,0.0519301109,2024-06-11 14:17:50.725366
43.76584202,0.0458050184,1.43580091,0.2177069932,2024-06-11 14:17:50.765842
43.80632436,0.07030537724,0.5693670511,0.05539211631,2024-06-11 14:17:50.806324
43.84680723,0.1233007237,-0.5051867366,-0.071104303,2024-06-11 14:17:50.846807
43.88725353,-0.03608476743,-1.44738543,-0.1826874614,2024-06-11 14:17:50.887254
43.9277742,0.2055899799,-1.290796161,-0.1472684592,2024-06-11 14:17:50.927774
43.96826603,0.07776200771,0.33807832,0.08149032295,2024-06-11 14:17:50.968266
44.00878509,-0.05073172227,1.100651979,0.1868152469,2024-06-11 14:17:51.008785
44.04925545,0.1147788614,0.6641727686,0.1151783243,2024-06-11 14:17:51.049255
44.08976191,0.006258244161,0.4531235099,0.1175750941,2024-06-11 14:17:51.089762
44.13017504,-0.4161066413,-0.3613803089,0.0260982085,2024-06-11 14:17:51.130175
44.17069384,-0.2536586225,-1.097855806,-0.1267627329,2024-06-11 14:17:51.170694
44.21119613,0.01451379992,0.3002625704,-0.07323476672,2024-06-11 14:17:51.211196
44.25157499,-0.1724345982,1.468823195,0.1327546686,2024-06-11 14:17:51.251575
44.29205702,-0.2083862126,1.207574844,0.2054568231,2024-06-11 14:17:51.292057
44.3325529,-0.385214895,0.6170362234,0.07536523789,2024-06-11 14:17:51.332553
44.3730442,-0.3466002047,0.5015916228,-0.2356828004,2024-06-11 14:17:51.373044
44.41352624,0.1587197185,0.2547238469,-0.3893426657,2024-06-11 14:17:51.413526
44.45405087,-0.2563216984,1.309038281,0.01651111245,2024-06-11 14:17:51.454051
44.49449415,-0.368437469,2.107563496,0.1442059278,2024-06-11 14:17:51.494494
44.53501915,-0.1742987484,1.88226676,-0.007722939365,2024-06-11 14:17:51.535019
44.57547118,0.02862813696,0.850055933,-0.1448716968,2024-06-11 14:17:51.575471
44.61595748,0.01025286783,-0.2817541361,-0.08575125784,2024-06-11 14:17:51.615957
44.65643848,0.09374050796,1.097456336,-0.1491326243,2024-06-11 14:17:51.656438
44.6969878,-0.006790860556,1.738593459,-0.1571218669,2024-06-11 14:17:51.696988
44.73740118,-0.001198387123,1.349783421,-0.07190322876,2024-06-11 14:17:51.737401
44.77788655,0.07376738638,0.3854812086,-0.1656437367,2024-06-11 14:17:51.777887
44.81838186,0.2242315561,-0.09320788831,-0.2916075289,2024-06-11 14:17:51.818382
44.85884613,-0.01105179265,0.9089100957,-0.1139799356,2024-06-11 14:17:51.858846
44.89931202,0.08335448056,1.727408528,-0.018907886,2024-06-11 14:17:51.899312
44.9398254,0.6675016284,1.121424079,0.1468690038,2024-06-11 14:17:51.939825
44.98029743,0.9164998531,0.2885449827,0.001065233024,2024-06-11 14:17:51.980297
45.02082473,1.378944159,-0.3123795986,-1.0914644,2024-06-11 14:17:52.020825
45.06132816,0.8262213469,0.3412740231,-1.379743099,2024-06-11 14:17:52.061328
45.10169374,0.3366136253,2.795038223,-0.6110442877,2024-06-11 14:17:52.101694
45.14226384,0.8328790665,1.387599111,-0.7979927063,2024-06-11 14:17:52.142264
45.18266196,-0.05286218971,-0.4026580751,-0.7710955739,2024-06-11 14:17:52.182662
45.22315405,-1.206243277,3.249759674,-0.7955959439,2024-06-11 14:17:52.223154
45.26365452,-0.414242506,3.838700294,-1.808898807,2024-06-11 14:17:52.263655
45.30414259,0.8067808747,-0.8664339185,-2.048310041,2024-06-11 14:17:52.304143
45.34464483,0.8230256438,-2.156697512,-1.299051642,2024-06-11 14:17:52.344645
45.38512598,-0.4115794003,7.157034397,-0.4495283365,2024-06-11 14:17:52.385126
45.42560504,-1.168560624,4.877835274,0.4129109383,2024-06-11 14:17:52.425605
45.46608884,-0.7318150997,-0.6223623753,0.1665758193,2024-06-11 14:17:52.466089
45.50656832,-0.6833469868,-2.154833317,-0.6081148982,2024-06-11 14:17:52.506568
45.54702223,-1.045259953,-6.66649437,0.4296883643,2024-06-11 14:17:52.547022
45.58751196,-2.193048477,-7.966078758,2.479063511,2024-06-11 14:17:52.587512
45.62798056,-4.399944782,2.1539011,4.823108673,2024-06-11 14:17:52.627981
45.66847738,-3.714600801,6.721886635,3.656412363,2024-06-11 14:17:52.668477
45.70897832,-0.855914712,1.92381084,0.686409533,2024-06-11 14:17:52.708978
45.7494341,-1.472551465,3.058816671,-0.03808208182,2024-06-11 14:17:52.749434
45.78993342,-1.775344014,5.396070957,0.4608464241,2024-06-11 14:17:52.789933
45.8304416,-0.5415378213,5.827889919,0.8018541336,2024-06-11 14:17:52.830442
45.87087962,1.148986936,4.810725689,-0.1587197185,2024-06-11 14:17:52.870880
45.91132056,1.823412657,3.393832445,-1.143261313,2024-06-11 14:17:52.911321
45.95178999,-0.5750926733,-1.412498951,-0.3608476818,2024-06-11 14:17:52.951790
45.99227254,-2.426733971,-0.475093931,0.4216991365,2024-06-11 14:17:52.992273
46.03275707,-2.247375488,4.450809956,0.6169030666,2024-06-11 14:17:53.032757
46.07327243,-0.6495258212,4.906862736,1.444322824,2024-06-11 14:17:53.073272
46.1137792,-1.036205411,1.957631946,2.319278717,2024-06-11 14:17:53.113779
46.15426457,-1.165098667,-1.185737491,1.373751163,2024-06-11 14:17:53.154265
46.19473108,-1.169093251,-1.130079031,0.2725664973,2024-06-11 14:17:53.194731
46.23522592,-1.395322084,-0.273498565,-0.3278254569,2024-06-11 14:17:53.235226
46.2757228,-1.464295983,1.025553107,0.3410077095,2024-06-11 14:17:53.275723
46.3161792,-1.344723582,3.029788971,2.179466724,2024-06-11 14:17:53.316179
46.35668363,-0.2635120153,5.299667358,1.045259953,2024-06-11 14:17:53.356684
46.39718332,-0.2568543255,3.849352598,0.2632457018,2024-06-11 14:17:53.397183
46.43764129,-0.04860125855,1.276548624,-0.5279561281,2024-06-11 14:17:53.437641
46.47815103,2.28346014,-4.512460232,-0.1600512564,2024-06-11 14:17:53.478151
46.51860426,4.77796936,0.3295564651,-0.5170374513,2024-06-11 14:17:53.518604
46.5590853,3.652018309,3.042039156,-1.094660044,2024-06-11 14:17:53.559085
46.59955728,5.493672848,0.3687037826,-0.8278192282,2024-06-11 14:17:53.599557
46.64002785,3.99089551,4.301943779,-0.481485337,2024-06-11 14:17:53.640028
46.68054275,2.291449308,2.561219692,0.9616391063,2024-06-11 14:17:53.680543
46.72104374,1.885329247,-0.1736329794,0.5857450366,2024-06-11 14:17:53.721044
46.76152629,0.5920032263,-1.400781393,-0.1717688292,2024-06-11 14:17:53.761526
46.80200733,-1.17495203,-2.089055061,-0.03941362351,2024-06-11 14:17:53.802007
46.84242598,-2.429397106,-1.622616172,0.429155767,2024-06-11 14:17:53.842426
46.88290332,-3.612471581,1.088401794,0.3378120363,2024-06-11 14:17:53.882903
46.9233878,-4.218189716,3.68024683,0.02183727734,2024-06-11 14:17:53.923388
46.96388785,-3.41566968,4.076779842,0.6326152682,2024-06-11 14:17:53.963888
47.00440311,-3.156818151,4.709661484,-1.421553493,2024-06-11 14:17:54.004403
47.04484348,-6.587001324,-5.00260067,-2.675865412,2024-06-11 14:17:54.044843
47.08533941,-5.681686878,8.773392677,0.9390029311,2024-06-11 14:17:54.085339
47.12579884,0.4966649115,-4.437095165,0.1026618332,2024-06-11 14:17:54.125799
47.16628962,0.2825530469,0.1671084315,1.606238246,2024-06-11 14:17:54.166290
47.20677624,2.692909002,5.607120514,2.858952284,2024-06-11 14:17:54.206776
47.24727254,5.476363182,0.1636464298,3.076526165,2024-06-11 14:17:54.247273
47.28780717,6.241999149,-2.512085676,1.794784546,2024-06-11 14:17:54.287807
47.32824848,6.10871172,-9.052350044,-0.1898777932,2024-06-11 14:17:54.328248
47.36871811,4.406735897,4.771444798,-3.786370754,2024-06-11 14:17:54.368718
47.40919915,1.463896513,0.6252917647,0.3287575543,2024-06-11 14:17:54.409199
47.44967603,0.860308826,-2.820204496,1.030346632,2024-06-11 14:17:54.449676
47.49015509,-1.344989896,-1.726742744,1.052982807,2024-06-11 14:17:54.490155
47.53067374,-3.453751802,-1.873478532,0.6757571697,2024-06-11 14:17:54.530674
47.57115035,-3.484110832,-1.860695839,0.5782883763,2024-06-11 14:17:54.571150
47.61163134,-0.06111774594,4.392754555,0.5220973492,2024-06-11 14:17:54.611631
47.65200785,3.08877635,2.988511324,0.05272903293,2024-06-11 14:17:54.652008
47.69248816,-2.751363754,1.441393495,-0.331553787,2024-06-11 14:17:54.692488
47.73301186,-4.58103466,0.8543168902,0.7637720704,2024-06-11 14:17:54.733012
47.77351321,-5.195807457,8.908677101,1.76389277,2024-06-11 14:17:54.773513
47.81397571,3.70221734,-2.924064636,0.913969934,2024-06-11 14:17:54.813976
47.85448821,4.284101009,-7.358230114,0.08335448056,2024-06-11 14:17:54.854488
47.89493186,3.170000315,-1.591191888,0.6523220539,2024-06-11 14:17:54.894932
47.93545342,3.470928669,0.4832163453,2.174939632,2024-06-11 14:17:54.935453
47.9759392,4.398213863,1.430741072,3.662537336,2024-06-11 14:17:54.975939
48.01646738,3.742962599,3.09210515,5.495670319,2024-06-11 14:17:55.016467
48.05688879,-0.0842865631,-2.484789133,2.400502682,2024-06-11 14:17:55.056889
48.0973942,-4.013132095,-5.80298996,-0.2442046702,2024-06-11 14:17:55.097394
48.13784056,-6.890726089,-5.254261971,1.237001896,2024-06-11 14:17:55.137841
48.17835624,-3.321929216,-4.18530035,3.399424791,2024-06-11 14:17:55.178356
48.21880457,1.985194921,-1.287334085,2.657623291,2024-06-11 14:17:55.218805
48.25928915,2.234193087,4.070122242,2.160292625,2024-06-11 14:17:55.259289
48.29984191,1.302780032,0.6074491143,1.269757748,2024-06-11 14:17:55.299842
48.34027504,0.4042559266,6.221892834,-1.095991611,2024-06-11 14:17:55.340275
48.380769,-0.8356752992,0.004660394508,0.04314193875,2024-06-11 14:17:55.380769
48.42125087,-0.7464620471,-0.09374050796,0.4936023653,2024-06-11 14:17:55.421251
48.4617328,-0.4230306745,1.247787356,0.05619104207,2024-06-11 14:17:55.461733
48.50212926,-0.4153077304,-0.5483286977,-0.4878767133,2024-06-11 14:17:55.502129
48.54265842,-0.3924052119,0.409715265,-0.2007964253,2024-06-11 14:17:55.542658
48.58313275,-0.5021241903,0.2970668674,0.1181077138,2024-06-11 14:17:55.583133
48.6235892,-0.7927996516,-0.7026543617,0.1213034093,2024-06-11 14:17:55.623589
48.66407946,-0.55778265,-0.8834776282,0.162847504,2024-06-11 14:17:55.664079
48.70458988,-0.238479048,-1.055246472,0.3058550358,2024-06-11 14:17:55.704590
48.74505733,-0.2400768995,-0.8437976837,0.1133141592,2024-06-11 14:17:55.745057
48.78554077,-0.003595161485,-0.5065183043,0.1695052087,2024-06-11 14:17:55.785541
48.82602176,-0.02995967865,-1.001718521,0.03062544949,2024-06-11 14:17:55.826022
48.86651264,-0.1191729456,-1.195058346,-0.1379476786,2024-06-11 14:17:55.866513
48.90699061,-0.2299571782,-1.34858501,-0.316107899,2024-06-11 14:17:55.906991
48.94749056,-0.2890776098,-1.883332014,-0.2428731322,2024-06-11 14:17:55.947491
48.98796514,-0.4102478623,-0.8648360372,-0.3757609427,2024-06-11 14:17:55.987965
49.02844035,-0.3916063011,-1.062170506,-0.5633751154,2024-06-11 14:17:56.028440
49.06892769,-0.5045210123,-1.174286246,-0.7987915874,2024-06-11 14:17:56.068928
49.10944139,-0.8617734909,-0.8376725912,-0.6784203053,2024-06-11 14:17:56.109441
49.14988889,-1.208107352,-0.756182313,-0.8392704725,2024-06-11 14:17:56.149889
49.1903817,-1.368158698,-1.281475306,-1.131011128,2024-06-11 14:17:56.190382
49.23089082,-1.675744653,-1.816488624,-1.043795228,2024-06-11 14:17:56.230891
49.27137285,-1.278146505,-1.308905125,-0.5089150667,2024-06-11 14:17:56.271373
49.31185488,0.04846810177,-0.3326190114,0.2541912198,2024-06-11 14:17:56.311855
49.35233691,-0.01051917579,-0.2500634491,1.649912834,2024-06-11 14:17:56.352337
49.392819,1.061105251,1.621151567,2.192782164,2024-06-11 14:17:56.392819
49.43327712,0.3219666779,-4.703403473,2.501699686,2024-06-11 14:17:56.433277
49.47373967,-1.264032125,-2.290117741,2.266815901,2024-06-11 14:17:56.473740
49.51422426,-2.327534199,0.9200950265,2.085193634,2024-06-11 14:17:56.514224
49.5547154,-2.03512764,2.287321568,1.919683099,2024-06-11 14:17:56.554715
49.59518978,-2.792375326,-2.549102545,1.347120285,2024-06-11 14:17:56.595190
49.6356665,-2.882653713,-5.81337595,0.861507237,2024-06-11 14:17:56.635666
49.67615811,-1.617423177,-4.044956207,0.9619054198,2024-06-11 14:17:56.676158
49.71663551,-1.132076383,-3.22166419,0.5695002079,2024-06-11 14:17:56.716636
49.75714488,-0.5322170258,-1.951373696,0.8412677646,2024-06-11 14:17:56.757145
49.797619,-0.01291595027,-0.4505935609,1.378012061,2024-06-11 14:17:56.797619
49.83807295,0.03382114694,-2.102370501,0.628354311,2024-06-11 14:17:56.838073
49.87854577,0.4580501914,-0.5177032351,-0.3944025338,2024-06-11 14:17:56.878546
49.91906915,-0.8812140226,-1.037403822,-0.4979964495,2024-06-11 14:17:56.919069
49.95954431,-2.337653875,-1.524881124,-0.2258294076,2024-06-11 14:17:56.959544
50.00000848,-3.002492428,-0.7138392925,-0.154458791,2024-06-11 14:17:57.000008
50.04049884,-3.717530012,0.6431344151,-0.2977326214,2024-06-11 14:17:57.040499
50.08098431,-4.265725613,0.599193573,-0.1347519755,2024-06-11 14:17:57.080984
50.12142962,-2.599301815,-2.957353115,-0.6485937834,2024-06-11 14:17:57.121430
50.16189321,-0.1388797611,1.895315886,-0.1587197185,2024-06-11 14:17:57.161893
50.20235941,1.611697555,3.892760992,0.5852124095,2024-06-11 14:17:57.202359
50.24283254,1.534468174,1.660032511,2.303832769,2024-06-11 14:17:57.242833
50.28331295,1.278545976,-0.6951977015,2.999030352,2024-06-11 14:17:57.283313
50.32385129,2.484922409,-2.707822323,1.487464786,2024-06-11 14:17:57.323851
50.3643116,1.536864996,-3.42352581,1.423817039,2024-06-11 14:17:57.364312
50.40479202,1.253512979,-1.419422984,0.5846797824,2024-06-11 14:17:57.404792
50.44528321,1.436733007,-0.790536046,0.5133091807,2024-06-11 14:17:57.445283
50.48579551,1.4993155,-1.876407981,0.3170399666,2024-06-11 14:17:57.485796
50.52624811,-0.1452711523,-2.907819748,0.09680305421,2024-06-11 14:17:57.526248
50.56674759,-1.978137732,-4.010868549,0.3013277948,2024-06-11 14:17:57.566748
50.60720712,-1.722082376,-0.8624392748,0.2331528813,2024-06-11 14:17:57.607207
50.64768754,-1.223020673,0.7453967929,-0.2055899799,2024-06-11 14:17:57.647688
50.68823493,-0.8700290918,1.900908351,0.6339467764,2024-06-11 14:17:57.688235
50.72868894,-0.000133154128,-0.8392704725,0.8553821445,2024-06-11 14:17:57.728689
50.76913842,-1.154978871,-0.4756265581,0.08255556226,2024-06-11 14:17:57.769138
50.80966165,0.2529928386,0.5629756451,-0.0260982085,2024-06-11 14:17:57.809662
50.85010592,1.261502266,0.6029219031,0.2190385461,2024-06-11 14:17:57.850106
50.89055384,-1.427279115,-0.3203688264,-1.001452208,2024-06-11 14:17:57.890554
50.93111889,-1.904370308,-0.5840139985,-0.8033188581,2024-06-11 14:17:57.931119
50.97150957,-1.392392755,0.1450048387,0.4083836973,2024-06-11 14:17:57.971510
51.01199134,-1.039401174,1.892386436,0.910774231,2024-06-11 14:17:58.011991
51.05247321,-1.491193056,4.332569122,0.7555165291,2024-06-11 14:17:58.052473
51.09296051,-1.187202215,3.663469553,-0.06471290439,2024-06-11 14:17:58.092961
51.13348045,0.05086487532,0.4001281559,-0.4458000064,2024-06-11 14:17:58.133480
51.17396233,-0.3860138059,2.095845938,-0.05912043154,2024-06-11 14:17:58.173962
51.21444863,0.7423342466,1.144060254,0.05459319428,2024-06-11 14:17:58.214449
51.25492207,0.9149020314,-0.1046591476,0.4214328229,2024-06-11 14:17:58.254922
51.29539957,-0.1729672104,-0.3336842358,0.7147713304,2024-06-11 14:17:58.295400
51.33589144,1.622083545,-4.016460896,0.6371424794,2024-06-11 14:17:58.335891
51.37636759,2.445641756,-2.9629457,0.9328778386,2024-06-11 14:17:58.376368
51.41684978,3.501820326,0.02782921307,0.1828206182,2024-06-11 14:17:58.416850
51.45733712,2.835650206,-0.3118469715,0.6006582975,2024-06-11 14:17:58.457337
51.49780363,1.703307629,-1.237933874,0.2744306624,2024-06-11 14:17:58.497804
51.53829436,-0.1894783229,-3.103423357,-0.297998935,2024-06-11 14:17:58.538294
51.57879446,-1.623281956,-2.289851427,-0.1496652365,2024-06-11 14:17:58.578794
51.6192703,-0.7310161591,-0.0822892487,0.3492632806,2024-06-11 14:17:58.619270
51.65973134,-0.9158340693,0.2227668613,-0.01571218669,2024-06-11 14:17:58.659731
51.70020848,-2.406228304,2.935649157,0.1916087866,2024-06-11 14:17:58.700208
51.74069493,0.1203713343,-1.621817231,0.8828118443,2024-06-11 14:17:58.740695
51.78123545,-1.124087095,-0.2940043211,0.02396774292,2024-06-11 14:17:58.781235
51.82169259,-0.01478010789,0.8732247949,-0.5585815907,2024-06-11 14:17:58.821693
51.86211295,1.677742004,0.3860138059,-0.2870802879,2024-06-11 14:17:58.862113
51.90257785,-0.4840152562,0.650857389,-0.4655068219,2024-06-11 14:17:58.902578
51.94306056,-1.386533976,0.08188978583,-0.7543181181,2024-06-11 14:17:58.943061
51.98354327,-1.400381923,-1.189998388,0.4339492917,2024-06-11 14:17:58.983543
52.02407118,-1.345522404,0.2193048447,0.5679023266,2024-06-11 14:17:59.024071
52.06456082,-1.849244475,2.922333717,0.1798912287,2024-06-11 14:17:59.064561
52.10502108,-1.843918324,3.335510969,0.2456693649,2024-06-11 14:17:59.105021
52.14549551,-0.02090519853,1.023955226,-0.319303602,2024-06-11 14:17:59.145496
52.18598358,0.2151770741,1.66669023,-0.1291595101,2024-06-11 14:17:59.185984
52.22649264,0.2388785034,2.093449116,-0.2023942769,2024-06-11 14:17:59.226493
52.26697431,1.062703133,-0.1949376464,0.1018629074,2024-06-11 14:17:59.266974
52.30745082,0.2732322812,0.2278267145,0.6453980803,2024-06-11 14:17:59.307451
52.34792884,0.8552489877,-2.466680288,0.9821448326,2024-06-11 14:17:59.347929
52.38839196,2.014488697,-3.275192022,1.078548431,2024-06-11 14:17:59.388392
52.42888222,2.743773937,-1.009175181,0.5657718778,2024-06-11 14:17:59.428882
52.46936665,2.873466015,-0.8677654266,0.009587096982,2024-06-11 14:17:59.469367
52.50983999,1.470021605,-0.9527177811,0.2587184608,2024-06-11 14:17:59.509840
52.55031254,0.02782921307,-2.578662872,0.09893351793,2024-06-11 14:17:59.550313
52.5908354,-1.483470082,-2.062157869,0.3220998347,2024-06-11 14:17:59.590835
52.63134285,-1.047656655,-1.055246472,0.3769593239,2024-06-11 14:17:59.631343
52.6717617,-0.9592423439,-0.1219691783,0.05379426852,2024-06-11 14:17:59.671762
52.71222863,-1.622749329,1.344989896,0.1069227681,2024-06-11 14:17:59.712229
52.75270988,-1.659499884,0.4235632718,0.4930697381,2024-06-11 14:17:59.752710
52.79319118,0.03595161438,-1.540593266,0.6906704903,2024-06-11 14:17:59.793191
52.83369936,-0.6625749469,0.718765974,0.006924014539,2024-06-11 14:17:59.833699
52.87418249,0.6648385525,0.3687037826,-0.9164998531,2024-06-11 14:17:59.874182
52.91466733,0.7173013091,0.6276885867,-0.3485974967,2024-06-11 14:17:59.914667
52.95514108,-0.5426030755,1.818619132,-0.2561885417,2024-06-11 14:17:59.955141
52.99564056,-0.6476616859,0.9834764004,0.0260982085,2024-06-11 14:17:59.995641
53.03617071,-0.2938711643,1.092662811,0.2019948065,2024-06-11 14:18:00.036171
53.07660004,-0.4805532396,2.285723686,-0.02343512699,2024-06-11 14:18:00.076600
53.11707056,-0.62049824,1.982398629,-0.07669677585,2024-06-11 14:18:00.117071
53.1575517,-1.013569236,2.522871256,-0.3339505494,2024-06-11 14:18:00.157552
53.19804811,-0.2664414048,1.15045166,-0.1571218669,2024-06-11 14:18:00.198048
53.23853155,0.6117100716,0.4531235099,-0.08255556226,2024-06-11 14:18:00.238532
53.27899686,0.7553833723,1.646717072,0.0005326165119,2024-06-11 14:18:00.278997
53.31948342,0.9279510975,0.8987903595,0.01065232977,2024-06-11 14:18:00.319483
53.35997556,0.3898752928,-0.0464707911,0.3362141848,2024-06-11 14:18:00.359976
53.40043723,0.07909355313,-0.3973319232,0.761375308,2024-06-11 14:18:00.400437
53.44092264,2.012092113,-2.746437073,0.8425993323,2024-06-11 14:18:00.440923
53.48144061,2.561619043,-2.083462715,0.7142387629,2024-06-11 14:18:00.481441
53.52189098,3.225126028,-0.528621912,-0.04207670316,2024-06-11 14:18:00.521891
53.56237249,2.998098373,-0.04354140162,-0.1446053833,2024-06-11 14:18:00.562372
53.60285394,1.110372305,-0.9625712037,0.1647116542,2024-06-11 14:18:00.602854
53.64333545,-0.3737636507,-1.793319821,0.2890776098,2024-06-11 14:18:00.643335
53.68381144,-0.5175700784,-1.270689845,0.4350145459,2024-06-11 14:18:00.683811
53.72428384,-1.308771968,-0.3395430148,-0.02742975019,2024-06-11 14:18:00.724284
53.7647767,-1.727408528,0.4613790512,-0.1158440933,2024-06-11 14:18:00.764777
53.80526504,-1.87560904,1.014368176,0.09680305421,2024-06-11 14:18:00.805265
53.84573441,-1.145658135,-0.08308817446,0.03941362351,2024-06-11 14:18:00.845734
53.8862253,0.02676397935,-0.002529928461,0.04979964346,2024-06-11 14:18:00.886225
53.92665488,0.1717688292,0.7113093734,0.1604507267,2024-06-11 14:18:00.926655
53.96716764,0.3645760119,0.261115253,0.01517957076,2024-06-11 14:18:00.967168
54.00766426,0.2599168718,-0.1222354919,-0.3312874734,2024-06-11 14:18:01.007664
54.04815113,-0.5074504018,1.108374953,-0.2940043211,2024-06-11 14:18:01.048151
54.08863676,-1.109972835,1.646717072,-0.2069215178,2024-06-11 14:18:01.088637
54.12909946,-0.2113156021,-0.6300853491,-0.4790885448,2024-06-11 14:18:01.129099
54.16958472,0.5251598954,1.847646713,0.1125152409,2024-06-11 14:18:01.169585
54.21007259,1.261502266,0.7078473568,0.3061213493,2024-06-11 14:18:01.210073
54.250549,0.9300816059,1.651510596,0.1524614692,2024-06-11 14:18:01.250549
54.291049,0.02676397935,3.834173203,-0.1009308323,2024-06-11 14:18:01.291049
54.33155332,0.6576482654,0.6026555896,-0.3536573648,2024-06-11 14:18:01.331553
54.37199446,0.5113118291,0.7216953635,-0.4074516296,2024-06-11 14:18:01.371994
54.41248045,0.2114487588,1.273619175,-0.2372806519,2024-06-11 14:18:01.412480
54.45294686,0.1219691783,1.358038902,-0.1222354919,2024-06-11 14:18:01.452947
54.49339827,0.5310186744,0.07709623873,-0.3789566457,2024-06-11 14:18:01.493398
54.5339191,0.5398068428,-0.004926702939,-0.4162397981,2024-06-11 14:18:01.533919
54.5744417,0.6400718689,0.3274259865,-0.09533835202,2024-06-11 14:18:01.574442
54.61490025,0.7181001902,0.4001281559,0.3055887222,2024-06-11 14:18:01.614900
54.65536483,0.6322157979,0.7920007706,0.4174381793,2024-06-11 14:18:01.655365
54.6958353,0.5525896549,1.987458467,0.4081174135,2024-06-11 14:18:01.695835
54.73631269,0.7311493158,-0.4785559475,-0.302526176,2024-06-11 14:18:01.736313
54.77680327,0.6005251408,-0.1027949899,-0.5388747454,2024-06-11 14:18:01.776803
54.81729384,-0.08082455397,-0.8571131229,-0.06577813625,2024-06-11 14:18:01.817294
54.85780233,-0.09227581322,-0.4588491321,0.2757622004,2024-06-11 14:18:01.857802
54.89829639,-0.2893439233,-0.3877448142,0.2975994647,2024-06-11 14:18:01.898296
54.93875134,-0.7339455485,-0.8720263839,-0.03648423031,2024-06-11 14:18:01.938751
54.97921228,-0.9653674364,-0.7058500051,-0.006391398143,2024-06-11 14:18:01.979212
55.01971504,-0.6641727686,-0.2556559145,-0.05912043154,2024-06-11 14:18:02.019715
55.06018686,-0.01557903271,0.05472634733,-0.1624480337,2024-06-11 14:18:02.060187
55.10065035,0.2846835256,0.2648435533,-0.1712362021,2024-06-11 14:18:02.100650
55.14112868,-0.416905582,-0.2508623898,-0.1738992929,2024-06-11 14:18:02.141129
55.18163103,-1.495453954,-1.171889424,-0.2018616647,2024-06-11 14:18:02.181631
55.22210285,-1.841521621,-1.323285699,-0.08388710022,2024-06-11 14:18:02.222103
55.26257462,-1.082276702,-0.9468590021,0.2709686458,2024-06-11 14:18:02.262575
55.30303665,-0.05818835273,-0.4852136374,0.5007926822,2024-06-11 14:18:02.303037
55.34350858,0.3778914213,-0.1973344237,0.499727428,2024-06-11 14:18:02.343509
55.38400889,0.3403419554,-0.2420742065,0.3689700961,2024-06-11 14:18:02.384009
55.4245416,0.07962616533,-0.4133104086,0.2493976802,2024-06-11 14:18:02.424542
55.46499087,0.03435376659,-0.5874760151,0.1466026902,2024-06-11 14:18:02.464991
55.50549577,0.1515294015,-0.744731009,0.1591191888,2024-06-11 14:18:02.505496
55.54596092,0.1334204376,-0.405321151,0.1162435561,2024-06-11 14:18:02.545961
55.58650217,0.07776200771,0.1109173894,-0.06897383928,2024-06-11 14:18:02.586502
55.62693603,-0.08188978583,0.3940030634,-0.1302247345,2024-06-11 14:18:02.626936
55.66741811,-0.4344819188,0.484814167,-0.3693695366,2024-06-11 14:18:02.667418
55.7079078,-1.970148444,0.5436683297,-1.045925617,2024-06-11 14:18:02.707908
55.74836196,-2.032997131,-4.201545238,-0.6041202545,2024-06-11 14:18:02.748362
55.78887144,-0.904915452,-2.180132627,0.02183727734,2024-06-11 14:18:02.788871
55.82933056,-0.5842803121,0.3718994856,0.4400743842,2024-06-11 14:18:02.829331
55.86981702,-0.3740299344,-0.5030562878,0.2318213433,2024-06-11 14:18:02.869817
55.91029358,-0.2347507328,-0.6872084737,0.2371474952,2024-06-11 14:18:02.910294
55.95074795,-0.1870815456,0.01478010789,0.05912043154,2024-06-11 14:18:02.950748
55.99130514,0.146735847,-0.7937317491,-0.2399437428,2024-06-11 14:18:02.991305
56.0317704,0.2572537661,-0.5525896549,-0.1201050207,2024-06-11 14:18:03.031770
56.0721667,0.4247616827,-0.481485337,-0.04127778113,2024-06-11 14:18:03.072167
56.11266462,0.6531209946,-0.5517907143,-0.2271609455,2024-06-11 14:18:03.112665
56.15314598,0.6151720881,-0.1776276082,-0.05299534276,2024-06-11 14:18:03.153146
56.19362733,-0.570032835,-0.1451379955,0.1420754492,2024-06-11 14:18:03.193627
56.23414998,-1.107309699,-0.5627093315,0.08308817446,2024-06-11 14:18:03.234150
56.27462493,-0.9477910995,-0.5219641924,0.05858781561,2024-06-11 14:18:03.274625
56.31511103,-0.9062470198,-0.7918676138,-0.1446053833,2024-06-11 14:18:03.315111
56.35557837,-0.9464595318,-1.206243277,-0.2559222281,2024-06-11 14:18:03.355578
56.3960541,-0.8516538143,-1.618887901,-0.1912093312,2024-06-11 14:18:03.396054
56.43653795,-0.3026593328,-1.021159053,0.06364767253,2024-06-11 14:18:03.436538
56.4770378,-0.03422060981,-0.5885412693,0.4661726058,2024-06-11 14:18:03.477038
56.51750884,-0.8625724316,-1.003582716,0.4440690279,2024-06-11 14:18:03.517509
56.55802561,-1.625945091,-1.174019933,0.05592473224,2024-06-11 14:18:03.558026
56.59850358,-0.7264889479,-0.6962629557,-0.128626883,2024-06-11 14:18:03.598504
56.63897681,0.2852161527,-0.03715000302,0.04181039706,2024-06-11 14:18:03.638977
56.67944894,0.05912043154,-0.1147788614,-0.03754946589,2024-06-11 14:18:03.679449
56.71990957,-0.129292652,-0.490539819,-0.1600512564,2024-06-11 14:18:03.719910
56.76040691,0.1715025157,-0.28574875,-0.1294258088,2024-06-11 14:18:03.760407
56.80089561,0.3195699155,-0.1581871063,-0.1283605844,2024-06-11 14:18:03.800896
56.84142061,0.1949376464,-0.2327534109,-0.2505960763,2024-06-11 14:18:03.841421
56.88190702,0.1882799417,-0.2862813771,-0.2071878165,2024-06-11 14:18:03.881907
56.92238848,0.1459369212,-0.2814878225,-0.1531272531,2024-06-11 14:18:03.922388
56.96287243,-0.08774857223,-0.482816875,-0.004260932095,2024-06-11 14:18:03.962872
57.00335493,-0.4824174047,-1.036338568,0.03035914153,2024-06-11 14:18:04.003355
57.04377353,-0.3665733039,-0.7170349956,-0.04953333735,2024-06-11 14:18:04.043774
57.08426874,0.2103835195,-0.3110480309,-0.0298265256,2024-06-11 14:18:04.084269
57.12473535,0.2439383566,-0.219171688,-0.005592473317,2024-06-11 14:18:04.124735
57.16522598,0.2183727771,-0.1717688292,-0.08921326697,2024-06-11 14:18:04.165226
57.20571582,0.3376788795,0.2685718834,0.03435376659,2024-06-11 14:18:04.205716
57.24618473,0.4127778113,0.4627105892,0.04953333735,2024-06-11 14:18:04.246185
57.286679,0.339276731,0.3830844164,-0.01091863867,2024-06-11 14:18:04.286679
57.32714889,0.4210333526,0.524227798,-0.0181089621,2024-06-11 14:18:04.327149
57.36763243,0.4338161349,0.7118419409,0.1404775977,2024-06-11 14:18:04.367632
57.40811598,0.2940043211,0.7496577501,0.09600412846,2024-06-11 14:18:04.408116
57.44859561,0.1632469594,0.8718932271,-0.08069140464,2024-06-11 14:18:04.448596
57.48908176,-0.127961114,0.5106461048,-0.005326164886,2024-06-11 14:18:04.489082
57.52955139,-0.4589822888,0.001464695437,-0.1163767055,2024-06-11 14:18:04.529551
57.57004254,-0.07150376588,0.3934704363,-0.08122401685,2024-06-11 14:18:04.570043
57.61053967,0.5006595254,0.8250229955,-0.3049229383,2024-06-11 14:18:04.610540
57.65102431,0.5118444562,0.9789491296,-0.3150426745,2024-06-11 14:18:04.651024
57.69153389,0.4934692085,0.7927996516,-0.2719007432,2024-06-11 14:18:04.691534
57.73201743,0.3480648994,0.6063839197,-0.1810896099,2024-06-11 14:18:04.732017
57.77245973,-0.01451379992,0.7805495262,-0.04607132822,2024-06-11 14:18:04.772460
57.81294129,-0.2390116602,0.6021229625,0.2142449915,2024-06-11 14:18:04.812941
57.8534229,-0.4928034246,-0.2338186502,0.2696371078,2024-06-11 14:18:04.853423
57.89390446,-0.874556303,-0.5400731564,0.00798924733,2024-06-11 14:18:04.893904
57.93437952,-0.8820129633,-0.7375407219,-0.1424749196,2024-06-11 14:18:04.934380
57.97485223,-0.9592423439,-0.8829450011,0.1695052087,2024-06-11 14:18:04.974852
58.01532769,-0.9832100868,-0.9122389555,0.3130453527,2024-06-11 14:18:05.015328
58.05581561,-0.7416685224,-0.3832175732,0.3966661394,2024-06-11 14:18:05.055816
58.09630551,-0.4813521802,-0.3067871034,0.229424566,2024-06-11 14:18:05.096306
58.13678931,-0.5893401504,-0.52622509,-0.0708379969,2024-06-11 14:18:05.136789
58.17726196,-0.8407351375,-0.5065183043,-0.1278279573,2024-06-11 14:18:05.177262
58.2177441,-0.8093107939,-0.5339480639,0.1189066395,2024-06-11 14:18:05.217744
58.25822186,-0.3322195411,-0.2511286736,0.2581858635,2024-06-11 14:18:05.258222
58.29870769,-0.1636464298,0.3953346014,0.2067883611,2024-06-11 14:18:05.298708
58.33917874,-0.1042596847,0.1742987484,0.173233524,2024-06-11 14:18:05.339179
58.37963384,0.03994623944,0.09946613014,0.08708280325,2024-06-11 14:18:05.379634
58.42014806,0.1073222235,0.2161091566,0.06950645149,2024-06-11 14:18:05.420148
58.46062181,0.1201050207,0.3817528784,0.05512581021,2024-06-11 14:18:05.460622
58.50113353,0.08468602598,0.4094489515,-0.03541899845,2024-06-11 14:18:05.501134
58.54164525,0.1238333359,0.3061213493,-0.1517957002,2024-06-11 14:18:05.541645
58.58213118,0.1334204376,0.3189041317,-0.2175738513,2024-06-11 14:18:05.582131
58.62261254,0.04447348043,0.2973331809,-0.2564548552,2024-06-11 14:18:05.622613
58.66309394,-0.03182383627,0.3556546867,-0.1728340536,2024-06-11 14:18:05.663094
58.7035753,0.305721879,0.5579158068,-0.1129147038,2024-06-11 14:18:05.703575
58.74400915,0.6872084737,0.3122464418,0.07536523789,2024-06-11 14:18:05.744009
58.7844915,0.7758890986,0.04300878197,0.4395417869,2024-06-11 14:18:05.784492
58.82496837,0.6696321368,-0.9172987938,0.3434045017,2024-06-11 14:18:05.824968
58.86543394,0.9220923185,-1.556039095,-0.1323551983,2024-06-11 14:18:05.865434
58.90591556,2.048576355,-1.924476624,-0.3051892519,2024-06-11 14:18:05.905916
58.94640879,2.834318876,-1.583735228,-0.2415415943,2024-06-11 14:18:05.946409
58.98689139,2.140452623,0.1090532318,0.1812227666,2024-06-11 14:18:05.986891
59.02737071,1.103980899,-0.08441971987,0.3194367588,2024-06-11 14:18:06.027371
59.0678504,0.3344831765,0.5722964406,0.4781564772,2024-06-11 14:18:06.067850
59.10834868,-0.04860125855,1.405974388,0.7203638554,2024-06-11 14:18:06.108349
59.14883025,-0.5556522012,1.875076413,0.6805507541,2024-06-11 14:18:06.148830
59.18931254,-1.289065123,1.772547722,0.5026568174,2024-06-11 14:18:06.189313
59.2297954,-1.476279855,1.962691903,0.2603163123,2024-06-11 14:18:06.229795
59.27025754,-0.03262276202,-0.3573856652,0.8484581113,2024-06-11 14:18:06.270258
59.31072858,1.844184637,0.4581833482,1.002117991,2024-06-11 14:18:06.310729
59.35128754,1.834597588,0.7714950442,0.3340837061,2024-06-11 14:18:06.351288
59.39168806,0.2234326303,-1.056311727,-0.7314156294,2024-06-11 14:18:06.391688
59.43217467,0.4423380196,1.623814583,-1.056045413,2024-06-11 14:18:06.432175
59.47265587,0.7979927063,-0.1608501822,-1.492391467,2024-06-11 14:18:06.472656
59.51311519,0.432484597,-0.4146419466,-1.342992544,2024-06-11 14:18:06.513115
59.55362978,0.348331213,-0.6284874678,-1.168027997,2024-06-11 14:18:06.553630
59.59410957,0.4644415975,-0.1334204376,-1.083741426,2024-06-11 14:18:06.594110
59.63459212,1.049387693,0.5581821203,-0.9873378873,2024-06-11 14:18:06.634592
59.67507337,1.143660784,0.3519263566,-0.4857462645,2024-06-11 14:18:06.675073
59.71553519,0.8067808747,-0.3278254569,-0.2961347699,2024-06-11 14:18:06.715535
59.75605769,0.3850817382,-0.5736280084,-0.02130465955,2024-06-11 14:18:06.756058
59.79652811,-0.1676410437,1.359903097,0.9363398552,2024-06-11 14:18:06.796528
59.83704702,0.9945281744,2.081997871,1.531405568,2024-06-11 14:18:06.837047
59.87752598,-0.3844159544,-1.756302953,0.2419410497,2024-06-11 14:18:06.877526
59.91795493,-0.8713606,-2.59623909,0.8202294111,2024-06-11 14:18:06.917955
59.95842176,0.0868164897,-1.769085765,0.7307498455,2024-06-11 14:18:06.958422
59.99894452,-1.195590973,-0.3784240186,0.6853442788,2024-06-11 14:18:06.998945
60.03947436,-3.174394369,-2.350037098,1.078282118,2024-06-11 14:18:07.039474
60.0799342,-5.371837139,-1.704372883,0.8830781579,2024-06-11 14:18:07.079934
60.12036426,-4.080774784,-0.3312874734,0.2214353085,2024-06-11 14:18:07.120364
60.1608465,-2.085193634,-0.422098577,0.7251573801,2024-06-11 14:18:07.160846
60.20138108,-0.749125123,-0.7636389136,0.5189016461,2024-06-11 14:18:07.201381
60.24187535,-0.7102441192,-1.5832026,0.2400768995,2024-06-11 14:18:07.241875
60.28224249,-1.94911015,-3.737103701,-0.04447348043,2024-06-11 14:18:07.282242
60.3227241,-2.700498819,-3.81726265,-0.05619104207,2024-06-11 14:18:07.322724
60.36320243,-1.778539658,-0.1081211492,0.1734998226,2024-06-11 14:18:07.363202
60.40373978,-0.6897383928,-0.516371727,-0.3693695366,2024-06-11 14:18:07.403740
60.44421446,-1.018362761,-0.1592523307,-0.2575200796,2024-06-11 14:18:07.444214
60.48469707,-0.9906666875,-0.8664339185,0.2001306564,2024-06-11 14:18:07.484697
60.52517978,-1.172555208,-1.76429224,0.3218335211,2024-06-11 14:18:07.525180
60.56567415,-1.401447177,-3.83057785,-0.0330222249,2024-06-11 14:18:07.565674
60.60614884,-1.264032125,-3.593430519,-0.1083874628,2024-06-11 14:18:07.606149
60.64663071,-1.104912996,0.3793561161,-0.6171693802,2024-06-11 14:18:07.646631
60.68712446,-1.294657588,0.8487244248,-1.172555208,2024-06-11 14:18:07.687124
60.72758759,-2.117416859,-5.202331543,-0.2263620198,2024-06-11 14:18:07.727588
60.76808071,-2.901295185,-5.159189701,-0.5745600462,2024-06-11 14:18:07.768081
60.80856603,-2.267881155,-0.2748301327,0.6749582887,2024-06-11 14:18:07.808566
60.84904384,-3.414071798,-1.644719839,0.226228863,2024-06-11 14:18:07.849044
