Time (s),Linear Acceleration x (m/s^2),Linear Acceleration y (m/s^2),Linear Acceleration z (m/s^2),Datetime
0.082678183,-0.3963871002,-0.9217019081,1.414814949,2024-06-11 14:17:07.082678
0.122797089,-1.263534307,-0.02376413345,0.08709812164,2024-06-11 14:17:07.122797
0.20792011,-1.804140687,0.2920832634,-0.1901378632,2024-06-11 14:17:07.207920
0.248343079,-1.572440386,-0.2420520782,0.7412586212,2024-06-11 14:17:07.248343
0.288885683,0.2484149337,-0.737850666,2.237505913,2024-06-11 14:17:07.288886
0.329302923,1.250724912,-2.985943556,-1.592435837,2024-06-11 14:17:07.329303
0.3698261,1.16006732,-2.412796974,1.444450378,2024-06-11 14:17:07.369826
0.409693756,3.913071871,-0.5269525051,2.25736618,2024-06-11 14:17:07.409694
0.450789954,2.136282206,-1.399752617,0.4426584244,2024-06-11 14:17:07.450790
0.491294381,0.1635072827,-2.157945156,-1.411789894,2024-06-11 14:17:07.491294
0.53168761,0.2553634644,0.590965271,-5.513341904,2024-06-11 14:17:07.531688
0.572219694,-0.1194729805,-0.5463166237,-1.242385864,2024-06-11 14:17:07.572220
0.612740631,-0.4221591651,0.6057906151,-4.261101246,2024-06-11 14:17:07.612741
0.652730319,-0.4166878462,0.660369873,-2.352828979,2024-06-11 14:17:07.652730
0.693543756,0.4145900011,0.5933804512,0.2046880722,2024-06-11 14:17:07.693544
0.734015214,-2.514569998,-0.7121543884,-2.940374374,2024-06-11 14:17:07.734015
0.774488808,-0.4238578081,0.5449709892,-0.4005289078,2024-06-11 14:17:07.774489
0.814974433,0.723415494,0.2414312363,0.7460889816,2024-06-11 14:17:07.814974
0.855447141,-0.9693780541,-0.4713299274,-3.768562317,2024-06-11 14:17:07.855447
0.895856464,-0.6882460117,-1.115097642,-5.27531147,2024-06-11 14:17:07.895856
0.936465058,0.7820467949,-3.002785921,-1.201638699,2024-06-11 14:17:07.936465
0.976949537,-0.4801312685,-4.609743118,-5.228257179,2024-06-11 14:17:07.976950
1.017462714,0.8832193613,-6.685973644,-2.057433605,2024-06-11 14:17:08.017463
1.057454641,-1.331255436,-7.75641346,2.191503525,2024-06-11 14:17:08.057455
1.0983861,2.14005518,-5.087403774,4.712835312,2024-06-11 14:17:08.098386
1.138806829,1.554951191,-2.281821728,7.670477867,2024-06-11 14:17:08.138807
1.179322714,-1.174993038,-1.602703094,11.68341637,2024-06-11 14:17:08.179323
1.219785527,1.211257935,1.596039295,10.82535172,2024-06-11 14:17:08.219786
1.260235631,-0.3340997696,2.05198431,11.4795208,2024-06-11 14:17:08.260236
1.300757766,4.493419647,2.868221521,11.2117157,2024-06-11 14:17:08.300758
1.34125136,3.529629946,2.58896327,1.848282337,2024-06-11 14:17:08.341251
1.381739121,-0.4271965027,2.236734629,-4.591828346,2024-06-11 14:17:08.381739
1.422171412,0.497232914,2.263569832,-0.9523916245,2024-06-11 14:17:08.422171
1.46266386,-0.5469322205,0.3445806503,-1.68061018,2024-06-11 14:17:08.462664
1.502938131,-1.175079346,-1.072392941,-1.685673714,2024-06-11 14:17:08.502938
1.543677194,1.272419691,0.06406211853,-1.835047722,2024-06-11 14:17:08.543677
1.584176777,0.1139912605,-0.5750579834,-3.146492958,2024-06-11 14:17:08.584177
1.624622402,-1.193180084,-2.071844101,0.8176846504,2024-06-11 14:17:08.624622
1.665034694,1.427041054,-0.6239161491,-1.967921734,2024-06-11 14:17:08.665035
1.705640579,0.8511047363,-2.176986694,-0.4742064476,2024-06-11 14:17:08.705641
1.746081464,1.785784721,-0.8996095657,0.1803746223,2024-06-11 14:17:08.746081
1.786581985,2.480466843,1.991066694,1.065405369,2024-06-11 14:17:08.786582
1.82707386,-2.862262249,-0.02379703522,1.865130424,2024-06-11 14:17:08.827074
1.867557194,-2.14423418,-2.046723843,3.549062729,2024-06-11 14:17:08.867557
1.907977141,1.349321365,0.01323318481,-4.050931931,2024-06-11 14:17:08.907977
1.948498287,4.695249557,3.609925032,-6.370193005,2024-06-11 14:17:08.948498
1.988980214,13.88214397,9.016592026,-4.934056282,2024-06-11 14:17:08.988980
2.029483131,3.683438301,-3.668530464,-3.586877346,2024-06-11 14:17:09.029483
2.069952246,-5.081653118,-9.679383278,4.223552704,2024-06-11 14:17:09.069952
2.11045735,2.501310587,-2.273893356,5.005436897,2024-06-11 14:17:09.110457
2.150938183,0.8143749237,-0.5039653778,-6.118709564,2024-06-11 14:17:09.150938
2.191400996,-11.19151878,-7.760245323,-2.882591724,2024-06-11 14:17:09.191401
2.231838548,-11.73854351,-2.402418137,4.879897118,2024-06-11 14:17:09.231839
2.272325162,-1.896740079,3.164620876,-2.654318571,2024-06-11 14:17:09.272325
2.312720787,-7.939526081,-0.7198295593,-5.281237125,2024-06-11 14:17:09.312721
2.353276569,0.4966759682,0.157582283,6.038225651,2024-06-11 14:17:09.353277
2.393637975,-1.230112076,-0.6588225365,-0.4379876852,2024-06-11 14:17:09.393638
2.434203704,-0.5156240463,-8.183405876,1.43255043,2024-06-11 14:17:09.434204
2.474785996,7.626435757,-2.410113335,-7.996091366,2024-06-11 14:17:09.474786
2.515273079,15.31082153,6.238355637,2.658621311,2024-06-11 14:17:09.515273
2.555781829,2.314507484,2.303235054,5.792609215,2024-06-11 14:17:09.555782
2.596246516,-0.3083128929,-1.585207939,-5.383141518,2024-06-11 14:17:09.596247
2.636503391,-2.00373292,-1.505619049,-3.779689789,2024-06-11 14:17:09.636503
2.677123183,-1.650645256,0.5638251305,-2.897464037,2024-06-11 14:17:09.677123
2.717685214,-1.523863316,0.2696700096,-2.659680605,2024-06-11 14:17:09.717685
2.758180683,-1.717688799,-0.4861555099,-1.431291223,2024-06-11 14:17:09.758181
2.798668131,-0.9886817932,-0.4553003311,2.06057477,2024-06-11 14:17:09.798668
2.83916011,0.9200339317,0.2922744751,0.2972643375,2024-06-11 14:17:09.839160
2.879639798,1.711186409,0.4398684502,0.02814245224,2024-06-11 14:17:09.879640
2.920073391,2.054148197,0.3324117661,0.4247529507,2024-06-11 14:17:09.920073
2.960581725,-0.9103689194,0.6843881607,1.246056557,2024-06-11 14:17:09.960582
3.001083287,-0.6043488979,0.7959365845,1.277811766,2024-06-11 14:17:10.001083
3.041510527,1.818023682,2.624598026,0.7179670334,2024-06-11 14:17:10.041511
3.081793444,0.6577792168,1.269784927,2.692427397,2024-06-11 14:17:10.081793
3.122023704,-2.036043167,-0.1660461426,3.709607601,2024-06-11 14:17:10.122024
3.162253964,-0.6112570763,-1.927639008,1.315160394,2024-06-11 14:17:10.162254
3.203462714,4.540888786,-4.524076462,3.934842587,2024-06-11 14:17:10.203463
3.243965319,2.124947071,3.568437576,-5.31694746,2024-06-11 14:17:10.243965
3.284431985,-1.38640368,3.341463089,-4.245746613,2024-06-11 14:17:10.284432
3.324908444,-1.322152734,-1.459476471,-2.793899059,2024-06-11 14:17:10.324908
3.365408444,-1.468545437,-3.123114586,-3.426953793,2024-06-11 14:17:10.365408
3.405689277,-2.198464394,0.3373365402,-4.00974226,2024-06-11 14:17:10.405689
3.446361204,-1.553533316,0.3923568726,-0.2053504288,2024-06-11 14:17:10.446361
3.48689136,3.944539309,0.1694278717,5.669292927,2024-06-11 14:17:10.486891
3.527318652,-0.500947237,-0.6087665558,1.816911101,2024-06-11 14:17:10.527319
3.567849433,-0.9766153097,0.4615697861,-0.8573762178,2024-06-11 14:17:10.567849
3.608330006,-0.1656842232,0.842455864,-1.725497603,2024-06-11 14:17:10.608330
3.648610944,0.06708431244,-0.04659175873,-1.825541019,2024-06-11 14:17:10.648611
3.689306048,-0.4047603607,0.02746963501,-1.071550012,2024-06-11 14:17:10.689306
3.729719121,-0.8421835899,0.3581228256,-0.2024637461,2024-06-11 14:17:10.729719
3.770194641,-0.2726624012,-0.556599617,-0.5266887546,2024-06-11 14:17:10.770195
3.810709329,-0.2317043543,0.3897476196,0.7503669858,2024-06-11 14:17:10.810709
3.851205266,-0.4517297745,0.2567090988,0.2606085539,2024-06-11 14:17:10.851205
3.891620006,-0.5407993793,-0.2054281235,0.3147924542,2024-06-11 14:17:10.891620
3.931940579,-0.2380082607,-0.07473659515,-0.07969295979,2024-06-11 14:17:10.931941
3.972604433,-0.09685516357,0.7653636932,0.4280460477,2024-06-11 14:17:10.972604
4.013094016,-0.854726553,0.1545038223,0.5672028065,2024-06-11 14:17:11.013094
4.0535461,-1.400184631,-1.963909149,0.807526052,2024-06-11 14:17:11.053546
4.094013964,-1.531182766,-2.917181015,-0.2114446759,2024-06-11 14:17:11.094014
4.134513079,-1.60417068,-1.695472717,-0.7838872671,2024-06-11 14:17:11.134513
4.174833652,0.6456801891,1.067426682,-1.775333405,2024-06-11 14:17:11.174834
4.215447662,2.513880491,1.947932243,-1.64256537,2024-06-11 14:17:11.215448
4.255969589,1.112870693,1.869506836,-0.1434783041,2024-06-11 14:17:11.255970
4.296460423,-0.8375582695,0.7574090958,-0.1766116023,2024-06-11 14:17:11.296460
4.336944746,-1.871497512,-1.809307098,-2.837186813,2024-06-11 14:17:11.336945
4.377443756,-1.57964313,-0.4210786819,-1.880003095,2024-06-11 14:17:11.377444
4.417797141,-0.2693965435,1.548491478,-0.5984039307,2024-06-11 14:17:11.417797
4.458368235,0.9181890488,0.7039318085,-2.013204336,2024-06-11 14:17:11.458368
4.49887735,2.2271626,0.322728157,-3.378644943,2024-06-11 14:17:11.498877
4.539338339,3.830873728,0.6109724045,-2.244564295,2024-06-11 14:17:11.539338
4.579806516,4.347650528,1.837449074,-1.926819324,2024-06-11 14:17:11.579807
4.620293808,3.794595003,2.535695076,-1.876063228,2024-06-11 14:17:11.620294
4.660647194,1.956375837,0.9838418961,-1.689550042,2024-06-11 14:17:11.660647
4.701288652,-0.5170161724,-0.5624217987,1.312078953,2024-06-11 14:17:11.701289
4.741706621,-0.9642860889,-0.8082609177,4.621837139,2024-06-11 14:17:11.741707
4.782066048,-0.5681405067,0.131565094,1.459684014,2024-06-11 14:17:11.782066
4.822467819,-0.1686985493,-0.01392364502,1.052472353,2024-06-11 14:17:11.822468
4.862989902,0.06227779388,-0.09000873566,-0.4347578585,2024-06-11 14:17:11.862990
4.903689589,1.264893532,0.3911781311,-2.132712126,2024-06-11 14:17:11.903690
4.944160891,2.70322752,0.8542404175,-3.176189184,2024-06-11 14:17:11.944161
4.984631048,2.60468173,0.4768676758,-3.947278023,2024-06-11 14:17:11.984631
5.025119277,1.955764532,-0.09753036499,-3.679060936,2024-06-11 14:17:12.025119
5.065615839,1.71511507,-1.731556892,-4.141375542,2024-06-11 14:17:12.065616
5.106128496,1.142993212,-1.645025253,-4.606236458,2024-06-11 14:17:12.106128
5.146577141,-1.313189983,-0.3098545074,-3.499185562,2024-06-11 14:17:12.146577
5.18704485,-0.8686516285,-0.1398077011,-5.286975861,2024-06-11 14:17:12.187045
5.227524121,-0.4412612915,-4.967438698,0.619628489,2024-06-11 14:17:12.227524
5.268025839,-1.873167038,-1.223160744,22.59609413,2024-06-11 14:17:12.268026
5.308536256,-1.555525064,0.6584072113,-2.800243378,2024-06-11 14:17:12.308536
5.348989277,0.09657406807,1.348043442,-4.332526207,2024-06-11 14:17:12.348989
5.389465475,0.9922091961,1.58747673,-1.096453547,2024-06-11 14:17:12.389465
5.429951777,2.328962803,0.1276979446,3.166748762,2024-06-11 14:17:12.429952
5.470451412,-0.1674778461,-1.148881912,6.944308758,2024-06-11 14:17:12.470451
5.510955944,-1.989648104,-0.5048437119,0.5877853632,2024-06-11 14:17:12.510956
5.551413704,-1.56368053,-0.3237905502,-2.697276115,2024-06-11 14:17:12.551414
5.591812766,-0.2929472923,0.4371442795,-5.710885048,2024-06-11 14:17:12.591813
5.632211829,1.828458548,-0.419511795,-2.344693422,2024-06-11 14:17:12.632212
5.672763808,-0.816991806,-0.5245418549,0.2691950798,2024-06-11 14:17:12.672764
5.713334069,-3.477345228,-0.4219455719,-3.519478559,2024-06-11 14:17:12.713334
5.753810787,-1.240734339,-0.9289150238,-2.646615028,2024-06-11 14:17:12.753811
5.794274121,0.9234075546,-0.9007339478,-2.310758591,2024-06-11 14:17:12.794274
5.834758808,-0.3446085453,-0.7414770126,-3.715604305,2024-06-11 14:17:12.834759
5.875237871,-0.4387822151,-1.836239815,-4.428590298,2024-06-11 14:17:12.875238
5.915753183,0.1333460808,0.846549511,-0.09491944313,2024-06-11 14:17:12.915753
5.9562261,3.311674118,2.748096466,5.650203705,2024-06-11 14:17:12.956226
5.996693444,3.006854534,-3.502345085,4.492092133,2024-06-11 14:17:12.996693
6.037183912,-0.1620721817,1.612045288,-0.448015213,2024-06-11 14:17:13.037184
6.077697871,-2.397225142,3.247833252,-0.7772487402,2024-06-11 14:17:13.077698
6.118166725,-0.2345511913,1.492401123,-1.032061815,2024-06-11 14:17:13.118167
6.158617454,-0.1549048424,-1.484303474,1.384304762,2024-06-11 14:17:13.158617
6.199100735,-0.6577606201,-0.5880374908,3.080965042,2024-06-11 14:17:13.199101
6.239594069,0.5251533985,0.6896371841,0.3675071001,2024-06-11 14:17:13.239594
6.280096308,2.511281729,1.014108658,0.8272092342,2024-06-11 14:17:13.280096
6.320603756,2.330509424,1.309891701,0.5403140783,2024-06-11 14:17:13.320604
6.361061152,1.61681962,0.9662647247,0.5097251534,2024-06-11 14:17:13.361061
6.401491464,0.8039278984,0.08181667328,1.53674829,2024-06-11 14:17:13.401491
6.441920944,-0.3422963619,0.2484340668,0.2150543034,2024-06-11 14:17:13.441921
6.482419746,-1.017827988,0.4569387436,-0.4982600808,2024-06-11 14:17:13.482420
6.522883808,-0.231367588,0.8973703384,-0.8808935881,2024-06-11 14:17:13.522884
6.563450319,-0.3033862114,1.983834743,-1.814130902,2024-06-11 14:17:13.563450
6.603879798,0.3117809296,1.064153671,-0.08506184816,2024-06-11 14:17:13.603880
6.644330735,2.447276831,-1.527521133,-0.7662780285,2024-06-11 14:17:13.644331
6.684760266,3.110757351,-2.110603333,-1.584742904,2024-06-11 14:17:13.684760
6.72537386,0.1563527584,-0.5457372665,1.610806227,2024-06-11 14:17:13.725374
6.765860214,-1.316035509,-1.072494507,4.382597446,2024-06-11 14:17:13.765860
6.806324173,-2.559127808,-3.383399963,5.728713036,2024-06-11 14:17:13.806324
6.84683136,-3.483483076,-1.066017151,2.686863899,2024-06-11 14:17:13.846831
6.887267454,-2.344097137,0.130947113,0.1101396084,2024-06-11 14:17:13.887267
6.927764433,-2.299120188,-1.177193642,-1.159171224,2024-06-11 14:17:13.927764
6.968276256,-0.389559269,-0.08416843414,0.3159484863,2024-06-11 14:17:13.968276
7.008762714,2.539707661,0.5614900589,4.947504997,2024-06-11 14:17:14.008763
7.049197975,0.4204752445,0.1723995209,0.7642885447,2024-06-11 14:17:14.049198
7.089756933,-0.7942771912,-0.1356754303,-0.1396176219,2024-06-11 14:17:14.089757
7.130186516,-0.8336832523,0.1588468552,-1.40827775,2024-06-11 14:17:14.130187
7.170728912,-0.6234030724,-0.4406251907,-1.146458149,2024-06-11 14:17:14.170729
7.211207298,-1.311210632,-0.6489133835,-1.675870538,2024-06-11 14:17:14.211207
7.251646516,-1.264173508,0.01929759979,-1.556757092,2024-06-11 14:17:14.251647
7.292085735,-0.9716339111,-0.03573322296,-2.012228012,2024-06-11 14:17:14.292086
7.332554381,-0.2264540195,-0.2437858582,-2.537106752,2024-06-11 14:17:14.332554
7.373058756,2.820194244,0.7441167831,4.087836742,2024-06-11 14:17:14.373059
7.413543548,0.2126748562,-0.3420610428,2.703357697,2024-06-11 14:17:14.413544
7.454045735,-1.136513233,0.3687772751,3.649539232,2024-06-11 14:17:14.454046
7.494517871,-3.588695288,-0.9836320877,4.024142265,2024-06-11 14:17:14.494518
7.535019225,-1.786719799,0.8609600067,3.637280703,2024-06-11 14:17:14.535019
7.575476516,1.114042997,-0.3456554413,-3.498446941,2024-06-11 14:17:14.575477
7.615960527,2.865682125,-1.953615189,-8.674592972,2024-06-11 14:17:14.615961
7.656409589,2.091537476,-2.098233223,-3.739237309,2024-06-11 14:17:14.656410
7.696964694,4.343642712,-3.216567039,-2.663741589,2024-06-11 14:17:14.696965
7.737395266,8.047161102,-3.247793198,-4.115505695,2024-06-11 14:17:14.737395
7.777882246,4.000734329,2.297560692,-3.123120785,2024-06-11 14:17:14.777882
7.818396412,-0.656539917,5.656921864,-3.412084103,2024-06-11 14:17:14.818396
7.858829798,-0.1313352585,-2.78676796,10.59604168,2024-06-11 14:17:14.858830
7.89929761,0.1560873985,-5.032157898,4.640093803,2024-06-11 14:17:14.899298
7.939802506,-1.100509882,1.960021973,0.2508975267,2024-06-11 14:17:14.939803
7.980285423,-2.411190987,2.727328777,-0.9272422194,2024-06-11 14:17:14.980285
8.020782246,-2.863787413,2.416561604,-1.459941149,2024-06-11 14:17:15.020782
8.061320527,-0.9869929552,2.600395679,-3.753523827,2024-06-11 14:17:15.061321
8.101717141,0.3860106468,1.420340538,-2.787313461,2024-06-11 14:17:15.101717
8.14217636,0.3451457024,-1.086013794,-2.261115313,2024-06-11 14:17:15.142176
8.182668548,2.226709127,-1.047135353,-2.615153313,2024-06-11 14:17:15.182669
8.223155423,1.402777195,-0.9423141479,2.755925179,2024-06-11 14:17:15.223155
8.263678339,0.1795284748,0.4249916077,-1.24980402,2024-06-11 14:17:15.263678
8.304160319,0.340460062,0.5380449295,-3.301694155,2024-06-11 14:17:15.304160
8.344646048,0.2218952179,-0.858748436,-2.096291065,2024-06-11 14:17:15.344646
8.385098287,0.6275520325,-2.500310898,3.69666481,2024-06-11 14:17:15.385098
8.425576256,1.752176762,1.163600922,1.347556591,2024-06-11 14:17:15.425576
8.466098912,-3.752850056,1.599183559,1.563930988,2024-06-11 14:17:15.466099
8.506601464,-5.288089275,0.2706642151,0.6786904335,2024-06-11 14:17:15.506601
8.547039641,-0.3653926849,2.393603325,1.2602911,2024-06-11 14:17:15.547040
8.587510787,-1.820033073,1.109462261,1.57258606,2024-06-11 14:17:15.587511
8.627987558,-1.502220154,-0.6988487244,0.5441360474,2024-06-11 14:17:15.627988
8.668470891,-1.621451378,-3.596717834,4.27070713,2024-06-11 14:17:15.668471
8.708975631,-0.7184200287,-4.02463913,8.029874802,2024-06-11 14:17:15.708976
8.749440527,1.517122269,2.697557926,4.188145638,2024-06-11 14:17:15.749441
8.789932246,3.007911682,5.016074657,-1.928383112,2024-06-11 14:17:15.789932
8.830447714,1.909293652,3.419064522,-1.894700766,2024-06-11 14:17:15.830448
8.870911621,2.949872017,0.7826480865,-1.668980598,2024-06-11 14:17:15.870912
8.911346673,-2.356220722,-4.867761612,-1.347711563,2024-06-11 14:17:15.911347
8.951834954,-6.084545612,-3.195079803,0.9630566835,2024-06-11 14:17:15.951835
8.99233386,-1.660408974,0.02379226685,-2.711052895,2024-06-11 14:17:15.992334
9.032867558,0.2250442505,0.4631109238,0.5067039728,2024-06-11 14:17:16.032868
9.073311256,0.4449477196,-0.6674489975,3.197949171,2024-06-11 14:17:16.073311
9.113788756,-2.001060009,-0.4709844589,0.7590601444,2024-06-11 14:17:16.113789
9.154264694,-1.159852266,-0.3714933395,0.05097746849,2024-06-11 14:17:16.154265
9.194755006,-3.82062459,-1.107045174,-0.0083360672,2024-06-11 14:17:16.194755
9.235244694,-1.593683004,-1.024991035,-0.7466833591,2024-06-11 14:17:16.235245
9.275716777,3.286319733,-0.2677631378,0.3014705181,2024-06-11 14:17:16.275717
9.316177871,7.100598335,6.315546513,-6.186893463,2024-06-11 14:17:16.316178
9.356698912,0.5723748207,-1.251383781,1.90373373,2024-06-11 14:17:16.356699
9.397183339,-1.959614754,-5.924666405,-2.151253939,2024-06-11 14:17:16.397183
9.437636621,-2.083615303,-3.024834156,1.471242905,2024-06-11 14:17:16.437637
9.478111048,-3.084735394,-0.1566433907,2.681027889,2024-06-11 14:17:16.478111
9.518621777,2.925149202,5.623939514,-6.279103756,2024-06-11 14:17:16.518622
9.559105683,2.107625723,10.57061195,-1.707885265,2024-06-11 14:17:16.559106
9.599579016,1.573846579,-2.355157375,1.53848362,2024-06-11 14:17:16.599579
9.640050423,3.295860052,-7.274448872,0.8689146042,2024-06-11 14:17:16.640050
9.680566777,4.483047485,1.818427563,1.675629139,2024-06-11 14:17:16.680567
9.721067714,4.482686043,1.228105545,-0.09642601013,2024-06-11 14:17:16.721068
9.761471516,0.3422951698,-1.006984711,-3.06596446,2024-06-11 14:17:16.761472
9.801954589,-2.894249678,0.4249615669,-2.658171892,2024-06-11 14:17:16.801955
9.84242761,-2.866604805,-2.298598766,0.4934902191,2024-06-11 14:17:16.842428
9.8828961,1.022061825,-0.7478704453,-0.9949002266,2024-06-11 14:17:16.882896
9.9234261,3.270077705,0.9092578888,-3.858483791,2024-06-11 14:17:16.923426
9.963895006,1.62611711,-2.321510792,-3.952580214,2024-06-11 14:17:16.963895
10.00439146,2.583770275,-4.852157116,0.2702507973,2024-06-11 14:17:17.004391
10.04487636,3.39234066,2.031274319,0.7179937363,2024-06-11 14:17:17.044876
10.08533896,-2.007653236,3.173444271,0.4660587311,2024-06-11 14:17:17.085339
10.12581678,-2.450356722,-1.002374649,-2.4811728,2024-06-11 14:17:17.125817
10.16631881,6.044174194,-2.463310242,-2.525803089,2024-06-11 14:17:17.166319
10.20681141,7.710459709,-2.15650177,-0.5947699547,2024-06-11 14:17:17.206811
10.24727402,5.71892786,2.758934498,2.589338303,2024-06-11 14:17:17.247274
10.28775074,0.2347812653,-0.7647151947,8.502568245,2024-06-11 14:17:17.287751
10.32824792,-0.03883838654,-9.603152275,9.30809021,2024-06-11 14:17:17.328248
10.36873136,-7.426272869,-1.695499897,-3.821738958,2024-06-11 14:17:17.368731
10.40916339,-6.661004066,5.113477707,-10.06441307,2024-06-11 14:17:17.409163
10.44970032,-7.50569725,5.777862549,-7.649703026,2024-06-11 14:17:17.449700
10.49017027,-7.667295456,4.808046818,-4.177700043,2024-06-11 14:17:17.490170
10.53070344,-4.540624619,3.306221485,-0.6865613461,2024-06-11 14:17:17.530703
10.57116943,-0.186198473,3.722033978,1.271488309,2024-06-11 14:17:17.571169
10.61158527,6.071979046,-0.8983316422,2.98782897,2024-06-11 14:17:17.611585
10.65205829,18.4435463,-22.50325394,18.80343246,2024-06-11 14:17:17.652058
10.69253933,2.142159224,-5.326737404,23.39551163,2024-06-11 14:17:17.692539
10.73301225,-4.808478355,-7.537571907,-3.892960548,2024-06-11 14:17:17.733012
10.77353787,-1.162082911,-3.430372238,-14.07315826,2024-06-11 14:17:17.773538
10.81402084,-1.817274213,-0.2752847672,-9.264011383,2024-06-11 14:17:17.814021
10.85451068,-0.06598567963,-6.72998333,-3.418800831,2024-06-11 14:17:17.854511
10.8949473,12.16872311,-7.870555878,19.00689888,2024-06-11 14:17:17.894947
10.93545532,1.661217928,-2.229205132,18.87951279,2024-06-11 14:17:17.935455
10.97592376,-0.7773747444,-0.01503944397,10.24050522,2024-06-11 14:17:17.975924
11.0164849,-2.763480186,-2.078577995,0.551485002,2024-06-11 14:17:18.016485
11.05689063,-0.5685069561,-1.907985687,-1.047217607,2024-06-11 14:17:18.056891
11.09743334,1.420606375,-4.71554184,-2.091426373,2024-06-11 14:17:18.097433
11.13786672,1.402705908,-5.824433327,-3.289413452,2024-06-11 14:17:18.137867
11.17834074,-0.1336205006,-2.153024673,-3.609108925,2024-06-11 14:17:18.178341
11.21880579,-1.123963594,0.756149292,-4.630688667,2024-06-11 14:17:18.218806
11.25929146,-2.771629333,2.967447281,-8.17436409,2024-06-11 14:17:18.259291
11.29982146,-4.077618599,4.947559357,-6.189507484,2024-06-11 14:17:18.299821
11.34027688,-3.292990923,7.114415646,-5.300031185,2024-06-11 14:17:18.340277
11.38079928,-0.9729454517,6.628727913,-6.6208992,2024-06-11 14:17:18.380799
11.42127584,5.04679966,-7.602440834,25.39781189,2024-06-11 14:17:18.421276
11.46166667,0.8622126579,-4.115013123,-5.202749252,2024-06-11 14:17:18.461667
11.50214318,-5.012084961,5.8647995,-8.219043732,2024-06-11 14:17:18.502143
11.54262891,5.012087822,-3.232082367,-3.80366683,2024-06-11 14:17:18.542629
11.58312011,9.625297546,-9.861956596,-6.847941399,2024-06-11 14:17:18.583120
11.62362615,0.7400071621,2.597399712,-4.899158478,2024-06-11 14:17:18.623626
11.66411141,0.6127164364,2.330846786,-1.860794663,2024-06-11 14:17:18.664111
11.70460376,-2.60626173,-1.386181831,-1.764085174,2024-06-11 14:17:18.704604
11.74508501,-4.434444904,0.9257144928,-0.2817882299,2024-06-11 14:17:18.745085
11.78556751,-3.97708559,0.7698335648,3.681382179,2024-06-11 14:17:18.785568
11.82603391,-0.9065239429,0.526684761,2.261167526,2024-06-11 14:17:18.826034
11.86651355,3.461332321,0.823466301,8.51839447,2024-06-11 14:17:18.866514
11.90698292,-0.01177167892,-0.2976913452,5.145027637,2024-06-11 14:17:18.906983
11.94748391,-4.845081329,-4.210697174,4.197507858,2024-06-11 14:17:18.947484
11.98797725,-4.360784054,-1.973612785,4.462427616,2024-06-11 14:17:18.987977
12.02847521,-2.382110834,-2.419075966,7.003171444,2024-06-11 14:17:19.028475
12.0689835,-3.208686352,-5.589327812,-0.9668242931,2024-06-11 14:17:19.068983
12.10945407,-0.182620883,-8.771068573,-7.049459934,2024-06-11 14:17:19.109454
12.1498912,8.283034325,-8.336073875,-7.816917419,2024-06-11 14:17:19.149891
12.19040063,5.28128624,-2.216972351,-1.770962954,2024-06-11 14:17:19.190401
12.23091792,-1.320313334,-0.08316040039,-4.680119991,2024-06-11 14:17:19.230918
12.27135308,-2.301506519,-0.4089708328,-8.800643921,2024-06-11 14:17:19.271353
12.31177501,-1.656090975,1.648789883,-9.724462509,2024-06-11 14:17:19.311775
12.35227173,-3.229044199,5.146805763,-7.925467014,2024-06-11 14:17:19.352272
12.39278933,-3.039640903,5.533497334,-7.259392738,2024-06-11 14:17:19.392789
12.43326074,5.771288395,-2.217061043,20.0090332,2024-06-11 14:17:19.433261
12.4737349,0.2847924232,-2.361075401,-8.095696449,2024-06-11 14:17:19.473735
12.51421381,7.370035648,-0.02869415283,-7.776959896,2024-06-11 14:17:19.514214
12.55471907,-0.1701581478,-3.775457382,-1.773337722,2024-06-11 14:17:19.554719
12.59520131,-4.495765686,-4.46816349,-7.482518196,2024-06-11 14:17:19.595201
12.63567459,-3.813588142,-3.90521431,-5.116592407,2024-06-11 14:17:19.635675
12.67619574,-5.135104656,-0.8072814941,0.9242727757,2024-06-11 14:17:19.676196
12.71667803,-1.016811967,-0.3738508224,0.03837859631,2024-06-11 14:17:19.716678
12.7571336,-0.01879239082,0.6160840988,-1.197608709,2024-06-11 14:17:19.757134
12.79761006,-0.3439917564,0.9278392792,0.1762577295,2024-06-11 14:17:19.797610
12.83807501,-0.2831475735,0.8594436646,-0.1616973877,2024-06-11 14:17:19.838075
12.87853423,-0.3321619034,0.5433540344,0.4432374239,2024-06-11 14:17:19.878534
12.91902844,-2.543288708,-0.0338602066,-0.6102989912,2024-06-11 14:17:19.919028
12.95953329,-3.31680727,-1.238143921,-0.8238097429,2024-06-11 14:17:19.959533
13.0000237,-2.145140409,-0.5446195602,-1.410599828,2024-06-11 14:17:20.000024
13.04051646,0.3975276947,0.2741556168,-1.393312931,2024-06-11 14:17:20.040516
13.0810361,-0.8453495502,-0.4210987091,-2.213829994,2024-06-11 14:17:20.081036
13.12146542,-2.128256559,-1.694998741,-2.625071764,2024-06-11 14:17:20.121465
13.16191922,-1.089190006,-3.241765976,-2.745678902,2024-06-11 14:17:20.161919
13.20239256,-0.2540354729,-2.567011833,-3.37312746,2024-06-11 14:17:20.202393
13.24291037,-0.4514613152,0.971944809,-0.3139299154,2024-06-11 14:17:20.242910
13.28338745,2.633870602,-0.2500171661,5.108948708,2024-06-11 14:17:20.283387
13.32389068,3.381665707,-0.6144380569,5.230793953,2024-06-11 14:17:20.323891
13.36437725,2.866084814,2.345854759,-1.65958643,2024-06-11 14:17:20.364377
13.4048573,1.246333838,2.240858555,-4.82997036,2024-06-11 14:17:20.404857
13.44532824,0.9213933945,2.530166626,-4.318754196,2024-06-11 14:17:20.445328
13.48577448,0.8519833088,3.647633553,-4.204828262,2024-06-11 14:17:20.485774
13.52628428,0.3333513737,1.864154816,-4.44425869,2024-06-11 14:17:20.526284
13.56673975,-1.511782289,-0.6782445908,-2.476172447,2024-06-11 14:17:20.566740
13.60723641,-1.857241035,-0.6578760147,-1.998787045,2024-06-11 14:17:20.607236
13.64771594,-0.7399185896,-0.7455291748,-0.2337740064,2024-06-11 14:17:20.647716
13.68818589,-0.6735451221,-0.8531265259,1.923034072,2024-06-11 14:17:20.688186
13.72866933,-1.24592638,-2.046649933,0.7234250307,2024-06-11 14:17:20.728669
13.76917959,0.2450910807,-5.468646049,3.126453876,2024-06-11 14:17:20.769180
13.80963495,1.692406416,-5.598453522,13.88135242,2024-06-11 14:17:20.809635
13.85011964,-0.8546380997,-0.7467975616,1.830159545,2024-06-11 14:17:20.850120
13.89058287,-3.223421335,-1.319922447,3.667089939,2024-06-11 14:17:20.890583
13.93111839,-2.39927721,-1.058574677,-0.167072773,2024-06-11 14:17:20.931118
13.97155334,-0.2956485748,0.4355249405,3.908413649,2024-06-11 14:17:20.971553
14.01206042,0.1744916439,1.24590683,1.202348113,2024-06-11 14:17:21.012060
14.05251287,-0.1899394989,1.415639877,0.7763283849,2024-06-11 14:17:21.052513
14.09299214,-1.04595077,0.6426067352,1.451650858,2024-06-11 14:17:21.092992
14.13350646,-2.273703575,0.3739767075,-0.2175859809,2024-06-11 14:17:21.133506
14.17398584,-1.217365503,-0.9644422531,-0.2724110186,2024-06-11 14:17:21.173986
14.21446995,-0.5813212395,0.1711006165,0.7345106006,2024-06-11 14:17:21.214470
14.2549411,-1.712307572,0.0964717865,-0.1095781773,2024-06-11 14:17:21.254941
14.29541271,-4.478512287,-0.6587219238,-1.503270268,2024-06-11 14:17:21.295413
14.3359162,-2.117242813,-0.9302396774,0.7899047732,2024-06-11 14:17:21.335916
14.3764123,-0.5101828575,0.9183063507,1.063111186,2024-06-11 14:17:21.376412
14.41689167,0.02372264862,0.3276910782,0.5859975815,2024-06-11 14:17:21.416892
14.45736553,2.154792309,0.8695282936,0.4642064571,2024-06-11 14:17:21.457366
14.49781339,1.399340153,0.02708721161,4.021115303,2024-06-11 14:17:21.497813
14.53831589,3.409947395,-3.39884758,3.085682392,2024-06-11 14:17:21.538316
14.57879714,0.5827302933,-0.3502826691,-2.085441351,2024-06-11 14:17:21.578797
14.61928886,0.5007305145,3.312112808,-0.06590080261,2024-06-11 14:17:21.619289
14.6597687,-1.93909049,1.355054379,0.886950016,2024-06-11 14:17:21.659769
14.70030162,-1.345011711,3.432144642,-1.425392032,2024-06-11 14:17:21.700302
14.74075021,1.79494524,4.447440147,-1.072431207,2024-06-11 14:17:21.740750
14.78123766,1.785435677,3.613677979,1.160289526,2024-06-11 14:17:21.781238
14.82171798,1.492097378,1.778529644,1.355407357,2024-06-11 14:17:21.821718
14.86212964,3.949850082,-0.344119072,3.747761011,2024-06-11 14:17:21.862130
14.902631,2.879581451,-2.627717018,1.898006678,2024-06-11 14:17:21.902631
14.94311553,4.447672367,-2.164554596,0.145475626,2024-06-11 14:17:21.943116
14.98360589,2.017096043,0.2506046295,-2.43854332,2024-06-11 14:17:21.983606
15.02409084,-5.171759605,1.847604752,-7.449346066,2024-06-11 14:17:22.024091
15.06457865,-4.149736404,-1.835656166,3.552466393,2024-06-11 14:17:22.064579
15.10505245,-4.747606754,-3.015068054,-0.4917573929,2024-06-11 14:17:22.105052
15.14551641,-1.356856585,0.5841684341,-1.96025908,2024-06-11 14:17:22.145516
15.18602574,2.623773098,1.543883801,-0.6547868848,2024-06-11 14:17:22.186026
15.22654089,2.250275612,0.9572105408,0.5617808104,2024-06-11 14:17:22.226541
15.26698344,-0.1063532829,-0.1006660461,3.163544416,2024-06-11 14:17:22.266983
15.30744995,-2.678911924,-0.8598413467,0.8968430758,2024-06-11 14:17:22.307450
15.34794068,-2.091367722,-0.661491394,-1.390910387,2024-06-11 14:17:22.347941
15.38843324,-1.344690442,-0.116727829,-1.434702277,2024-06-11 14:17:22.388433
15.42890266,-0.7425479889,0.3982629776,0.2648239732,2024-06-11 14:17:22.428903
15.46936355,-0.5181951523,-0.2862653732,0.3427703381,2024-06-11 14:17:22.469364
15.50985662,-1.882940412,-0.4207086563,-0.7994728088,2024-06-11 14:17:22.509857
15.55036115,-0.3529953957,-0.0787153244,-0.2633427382,2024-06-11 14:17:22.550361
15.59086469,-0.9152855873,-0.2469758987,0.3152216673,2024-06-11 14:17:22.590865
15.63135751,-2.121951818,-0.6010894775,-1.028994441,2024-06-11 14:17:22.631358
15.67183818,-1.617039442,-0.8662443161,-1.577251315,2024-06-11 14:17:22.671838
15.71231886,-3.523665905,-1.030464172,-1.171183586,2024-06-11 14:17:22.712319
15.75279959,-1.754341602,-1.745059013,-0.5738179684,2024-06-11 14:17:22.752800
15.79325704,-0.9705953598,-0.7124147415,-0.7469480038,2024-06-11 14:17:22.793257
15.83372922,-1.735602379,-0.8064045906,-2.553619146,2024-06-11 14:17:22.833729
15.87418162,-1.618968964,-1.025501251,-3.042300701,2024-06-11 14:17:22.874182
15.91467516,-0.8615026474,-0.7791051865,-3.670756817,2024-06-11 14:17:22.914675
15.95515902,2.44033289,-0.04748535156,-0.5543987751,2024-06-11 14:17:22.955159
15.9956387,1.687208652,-1.762476921,2.67710638,2024-06-11 14:17:22.995639
16.03612631,4.203999043,0.03512382507,6.293020248,2024-06-11 14:17:23.036126
16.07664438,6.116344452,1.04267025,8.458195686,2024-06-11 14:17:23.076644
16.11711443,1.508276939,2.424512386,-0.3030159473,2024-06-11 14:17:23.117114
16.15757933,0.7826085091,5.049316883,-0.9304389954,2024-06-11 14:17:23.157579
16.19805454,-1.894132853,2.895913124,-0.2419350147,2024-06-11 14:17:23.198055
16.23851714,-2.421349049,1.626140594,-2.819411278,2024-06-11 14:17:23.238517
16.27904678,1.360423088,-0.4994783401,-2.567503452,2024-06-11 14:17:23.279047
16.31951756,3.476697922,0.6623592377,0.646723628,2024-06-11 14:17:23.319518
16.35999902,4.504371166,-2.832172394,6.906989098,2024-06-11 14:17:23.359999
16.40048975,4.320086956,1.469899654,6.079251289,2024-06-11 14:17:23.400490
16.44097568,-0.9506468773,4.678439617,-1.090765834,2024-06-11 14:17:23.440976
16.4814198,-0.9369416237,0.1109390259,-0.6036400795,2024-06-11 14:17:23.481420
16.52186459,-4.879759312,-5.480680466,4.1383605,2024-06-11 14:17:23.521865
16.56233475,1.372308254,-1.339202881,0.4184000492,2024-06-11 14:17:23.562335
16.60281391,-0.4625840187,1.928397179,-0.2593872547,2024-06-11 14:17:23.602814
16.64329402,-2.090044022,3.790367603,-3.140537739,2024-06-11 14:17:23.643294
16.68380626,3.339939117,3.010286331,1.04694438,2024-06-11 14:17:23.683806
16.72432214,-1.807103872,1.574812889,0.48005867,2024-06-11 14:17:23.724322
16.76478594,-0.02446174622,3.738884926,-0.5554640293,2024-06-11 14:17:23.764786
16.80528141,1.532880306,2.688799858,0.1850097179,2024-06-11 14:17:23.805281
16.84576615,7.442699432,-2.26115799,8.268465042,2024-06-11 14:17:23.845766
16.88620615,6.466342449,-2.673588753,0.3799184561,2024-06-11 14:17:23.886206
16.92670553,-0.9404606819,-3.390804291,-1.21446681,2024-06-11 14:17:23.926706
16.96719074,-8.444078445,2.746957302,-3.90522933,2024-06-11 14:17:23.967191
17.0076461,-2.841308117,-1.929080963,-1.045576572,2024-06-11 14:17:24.007646
17.04812985,-3.373808861,-5.107750893,2.065124989,2024-06-11 14:17:24.048130
17.08868131,-2.714020729,0.87241745,-1.452023029,2024-06-11 14:17:24.088681
17.12913933,-0.7614052296,1.832819939,5.460968494,2024-06-11 14:17:24.129139
17.16959745,1.146734476,-0.3471889496,-1.838886261,2024-06-11 14:17:24.169597
17.21008548,1.160424948,0.1540584564,-1.205452442,2024-06-11 14:17:24.210085
17.25053537,-1.362848282,0.9893083572,-0.1873812079,2024-06-11 14:17:24.250535
17.29107021,-1.600721836,-1.205168724,-2.667653084,2024-06-11 14:17:24.291070
17.33148094,1.240609407,-1.414731026,-3.78059864,2024-06-11 14:17:24.331481
17.37196266,0.8792200089,2.57634449,-4.044174671,2024-06-11 14:17:24.371963
17.41244443,-1.884893656,-0.2583084106,6.221606731,2024-06-11 14:17:24.412444
17.4529262,-2.057048798,-1.808385849,5.112458229,2024-06-11 14:17:24.452926
17.49345667,-0.9900228977,-0.1968173981,2.082008839,2024-06-11 14:17:24.493457
17.53394209,0.1606016159,-0.1681547165,-0.2377810627,2024-06-11 14:17:24.533942
17.57442308,0.5720880032,0.6190347672,0.5341773033,2024-06-11 14:17:24.574423
17.6149048,1.18378067,0.3712129593,2.234405756,2024-06-11 14:17:24.614905
17.65532058,-1.138939023,0.4585494995,1.003949046,2024-06-11 14:17:24.655321
17.69587678,-1.604316831,0.01950931549,0.2730804086,2024-06-11 14:17:24.695877
17.73632943,-0.7825751305,-0.4892816544,-0.6676704884,2024-06-11 14:17:24.736329
17.77687016,-0.1293880939,0.3120307922,-0.1248432994,2024-06-11 14:17:24.776870
17.8173535,0.5183439255,0.6899232864,-0.5606377721,2024-06-11 14:17:24.817353
17.85778329,-1.968130827,-0.3860473633,0.6519409418,2024-06-11 14:17:24.857783
17.89823751,-1.971516609,-0.2211866379,-0.9339835048,2024-06-11 14:17:24.898238
17.93875245,-0.5088779926,-0.4011163712,-0.3859177828,2024-06-11 14:17:24.938752
17.97927579,-1.395601273,0.07306194305,0.509940207,2024-06-11 14:17:24.979276
18.01974933,-2.326432943,-1.044712067,0.3011652827,2024-06-11 14:17:25.019749
18.06016386,-2.717515945,-2.822890282,-2.04387641,2024-06-11 14:17:25.060164
18.10070256,-1.006119728,-2.970152855,-3.273844719,2024-06-11 14:17:25.100703
18.14120271,1.849480629,-2.088924408,-4.613389969,2024-06-11 14:17:25.141203
18.18160048,4.069986343,1.285598278,-0.606434226,2024-06-11 14:17:25.181600
18.22208225,3.41515398,2.762878418,4.131348133,2024-06-11 14:17:25.222082
18.26256407,3.224491596,3.530947685,3.777483463,2024-06-11 14:17:25.262564
18.30305407,0.9066200256,2.146722317,-1.733235121,2024-06-11 14:17:25.303054
18.34354412,0.03164982796,0.2028131485,-3.942278862,2024-06-11 14:17:25.343544
18.38400964,0.5588135719,0.6567964554,-2.609455347,2024-06-11 14:17:25.384010
18.4245061,-2.21239996,0.4871616364,1.23154068,2024-06-11 14:17:25.424506
18.46501162,0.7156944275,-1.347295761,1.486971021,2024-06-11 14:17:25.465012
18.50548657,4.008376598,3.181564331,3.108453512,2024-06-11 14:17:25.505487
18.54598704,0.8305392265,2.379013062,0.2059149742,2024-06-11 14:17:25.545987
18.58647021,-0.9121866226,-0.8633708954,-0.1779993773,2024-06-11 14:17:25.586470
18.62691558,-0.007454395294,0.2255020142,-2.138929367,2024-06-11 14:17:25.626916
18.66741641,-1.610399485,1.11444664,-2.629176855,2024-06-11 14:17:25.667416
18.70792761,-0.5042285919,-0.6322259903,-2.889012814,2024-06-11 14:17:25.707928
18.74837876,6.255399704,-0.9328289032,6.904948711,2024-06-11 14:17:25.748379
18.78885032,4.089265347,1.965083122,4.216516018,2024-06-11 14:17:25.788850
18.82933907,1.71303153,1.551644325,-0.1832652986,2024-06-11 14:17:25.829339
18.86979568,1.924607992,-1.469059944,-1.834968567,2024-06-11 14:17:25.869796
18.91027287,-0.5949332714,0.2794914246,-1.077204108,2024-06-11 14:17:25.910273
18.95079063,-0.5197608471,-0.09456348419,2.820628643,2024-06-11 14:17:25.950791
18.99127417,-0.8970861435,-0.7312421799,2.522605658,2024-06-11 14:17:25.991274
19.03171245,-0.7317297459,0.4830551147,0.3673621416,2024-06-11 14:17:26.031712
19.07218756,-0.134152174,0.6541862488,0.1360328197,2024-06-11 14:17:26.072188
19.11265693,0.6251416206,0.52023983,-0.04623857141,2024-06-11 14:17:26.112657
19.15316235,0.9731988907,0.5207166672,-0.731085062,2024-06-11 14:17:26.153162
19.19365006,0.1070740223,0.01904773712,0.3449788988,2024-06-11 14:17:26.193650
19.23413673,-0.2696020603,0.1923027039,0.2376931608,2024-06-11 14:17:26.234137
19.2746174,-0.1352713108,0.03495693207,0.1765154898,2024-06-11 14:17:26.274617
19.31511214,0.3280861378,0.09539318085,-0.4250776768,2024-06-11 14:17:26.315112
19.35559313,0.5835142136,0.3042440414,-0.7578065991,2024-06-11 14:17:26.355593
19.39607016,0.6478881836,0.3983783722,-1.261485815,2024-06-11 14:17:26.396070
19.43655511,0.2976336479,0.1494932175,-0.9179639816,2024-06-11 14:17:26.436555
19.47705787,-0.426112175,0.2762126923,-1.011411428,2024-06-11 14:17:26.477058
19.51751448,-0.9487131834,-0.1139755249,-0.4922773838,2024-06-11 14:17:26.517514
19.55798667,-1.437098265,-0.765999794,0.05396610498,2024-06-11 14:17:26.557987
19.59849693,-1.626693726,-0.4053268433,1.361683369,2024-06-11 14:17:26.598497
19.63899084,-1.072178125,-0.09968662262,0.1131051183,2024-06-11 14:17:26.638991
19.67948662,-0.2014789581,0.05796432495,-0.7162821293,2024-06-11 14:17:26.679487
19.71993141,-0.2475821972,0.3519973755,-0.9767315984,2024-06-11 14:17:26.719931
19.7604323,-0.255456686,0.3312625885,-1.406114101,2024-06-11 14:17:26.760432
19.80092152,-0.4220235348,-0.03117752075,-0.7096093297,2024-06-11 14:17:26.800922
19.84136214,-1.094972372,-0.7122993469,1.067143917,2024-06-11 14:17:26.841362
19.88183938,0.009118795395,-0.4211111069,4.366277695,2024-06-11 14:17:26.881839
19.92232094,0.3188152313,-0.05129051208,1.079625368,2024-06-11 14:17:26.922321
19.96280261,0.4453542233,0.7783708572,0.7317117453,2024-06-11 14:17:26.962803
20.00329771,0.3103263378,0.5394792557,-0.2889609337,2024-06-11 14:17:27.003298
20.04376131,-0.8541203737,-0.1712255478,-0.2939439416,2024-06-11 14:17:27.043761
20.08424292,-1.138315558,-0.1943655014,0.5630275011,2024-06-11 14:17:27.084243
20.12472766,-1.024386525,-0.1199817657,1.632401228,2024-06-11 14:17:27.124728
20.1652086,-0.804651022,-0.4378547668,1.866399765,2024-06-11 14:17:27.165209
20.20571454,-1.210862398,-0.4437217712,1.683725476,2024-06-11 14:17:27.205715
20.2461586,-1.15715909,-0.7739658356,0.951318264,2024-06-11 14:17:27.246159
20.28672407,-1.05552721,-1.185992241,1.338672876,2024-06-11 14:17:27.286724
20.32712042,-0.6739178896,-0.6715402603,0.8971166611,2024-06-11 14:17:27.327120
20.36765511,0.2389836311,-0.9126195908,0.06374198198,2024-06-11 14:17:27.367655
20.40813605,2.724211454,-0.1910877228,-1.094885111,2024-06-11 14:17:27.408136
20.44858636,3.665206671,0.8863744736,0.3052766323,2024-06-11 14:17:27.448586
20.48913298,0.5611748695,0.5284147263,4.039721489,2024-06-11 14:17:27.489133
20.52957266,-1.178566337,-1.098438263,1.207707644,2024-06-11 14:17:27.529573
20.5700362,0.7339844704,-1.609779358,-1.646519423,2024-06-11 14:17:27.570036
20.61050094,2.272251129,-0.7437210083,-3.808326721,2024-06-11 14:17:27.610501
20.65100126,0.267352581,0.06971263885,-5.146875381,2024-06-11 14:17:27.651001
20.69142881,-1.436272144,-0.4203710556,-3.87890172,2024-06-11 14:17:27.691429
20.73191006,-1.183510303,-0.2934246063,-2.245163441,2024-06-11 14:17:27.731910
20.77239131,-0.0783662796,0.956486702,-3.654577732,2024-06-11 14:17:27.772391
20.81289495,1.512706757,1.269256592,-1.14289701,2024-06-11 14:17:27.812895
20.85340376,3.417880774,1.946897984,-0.5734658241,2024-06-11 14:17:27.853404
20.89392417,4.157917976,0.4313764572,-0.7186850309,2024-06-11 14:17:27.893924
20.93438074,0.6507008076,-1.67573452,2.702946901,2024-06-11 14:17:27.934381
20.97483839,-0.7418291569,-1.171396255,0.7428289056,2024-06-11 14:17:27.974838
21.01533527,-1.489304304,-0.3629512787,-0.7425498962,2024-06-11 14:17:28.015335
21.05579813,-1.120073557,0.7419567108,-1.220177531,2024-06-11 14:17:28.055798
21.09627365,-1.359134674,-0.1598949432,-0.7815667391,2024-06-11 14:17:28.096274
21.13677516,0.1032416821,-0.2302961349,1.559817076,2024-06-11 14:17:28.136775
21.1772623,1.497593641,1.213349342,3.046074152,2024-06-11 14:17:28.177262
21.2177137,0.753038168,0.4593868256,-0.1955097318,2024-06-11 14:17:28.217714
21.25822214,2.096005678,-0.4430837631,-1.199440241,2024-06-11 14:17:28.258222
21.29874917,1.696887732,0.1110391617,-0.6054569483,2024-06-11 14:17:28.298749
21.33918193,0.02816653252,-0.163392067,-0.3923968971,2024-06-11 14:17:28.339182
21.37969235,-1.430674076,-0.2807664871,0.6039221287,2024-06-11 14:17:28.379692
21.4201737,-1.946560144,0.1399097443,1.054558992,2024-06-11 14:17:28.420174
21.46062902,-0.8705158234,-0.01552200317,0.01209995151,2024-06-11 14:17:28.460629
21.50115678,0.9397451878,0.05049324036,-0.4580772221,2024-06-11 14:17:28.501157
21.54158943,0.9916579723,0.5654020309,-0.09012329578,2024-06-11 14:17:28.541589
21.58207079,0.06819343567,-0.01065540314,-0.1784552038,2024-06-11 14:17:28.582071
21.62255214,-0.624573946,-0.2132520676,0.1651080251,2024-06-11 14:17:28.622552
21.66304011,0.1302654743,0.09282588959,-0.04603683949,2024-06-11 14:17:28.663040
21.70352928,0.3590803146,0.1710577011,-0.00825548172,2024-06-11 14:17:28.703529
21.74399183,-0.1839160919,0.00607585907,0.1581907868,2024-06-11 14:17:28.743992
21.78446324,-0.08853149414,-0.01470661163,0.1420521736,2024-06-11 14:17:28.784463
21.82495928,-0.2058722973,-0.2049217224,-0.1156609058,2024-06-11 14:17:28.824959
21.865421,0.1534342766,-0.0107755661,-0.07513824105,2024-06-11 14:17:28.865421
21.90588198,0.006776809692,0.2924232483,0.0003119707108,2024-06-11 14:17:28.905882
21.94638219,-0.2202730179,-0.01414108276,-0.1351749897,2024-06-11 14:17:28.946382
21.98689027,-0.1526558399,-0.0350818634,-0.271951437,2024-06-11 14:17:28.986890
22.0273687,-0.2070109844,0.1502904892,-0.216478318,2024-06-11 14:17:29.027369
22.0678486,-0.2873563766,0.01274871826,-0.2757939696,2024-06-11 14:17:29.067849
22.10836501,-0.1931052208,0.1130638123,-0.187777698,2024-06-11 14:17:29.108365
22.14882751,-0.1864650249,-0.02617835999,0.1328934133,2024-06-11 14:17:29.148828
22.18931928,0.09091758728,0.1031990051,0.1203035414,2024-06-11 14:17:29.189319
22.22975527,0.3900671005,0.002635955811,0.1980224252,2024-06-11 14:17:29.229755
22.27025688,0.4542191029,0.2212238312,0.07162800431,2024-06-11 14:17:29.270257
22.31077933,0.2761309147,0.1128969193,-0.1500328183,2024-06-11 14:17:29.310779
22.35124126,0.3076832294,0.005032539368,-0.3141473234,2024-06-11 14:17:29.351241
22.39168818,-0.02059221268,-0.1253700256,-0.1771804094,2024-06-11 14:17:29.391688
22.43215318,-0.3269000053,0.0393447876,-0.03782594204,2024-06-11 14:17:29.432153
22.47260225,-0.2027585506,0.1445360184,0.3857690692,2024-06-11 14:17:29.472602
22.51312756,-0.3164010048,-0.06623268127,0.3576738238,2024-06-11 14:17:29.513128
22.55362068,-0.4981267452,-0.2325496674,0.1899673343,2024-06-11 14:17:29.553621
22.59410969,-0.08877539635,0.02428340912,-0.1195178032,2024-06-11 14:17:29.594110
22.63459719,0.08701777458,0.007882118225,-0.08181414008,2024-06-11 14:17:29.634597
22.675066,-0.09566164017,-0.05844497681,0.05750253797,2024-06-11 14:17:29.675066
22.71553428,0.3051612377,0.07062244415,0.3181334734,2024-06-11 14:17:29.715534
22.75602074,0.1439750195,0.02834415436,0.2947764993,2024-06-11 14:17:29.756021
22.79653287,0.08806276321,0.01156997681,-0.1485341489,2024-06-11 14:17:29.796533
22.83699298,0.06648564339,-0.007581710815,-0.1538755596,2024-06-11 14:17:29.836993
22.87743115,-0.1823890209,0.05741786957,-0.09337446094,2024-06-11 14:17:29.877431
22.91794943,-0.09700107574,-0.04255390167,0.08939623833,2024-06-11 14:17:29.917949
22.95843792,0.059030056,0.01368808746,0.01012268662,2024-06-11 14:17:29.958438
22.9989312,-0.08374810219,-0.1222906113,0.1476549208,2024-06-11 14:17:29.998931
23.03940631,-0.4550862312,-0.26836586,0.1628147662,2024-06-11 14:17:30.039406
23.0798762,-0.3286724091,-0.04066944122,0.2244461477,2024-06-11 14:17:30.079876
23.12036469,0.221228838,0.0007181167603,0.1586637795,2024-06-11 14:17:30.120365
23.16086183,0.1830615997,0.04968738556,0.0954727307,2024-06-11 14:17:30.160862
23.20131949,-0.006706953049,0.04940414429,0.1902190745,2024-06-11 14:17:30.201319
23.24176917,-0.4360191822,-0.06123542786,0.2928307056,2024-06-11 14:17:30.241769
23.28224152,-0.260589838,-0.4647607803,0.2509565353,2024-06-11 14:17:30.282242
23.32272219,0.1166360378,-0.6489305496,0.1901603937,2024-06-11 14:17:30.322722
23.36326975,0.6987252235,-0.7272987366,-0.3287982941,2024-06-11 14:17:30.363270
23.40375037,1.035617352,-0.6942005157,-0.7669732571,2024-06-11 14:17:30.403750
23.44421594,0.6073999405,-0.3790512085,-1.326033354,2024-06-11 14:17:30.444216
23.48468037,-0.3192064762,0.2122411728,-2.37405467,2024-06-11 14:17:30.484680
23.52517027,-2.278908253,-0.2167520523,-2.187773705,2024-06-11 14:17:30.525170
23.56566704,-1.903724432,-0.3036317825,-1.470321178,2024-06-11 14:17:30.565667
23.60611558,-0.6694362164,0.001008033752,-1.968255401,2024-06-11 14:17:30.606116
23.64659626,0.85039258,0.3100204468,-2.050657988,2024-06-11 14:17:30.646596
23.68708141,1.837929964,0.5480461121,-1.785748243,2024-06-11 14:17:30.687081
23.72756891,2.344101906,1.006937981,-1.658749461,2024-06-11 14:17:30.727569
23.76807693,2.986160994,0.7466678619,-0.7117078304,2024-06-11 14:17:30.768077
23.80851001,2.486548901,0.7893762589,-0.1200485229,2024-06-11 14:17:30.808510
23.84902402,4.217436314,0.8509807587,-1.552322388,2024-06-11 14:17:30.849024
23.88949485,3.190636635,-1.502290726,0.1846189648,2024-06-11 14:17:30.889495
23.92996011,0.4339168072,-2.554646492,1.274302721,2024-06-11 14:17:30.929960
23.97046183,-4.063055992,-1.43821907,2.415539026,2024-06-11 14:17:30.970462
24.0109923,-0.6201872826,1.28975296,0.9913197756,2024-06-11 14:17:31.010992
24.0514185,-1.07621932,1.567126751,-0.07379801571,2024-06-11 14:17:31.051419
24.09190021,-0.5184276104,1.043162346,-1.01155746,2024-06-11 14:17:31.091900
24.13238193,0.4226036072,-0.6536149979,-0.7158195972,2024-06-11 14:17:31.132382
24.17286365,-0.1499106884,-0.4408559799,-0.6773888469,2024-06-11 14:17:31.172864
24.21337386,-0.09947633743,-0.9204597473,-0.4670589566,2024-06-11 14:17:31.213374
24.25384162,-1.009305835,-2.327965736,-1.653227806,2024-06-11 14:17:31.253842
24.29433084,-2.930369377,-0.005575180054,7.230802536,2024-06-11 14:17:31.294331
24.33481803,-1.095449805,0.1491479874,-1.538259745,2024-06-11 14:17:31.334818
24.37525308,-0.6212961674,-0.2966270447,-0.03962416947,2024-06-11 14:17:31.375253
24.41573464,-0.5420665741,0.6337308884,0.4436275363,2024-06-11 14:17:31.415735
24.45623209,-1.376109362,0.07508945465,-1.099817157,2024-06-11 14:17:31.456232
24.49674193,-0.247490406,-0.3318452835,1.156549692,2024-06-11 14:17:31.496742
24.53721553,-0.1625628471,-0.0315952301,1.798403978,2024-06-11 14:17:31.537216
24.57770626,-0.2075822353,-0.3084173203,0.393381387,2024-06-11 14:17:31.577706
24.61816839,-0.9515430927,-0.3327589035,-0.02464568615,2024-06-11 14:17:31.618168
24.65864995,-1.525607705,-0.426738739,-1.024631262,2024-06-11 14:17:31.658650
24.69914485,-0.8506250381,-0.5557050705,-0.7344076633,2024-06-11 14:17:31.699145
24.73960303,0.2649519444,-0.5708370209,0.8393695951,2024-06-11 14:17:31.739603
24.78007433,0.344922781,-0.1575117111,-1.182468176,2024-06-11 14:17:31.780074
24.82061662,0.8443312645,0.2506952286,-0.5814779401,2024-06-11 14:17:31.820617
24.86111792,2.136149645,-0.03415775299,0.9328784943,2024-06-11 14:17:31.861118
24.90152287,4.709581852,-0.8563222885,4.977813244,2024-06-11 14:17:31.901523
24.94198475,0.7735767365,0.6168880463,0.973664999,2024-06-11 14:17:31.941985
24.98246662,-5.042496681,1.098423958,-2.832873583,2024-06-11 14:17:31.982467
25.02295058,-3.598852634,2.02818203,-6.286789417,2024-06-11 14:17:32.022951
25.06345266,2.582026958,2.174220085,-0.7557153702,2024-06-11 14:17:32.063453
25.1039611,1.524051666,1.782958984,3.608333111,2024-06-11 14:17:32.103961
25.14443136,5.443867683,1.159247398,4.767708778,2024-06-11 14:17:32.144431
25.18490313,3.752894878,-1.870304108,2.808048964,2024-06-11 14:17:32.184903
25.2253724,-2.339822054,-0.8045034409,-2.131080151,2024-06-11 14:17:32.225372
25.26587725,-1.934014559,-1.334474564,0.5529005527,2024-06-11 14:17:32.265877
25.30636282,-1.187177181,-0.2332992554,0.7143224478,2024-06-11 14:17:32.306363
25.34684001,0.3987920284,1.315597057,-1.891227245,2024-06-11 14:17:32.346840
25.38735589,0.4666829109,-0.865945816,0.4387033284,2024-06-11 14:17:32.387356
25.42777266,-1.31704402,-0.1292867661,0.5740913153,2024-06-11 14:17:32.427773
25.46825745,0.262691021,0.01434803009,0.2692800462,2024-06-11 14:17:32.468257
25.50875282,-0.1371321678,0.31199646,0.2406365275,2024-06-11 14:17:32.508753
25.5492385,-0.2687461376,-0.8294067383,0.5971665382,2024-06-11 14:17:32.549239
25.58972761,0.4752674103,0.1780548096,0.6055565476,2024-06-11 14:17:32.589728
25.63019558,0.003994703293,0.5050067902,-0.1798586547,2024-06-11 14:17:32.630196
25.67068615,-0.478317976,0.01683521271,-0.4049598575,2024-06-11 14:17:32.670686
25.71117865,-0.849593997,0.02847480774,-0.3706330955,2024-06-11 14:17:32.711179
25.75164443,-0.7012221813,0.1791696548,-1.104586244,2024-06-11 14:17:32.751644
25.79211464,1.204841375,0.6390380859,0.4353766739,2024-06-11 14:17:32.792115
25.83257381,-0.2799766064,-1.097689629,5.100680828,2024-06-11 14:17:32.832574
25.87310506,-2.708531141,-0.685292244,-0.7535141706,2024-06-11 14:17:32.873105
25.91357219,-0.8574442863,-0.4233798981,-1.998477459,2024-06-11 14:17:32.913572
25.95405084,-0.04129314423,0.1942625046,-1.161956191,2024-06-11 14:17:32.954051
25.99453459,1.393316269,0.8159332275,-0.577614069,2024-06-11 14:17:32.994535
26.03501219,0.4970459938,0.03437137604,1.673278451,2024-06-11 14:17:33.035012
26.07547792,-0.4931429625,-0.2788286209,0.8339181542,2024-06-11 14:17:33.075478
26.11597574,0.5321846008,0.05231571198,-0.4202648103,2024-06-11 14:17:33.115976
26.15644298,0.0955593586,-0.2140493393,-0.1636913419,2024-06-11 14:17:33.156443
26.19692079,-0.2114627361,0.2796697617,-0.1193084121,2024-06-11 14:17:33.196921
26.23741787,0.3331108093,0.4864320755,0.06875538826,2024-06-11 14:17:33.237418
26.27789417,-0.1616072655,0.1156377792,1.784599304,2024-06-11 14:17:33.277894
26.31838329,-0.6578582525,-0.2963619232,0.4374750257,2024-06-11 14:17:33.318383
26.35889245,-0.1479346752,-0.1918792725,-0.3782144189,2024-06-11 14:17:33.358892
26.39935657,0.3033771515,0.613907814,0.3959816694,2024-06-11 14:17:33.399357
26.43982391,-0.6829731464,-0.02202701569,1.177634478,2024-06-11 14:17:33.439824
26.48031579,-1.167302489,-0.4951620102,0.6151989698,2024-06-11 14:17:33.480316
26.52082922,-1.068478465,-0.02231121063,0.5453816652,2024-06-11 14:17:33.520829
26.561286,-0.8768873215,0.3796224594,0.8355270624,2024-06-11 14:17:33.561286
26.60174756,-1.824371696,-0.1368503571,1.229752183,2024-06-11 14:17:33.601748
26.64222896,-2.130398035,-0.2118139267,0.7082999945,2024-06-11 14:17:33.642229
26.68271048,-1.743955016,-1.25997448,1.226026893,2024-06-11 14:17:33.682710
26.72320178,-0.2247872353,-2.577589035,0.8616204858,2024-06-11 14:17:33.723202
26.76367657,1.884837151,-2.058480263,-1.353974342,2024-06-11 14:17:33.763677
26.80416412,2.253274202,-1.534581184,-1.077011824,2024-06-11 14:17:33.804164
26.84462683,2.26188755,0.4790496826,-0.8416473269,2024-06-11 14:17:33.844627
26.88509777,2.079015255,2.43435955,-0.6948087811,2024-06-11 14:17:33.885098
26.92558178,0.2662262917,2.154269218,-0.07488738,2024-06-11 14:17:33.925582
26.96608058,-1.282557487,-0.5142049789,-1.467600346,2024-06-11 14:17:33.966081
27.00662719,-0.9400207996,-0.8646793365,-2.404067516,2024-06-11 14:17:34.006627
27.04704313,-0.521030426,0.334312439,0.4932293296,2024-06-11 14:17:34.047043
27.08758954,0.1811101437,0.3489694595,0.99781394,2024-06-11 14:17:34.087590
27.12804433,0.8962261677,-0.1113319397,-1.121080399,2024-06-11 14:17:34.128044
27.16848579,1.16161418,0.491355896,-1.309735894,2024-06-11 14:17:34.168486
27.20898464,1.374638557,1.139087677,-0.8270123601,2024-06-11 14:17:34.208985
27.24942891,0.8645086288,1.242961884,-1.146593809,2024-06-11 14:17:34.249429
27.28998032,0.4408278465,0.6878890991,-0.8516925573,2024-06-11 14:17:34.289980
27.330421,0.6357357502,0.3295049667,-1.050523043,2024-06-11 14:17:34.330421
27.37091251,1.064729929,0.5081281662,0.03813028336,2024-06-11 14:17:34.370913
27.41139407,0.7455422878,0.4286155701,0.3305445313,2024-06-11 14:17:34.411394
27.45187568,0.6053323746,-0.03853321075,-0.76331985,2024-06-11 14:17:34.451876
27.49231631,1.300129414,0.2619562149,-0.8241797686,2024-06-11 14:17:34.492316
27.53279787,1.122873068,0.7391138077,-1.26491189,2024-06-11 14:17:34.532798
27.57327943,0.871206522,0.4916582108,-1.16366744,2024-06-11 14:17:34.573279
27.61378396,-0.05635070801,0.2889871597,-1.533982754,2024-06-11 14:17:34.613784
27.65426553,-0.5811622143,0.1297464371,-1.69716239,2024-06-11 14:17:34.654266
27.69476339,0.5392959118,0.4486751556,-1.552435279,2024-06-11 14:17:34.694763
27.73521719,2.404710531,0.9577980042,-0.1712414026,2024-06-11 14:17:34.735217
27.77569344,2.111543894,0.6842288971,1.691290617,2024-06-11 14:17:34.775693
27.81619943,1.002037764,-1.512247086,2.371030569,2024-06-11 14:17:34.816199
27.85665896,1.271637917,0.3100004196,0.611002624,2024-06-11 14:17:34.856659
27.89713324,1.230025768,-0.5924520493,-0.01904290915,2024-06-11 14:17:34.897133
27.93761287,0.8833432198,-0.2688503265,-0.6993833184,2024-06-11 14:17:34.937613
27.978131,-0.1542568207,-0.3003835678,-1.227762461,2024-06-11 14:17:34.978131
28.01863641,-0.6144542694,2.124967098,0.2894884646,2024-06-11 14:17:35.018636
28.05906245,-1.09747839,0.5146903992,-0.1266401708,2024-06-11 14:17:35.059062
28.09959501,-2.532665491,-2.123656273,-1.132330656,2024-06-11 14:17:35.099595
28.14003735,-2.85398531,-2.45857811,5.639334679,2024-06-11 14:17:35.140037
28.18050256,-1.299294472,-0.3793087006,-0.7877602577,2024-06-11 14:17:35.180503
28.2210549,-0.6316902637,0.9984693527,-1.464474678,2024-06-11 14:17:35.221055
28.26147126,-0.3926029205,0.5060014725,-1.488241315,2024-06-11 14:17:35.261471
28.30195219,-0.1826200485,-0.2423143387,-0.5721774101,2024-06-11 14:17:35.301952
28.34243313,-1.056996822,-0.462729454,0.861618638,2024-06-11 14:17:35.342433
28.38293537,-0.9616528749,-0.158290863,0.6638032794,2024-06-11 14:17:35.382935
28.42341204,-0.2580263615,0.05398845673,-0.04958857596,2024-06-11 14:17:35.423412
28.46388209,0.07304358482,-0.02520942688,-1.473326564,2024-06-11 14:17:35.463882
28.5043649,-0.09451556206,-0.113658905,-1.897982001,2024-06-11 14:17:35.504365
28.54486277,0.07361650467,-0.001671791077,0.4189997613,2024-06-11 14:17:35.544863
28.58534714,0.7912738323,-0.04208278656,1.531388164,2024-06-11 14:17:35.585347
28.62580449,1.237301588,0.005149841309,0.6490207314,2024-06-11 14:17:35.625804
28.66630198,1.770845413,0.5968513489,-0.08262616396,2024-06-11 14:17:35.666302
28.70681214,1.600598812,0.3824577332,-0.2620793879,2024-06-11 14:17:35.706812
28.74727792,-0.2603626251,0.03541088104,0.4878037572,2024-06-11 14:17:35.747278
28.78774521,-0.6387313604,-0.006067276001,0.3791106045,2024-06-11 14:17:35.787745
28.82822271,-0.8405849934,-0.3170604706,0.024538517,2024-06-11 14:17:35.828223
28.86867521,-0.889693737,0.08848667145,0.2100110948,2024-06-11 14:17:35.868675
28.90916011,0.1820344925,0.3836355209,-0.9767704606,2024-06-11 14:17:35.909160
28.94965917,0.5831984282,0.09526920319,-1.806330681,2024-06-11 14:17:35.949659
28.99015579,0.4235146046,0.4987878799,-1.609459877,2024-06-11 14:17:35.990156
29.03067292,0.4640200138,0.6444473267,-2.198205948,2024-06-11 14:17:36.030673
29.07113818,-0.1115152836,-0.158249855,-1.293866992,2024-06-11 14:17:36.071138
29.11159902,-0.5936379433,-1.38547039,2.088488817,2024-06-11 14:17:36.111599
29.15208975,0.06082749367,0.1323070526,1.591915727,2024-06-11 14:17:36.152090
29.19257053,0.09750676155,0.4039134979,-1.039440632,2024-06-11 14:17:36.192571
29.23305131,-0.1928889751,-0.07534885406,-1.103564739,2024-06-11 14:17:36.233051
29.27352324,-0.7555296421,-0.2409391403,-0.7815538645,2024-06-11 14:17:36.273523
29.31399324,-0.5581450462,-0.2048435211,-0.6284787655,2024-06-11 14:17:36.313993
29.35449084,-0.6415157318,-0.2777032852,-0.4769514799,2024-06-11 14:17:36.354491
29.39498172,-0.2913491726,0.1450920105,-1.597448587,2024-06-11 14:17:36.394982
29.43543126,-0.08036088943,0.3328733444,-2.0730474,2024-06-11 14:17:36.435431
29.47593693,-0.4995603561,-0.1094655991,-1.994016886,2024-06-11 14:17:36.475937
29.51642553,-0.9237089157,-0.05990982056,-1.434682727,2024-06-11 14:17:36.516426
29.55690579,-0.9565942287,0.09048175812,-0.6481979489,2024-06-11 14:17:36.556906
29.59741303,-1.086036205,-0.1788311005,-0.8497471809,2024-06-11 14:17:36.597413
29.63790662,-1.118019104,-0.8128242493,-0.7723219395,2024-06-11 14:17:36.637907
29.67836792,-0.6062300205,-1.297450066,-1.017098427,2024-06-11 14:17:36.678368
29.7188223,3.983108997,0.1242284775,0.9587593079,2024-06-11 14:17:36.718822
29.75928615,8.450644493,-0.7459087372,3.064635277,2024-06-11 14:17:36.759286
29.79980199,0.1179499626,-0.9696598053,2.126860619,2024-06-11 14:17:36.799802
29.84027923,-2.170006037,-0.5780000687,2.195847273,2024-06-11 14:17:36.840279
29.88073183,-2.642318249,0.9805998802,2.023038626,2024-06-11 14:17:36.880732
29.92121766,-3.818120718,3.055654049,-0.7650434971,2024-06-11 14:17:36.921218
29.96171287,-0.0352563858,4.121601105,-2.345510006,2024-06-11 14:17:36.961713
30.00220006,3.135140419,4.552197456,-1.712909818,2024-06-11 14:17:37.002200
30.04268146,4.637889862,1.990284443,0.1910105944,2024-06-11 14:17:37.042681
30.08314844,4.141757488,-4.452878952,1.751729608,2024-06-11 14:17:37.083148
30.12363615,0.06166934967,-2.442647934,3.850485086,2024-06-11 14:17:37.123636
30.16411756,1.59597826,2.065855026,2.971998453,2024-06-11 14:17:37.164118
30.20461188,0.9451563358,1.761710167,1.845748544,2024-06-11 14:17:37.204612
30.245061,-1.733097553,-0.9655771255,1.731186867,2024-06-11 14:17:37.245061
30.28557782,-2.159685135,-1.668977737,1.196708918,2024-06-11 14:17:37.285578
30.32603152,-1.602500677,-0.3207197189,0.5430333614,2024-06-11 14:17:37.326032
30.36649818,-0.2655563354,-0.2028846741,2.011093855,2024-06-11 14:17:37.366498
30.40697959,0.1099710464,-0.07597255707,0.6666168571,2024-06-11 14:17:37.406980
30.44746063,-0.2164244652,0.1997251511,0.2764837146,2024-06-11 14:17:37.447461
30.48797631,-0.4070458412,-0.002861976624,-0.236102432,2024-06-11 14:17:37.487976
30.5284337,0.3097763062,0.02501678467,-0.2990360558,2024-06-11 14:17:37.528434
30.56891787,0.9351139069,0.06851196289,0.9787857533,2024-06-11 14:17:37.568918
30.60941969,-0.3178110123,0.3856220245,0.399494946,2024-06-11 14:17:37.609420
30.64991219,-1.36795342,-0.9252567291,-0.2469312996,2024-06-11 14:17:37.649912
30.69036798,-0.7018260956,-0.1625738144,-0.4332193434,2024-06-11 14:17:37.690368
30.7309086,-0.3041257858,0.07900428772,-1.002611876,2024-06-11 14:17:37.730909
30.77130225,-0.04951238632,0.2281723022,-1.145245314,2024-06-11 14:17:37.771302
30.81176339,0.06745743752,0.1357097626,0.05306056142,2024-06-11 14:17:37.811763
30.85224449,0.03543114662,-0.4244308472,0.6442434788,2024-06-11 14:17:37.852244
30.89275511,-0.3988649845,0.3775262833,-0.08981104195,2024-06-11 14:17:37.892755
30.93323646,-0.7212488651,0.03951740265,-1.215868115,2024-06-11 14:17:37.933236
30.97376157,-0.8058453798,-0.7285966873,-1.749037266,2024-06-11 14:17:37.973762
31.01422058,-1.104192734,-0.7392635345,-1.97828722,2024-06-11 14:17:38.014221
31.0547186,-1.390352964,-0.0466003418,-2.651333332,2024-06-11 14:17:38.054719
31.09518626,-0.9747321606,-0.3900823593,-1.872255087,2024-06-11 14:17:38.095186
31.13565678,1.100733757,0.1858901978,0.6324446797,2024-06-11 14:17:38.135657
31.1761212,2.558657885,1.002901077,6.394958973,2024-06-11 14:17:38.176121
31.2166685,-1.059750319,-0.2093343735,-0.2172619551,2024-06-11 14:17:38.216669
31.2571123,-1.210083246,-0.4947795868,-0.1631250978,2024-06-11 14:17:38.257112
31.29764329,-0.1179561615,0.164182663,-0.5691006184,2024-06-11 14:17:38.297643
31.33807303,-0.8187482357,-0.7295055389,1.05885911,2024-06-11 14:17:38.338073
31.37858745,-0.2471745014,-0.919462204,3.030388832,2024-06-11 14:17:38.378587
31.4189987,1.629248619,1.44337368,0.1676365137,2024-06-11 14:17:38.418999
31.45950209,-0.03321743011,0.5298862457,-1.164904714,2024-06-11 14:17:38.459502
31.49999198,-2.776801586,-1.413741112,-3.496923685,2024-06-11 14:17:38.499992
31.54047136,-1.326344609,-0.5409822464,-3.725398302,2024-06-11 14:17:38.540471
31.58099251,2.435935497,1.009176254,0.6084035635,2024-06-11 14:17:38.580993
31.62141938,2.928751707,1.040036201,0.1756262183,2024-06-11 14:17:38.621419
31.66190074,3.424698114,0.7625112534,0.9305343628,2024-06-11 14:17:38.661901
31.70238204,1.344236135,0.1992139816,1.872377992,2024-06-11 14:17:38.702382
31.74286339,-0.5212695599,-0.3720340729,0.9907848239,2024-06-11 14:17:38.742863
31.78335131,-0.4638926983,-0.4043197632,0.04096831381,2024-06-11 14:17:38.783351
31.82384896,-0.02350831032,0.0527048111,0.2427110076,2024-06-11 14:17:38.823849
31.86431745,0.07767653465,0.3854465485,-0.07548651099,2024-06-11 14:17:38.864317
31.904776,0.2005484104,-0.1770553589,0.2352782041,2024-06-11 14:17:38.904776
31.94529094,-0.3438127041,-0.1233739853,0.7478402853,2024-06-11 14:17:38.945291
31.98578381,-0.4800920486,0.1636714935,-0.280259341,2024-06-11 14:17:38.985784
32.02626412,-0.2485191822,-0.197933197,-0.3469617069,2024-06-11 14:17:39.026264
32.06672938,0.09923171997,0.2739934921,-0.7427659035,2024-06-11 14:17:39.066729
32.10723563,0.5183055401,0.1414222717,-0.4681340754,2024-06-11 14:17:39.107236
32.14770318,-0.1400504112,-0.1683702469,-0.177478388,2024-06-11 14:17:39.147703
32.18817568,-0.8227684498,-0.1582269669,-0.1464226842,2024-06-11 14:17:39.188176
32.22865745,-1.197665691,-0.5967340469,-0.6525876522,2024-06-11 14:17:39.228657
32.26917146,-1.025541544,-0.2523002625,-1.176213741,2024-06-11 14:17:39.269171
32.30965652,-1.030647993,-0.0103187561,-1.340362906,2024-06-11 14:17:39.309657
32.35011298,-0.6114397049,0.1672344208,-1.809510112,2024-06-11 14:17:39.350113
32.39063193,0.08712410927,0.5081729889,-0.8566085696,2024-06-11 14:17:39.390632
32.43109688,0.5531237125,-0.4839315414,2.347414255,2024-06-11 14:17:39.431097
32.4715274,-0.3523683548,-0.5849790573,1.115458608,2024-06-11 14:17:39.471527
32.51197339,-0.4867186546,0.06725692749,-0.7115366459,2024-06-11 14:17:39.511973
32.55246386,0.2176680565,0.0003986358643,-0.6374726892,2024-06-11 14:17:39.552464
32.59296448,-0.9283633232,0.225944519,0.3553292751,2024-06-11 14:17:39.592964
32.63344485,-1.125375748,-0.5129156113,-0.1936154813,2024-06-11 14:17:39.633445
32.67395636,-1.506131053,-0.3111181259,0.6876331568,2024-06-11 14:17:39.673956
32.7144423,-0.6053683758,-0.02719688416,-0.1186443493,2024-06-11 14:17:39.714442
32.75491058,-1.204375982,-0.3199367523,0.5541069508,2024-06-11 14:17:39.754911
32.79538751,-0.1587231159,0.1618251801,0.377987653,2024-06-11 14:17:39.795388
32.83590157,2.098189116,0.4072313309,0.313180685,2024-06-11 14:17:39.835902
32.87633667,0.8236949444,-0.07954120636,-0.6034650207,2024-06-11 14:17:39.876337
32.91683985,-0.08535528183,-0.02254390717,0.6418298483,2024-06-11 14:17:39.916840
32.95732652,2.049868345,0.807723999,-0.0265224874,2024-06-11 14:17:39.957327
32.99778574,2.557106018,1.140494347,0.2869623899,2024-06-11 14:17:39.997786
33.03827365,3.439291716,1.106337547,0.8835142255,2024-06-11 14:17:40.038274
33.07878516,1.542209387,0.299071312,0.9978314638,2024-06-11 14:17:40.078785
33.11927126,-1.284815788,-0.8827486038,0.8361122608,2024-06-11 14:17:40.119271
33.1597374,-1.352311969,0.270067215,-0.06737972796,2024-06-11 14:17:40.159737
33.20022266,0.1193079948,0.5193481445,-1.008868217,2024-06-11 14:17:40.200223
33.24072318,0.7838754654,0.263958931,-1.099955678,2024-06-11 14:17:40.240723
33.28121683,0.4042189121,0.1036653519,1.383166313,2024-06-11 14:17:40.281217
33.32170048,-1.043208361,-0.4776182175,1.284059882,2024-06-11 14:17:40.321700
33.36218141,-1.601623178,-0.3508710861,0.3358798325,2024-06-11 14:17:40.362181
33.4026624,-1.147468805,-0.482126236,0.4580153227,2024-06-11 14:17:40.402662
33.44314339,-0.1640274525,-0.006581306458,0.4680968523,2024-06-11 14:17:40.443143
33.48359824,0.585521698,0.1115503311,1.101748705,2024-06-11 14:17:40.483598
33.52406271,0.2377276421,0.151758194,0.5913105607,2024-06-11 14:17:40.524063
33.56452063,-0.1642458439,-0.09173870087,-0.142329067,2024-06-11 14:17:40.564521
33.6050335,-0.4107780457,-0.1516971588,-0.4450603724,2024-06-11 14:17:40.605033
33.64545126,-1.100617886,-0.2182207108,-0.06096822023,2024-06-11 14:17:40.645451
33.68597162,-1.456497073,-0.451376915,-0.8691138029,2024-06-11 14:17:40.685972
33.72647626,-1.069733977,-0.2078609467,-0.7779024243,2024-06-11 14:17:40.726476
33.76696402,0.01520943642,0.05508995056,-0.5225909352,2024-06-11 14:17:40.766964
33.80747834,0.5919466019,0.2352924347,-0.08883221447,2024-06-11 14:17:40.807478
33.8479737,0.001709938049,-0.1528053284,0.7281286716,2024-06-11 14:17:40.847974
33.8883673,-0.2200405598,-0.1197452545,0.14855434,2024-06-11 14:17:40.888367
33.928851,-0.1441009045,-0.0487165451,-0.9246652126,2024-06-11 14:17:40.928851
33.96934834,-0.43222332,0.04870319366,-1.205200911,2024-06-11 14:17:40.969348
34.00984792,-1.075085163,-0.06897926331,-1.488213301,2024-06-11 14:17:41.009848
34.05031235,-1.153953075,-0.635717392,-0.1074889079,2024-06-11 14:17:41.050312
34.09084074,-0.245983839,-0.009630203247,1.98142755,2024-06-11 14:17:41.090841
34.13127948,0.5533967018,0.30971241,1.168564677,2024-06-11 14:17:41.131279
34.17176084,0.9563932419,0.5440731049,0.5375419855,2024-06-11 14:17:41.171761
34.21224219,-1.568194509,-0.09504318237,0.4380415082,2024-06-11 14:17:41.212242
34.25273495,-2.300219536,-0.7564563751,-0.02151298523,2024-06-11 14:17:41.252735
34.2932162,-2.272855282,-0.6341867447,0.1478595734,2024-06-11 14:17:41.293216
34.33369115,-1.925127864,-0.4140071869,-1.115438223,2024-06-11 14:17:41.333691
34.37419157,-0.5789339542,-0.4993610382,-1.955956936,2024-06-11 14:17:41.374192
34.41467287,-0.6563255787,-0.1019363403,-0.9831548929,2024-06-11 14:17:41.414673
34.45511532,-0.7768251896,-0.103094101,-0.3769950867,2024-06-11 14:17:41.455115
34.49558678,1.505590677,-0.5969753265,-0.9015382528,2024-06-11 14:17:41.495587
34.53608313,3.405500412,0.3395814896,0.01096618176,2024-06-11 14:17:41.536083
34.57657183,4.362695217,1.724458218,2.638343334,2024-06-11 14:17:41.576572
34.61707568,1.742869854,0.5126342773,-0.3195487261,2024-06-11 14:17:41.617076
34.65755704,-0.5108623505,0.8372154236,-1.658128023,2024-06-11 14:17:41.657557
34.69803667,-0.6124601364,2.092876911,-0.8117136955,2024-06-11 14:17:41.698037
34.7384799,2.288088799,0.019947052,0.8669929504,2024-06-11 14:17:41.738480
34.77897839,3.092291832,-0.05439376831,-0.7454050779,2024-06-11 14:17:41.778978
34.81951511,3.07060194,1.207979202,-0.6735066175,2024-06-11 14:17:41.819515
34.85994662,0.686811924,1.298423767,1.316798449,2024-06-11 14:17:41.859947
34.90041464,0.6131668091,0.8260154724,3.171158791,2024-06-11 14:17:41.900415
34.94098006,-3.209604979,-2.581646919,1.54839766,2024-06-11 14:17:41.940980
34.98141516,-1.829449892,-0.2180747986,-0.7379620075,2024-06-11 14:17:41.981415
35.02184933,1.153691292,-0.2978181839,-2.53493166,2024-06-11 14:17:42.021849
35.06233053,0.4190430641,-1.396722317,-5.70293045,2024-06-11 14:17:42.062331
35.10281126,-1.431409359,-2.420810699,-6.168966293,2024-06-11 14:17:42.102811
35.14327646,-3.80039525,-2.765608788,-0.2065114379,2024-06-11 14:17:42.143276
35.18381589,-5.077109814,-2.185821533,5.320203781,2024-06-11 14:17:42.183816
35.22428298,-1.483849525,0.7319769859,7.360077381,2024-06-11 14:17:42.224283
35.26474667,-1.499036789,0.4234466553,6.336989403,2024-06-11 14:17:42.264747
35.30523235,2.18114233,1.925938129,5.016655922,2024-06-11 14:17:42.305232
35.34571277,-1.982920647,0.1530852318,1.117782593,2024-06-11 14:17:42.345713
35.38617386,-2.564982891,-1.287982941,-1.567627907,2024-06-11 14:17:42.386174
35.42666714,1.326686859,-2.364055634,-2.922425508,2024-06-11 14:17:42.426667
35.46717902,3.485369682,-2.296716213,-1.628828764,2024-06-11 14:17:42.467179
35.50766459,3.470889568,0.6365647316,-0.9558041096,2024-06-11 14:17:42.507665
35.54813298,2.57212162,1.609674454,1.072987914,2024-06-11 14:17:42.548133
35.5886187,4.248935223,1.909219265,1.10169208,2024-06-11 14:17:42.588619
35.62909448,3.393477917,1.234270573,5.884347439,2024-06-11 14:17:42.629094
35.66957412,0.579720974,-1.569930077,6.240609646,2024-06-11 14:17:42.669574
35.71004511,0.9324808121,-1.623831749,2.46805501,2024-06-11 14:17:42.710045
35.75053261,1.857367516,0.0452709198,-0.2994865179,2024-06-11 14:17:42.750533
35.79105558,0.628786087,0.7391090393,-1.5458529,2024-06-11 14:17:42.791056
35.83151735,0.06040906906,0.3936533928,-2.083315611,2024-06-11 14:17:42.831517
35.87194574,0.7417697906,0.9360961914,-4.195411205,2024-06-11 14:17:42.871946
35.91242079,0.745718956,0.5643401146,-5.864013672,2024-06-11 14:17:42.912421
35.9529023,0.09497356415,0.6927056313,-5.49930954,2024-06-11 14:17:42.952902
35.99341287,-1.123847008,-0.3722157478,-0.9683989286,2024-06-11 14:17:42.993413
36.03392501,-1.288085461,-1.23293066,1.118431568,2024-06-11 14:17:43.033925
36.07440412,-1.219650745,0.7776265144,-1.707376599,2024-06-11 14:17:43.074404
36.11487251,1.34481287,2.33847332,1.363711834,2024-06-11 14:17:43.114873
36.15535027,0.2993512154,1.476038456,-0.0566239357,2024-06-11 14:17:43.155350
36.19582553,-0.990445137,1.638507843,-0.3985903263,2024-06-11 14:17:43.195826
36.23632292,-0.3853640556,3.098379135,0.3445043564,2024-06-11 14:17:43.236323
36.27679126,2.364131451,1.430132389,2.71115303,2024-06-11 14:17:43.276791
36.31728245,1.896436214,-2.56752491,5.565561295,2024-06-11 14:17:43.317282
36.35779209,0.741625309,-3.030365944,0.8656258583,2024-06-11 14:17:43.357792
36.39824933,4.720646381,-4.508857727,-0.4005167484,2024-06-11 14:17:43.398249
36.43870896,0.5570120811,-0.7801170349,-2.878518581,2024-06-11 14:17:43.438709
36.47923704,-2.785785437,5.530641556,-5.160193443,2024-06-11 14:17:43.479237
36.51970511,-1.724748611,1.809951782,-0.9614025354,2024-06-11 14:17:43.519705
36.56016152,-0.4572441578,-5.612597466,0.9676799774,2024-06-11 14:17:43.560162
36.60068318,-4.149923325,-3.133203506,-2.526587486,2024-06-11 14:17:43.600683
36.64118662,-1.032740355,1.362800121,-0.2353315353,2024-06-11 14:17:43.641187
36.68158839,-1.158385754,0.1759405136,-0.2738119364,2024-06-11 14:17:43.681588
36.72203693,-0.2173666954,-0.1213855743,-0.3543129563,2024-06-11 14:17:43.722037
36.76253058,1.488875151,0.3271808624,0.7724422216,2024-06-11 14:17:43.762531
36.80303105,1.517293215,0.2155780792,1.521843433,2024-06-11 14:17:43.803031
36.84355162,0.3486738205,-0.693693161,-0.2317042649,2024-06-11 14:17:43.843552
36.88404188,-0.3384923935,-1.084774971,-1.101511359,2024-06-11 14:17:43.884042
36.92450589,-0.07850384712,0.8894882202,-1.313001156,2024-06-11 14:17:43.924506
36.96498839,0.4426109791,0.1153345108,-2.316674948,2024-06-11 14:17:43.964988
37.00545574,1.028752327,0.06164264679,-0.9522714019,2024-06-11 14:17:44.005456
37.045946,0.6973698139,0.5806941986,4.872717857,2024-06-11 14:17:44.045946
37.08647188,0.00160908699,-1.395722389,1.773912668,2024-06-11 14:17:44.086472
37.12690558,-0.1626656055,-0.03932380676,-1.773469448,2024-06-11 14:17:44.126906
37.16740339,-0.0272166729,0.3072919846,-3.440983772,2024-06-11 14:17:44.167403
37.20785542,1.013195753,-0.3110733032,-1.773737669,2024-06-11 14:17:44.207855
37.24835876,0.6411826611,0.5123405457,-1.683995247,2024-06-11 14:17:44.248359
37.28886688,1.884572744,1.338829994,-1.272757411,2024-06-11 14:17:44.288867
37.32929454,0.3091804981,0.7852458954,0.1643961668,2024-06-11 14:17:44.329295
37.3698198,-0.9936307669,0.2907381058,-1.473954558,2024-06-11 14:17:44.369820
37.41030199,-1.531714797,-1.59373951,-0.216168046,2024-06-11 14:17:44.410302
37.45079886,-0.7476742268,-1.046801567,0.7601161003,2024-06-11 14:17:44.450799
37.49130725,0.5090203285,0.7012042999,0.2804689407,2024-06-11 14:17:44.491307
37.53167917,1.738890648,0.9743471146,-1.280118942,2024-06-11 14:17:44.531679
37.57216126,1.444118977,0.07361698151,-0.7371886969,2024-06-11 14:17:44.572161
37.61263995,1.660587072,-1.26715374,-1.623544335,2024-06-11 14:17:44.612640
37.65312042,1.540460825,-0.3212623596,-2.251205206,2024-06-11 14:17:44.653120
37.69362365,-0.6160502434,1.340912819,1.344429016,2024-06-11 14:17:44.693624
37.73413027,-0.4833488464,1.154743195,0.3005273342,2024-06-11 14:17:44.734130
37.77460751,3.269474983,3.237926006,2.351707458,2024-06-11 14:17:44.774608
37.81508032,1.680052757,0.4344444275,-0.2107368708,2024-06-11 14:17:44.815080
37.85556058,0.01630735397,-0.9791240692,-1.125615954,2024-06-11 14:17:44.855561
37.89602574,-1.635302305,-0.7286233902,0.3122689724,2024-06-11 14:17:44.896026
37.93653824,-1.29859376,0.1242427826,-0.2693583369,2024-06-11 14:17:44.936538
37.97700396,0.2056553364,0.9292163849,-0.1797055602,2024-06-11 14:17:44.977004
38.01754662,0.8801224232,1.866146564,-0.5228347778,2024-06-11 14:17:45.017547
38.05802949,3.25133729,1.22114563,-0.5320758224,2024-06-11 14:17:45.058029
38.09850386,3.884081841,-1.306429863,1.33615458,2024-06-11 14:17:45.098504
38.13893672,1.744614601,-1.576648712,1.775247335,2024-06-11 14:17:45.138937
38.17940318,-1.701309323,-0.3532962799,0.8373054266,2024-06-11 14:17:45.179403
38.21989714,-2.564982414,-0.9210557938,-2.929674387,2024-06-11 14:17:45.219897
38.26036532,-3.648271084,-0.3928585052,-1.43548882,2024-06-11 14:17:45.260365
38.30089969,-2.911738873,0.4389209747,-0.3879081607,2024-06-11 14:17:45.300900
38.34140655,-2.444515705,-1.566381454,-0.4457967877,2024-06-11 14:17:45.341407
38.38179082,-1.303779364,-2.316823006,1.545423508,2024-06-11 14:17:45.381791
38.4222729,-0.5898711681,0.7143716812,2.497416258,2024-06-11 14:17:45.422273
38.46276493,1.482056379,1.871465206,-1.040869594,2024-06-11 14:17:45.462765
38.50325936,2.723099232,0.2576990128,-3.626015186,2024-06-11 14:17:45.503259
38.54376092,1.399439335,-0.2914361954,2.593274593,2024-06-11 14:17:45.543761
38.58422863,0.03282594681,-0.6672697067,3.045259476,2024-06-11 14:17:45.584229
38.62468738,-2.776809454,-1.018585205,1.254911184,2024-06-11 14:17:45.624687
38.66516848,-2.172962666,0.2715177536,0.18038252,2024-06-11 14:17:45.665168
38.70567712,-1.949836969,0.2336797714,-1.909346104,2024-06-11 14:17:45.705677
38.74615525,-1.642980576,-1.250197411,-0.3683758676,2024-06-11 14:17:45.746155
38.78665066,-0.6058835983,0.03564167023,-0.4776826501,2024-06-11 14:17:45.786651
38.82713978,0.672535181,0.2975492477,-0.06149485707,2024-06-11 14:17:45.827140
38.8675704,0.681147337,0.06458473206,-0.1857897639,2024-06-11 14:17:45.867570
38.90805124,0.8091862202,0.5592803955,-0.1059484035,2024-06-11 14:17:45.908051
38.94854941,0.4391150475,0.08047771454,-0.8363543153,2024-06-11 14:17:45.948549
38.98904472,-0.04479646683,0.1099433899,-0.8959214091,2024-06-11 14:17:45.989045
39.02953186,-0.7328755856,-0.1015634537,-0.4255528152,2024-06-11 14:17:46.029532
39.07001618,-1.10765636,-0.3575172424,0.1207100451,2024-06-11 14:17:46.070016
39.11053519,-0.08351695538,-0.1898031235,0.3940316439,2024-06-11 14:17:46.110535
39.15103514,0.7578144073,0.247631073,0.4067803621,2024-06-11 14:17:46.151035
39.19148629,1.707975626,0.1310100555,-0.2096651793,2024-06-11 14:17:46.191486
39.23190321,1.257621765,0.1358947754,-0.2253632843,2024-06-11 14:17:46.231903
39.27238962,-0.1654441357,0.08919811249,-0.06492954493,2024-06-11 14:17:46.272390
39.312884,-1.132620335,-0.08482170105,-0.1807101369,2024-06-11 14:17:46.312884
39.35339228,-1.314348459,-0.09365940094,0.1087267399,2024-06-11 14:17:46.353392
39.39388571,-0.3327605724,-0.05774688721,0.1521375179,2024-06-11 14:17:46.393886
39.43434629,-0.03182911873,0.08409023285,0.3097608089,2024-06-11 14:17:46.434346
39.47481665,-0.221955061,-0.2727184296,0.2852649689,2024-06-11 14:17:46.474817
39.51530379,0.2220500708,0.08735370636,-0.10964939,2024-06-11 14:17:46.515304
39.55579499,0.6121741533,0.3450031281,-0.4241987467,2024-06-11 14:17:46.555795
39.59627295,0.9076561928,0.2478790283,-0.5946417451,2024-06-11 14:17:46.596273
39.63675071,0.6447665691,0.2016334534,-0.4865304232,2024-06-11 14:17:46.636751
39.67727124,0.2420659065,0.1770296097,-0.3383719325,2024-06-11 14:17:46.677271
39.71773061,0.5214960575,-0.05088233948,-0.6648025513,2024-06-11 14:17:46.717731
39.75818243,0.2920017242,0.1187677383,-0.3532377481,2024-06-11 14:17:46.758182
39.79866025,0.3042452335,-0.003707885742,-0.6119058728,2024-06-11 14:17:46.798660
39.83917717,0.2214624882,0.03478240967,-0.5173746943,2024-06-11 14:17:46.839177
39.87961957,-0.136824131,0.061170578,-0.2684614956,2024-06-11 14:17:46.879620
39.92010056,-0.4308650494,-0.2383317947,-0.3496327996,2024-06-11 14:17:46.920101
39.96060624,-0.9020892382,-0.1674280167,0.5227287412,2024-06-11 14:17:46.960606
40.00109014,-0.8020932674,-0.1260890961,0.2706322372,2024-06-11 14:17:47.001090
40.04156655,-0.6386568546,-0.1470661163,-0.3407481015,2024-06-11 14:17:47.041567
40.08204764,-0.6901384592,0.1392889023,-0.4397711158,2024-06-11 14:17:47.082048
40.12248816,-0.4750671387,0.05340099335,-0.4140127599,2024-06-11 14:17:47.122488
40.16294842,-0.7240611315,-0.002811431885,0.5966374874,2024-06-11 14:17:47.162948
40.20347624,-0.5488517284,0.4393568039,-0.6746551394,2024-06-11 14:17:47.203476
40.24398821,-0.7038384676,0.1026287079,-1.2812047,2024-06-11 14:17:47.243988
40.28446842,-1.475704789,-0.628821373,-0.3661748767,2024-06-11 14:17:47.284468
40.3249154,-0.8890753984,-0.8157815933,0.7590042949,2024-06-11 14:17:47.324915
40.36542743,0.6001801491,0.4234895706,0.3060708344,2024-06-11 14:17:47.365427
40.40590769,0.2134859562,-0.001472473145,0.07327137887,2024-06-11 14:17:47.405908
40.44635884,-0.9304902554,-0.2597112656,0.6663172245,2024-06-11 14:17:47.446359
40.48691983,-1.074419975,-0.07674121857,-0.6714752913,2024-06-11 14:17:47.486920
40.52734295,0.3202996254,-0.2986488342,-1.006214619,2024-06-11 14:17:47.527343
40.5678429,2.005130768,0.2825517654,-0.1713813245,2024-06-11 14:17:47.567843
40.60830978,4.305237293,1.276325226,-0.437063396,2024-06-11 14:17:47.608310
40.64879134,3.842890978,1.326694489,0.9780468345,2024-06-11 14:17:47.648791
40.68929353,-0.1430213451,-0.3190717697,3.266844034,2024-06-11 14:17:47.689294
40.72974915,-2.334750652,-0.9183216095,2.141044617,2024-06-11 14:17:47.729749
40.77023946,-1.575622201,-0.1499109268,0.5263305306,2024-06-11 14:17:47.770239
40.81073139,0.3536915779,0.00161075592,-0.7770103812,2024-06-11 14:17:47.810731
40.85123061,0.9066815376,-0.009187698364,0.2388582528,2024-06-11 14:17:47.851231
40.89166051,0.6713821888,0.2709388733,-0.3310135305,2024-06-11 14:17:47.891661
40.93214202,0.1575202942,0.6380271912,-1.096354604,2024-06-11 14:17:47.932142
40.97260155,-0.8106286526,0.09776592255,-1.499087095,2024-06-11 14:17:47.972602
41.01308311,-0.3761754036,-0.3868961334,-3.23101759,2024-06-11 14:17:48.013083
41.05358394,-0.6695125103,-0.2325086594,-3.477659702,2024-06-11 14:17:48.053584
41.09410176,-0.1893792152,-0.2910614014,-2.627790689,2024-06-11 14:17:48.094102
41.13458118,0.7998747826,-0.3382434845,-1.956101179,2024-06-11 14:17:48.134581
41.1750629,2.357492924,0.6887626648,8.111654282,2024-06-11 14:17:48.175063
41.21553884,-0.8411221504,-0.0709028244,-2.043498039,2024-06-11 14:17:48.215539
41.25598696,-1.619492412,-0.2574605942,-1.91701746,2024-06-11 14:17:48.255987
41.29650806,-1.011948109,-0.550825119,-1.308413148,2024-06-11 14:17:48.296508
41.3369553,-0.4447052479,-0.363448143,0.6285721064,2024-06-11 14:17:48.336955
41.37746905,0.07138156891,-0.01013183594,-0.5126627684,2024-06-11 14:17:48.377469
41.41795077,-0.1237573624,-0.03483867645,-1.788022041,2024-06-11 14:17:48.417951
41.45839634,-1.061462164,-0.02679443359,-1.377118111,2024-06-11 14:17:48.458396
41.4989016,-1.172145605,0.07678508759,-1.596656322,2024-06-11 14:17:48.498902
41.5393892,-1.168848038,-0.2801685333,-1.511348248,2024-06-11 14:17:48.539389
41.57984545,0.1142110825,0.05157375336,-2.743368864,2024-06-11 14:17:48.579845
41.62035181,0.5758090019,-0.7207612991,-2.081909418,2024-06-11 14:17:48.620352
41.66083337,3.487664223,-1.228463173,1.789379597,2024-06-11 14:17:48.660833
41.70135014,4.811128616,-1.325844765,1.028353453,2024-06-11 14:17:48.701350
41.74174176,0.8324141502,-0.5496807098,-1.317070723,2024-06-11 14:17:48.741742
41.78222327,-0.9090240002,1.717843533,1.468428612,2024-06-11 14:17:48.782223
41.82268488,0.1069374084,1.386042595,3.562061548,2024-06-11 14:17:48.822685
41.86319702,-0.7904672623,-1.336257935,2.406873226,2024-06-11 14:17:48.863197
41.90372655,-0.9317305088,0.0003480911255,0.5454626083,2024-06-11 14:17:48.903727
41.94418837,0.6598494053,2.29366684,-4.011688232,2024-06-11 14:17:48.944188
41.98468118,3.294602871,2.14393425,-3.053996086,2024-06-11 14:17:48.984681
42.02516014,2.132115841,1.678726196,0.9308088422,2024-06-11 14:17:49.025160
42.06566165,-0.3782467842,1.20934391,3.778799772,2024-06-11 14:17:49.065662
42.10615983,-2.842894316,1.026938438,3.795962334,2024-06-11 14:17:49.106160
42.14660228,-2.112917423,-0.2584381104,0.3947271407,2024-06-11 14:17:49.146602
42.18707592,2.120163202,0.08931827545,-0.1835639179,2024-06-11 14:17:49.187076
42.22756124,4.19000721,-0.3137216568,-0.2411930561,2024-06-11 14:17:49.227561
42.26806681,4.722622871,-0.9553089142,-0.897375226,2024-06-11 14:17:49.268067
42.30854853,3.311846733,-0.4148550034,2.884057522,2024-06-11 14:17:49.308549
42.34902577,-1.31084311,-2.738150597,5.667225361,2024-06-11 14:17:49.349026
42.38951269,-2.655345678,-0.3650064468,3.359770298,2024-06-11 14:17:49.389513
42.42998525,-2.924847126,0.8176755905,0.4197164774,2024-06-11 14:17:49.429985
42.47046821,-1.428084135,0.70262146,-1.331570148,2024-06-11 14:17:49.470468
42.51098514,0.9635484219,-0.9182844162,-2.214178801,2024-06-11 14:17:49.510985
42.55146009,-0.242957592,-0.8824710846,3.588792562,2024-06-11 14:17:49.551460
42.59194155,-4.251851082,-0.9561758041,3.994072914,2024-06-11 14:17:49.591942
42.63242504,-2.195208788,-0.62596035,-0.4964368045,2024-06-11 14:17:49.632425
42.67290733,1.040792227,0.08439254761,-1.483810306,2024-06-11 14:17:49.672907
42.71335483,1.129953861,0.4462585449,0.6654868126,2024-06-11 14:17:49.713355
42.75381769,-0.1947588921,-0.3444566727,0.5254567266,2024-06-11 14:17:49.753818
42.79430176,-0.772138834,-0.107834816,0.01111738384,2024-06-11 14:17:49.794302
42.83478478,-0.2122147083,-0.2592611313,-1.20099318,2024-06-11 14:17:49.834785
42.87522196,0.4413306713,0.002065658569,-0.3894891739,2024-06-11 14:17:49.875222
42.9157366,0.1624302864,0.2100715637,0.9380908012,2024-06-11 14:17:49.915737
42.95622837,-2.089961529,-0.1995487213,0.4855885506,2024-06-11 14:17:49.956228
42.99670853,-1.833832979,-0.4054956436,-0.3999586701,2024-06-11 14:17:49.996709
43.03723186,-1.624465942,0.1182394028,-1.461983204,2024-06-11 14:17:50.037232
43.07773504,-0.732817173,0.1422166824,-1.445199847,2024-06-11 14:17:50.077735
43.11817207,-0.2227632999,0.002954483032,-0.5609685183,2024-06-11 14:17:50.118172
43.1586315,-0.7865440845,-0.330830574,-0.05299526453,2024-06-11 14:17:50.158631
43.19912092,0.1015353203,-0.503446579,1.82339406,2024-06-11 14:17:50.199121
43.23960181,1.654018164,0.1232252121,0.7276010513,2024-06-11 14:17:50.239602
43.28008238,1.813520432,1.114076138,1.709686279,2024-06-11 14:17:50.280082
43.32058363,0.2362082005,0.8192329407,1.509629726,2024-06-11 14:17:50.320584
43.36107879,-1.979218483,-0.4022550583,-1.666276693,2024-06-11 14:17:50.361079
43.4015629,0.898727417,-0.6130218506,-1.7475667,2024-06-11 14:17:50.401563
43.44204525,7.461960793,1.661159992,-1.020053983,2024-06-11 14:17:50.442045
43.4824903,5.313693047,1.615253448,0.3208085895,2024-06-11 14:17:50.482490
43.522954,-0.2423069477,0.4001111984,1.696688533,2024-06-11 14:17:50.522954
43.56344311,-0.7041935921,0.3829193115,-1.257011414,2024-06-11 14:17:50.563443
43.60392598,-0.06001520157,-0.05138206482,-1.145451427,2024-06-11 14:17:50.603926
43.64440707,0.9130721092,0.8087024689,-1.404841304,2024-06-11 14:17:50.644407
43.68489498,-0.590141058,-0.3720226288,1.703719854,2024-06-11 14:17:50.684895
43.72536603,-0.7739582062,-0.8055124283,5.400382519,2024-06-11 14:17:50.725366
43.76584202,-1.728329539,-0.4523630142,1.550595164,2024-06-11 14:17:50.765842
43.80632436,-0.946161747,0.07238769531,-0.3122107089,2024-06-11 14:17:50.806324
43.84680723,0.08793830872,0.3100700378,-1.372458696,2024-06-11 14:17:50.846807
43.88725353,-0.2475612164,0.2592468262,-0.8952471018,2024-06-11 14:17:50.887254
43.9277742,-0.2697284222,-0.5300264359,0.2530147135,2024-06-11 14:17:50.927774
43.96826603,-0.8681046963,-1.135866165,2.455067873,2024-06-11 14:17:50.968266
44.00878509,-1.019475222,-0.2109689713,0.7756564617,2024-06-11 14:17:51.008785
44.04925545,-0.1044125557,0.2318792343,-0.2525262237,2024-06-11 14:17:51.049255
44.08976191,0.2858347893,0.2116470337,-1.133389473,2024-06-11 14:17:51.089762
44.13017504,0.9513192177,0.501042366,-1.801123381,2024-06-11 14:17:51.130175
44.17069384,1.436737776,0.4256706238,-1.031395793,2024-06-11 14:17:51.170694
44.21119613,-0.1503920555,-0.02417469025,2.130073786,2024-06-11 14:17:51.211196
44.25157499,-0.5432589054,-0.6508598328,1.750751257,2024-06-11 14:17:51.251575
44.29205702,0.1397976875,-0.05008983612,0.0198469311,2024-06-11 14:17:51.292057
44.3325529,0.4250845909,0.1570692062,-1.624876976,2024-06-11 14:17:51.332553
44.3730442,0.848559618,0.8009090424,-1.065403461,2024-06-11 14:17:51.373044
44.41352624,0.1730720997,0.3378305435,-0.07720559835,2024-06-11 14:17:51.413526
44.45405087,-1.598120213,-1.310916901,0.9724946618,2024-06-11 14:17:51.454051
44.49449415,-2.124207735,-0.9577493668,1.127345681,2024-06-11 14:17:51.494494
44.53501915,-0.9246220589,-0.3290557861,1.018407464,2024-06-11 14:17:51.535019
44.57547118,-1.267399788,0.1660881042,-0.6821188927,2024-06-11 14:17:51.575471
44.61595748,-1.32122612,-0.4734344482,-1.203809738,2024-06-11 14:17:51.615957
44.65643848,-0.6105029583,-0.05735301971,1.299562097,2024-06-11 14:17:51.656438
44.6969878,-0.2419471741,-0.1634044647,1.382127881,2024-06-11 14:17:51.696988
44.73740118,-1.52995193,-0.2549715042,-0.2814789712,2024-06-11 14:17:51.737401
44.77788655,-2.152215481,-0.1836385727,-1.1511693,2024-06-11 14:17:51.777887
44.81838186,-1.684159398,-0.09429645538,-0.3260131478,2024-06-11 14:17:51.818382
44.85884613,-1.154928207,0.03375244141,-0.2951009274,2024-06-11 14:17:51.858846
44.89931202,-1.126549602,0.1162147522,-0.5561752319,2024-06-11 14:17:51.899312
44.9398254,0.4646468163,-1.542125702,-1.250147104,2024-06-11 14:17:51.939825
44.98029743,0.8632433414,-0.06236171722,-1.364694834,2024-06-11 14:17:51.980297
45.02082473,1.763569117,3.95019722,-0.8726422787,2024-06-11 14:17:52.020825
45.06132816,4.105648994,0.4465332031,-0.3470745087,2024-06-11 14:17:52.061328
45.10169374,-0.6339755058,-0.7153177261,-2.122983456,2024-06-11 14:17:52.101694
45.14226384,-3.28405571,-0.09550762177,-1.272820711,2024-06-11 14:17:52.142264
45.18266196,-0.3460929394,-5.381489754,-4.835886955,2024-06-11 14:17:52.182662
45.22315405,1.707742453,-6.103392601,-4.230809212,2024-06-11 14:17:52.223154
45.26365452,6.951312542,-4.262804031,-4.901556015,2024-06-11 14:17:52.263655
45.30414259,4.043869972,-6.045397758,-6.095602989,2024-06-11 14:17:52.304143
45.34464483,-1.830508709,2.326093674,-2.868718386,2024-06-11 14:17:52.344645
45.38512598,-1.92087245,3.886689663,7.566357613,2024-06-11 14:17:52.385126
45.42560504,-2.54521513,-1.282620907,-3.206224442,2024-06-11 14:17:52.425605
45.46608884,-4.895020485,-2.13697958,-11.19361115,2024-06-11 14:17:52.466089
45.50656832,-0.9161026478,4.983805656,-7.320892811,2024-06-11 14:17:52.506568
45.54702223,-2.142072439,8.896208763,-2.256249666,2024-06-11 14:17:52.547022
45.58751196,-3.113265038,5.106129169,-3.93585062,2024-06-11 14:17:52.587512
45.62798056,3.412025452,-9.023985863,9.496195793,2024-06-11 14:17:52.627981
45.66847738,4.440597534,-14.76389027,2.134605408,2024-06-11 14:17:52.668477
45.70897832,14.18399048,-3.806408882,8.22809124,2024-06-11 14:17:52.708978
45.7494341,10.4332056,2.883845329,-0.6255376339,2024-06-11 14:17:52.749434
45.78993342,8.466710091,1.263410568,-0.4867818356,2024-06-11 14:17:52.789933
45.8304416,4.247366905,2.943525314,-0.5178159475,2024-06-11 14:17:52.830442
45.87087962,0.9038949013,1.732165337,-1.571861267,2024-06-11 14:17:52.870880
45.91132056,4.062305927,-1.552546501,-2.690333366,2024-06-11 14:17:52.911321
45.95178999,-3.541569471,-5.007599831,-5.105104923,2024-06-11 14:17:52.951790
45.99227254,-8.875224113,-7.176667213,-6.611366272,2024-06-11 14:17:52.992273
46.03275707,-11.07915592,-6.944397926,4.970513344,2024-06-11 14:17:53.032757
46.07327243,-10.24574947,-2.677910805,6.000889778,2024-06-11 14:17:53.073272
46.1137792,-5.933015823,1.238572121,3.736405849,2024-06-11 14:17:53.113779
46.15426457,-1.267837405,2.272253036,0.349185586,2024-06-11 14:17:53.154265
46.19473108,1.749118924,3.72249651,2.494592428,2024-06-11 14:17:53.194731
46.23522592,0.8188672066,3.524184704,1.860202074,2024-06-11 14:17:53.235226
46.2757228,2.333827734,3.267882824,2.353552341,2024-06-11 14:17:53.275723
46.3161792,2.074940681,-0.447054863,6.097872734,2024-06-11 14:17:53.316179
46.35668363,4.79308033,2.135546684,11.31154156,2024-06-11 14:17:53.356684
46.39718332,1.176987529,1.17105484,2.512156248,2024-06-11 14:17:53.397183
46.43764129,-1.041129827,-1.33855629,-0.2625684738,2024-06-11 14:17:53.437641
46.47815103,-0.8844062686,-4.311087608,-1.606886864,2024-06-11 14:17:53.478151
46.51860426,-11.00081062,-10.00095272,21.06412697,2024-06-11 14:17:53.518604
46.5590853,1.056286573,-3.247273445,-4.100699902,2024-06-11 14:17:53.559085
46.59955728,0.5246415138,-5.86999321,1.46593976,2024-06-11 14:17:53.599557
46.64002785,6.215517998,-17.3422699,4.884637356,2024-06-11 14:17:53.640028
46.68054275,6.716339588,-10.48611164,-1.612660885,2024-06-11 14:17:53.680543
46.72104374,-0.001564443111,-1.831078529,-4.490609169,2024-06-11 14:17:53.721044
46.76152629,2.58991766,4.540831566,-7.407122135,2024-06-11 14:17:53.761526
46.80200733,-0.4479240179,9.330648422,-6.96440649,2024-06-11 14:17:53.802007
46.84242598,-3.186883926,10.7751894,-5.532013416,2024-06-11 14:17:53.842426
46.88290332,-0.6610466242,8.034392357,-6.893902779,2024-06-11 14:17:53.882903
46.9233878,1.744656682,8.523033142,-5.634665966,2024-06-11 14:17:53.923388
46.96388785,4.043943882,6.530192375,-3.446224689,2024-06-11 14:17:53.963888
47.00440311,16.71183014,-8.914415359,-6.571025372,2024-06-11 14:17:54.004403
47.04484348,13.10797787,-10.99241829,-4.774507523,2024-06-11 14:17:54.044843
47.08533941,-6.155157089,-31.26114273,1.155417442,2024-06-11 14:17:54.085339
47.12579884,-18.43241501,-24.27490425,22.57243347,2024-06-11 14:17:54.125799
47.16628962,-4.508564472,-4.074199677,21.89177895,2024-06-11 14:17:54.166290
47.20677624,-5.711443901,3.324996948,15.23512363,2024-06-11 14:17:54.206776
47.24727254,-0.9691584706,3.804816246,2.106988668,2024-06-11 14:17:54.247273
47.28780717,4.543559551,8.573887825,0.1280283928,2024-06-11 14:17:54.287807
47.32824848,1.122746348,3.152201176,-7.634007931,2024-06-11 14:17:54.328248
47.36871811,21.56491852,-25.91852379,15.21600533,2024-06-11 14:17:54.368718
47.40919915,13.48519039,-30.71160889,-6.870268822,2024-06-11 14:17:54.409199
47.44967603,-4.161747456,0.07068777084,-16.23553658,2024-06-11 14:17:54.449676
47.49015509,-3.601748466,8.862099648,-8.925460815,2024-06-11 14:17:54.490155
47.53067374,-2.177918911,10.59983921,-11.42537689,2024-06-11 14:17:54.530674
47.57115035,-1.303921342,9.1031847,-7.383143425,2024-06-11 14:17:54.571150
47.61163134,-0.4273462296,8.685927391,1.457653761,2024-06-11 14:17:54.611631
47.65200785,2.595987558,7.429512024,6.232818604,2024-06-11 14:17:54.652008
47.69248816,16.26714325,-13.12318325,-8.245048523,2024-06-11 14:17:54.692488
47.73301186,5.534073353,-9.769943237,-12.07306671,2024-06-11 14:17:54.733012
47.77351321,-1.40353322,-9.609469414,-8.109140396,2024-06-11 14:17:54.773513
47.81397571,-2.624928951,-18.8848877,43.00643921,2024-06-11 14:17:54.813976
47.85448821,0.6142938137,-2.014798164,-7.831203461,2024-06-11 14:17:54.854488
47.89493186,-3.734968662,3.768690586,-6.698226452,2024-06-11 14:17:54.894932
47.93545342,-4.875828266,5.984618187,-4.813786507,2024-06-11 14:17:54.935453
47.9759392,-2.82532239,4.269495964,-4.298002243,2024-06-11 14:17:54.975939
48.01646738,-3.361197472,-6.983498096,-6.452711582,2024-06-11 14:17:55.016467
48.05688879,-0.9317879677,-19.09708023,-6.431915283,2024-06-11 14:17:55.056889
48.0973942,7.596886635,-3.838326931,-18.79008865,2024-06-11 14:17:55.097394
48.13784056,-1.209823966,5.448709488,-7.948198795,2024-06-11 14:17:55.137841
48.17835624,-3.2591362,4.68525219,-3.074234009,2024-06-11 14:17:55.178356
48.21880457,1.592439771,3.939747095,7.634079933,2024-06-11 14:17:55.218805
48.25928915,10.53301239,-3.617486477,6.070625305,2024-06-11 14:17:55.259289
48.29984191,-15.98889351,-45.72856522,-15.87256908,2024-06-11 14:17:55.299842
48.34027504,6.517525673,-0.2360033989,9.348630905,2024-06-11 14:17:55.340275
48.380769,-4.939144135,7.285943985,-8.738050461,2024-06-11 14:17:55.380769
48.42125087,-7.101021767,4.674807549,-3.288002014,2024-06-11 14:17:55.421251
48.4617328,-1.332649231,-0.4162940979,-2.067594528,2024-06-11 14:17:55.461733
48.50212926,-1.17486763,-0.05249738693,-0.09118938446,2024-06-11 14:17:55.502129
48.54265842,0.170276165,2.30290556,-1.522389889,2024-06-11 14:17:55.542658
48.58313275,-1.276713371,2.162292004,-2.778040409,2024-06-11 14:17:55.583133
48.6235892,-2.506834984,1.561415672,-2.970156193,2024-06-11 14:17:55.623589
48.66407946,-0.3360295296,2.438834667,-1.677738905,2024-06-11 14:17:55.664079
48.70458988,0.2760558128,0.9710044861,0.1712524891,2024-06-11 14:17:55.704590
48.74505733,-0.02843570709,-1.245339394,-0.6606235504,2024-06-11 14:17:55.745057
48.78554077,0.9314870834,1.190767765,-0.6998839378,2024-06-11 14:17:55.785541
48.82602176,-1.126733303,0.5546431541,-0.1117510796,2024-06-11 14:17:55.826022
48.86651264,-0.9297504425,1.541690826,-0.5257973671,2024-06-11 14:17:55.866513
48.90699061,-1.859457493,0.5030441284,-1.569133043,2024-06-11 14:17:55.906991
48.94749056,-3.821482658,2.114619255,-1.164206982,2024-06-11 14:17:55.947491
48.98796514,-1.237828732,0.6237192154,-1.525944948,2024-06-11 14:17:55.987965
49.02844035,-0.00927066803,-0.4046273232,0.880384922,2024-06-11 14:17:56.028440
49.06892769,-0.8825466633,-0.2078480721,1.036790848,2024-06-11 14:17:56.068928
49.10944139,-0.9114806652,0.3123292923,0.3707475662,2024-06-11 14:17:56.109441
49.14988889,-0.9474687576,0.222533226,0.1514649391,2024-06-11 14:17:56.149889
49.1903817,-1.988530397,1.202979088,-0.9300851822,2024-06-11 14:17:56.190382
49.23089082,-2.120987415,1.461901665,0.2707026005,2024-06-11 14:17:56.230891
49.27137285,-4.224270344,1.544470787,0.585593462,2024-06-11 14:17:56.271373
49.31185488,-6.993164539,-0.06360340118,7.874110222,2024-06-11 14:17:56.311855
49.35233691,-10.88615704,-4.536182404,6.234717369,2024-06-11 14:17:56.352337
49.392819,-2.976057291,2.380308628,4.278866768,2024-06-11 14:17:56.392819
49.43327712,2.900143623,-1.016744614,2.19385767,2024-06-11 14:17:56.433277
49.47373967,-0.6049127579,-2.111449242,-13.89312267,2024-06-11 14:17:56.473740
49.51422426,-0.3236727715,0.07294178009,-5.274682045,2024-06-11 14:17:56.514224
49.5547154,1.029928446,1.148197651,-2.066927433,2024-06-11 14:17:56.554715
49.59518978,-1.012269974,4.771038055,2.217549086,2024-06-11 14:17:56.595190
49.6356665,1.340620041,4.227027893,-6.76272583,2024-06-11 14:17:56.635666
49.67615811,1.385205984,1.275072098,-1.004357338,2024-06-11 14:17:56.676158
49.71663551,0.9791245461,-0.923951149,-0.1010732651,2024-06-11 14:17:56.716636
49.75714488,2.430438995,-2.76283741,-2.669359684,2024-06-11 14:17:56.757145
49.797619,-0.4921569824,-6.700746059,6.61534977,2024-06-11 14:17:56.797619
49.83807295,-1.566328049,-6.652128696,-8.970358849,2024-06-11 14:17:56.838073
49.87854577,2.737550497,-2.685661316,-3.551497936,2024-06-11 14:17:56.878546
49.91906915,4.805946827,2.194395065,-5.628643036,2024-06-11 14:17:56.919069
49.95954431,1.522021055,-3.487750053,-7.27489996,2024-06-11 14:17:56.959544
50.00000848,1.238012075,-5.289330482,-4.243104458,2024-06-11 14:17:57.000008
50.04049884,2.605025053,1.567930698,-1.173776388,2024-06-11 14:17:57.040499
50.08098431,2.288426161,2.226070881,0.8636817336,2024-06-11 14:17:57.080984
50.12142962,3.967849016,0.3502845764,2.870999813,2024-06-11 14:17:57.121430
50.16189321,0.4442996979,-0.7892656326,10.89252663,2024-06-11 14:17:57.161893
50.20235941,-2.766849518,0.3635425568,8.646412849,2024-06-11 14:17:57.202359
50.24283254,-4.887616634,-1.042336464,5.17797327,2024-06-11 14:17:57.242833
50.28331295,-5.365902424,-0.8554039001,-2.340998173,2024-06-11 14:17:57.283313
50.32385129,-5.511267662,0.6303958893,1.645065188,2024-06-11 14:17:57.323851
50.3643116,-5.762078285,0.02769565582,-1.409291744,2024-06-11 14:17:57.364312
50.40479202,-3.01058197,-3.253191471,-6.346570015,2024-06-11 14:17:57.404792
50.44528321,-0.9385166168,-10.37988567,-1.727194905,2024-06-11 14:17:57.445283
50.48579551,3.681134701,-6.898139477,-1.844935894,2024-06-11 14:17:57.485796
50.52624811,3.972474575,0.5121350288,-7.554260254,2024-06-11 14:17:57.526248
50.56674759,3.765864372,3.69043684,-11.59403324,2024-06-11 14:17:57.566748
50.60720712,3.988490343,4.338026524,-6.450990677,2024-06-11 14:17:57.607207
50.64768754,4.995377064,4.630204201,-2.085678816,2024-06-11 14:17:57.647688
50.68823493,3.565091372,1.523636341,-3.028017521,2024-06-11 14:17:57.688235
50.72868894,-6.583366394,-9.368186951,16.16080666,2024-06-11 14:17:57.728689
50.76913842,-1.555193901,1.633109093,-0.1293327808,2024-06-11 14:17:57.769138
50.80966165,2.064167023,0.4067964554,-4.221279621,2024-06-11 14:17:57.809662
50.85010592,-7.187116623,-11.84214973,6.391221046,2024-06-11 14:17:57.850106
50.89055384,5.970323563,0.1875314713,-12.77447891,2024-06-11 14:17:57.890554
50.93111889,6.023578644,4.937086582,-5.722320557,2024-06-11 14:17:57.931119
50.97150957,-0.7695302963,-2.079201698,-4.055111885,2024-06-11 14:17:57.971510
51.01199134,-2.183316708,-3.355156898,-0.998688817,2024-06-11 14:17:58.011991
51.05247321,1.597976685,1.732370853,0.9287502766,2024-06-11 14:17:58.052473
51.09296051,1.45684433,2.509496689,2.586788177,2024-06-11 14:17:58.092961
51.13348045,1.745052814,1.621092319,4.404340267,2024-06-11 14:17:58.133480
51.17396233,-2.280707359,0.9526734352,1.757443547,2024-06-11 14:17:58.173962
51.21444863,-2.723444939,0.2285113335,4.532217979,2024-06-11 14:17:58.214449
51.25492207,-5.960072041,0.7186694145,4.595036507,2024-06-11 14:17:58.254922
51.29539957,-4.912106991,1.467708588,-0.7337836027,2024-06-11 14:17:58.295400
51.33589144,-3.172930241,-1.813857079,2.239310741,2024-06-11 14:17:58.335891
51.37636759,-2.531411648,-3.484798431,4.143538952,2024-06-11 14:17:58.376368
51.41684978,-2.564609051,-1.853155613,-3.693439722,2024-06-11 14:17:58.416850
51.45733712,-0.6620950699,-8.637905121,-2.634076357,2024-06-11 14:17:58.457337
51.49780363,0.3647689819,-7.869301319,-2.310372829,2024-06-11 14:17:58.497804
51.53829436,4.826327324,0.7898693085,-9.529224396,2024-06-11 14:17:58.538294
51.57879446,3.927829504,4.414736271,-10.29842567,2024-06-11 14:17:58.578794
51.6192703,1.450399876,4.737495422,-1.546265841,2024-06-11 14:17:58.619270
51.65973134,3.761577606,3.989239216,-5.020685196,2024-06-11 14:17:58.659731
51.70020848,5.714257717,3.717108011,-3.864245653,2024-06-11 14:17:58.700208
51.74069493,-7.736697674,-4.755695343,9.823356628,2024-06-11 14:17:58.740695
51.78123545,-4.615981102,-5.082051754,8.655396461,2024-06-11 14:17:58.781235
51.82169259,5.169101238,0.9736170769,-1.860342026,2024-06-11 14:17:58.821693
51.86211295,-0.02496099472,-5.579467773,-3.671481848,2024-06-11 14:17:58.862113
51.90257785,-4.365351677,-6.160383701,-0.05695319176,2024-06-11 14:17:58.902578
51.94306056,6.708844185,4.58671236,-6.50216198,2024-06-11 14:17:58.943061
51.98354327,1.463002205,2.24394989,-4.953479767,2024-06-11 14:17:58.983543
52.02407118,-3.365848064,-3.803288937,-3.348640442,2024-06-11 14:17:59.024071
52.06456082,0.9721851349,1.714942932,0.7320957184,2024-06-11 14:17:59.064561
52.10502108,0.9242844582,2.191820621,1.259518862,2024-06-11 14:17:59.105021
52.14549551,0.8554315567,-1.175756454,4.647542953,2024-06-11 14:17:59.145496
52.18598358,0.8996639252,0.2632889748,4.156244278,2024-06-11 14:17:59.185984
52.22649264,-1.215177536,1.470442772,2.119047642,2024-06-11 14:17:59.226493
52.26697431,-4.017053604,1.615586758,4.287113667,2024-06-11 14:17:59.266974
52.30745082,-5.280156612,2.201123714,0.0309920311,2024-06-11 14:17:59.307451
52.34792884,-5.937542915,-0.5926160812,-0.1982886791,2024-06-11 14:17:59.347929
52.38839196,-4.270628929,-3.457649231,5.503831863,2024-06-11 14:17:59.388392
52.42888222,-1.264875889,-1.112279415,-1.368404627,2024-06-11 14:17:59.428882
52.46936665,1.134849072,-4.016687393,-2.450653076,2024-06-11 14:17:59.469367
52.50983999,0.8672261238,-10.24125481,-3.109220028,2024-06-11 14:17:59.509840
52.55031254,2.519281864,0.02667808533,-6.449757576,2024-06-11 14:17:59.550313
52.5908354,1.565756321,3.649549484,-8.814033508,2024-06-11 14:17:59.590835
52.63134285,0.3624038696,4.00723362,-2.928510189,2024-06-11 14:17:59.631343
52.6717617,3.293093443,3.262073517,-3.914811373,2024-06-11 14:17:59.671762
52.71222863,5.343153954,2.146790504,-3.974645853,2024-06-11 14:17:59.712229
52.75270988,3.475022316,-0.07260084152,-2.281069994,2024-06-11 14:17:59.752710
52.79319118,-9.365485191,-7.857075214,14.34856987,2024-06-11 14:17:59.793191
52.83369936,1.325585365,-2.859145641,6.939113617,2024-06-11 14:17:59.833699
52.87418249,4.356640816,-0.6197209358,-3.339519501,2024-06-11 14:17:59.874182
52.91466733,-2.199658871,-6.832843781,-4.925260067,2024-06-11 14:17:59.914667
52.95514108,1.418700695,0.1360721588,-3.643408298,2024-06-11 14:17:59.955141
52.99564056,4.378762722,3.218559265,-3.592285633,2024-06-11 14:17:59.995641
53.03617071,-0.5305924416,-3.19500351,-3.050792217,2024-06-11 14:18:00.036171
53.07660004,0.8921399117,-0.6608633995,-0.769615531,2024-06-11 14:18:00.076600
53.11707056,1.588833809,2.501840115,-0.902600646,2024-06-11 14:18:00.117071
53.1575517,-0.5219759941,2.226612568,0.7767539024,2024-06-11 14:18:00.157552
53.19804811,-2.610887051,0.774699688,1.241079092,2024-06-11 14:18:00.198048
53.23853155,0.8556041718,-0.3806591034,5.933266163,2024-06-11 14:18:00.238532
53.27899686,-2.094952106,0.1489448547,2.11786437,2024-06-11 14:18:00.278997
53.31948342,-1.636871815,1.746314526,1.992173076,2024-06-11 14:18:00.319483
53.35997556,-4.318430901,2.430446148,-0.2443563938,2024-06-11 14:18:00.359976
53.40043723,-4.974065781,0.5777173042,-0.3453511,2024-06-11 14:18:00.400437
53.44092264,-4.015580177,-3.221392155,5.613308907,2024-06-11 14:18:00.440923
53.48144061,-0.8725624084,-2.14841032,1.599724293,2024-06-11 14:18:00.481441
53.52189098,1.523369789,-1.97791481,-1.755628586,2024-06-11 14:18:00.521891
53.56237249,2.389361858,-5.769929886,-2.96346736,2024-06-11 14:18:00.562372
53.60285394,2.479295731,-7.542952538,-3.855984449,2024-06-11 14:18:00.602854
53.64333545,1.533140659,1.374405384,-8.833213806,2024-06-11 14:18:00.643335
53.68381144,-1.371727943,3.783257961,-2.84743166,2024-06-11 14:18:00.683811
53.72428384,1.701390743,4.1682024,-5.075563431,2024-06-11 14:18:00.724284
53.7647767,3.563337564,1.449090481,-4.277906418,2024-06-11 14:18:00.764777
53.80526504,3.951165676,0.7509093285,-2.740294695,2024-06-11 14:18:00.805265
53.84573441,2.210998058,-1.812984467,1.655296087,2024-06-11 14:18:00.845734
53.8862253,-3.812881947,-4.977818966,9.648326874,2024-06-11 14:18:00.886225
53.92665488,0.40817976,-1.349575043,5.744971275,2024-06-11 14:18:00.926655
53.96716764,0.9124317169,-1.99438715,0.9208626747,2024-06-11 14:18:00.967168
54.00766426,-0.1079807281,-0.6045451164,-3.884382248,2024-06-11 14:18:01.007664
54.04815113,-0.7374324799,-4.39311409,-4.423853874,2024-06-11 14:18:01.048151
54.08863676,1.611393452,-0.774544239,-0.6459003091,2024-06-11 14:18:01.088637
54.12909946,5.661725044,1.155576706,-2.009296179,2024-06-11 14:18:01.129099
54.16958472,-1.758144379,-3.124378681,2.920525789,2024-06-11 14:18:01.169585
54.21007259,-0.9513473511,-0.8424019814,-1.944619894,2024-06-11 14:18:01.210073
54.250549,1.323426723,1.982150078,-2.4874475,2024-06-11 14:18:01.250549
54.291049,0.6237711906,2.121716499,0.5512717962,2024-06-11 14:18:01.291049
54.33155332,-0.5902099609,-0.1928744316,0.05380554497,2024-06-11 14:18:01.331553
54.37199446,0.1629767418,0.4461107254,1.360470057,2024-06-11 14:18:01.371994
54.41248045,-1.641866684,0.8525824547,-0.7784987092,2024-06-11 14:18:01.412480
54.45294686,-1.295716286,1.520292759,0.580697298,2024-06-11 14:18:01.452947
54.49339827,-0.4376616478,0.8809723854,1.144408941,2024-06-11 14:18:01.493398
54.5339191,-0.6732292175,1.11912632,-0.1687355042,2024-06-11 14:18:01.533919
54.5744417,-2.006889343,1.757976532,-0.8237041831,2024-06-11 14:18:01.574442
54.61490025,-2.505202293,0.9585266113,-0.935351491,2024-06-11 14:18:01.614900
54.65536483,-2.116257191,-0.1460828781,-1.411346078,2024-06-11 14:18:01.655365
54.6958353,-1.45872879,-1.605303288,-0.1674842238,2024-06-11 14:18:01.695835
54.73631269,3.413237095,-0.9249749184,0.2552770674,2024-06-11 14:18:01.736313
54.77680327,4.872141838,-0.06173992157,0.3574760556,2024-06-11 14:18:01.776803
54.81729384,-1.713472366,0.5797171593,-2.318217754,2024-06-11 14:18:01.817294
54.85780233,-1.426233292,1.90954113,-1.561409235,2024-06-11 14:18:01.857802
54.89829639,-0.1296958923,-0.2912430763,-0.9920579791,2024-06-11 14:18:01.898296
54.93875134,2.512254715,-1.262790203,-0.9486192465,2024-06-11 14:18:01.938751
54.97921228,2.060758114,-1.398355007,-0.8888735175,2024-06-11 14:18:01.979212
55.01971504,2.557789326,-2.732043266,0.7514762878,2024-06-11 14:18:02.019715
55.06018686,3.54402113,-3.302222252,1.692894697,2024-06-11 14:18:02.060187
55.10065035,2.204762459,-2.0497365,1.930021405,2024-06-11 14:18:02.100650
55.14112868,0.1469569206,-0.1212425232,-0.3538640141,2024-06-11 14:18:02.141129
55.18163103,-0.6914696693,1.377243519,-1.752471685,2024-06-11 14:18:02.181631
55.22210285,-0.9241461754,1.361104965,-0.6401393414,2024-06-11 14:18:02.222103
55.26257462,-1.619826794,0.7092251778,1.166820049,2024-06-11 14:18:02.262575
55.30303665,-0.4054431915,-0.8922166824,2.346856594,2024-06-11 14:18:02.303037
55.34350858,1.45194006,-2.34416914,1.133452296,2024-06-11 14:18:02.343509
55.38400889,2.72161746,-1.669561863,-0.4803501368,2024-06-11 14:18:02.384009
55.4245416,1.845273018,-1.081268311,-1.475668907,2024-06-11 14:18:02.424542
55.46499087,1.658540249,-0.4753623009,-1.646162391,2024-06-11 14:18:02.464991
55.50549577,0.9272546768,0.102291584,-1.643970251,2024-06-11 14:18:02.505496
55.54596092,0.565747261,0.07676458359,-1.805477858,2024-06-11 14:18:02.545961
55.58650217,0.5208768845,-1.030481815,-1.59051168,2024-06-11 14:18:02.586502
55.62693603,0.1339244843,-2.18587923,-1.474391699,2024-06-11 14:18:02.626936
55.66741811,0.4131007195,-1.096337318,-1.072894812,2024-06-11 14:18:02.667418
55.7079078,0.2114114761,1.608867168,-0.8932024837,2024-06-11 14:18:02.707908
55.74836196,-5.42890358,1.417285442,-1.321989179,2024-06-11 14:18:02.748362
55.78887144,-3.484667301,2.75431776,2.87720561,2024-06-11 14:18:02.788871
55.82933056,-2.225675106,2.295725822,1.723290682,2024-06-11 14:18:02.829331
55.86981702,-0.82756567,1.374985218,1.616654396,2024-06-11 14:18:02.869817
55.91029358,1.42841053,-0.6998343468,0.84821105,2024-06-11 14:18:02.910294
55.95074795,1.447878361,-0.02016639709,0.5615497828,2024-06-11 14:18:02.950748
55.99130514,1.63567543,-1.19927597,1.648694158,2024-06-11 14:18:02.991305
56.0317704,-0.5091061592,0.01361322403,0.7474683523,2024-06-11 14:18:03.031770
56.0721667,-1.103365421,0.9391441345,-0.2942306399,2024-06-11 14:18:03.072167
56.11266462,0.3439087868,-0.56148386,0.3832181096,2024-06-11 14:18:03.112665
56.15314598,1.147393227,-0.8208942413,0.6340162158,2024-06-11 14:18:03.153146
56.19362733,-1.040643692,-0.04193258286,-2.25573349,2024-06-11 14:18:03.193627
56.23414998,-1.968379498,1.690552711,-2.100279331,2024-06-11 14:18:03.234150
56.27462493,1.842177391,0.2153520584,1.195613384,2024-06-11 14:18:03.274625
56.31511103,3.727944374,-1.456432819,2.465271711,2024-06-11 14:18:03.315111
56.35557837,3.175782681,-1.371798992,2.354958296,2024-06-11 14:18:03.355578
56.3960541,-0.5417232513,-0.4069957733,0.4321341515,2024-06-11 14:18:03.396054
56.43653795,-1.457190514,0.9217996597,1.162206888,2024-06-11 14:18:03.436538
56.4770378,-1.455214024,1.844649315,0.2139878273,2024-06-11 14:18:03.477038
56.51750884,-0.7068076134,1.096277237,-1.446767926,2024-06-11 14:18:03.517509
56.55802561,0.4966139793,-0.3953313828,-2.093706369,2024-06-11 14:18:03.558026
56.59850358,1.295212269,-1.122632504,1.101133704,2024-06-11 14:18:03.598504
56.63897681,0.8715133667,-1.802026749,4.066074848,2024-06-11 14:18:03.638977
56.67944894,-0.4985771179,0.6578221321,1.02080965,2024-06-11 14:18:03.679449
56.71990957,-0.681415081,0.4620389938,-1.671302915,2024-06-11 14:18:03.719910
56.76040691,-1.022820473,0.6963248253,0.1708449721,2024-06-11 14:18:03.760407
56.80089561,-1.24592495,1.014449596,0.003943920135,2024-06-11 14:18:03.800896
56.84142061,-0.1448326111,0.5994143486,-2.023583412,2024-06-11 14:18:03.841421
56.88190702,-0.2790570259,0.9287991524,-1.421366334,2024-06-11 14:18:03.881907
56.92238848,-0.7282886505,0.6682510376,-1.29052937,2024-06-11 14:18:03.922388
56.96287243,-0.7589654922,0.1472229958,-1.672400475,2024-06-11 14:18:03.962872
57.00335493,-0.8553266525,0.1868553162,-2.045522213,2024-06-11 14:18:04.003355
57.04377353,0.4662446976,-0.08782148361,-0.6498587728,2024-06-11 14:18:04.043774
57.08426874,1.756297588,-0.8035421371,3.274436474,2024-06-11 14:18:04.084269
57.12473535,0.9721550941,-1.046302795,2.194604397,2024-06-11 14:18:04.124735
57.16522598,0.7027711868,-2.044186592,1.362477064,2024-06-11 14:18:04.165226
57.20571582,0.8336791992,-1.001518726,2.49094224,2024-06-11 14:18:04.205716
57.24618473,1.30221653,0.3225431442,2.876279116,2024-06-11 14:18:04.246185
57.286679,1.344017029,0.2294139862,1.816226482,2024-06-11 14:18:04.286679
57.32714889,1.50053072,-0.1137208939,1.030595303,2024-06-11 14:18:04.327149
57.36763243,0.6674313545,-0.2872238159,1.230126381,2024-06-11 14:18:04.367632
57.40811598,0.2767324448,0.4386978149,1.688594103,2024-06-11 14:18:04.408116
57.44859561,0.7775373459,1.802021027,1.366557956,2024-06-11 14:18:04.448596
57.48908176,0.145318985,1.392362595,0.5130187273,2024-06-11 14:18:04.489082
57.52955139,-0.1746058464,-1.349625111,0.4765996933,2024-06-11 14:18:04.529551
57.57004254,0.2264428139,-1.761080265,2.204303741,2024-06-11 14:18:04.570043
57.61053967,2.022213221,-0.2320656776,2.18615675,2024-06-11 14:18:04.610540
57.65102431,1.260095596,0.2779483795,0.2811038494,2024-06-11 14:18:04.651024
57.69153389,0.3316392899,0.1834492683,-1.144490242,2024-06-11 14:18:04.691534
57.73201743,-0.7085514069,0.1149673462,-0.8764240742,2024-06-11 14:18:04.732017
57.77245973,-0.7482919693,0.1497650146,-1.646719933,2024-06-11 14:18:04.772460
57.81294129,-0.7751979828,0.5021862984,-1.06771636,2024-06-11 14:18:04.812941
57.8534229,-2.19008255,1.528515339,0.9080604315,2024-06-11 14:18:04.853423
57.89390446,0.1106324196,0.07721757889,0.2825174332,2024-06-11 14:18:04.893904
57.93437952,1.964806557,0.3601875305,1.480490446,2024-06-11 14:18:04.934380
57.97485223,-1.167481422,0.3566908836,0.01672452688,2024-06-11 14:18:04.974852
58.01532769,-1.852942467,0.7600245476,-0.3715998232,2024-06-11 14:18:05.015328
58.05581561,-0.4115567207,-0.2447185516,-0.754134655,2024-06-11 14:18:05.055816
58.09630551,1.645301819,-0.8562793732,0.3700875342,2024-06-11 14:18:05.096306
58.13678931,2.758150816,-1.096633911,0.4032078087,2024-06-11 14:18:05.136789
58.17726196,-0.1768450737,0.5228180885,-1.070288062,2024-06-11 14:18:05.177262
58.2177441,-2.27691412,0.9101347923,-0.5190120339,2024-06-11 14:18:05.217744
58.25822186,-1.227066994,0.8283948898,1.042723656,2024-06-11 14:18:05.258222
58.29870769,-0.0676908493,-0.5759558678,0.5894972682,2024-06-11 14:18:05.298708
58.33917874,0.3984303474,-0.1663250923,0.3828291893,2024-06-11 14:18:05.339179
58.37963384,-0.2452740669,0.1719903946,0.0197685957,2024-06-11 14:18:05.379634
58.42014806,-0.4457383156,0.7829918861,-0.2731880546,2024-06-11 14:18:05.420148
58.46062181,-0.1679244041,0.7521147728,-0.3819026947,2024-06-11 14:18:05.460622
58.50113353,-0.341738224,0.1199731827,-0.4410488605,2024-06-11 14:18:05.501134
58.54164525,-0.2832531929,0.1582698822,-0.4887176752,2024-06-11 14:18:05.541645
58.58213118,-0.4921722412,0.8114542961,-0.3925420046,2024-06-11 14:18:05.582131
58.62261254,-1.064136028,1.348490238,-0.5770258904,2024-06-11 14:18:05.622613
58.66309394,-1.757367134,1.458212376,-0.5683666468,2024-06-11 14:18:05.663094
58.7035753,-1.865370274,1.493765831,0.666584909,2024-06-11 14:18:05.703575
58.74400915,-1.662415981,1.282049179,1.61550808,2024-06-11 14:18:05.744009
58.7844915,-2.309622288,0.1865234375,1.095251322,2024-06-11 14:18:05.784492
58.82496837,-1.729597092,-1.223879337,0.1147694588,2024-06-11 14:18:05.824968
58.86543394,-0.2234282494,-1.44771719,-0.3492931724,2024-06-11 14:18:05.865434
58.90591556,1.668334484,-1.293120861,0.2917740345,2024-06-11 14:18:05.905916
58.94640879,0.7906713486,-1.599969864,0.7058513165,2024-06-11 14:18:05.946409
58.98689139,1.60605669,-3.43132925,0.01708889008,2024-06-11 14:18:05.986891
59.02737071,1.777899265,-2.790240288,-4.743253708,2024-06-11 14:18:06.027371
59.0678504,1.089769363,1.303143978,-4.632804394,2024-06-11 14:18:06.067850
59.10834868,0.1222281456,0.8217306137,-2.303719282,2024-06-11 14:18:06.108349
59.14883025,1.336450577,0.04510688782,-0.7582576275,2024-06-11 14:18:06.148830
59.18931254,2.034769058,-1.135149956,-0.8098446131,2024-06-11 14:18:06.189313
59.2297954,2.515959263,-2.608986855,-0.3725870252,2024-06-11 14:18:06.229795
59.27025754,1.833959103,-2.345793724,1.204697132,2024-06-11 14:18:06.270258
59.31072858,-7.016001701,-3.68894577,14.11955261,2024-06-11 14:18:06.310729
59.35128754,3.124089718,-4.179795265,3.157372475,2024-06-11 14:18:06.351288
59.39168806,7.224620819,0.2717962265,-9.201228142,2024-06-11 14:18:06.391688
59.43217467,4.938676834,3.838439465,-1.676892757,2024-06-11 14:18:06.432175
59.47265587,-0.4492540359,0.1882791519,3.261451244,2024-06-11 14:18:06.472656
59.51311519,-0.805603981,-2.902755737,-1.249363661,2024-06-11 14:18:06.513115
59.55362978,1.22268486,-1.519356251,0.116117239,2024-06-11 14:18:06.553630
59.59410957,0.3403811455,-0.2516717911,-0.2646756172,2024-06-11 14:18:06.594110
59.63459212,-2.012971401,-0.3414258957,1.375612259,2024-06-11 14:18:06.634592
59.67507337,-2.595417023,-0.1834635735,2.066031218,2024-06-11 14:18:06.675073
59.71553519,-1.556718349,1.180118084,-2.730853319,2024-06-11 14:18:06.715535
59.75605769,-2.626223087,2.468493462,-3.984342098,2024-06-11 14:18:06.756058
59.79652811,0.9257035255,3.823676825,-5.922066689,2024-06-11 14:18:06.796528
59.83704702,0.01531839371,-0.7373132706,4.007949352,2024-06-11 14:18:06.837047
59.87752598,-4.981006145,-5.170835495,4.761167049,2024-06-11 14:18:06.877526
59.91795493,-1.040772438,-2.3507967,-3.347981453,2024-06-11 14:18:06.917955
59.95842176,1.298099518,0.93090868,-0.815384388,2024-06-11 14:18:06.958422
59.99894452,5.760680199,4.362779617,-5.602276802,2024-06-11 14:18:06.998945
60.03947436,6.0247159,6.440792561,-2.333666801,2024-06-11 14:18:07.039474
60.0799342,-0.6871418953,0.1056571007,-10.16268349,2024-06-11 14:18:07.079934
60.12036426,-2.205037594,-5.4521842,-2.610226631,2024-06-11 14:18:07.120364
60.1608465,-4.450070381,-13.13284874,11.25927925,2024-06-11 14:18:07.160846
60.20138108,0.6887841225,-4.168413162,3.736165047,2024-06-11 14:18:07.201381
60.24187535,0.1180634499,1.891035557,4.244839191,2024-06-11 14:18:07.241875
60.28224249,-0.8720960617,-0.1825933456,-4.54993391,2024-06-11 14:18:07.282242
60.3227241,-2.913613319,0.781539917,-5.645454407,2024-06-11 14:18:07.322724
60.36320243,-1.953728676,2.553435326,-0.9814724922,2024-06-11 14:18:07.363202
60.40373978,1.718262196,0.8405923843,1.656062245,2024-06-11 14:18:07.403740
60.44421446,4.982165337,-7.294595718,0.2703564167,2024-06-11 14:18:07.444214
60.48469707,-3.185606956,-1.544145107,0.5990403891,2024-06-11 14:18:07.484697
60.52517978,-8.157202721,4.823074341,2.670782328,2024-06-11 14:18:07.525180
60.56567415,-5.181052208,7.324420929,-0.6191304326,2024-06-11 14:18:07.565674
60.60614884,4.040156364,5.678727627,0.6399326324,2024-06-11 14:18:07.606149
60.64663071,6.693622589,5.537426949,2.829574585,2024-06-11 14:18:07.646631
60.68712446,7.262403488,6.541148663,-1.651608229,2024-06-11 14:18:07.687124
60.72758759,3.979790926,1.270830154,-7.782991886,2024-06-11 14:18:07.727588
60.76808071,-2.446069241,-5.611934662,-8.703701973,2024-06-11 14:18:07.768081
60.80856603,-10.25443363,-1.251261711,12.18941402,2024-06-11 14:18:07.808566
60.84904384,-9.904888153,-1.123602867,-3.762450218,2024-06-11 14:18:07.849044
60.88951342,-1.776783466,-5.913228035,1.775737047,2024-06-11 14:18:07.889513
60.93000795,-7.919034004,-4.203673363,9.480642319,2024-06-11 14:18:07.930008
60.97048228,-5.423254967,-2.12729454,10.4088068,2024-06-11 14:18:07.970482
61.01096696,-1.490938187,0.09300422668,2.332568169,2024-06-11 14:18:08.010967
61.05145696,-1.938770771,-0.8240222931,-2.584025383,2024-06-11 14:18:08.051457
61.09195884,-3.822200298,-2.178030968,-2.048251152,2024-06-11 14:18:08.091959
61.13238561,-1.613249302,0.2310791016,-4.625870705,2024-06-11 14:18:08.132386
61.17287025,0.2758173943,2.200858593,-6.115652561,2024-06-11 14:18:08.172870
61.21335811,0.2008209229,4.40285778,-3.428580284,2024-06-11 14:18:08.213358
61.25384275,-3.099669933,5.315634727,-1.314647436,2024-06-11 14:18:08.253843
61.29433525,-4.175384521,3.55172348,-2.334549427,2024-06-11 14:18:08.294335
61.33482608,-0.4358510971,-1.472988605,-5.655056477,2024-06-11 14:18:08.334826
61.37524603,3.220125198,2.112322807,-3.001627445,2024-06-11 14:18:08.375246
61.41576748,2.862485409,4.655653954,0.9714775085,2024-06-11 14:18:08.415767
61.45626775,-10.13306618,0.5990815163,6.401087284,2024-06-11 14:18:08.456268
61.49676045,1.728641033,5.550206184,-13.86673927,2024-06-11 14:18:08.496760
61.53724113,-1.134777069,-9.294426918,11.55334091,2024-06-11 14:18:08.537241
61.57772759,5.403338432,-20.9012661,-21.66362953,2024-06-11 14:18:08.577728
61.61819722,8.484445572,0.4930615425,-8.563321114,2024-06-11 14:18:08.618197
61.65867926,-0.4184436798,-4.25742054,-12.72768688,2024-06-11 14:18:08.658679
