Time (s),Acceleration x (m/s^2),Acceleration y (m/s^2),Acceleration z (m/s^2),Datetime
0.0,-3.145365477,5.248656273,7.100401878,2024-06-05 17:19:23.000000
0.011244027,-2.917748213,6.046363831,7.260721207,2024-06-05 17:19:23.011244
0.051244027,-3.154936552,5.902495384,6.374479294,2024-06-05 17:19:23.051244
0.091244027,-2.596810818,5.543272972,6.388836384,2024-06-05 17:19:23.091244
0.131244027,-2.596810818,5.543272972,6.388836384,2024-06-05 17:19:23.131244
0.171244027,-3.432803154,6.075077534,6.494120598,2024-06-05 17:19:23.171244
0.211244027,-1.73898387,5.006682396,8.49332428,2024-06-05 17:19:23.211244
0.251244027,-2.07098794,4.182653904,10.1282196,2024-06-05 17:19:23.251244
0.291244027,-1.660020709,4.588536739,8.953044891,2024-06-05 17:19:23.291244
0.331244027,-2.773879766,4.446163654,7.119544506,2024-06-05 17:19:23.331244
0.371244027,-1.124626637,4.007678986,7.124330521,2024-06-05 17:19:23.371244
0.411244027,-0.3484548032,2.130808592,8.953044891,2024-06-05 17:19:23.411244
0.451244027,-0.6574280262,0.2826521695,10.36899757,2024-06-05 17:19:23.451244
0.491244027,-1.886441588,-0.05144568533,11.18465137,2024-06-05 17:19:23.491244
0.531244027,-1.701895118,2.77746892,11.0371933,2024-06-05 17:19:23.531244
0.571244027,-2.420639277,3.703491211,10.74138069,2024-06-05 17:19:23.571244
0.611244027,-1.213460207,3.115455151,8.683553696,2024-06-05 17:19:23.611244
0.651244027,-1.288834095,2.690130949,8.142177582,2024-06-05 17:19:23.651244
0.691244027,-1.65762794,1.833799481,10.05643559,2024-06-05 17:19:23.691244
0.731244027,-0.2407777756,2.812463999,10.25145054,2024-06-05 17:19:23.731244
0.771244027,-0.02153540403,3.591925859,10.52572727,2024-06-05 17:19:23.771244
0.811244027,-0.4109672904,2.413460732,8.712566376,2024-06-05 17:19:23.811244
0.851244027,-0.04067798331,3.152543783,8.556734085,2024-06-05 17:19:23.851244
0.891244027,-0.07058826834,3.091526747,8.480163574,2024-06-05 17:19:23.891244
0.931244027,0.2850449979,4.219742775,8.912366867,2024-06-05 17:19:23.931244
0.971244027,0.2850449979,4.219742775,8.912366867,2024-06-05 17:19:23.971244
1.011244027,0.2850449979,4.219742775,8.912366867,2024-06-05 17:19:24.011244
1.051244027,0.2850449979,4.219742775,8.912366867,2024-06-05 17:19:24.051244
1.091244027,0.2850449979,4.219742775,8.912366867,2024-06-05 17:19:24.091244
1.131244027,0.2850449979,4.219742775,8.912366867,2024-06-05 17:19:24.131244
1.171244027,0.2850449979,4.219742775,8.912366867,2024-06-05 17:19:24.171244
1.211244027,0.2850449979,4.219742775,8.912366867,2024-06-05 17:19:24.211244
1.251244027,0.2850449979,4.219742775,8.912366867,2024-06-05 17:19:24.251244
1.291244027,5.363512039,0.6311069727,7.129116058,2024-06-05 17:19:24.291244
1.331244027,2.233700037,-0.1654038578,11.44696426,2024-06-05 17:19:24.331244
1.371244027,-0.6852445602,-0.432502687,5.743073463,2024-06-05 17:19:24.371244
1.411244027,-5.167001247,-1.071984529,5.473581791,2024-06-05 17:19:24.411244
1.451244027,-8.360222816,-2.036292076,3.522534132,2024-06-05 17:19:24.451244
1.491244027,-8.155337334,-2.061416626,12.23270798,2024-06-05 17:19:24.491244
1.531244027,-10.43480015,-2.08534503,8.345866203,2024-06-05 17:19:24.531244
1.571244027,-8.359026909,-1.553540111,9.148359299,2024-06-05 17:19:24.571244
1.611244027,-9.934102058,-2.68175602,9.027522087,2024-06-05 17:19:24.611244
1.651244027,-8.148159027,-2.224128723,9.130413055,2024-06-05 17:19:24.651244
1.691244027,-6.600900173,-2.084148407,5.114359379,2024-06-05 17:19:24.691244
1.731244027,2.771486759,-0.9245268703,16.20688629,2024-06-05 17:19:24.731244
1.771244027,-5.593522072,-3.042174816,10.33789158,2024-06-05 17:19:24.771244
1.811244027,-9.221340179,-3.266202927,2.360818624,2024-06-05 17:19:24.811244
1.851244027,-2.524727106,2.094916344,4.634000301,2024-06-05 17:19:24.851244
1.891244027,-7.8810606,-0.5784648657,5.426921844,2024-06-05 17:19:24.891244
1.931244027,-1.943869352,1.13419795,6.801897526,2024-06-05 17:19:24.931244
1.971244027,-15.80668736,-8.754440308,4.212564468,2024-06-05 17:19:24.971244
2.011244027,-3.952643871,-2.33449769,5.924030781,2024-06-05 17:19:25.011244
2.051244027,-9.43460083,-4.952843666,6.173183441,2024-06-05 17:19:25.051244
2.091244027,-0.8718847632,-0.1064806059,10.11984539,2024-06-05 17:19:25.091244
2.131244027,-7.719544888,-2.859123945,7.610372543,2024-06-05 17:19:25.131244
2.171244027,-7.369893551,-4.16710043,7.478767395,2024-06-05 17:19:25.171244
2.211244027,-7.434499741,-7.412964344,4.136891365,2024-06-05 17:19:25.211244
2.251244027,-7.481160164,-11.67577839,3.732205153,2024-06-05 17:19:25.251244
2.291244027,-5.300102234,-5.992226124,5.20169735,2024-06-05 17:19:25.291244
2.331244027,-5.560022354,-5.101198673,7.477570534,2024-06-05 17:19:25.331244
2.371244027,-5.73948431,-4.749154568,7.208079338,2024-06-05 17:19:25.371244
2.411244027,-5.737091541,-3.809971809,5.998208046,2024-06-05 17:19:25.411244
2.451244027,-5.901299,-4.450949192,6.273681641,2024-06-05 17:19:25.451244
2.491244027,-6.588936329,-5.480760098,6.207879066,2024-06-05 17:19:25.491244
2.531244027,-5.550451279,-4.967200756,5.413761139,2024-06-05 17:19:25.531244
2.571244027,-6.17557621,-3.814757586,6.726523399,2024-06-05 17:19:25.571244
2.611244027,-6.17557621,-3.814757586,6.726523399,2024-06-05 17:19:25.611244
2.651244027,-6.17557621,-3.814757586,6.726523399,2024-06-05 17:19:25.651244
2.691244027,-6.17557621,-3.814757586,6.726523399,2024-06-05 17:19:25.691244
2.731244027,-6.17557621,-3.814757586,6.726523399,2024-06-05 17:19:25.731244
2.771244027,-6.17557621,-3.814757586,6.726523399,2024-06-05 17:19:25.771244
2.811244027,-6.17557621,-3.814757586,6.726523399,2024-06-05 17:19:25.811244
2.851244027,-6.17557621,-3.814757586,6.726523399,2024-06-05 17:19:25.851244
2.891244027,-6.17557621,-3.814757586,6.726523399,2024-06-05 17:19:25.891244
2.931244027,-0.6598208547,0.5318048596,10.43360424,2024-06-05 17:19:25.931244
2.971244027,-5.048556805,-13.93220997,8.725727081,2024-06-05 17:19:25.971244
3.011244027,-10.7054882,-10.31635571,3.297309637,2024-06-05 17:19:26.011244
3.051244027,-5.417350292,-9.245567322,0.5246263742,2024-06-05 17:19:26.051244
3.091244027,-4.618446827,-3.212364435,5.229514122,2024-06-05 17:19:26.091244
3.131244027,-4.278367043,-1.882852316,6.84646368,2024-06-05 17:19:26.131244
3.171244027,-4.58255434,-5.011467934,9.82762146,2024-06-05 17:19:26.171244
3.211244027,-4.153940201,-5.104787827,7.172186852,2024-06-05 17:19:26.211244
3.251244027,-4.061517239,-3.919144392,7.878667831,2024-06-05 17:19:26.251244
3.291244027,-3.564408541,-4.340580463,8.003393173,2024-06-05 17:19:26.291244
3.331244027,-2.911766052,-4.09860611,7.459624767,2024-06-05 17:19:26.331244
3.371244027,-3.544069529,-4.396811485,7.888238907,2024-06-05 17:19:26.371244
3.411244027,-3.151347399,3.937090635,5.29292345,2024-06-05 17:19:26.411244
3.451244027,-3.96939373,-8.634500504,9.055039406,2024-06-05 17:19:26.451244
3.491244027,-3.522534132,-3.209971666,6.791129589,2024-06-05 17:19:26.491244
3.531244027,-3.579961777,-6.261717796,8.296813011,2024-06-05 17:19:26.531244
3.571244027,-3.253042459,-6.494120598,8.040482521,2024-06-05 17:19:26.571244
3.611244027,-4.204189301,-5.586343765,8.492127419,2024-06-05 17:19:26.611244
3.651244027,-3.048156977,-2.203789711,7.63579607,2024-06-05 17:19:26.651244
3.691244027,-3.73699069,-4.26879549,8.27767086,2024-06-05 17:19:26.691244
3.731244027,-3.545265913,-4.091427803,7.918448448,2024-06-05 17:19:26.731244
3.771244027,-3.83270359,-3.992125511,8.115856171,2024-06-05 17:19:26.771244
3.811244027,-3.602693558,-4.41984272,8.329116821,2024-06-05 17:19:26.811244
3.851244027,-3.638885021,-3.413660526,7.391428947,2024-06-05 17:19:26.851244
3.891244027,-3.613760471,-3.484248877,8.308777809,2024-06-05 17:19:26.891244
3.931244027,-3.802793503,-3.99451828,8.205885887,2024-06-05 17:19:26.931244
3.971244027,-3.530908823,-3.456731319,7.8810606,2024-06-05 17:19:26.971244
4.011244027,-3.164507866,-3.061317444,8.508877754,2024-06-05 17:19:27.011244
4.051244027,-2.637488842,-2.239681959,9.122037888,2024-06-05 17:19:27.051244
4.091244027,-3.187239647,-4.122534275,8.609375954,2024-06-05 17:19:27.091244
4.131244027,-3.674777269,-3.443570852,9.83121109,2024-06-05 17:19:27.131244
4.171244027,-4.002892971,-2.257628202,8.351848602,2024-06-05 17:19:27.171244
4.211244027,-2.407478571,-2.581257343,9.22492981,2024-06-05 17:19:27.211244
4.251244027,-2.575275421,-4.459323883,10.11745262,2024-06-05 17:19:27.251244
4.291244027,-2.575275421,-4.459323883,10.11745262,2024-06-05 17:19:27.291244
4.331244027,-2.575275421,-4.459323883,10.11745262,2024-06-05 17:19:27.331244
4.371244027,-2.575275421,-4.459323883,10.11745262,2024-06-05 17:19:27.371244
4.411244027,-2.575275421,-4.459323883,10.11745262,2024-06-05 17:19:27.411244
4.451244027,-2.575275421,-4.459323883,10.11745262,2024-06-05 17:19:27.451244
4.491244027,-2.575275421,-4.459323883,10.11745262,2024-06-05 17:19:27.491244
4.531244027,-2.575275421,-4.459323883,10.11745262,2024-06-05 17:19:27.531244
4.571244027,-2.575275421,-4.459323883,10.11745262,2024-06-05 17:19:27.571244
4.611244027,-2.897409201,-5.855835438,6.793522358,2024-06-05 17:19:27.611244
4.651244027,-6.075077534,-7.36151886,7.009175777,2024-06-05 17:19:27.651244
4.691244027,-5.713163376,-5.15144825,7.448856831,2024-06-05 17:19:27.691244
4.731244027,-4.43061018,-5.412564754,7.448856831,2024-06-05 17:19:27.731244
4.771244027,-3.08434844,-8.712566376,7.444071293,2024-06-05 17:19:27.771244
4.811244027,-3.328416348,-7.670492172,7.377072334,2024-06-05 17:19:27.811244
4.851244027,-3.535694599,-6.231807709,6.192326069,2024-06-05 17:19:27.851244
4.891244027,-3.605086327,-5.531308651,5.82233572,2024-06-05 17:19:27.891244
4.931244027,-3.571586847,-6.527620316,5.627021313,2024-06-05 17:19:27.931244
4.971244027,-2.606382132,-6.381658077,5.437689304,2024-06-05 17:19:27.971244
5.011244027,-1.911566138,-8.791529655,6.534798622,2024-06-05 17:19:28.011244
5.051244027,-2.202593327,-6.92542696,5.702395439,2024-06-05 17:19:28.051244
5.091244027,-2.614757061,-6.568597317,4.795814991,2024-06-05 17:19:28.091244
5.131244027,-3.87218523,-8.145766258,4.446163654,2024-06-05 17:19:28.131244
5.171244027,-3.560819149,-6.991229534,3.799204111,2024-06-05 17:19:28.171244
5.211244027,-2.136790514,-7.422535896,4.865206718,2024-06-05 17:19:28.211244
5.251244027,-2.257628202,-7.773383617,4.644767761,2024-06-05 17:19:28.251244
5.291244027,-1.073180914,-8.927920341,5.164608479,2024-06-05 17:19:28.291244
5.331244027,-2.972783089,-8.966505051,3.707080364,2024-06-05 17:19:28.331244
5.371244027,-3.265006542,-7.481160164,3.911965847,2024-06-05 17:19:28.371244
5.411244027,-1.564307809,-10.43360424,6.397211552,2024-06-05 17:19:28.411244
5.451244027,-3.323630571,-9.861121178,4.492823601,2024-06-05 17:19:28.451244
5.491244027,-3.364607811,-10.72104168,4.446163654,2024-06-05 17:19:28.491244
5.531244027,-0.9149555564,-8.742476463,1.595414519,2024-06-05 17:19:28.531244
5.571244027,-4.262813568,-10.05404282,4.674678326,2024-06-05 17:19:28.571244
5.611244027,-3.093919754,-10.15334511,6.590132713,2024-06-05 17:19:28.611244
5.651244027,-2.298605204,-8.810671806,5.015057087,2024-06-05 17:19:28.651244
5.691244027,-3.129812002,-8.216653824,3.826721668,2024-06-05 17:19:28.691244
5.731244027,-3.71186614,-7.21406126,4.792225361,2024-06-05 17:19:28.731244
5.771244027,-2.242074728,-6.876374245,3.418446302,2024-06-05 17:19:28.771244
5.811244027,-2.736790895,-7.288238525,4.057928085,2024-06-05 17:19:28.811244
5.851244027,-3.55842638,-7.273881912,4.04835701,2024-06-05 17:19:28.851244
5.891244027,-5.182554722,-7.377072334,5.83310318,2024-06-05 17:19:28.891244
5.931244027,-5.182554722,-7.377072334,5.83310318,2024-06-05 17:19:28.931244
5.971244027,-5.182554722,-7.377072334,5.83310318,2024-06-05 17:19:28.971244
6.011244027,-5.182554722,-7.377072334,5.83310318,2024-06-05 17:19:29.011244
6.051244027,-5.182554722,-7.377072334,5.83310318,2024-06-05 17:19:29.051244
6.091244027,-5.182554722,-7.377072334,5.83310318,2024-06-05 17:19:29.091244
6.131244027,-5.182554722,-7.377072334,5.83310318,2024-06-05 17:19:29.131244
6.171244027,-5.182554722,-7.377072334,5.83310318,2024-06-05 17:19:29.171244
6.211244027,-5.182554722,-7.377072334,5.83310318,2024-06-05 17:19:29.211244
6.251244027,-4.761118889,-7.430910587,6.243771553,2024-06-05 17:19:29.251244
6.291244027,-4.777868748,-6.682256222,6.13609457,2024-06-05 17:19:29.291244
6.331244027,-4.100998878,-6.560222149,5.398207664,2024-06-05 17:19:29.331244
6.371244027,-3.940679789,-6.732505798,5.621039391,2024-06-05 17:19:29.371244
6.411244027,-3.607479334,-7.052246571,6.404389858,2024-06-05 17:19:29.411244
6.451244027,-4.065106392,-6.437889099,7.133901596,2024-06-05 17:19:29.451244
6.491244027,-5.247459888,-5.430510998,5.716752529,2024-06-05 17:19:29.491244
6.531244027,-4.336990833,-6.36251545,6.380461693,2024-06-05 17:19:29.531244
6.571244027,-3.926322937,-6.164808273,6.509674072,2024-06-05 17:19:29.571244
6.611244027,-4.256831646,-5.604289532,6.924230576,2024-06-05 17:19:29.611244
6.651244027,-5.537290573,-5.956333637,7.537391186,2024-06-05 17:19:29.651244
6.691244027,-4.99352169,-4.535894394,6.701398849,2024-06-05 17:19:29.691244
6.731244027,-4.775475979,-5.017449856,6.834499836,2024-06-05 17:19:29.731244
6.771244027,-3.819543123,-4.701298237,6.807879448,2024-06-05 17:19:29.771244
6.811244027,-4.508377075,-5.577968597,6.856035233,2024-06-05 17:19:29.811244
6.851244027,-5.073681355,-4.458127499,7.121937275,2024-06-05 17:19:29.851244
6.891244027,-5.263013363,-4.129712582,7.350451946,2024-06-05 17:19:29.891244
6.931244027,-4.875974178,-4.545465946,7.490731239,2024-06-05 17:19:29.931244
6.971244027,-3.323630571,-3.393321514,7.117151737,2024-06-05 17:19:29.971244
7.011244027,-5.010271549,-4.452145576,7.757830143,2024-06-05 17:19:30.011244
7.051244027,-1.509272933,-3.812364578,8.569893837,2024-06-05 17:19:30.051244
7.091244027,-1.255334616,-1.87567389,8.127820015,2024-06-05 17:19:30.091244
7.131244027,-2.075773716,-1.517647743,6.792325974,2024-06-05 17:19:30.131244
7.171244027,-1.457528114,-1.745265007,7.369893551,2024-06-05 17:19:30.171244
7.211244027,-4.593322277,-1.218245864,7.588837147,2024-06-05 17:19:30.211244
7.251244027,-5.334797859,-1.186840057,8.266902924,2024-06-05 17:19:30.251244
7.291244027,-4.062713623,-3.111865759,8.259724617,2024-06-05 17:19:30.291244
7.331244027,-3.347857952,-3.134597778,8.650053978,2024-06-05 17:19:30.331244
7.371244027,-4.735994339,-3.177668571,7.266703129,2024-06-05 17:19:30.371244
7.411244027,-4.129712582,-3.405285835,6.998407841,2024-06-05 17:19:30.411244
7.451244027,-3.314059258,-3.429214001,6.672685146,2024-06-05 17:19:30.451244
7.491244027,-4.091427803,-3.618546009,6.291927338,2024-06-05 17:19:30.491244
7.531244027,-4.006482601,-4.59691143,6.36251545,2024-06-05 17:19:30.531244
7.571244027,-4.006482601,-4.59691143,6.36251545,2024-06-05 17:19:30.571244
7.611244027,-4.006482601,-4.59691143,6.36251545,2024-06-05 17:19:30.611244
7.651244027,-4.006482601,-4.59691143,6.36251545,2024-06-05 17:19:30.651244
7.691244027,-4.006482601,-4.59691143,6.36251545,2024-06-05 17:19:30.691244
7.731244027,-4.006482601,-4.59691143,6.36251545,2024-06-05 17:19:30.731244
7.771244027,-4.006482601,-4.59691143,6.36251545,2024-06-05 17:19:30.771244
7.811244027,-4.006482601,-4.59691143,6.36251545,2024-06-05 17:19:30.811244
7.851244027,-4.006482601,-4.59691143,6.36251545,2024-06-05 17:19:30.851244
7.891244027,-3.726222992,-9.668199539,4.335794449,2024-06-05 17:19:30.891244
7.931244027,-3.573979616,-9.269495964,5.127519608,2024-06-05 17:19:30.931244
7.971244027,-3.081955671,-9.556933403,5.168197632,2024-06-05 17:19:30.971244
8.011244027,-3.958626032,-9.037093163,5.208875656,2024-06-05 17:19:31.011244
8.051244027,-4.095016956,-10.35823059,4.077070713,2024-06-05 17:19:31.051244
8.091244027,-3.922733545,-8.924330711,5.925227165,2024-06-05 17:19:31.091244
8.131244027,-2.523530483,-7.780561924,1.686341763,2024-06-05 17:19:31.131244
8.171244027,-2.791825771,-7.911269665,3.614956856,2024-06-05 17:19:31.171244
8.211244027,-3.477070332,-7.987840176,3.291327477,2024-06-05 17:19:31.211244
8.251244027,-4.249652863,-7.447660446,3.387339592,2024-06-05 17:19:31.251244
8.291244027,-3.931108475,-8.579465866,4.408775806,2024-06-05 17:19:31.291244
8.331244027,-4.289134502,-7.932805061,4.285545349,2024-06-05 17:19:31.331244
8.371244027,-4.746761799,-7.652545929,4.767100811,2024-06-05 17:19:31.371244
8.411244027,-4.145266056,-7.076174736,5.567201138,2024-06-05 17:19:31.411244
8.451244027,-4.103391647,-7.115955353,3.748954773,2024-06-05 17:19:31.451244
8.491244027,-4.76949358,-7.355237484,5.970690727,2024-06-05 17:19:31.491244
8.531244027,-5.078466892,-7.156633377,5.479563713,2024-06-05 17:19:31.531244
8.571244027,-4.692923546,-6.704988003,5.114359379,2024-06-05 17:19:31.571244
8.611244027,-5.098805904,-6.480959892,6.02363205,2024-06-05 17:19:31.611244
8.651244027,-6.064310074,-7.509873867,5.582754135,2024-06-05 17:19:31.651244
8.691244027,-5.507380486,-6.550352097,5.721538067,2024-06-05 17:19:31.691244
8.731244027,-6.109773636,-6.201897144,5.796014786,2024-06-05 17:19:31.731244
8.771244027,-5.423332691,-5.419743061,6.247360706,2024-06-05 17:19:31.771244
8.811244027,-5.731109142,-4.952843666,5.303691387,2024-06-05 17:19:31.811244
8.851244027,-4.623232365,-4.945366383,6.104988098,2024-06-05 17:19:31.851244
8.891244027,-5.963512421,-6.675077915,6.703791618,2024-06-05 17:19:31.891244
8.931244027,-4.781457901,-6.346961975,5.532505035,2024-06-05 17:19:31.931244
8.971244027,-4.814957142,-5.052145958,6.615257263,2024-06-05 17:19:31.971244
9.011244027,-6.430710793,-5.188536644,7.975875854,2024-06-05 17:19:32.011244
9.051244027,-4.447360039,-3.288934708,6.883552551,2024-06-05 17:19:32.051244
9.091244027,-3.504587889,-3.062513828,6.647560596,2024-06-05 17:19:32.091244
9.131244027,-4.298706055,-2.897409201,6.363711834,2024-06-05 17:19:32.131244
9.171244027,-5.146662235,-2.469691992,6.387639999,2024-06-05 17:19:32.171244
9.211244027,-3.908376694,-1.929512382,5.613861084,2024-06-05 17:19:32.211244
9.251244027,-3.908376694,-1.929512382,5.613861084,2024-06-05 17:19:32.251244
9.291244027,-3.908376694,-1.929512382,5.613861084,2024-06-05 17:19:32.291244
9.331244027,-3.908376694,-1.929512382,5.613861084,2024-06-05 17:19:32.331244
9.371244027,-3.908376694,-1.929512382,5.613861084,2024-06-05 17:19:32.371244
9.411244027,-4.724030018,-3.468695641,6.555137634,2024-06-05 17:19:32.411244
9.451244027,-4.724030018,-3.468695641,6.555137634,2024-06-05 17:19:32.451244
9.491244027,-4.724030018,-3.468695641,6.555137634,2024-06-05 17:19:32.491244
9.531244027,-4.724030018,-3.468695641,6.555137634,2024-06-05 17:19:32.531244
9.571244027,-5.982655048,-5.204090118,5.864210129,2024-06-05 17:19:32.571244
9.611244027,-4.873581409,-5.110770226,6.720541477,2024-06-05 17:19:32.611244
9.651244027,-5.473581791,-4.916652203,7.762615681,2024-06-05 17:19:32.651244
9.691244027,-4.396811485,-5.652146339,6.956533432,2024-06-05 17:19:32.691244
9.731244027,-4.417449474,-7.360322475,4.650749683,2024-06-05 17:19:32.731244
9.771244027,-5.138287544,-7.911269665,4.995914459,2024-06-05 17:19:32.771244
9.811244027,-4.919044971,-6.940980434,4.869992256,2024-06-05 17:19:32.811244
9.851244027,-5.016253471,-8.657232285,6.163611889,2024-06-05 17:19:32.851244
9.891244027,-5.422136307,-9.141180992,5.979065418,2024-06-05 17:19:32.891244
9.931244027,-4.244867325,-7.652545929,4.535894394,2024-06-05 17:19:32.931244
9.971244027,-3.490231037,-8.393722534,3.014657497,2024-06-05 17:19:32.971244
10.01124403,-4.329812527,-8.25254631,2.91655159,2024-06-05 17:19:33.011244
10.05124403,-5.005486012,-8.125427246,3.959822416,2024-06-05 17:19:33.051244
10.09124403,-4.325026989,-8.511270523,3.981357813,2024-06-05 17:19:33.091244
10.13124403,-4.217350006,-7.821239948,4.721637249,2024-06-05 17:19:33.131244
10.17124403,-5.228317261,-8.03928566,4.91067028,2024-06-05 17:19:33.171244
10.21124403,-5.280959606,-7.790132999,3.748954773,2024-06-05 17:19:33.211244
10.25124403,-4.384847641,-7.517052174,3.304488182,2024-06-05 17:19:33.251244
10.29124403,-5.357530117,-7.569694519,4.875974178,2024-06-05 17:19:33.291244
10.33124403,-4.734797955,-7.96391201,3.612264872,2024-06-05 17:19:33.331244
10.37124403,-5.030610561,-7.775776386,5.034199715,2024-06-05 17:19:33.371244
10.41124403,-5.509773254,-7.070192814,4.447360039,2024-06-05 17:19:33.411244
10.45124403,-5.618646622,-7.350451946,4.331008911,2024-06-05 17:19:33.451244
10.49124403,-5.708377361,-6.179165363,4.497609138,2024-06-05 17:19:33.491244
10.53124403,-5.184947491,-6.332605362,5.089234829,2024-06-05 17:19:33.531244
10.57124403,-5.876173973,-6.113362789,4.489234447,2024-06-05 17:19:33.571244
10.61124403,-5.169394016,-5.536094189,4.946562767,2024-06-05 17:19:33.611244
10.65124403,-6.908677101,-6.648756981,6.667899609,2024-06-05 17:19:33.651244
10.69124403,-4.991128922,-4.755136967,5.746662617,2024-06-05 17:19:33.691244
10.73124403,-5.621039391,-4.75872612,6.040381432,2024-06-05 17:19:33.731244
10.77124403,-4.700101852,-5.363512039,7.155436993,2024-06-05 17:19:33.771244
10.81124403,-4.751547337,-5.624628544,6.000600815,2024-06-05 17:19:33.811244
10.85124403,-6.093023777,-4.922634602,6.640381813,2024-06-05 17:19:33.851244
10.89124403,-6.093023777,-4.922634602,6.640381813,2024-06-05 17:19:33.891244
10.93124403,-6.093023777,-4.922634602,6.640381813,2024-06-05 17:19:33.931244
10.97124403,-6.093023777,-4.922634602,6.640381813,2024-06-05 17:19:33.971244
11.01124403,-6.093023777,-4.922634602,6.640381813,2024-06-05 17:19:34.011244
11.05124403,-6.093023777,-4.922634602,6.640381813,2024-06-05 17:19:34.051244
11.09124403,-6.093023777,-4.922634602,6.640381813,2024-06-05 17:19:34.091244
11.13124403,-6.093023777,-4.922634602,6.640381813,2024-06-05 17:19:34.131244
11.17124403,-6.093023777,-4.922634602,6.640381813,2024-06-05 17:19:34.171244
11.21124403,-6.532405853,-3.538087368,6.157629967,2024-06-05 17:19:34.211244
11.25124403,-4.671088696,-3.102294445,6.124130249,2024-06-05 17:19:34.251244
11.29124403,-4.533501625,-2.472084999,5.744269848,2024-06-05 17:19:34.291244
11.33124403,-6.195915222,-2.784647465,6.641578197,2024-06-05 17:19:34.331244
11.37124403,-6.850052834,-4.205385685,7.096812725,2024-06-05 17:19:34.371244
11.41124403,-6.641578197,-5.471189022,6.555137634,2024-06-05 17:19:34.411244
11.45124403,-5.99940443,-5.053342342,4.948955536,2024-06-05 17:19:34.451244
11.49124403,-5.417350292,-4.129712582,5.995815277,2024-06-05 17:19:34.491244
11.53124403,-4.285545349,-4.144069672,5.265406132,2024-06-05 17:19:34.531244
11.57124403,-6.042774677,-6.460621357,4.746761799,2024-06-05 17:19:34.571244
11.61124403,-6.83569622,-7.601997375,6.392425537,2024-06-05 17:19:34.611244
11.65124403,-6.001797199,-7.327720165,5.538486958,2024-06-05 17:19:34.651244
11.69124403,-3.388535976,-7.339684486,5.03300333,2024-06-05 17:19:34.691244
11.73124403,-4.496412754,-7.671688557,4.442574501,2024-06-05 17:19:34.731244
11.77124403,-4.688137531,-7.658527851,4.574179649,2024-06-05 17:19:34.771244
11.81124403,-4.651946545,-7.981858253,4.449752808,2024-06-05 17:19:34.811244
11.85124403,-5.701199055,-9.475278854,3.509373426,2024-06-05 17:19:34.851244
11.89124403,-5.01864624,-7.945965767,4.93579483,2024-06-05 17:19:34.891244
11.93124403,-3.849453449,-8.354241371,3.376571894,2024-06-05 17:19:34.931244
11.97124403,-4.483252525,-7.652545929,3.607479334,2024-06-05 17:19:34.971244
12.01124403,-5.754140377,-8.85733223,4.207778454,2024-06-05 17:19:35.011244
12.05124403,-5.243870735,-7.744669437,4.643571377,2024-06-05 17:19:35.051244
12.09124403,-4.065106392,-7.917252064,3.679563046,2024-06-05 17:19:35.091244
12.13124403,-4.619643211,-7.663313389,4.152743816,2024-06-05 17:19:35.131244
12.17124403,-5.621039391,-6.949355125,4.725226402,2024-06-05 17:19:35.171244
12.21124403,-5.258227825,-7.125526905,3.585943937,2024-06-05 17:19:35.211244
12.25124403,-6.277271271,-7.781758308,4.991128922,2024-06-05 17:19:35.251244
12.29124403,-5.78285408,-6.609275341,4.799404144,2024-06-05 17:19:35.291244
12.33124403,-6.59731102,-6.743273258,4.883152962,2024-06-05 17:19:35.331244
12.37124403,-6.188736439,-6.727719784,5.513362408,2024-06-05 17:19:35.371244
12.41124403,-6.256932259,-6.527620316,5.42572546,2024-06-05 17:19:35.411244
12.45124403,-5.205286503,-6.737291336,5.37188673,2024-06-05 17:19:35.451244
12.49124403,-5.70000267,-6.11097002,5.79721117,2024-06-05 17:19:35.491244
12.53124403,-5.70000267,-6.11097002,5.79721117,2024-06-05 17:19:35.531244
12.57124403,-5.70000267,-6.11097002,5.79721117,2024-06-05 17:19:35.571244
12.61124403,-5.70000267,-6.11097002,5.79721117,2024-06-05 17:19:35.611244
12.65124403,-5.70000267,-6.11097002,5.79721117,2024-06-05 17:19:35.651244
12.69124403,-5.70000267,-6.11097002,5.79721117,2024-06-05 17:19:35.691244
12.73124403,-5.70000267,-6.11097002,5.79721117,2024-06-05 17:19:35.731244
12.77124403,-5.70000267,-6.11097002,5.79721117,2024-06-05 17:19:35.771244
12.81124403,-5.70000267,-6.11097002,5.79721117,2024-06-05 17:19:35.811244
12.85124403,-5.70000267,-6.11097002,5.79721117,2024-06-05 17:19:35.851244
12.89124403,-4.892724037,-2.21216464,6.08584547,2024-06-05 17:19:35.891244
12.93124403,-4.872385025,-2.649452925,7.216454029,2024-06-05 17:19:35.931244
12.97124403,-5.239085197,-2.614757061,7.031907558,2024-06-05 17:19:35.971244
13.01124403,-3.503391504,-1.916351795,5.515755177,2024-06-05 17:19:36.011244
13.05124403,-3.806382656,-2.620738983,5.023432255,2024-06-05 17:19:36.051244
13.09124403,-5.243870735,-3.152543783,5.127519608,2024-06-05 17:19:36.091244
13.13124403,-6.237789631,-3.677170277,6.437889099,2024-06-05 17:19:36.131244
13.17124403,-6.182754517,-4.314259052,6.43549633,2024-06-05 17:19:36.171244
13.21124403,-6.089434624,-5.277370453,5.650949955,2024-06-05 17:19:36.211244
13.25124403,-6.024828434,-6.446264267,6.616453648,2024-06-05 17:19:36.251244
13.29124403,-6.416353703,-6.37687254,6.380461693,2024-06-05 17:19:36.291244
13.33124403,-6.206682682,-5.430510998,4.41984272,2024-06-05 17:19:36.331244
13.37124403,-5.496612549,-5.707180977,4.032803535,2024-06-05 17:19:36.371244
13.41124403,-4.623232365,-7.828418255,4.380061626,2024-06-05 17:19:36.411244
13.45124403,-6.5288167,-8.357830048,5.888138294,2024-06-05 17:19:36.451244
13.49124403,-1.693520188,-5.618646622,6.179165363,2024-06-05 17:19:36.491244
13.53124403,-2.941676378,-8.689535141,3.707080364,2024-06-05 17:19:36.531244
13.57124403,-6.569793701,-11.43260765,4.517948151,2024-06-05 17:19:36.571244
13.61124403,-5.896512985,-8.569893837,5.048556805,2024-06-05 17:19:36.611244
13.65124403,-3.732205153,-8.307580948,3.649652719,2024-06-05 17:19:36.651244
13.69124403,-4.179064751,-7.36151886,4.139284134,2024-06-05 17:19:36.691244
13.73124403,-4.503591537,-6.970890522,3.150151014,2024-06-05 17:19:36.731244
13.77124403,-4.708476543,-7.692027569,3.691527128,2024-06-05 17:19:36.771244
13.81124403,-4.031607151,-7.996214867,4.122534275,2024-06-05 17:19:36.811244
13.85124403,-4.118945122,-7.848757267,4.26879549,2024-06-05 17:19:36.851244
13.89124403,-5.46161747,-8.635697365,4.774279594,2024-06-05 17:19:36.891244
13.93124403,-5.14785862,-7.809275627,4.226921082,2024-06-05 17:19:36.931244
13.97124403,-4.874777794,-6.996015072,3.886841297,2024-06-05 17:19:36.971244
14.01124403,-5.721538067,-7.245167732,4.904688358,2024-06-05 17:19:37.011244
14.05124403,-6.510870457,-6.563811779,4.903491974,2024-06-05 17:19:37.051244
14.09124403,-6.767201424,-6.856035233,5.036592484,2024-06-05 17:19:37.091244
14.13124403,-7.083353043,-6.409175396,5.460421085,2024-06-05 17:19:37.131244
14.17124403,-7.083353043,-6.409175396,5.460421085,2024-06-05 17:19:37.171244
14.21124403,-7.083353043,-6.409175396,5.460421085,2024-06-05 17:19:37.211244
14.25124403,-7.083353043,-6.409175396,5.460421085,2024-06-05 17:19:37.251244
14.29124403,-7.083353043,-6.409175396,5.460421085,2024-06-05 17:19:37.291244
14.33124403,-7.083353043,-6.409175396,5.460421085,2024-06-05 17:19:37.331244
14.37124403,-7.083353043,-6.409175396,5.460421085,2024-06-05 17:19:37.371244
14.41124403,-6.412764549,-4.852046013,7.339684486,2024-06-05 17:19:37.411244
14.45124403,-6.412764549,-4.852046013,7.339684486,2024-06-05 17:19:37.451244
14.49124403,-6.412764549,-4.852046013,7.339684486,2024-06-05 17:19:37.491244
14.53124403,-4.002892971,-3.990929127,5.4652071,2024-06-05 17:19:37.531244
14.57124403,-5.035396099,-2.921337366,6.480959892,2024-06-05 17:19:37.571244
14.61124403,-4.580161572,-2.239681959,5.985047817,2024-06-05 17:19:37.611244
14.65124403,-3.787240028,-2.420639277,6.192326069,2024-06-05 17:19:37.651244
14.69124403,-4.292723656,-1.99651134,4.67587471,2024-06-05 17:19:37.691244
14.73124403,-6.697809696,-3.855435371,6.726523399,2024-06-05 17:19:37.731244
14.77124403,-5.723930836,-3.39810729,7.422535896,2024-06-05 17:19:37.771244
14.81124403,-4.411168575,-1.584646821,5.442475319,2024-06-05 17:19:37.811244
14.85124403,-5.121537685,-1.685145378,4.773082733,2024-06-05 17:19:37.851244
14.89124403,-6.740880489,-3.775275946,6.286842346,2024-06-05 17:19:37.891244
14.93124403,-7.052246571,-6.271288872,5.77208662,2024-06-05 17:19:37.931244
14.97124403,-6.6260252,-7.331309319,5.355136871,2024-06-05 17:19:37.971244
15.01124403,-5.027021408,-4.59691143,4.746761799,2024-06-05 17:19:38.011244
15.05124403,-5.027021408,-4.59691143,4.746761799,2024-06-05 17:19:38.051244
15.09124403,-7.301399231,-9.132805824,6.107380867,2024-06-05 17:19:38.091244
15.13124403,-6.149255276,-10.11266708,6.194718838,2024-06-05 17:19:38.131244
15.17124403,-3.868596077,-6.08584547,3.835096598,2024-06-05 17:19:38.171244
15.21124403,-2.218146563,-3.824328899,3.330809116,2024-06-05 17:19:38.211244
15.25124403,-4.213760853,-5.306084156,3.90478754,2024-06-05 17:19:38.251244
15.29124403,-8.936295509,-9.895816803,5.168197632,2024-06-05 17:19:38.291244
15.33124403,-5.633003712,-7.121937275,5.513362408,2024-06-05 17:19:38.331244
15.37124403,-3.481856108,-7.261917591,3.230310678,2024-06-05 17:19:38.371244
15.41124403,-6.610471725,-11.43500042,5.236692429,2024-06-05 17:19:38.411244
15.45124403,-7.997411251,-9.387940407,5.731109142,2024-06-05 17:19:38.451244
15.49124403,-4.428217411,-9.0418787,2.981158018,2024-06-05 17:19:38.491244
15.53124403,-5.190929413,-7.0151577,3.962215185,2024-06-05 17:19:38.531244
15.57124403,-3.504587889,-8.298009872,3.823132277,2024-06-05 17:19:38.571244
15.61124403,-5.11196661,-8.568697929,4.697709084,2024-06-05 17:19:38.611244
15.65124403,-6.382854462,-6.87158823,5.479563713,2024-06-05 17:19:38.651244
15.69124403,-6.109773636,-7.031907558,4.743172646,2024-06-05 17:19:38.691244
15.73124403,-8.95902729,-6.618846416,5.908477306,2024-06-05 17:19:38.731244
15.77124403,-6.998407841,-6.610471725,5.40060091,2024-06-05 17:19:38.771244
15.81124403,-6.807879448,-6.034399509,3.623331785,2024-06-05 17:19:38.811244
15.85124403,-6.807879448,-6.034399509,3.623331785,2024-06-05 17:19:38.851244
15.89124403,-6.807879448,-6.034399509,3.623331785,2024-06-05 17:19:38.891244
15.93124403,-6.807879448,-6.034399509,3.623331785,2024-06-05 17:19:38.931244
15.97124403,-6.807879448,-6.034399509,3.623331785,2024-06-05 17:19:38.971244
16.01124403,-6.807879448,-6.034399509,3.623331785,2024-06-05 17:19:39.011244
16.05124403,-6.807879448,-6.034399509,3.623331785,2024-06-05 17:19:39.051244
16.09124403,-6.807879448,-6.034399509,3.623331785,2024-06-05 17:19:39.091244
16.13124403,-6.807879448,-6.034399509,3.623331785,2024-06-05 17:19:39.131244
16.17124403,-6.932605267,-3.302095175,6.63679266,2024-06-05 17:19:39.171244
16.21124403,-5.143073082,-4.30827713,6.537191391,2024-06-05 17:19:39.211244
16.25124403,-4.435395718,-2.76311183,7.194918633,2024-06-05 17:19:39.251244
16.29124403,-4.473680973,-3.151347399,6.326622963,2024-06-05 17:19:39.291244
16.33124403,-4.16710043,-1.564307809,4.934598446,2024-06-05 17:19:39.331244
16.37124403,-4.849653244,-2.07098794,4.873581409,2024-06-05 17:19:39.371244
16.41124403,-4.099802494,-2.106880426,6.039185047,2024-06-05 17:19:39.411244
16.45124403,-4.567001343,-2.18105793,6.641578197,2024-06-05 17:19:39.451244
16.49124403,-5.562415123,-2.706880569,5.638985634,2024-06-05 17:19:39.491244
16.53124403,-7.451249599,-4.026821613,6.089434624,2024-06-05 17:19:39.531244
16.57124403,-8.018946648,-5.424529076,7.410571575,2024-06-05 17:19:39.571244
16.61124403,-6.993622303,-5.37188673,6.195915222,2024-06-05 17:19:39.611244
16.65124403,-4.392025948,-5.065306664,5.45085001,2024-06-05 17:19:39.651244
16.69124403,-5.488237858,-6.853642464,4.029214382,2024-06-05 17:19:39.691244
16.73124403,-5.453242779,-6.979265213,4.671088696,2024-06-05 17:19:39.731244
16.77124403,-5.698806286,-6.513263226,5.16221571,2024-06-05 17:19:39.771244
16.81124403,-5.40060091,-7.851150036,5.412564754,2024-06-05 17:19:39.811244
16.85124403,-6.187540054,-7.416553974,4.989932537,2024-06-05 17:19:39.851244
16.89124403,-5.554040432,-8.414061546,4.051946163,2024-06-05 17:19:39.891244
16.93124403,-5.242674351,-7.519444942,3.78484726,2024-06-05 17:19:39.931244
16.97124403,-4.893920422,-6.786344051,4.111766815,2024-06-05 17:19:39.971244
17.01124403,-4.614857674,-8.100302696,4.18145752,2024-06-05 17:19:40.011244
17.05124403,-6.373282909,-8.499305725,4.601696968,2024-06-05 17:19:40.051244
17.09124403,-5.351547718,-7.858328819,4.035196304,2024-06-05 17:19:40.091244
17.13124403,-5.280959606,-8.618947029,4.280759811,2024-06-05 17:19:40.131244
17.17124403,-4.690530777,-7.916055679,4.022035599,2024-06-05 17:19:40.171244
17.21124403,-4.535894394,-7.687242031,3.564408541,2024-06-05 17:19:40.211244
17.25124403,-5.399404526,-6.891927242,4.197010994,2024-06-05 17:19:40.251244
17.29124403,-5.355136871,-6.584150791,4.328616142,2024-06-05 17:19:40.291244
17.33124403,-6.380461693,-7.71475935,4.414757729,2024-06-05 17:19:40.331244
17.37124403,-6.775576591,-7.072585583,4.564608097,2024-06-05 17:19:40.371244
17.41124403,-6.011368752,-6.783951283,4.421039104,2024-06-05 17:19:40.411244
17.45124403,-6.744469643,-6.635596275,4.886742115,2024-06-05 17:19:40.451244
17.49124403,-6.665506363,-7.126723289,4.914259434,2024-06-05 17:19:40.491244
17.53124403,-6.665506363,-7.126723289,4.914259434,2024-06-05 17:19:40.531244
17.57124403,-6.665506363,-7.126723289,4.914259434,2024-06-05 17:19:40.571244
17.61124403,-6.665506363,-7.126723289,4.914259434,2024-06-05 17:19:40.611244
17.65124403,-6.665506363,-7.126723289,4.914259434,2024-06-05 17:19:40.651244
17.69124403,-6.665506363,-7.126723289,4.914259434,2024-06-05 17:19:40.691244
17.73124403,-6.665506363,-7.126723289,4.914259434,2024-06-05 17:19:40.731244
17.77124403,-6.665506363,-7.126723289,4.914259434,2024-06-05 17:19:40.771244
17.81124403,-6.665506363,-7.126723289,4.914259434,2024-06-05 17:19:40.811244
17.85124403,-5.648557186,-3.687937975,7.011568546,2024-06-05 17:19:40.851244
17.89124403,-5.943173409,-2.839981318,6.949355125,2024-06-05 17:19:40.891244
17.93124403,-4.726422787,-1.893620014,5.855835438,2024-06-05 17:19:40.931244
17.97124403,-4.074677944,-2.273181438,4.038785458,2024-06-05 17:19:40.971244
18.01124403,-3.40648222,-2.511566401,4.64716053,2024-06-05 17:19:41.011244
18.05124403,-6.146862507,-2.618346214,5.803193092,2024-06-05 17:19:41.051244
18.09124403,-5.143073082,-1.985743642,5.163412094,2024-06-05 17:19:41.091244
18.13124403,-6.392425537,-3.472284794,5.092823982,2024-06-05 17:19:41.131244
18.17124403,-6.689435005,-5.210072041,3.78484726,2024-06-05 17:19:41.171244
18.21124403,-7.677670479,-5.703591824,4.811367989,2024-06-05 17:19:41.211244
18.25124403,-5.184947491,-5.096413136,6.204289913,2024-06-05 17:19:41.251244
18.29124403,-5.318048477,-5.952744484,5.138287544,2024-06-05 17:19:41.291244
18.33124403,-5.83669281,-5.707180977,5.823532104,2024-06-05 17:19:41.331244
18.37124403,-5.986244202,-7.471588612,5.528915882,2024-06-05 17:19:41.371244
18.41124403,-3.901198149,-7.243971348,4.713262558,2024-06-05 17:19:41.411244
18.45124403,-5.349154949,-7.436892986,4.199403763,2024-06-05 17:19:41.451244
18.49124403,-5.791228771,-7.284649372,4.278367043,2024-06-05 17:19:41.491244
18.53124403,-4.701298237,-8.970093727,4.905884743,2024-06-05 17:19:41.531244
18.57124403,-5.473581791,-9.448957443,4.035196304,2024-06-05 17:19:41.571244
18.61124403,-4.757529736,-7.990232944,3.968197346,2024-06-05 17:19:41.611244
18.65124403,-4.884349346,-8.941081047,4.295116425,2024-06-05 17:19:41.651244
18.69124403,-4.41984272,-8.058428764,3.226721287,2024-06-05 17:19:41.691244
18.73124403,-3.433999538,-6.853642464,2.529512644,2024-06-05 17:19:41.731244
18.77124403,-3.203989506,-7.283452988,3.005086184,2024-06-05 17:19:41.771244
18.81124403,-4.305884361,-7.198507786,3.674777269,2024-06-05 17:19:41.811244
18.85124403,-5.93719101,-8.596215248,4.30827713,2024-06-05 17:19:41.851244
18.89124403,-6.433103561,-9.695717812,4.589733124,2024-06-05 17:19:41.891244
18.93124403,-5.857031822,-8.90518856,4.490430832,2024-06-05 17:19:41.931244
18.97124403,-5.821139336,-8.260921478,4.800600529,2024-06-05 17:19:41.971244
19.01124403,-5.489434242,-7.150651455,4.222135544,2024-06-05 17:19:42.011244
19.05124403,-5.468796253,-6.305087566,4.315455437,2024-06-05 17:19:42.051244
19.09124403,-6.338587284,-6.645167351,4.989932537,2024-06-05 17:19:42.091244
19.13124403,-7.137490749,-6.6762743,4.651946545,2024-06-05 17:19:42.131244
19.17124403,-7.137490749,-6.6762743,4.651946545,2024-06-05 17:19:42.171244
19.21124403,-8.405686378,-7.304988384,4.583750725,2024-06-05 17:19:42.211244
19.25124403,-8.405686378,-7.304988384,4.583750725,2024-06-05 17:19:42.251244
19.29124403,-8.405686378,-7.304988384,4.583750725,2024-06-05 17:19:42.291244
19.33124403,-8.405686378,-7.304988384,4.583750725,2024-06-05 17:19:42.331244
19.37124403,-8.405686378,-7.304988384,4.583750725,2024-06-05 17:19:42.371244
19.41124403,-8.405686378,-7.304988384,4.583750725,2024-06-05 17:19:42.411244
19.45124403,-8.405686378,-7.304988384,4.583750725,2024-06-05 17:19:42.451244
19.49124403,-6.653542519,-2.190629244,4.436592102,2024-06-05 17:19:42.491244
19.53124403,-3.808775425,-1.555932879,5.407779217,2024-06-05 17:19:42.531244
19.57124403,-4.334598064,-2.0769701,5.77208662,2024-06-05 17:19:42.571244
19.61124403,-5.407779217,-2.801397085,5.399404526,2024-06-05 17:19:42.611244
19.65124403,-7.27866745,-3.744169235,5.815157413,2024-06-05 17:19:42.651244
19.69124403,-6.429514408,-3.475873947,5.035396099,2024-06-05 17:19:42.691244
19.73124403,-6.360122681,-4.600500584,5.016253471,2024-06-05 17:19:42.731244
19.77124403,-6.30867672,-5.024628639,3.860221148,2024-06-05 17:19:42.771244
19.81124403,-5.530112267,-5.044967651,3.888037682,2024-06-05 17:19:42.811244
19.85124403,-3.854238987,-4.734797955,3.910769463,2024-06-05 17:19:42.851244
19.89124403,-5.928816319,-6.145665646,4.540679932,2024-06-05 17:19:42.891244
19.93124403,-6.354140759,-7.995018482,5.006682396,2024-06-05 17:19:42.931244
19.97124403,-6.277271271,-9.530612946,4.472484589,2024-06-05 17:19:42.971244
20.01124403,-6.144469261,-8.355437279,4.50957346,2024-06-05 17:19:43.011244
20.05124403,-4.966004372,-7.98903656,3.62452817,2024-06-05 17:19:43.051244
20.09124403,-4.136891365,-8.685946465,2.875873804,2024-06-05 17:19:43.091244
20.13124403,-4.617250443,-6.533602238,3.496212959,2024-06-05 17:19:43.131244
20.17124403,-5.429314613,-6.77796936,3.669991732,2024-06-05 17:19:43.171244
20.21124403,-4.291527271,-7.780561924,3.515355587,2024-06-05 17:19:43.211244
20.25124403,-5.125126839,-9.524630547,2.848356247,2024-06-05 17:19:43.251244
20.29124403,-5.369493961,-9.189037323,4.035196304,2024-06-05 17:19:43.291244
20.33124403,-4.434199333,-8.994022369,2.934497833,2024-06-05 17:19:43.331244
20.37124403,-3.77049017,-7.508677483,2.938086987,2024-06-05 17:19:43.371244
20.41124403,-4.328616142,-7.19970417,3.181257725,2024-06-05 17:19:43.411244
20.45124403,-4.471288204,-6.671488762,3.291327477,2024-06-05 17:19:43.451244
20.49124403,-4.471288204,-6.671488762,3.291327477,2024-06-05 17:19:43.491244
20.53124403,-4.471288204,-6.671488762,3.291327477,2024-06-05 17:19:43.531244
20.57124403,-4.471288204,-6.671488762,3.291327477,2024-06-05 17:19:43.571244
20.61124403,-4.471288204,-6.671488762,3.291327477,2024-06-05 17:19:43.611244
20.65124403,-4.471288204,-6.671488762,3.291327477,2024-06-05 17:19:43.651244
20.69124403,-4.471288204,-6.671488762,3.291327477,2024-06-05 17:19:43.691244
20.73124403,-4.471288204,-6.671488762,3.291327477,2024-06-05 17:19:43.731244
20.77124403,-4.471288204,-6.671488762,3.291327477,2024-06-05 17:19:43.771244
20.81124403,-4.471288204,-6.671488762,3.291327477,2024-06-05 17:19:43.811244
20.85124403,-4.471288204,-6.671488762,3.291327477,2024-06-05 17:19:43.851244
20.89124403,-4.471288204,-6.671488762,3.291327477,2024-06-05 17:19:43.891244
20.93124403,-4.471288204,-6.671488762,3.291327477,2024-06-05 17:19:43.931244
20.97124403,-4.471288204,-6.671488762,3.291327477,2024-06-05 17:19:43.971244
21.01124403,-4.471288204,-6.671488762,3.291327477,2024-06-05 17:19:44.011244
21.05124403,-4.471288204,-6.671488762,3.291327477,2024-06-05 17:19:44.051244
21.09124403,-4.471288204,-6.671488762,3.291327477,2024-06-05 17:19:44.091244
21.13124403,-4.471288204,-6.671488762,3.291327477,2024-06-05 17:19:44.131244
21.17124403,-4.38724041,-3.843471289,6.058327675,2024-06-05 17:19:44.171244
21.21124403,-10.75693417,-4.502394676,7.89182806,2024-06-05 17:19:44.211244
21.25124403,-7.129116058,-7.623532772,5.679663658,2024-06-05 17:19:44.251244
21.29124403,-3.21356082,-7.000801086,4.031607151,2024-06-05 17:19:44.291244
21.33124403,-3.096312523,-4.287938118,3.414856911,2024-06-05 17:19:44.331244
21.37124403,-4.41984272,-4.465306282,4.145266056,2024-06-05 17:19:44.371244
21.41124403,-5.561218739,-6.385247231,4.424628258,2024-06-05 17:19:44.411244
21.45124403,-7.584051132,-8.989236832,4.689334393,2024-06-05 17:19:44.451244
21.49124403,-8.289634705,-9.286245346,4.163511276,2024-06-05 17:19:44.491244
21.53124403,-6.563811779,-7.837989807,3.883252144,2024-06-05 17:19:44.531244
21.57124403,-4.60767889,-7.150651455,4.396811485,2024-06-05 17:19:44.571244
21.61124403,-3.665206194,-7.611568928,2.994318485,2024-06-05 17:19:44.611244
21.65124403,-5.408975601,-7.275078297,2.91655159,2024-06-05 17:19:44.651244
21.69124403,-6.507281303,-8.315956116,3.612264872,2024-06-05 17:19:44.691244
21.73124403,-5.821139336,-8.382954597,3.836292982,2024-06-05 17:19:44.731244
21.77124403,-5.515755177,-9.043074608,3.945465326,2024-06-05 17:19:44.771244
21.81124403,-5.158626556,-8.604590416,3.742972851,2024-06-05 17:19:44.811244
21.85124403,-5.30728054,-8.744869232,3.024228811,2024-06-05 17:19:44.851244
21.89124403,-5.420939922,-6.696613312,3.343969584,2024-06-05 17:19:44.891244
21.93124403,-6.052345753,-7.719544888,3.695116282,2024-06-05 17:19:44.931244
21.97124403,-4.853242397,-5.030610561,2.221735716,2024-06-05 17:19:44.971244
22.01124403,-1.829013824,-4.110570431,3.455534935,2024-06-05 17:19:45.011244
22.05124403,-8.347063065,-12.38465214,4.442574501,2024-06-05 17:19:45.051244
22.09124403,-9.670592308,-12.23510075,4.489234447,2024-06-05 17:19:45.091244
22.13124403,-7.736294746,-5.91206646,4.751547337,2024-06-05 17:19:45.131244
22.17124403,-7.736294746,-5.91206646,4.751547337,2024-06-05 17:19:45.171244
22.21124403,-4.871188641,-7.14945507,2.159522533,2024-06-05 17:19:45.211244
22.25124403,-4.871188641,-7.14945507,2.159522533,2024-06-05 17:19:45.251244
22.29124403,-4.871188641,-7.14945507,2.159522533,2024-06-05 17:19:45.291244
22.33124403,-4.871188641,-7.14945507,2.159522533,2024-06-05 17:19:45.331244
22.37124403,-4.871188641,-7.14945507,2.159522533,2024-06-05 17:19:45.371244
22.41124403,-4.871188641,-7.14945507,2.159522533,2024-06-05 17:19:45.411244
22.45124403,-5.518147945,-2.83519578,4.567001343,2024-06-05 17:19:45.451244
22.49124403,-5.518147945,-2.83519578,4.567001343,2024-06-05 17:19:45.491244
22.53124403,-5.518147945,-2.83519578,4.567001343,2024-06-05 17:19:45.531244
22.57124403,-5.518147945,-2.83519578,4.567001343,2024-06-05 17:19:45.571244
22.61124403,-5.518147945,-2.83519578,4.567001343,2024-06-05 17:19:45.611244
22.65124403,-5.518147945,-2.83519578,4.567001343,2024-06-05 17:19:45.651244
22.69124403,-5.518147945,-2.83519578,4.567001343,2024-06-05 17:19:45.691244
22.73124403,-5.518147945,-2.83519578,4.567001343,2024-06-05 17:19:45.731244
22.77124403,-5.518147945,-2.83519578,4.567001343,2024-06-05 17:19:45.771244
22.81124403,-6.891927242,-8.256134987,3.176471949,2024-06-05 17:19:45.811244
22.85124403,-4.307080746,-6.725327015,2.352443695,2024-06-05 17:19:45.851244
22.89124403,-6.982854843,-6.819843769,2.80857563,2024-06-05 17:19:45.891244
22.93124403,-6.525227547,-7.339684486,3.299702406,2024-06-05 17:19:45.931244
22.97124403,-5.991029739,-7.799704552,3.469892025,2024-06-05 17:19:45.971244
23.01124403,-8.01416111,-8.947062492,4.092624187,2024-06-05 17:19:46.011244
23.05124403,-6.899106026,-9.540184021,3.650849104,2024-06-05 17:19:46.051244
23.09124403,-6.039185047,-8.219046593,2.66739893,2024-06-05 17:19:46.091244
23.13124403,-4.523930073,-8.178368568,2.568096876,2024-06-05 17:19:46.131244
23.17124403,-3.825525284,-7.049853802,2.143969059,2024-06-05 17:19:46.171244
23.21124403,-3.957429647,-6.07148838,2.490031004,2024-06-05 17:19:46.211244
23.25124403,-4.877170563,-6.863213539,2.830410004,2024-06-05 17:19:46.251244
23.29124403,-10.26341438,-8.398508072,4.527519703,2024-06-05 17:19:46.291244
23.33124403,-10.20120144,-8.544769287,2.57766819,2024-06-05 17:19:46.331244
23.37124403,-6.901498795,-7.671688557,3.856631994,2024-06-05 17:19:46.371244
23.41124403,-5.1765728,-7.009175777,2.51994133,2024-06-05 17:19:46.411244
23.45124403,-6.726523399,-6.028417587,2.100898266,2024-06-05 17:19:46.451244
23.49124403,-9.249156952,-6.388836384,4.08424902,2024-06-05 17:19:46.491244
23.53124403,-6.157629967,-4.534698009,4.290330887,2024-06-05 17:19:46.531244
23.57124403,-6.248557091,-6.216254234,3.150151014,2024-06-05 17:19:46.571244
23.61124403,-7.877471447,-5.005486012,4.677071095,2024-06-05 17:19:46.611244
23.65124403,-4.474877357,-2.14157629,2.576471806,2024-06-05 17:19:46.651244
23.69124403,-4.807778835,-2.939283609,3.196810961,2024-06-05 17:19:46.691244
23.73124403,-6.148058891,-2.063809633,4.047160625,2024-06-05 17:19:46.731244
23.77124403,-4.697709084,-2.286641121,4.179064751,2024-06-05 17:19:46.771244
23.81124403,-4.697709084,-2.286641121,4.179064751,2024-06-05 17:19:46.811244
23.85124403,-4.697709084,-2.286641121,4.179064751,2024-06-05 17:19:46.851244
23.89124403,-4.697709084,-2.286641121,4.179064751,2024-06-05 17:19:46.891244
23.93124403,-4.697709084,-2.286641121,4.179064751,2024-06-05 17:19:46.931244
23.97124403,-4.697709084,-2.286641121,4.179064751,2024-06-05 17:19:46.971244
24.01124403,-4.697709084,-2.286641121,4.179064751,2024-06-05 17:19:47.011244
24.05124403,-4.697709084,-2.286641121,4.179064751,2024-06-05 17:19:47.051244
24.09124403,-4.697709084,-2.286641121,4.179064751,2024-06-05 17:19:47.091244
24.13124403,-4.697709084,-2.286641121,4.179064751,2024-06-05 17:19:47.131244
24.17124403,-4.697709084,-2.286641121,4.179064751,2024-06-05 17:19:47.171244
24.21124403,-4.697709084,-2.286641121,4.179064751,2024-06-05 17:19:47.211244
24.25124403,-4.697709084,-2.286641121,4.179064751,2024-06-05 17:19:47.251244
24.29124403,-4.697709084,-2.286641121,4.179064751,2024-06-05 17:19:47.291244
24.33124403,-4.697709084,-2.286641121,4.179064751,2024-06-05 17:19:47.331244
24.37124403,-4.697709084,-2.286641121,4.179064751,2024-06-05 17:19:47.371244
24.41124403,-4.697709084,-2.286641121,4.179064751,2024-06-05 17:19:47.411244
24.45124403,-12.95713425,-14.52263927,5.041378021,2024-06-05 17:19:47.451244
24.49124403,-2.896212816,-7.058228493,1.903191328,2024-06-05 17:19:47.491244
24.53124403,-5.592325687,-9.579665184,1.995314956,2024-06-05 17:19:47.531244
24.57124403,-7.371089935,-6.508477688,3.506980658,2024-06-05 17:19:47.571244
24.61124403,-5.247459888,-6.244967937,2.884248495,2024-06-05 17:19:47.611244
24.65124403,-4.299902439,-5.33599472,2.293819666,2024-06-05 17:19:47.651244
24.69124403,-6.404389858,-5.640182018,3.098705292,2024-06-05 17:19:47.691244
24.73124403,-8.143373489,-7.203293324,2.887837887,2024-06-05 17:19:47.731244
24.77124403,-10.31755257,-9.372386932,3.33439827,2024-06-05 17:19:47.771244
24.81124403,-9.211769104,-8.081160545,3.826721668,2024-06-05 17:19:47.811244
24.85124403,-7.505088329,-5.473581791,3.605086327,2024-06-05 17:19:47.851244
24.89124403,-6.465406895,-5.186143875,2.897409201,2024-06-05 17:19:47.891244
24.93124403,-4.941776752,-5.890531063,2.215753794,2024-06-05 17:19:47.931244
24.97124403,-4.321437836,-2.503191471,3.697509289,2024-06-05 17:19:47.971244
25.01124403,-7.908876896,-2.878266573,3.934697628,2024-06-05 17:19:48.011244
25.05124403,-4.320241451,-1.92353034,3.980161428,2024-06-05 17:19:48.051244
25.09124403,-4.707280159,-2.187039852,3.027817965,2024-06-05 17:19:48.091244
25.13124403,-4.761118889,-1.870888233,4.364508629,2024-06-05 17:19:48.131244
25.17124403,-7.059424877,-2.571686029,4.34775877,2024-06-05 17:19:48.171244
25.21124403,-6.077470303,-4.814957142,4.405186653,2024-06-05 17:19:48.211244
25.25124403,-6.624828815,-4.884349346,3.594318628,2024-06-05 17:19:48.251244
25.29124403,-6.070291996,-5.510969639,3.377768278,2024-06-05 17:19:48.291244
25.33124403,-5.40060091,-5.943173409,3.164507866,2024-06-05 17:19:48.331244
25.37124403,-5.389832973,-6.793522358,3.661616802,2024-06-05 17:19:48.371244
25.41124403,-7.073781967,-5.406582832,3.799204111,2024-06-05 17:19:48.411244
25.45124403,-8.236992836,-5.827121258,4.30827713,2024-06-05 17:19:48.451244
25.49124403,-8.236992836,-5.827121258,4.30827713,2024-06-05 17:19:48.491244
25.53124403,-8.236992836,-5.827121258,4.30827713,2024-06-05 17:19:48.531244
25.57124403,-8.236992836,-5.827121258,4.30827713,2024-06-05 17:19:48.571244
25.61124403,-8.236992836,-5.827121258,4.30827713,2024-06-05 17:19:48.611244
25.65124403,-8.236992836,-5.827121258,4.30827713,2024-06-05 17:19:48.651244
25.69124403,-8.236992836,-5.827121258,4.30827713,2024-06-05 17:19:48.691244
25.73124403,-8.236992836,-5.827121258,4.30827713,2024-06-05 17:19:48.731244
25.77124403,-8.236992836,-5.827121258,4.30827713,2024-06-05 17:19:48.771244
25.81124403,-8.236992836,-5.827121258,4.30827713,2024-06-05 17:19:48.811244
25.85124403,-8.236992836,-5.827121258,4.30827713,2024-06-05 17:19:48.851244
25.89124403,-8.236992836,-5.827121258,4.30827713,2024-06-05 17:19:48.891244
25.93124403,-8.236992836,-5.827121258,4.30827713,2024-06-05 17:19:48.931244
25.97124403,-8.236992836,-5.827121258,4.30827713,2024-06-05 17:19:48.971244
26.01124403,-8.236992836,-5.827121258,4.30827713,2024-06-05 17:19:49.011244
26.05124403,-8.236992836,-5.827121258,4.30827713,2024-06-05 17:19:49.051244
26.09124403,-8.236992836,-5.827121258,4.30827713,2024-06-05 17:19:49.091244
26.13124403,-8.580661774,-5.159822941,3.380161047,2024-06-05 17:19:49.131244
26.17124403,-3.983750582,-4.564608097,2.988336325,2024-06-05 17:19:49.171244
26.21124403,-2.64227438,-4.461717129,2.291426897,2024-06-05 17:19:49.211244
26.25124403,-6.794719219,-3.424428225,4.077070713,2024-06-05 17:19:49.251244
26.29124403,-12.39541912,-6.628417969,4.78385067,2024-06-05 17:19:49.291244
26.33124403,-6.000600815,-3.356232882,4.090231419,2024-06-05 17:19:49.331244
26.37124403,-4.121337891,-1.62652123,3.101098061,2024-06-05 17:19:49.371244
26.41124403,-0.8144569993,-0.7486543655,2.981158018,2024-06-05 17:19:49.411244
26.45124403,-6.350551128,-2.300997972,4.006482601,2024-06-05 17:19:49.451244
26.49124403,-6.609275341,-3.474677563,4.66151762,2024-06-05 17:19:49.491244
26.53124403,-8.203493118,-4.681856632,4.92143774,2024-06-05 17:19:49.531244
26.57124403,-7.003193855,-6.627221584,3.829114437,2024-06-05 17:19:49.571244
26.61124403,-6.771986961,-6.588936329,4.134498596,2024-06-05 17:19:49.611244
26.65124403,-6.216254234,-4.904688358,3.539283752,2024-06-05 17:19:49.651244
26.69124403,-7.644171238,-5.005486012,3.541676521,2024-06-05 17:19:49.691244
26.73124403,-8.180761337,-9.37717247,1.249352574,2024-06-05 17:19:49.731244
26.77124403,-6.318248272,-9.264710426,2.997907639,2024-06-05 17:19:49.771244
26.81124403,-8.629714966,-6.889534473,3.33439827,2024-06-05 17:19:49.811244
26.85124403,-6.569793701,-8.57228756,3.878167391,2024-06-05 17:19:49.851244
26.89124403,-7.867899895,-6.648756981,3.03499651,2024-06-05 17:19:49.891244
26.93124403,-4.761118889,-4.905884743,2.133201361,2024-06-05 17:19:49.931244
26.97124403,-11.09103203,-11.18704414,3.768097401,2024-06-05 17:19:49.971244
27.01124403,-6.076273918,-9.14596653,2.120040894,2024-06-05 17:19:50.011244
27.05124403,-3.999304056,-8.259724617,2.345265388,2024-06-05 17:19:50.051244
27.09124403,-7.775776386,-8.338687897,3.311666489,2024-06-05 17:19:50.091244
27.13124403,-7.775776386,-8.338687897,3.311666489,2024-06-05 17:19:50.131244
27.17124403,-7.775776386,-8.338687897,3.311666489,2024-06-05 17:19:50.171244
27.21124403,-6.915855408,-5.99940443,2.951247692,2024-06-05 17:19:50.211244
27.25124403,-6.915855408,-5.99940443,2.951247692,2024-06-05 17:19:50.251244
27.29124403,-6.915855408,-5.99940443,2.951247692,2024-06-05 17:19:50.291244
27.33124403,-6.915855408,-5.99940443,2.951247692,2024-06-05 17:19:50.331244
27.37124403,-6.915855408,-5.99940443,2.951247692,2024-06-05 17:19:50.371244
27.41124403,-6.915855408,-5.99940443,2.951247692,2024-06-05 17:19:50.411244
27.45124403,-3.383750439,-4.433002949,1.655235052,2024-06-05 17:19:50.451244
27.49124403,-3.383750439,-4.433002949,1.655235052,2024-06-05 17:19:50.491244
27.53124403,-3.383750439,-4.433002949,1.655235052,2024-06-05 17:19:50.531244
27.57124403,-3.383750439,-4.433002949,1.655235052,2024-06-05 17:19:50.571244
27.61124403,-3.383750439,-4.433002949,1.655235052,2024-06-05 17:19:50.611244
27.65124403,-3.383750439,-4.433002949,1.655235052,2024-06-05 17:19:50.651244
27.69124403,-3.383750439,-4.433002949,1.655235052,2024-06-05 17:19:50.691244
27.73124403,-3.383750439,-4.433002949,1.655235052,2024-06-05 17:19:50.731244
27.77124403,-7.757830143,-5.695217133,4.025625229,2024-06-05 17:19:50.771244
27.81124403,-6.201897144,-6.210271835,3.39212513,2024-06-05 17:19:50.811244
27.85124403,-5.144269466,-6.146862507,2.690130949,2024-06-05 17:19:50.851244
27.89124403,-5.722734451,-5.585147381,3.425624609,2024-06-05 17:19:50.891244
27.93124403,-7.966304779,-7.246364117,2.356033087,2024-06-05 17:19:50.931244
27.97124403,-7.176972389,-9.118449211,3.424428225,2024-06-05 17:19:50.971244
28.01124403,-9.332905769,-9.996315956,3.528516054,2024-06-05 17:19:51.011244
28.05124403,-7.745865822,-7.447660446,2.764308453,2024-06-05 17:19:51.051244
28.09124403,-6.646364212,-7.625925541,3.178864956,2024-06-05 17:19:51.091244
28.13124403,-5.37188673,-6.534798622,2.67338109,2024-06-05 17:19:51.131244
28.17124403,-6.513263226,-6.961319447,2.714059114,2024-06-05 17:19:51.171244
28.21124403,-8.127820015,-8.292027473,3.321237803,2024-06-05 17:19:51.211244
28.25124403,-6.627221584,-8.405686378,2.48883462,2024-06-05 17:19:51.251244
28.29124403,-5.194519043,-7.690831184,1.478166223,2024-06-05 17:19:51.291244
28.33124403,-5.613861084,-7.937591076,2.578864574,2024-06-05 17:19:51.331244
28.37124403,-6.912266254,-6.473781586,1.694716692,2024-06-05 17:19:51.371244
28.41124403,-7.061817646,-6.442675114,3.28414917,2024-06-05 17:19:51.411244
28.45124403,-10.61336517,-7.75424099,2.146361828,2024-06-05 17:19:51.451244
28.49124403,-9.659825325,-7.245167732,1.610967875,2024-06-05 17:19:51.491244
28.53124403,-5.991029739,-5.865406513,2.948854923,2024-06-05 17:19:51.531244
28.57124403,-8.350651741,-7.830811024,1.361815214,2024-06-05 17:19:51.571244
28.61124403,-8.890831947,-6.306283951,3.086741209,2024-06-05 17:19:51.611244
28.65124403,-6.510870457,-4.569394112,2.761915445,2024-06-05 17:19:51.651244
28.69124403,-5.09760952,-4.075874329,2.666202545,2024-06-05 17:19:51.691244
28.73124403,-4.67587471,-3.833899975,2.346461773,2024-06-05 17:19:51.731244
28.77124403,-4.67587471,-3.833899975,2.346461773,2024-06-05 17:19:51.771244
28.81124403,-4.67587471,-3.833899975,2.346461773,2024-06-05 17:19:51.811244
28.85124403,-4.67587471,-3.833899975,2.346461773,2024-06-05 17:19:51.851244
28.89124403,-4.67587471,-3.833899975,2.346461773,2024-06-05 17:19:51.891244
28.93124403,-4.67587471,-3.833899975,2.346461773,2024-06-05 17:19:51.931244
28.97124403,-4.67587471,-3.833899975,2.346461773,2024-06-05 17:19:51.971244
29.01124403,-4.67587471,-3.833899975,2.346461773,2024-06-05 17:19:52.011244
29.05124403,-4.67587471,-3.833899975,2.346461773,2024-06-05 17:19:52.051244
29.09124403,-4.67587471,-3.833899975,2.346461773,2024-06-05 17:19:52.091244
29.13124403,-4.67587471,-3.833899975,2.346461773,2024-06-05 17:19:52.131244
29.17124403,-4.67587471,-3.833899975,2.346461773,2024-06-05 17:19:52.171244
29.21124403,-4.67587471,-3.833899975,2.346461773,2024-06-05 17:19:52.211244
29.25124403,-4.67587471,-3.833899975,2.346461773,2024-06-05 17:19:52.251244
29.29124403,-4.67587471,-3.833899975,2.346461773,2024-06-05 17:19:52.291244
29.33124403,-4.67587471,-3.833899975,2.346461773,2024-06-05 17:19:52.331244
29.37124403,-4.67587471,-3.833899975,2.346461773,2024-06-05 17:19:52.371244
29.41124403,-4.67587471,-3.833899975,2.346461773,2024-06-05 17:19:52.411244
29.45124403,-4.528716087,-7.550551891,2.220539331,2024-06-05 17:19:52.451244
29.49124403,-5.625824928,-7.738687515,2.130808592,2024-06-05 17:19:52.491244
29.53124403,-5.116752148,-5.855835438,2.507977247,2024-06-05 17:19:52.531244
29.57124403,-8.124231339,-7.3540411,2.74396944,2024-06-05 17:19:52.571244
29.61124403,-9.965209007,-10.34387302,3.432803154,2024-06-05 17:19:52.611244
29.65124403,-5.21994257,-7.346862793,1.881655931,2024-06-05 17:19:52.651244
29.69124403,-6.034399509,-6.982854843,1.953440547,2024-06-05 17:19:52.691244
29.73124403,-9.607182503,-6.930212498,2.842374086,2024-06-05 17:19:52.731244
29.77124403,-7.840382576,-5.502594948,2.321336985,2024-06-05 17:19:52.771244
29.81124403,-6.412764549,-6.042774677,1.231406331,2024-06-05 17:19:52.811244
29.85124403,-10.84457111,-7.04387188,5.388636589,2024-06-05 17:19:52.851244
29.89124403,-7.27866745,-4.602893353,1.461117268,2024-06-05 17:19:52.891244
29.93124403,-8.551948547,-6.305087566,3.400500059,2024-06-05 17:19:52.931244
29.97124403,-6.566204548,-3.888037682,2.277069807,2024-06-05 17:19:52.971244
30.01124403,-4.735994339,-3.324826956,2.739183664,2024-06-05 17:19:53.011244
30.05124403,-4.770689964,-1.60378933,3.251846075,2024-06-05 17:19:53.051244
30.09124403,-5.824728489,-2.233700037,2.967997313,2024-06-05 17:19:53.091244
30.13124403,-4.331008911,-2.184647083,3.764508247,2024-06-05 17:19:53.131244
30.17124403,-6.492924213,-2.23728919,3.836292982,2024-06-05 17:19:53.171244
30.21124403,-6.894320011,-3.80159688,3.30927372,2024-06-05 17:19:53.211244
30.25124403,-6.733702183,-4.580161572,3.013461113,2024-06-05 17:19:53.251244
30.29124403,-6.725327015,-5.011467934,2.759522676,2024-06-05 17:19:53.291244
30.33124403,-7.095616341,-5.94078064,3.255435228,2024-06-05 17:19:53.331244
30.37124403,-7.984251022,-5.509773254,3.673580885,2024-06-05 17:19:53.371244
30.41124403,-9.058628082,-7.569694519,2.822035313,2024-06-05 17:19:53.411244
30.45124403,-7.775776386,-7.197311401,3.103491068,2024-06-05 17:19:53.451244
30.49124403,-7.775776386,-7.197311401,3.103491068,2024-06-05 17:19:53.491244
30.53124403,-7.775776386,-7.197311401,3.103491068,2024-06-05 17:19:53.531244
30.57124403,-7.775776386,-7.197311401,3.103491068,2024-06-05 17:19:53.571244
30.61124403,-7.775776386,-7.197311401,3.103491068,2024-06-05 17:19:53.611244
30.65124403,-7.775776386,-7.197311401,3.103491068,2024-06-05 17:19:53.651244
30.69124403,-7.775776386,-7.197311401,3.103491068,2024-06-05 17:19:53.691244
30.73124403,-7.775776386,-7.197311401,3.103491068,2024-06-05 17:19:53.731244
30.77124403,-7.775776386,-7.197311401,3.103491068,2024-06-05 17:19:53.771244
30.81124403,-7.775776386,-7.197311401,3.103491068,2024-06-05 17:19:53.811244
30.85124403,-7.775776386,-7.197311401,3.103491068,2024-06-05 17:19:53.851244
30.89124403,-7.775776386,-7.197311401,3.103491068,2024-06-05 17:19:53.891244
30.93124403,-7.775776386,-7.197311401,3.103491068,2024-06-05 17:19:53.931244
30.97124403,-7.775776386,-7.197311401,3.103491068,2024-06-05 17:19:53.971244
31.01124403,-7.775776386,-7.197311401,3.103491068,2024-06-05 17:19:54.011244
31.05124403,-7.775776386,-7.197311401,3.103491068,2024-06-05 17:19:54.051244
31.09124403,-8.14696312,-6.148058891,2.93090868,2024-06-05 17:19:54.091244
31.13124403,-9.837192535,-8.487341881,4.232903481,2024-06-05 17:19:54.131244
31.17124403,-9.88504982,-6.212665081,3.485445261,2024-06-05 17:19:54.171244
31.21124403,-8.841778755,-5.747859001,4.747958183,2024-06-05 17:19:54.211244
31.25124403,-3.876971006,-3.716651678,2.89980197,2024-06-05 17:19:54.251244
31.29124403,-0.3448655605,-2.296212435,2.257628202,2024-06-05 17:19:54.291244
31.33124403,-1.775175333,-1.941476464,0.9125627279,2024-06-05 17:19:54.331244
31.37124403,-3.380161047,-1.627717614,1.46470654,2024-06-05 17:19:54.371244
31.41124403,-6.640381813,-2.01475668,2.364407778,2024-06-05 17:19:54.411244
31.45124403,-5.846263885,-1.616949916,2.95603323,2024-06-05 17:19:54.451244
31.49124403,-6.93619442,-2.090130568,6.32303381,2024-06-05 17:19:54.491244
31.53124403,-6.173183441,-2.718844652,4.58255434,2024-06-05 17:19:54.531244
31.57124403,-6.321837425,-7.076174736,2.509173632,2024-06-05 17:19:54.571244
31.61124403,-13.49372482,-8.127820015,2.940479994,2024-06-05 17:19:54.611244
31.65124403,-9.144769669,-7.999804497,1.719841242,2024-06-05 17:19:54.651244
31.69124403,-9.684949875,-11.4015007,1.879263043,2024-06-05 17:19:54.691244
31.73124403,-7.108777046,-8.748458862,1.546361685,2024-06-05 17:19:54.731244
31.77124403,-7.112366199,-7.604390144,1.53080833,2024-06-05 17:19:54.771244
31.81124403,-5.424529076,-6.355337143,1.172483087,2024-06-05 17:19:54.811244
31.85124403,-5.373083115,-8.462217331,2.845963478,2024-06-05 17:19:54.851244
31.89124403,-8.892027855,-9.134002686,3.362214804,2024-06-05 17:19:54.891244
31.93124403,-6.059524059,-6.36251545,1.846959949,2024-06-05 17:19:54.931244
31.97124403,-5.143073082,-7.222435951,2.904587507,2024-06-05 17:19:54.971244
32.01124403,-6.421139717,-8.710173607,1.459920883,2024-06-05 17:19:55.011244
32.05124403,-7.744669437,-8.247760773,4.626821518,2024-06-05 17:19:55.051244
32.09124403,-7.744669437,-8.247760773,4.626821518,2024-06-05 17:19:55.091244
32.13124403,-7.744669437,-8.247760773,4.626821518,2024-06-05 17:19:55.131244
32.17124403,-7.744669437,-8.247760773,4.626821518,2024-06-05 17:19:55.171244
32.21124403,-8.720941544,-4.741976261,0.643071115,2024-06-05 17:19:55.211244
32.25124403,-8.720941544,-4.741976261,0.643071115,2024-06-05 17:19:55.251244
32.29124403,-8.720941544,-4.741976261,0.643071115,2024-06-05 17:19:55.291244
32.33124403,-8.720941544,-4.741976261,0.643071115,2024-06-05 17:19:55.331244
32.37124403,-8.720941544,-4.741976261,0.643071115,2024-06-05 17:19:55.371244
32.41124403,-8.720941544,-4.741976261,0.643071115,2024-06-05 17:19:55.411244
32.45124403,-8.720941544,-4.741976261,0.643071115,2024-06-05 17:19:55.451244
32.49124403,-8.720941544,-4.741976261,0.643071115,2024-06-05 17:19:55.491244
32.53124403,-8.720941544,-4.741976261,0.643071115,2024-06-05 17:19:55.531244
32.57124403,-8.720941544,-4.741976261,0.643071115,2024-06-05 17:19:55.571244
32.61124403,-8.720941544,-4.741976261,0.643071115,2024-06-05 17:19:55.611244
32.65124403,-8.720941544,-4.741976261,0.643071115,2024-06-05 17:19:55.651244
32.69124403,-8.720941544,-4.741976261,0.643071115,2024-06-05 17:19:55.691244
32.73124403,-8.720941544,-4.741976261,0.643071115,2024-06-05 17:19:55.731244
32.77124403,-8.578269005,-6.981658459,4.648356915,2024-06-05 17:19:55.771244
32.81124403,-7.307381153,-6.507281303,3.259024382,2024-06-05 17:19:55.811244
32.85124403,-7.929215908,-5.236692429,3.007478952,2024-06-05 17:19:55.851244
32.89124403,-9.273084641,-8.398508072,2.082952023,2024-06-05 17:19:55.891244
32.93124403,-7.270292282,-9.655039787,2.160718918,2024-06-05 17:19:55.931244
32.97124403,-7.515855789,-9.100502968,1.946262121,2024-06-05 17:19:55.971244
33.01124403,-7.010372162,-9.471689224,4.045963764,2024-06-05 17:19:56.011244
33.05124403,-7.155436993,-7.227221489,3.30089879,2024-06-05 17:19:56.051244
33.09124403,-6.984051228,-7.033103943,2.705684185,2024-06-05 17:19:56.091244
33.13124403,-7.833203793,-7.536194801,2.574079037,2024-06-05 17:19:56.131244
33.17124403,-5.66052103,-6.635596275,1.781157374,2024-06-05 17:19:56.171244
33.21124403,-4.890331268,-7.421339512,2.184647083,2024-06-05 17:19:56.211244
33.25124403,-7.962715626,-8.202297211,3.343969584,2024-06-05 17:19:56.251244
33.29124403,-9.389137268,-6.519245148,2.054238319,2024-06-05 17:19:56.291244
33.33124403,-8.035696983,-6.355337143,4.124927044,2024-06-05 17:19:56.331244
33.37124403,-9.905388832,-5.989833355,1.11984098,2024-06-05 17:19:56.371244
33.41124403,-8.943473816,-6.806683064,1.455135226,2024-06-05 17:19:56.411244
33.45124403,-7.658527851,-6.617650032,3.349054337,2024-06-05 17:19:56.451244
33.49124403,-8.973683357,-5.698806286,2.440978289,2024-06-05 17:19:56.491244
33.53124403,-5.720341682,-4.606482506,2.545365095,2024-06-05 17:19:56.531244
33.57124403,-6.404389858,-3.025425196,3.461517096,2024-06-05 17:19:56.571244
33.61124403,-5.155037403,-2.8519454,2.649452925,2024-06-05 17:19:56.611244
33.65124403,-4.408775806,-1.639681697,3.584747314,2024-06-05 17:19:56.651244
33.69124403,-4.898705959,-2.296212435,3.116651535,2024-06-05 17:19:56.691244
33.73124403,-5.903691769,-3.229114056,3.731008768,2024-06-05 17:19:56.731244
33.77124403,-5.903691769,-3.229114056,3.731008768,2024-06-05 17:19:56.771244
33.81124403,-5.903691769,-3.229114056,3.731008768,2024-06-05 17:19:56.811244
33.85124403,-5.903691769,-3.229114056,3.731008768,2024-06-05 17:19:56.851244
33.89124403,-5.903691769,-3.229114056,3.731008768,2024-06-05 17:19:56.891244
33.93124403,-5.903691769,-3.229114056,3.731008768,2024-06-05 17:19:56.931244
33.97124403,-5.903691769,-3.229114056,3.731008768,2024-06-05 17:19:56.971244
34.01124403,-5.903691769,-3.229114056,3.731008768,2024-06-05 17:19:57.011244
34.05124403,-5.903691769,-3.229114056,3.731008768,2024-06-05 17:19:57.051244
34.09124403,-5.903691769,-3.229114056,3.731008768,2024-06-05 17:19:57.091244
34.13124403,-5.903691769,-3.229114056,3.731008768,2024-06-05 17:19:57.131244
34.17124403,-5.903691769,-3.229114056,3.731008768,2024-06-05 17:19:57.171244
34.21124403,-5.903691769,-3.229114056,3.731008768,2024-06-05 17:19:57.211244
34.25124403,-5.903691769,-3.229114056,3.731008768,2024-06-05 17:19:57.251244
34.29124403,-5.903691769,-3.229114056,3.731008768,2024-06-05 17:19:57.291244
34.33124403,-5.903691769,-3.229114056,3.731008768,2024-06-05 17:19:57.331244
34.37124403,-5.903691769,-3.229114056,3.731008768,2024-06-05 17:19:57.371244
34.41124403,-3.463909864,-5.303691387,1.622931957,2024-06-05 17:19:57.411244
34.45124403,-2.946461916,-6.902695179,1.818246126,2024-06-05 17:19:57.451244
34.49124403,-9.761520386,-8.355437279,5.799603939,2024-06-05 17:19:57.491244
34.53124403,-12.47587776,-7.26431036,0.698405087,2024-06-05 17:19:57.531244
34.57124403,-9.16750145,-8.160123825,4.080659866,2024-06-05 17:19:57.571244
34.61124403,-7.993822098,-6.286842346,1.409671664,2024-06-05 17:19:57.611244
34.65124403,-5.534897804,-6.211468697,1.21704936,2024-06-05 17:19:57.651244
34.69124403,-6.124130249,-3.795614958,2.232503414,2024-06-05 17:19:57.691244
34.73124403,-9.366405487,-3.854238987,2.576471806,2024-06-05 17:19:57.731244
34.77124403,-6.295516491,-3.426821232,2.748754978,2024-06-05 17:19:57.771244
34.81124403,-4.37288332,-2.991925716,3.526123285,2024-06-05 17:19:57.811244
34.85124403,-6.282056808,-3.075674295,3.748954773,2024-06-05 17:19:57.851244
34.89124403,-3.982554197,-2.445763826,3.451945782,2024-06-05 17:19:57.891244
34.93124403,-4.296313286,-0.8659027219,3.212364435,2024-06-05 17:19:57.931244
34.97124403,-3.97776866,-2.497209549,2.890230656,2024-06-05 17:19:57.971244
35.01124403,-7.047461033,-4.802993298,3.632902861,2024-06-05 17:19:58.011244
35.05124403,-7.016354084,-4.860421181,3.594318628,2024-06-05 17:19:58.051244
35.09124403,-8.569893837,-5.514558792,3.727419376,2024-06-05 17:19:58.091244
35.13124403,-7.992625713,-6.349354744,3.504587889,2024-06-05 17:19:58.131244
35.17124403,-6.442675114,-5.897709846,2.164308071,2024-06-05 17:19:58.171244
35.21124403,-6.509674072,-7.404589653,2.675773859,2024-06-05 17:19:58.211244
35.25124403,-9.275477409,-8.268099785,2.395514488,2024-06-05 17:19:58.251244
35.29124403,-7.495516777,-7.235596657,2.248056889,2024-06-05 17:19:58.291244
35.33124403,-7.984251022,-9.308977127,1.887637973,2024-06-05 17:19:58.331244
35.37124403,-7.847560883,-9.582057953,3.951447487,2024-06-05 17:19:58.371244
35.41124403,-7.847560883,-9.582057953,3.951447487,2024-06-05 17:19:58.411244
35.45124403,-6.032006741,-7.100401878,2.801397085,2024-06-05 17:19:58.451244
35.49124403,-6.032006741,-7.100401878,2.801397085,2024-06-05 17:19:58.491244
35.53124403,-6.032006741,-7.100401878,2.801397085,2024-06-05 17:19:58.531244
35.57124403,-6.032006741,-7.100401878,2.801397085,2024-06-05 17:19:58.571244
35.61124403,-6.032006741,-7.100401878,2.801397085,2024-06-05 17:19:58.611244
35.65124403,-6.032006741,-7.100401878,2.801397085,2024-06-05 17:19:58.651244
35.69124403,-6.032006741,-7.100401878,2.801397085,2024-06-05 17:19:58.691244
35.73124403,-6.032006741,-7.100401878,2.801397085,2024-06-05 17:19:58.731244
35.77124403,-6.032006741,-7.100401878,2.801397085,2024-06-05 17:19:58.771244
35.81124403,-6.032006741,-7.100401878,2.801397085,2024-06-05 17:19:58.811244
35.85124403,-6.032006741,-7.100401878,2.801397085,2024-06-05 17:19:58.851244
35.89124403,-6.032006741,-7.100401878,2.801397085,2024-06-05 17:19:58.891244
35.93124403,-6.032006741,-7.100401878,2.801397085,2024-06-05 17:19:58.931244
35.97124403,-6.032006741,-7.100401878,2.801397085,2024-06-05 17:19:58.971244
36.01124403,-6.032006741,-7.100401878,2.801397085,2024-06-05 17:19:59.011244
36.05124403,-5.489434242,-2.283051968,3.916751623,2024-06-05 17:19:59.051244
36.09124403,-5.964708805,-2.013560295,3.783650875,2024-06-05 17:19:59.091244
36.13124403,-2.83519578,-1.643270969,2.847159863,2024-06-05 17:19:59.131244
36.17124403,-6.091827393,-2.732005358,3.105883837,2024-06-05 17:19:59.171244
36.21124403,-7.747062206,-4.482056141,3.270988464,2024-06-05 17:19:59.211244
36.25124403,-8.40688324,-5.88694191,3.119044304,2024-06-05 17:19:59.251244
36.29124403,-8.03928566,-6.113362789,3.405285835,2024-06-05 17:19:59.291244
36.33124403,-7.607979774,-6.739684105,2.9476583,2024-06-05 17:19:59.331244
36.37124403,-6.014957905,-7.338488102,1.270887971,2024-06-05 17:19:59.371244
36.41124403,-6.494120598,-6.238986015,2.51994133,2024-06-05 17:19:59.411244
36.45124403,-8.326724052,-7.965108395,2.358425856,2024-06-05 17:19:59.451244
36.49124403,-6.822236538,-10.3594265,2.789433002,2024-06-05 17:19:59.491244
36.53124403,-7.594819069,-9.714859962,2.722434044,2024-06-05 17:19:59.531244
36.57124403,-7.615158081,-8.744869232,3.788436413,2024-06-05 17:19:59.571244
36.61124403,-5.607879162,-9.43460083,2.240878344,2024-06-05 17:19:59.611244
36.65124403,-5.20169735,-6.986443996,1.528415442,2024-06-05 17:19:59.651244
36.69124403,-5.308476925,-5.867799282,1.949851394,2024-06-05 17:19:59.691244
36.73124403,-5.377869129,-9.275477409,2.481656075,2024-06-05 17:19:59.731244
36.77124403,-6.399604321,-7.478767395,1.467099428,2024-06-05 17:19:59.771244
36.81124403,-4.563411713,-7.475177765,1.856531262,2024-06-05 17:19:59.811244
36.85124403,-5.976672649,-9.788140297,1.124626637,2024-06-05 17:19:59.851244
36.89124403,-5.426921844,-8.100302696,2.129612207,2024-06-05 17:19:59.891244
36.93124403,-2.991925716,-7.31814909,0.470787853,2024-06-05 17:19:59.931244
36.97124403,-4.099802494,-7.469195843,1.388136268,2024-06-05 17:19:59.971244
37.01124403,-3.836292982,-7.992625713,1.582253933,2024-06-05 17:20:00.011244
37.05124403,-6.166004658,-8.754440308,2.08534503,2024-06-05 17:20:00.051244
37.09124403,-6.166004658,-8.754440308,2.08534503,2024-06-05 17:20:00.091244
37.13124403,-6.166004658,-8.754440308,2.08534503,2024-06-05 17:20:00.131244
37.17124403,-6.166004658,-8.754440308,2.08534503,2024-06-05 17:20:00.171244
37.21124403,-5.843871117,-8.373383522,1.769193292,2024-06-05 17:20:00.211244
37.25124403,-5.843871117,-8.373383522,1.769193292,2024-06-05 17:20:00.251244
37.29124403,-5.843871117,-8.373383522,1.769193292,2024-06-05 17:20:00.291244
37.33124403,-5.843871117,-8.373383522,1.769193292,2024-06-05 17:20:00.331244
37.37124403,-5.843871117,-8.373383522,1.769193292,2024-06-05 17:20:00.371244
37.41124403,-5.843871117,-8.373383522,1.769193292,2024-06-05 17:20:00.411244
37.45124403,-5.843871117,-8.373383522,1.769193292,2024-06-05 17:20:00.451244
37.49124403,-5.843871117,-8.373383522,1.769193292,2024-06-05 17:20:00.491244
37.53124403,-5.843871117,-8.373383522,1.769193292,2024-06-05 17:20:00.531244
37.57124403,-5.843871117,-8.373383522,1.769193292,2024-06-05 17:20:00.571244
37.61124403,-5.843871117,-8.373383522,1.769193292,2024-06-05 17:20:00.611244
37.65124403,-5.843871117,-8.373383522,1.769193292,2024-06-05 17:20:00.651244
37.69124403,-5.843871117,-8.373383522,1.769193292,2024-06-05 17:20:00.691244
37.73124403,-4.177868366,-7.197311401,0.9619147182,2024-06-05 17:20:00.731244
37.77124403,-3.823132277,-8.458627701,1.110269666,2024-06-05 17:20:00.771244
37.81124403,-5.664110184,-8.201100349,1.770389676,2024-06-05 17:20:00.811244
37.85124403,-5.181358337,-9.111269951,1.63489604,2024-06-05 17:20:00.851244
37.89124403,-4.505984306,-7.882256985,1.53080833,2024-06-05 17:20:00.891244
37.93124403,-4.335794449,-7.9782691,1.689931035,2024-06-05 17:20:00.931244
37.97124403,-4.356133461,-8.708976746,1.353440285,2024-06-05 17:20:00.971244
38.01124403,-5.589932919,-9.980762482,2.108076811,2024-06-05 17:20:01.011244
38.05124403,-4.836492538,-8.682356834,2.32851553,2024-06-05 17:20:01.051244
38.09124403,-3.78484726,-7.568498135,2.182254314,2024-06-05 17:20:01.091244
38.13124403,-3.152543783,-7.738687515,1.571486235,2024-06-05 17:20:01.131244
38.17124403,-4.188635826,-7.203293324,1.0863415,2024-06-05 17:20:01.171244
38.21124403,-4.023231983,-7.878667831,1.799103498,2024-06-05 17:20:01.211244
38.25124403,-5.129912853,-9.354440689,2.279462576,2024-06-05 17:20:01.251244
38.29124403,-5.754140377,-10.2347002,2.466102839,2024-06-05 17:20:01.291244
38.33124403,-3.503391504,-8.478966713,1.899602056,2024-06-05 17:20:01.331244
38.37124403,-4.41236496,-9.362815857,2.248056889,2024-06-05 17:20:01.371244
38.41124403,-4.671088696,-8.246563911,1.912762642,2024-06-05 17:20:01.411244
38.45124403,-4.350151539,-7.647760391,1.881655931,2024-06-05 17:20:01.451244
38.49124403,-3.276970625,-7.448856831,1.542772412,2024-06-05 17:20:01.491244
38.53124403,-5.301298618,-7.723134041,1.994118571,2024-06-05 17:20:01.531244
38.57124403,-5.121537685,-8.127820015,1.980958104,2024-06-05 17:20:01.571244
38.61124403,-5.761318684,-8.725727081,2.11046958,2024-06-05 17:20:01.611244
38.65124403,-5.028217793,-9.416654587,1.752443433,2024-06-05 17:20:01.651244
38.69124403,-4.722833633,-9.098110199,1.790728688,2024-06-05 17:20:01.691244
38.73124403,-4.722833633,-9.098110199,1.790728688,2024-06-05 17:20:01.731244
38.77124403,-4.722833633,-9.098110199,1.790728688,2024-06-05 17:20:01.771244
38.81124403,-4.722833633,-9.098110199,1.790728688,2024-06-05 17:20:01.811244
38.85124403,-4.722833633,-9.098110199,1.790728688,2024-06-05 17:20:01.851244
38.89124403,-4.722833633,-9.098110199,1.790728688,2024-06-05 17:20:01.891244
38.93124403,-4.722833633,-9.098110199,1.790728688,2024-06-05 17:20:01.931244
38.97124403,-4.722833633,-9.098110199,1.790728688,2024-06-05 17:20:01.971244
39.01124403,-4.722833633,-9.098110199,1.790728688,2024-06-05 17:20:02.011244
39.05124403,-4.722833633,-9.098110199,1.790728688,2024-06-05 17:20:02.051244
39.09124403,-4.722833633,-9.098110199,1.790728688,2024-06-05 17:20:02.091244
39.13124403,-4.722833633,-9.098110199,1.790728688,2024-06-05 17:20:02.131244
39.17124403,-4.722833633,-9.098110199,1.790728688,2024-06-05 17:20:02.171244
39.21124403,-1.370190024,-8.494520187,0.774975419,2024-06-05 17:20:02.211244
39.25124403,-1.370190024,-8.494520187,0.774975419,2024-06-05 17:20:02.251244
39.29124403,-1.370190024,-8.494520187,0.774975419,2024-06-05 17:20:02.291244
39.33124403,-1.370190024,-8.494520187,0.774975419,2024-06-05 17:20:02.331244
39.37124403,-5.186143875,-7.671688557,2.413460732,2024-06-05 17:20:02.371244
39.41124403,-4.710869789,-6.701398849,2.385943174,2024-06-05 17:20:02.411244
39.45124403,-4.961218834,-9.4812603,1.947458506,2024-06-05 17:20:02.451244
39.49124403,-7.669295788,-9.235996246,2.692523718,2024-06-05 17:20:02.491244
39.53124403,-3.910769463,-9.583254814,1.943869352,2024-06-05 17:20:02.531244
39.57124403,-5.182554722,-8.270492554,2.254039049,2024-06-05 17:20:02.571244
39.61124403,-3.714258909,-8.054839134,1.6181463,2024-06-05 17:20:02.611244
39.65124403,-3.647259951,-5.143073082,1.781157374,2024-06-05 17:20:02.651244
39.69124403,-4.35852623,-7.019943237,1.903191328,2024-06-05 17:20:02.691244
39.73124403,-6.480959892,-8.219046593,2.226521492,2024-06-05 17:20:02.731244
39.77124403,-6.791129589,-9.209376335,2.596810818,2024-06-05 17:20:02.771244
39.81124403,-5.673681736,-7.951947689,2.444567442,2024-06-05 17:20:02.811244
39.85124403,-5.186143875,-9.094520569,2.293819666,2024-06-05 17:20:02.851244
39.89124403,-5.149055004,-8.704191208,1.619342685,2024-06-05 17:20:02.891244
39.93124403,-4.206582069,-5.634200096,1.365404367,2024-06-05 17:20:02.931244
39.97124403,-4.507180691,-8.723334312,1.624128342,2024-06-05 17:20:02.971244
40.01124403,-4.974379063,-8.679964066,2.087737799,2024-06-05 17:20:03.011244
40.05124403,-3.329612732,-9.086145401,1.27328074,2024-06-05 17:20:03.051244
40.09124403,-3.654438496,-8.69940567,2.155933142,2024-06-05 17:20:03.091244
40.13124403,-4.625625134,-9.718449593,1.784746647,2024-06-05 17:20:03.131244
40.17124403,-4.625625134,-8.191529274,2.443371058,2024-06-05 17:20:03.171244
40.21124403,-4.116552353,-9.627521515,1.905584097,2024-06-05 17:20:03.211244
40.25124403,-4.41236496,-8.307580948,1.710269928,2024-06-05 17:20:03.251244
40.29124403,-3.798007727,-8.376973152,1.746461391,2024-06-05 17:20:03.291244
40.33124403,-3.183650494,-7.176972389,1.815853238,2024-06-05 17:20:03.331244
40.37124403,-3.183650494,-7.176972389,1.815853238,2024-06-05 17:20:03.371244
40.41124403,-3.183650494,-7.176972389,1.815853238,2024-06-05 17:20:03.411244
40.45124403,-3.183650494,-7.176972389,1.815853238,2024-06-05 17:20:03.451244
40.49124403,-3.183650494,-7.176972389,1.815853238,2024-06-05 17:20:03.491244
40.53124403,-3.183650494,-7.176972389,1.815853238,2024-06-05 17:20:03.531244
40.57124403,-3.183650494,-7.176972389,1.815853238,2024-06-05 17:20:03.571244
40.61124403,-3.183650494,-7.176972389,1.815853238,2024-06-05 17:20:03.611244
40.65124403,-3.183650494,-7.176972389,1.815853238,2024-06-05 17:20:03.651244
40.69124403,-3.183650494,-7.176972389,1.815853238,2024-06-05 17:20:03.691244
40.73124403,-3.183650494,-7.176972389,1.815853238,2024-06-05 17:20:03.731244
40.77124403,-3.183650494,-7.176972389,1.815853238,2024-06-05 17:20:03.771244
40.81124403,-3.183650494,-7.176972389,1.815853238,2024-06-05 17:20:03.811244
40.85124403,-3.183650494,-7.176972389,1.815853238,2024-06-05 17:20:03.851244
40.89124403,-3.183650494,-7.176972389,1.815853238,2024-06-05 17:20:03.891244
40.93124403,-3.183650494,-7.176972389,1.815853238,2024-06-05 17:20:03.931244
40.97124403,-3.183650494,-7.176972389,1.815853238,2024-06-05 17:20:03.971244
41.01124403,-3.183650494,-7.176972389,1.815853238,2024-06-05 17:20:04.011244
41.05124403,-4.246063709,-8.519644737,1.90079844,2024-06-05 17:20:04.051244
41.09124403,-3.679563046,-9.223732948,1.573879123,2024-06-05 17:20:04.091244
41.13124403,-4.78385067,-8.978468895,1.610967875,2024-06-05 17:20:04.131244
41.17124403,-4.199403763,-8.926724434,1.953440547,2024-06-05 17:20:04.171244
41.21124403,-4.453341961,-9.90658474,1.960619092,2024-06-05 17:20:04.211244
41.25124403,-4.485645294,-8.330312729,1.631306887,2024-06-05 17:20:04.251244
41.29124403,-4.224528313,-7.397411346,2.19780755,2024-06-05 17:20:04.291244
41.33124403,-4.728815556,-7.099205494,1.654038668,2024-06-05 17:20:04.331244
41.37124403,-6.3373909,-6.873981476,1.716252089,2024-06-05 17:20:04.371244
41.41124403,-5.84746027,-8.836993217,1.893620014,2024-06-05 17:20:04.411244
41.45124403,-6.538387775,-9.724431038,2.06261301,2024-06-05 17:20:04.451244
41.49124403,-4.613661289,-8.646464348,1.924726725,2024-06-05 17:20:04.491244
41.53124403,-5.395814896,-9.433403969,2.327319145,2024-06-05 17:20:04.531244
41.57124403,-4.804189682,-7.28943491,1.736590981,2024-06-05 17:20:04.571244
41.61124403,-3.811168194,-7.418946743,1.717448473,2024-06-05 17:20:04.611244
41.65124403,-5.542076111,-6.917052269,1.403689623,2024-06-05 17:20:04.651244
41.69124403,-3.764508247,-7.769794464,1.6181463,2024-06-05 17:20:04.691244
41.73124403,-7.083353043,-10.14138031,2.06261301,2024-06-05 17:20:04.731244
41.77124403,-7.591229916,-8.292027473,3.127419233,2024-06-05 17:20:04.771244
41.81124403,-5.959922791,-8.865707397,2.329711914,2024-06-05 17:20:04.811244
41.85124403,-6.157629967,-8.769993782,2.400300264,2024-06-05 17:20:04.851244
41.89124403,-4.61126852,-8.549555779,0.3628117442,2024-06-05 17:20:04.891244
41.93124403,-4.666303158,-6.442675114,3.079562664,2024-06-05 17:20:04.931244
41.97124403,-7.943572998,-6.228218079,2.165504456,2024-06-05 17:20:04.971244
42.01124403,-5.464010715,-6.084649086,2.002493382,2024-06-05 17:20:05.011244
42.05124403,-5.464010715,-6.084649086,2.002493382,2024-06-05 17:20:05.051244
42.09124403,-5.464010715,-6.084649086,2.002493382,2024-06-05 17:20:05.091244
42.13124403,-5.464010715,-6.084649086,2.002493382,2024-06-05 17:20:05.131244
42.17124403,-5.464010715,-6.084649086,2.002493382,2024-06-05 17:20:05.171244
42.21124403,-7.684848785,-7.768597603,1.978565216,2024-06-05 17:20:05.211244
42.25124403,-7.684848785,-7.768597603,1.978565216,2024-06-05 17:20:05.251244
42.29124403,-7.684848785,-7.768597603,1.978565216,2024-06-05 17:20:05.291244
42.33124403,-7.684848785,-7.768597603,1.978565216,2024-06-05 17:20:05.331244
42.37124403,-7.684848785,-7.768597603,1.978565216,2024-06-05 17:20:05.371244
42.41124403,-7.684848785,-7.768597603,1.978565216,2024-06-05 17:20:05.411244
42.45124403,-7.684848785,-7.768597603,1.978565216,2024-06-05 17:20:05.451244
42.49124403,-7.684848785,-7.768597603,1.978565216,2024-06-05 17:20:05.491244
42.53124403,-7.684848785,-7.768597603,1.978565216,2024-06-05 17:20:05.531244
42.57124403,-7.684848785,-7.768597603,1.978565216,2024-06-05 17:20:05.571244
42.61124403,-7.684848785,-7.768597603,1.978565216,2024-06-05 17:20:05.611244
42.65124403,-7.684848785,-7.768597603,1.978565216,2024-06-05 17:20:05.651244
42.69124403,-6.672685146,-3.351447105,3.454338551,2024-06-05 17:20:05.691244
42.73124403,-6.384050846,-2.218146563,2.679363251,2024-06-05 17:20:05.731244
42.77124403,-7.888238907,-2.806182861,3.24466753,2024-06-05 17:20:05.771244
42.81124403,-8.646464348,-3.927519321,3.459124327,2024-06-05 17:20:05.811244
42.85124403,-8.162815094,-5.150251865,3.995714664,2024-06-05 17:20:05.851244
42.89124403,-6.906284332,-5.981458187,3.52731967,2024-06-05 17:20:05.891244
42.93124403,-6.133701801,-5.368297577,3.183650494,2024-06-05 17:20:05.931244
42.97124403,-5.751448154,-4.768297195,2.72961235,2024-06-05 17:20:05.971244
43.01124403,-7.715955734,-5.801996708,2.421835661,2024-06-05 17:20:06.011244
43.05124403,-9.132805824,-7.931608677,3.59790802,2024-06-05 17:20:06.051244
43.09124403,-7.206882477,-6.980462074,3.477070332,2024-06-05 17:20:06.091244
43.13124403,-5.763711452,-6.459424496,2.332104683,2024-06-05 17:20:06.131244
43.17124403,-5.726323605,-6.470192432,2.11046958,2024-06-05 17:20:06.171244
43.21124403,-6.069095612,-7.467999458,2.232503414,2024-06-05 17:20:06.211244
43.25124403,-6.271288872,-6.089434624,2.981158018,2024-06-05 17:20:06.251244
43.29124403,-9.279067039,-9.386744499,2.352443695,2024-06-05 17:20:06.291244
43.33124403,-7.960322857,-9.700503349,2.493620396,2024-06-05 17:20:06.331244
43.37124403,-5.048556805,-9.820443153,0.728315413,2024-06-05 17:20:06.371244
43.41124403,-5.110770226,-9.252745628,1.758425593,2024-06-05 17:20:06.411244
43.45124403,-6.617650032,-7.467999458,2.371586323,2024-06-05 17:20:06.451244
43.49124403,-5.629414558,-6.209075451,1.509272933,2024-06-05 17:20:06.491244
43.53124403,-6.241378784,-7.118348122,2.490031004,2024-06-05 17:20:06.531244
43.57124403,-5.931209087,-6.160022736,1.715055585,2024-06-05 17:20:06.571244
43.61124403,-5.621039391,-6.187540054,1.184447169,2024-06-05 17:20:06.611244
43.65124403,-7.367500782,-8.716156006,2.187039852,2024-06-05 17:20:06.651244
43.69124403,-7.005586624,-8.860920906,1.747657895,2024-06-05 17:20:06.691244
43.73124403,-7.005586624,-8.860920906,1.747657895,2024-06-05 17:20:06.731244
43.77124403,-7.005586624,-8.860920906,1.747657895,2024-06-05 17:20:06.771244
43.81124403,-7.005586624,-8.860920906,1.747657895,2024-06-05 17:20:06.811244
43.85124403,-7.005586624,-8.860920906,1.747657895,2024-06-05 17:20:06.851244
43.89124403,-7.005586624,-8.860920906,1.747657895,2024-06-05 17:20:06.891244
43.93124403,-7.005586624,-8.860920906,1.747657895,2024-06-05 17:20:06.931244
43.97124403,-7.005586624,-8.860920906,1.747657895,2024-06-05 17:20:06.971244
44.01124403,-7.005586624,-8.860920906,1.747657895,2024-06-05 17:20:07.011244
44.05124403,-7.005586624,-8.860920906,1.747657895,2024-06-05 17:20:07.051244
44.09124403,-7.005586624,-8.860920906,1.747657895,2024-06-05 17:20:07.091244
44.13124403,-7.005586624,-8.860920906,1.747657895,2024-06-05 17:20:07.131244
44.17124403,-7.005586624,-8.860920906,1.747657895,2024-06-05 17:20:07.171244
44.21124403,-7.005586624,-8.860920906,1.747657895,2024-06-05 17:20:07.211244
44.25124403,-7.005586624,-8.860920906,1.747657895,2024-06-05 17:20:07.251244
44.29124403,-7.005586624,-8.860920906,1.747657895,2024-06-05 17:20:07.291244
44.33124403,-3.992125511,-3.931108475,2.879462957,2024-06-05 17:20:07.331244
44.37124403,-4.734797955,-3.282952785,3.975375652,2024-06-05 17:20:07.371244
44.41124403,-3.105883837,-2.088934183,3.039782047,2024-06-05 17:20:07.411244
44.45124403,-6.603293419,-2.315355062,3.329612732,2024-06-05 17:20:07.451244
44.49124403,-8.754440308,-2.69850564,3.317648649,2024-06-05 17:20:07.491244
44.53124403,-10.00947666,-3.83270359,3.39212513,2024-06-05 17:20:07.531244
44.57124403,-10.04686451,-5.14785862,3.316452265,2024-06-05 17:20:07.571244
44.61124403,-8.481359482,-5.902495384,2.586043119,2024-06-05 17:20:07.611244
44.65124403,-7.161418915,-6.467799664,2.825624466,2024-06-05 17:20:07.651244
44.69124403,-6.811468601,-4.792225361,2.393121719,2024-06-05 17:20:07.691244
44.73124403,-4.731208801,-3.715455294,1.910369754,2024-06-05 17:20:07.731244
44.77124403,-5.39701128,-5.352744102,2.157129526,2024-06-05 17:20:07.771244
44.81124403,-7.2535429,-7.920841217,2.814856768,2024-06-05 17:20:07.811244
44.85124403,-8.487341881,-9.049057007,1.552343726,2024-06-05 17:20:07.851244
44.89124403,-6.330212116,-6.842874527,1.572682738,2024-06-05 17:20:07.891244
44.93124403,-7.37587595,-10.36780167,0.3508476317,2024-06-05 17:20:07.931244
44.97124403,-9.089735031,-10.49342442,3.074477911,2024-06-05 17:20:07.971244
45.01124403,-5.927619934,-9.634700775,0.8587242365,2024-06-05 17:20:08.011244
45.05124403,-4.854438782,-7.471588612,0.5401797295,2024-06-05 17:20:08.051244
45.09124403,-3.86620307,-7.165008068,1.402493119,2024-06-05 17:20:08.091244
45.13124403,-4.440181732,-7.721937656,1.251745343,2024-06-05 17:20:08.131244
45.17124403,-5.446064472,-8.58784008,0.9269196987,2024-06-05 17:20:08.171244
45.21124403,-6.859624386,-7.896913052,1.880459547,2024-06-05 17:20:08.211244
45.25124403,-8.28126049,-8.638090134,1.834995866,2024-06-05 17:20:08.251244
45.29124403,-6.05713129,-7.154240608,1.731805444,2024-06-05 17:20:08.291244
45.33124403,-6.05713129,-7.154240608,1.731805444,2024-06-05 17:20:08.331244
45.37124403,-6.05713129,-7.154240608,1.731805444,2024-06-05 17:20:08.371244
45.41124403,-6.05713129,-7.154240608,1.731805444,2024-06-05 17:20:08.411244
45.45124403,-6.05713129,-7.154240608,1.731805444,2024-06-05 17:20:08.451244
45.49124403,-6.05713129,-7.154240608,1.731805444,2024-06-05 17:20:08.491244
45.53124403,-6.05713129,-7.154240608,1.731805444,2024-06-05 17:20:08.531244
45.57124403,-6.05713129,-7.154240608,1.731805444,2024-06-05 17:20:08.571244
45.61124403,-6.05713129,-7.154240608,1.731805444,2024-06-05 17:20:08.611244
45.65124403,-6.05713129,-7.154240608,1.731805444,2024-06-05 17:20:08.651244
45.69124403,-6.05713129,-7.154240608,1.731805444,2024-06-05 17:20:08.691244
45.73124403,-6.05713129,-7.154240608,1.731805444,2024-06-05 17:20:08.731244
45.77124403,-6.05713129,-7.154240608,1.731805444,2024-06-05 17:20:08.771244
45.81124403,-6.05713129,-7.154240608,1.731805444,2024-06-05 17:20:08.811244
45.85124403,-6.05713129,-7.154240608,1.731805444,2024-06-05 17:20:08.851244
45.89124403,-6.05713129,-7.154240608,1.731805444,2024-06-05 17:20:08.891244
45.93124403,-6.05713129,-7.154240608,1.731805444,2024-06-05 17:20:08.931244
45.97124403,-6.05713129,-7.154240608,1.731805444,2024-06-05 17:20:08.971244
46.01124403,-5.471189022,-3.400500059,2.873480797,2024-06-05 17:20:09.011244
46.05124403,-5.037788868,-3.410071373,2.224128723,2024-06-05 17:20:09.051244
46.09124403,-6.44985342,-3.339184046,2.838784933,2024-06-05 17:20:09.091244
46.13124403,-7.235596657,-4.035196304,1.793121457,2024-06-05 17:20:09.131244
46.17124403,-7.319345474,-4.281956196,2.976372242,2024-06-05 17:20:09.171244
46.21124403,-10.11745262,-4.987539768,3.763311863,2024-06-05 17:20:09.211244
46.25124403,-8.486145973,-5.879763603,1.898405671,2024-06-05 17:20:09.251244
46.29124403,-6.930212498,-7.115955353,2.196611166,2024-06-05 17:20:09.291244
46.33124403,-7.790132999,-8.844171524,2.090130568,2024-06-05 17:20:09.331244
46.37124403,-5.351547718,-6.633203506,2.029113531,2024-06-05 17:20:09.371244
46.41124403,-5.64616394,-6.906284332,0.8814560175,2024-06-05 17:20:09.411244
46.45124403,-7.237989426,-8.679964066,1.212263823,2024-06-05 17:20:09.451244
46.49124403,-7.371089935,-8.545966148,1.715055585,2024-06-05 17:20:09.491244
46.53124403,-6.372086525,-8.240582466,1.300798178,2024-06-05 17:20:09.531244
46.57124403,-6.722934246,-8.009375572,1.5224334,2024-06-05 17:20:09.571244
46.61124403,-6.104988098,-9.061020851,0.6323033571,2024-06-05 17:20:09.611244
46.65124403,-5.297709465,-8.736495018,0.8479565382,2024-06-05 17:20:09.651244
46.69124403,-5.941977024,-7.526623726,0.8479565382,2024-06-05 17:20:09.691244
46.73124403,-6.913462639,-7.726723194,2.170290232,2024-06-05 17:20:09.731244
46.77124403,-6.588936329,-8.156534195,1.930708766,2024-06-05 17:20:09.771244
46.81124403,-7.258328438,-8.826225281,1.776371717,2024-06-05 17:20:09.811244
46.85124403,-6.895516872,-7.06301403,1.502094388,2024-06-05 17:20:09.851244
46.89124403,-6.180361748,-7.381857872,1.342672586,2024-06-05 17:20:09.891244
46.93124403,-8.989236832,-6.815057755,1.963011861,2024-06-05 17:20:09.931244
46.97124403,-8.989236832,-6.815057755,1.963011861,2024-06-05 17:20:09.971244
47.01124403,-8.989236832,-6.815057755,1.963011861,2024-06-05 17:20:10.011244
47.05124403,-8.989236832,-6.815057755,1.963011861,2024-06-05 17:20:10.051244
47.09124403,-8.989236832,-6.815057755,1.963011861,2024-06-05 17:20:10.091244
47.13124403,-8.989236832,-6.815057755,1.963011861,2024-06-05 17:20:10.131244
47.17124403,-8.989236832,-6.815057755,1.963011861,2024-06-05 17:20:10.171244
47.21124403,-7.41176796,-5.267798901,1.341476202,2024-06-05 17:20:10.211244
47.25124403,-7.41176796,-5.267798901,1.341476202,2024-06-05 17:20:10.251244
47.29124403,-7.41176796,-5.267798901,1.341476202,2024-06-05 17:20:10.291244
47.33124403,-7.41176796,-5.267798901,1.341476202,2024-06-05 17:20:10.331244
47.37124403,-7.41176796,-5.267798901,1.341476202,2024-06-05 17:20:10.371244
47.41124403,-7.41176796,-5.267798901,1.341476202,2024-06-05 17:20:10.411244
47.45124403,-7.41176796,-5.267798901,1.341476202,2024-06-05 17:20:10.451244
47.49124403,-7.41176796,-5.267798901,1.341476202,2024-06-05 17:20:10.491244
47.53124403,-7.41176796,-5.267798901,1.341476202,2024-06-05 17:20:10.531244
47.57124403,-7.41176796,-5.267798901,1.341476202,2024-06-05 17:20:10.571244
47.61124403,-7.41176796,-5.267798901,1.341476202,2024-06-05 17:20:10.611244
47.65124403,-6.173183441,-5.497808933,2.280659199,2024-06-05 17:20:10.651244
47.69124403,-5.726323605,-4.638785839,1.388136268,2024-06-05 17:20:10.691244
47.73124403,-3.81595397,-4.447360039,1.801496387,2024-06-05 17:20:10.731244
47.77124403,-8.761619568,-5.563611984,1.484148264,2024-06-05 17:20:10.771244
47.81124403,-5.967101574,-8.012965202,1.018146038,2024-06-05 17:20:10.811244
47.85124403,-3.490231037,-6.333801746,2.73798728,2024-06-05 17:20:10.851244
47.89124403,-12.90688515,-14.20170116,1.751247048,2024-06-05 17:20:10.891244
47.93124403,-5.288137913,-15.39123344,1.487737536,2024-06-05 17:20:10.931244
47.97124403,-9.450154305,-11.10927773,1.164108157,2024-06-05 17:20:10.971244
48.01124403,-3.793222189,-6.472585201,0.8192426562,2024-06-05 17:20:11.011244
48.05124403,-2.615953445,-4.795814991,1.787139416,2024-06-05 17:20:11.051244
48.09124403,-3.809971809,-4.919044971,0.2778665423,2024-06-05 17:20:11.091244
48.13124403,-4.072285175,-5.939583778,0.2288136631,2024-06-05 17:20:11.131244
48.17124403,-3.889234066,-6.679863453,0.6478567123,2024-06-05 17:20:11.171244
48.21124403,-14.10239983,-12.4301157,4.668695927,2024-06-05 17:20:11.211244
48.25124403,-8.747262001,-10.58943653,1.469492197,2024-06-05 17:20:11.251244
48.29124403,-5.92642355,-10.34746265,2.11046958,2024-06-05 17:20:11.291244
48.33124403,-6.083452702,-6.982854843,-0.4217349887,2024-06-05 17:20:11.331244
48.37124403,-5.566004753,-5.413761139,1.869691849,2024-06-05 17:20:11.371244
48.41124403,-6.131309032,-4.356133461,0.665802896,2024-06-05 17:20:11.411244
48.45124403,-8.070392609,-5.513362408,1.604985833,2024-06-05 17:20:11.451244
48.49124403,-8.785547256,-6.125326633,1.496112347,2024-06-05 17:20:11.491244
48.53124403,-8.330312729,-5.752644539,2.087737799,2024-06-05 17:20:11.531244
48.57124403,-10.00947666,-6.609275341,0.8120641708,2024-06-05 17:20:11.571244
48.61124403,-7.13509798,-6.704988003,1.438385487,2024-06-05 17:20:11.611244
48.65124403,-7.13509798,-6.704988003,1.438385487,2024-06-05 17:20:11.651244
48.69124403,-7.13509798,-6.704988003,1.438385487,2024-06-05 17:20:11.691244
48.73124403,-7.13509798,-6.704988003,1.438385487,2024-06-05 17:20:11.731244
48.77124403,-7.13509798,-6.704988003,1.438385487,2024-06-05 17:20:11.771244
48.81124403,-7.13509798,-6.704988003,1.438385487,2024-06-05 17:20:11.811244
48.85124403,-7.13509798,-6.704988003,1.438385487,2024-06-05 17:20:11.851244
48.89124403,-7.13509798,-6.704988003,1.438385487,2024-06-05 17:20:11.891244
48.93124403,-7.13509798,-6.704988003,1.438385487,2024-06-05 17:20:11.931244
48.97124403,-7.13509798,-6.704988003,1.438385487,2024-06-05 17:20:11.971244
49.01124403,-7.13509798,-6.704988003,1.438385487,2024-06-05 17:20:12.011244
49.05124403,-7.13509798,-6.704988003,1.438385487,2024-06-05 17:20:12.051244
49.09124403,-7.13509798,-6.704988003,1.438385487,2024-06-05 17:20:12.091244
49.13124403,-7.13509798,-6.704988003,1.438385487,2024-06-05 17:20:12.131244
49.17124403,-7.13509798,-6.704988003,1.438385487,2024-06-05 17:20:12.171244
49.21124403,-7.13509798,-6.704988003,1.438385487,2024-06-05 17:20:12.211244
49.25124403,-7.13509798,-6.704988003,1.438385487,2024-06-05 17:20:12.251244
49.29124403,-7.13509798,-6.704988003,1.438385487,2024-06-05 17:20:12.291244
49.33124403,-8.142177582,-9.005986214,1.21704936,2024-06-05 17:20:12.331244
49.37124403,-5.418546677,-8.802297592,0.9583254457,2024-06-05 17:20:12.371244
49.41124403,-5.341976643,-7.628617764,1.461117268,2024-06-05 17:20:12.411244
49.45124403,-5.779264927,-8.155337334,0.9475577474,2024-06-05 17:20:12.451244
49.49124403,-6.078666687,-7.767401218,1.614557028,2024-06-05 17:20:12.491244
49.53124403,-5.000699997,-7.383054256,1.374975681,2024-06-05 17:20:12.531244
49.57124403,-7.209275723,-9.169894218,1.826620936,2024-06-05 17:20:12.571244
49.61124403,-6.306283951,-8.798707962,1.206281662,2024-06-05 17:20:12.611244
49.65124403,-5.277370453,-8.004590034,1.353440285,2024-06-05 17:20:12.651244
49.69124403,-5.594718456,-7.75424099,1.486541033,2024-06-05 17:20:12.691244
49.73124403,-6.191129684,-8.056035995,1.002592683,2024-06-05 17:20:12.731244
49.77124403,-9.07059288,-6.616453648,1.276870012,2024-06-05 17:20:12.771244
49.81124403,-9.267103195,-7.560122967,0.4959124923,2024-06-05 17:20:12.811244
49.85124403,-7.181757927,-6.742076874,0.6646065116,2024-06-05 17:20:12.851244
49.89124403,-8.991629601,-6.055934906,1.901994944,2024-06-05 17:20:12.891244
49.93124403,-8.207082748,-6.944569588,1.044467092,2024-06-05 17:20:12.931244
49.97124403,-7.60678339,-5.817550182,2.390728951,2024-06-05 17:20:12.971244
50.01124403,-7.067800045,-4.789832592,1.171286702,2024-06-05 17:20:13.011244
50.05124403,-6.838088989,-5.448457241,1.681556106,2024-06-05 17:20:13.051244
50.09124403,-6.844070911,-4.67587471,1.747657895,2024-06-05 17:20:13.091244
50.13124403,-5.424529076,-4.91067028,2.100898266,2024-06-05 17:20:13.131244
50.17124403,-4.811367989,-3.489034414,1.438385487,2024-06-05 17:20:13.171244
50.21124403,-4.491627216,-2.442174673,1.887637973,2024-06-05 17:20:13.211244
50.25124403,-6.665506363,-2.880659342,2.456531525,2024-06-05 17:20:13.251244
50.29124403,-6.685845375,-3.328416348,1.991725802,2024-06-05 17:20:13.291244
50.33124403,-6.685845375,-3.328416348,1.991725802,2024-06-05 17:20:13.331244
50.37124403,-6.685845375,-3.328416348,1.991725802,2024-06-05 17:20:13.371244
50.41124403,-6.685845375,-3.328416348,1.991725802,2024-06-05 17:20:13.411244
50.45124403,-6.685845375,-3.328416348,1.991725802,2024-06-05 17:20:13.451244
50.49124403,-6.685845375,-3.328416348,1.991725802,2024-06-05 17:20:13.491244
50.53124403,-6.685845375,-3.328416348,1.991725802,2024-06-05 17:20:13.531244
50.57124403,-6.685845375,-3.328416348,1.991725802,2024-06-05 17:20:13.571244
50.61124403,-6.685845375,-3.328416348,1.991725802,2024-06-05 17:20:13.611244
50.65124403,-6.685845375,-3.328416348,1.991725802,2024-06-05 17:20:13.651244
50.69124403,-6.685845375,-3.328416348,1.991725802,2024-06-05 17:20:13.691244
50.73124403,-6.685845375,-3.328416348,1.991725802,2024-06-05 17:20:13.731244
50.77124403,-6.685845375,-3.328416348,1.991725802,2024-06-05 17:20:13.771244
50.81124403,-6.685845375,-3.328416348,1.991725802,2024-06-05 17:20:13.811244
50.85124403,-6.685845375,-3.328416348,1.991725802,2024-06-05 17:20:13.851244
50.89124403,-6.685845375,-3.328416348,1.991725802,2024-06-05 17:20:13.891244
50.93124403,-6.685845375,-3.328416348,1.991725802,2024-06-05 17:20:13.931244
50.97124403,-5.892923832,-8.180761337,1.664806366,2024-06-05 17:20:13.971244
51.01124403,-6.794719219,-7.794919014,1.287637711,2024-06-05 17:20:14.011244
51.05124403,-4.951647282,-7.72552681,1.384546995,2024-06-05 17:20:14.051244
51.09124403,-6.666703224,-8.117053032,1.639681697,2024-06-05 17:20:14.091244
51.13124403,-8.604590416,-7.625925541,1.374975681,2024-06-05 17:20:14.131244
51.17124403,-8.082356453,-7.582854748,0.5796613097,2024-06-05 17:20:14.171244
51.21124403,-8.669196129,-7.646564007,1.133001566,2024-06-05 17:20:14.211244
51.25124403,-8.330312729,-6.156433582,1.638485312,2024-06-05 17:20:14.251244
51.29124403,-7.662117004,-7.657331467,0.418145746,2024-06-05 17:20:14.291244
51.33124403,-8.242975235,-5.381458282,2.855534792,2024-06-05 17:20:14.331244
51.37124403,-7.657331467,-4.67228508,1.274477124,2024-06-05 17:20:14.371244
51.41124403,-7.371089935,-5.094020367,1.656431437,2024-06-05 17:20:14.411244
51.45124403,-6.26530695,-4.252045631,2.171486616,2024-06-05 17:20:14.451244
51.49124403,-3.927519321,-3.827918053,2.139183521,2024-06-05 17:20:14.491244
51.53124403,-6.712166786,-3.826721668,2.507977247,2024-06-05 17:20:14.531244
51.57124403,-6.049952984,-3.542873144,2.836392164,2024-06-05 17:20:14.571244
51.61124403,-5.430510998,-3.019443035,1.997707844,2024-06-05 17:20:14.611244
51.65124403,-7.308577538,-4.277170658,2.547757864,2024-06-05 17:20:14.651244
51.69124403,-5.362315655,-3.807579041,1.949851394,2024-06-05 17:20:14.691244
51.73124403,-5.34676218,-4.41625309,1.676770449,2024-06-05 17:20:14.731244
51.77124403,-8.542376518,-5.839085579,3.033800125,2024-06-05 17:20:14.771244
51.81124403,-10.02861881,-7.064210415,2.976372242,2024-06-05 17:20:14.811244
51.85124403,-6.660720825,-6.532405853,1.48295188,2024-06-05 17:20:14.851244
51.89124403,-6.116951942,-4.440181732,2.053041935,2024-06-05 17:20:14.891244
51.93124403,-7.973483086,-8.563912392,2.137987137,2024-06-05 17:20:14.931244
51.97124403,-7.973483086,-8.563912392,2.137987137,2024-06-05 17:20:14.971244
52.01124403,-7.973483086,-8.563912392,2.137987137,2024-06-05 17:20:15.011244
52.05124403,-7.973483086,-8.563912392,2.137987137,2024-06-05 17:20:15.051244
52.09124403,-7.973483086,-8.563912392,2.137987137,2024-06-05 17:20:15.091244
52.13124403,-7.973483086,-8.563912392,2.137987137,2024-06-05 17:20:15.131244
52.17124403,-7.973483086,-8.563912392,2.137987137,2024-06-05 17:20:15.171244
52.21124403,-5.947958946,-8.134998322,1.019342422,2024-06-05 17:20:15.211244
52.25124403,-5.947958946,-8.134998322,1.019342422,2024-06-05 17:20:15.251244
52.29124403,-5.947958946,-8.134998322,1.019342422,2024-06-05 17:20:15.291244
52.33124403,-5.947958946,-8.134998322,1.019342422,2024-06-05 17:20:15.331244
52.37124403,-5.947958946,-8.134998322,1.019342422,2024-06-05 17:20:15.371244
52.41124403,-5.947958946,-8.134998322,1.019342422,2024-06-05 17:20:15.411244
52.45124403,-5.947958946,-8.134998322,1.019342422,2024-06-05 17:20:15.451244
52.49124403,-5.947958946,-8.134998322,1.019342422,2024-06-05 17:20:15.491244
52.53124403,-5.947958946,-8.134998322,1.019342422,2024-06-05 17:20:15.531244
52.57124403,-5.947958946,-8.134998322,1.019342422,2024-06-05 17:20:15.571244
52.61124403,-5.991029739,-3.175275564,1.537986755,2024-06-05 17:20:15.611244
52.65124403,-4.602893353,-4.681856632,3.239881754,2024-06-05 17:20:15.651244
52.69124403,-8.815457344,-6.118148327,2.862713099,2024-06-05 17:20:15.691244
52.73124403,-5.404190063,-3.674777269,-0.05383851007,2024-06-05 17:20:15.731244
52.77124403,-9.929316521,-7.307381153,3.495016575,2024-06-05 17:20:15.771244
52.81124403,-6.303891182,-7.93878746,1.648056626,2024-06-05 17:20:15.811244
52.85124403,-4.085445404,-3.728615999,1.492523074,2024-06-05 17:20:15.851244
52.89124403,-1.057627559,-1.371386528,0.9185447693,2024-06-05 17:20:15.891244
52.93124403,-4.171886444,-1.037288666,2.804986238,2024-06-05 17:20:15.931244
52.97124403,-4.273581028,-2.312962294,1.420439363,2024-06-05 17:20:15.971244
53.01124403,-6.659524441,-4.253242016,1.173679471,2024-06-05 17:20:16.011244
53.05124403,-9.396315575,-5.398207664,2.35962224,2024-06-05 17:20:16.051244
53.09124403,-10.86969566,-8.108677864,3.650849104,2024-06-05 17:20:16.091244
53.13124403,-10.72582722,-8.961420059,4.020839214,2024-06-05 17:20:16.131244
53.17124403,-8.238189697,-8.032107353,2.286641121,2024-06-05 17:20:16.171244
53.21124403,-6.61166811,-6.367300987,0.879063189,2024-06-05 17:20:16.211244
53.25124403,-5.357530117,-5.261816978,1.045663476,2024-06-05 17:20:16.251244
53.29124403,-6.42472887,-6.291927338,0.4480560422,2024-06-05 17:20:16.291244
53.33124403,-8.142177582,-8.744869232,0.6936194897,2024-06-05 17:20:16.331244
53.37124403,-8.365009308,-9.304191589,0.7235297561,2024-06-05 17:20:16.371244
53.41124403,-6.392425537,-11.32941723,2.242074728,2024-06-05 17:20:16.411244
53.45124403,-5.59830761,-10.18804073,1.298405409,2024-06-05 17:20:16.451244
53.49124403,-3.853042603,-8.519644737,0.4253242314,2024-06-05 17:20:16.491244
53.53124403,-2.999104023,-7.85234642,0.6598208547,2024-06-05 17:20:16.531244
53.57124403,-5.204090118,-7.676474094,1.361815214,2024-06-05 17:20:16.571244
53.61124403,-5.204090118,-7.676474094,1.361815214,2024-06-05 17:20:16.611244
53.65124403,-5.204090118,-7.676474094,1.361815214,2024-06-05 17:20:16.651244
53.69124403,-5.204090118,-7.676474094,1.361815214,2024-06-05 17:20:16.691244
53.73124403,-5.204090118,-7.676474094,1.361815214,2024-06-05 17:20:16.731244
53.77124403,-5.204090118,-7.676474094,1.361815214,2024-06-05 17:20:16.771244
53.81124403,-5.204090118,-7.676474094,1.361815214,2024-06-05 17:20:16.811244
53.85124403,-5.204090118,-7.676474094,1.361815214,2024-06-05 17:20:16.851244
53.89124403,-5.204090118,-7.676474094,1.361815214,2024-06-05 17:20:16.891244
53.93124403,-5.204090118,-7.676474094,1.361815214,2024-06-05 17:20:16.931244
53.97124403,-5.204090118,-7.676474094,1.361815214,2024-06-05 17:20:16.971244
54.01124403,-5.204090118,-7.676474094,1.361815214,2024-06-05 17:20:17.011244
54.05124403,-5.204090118,-7.676474094,1.361815214,2024-06-05 17:20:17.051244
54.09124403,-5.204090118,-7.676474094,1.361815214,2024-06-05 17:20:17.091244
54.13124403,-5.204090118,-7.676474094,1.361815214,2024-06-05 17:20:17.131244
54.17124403,-5.204090118,-7.676474094,1.361815214,2024-06-05 17:20:17.171244
54.21124403,-5.204090118,-7.676474094,1.361815214,2024-06-05 17:20:17.211244
54.25124403,-5.204090118,-7.676474094,1.361815214,2024-06-05 17:20:17.251244
54.29124403,-6.076273918,-3.689134359,2.063809633,2024-06-05 17:20:17.291244
54.33124403,-5.781657696,-3.701098442,2.850749016,2024-06-05 17:20:17.331244
54.37124403,-6.075077534,-4.427021027,2.432603359,2024-06-05 17:20:17.371244
54.41124403,-9.374779701,-6.425925255,3.099901676,2024-06-05 17:20:17.411244
54.45124403,-8.902795792,-6.817451,2.666202545,2024-06-05 17:20:17.451244
54.49124403,-6.736094952,-6.236593246,1.03848505,2024-06-05 17:20:17.491244
54.53124403,-8.241778374,-8.956634521,1.688734531,2024-06-05 17:20:17.531244
54.57124403,-6.912266254,-8.062017441,1.379761338,2024-06-05 17:20:17.571244
54.61124403,-6.167201042,-7.117151737,0.879063189,2024-06-05 17:20:17.611244
54.65124403,-7.153044224,-7.646564007,1.406082392,2024-06-05 17:20:17.651244
54.69124403,-6.532405853,-9.232108116,1.232602715,2024-06-05 17:20:17.691244
54.73124403,-6.018547058,-7.847560883,1.1820544,2024-06-05 17:20:17.731244
54.77124403,-7.285845757,-9.64068222,0.8060821295,2024-06-05 17:20:17.771244
54.81124403,-5.642574787,-9.178269386,0.3053839803,2024-06-05 17:20:17.811244
54.85124403,-4.728815556,-9.736394882,1.234995604,2024-06-05 17:20:17.851244
54.89124403,-4.41625309,-8.810671806,1.140179992,2024-06-05 17:20:17.891244
54.93124403,-5.189733028,-7.753044605,0.7390831113,2024-06-05 17:20:17.931244
54.97124403,-6.026024818,-7.251150131,1.192822099,2024-06-05 17:20:17.971244
55.01124403,-5.631807327,-7.061817646,0.5748756528,2024-06-05 17:20:18.011244
55.05124403,-6.273681641,-7.636992455,-0.294616282,2024-06-05 17:20:18.051244
55.09124403,-7.977072716,-7.351648331,0.6299105883,2024-06-05 17:20:18.091244
55.13124403,-10.31276608,-9.555737495,0.7067800164,2024-06-05 17:20:18.131244
55.17124403,-7.999804497,-7.591229916,0.8096713424,2024-06-05 17:20:18.171244
55.21124403,-7.269095898,-6.478567123,1.32113719,2024-06-05 17:20:18.211244
55.25124403,-6.267699718,-6.157629967,1.479362607,2024-06-05 17:20:18.251244
55.29124403,-6.267699718,-6.157629967,1.479362607,2024-06-05 17:20:18.291244
55.33124403,-6.267699718,-6.157629967,1.479362607,2024-06-05 17:20:18.331244
55.37124403,-6.267699718,-6.157629967,1.479362607,2024-06-05 17:20:18.371244
55.41124403,-6.267699718,-6.157629967,1.479362607,2024-06-05 17:20:18.411244
55.45124403,-6.267699718,-6.157629967,1.479362607,2024-06-05 17:20:18.451244
55.49124403,-6.267699718,-6.157629967,1.479362607,2024-06-05 17:20:18.491244
55.53124403,-6.267699718,-6.157629967,1.479362607,2024-06-05 17:20:18.531244
55.57124403,-6.267699718,-6.157629967,1.479362607,2024-06-05 17:20:18.571244
55.61124403,-6.267699718,-6.157629967,1.479362607,2024-06-05 17:20:18.611244
55.65124403,-6.267699718,-6.157629967,1.479362607,2024-06-05 17:20:18.651244
55.69124403,-6.267699718,-6.157629967,1.479362607,2024-06-05 17:20:18.691244
55.73124403,-6.267699718,-6.157629967,1.479362607,2024-06-05 17:20:18.731244
55.77124403,-6.267699718,-6.157629967,1.479362607,2024-06-05 17:20:18.771244
55.81124403,-6.267699718,-6.157629967,1.479362607,2024-06-05 17:20:18.811244
55.85124403,-6.267699718,-6.157629967,1.479362607,2024-06-05 17:20:18.851244
55.89124403,-6.267699718,-6.157629967,1.479362607,2024-06-05 17:20:18.891244
55.93124403,-6.531209469,-9.291030884,0.06221338734,2024-06-05 17:20:18.931244
55.97124403,-7.14945507,-7.723134041,1.441974759,2024-06-05 17:20:18.971244
56.01124403,-6.726523399,-7.761419296,1.547558069,2024-06-05 17:20:19.011244
56.05124403,-6.37687254,-9.209376335,1.625324726,2024-06-05 17:20:19.051244
56.09124403,-6.382854462,-7.785347462,1.196411371,2024-06-05 17:20:19.091244
56.13124403,-5.874977589,-9.505488396,1.142572761,2024-06-05 17:20:19.131244
56.17124403,-6.364908218,-10.41446114,1.378564954,2024-06-05 17:20:19.171244
56.21124403,-6.143272877,-6.90030241,0.7893323898,2024-06-05 17:20:19.211244
56.25124403,-3.430410385,-6.978068829,0.7618148923,2024-06-05 17:20:19.251244
56.29124403,-6.217450619,-8.100302696,0.3197409213,2024-06-05 17:20:19.291244
56.33124403,-9.786943436,-7.98903656,1.16769743,2024-06-05 17:20:19.331244
56.37124403,-9.745966911,-7.29302454,-0.6720840335,2024-06-05 17:20:19.371244
56.41124403,-8.142177582,-9.220144272,0.4229314029,2024-06-05 17:20:19.411244
56.45124403,-7.9782691,-7.216454029,1.143769264,2024-06-05 17:20:19.451244
56.49124403,-7.721937656,-7.180561543,0.9619147182,2024-06-05 17:20:19.491244
56.53124403,-6.728916168,-6.640381813,1.533201098,2024-06-05 17:20:19.531244
56.57124403,-7.500302792,-7.196115017,0.9619147182,2024-06-05 17:20:19.571244
56.61124403,-4.700101852,-3.878167391,0.4097708762,2024-06-05 17:20:19.611244
56.65124403,-2.963211775,-2.69850564,1.976172447,2024-06-05 17:20:19.651244
56.69124403,-5.585147381,-4.219742775,2.199003935,2024-06-05 17:20:19.691244
56.73124403,-7.496713161,-4.807778835,2.973979473,2024-06-05 17:20:19.731244
56.77124403,-4.947759151,-1.891227245,2.048256159,2024-06-05 17:20:19.771244
56.81124403,-5.4652071,-3.052942514,1.640878081,2024-06-05 17:20:19.811244
56.85124403,-6.177968979,-5.169394016,2.184647083,2024-06-05 17:20:19.851244
56.89124403,-6.288038731,-4.588536739,1.866102576,2024-06-05 17:20:19.891244
56.93124403,-8.538787842,-6.016154289,1.585843205,2024-06-05 17:20:19.931244
56.97124403,-8.538787842,-6.016154289,1.585843205,2024-06-05 17:20:19.971244
57.01124403,-8.538787842,-6.016154289,1.585843205,2024-06-05 17:20:20.011244
57.05124403,-8.538787842,-6.016154289,1.585843205,2024-06-05 17:20:20.051244
57.09124403,-8.538787842,-6.016154289,1.585843205,2024-06-05 17:20:20.091244
57.13124403,-8.538787842,-6.016154289,1.585843205,2024-06-05 17:20:20.131244
57.17124403,-8.538787842,-6.016154289,1.585843205,2024-06-05 17:20:20.171244
57.21124403,-6.799504757,-9.594022751,1.008574724,2024-06-05 17:20:20.211244
57.25124403,-6.799504757,-9.594022751,1.008574724,2024-06-05 17:20:20.251244
57.29124403,-6.799504757,-9.594022751,1.008574724,2024-06-05 17:20:20.291244
57.33124403,-6.799504757,-9.594022751,1.008574724,2024-06-05 17:20:20.331244
57.37124403,-6.799504757,-9.594022751,1.008574724,2024-06-05 17:20:20.371244
57.41124403,-6.799504757,-9.594022751,1.008574724,2024-06-05 17:20:20.411244
57.45124403,-6.799504757,-9.594022751,1.008574724,2024-06-05 17:20:20.451244
57.49124403,-6.799504757,-9.594022751,1.008574724,2024-06-05 17:20:20.491244
57.53124403,-6.799504757,-9.594022751,1.008574724,2024-06-05 17:20:20.531244
57.57124403,-6.799504757,-9.594022751,1.008574724,2024-06-05 17:20:20.571244
57.61124403,-5.356333256,-7.161418915,0.2024926096,2024-06-05 17:20:20.611244
57.65124403,-5.839085579,-8.372187614,-1.435992718,2024-06-05 17:20:20.651244
57.69124403,-10.49820995,-7.546962738,2.560918331,2024-06-05 17:20:20.691244
57.73124403,-9.061020851,-6.063113689,1.675574064,2024-06-05 17:20:20.731244
57.77124403,-6.999604225,-6.666703224,0.2551347017,2024-06-05 17:20:20.771244
57.81124403,-7.0151577,-5.355136871,0.6107679605,2024-06-05 17:20:20.811244
57.85124403,-6.804290295,-3.768097401,-0.2754737139,2024-06-05 17:20:20.851244
57.89124403,-7.520641804,-5.246263504,0.699601531,2024-06-05 17:20:20.891244
57.93124403,-4.128516197,-4.090231419,2.60279274,2024-06-05 17:20:20.931244
57.97124403,-7.699205875,-3.695116282,2.063809633,2024-06-05 17:20:20.971244
58.01124403,-4.877170563,-4.071088791,2.761915445,2024-06-05 17:20:21.011244
58.05124403,-4.43061018,-1.922333837,2.147558212,2024-06-05 17:20:21.051244
58.09124403,-4.031607151,-2.566900492,2.748754978,2024-06-05 17:20:21.091244
58.13124403,-7.209275723,-5.369493961,2.283051968,2024-06-05 17:20:21.131244
58.17124403,-8.408080101,-6.697809696,2.764308453,2024-06-05 17:20:21.171244
58.21124403,-8.627322197,-5.83669281,3.381357431,2024-06-05 17:20:21.211244
58.25124403,-9.134002686,-7.420143127,2.090130568,2024-06-05 17:20:21.251244
58.29124403,-7.242774963,-8.584251404,1.862513304,2024-06-05 17:20:21.291244
58.33124403,-6.374479294,-7.799704552,0.3747758567,2024-06-05 17:20:21.331244
58.37124403,-5.49421978,-6.480959892,0.5330012441,2024-06-05 17:20:21.371244
58.41124403,-5.407779217,-6.962515831,1.349851131,2024-06-05 17:20:21.411244
58.45124403,-6.278467655,-8.235795975,0.7462615371,2024-06-05 17:20:21.451244
58.49124403,-7.60319376,-10.07318497,0.9451649189,2024-06-05 17:20:21.491244
58.53124403,-8.429615021,-8.446663857,1.118644595,2024-06-05 17:20:21.531244
58.57124403,-6.61166811,-8.8034935,1.480558991,2024-06-05 17:20:21.571244
58.61124403,-6.61166811,-8.8034935,1.480558991,2024-06-05 17:20:21.611244
58.65124403,-6.61166811,-8.8034935,1.480558991,2024-06-05 17:20:21.651244
58.69124403,-6.61166811,-8.8034935,1.480558991,2024-06-05 17:20:21.691244
58.73124403,-6.61166811,-8.8034935,1.480558991,2024-06-05 17:20:21.731244
58.77124403,-6.61166811,-8.8034935,1.480558991,2024-06-05 17:20:21.771244
58.81124403,-6.61166811,-8.8034935,1.480558991,2024-06-05 17:20:21.811244
58.85124403,-6.61166811,-8.8034935,1.480558991,2024-06-05 17:20:21.851244
58.89124403,-6.61166811,-8.8034935,1.480558991,2024-06-05 17:20:21.891244
58.93124403,-6.61166811,-8.8034935,1.480558991,2024-06-05 17:20:21.931244
58.97124403,-6.61166811,-8.8034935,1.480558991,2024-06-05 17:20:21.971244
59.01124403,-6.61166811,-8.8034935,1.480558991,2024-06-05 17:20:22.011244
59.05124403,-6.61166811,-8.8034935,1.480558991,2024-06-05 17:20:22.051244
59.09124403,-6.61166811,-8.8034935,1.480558991,2024-06-05 17:20:22.091244
59.13124403,-6.61166811,-8.8034935,1.480558991,2024-06-05 17:20:22.131244
59.17124403,-6.61166811,-8.8034935,1.480558991,2024-06-05 17:20:22.171244
59.21124403,-6.61166811,-8.8034935,1.480558991,2024-06-05 17:20:22.211244
59.25124403,-7.027122021,-3.928715706,2.705684185,2024-06-05 17:20:22.251244
59.29124403,-6.373282909,-3.037389278,2.387139797,2024-06-05 17:20:22.291244
59.33124403,-6.185147285,-4.707280159,2.418246269,2024-06-05 17:20:22.331244
59.37124403,-4.745565414,-4.102195263,2.507977247,2024-06-05 17:20:22.371244
59.41124403,-8.644071579,-5.107180595,3.108276606,2024-06-05 17:20:22.411244
59.45124403,-8.845368385,-7.242774963,3.01226449,2024-06-05 17:20:22.451244
59.49124403,-7.693223953,-6.091827393,2.123630047,2024-06-05 17:20:22.491244
59.53124403,-8.8034935,-9.955637932,2.644667149,2024-06-05 17:20:22.531244
59.57124403,-7.048657417,-9.602396965,1.893620014,2024-06-05 17:20:22.571244
59.61124403,-5.955137253,-7.702795029,1.715055585,2024-06-05 17:20:22.611244
59.65124403,-5.480760098,-8.595019341,0.5282155871,2024-06-05 17:20:22.651244
59.69124403,-6.39601469,-9.391530037,0.9221340418,2024-06-05 17:20:22.691244
59.73124403,-5.99940443,-5.868995667,1.719841242,2024-06-05 17:20:22.731244
59.77124403,-7.569694519,-9.004789352,1.413260818,2024-06-05 17:20:22.771244
59.81124403,-5.180161953,-9.755537987,0.1184447184,2024-06-05 17:20:22.811244
59.85124403,-4.811367989,-7.887042522,1.616949916,2024-06-05 17:20:22.851244
59.89124403,-6.118148327,-10.33789158,0.8335995674,2024-06-05 17:20:22.891244
59.93124403,-8.199904442,-9.186644554,1.346261859,2024-06-05 17:20:22.931244
59.97124403,-5.364708424,-6.336194515,0.6035895348,2024-06-05 17:20:22.971244
60.01124403,-5.139483929,-6.942176819,1.020538807,2024-06-05 17:20:23.011244
60.05124403,-9.85633564,-8.614161491,0.1486541033,2024-06-05 17:20:23.051244
60.09124403,-9.049057007,-8.030911446,0.1462612897,2024-06-05 17:20:23.091244
60.13124403,-9.189037323,-8.418847084,0.5102694035,2024-06-05 17:20:23.131244
60.17124403,-9.098110199,-7.099205494,1.43359983,2024-06-05 17:20:23.171244
60.21124403,-6.058327675,-5.606682777,0.8120641708,2024-06-05 17:20:23.211244
60.25124403,-6.058327675,-5.606682777,0.8120641708,2024-06-05 17:20:23.251244
60.29124403,-6.058327675,-5.606682777,0.8120641708,2024-06-05 17:20:23.291244
60.33124403,-6.058327675,-5.606682777,0.8120641708,2024-06-05 17:20:23.331244
60.37124403,-6.058327675,-5.606682777,0.8120641708,2024-06-05 17:20:23.371244
60.41124403,-6.058327675,-5.606682777,0.8120641708,2024-06-05 17:20:23.411244
60.45124403,-6.058327675,-5.606682777,0.8120641708,2024-06-05 17:20:23.451244
60.49124403,-6.058327675,-5.606682777,0.8120641708,2024-06-05 17:20:23.491244
60.53124403,-6.058327675,-5.606682777,0.8120641708,2024-06-05 17:20:23.531244
60.57124403,-6.058327675,-5.606682777,0.8120641708,2024-06-05 17:20:23.571244
60.61124403,-6.058327675,-5.606682777,0.8120641708,2024-06-05 17:20:23.611244
60.65124403,-6.058327675,-5.606682777,0.8120641708,2024-06-05 17:20:23.651244
60.69124403,-6.058327675,-5.606682777,0.8120641708,2024-06-05 17:20:23.691244
60.73124403,-6.058327675,-5.606682777,0.8120641708,2024-06-05 17:20:23.731244
60.77124403,-6.058327675,-5.606682777,0.8120641708,2024-06-05 17:20:23.771244
60.81124403,-6.058327675,-5.606682777,0.8120641708,2024-06-05 17:20:23.811244
60.85124403,-6.058327675,-5.606682777,0.8120641708,2024-06-05 17:20:23.851244
60.89124403,-8.51844883,-9.050253868,1.073180914,2024-06-05 17:20:23.891244
60.93124403,-5.658128262,-9.966405869,0.4301098585,2024-06-05 17:20:23.931244
60.97124403,-6.385247231,-6.829713821,1.164108157,2024-06-05 17:20:23.971244
61.01124403,-5.003093243,-8.838189125,0.5270192027,2024-06-05 17:20:24.011244
61.05124403,-6.069095612,-10.11745262,0.752243638,2024-06-05 17:20:24.051244
61.09124403,-5.604289532,-10.75334454,0.3963112533,2024-06-05 17:20:24.091244
61.13124403,-6.336194515,-6.079863071,1.075573802,2024-06-05 17:20:24.131244
61.17124403,-11.08385372,-7.550551891,1.019342422,2024-06-05 17:20:24.171244
61.21124403,-5.763711452,-6.704988003,0.7701897621,2024-06-05 17:20:24.211244
61.25124403,-5.387440205,-6.985247612,-0.03469592705,2024-06-05 17:20:24.251244
61.29124403,-6.158826351,-6.799504757,1.821835399,2024-06-05 17:20:24.291244
61.33124403,-14.26152229,-15.1971159,0.5916253924,2024-06-05 17:20:24.331244
61.37124403,-8.61296463,-10.2347002,-0.4827519655,2024-06-05 17:20:24.371244
61.41124403,-8.714959145,-7.036693096,0.584446907,2024-06-05 17:20:24.411244
61.45124403,-6.78873682,-2.98713994,2.421835661,2024-06-05 17:20:24.451244
61.49124403,2.248056889,1.313958764,0.171385929,2024-06-05 17:20:24.491244
61.53124403,-5.350351334,-1.303191066,1.503290772,2024-06-05 17:20:24.531244
61.57124403,-19.24547195,-13.28913879,6.002993584,2024-06-05 17:20:24.571244
61.61124403,-1.741675735,3.702294827,-1.8840487,2024-06-05 17:20:24.611244
61.65124403,-5.110770226,-4.063910007,2.710469961,2024-06-05 17:20:24.651244
61.69124403,-13.79821205,-15.8246336,3.741776466,2024-06-05 17:20:24.691244
61.73124403,-0.5114658475,-0.5042873621,0.195314154,2024-06-05 17:20:24.731244
61.77124403,1.869691849,0.804885745,-1.124626637,2024-06-05 17:20:24.771244
61.81124403,-0.8228318691,-1.236191988,0.8276175261,2024-06-05 17:20:24.811244
61.85124403,-10.96062279,-9.570094109,3.418446302,2024-06-05 17:20:24.851244
61.89124403,-10.96062279,-9.570094109,3.418446302,2024-06-05 17:20:24.891244
61.93124403,-10.96062279,-9.570094109,3.418446302,2024-06-05 17:20:24.931244
61.97124403,-10.96062279,-9.570094109,3.418446302,2024-06-05 17:20:24.971244
62.01124403,-10.96062279,-9.570094109,3.418446302,2024-06-05 17:20:25.011244
62.05124403,-10.96062279,-9.570094109,3.418446302,2024-06-05 17:20:25.051244
62.09124403,-10.96062279,-9.570094109,3.418446302,2024-06-05 17:20:25.091244
62.13124403,-10.96062279,-9.570094109,3.418446302,2024-06-05 17:20:25.131244
62.17124403,-10.96062279,-9.570094109,3.418446302,2024-06-05 17:20:25.171244
62.21124403,-5.670092583,-7.384250641,0.9439685345,2024-06-05 17:20:25.211244
62.25124403,-5.670092583,-7.384250641,0.9439685345,2024-06-05 17:20:25.251244
62.29124403,-5.670092583,-7.384250641,0.9439685345,2024-06-05 17:20:25.291244
62.33124403,-5.670092583,-7.384250641,0.9439685345,2024-06-05 17:20:25.331244
62.37124403,-5.670092583,-7.384250641,0.9439685345,2024-06-05 17:20:25.371244
62.41124403,-5.670092583,-7.384250641,0.9439685345,2024-06-05 17:20:25.411244
62.45124403,-5.670092583,-7.384250641,0.9439685345,2024-06-05 17:20:25.451244
