Time (s),Gyroscope x (rad/s),Gyroscope y (rad/s),Gyroscope z (rad/s),Datetime
0.011957829,0.2809551954,-0.6015903354,0.079493016,2024-06-05 17:19:23.011958
0.052388142,-0.09174319357,-0.6687000394,0.04434032366,2024-06-05 17:19:23.052388
0.092876996,-0.499594301,-0.6495258212,0.1221023351,2024-06-05 17:19:23.092877
0.177954027,-1.257374406,0.01957365684,0.7938649058,2024-06-05 17:19:23.177954
0.218447152,-1.109040737,0.2492645234,0.9838758707,2024-06-05 17:19:23.218447
0.258922777,-0.5491276383,0.2713681161,1.384669781,2024-06-05 17:19:23.258923
0.299413298,0.1525946259,0.7259563208,1.402778745,2024-06-05 17:19:23.299413
0.339911267,-0.7195649147,0.8090444803,1.700111866,2024-06-05 17:19:23.339911
0.380381319,-1.547650456,0.6681674123,1.674546361,2024-06-05 17:19:23.380381
0.420889496,-1.695850968,0.1055912226,0.8348763585,2024-06-05 17:19:23.420889
0.461362048,-1.330875516,-0.414375633,0.2150439173,2024-06-05 17:19:23.461362
0.501857933,-0.7262226343,-0.05499265343,0.3856143653,2024-06-05 17:19:23.501858
0.5423571,-0.3404751122,-0.5765573978,-0.171901986,2024-06-05 17:19:23.542357
0.582828142,0.5360785127,-0.8010552526,-0.4178376496,2024-06-05 17:19:23.582828
0.623310902,0.3073197305,-1.106377602,-0.6537867785,2024-06-05 17:19:23.623311
0.663805069,-0.1924077123,-1.228080511,-0.8215609789,2024-06-05 17:19:23.663805
0.704306162,0.03129122034,-0.9616391063,-0.74592942,2024-06-05 17:19:23.704306
0.744790485,0.4926702678,-1.583602071,-0.6045197248,2024-06-05 17:19:23.744790
0.785292673,0.4734960794,-0.6109111309,-0.4497946501,2024-06-05 17:19:23.785293
0.825790537,0.537676394,-0.4830831885,-0.1969349533,2024-06-05 17:19:23.825791
0.866274235,0.03342168778,-0.28241992,-0.3515268862,2024-06-05 17:19:23.866274
0.906778246,-0.3777582645,-0.5973294377,-0.2097177505,2024-06-05 17:19:23.906778
0.947244287,-0.5856118798,-0.623693943,-0.1343525201,2024-06-05 17:19:23.947244
0.987738194,0.06937330216,-0.47056669,-0.1788259894,2024-06-05 17:19:23.987738
1.028228558,0.2684387267,-0.4942681193,-0.1846847683,2024-06-05 17:19:24.028229
1.068745589,-0.05925358832,-0.5549864173,0.028361829,2024-06-05 17:19:24.068746
1.109302048,-0.5680354834,-1.160171866,-0.01611164957,2024-06-05 17:19:24.109302
1.149679027,-0.02889444493,-0.162847504,-0.1143793985,2024-06-05 17:19:24.149679
1.190183506,0.4450010955,0.5970631242,-0.05046541616,2024-06-05 17:19:24.190184
1.230659183,-0.6364767551,1.161769748,0.1734998226,2024-06-05 17:19:24.230659
1.271153714,-1.379609942,1.856168509,0.1106510833,2024-06-05 17:19:24.271154
1.311639444,-1.081344724,3.215938568,-0.3462007344,2024-06-05 17:19:24.311639
1.352117621,-0.718765974,3.238841057,-0.6894720793,2024-06-05 17:19:24.352118
1.392612308,-1.615558982,3.385443687,-0.565638721,2024-06-05 17:19:24.392612
1.433107152,-2.891441822,3.305284977,-0.2105166763,2024-06-05 17:19:24.433107
1.473595642,-2.514882088,1.030479789,0.04354140162,2024-06-05 17:19:24.473596
1.514078246,-1.87560904,1.887859225,0.3605813682,2024-06-05 17:19:24.514078
1.554561475,-2.012491465,1.578941703,0.7584459186,2024-06-05 17:19:24.554561
1.595046214,-1.705970645,1.147655487,0.9003882408,2024-06-05 17:19:24.595046
1.635538298,-1.78506422,1.258972287,1.363631368,2024-06-05 17:19:24.635538
1.676012256,-1.583868384,0.3296896219,1.452844739,2024-06-05 17:19:24.676012
1.716558037,-1.310636044,1.202514887,0.8782846332,2024-06-05 17:19:24.716558
1.757042308,0.4199681282,1.437798262,0.2033263594,2024-06-05 17:19:24.757042
1.797537777,0.5464645624,1.430741072,0.3159747422,2024-06-05 17:19:24.797538
1.838007777,-0.2054568231,-0.03102491237,0.3151758313,2024-06-05 17:19:24.838008
1.878508506,0.003328853287,-0.2770937383,-0.7355434299,2024-06-05 17:19:24.878509
1.919002048,0.4412727654,-0.6790860295,-1.480540752,2024-06-05 17:19:24.919002
1.959468923,0.6130415797,-0.3532578945,-1.839657426,2024-06-05 17:19:24.959469
1.999965173,0.5648398399,0.4772244096,-0.538475275,2024-06-05 17:19:24.999965
2.040458662,0.2849498391,-1.096790552,-1.473084092,2024-06-05 17:19:25.040459
2.0809221,0.3845491111,-0.1364829838,-1.638594747,2024-06-05 17:19:25.080922
2.121398871,0.5659050345,0.3600487709,-2.073209763,2024-06-05 17:19:25.121399
2.161932204,0.9985228181,0.4029243886,-1.768286824,2024-06-05 17:19:25.161932
2.202408089,0.6665695906,0.1511299312,-1.029680848,2024-06-05 17:19:25.202408
2.242890589,0.5046541691,0.3664401472,-0.4676373005,2024-06-05 17:19:25.242891
2.283375433,0.1792254597,-0.1130478531,0.04274247587,2024-06-05 17:19:25.283375
2.32385835,0.02596505545,-0.2621804774,-0.4604469836,2024-06-05 17:19:25.323858
2.364346214,0.03901416063,0.04380770773,-0.005725627299,2024-06-05 17:19:25.364346
2.404860746,0.01691057347,0.3046566546,-0.0355521515,2024-06-05 17:19:25.404861
2.44534335,-0.03768261895,0.2147776037,0.05845466256,2024-06-05 17:19:25.445343
2.485842256,0.1274285018,0.04220985994,0.2422073632,2024-06-05 17:19:25.485842
2.526306735,-0.02410089783,-0.1378145218,0.2014621943,2024-06-05 17:19:25.526307
2.566805954,-0.08242240548,-0.04620448127,0.2422073632,2024-06-05 17:19:25.566806
2.607289027,-0.08801487833,0.1535267085,0.259783715,2024-06-05 17:19:25.607289
2.647760225,-0.09360735118,-0.02356828004,0.2624467909,2024-06-05 17:19:25.647760
2.688270277,0.1111836955,-0.2371474952,0.2065220475,2024-06-05 17:19:25.688270
2.728758246,0.3027924895,-0.06884068251,-0.04513924941,2024-06-05 17:19:25.728758
2.769254964,0.4639089704,-0.0467370972,-0.118640326,2024-06-05 17:19:25.769255
2.809739496,0.7129071951,-0.5347470045,0.7286193967,2024-06-05 17:19:25.809739
2.850225381,0.9106410742,0.03049229458,-0.4090494812,2024-06-05 17:19:25.850225
2.890698454,0.6750914454,0.03315537795,-1.678540945,2024-06-05 17:19:25.890698
2.931203714,2.440315723,-0.8945294023,-2.629927158,2024-06-05 17:19:25.931204
2.971701371,1.263765812,-0.2581858635,-1.787727356,2024-06-05 17:19:25.971701
3.012156892,0.6798849702,-0.4484631121,-0.6101121902,2024-06-05 17:19:26.012157
3.052662569,-1.131144285,-1.277613878,0.1862826198,2024-06-05 17:19:26.052663
3.09313486,0.4809527099,0.02276935615,0.01451379992,2024-06-05 17:19:26.093135
3.133674183,-0.2744306624,-0.5669702888,-0.06404713541,2024-06-05 17:19:26.133674
3.1741271,-0.06431344151,-0.003595161485,-0.05525896326,2024-06-05 17:19:26.174127
3.214617048,-0.0352858454,-0.1311568171,0.03821523488,2024-06-05 17:19:26.214617
3.255133089,-0.1386134475,-0.03901416063,0.03874785081,2024-06-05 17:19:26.255133
3.295603714,-0.1221023351,-0.01797580719,0.0544600375,2024-06-05 17:19:26.295604
3.33607736,-0.04220985994,-0.03981308267,0.02410089783,2024-06-05 17:19:26.336077
3.376578142,0.2495308369,-0.04407401755,-0.01637795754,2024-06-05 17:19:26.376578
3.417115277,-0.08162347972,-0.03901416063,0.0954715088,2024-06-05 17:19:26.417115
3.457542517,-0.04247616604,0.04540555924,0.339276731,2024-06-05 17:19:26.457543
3.498044235,-0.0954715088,0.02143781446,0.4055874646,2024-06-05 17:19:26.498044
3.538530954,-0.0954715088,-0.01158440951,0.3507279754,2024-06-05 17:19:26.538531
3.579026944,0.1199718714,-0.09227581322,0.08082455397,2024-06-05 17:19:26.579027
3.619534339,0.3533910513,-0.1420754492,0.02143781446,2024-06-05 17:19:26.619534
3.660002308,-0.0006657706108,-0.05579157919,-0.09174319357,2024-06-05 17:19:26.660002
3.700501319,0.028361829,0.03075860441,-0.1886793971,2024-06-05 17:19:26.700501
3.740989131,0.1976007223,-0.1031944528,-0.2145113051,2024-06-05 17:19:26.740989
3.781504912,0.1573881805,-0.1846847683,-0.2131797522,2024-06-05 17:19:26.781505
3.821991579,0.2729659677,-0.230756104,-0.2801562846,2024-06-05 17:19:26.821992
3.862461944,0.2077204436,-0.3841496706,-0.3491301239,2024-06-05 17:19:26.862462
3.902937204,0.1101184636,-0.1945381761,-0.3350157738,2024-06-05 17:19:26.902937
3.943427881,0.1058575287,-0.3583177626,-0.339276731,2024-06-05 17:19:26.943428
3.983933246,0.03821523488,-0.4955996573,-0.3624455333,2024-06-05 17:19:26.983933
4.024451683,-0.04434032366,-0.4529903531,-0.4079842567,2024-06-05 17:19:27.024452
4.064911267,-0.1540593207,-0.4197018147,-0.467903614,2024-06-05 17:19:27.064911
4.105417308,-0.1774944514,-0.2691044807,-0.4282236695,2024-06-05 17:19:27.105417
4.145889756,-0.09174319357,-0.07922670245,-0.3113143444,2024-06-05 17:19:27.145890
4.186346058,-0.1782933772,-0.3005288541,-0.1708367467,2024-06-05 17:19:27.186346
4.226835433,-0.2509955168,-0.3207682967,-0.1543256342,2024-06-05 17:19:27.226835
4.267340954,-0.2451367527,-0.09307473898,-0.06591129303,2024-06-05 17:19:27.267341
4.307828142,-0.3282249272,-0.2310224175,-0.08242240548,2024-06-05 17:19:27.307828
4.348310589,-0.3636439145,-0.2983984053,-0.2102503628,2024-06-05 17:19:27.348311
4.388801839,-0.3266270757,-0.2038589716,-0.2653761804,2024-06-05 17:19:27.388802
4.429308975,-0.4549876451,-0.127961114,-0.2089188248,2024-06-05 17:19:27.429309
4.469808089,-0.6338136196,-0.02489982173,-0.2065220475,2024-06-05 17:19:27.469808
4.510282621,-0.7920007706,0.4695014656,-0.1830869317,2024-06-05 17:19:27.510283
4.550781735,-0.8300828338,1.063768387,-0.1063901484,2024-06-05 17:19:27.550782
4.591293923,-0.5770899653,1.420355082,-0.3829512596,2024-06-05 17:19:27.591294
4.631774392,-0.3870790601,1.386001348,-0.217174381,2024-06-05 17:19:27.631774
4.672256944,-0.648194313,0.8226261735,0.1125152409,2024-06-05 17:19:27.672257
4.712744808,-0.9115731716,0.3715000153,0.2805557549,2024-06-05 17:19:27.712745
4.753231162,-0.9161003828,0.05366111174,0.1087869257,2024-06-05 17:19:27.753231
4.793702985,-0.9328778386,-0.08881380409,0.06138405204,2024-06-05 17:19:27.793703
4.834202985,-1.001052737,-0.3053224087,-0.1002650559,2024-06-05 17:19:27.834203
4.874714964,-1.08773613,-0.2770937383,-0.1822880059,2024-06-05 17:19:27.874715
4.915188246,-1.217694521,-0.1356840581,-0.09174319357,2024-06-05 17:19:27.915188
4.95566736,-1.047124028,0.01744319126,-0.2070546746,2024-06-05 17:19:27.955667
4.99615585,-0.6391398311,-0.1913424879,-0.4159734845,2024-06-05 17:19:27.996156
5.036646892,-0.4238295853,0.01424749196,-0.3869459033,2024-06-05 17:19:28.036647
5.077135173,-0.3668396175,-0.09387365729,-0.3781577349,2024-06-05 17:19:28.077135
5.11764585,-0.4163729548,-0.177760765,-0.2536586225,2024-06-05 17:19:28.117646
5.158099756,-0.5142412186,-0.2595174015,-0.00599193573,2024-06-05 17:19:28.158100
5.198594964,-0.4422048628,-0.1793586165,0.06617759913,2024-06-05 17:19:28.198595
5.239089339,-0.3087844253,-0.07150376588,-0.03794892505,2024-06-05 17:19:28.239089
5.279590589,-0.005193010904,0.141542837,-0.02356828004,2024-06-05 17:19:28.279591
5.320077412,0.2537917793,0.3488638103,0.01344856713,2024-06-05 17:19:28.320077
5.360511787,-0.08641702682,0.4545882046,0.07789516449,2024-06-05 17:19:28.360512
5.401047464,0.1015966013,0.4452674091,0.1244991124,2024-06-05 17:19:28.401047
5.441546371,0.4987953603,0.8294170499,0.0512643382,2024-06-05 17:19:28.441546
5.482025642,0.5083824396,0.5635082722,-0.07443315536,2024-06-05 17:19:28.482026
5.522526371,-0.129292652,0.8792167306,0.2206363827,2024-06-05 17:19:28.522526
5.562999652,-0.1721682847,0.006790860556,0.4308867455,2024-06-05 17:19:28.563000
5.603460017,0.1600512564,0.3384777904,0.4926702678,2024-06-05 17:19:28.603460
5.643959392,0.6814828515,0.3398093283,0.6045197248,2024-06-05 17:19:28.643959
5.684458402,0.8845428824,0.07150376588,0.5547201037,2024-06-05 17:19:28.684458
5.724958871,0.6487269402,-0.03049229458,0.3106485903,2024-06-05 17:19:28.724959
5.765453037,0.3965329826,0.31024912,0.1239664927,2024-06-05 17:19:28.765453
5.805929392,-0.03395430371,0.2189053893,-0.08135717362,2024-06-05 17:19:28.805929
5.846428714,-0.2110492885,0.2519276142,-0.235283345,2024-06-05 17:19:28.846429
5.886927621,-0.2001306564,0.1455374658,-0.15512456,2024-06-05 17:19:28.886928
5.927358454,-0.02489982173,0.2545906901,-0.01185071748,2024-06-05 17:19:28.927358
5.968003298,0.1629806459,0.1303578913,0.1210371032,2024-06-05 17:19:28.968003
6.008390329,0.4133104086,0.04700340703,0.248865068,2024-06-05 17:19:29.008390
6.048855121,0.5177032351,0.21264714,0.3244965971,2024-06-05 17:19:29.048855
6.089378767,0.5166380405,-0.118640326,0.2105166763,2024-06-05 17:19:29.089379
6.129842204,0.3499290347,-0.3053224087,-0.01424749196,2024-06-05 17:19:29.129842
6.170318871,0.3419398069,-0.06324820966,0.02037258074,2024-06-05 17:19:29.170319
6.210822517,0.3326190114,-0.05179695413,0.03209014609,2024-06-05 17:19:29.210823
6.251322464,0.4764254689,-0.1964023411,0.07869409025,2024-06-05 17:19:29.251322
6.291793142,0.5587147474,-0.1215697154,0.1708367467,2024-06-05 17:19:29.291793
6.332288819,0.5640408993,-0.176429227,0.1527277827,2024-06-05 17:19:29.332289
6.372780173,0.4657731354,-0.2629793882,0.1993317306,2024-06-05 17:19:29.372780
6.413266006,0.4673709869,-0.3191704452,0.3143768907,2024-06-05 17:19:29.413266
6.453798089,0.657248795,-0.329023838,0.2382127345,2024-06-05 17:19:29.453798
6.494247048,0.6388735175,-0.1029281393,0.209451437,2024-06-05 17:19:29.494247
6.534757464,0.555785358,-0.01424749196,0.1724345982,2024-06-05 17:19:29.534757
6.575213819,0.5435351729,-0.03262276202,0.06378082931,2024-06-05 17:19:29.575214
6.615713454,0.5022573471,0.02197043039,0.01637795754,2024-06-05 17:19:29.615713
6.656168975,0.641802907,-0.227560401,0.02330197208,2024-06-05 17:19:29.656169
6.696708142,0.6748251319,-0.414375633,0.04034570232,2024-06-05 17:19:29.696708
6.737201579,0.7344781756,-0.2797568142,0.1761629134,2024-06-05 17:19:29.737202
6.777691214,0.7523208261,-0.1178414002,0.2328865677,2024-06-05 17:19:29.777691
6.818150902,0.7294183373,-0.002263620263,0.3252955377,2024-06-05 17:19:29.818151
6.858633975,0.7339455485,-0.1079879999,0.4404738545,2024-06-05 17:19:29.858634
6.899124027,0.6564498544,-0.002796236658,0.4604469836,2024-06-05 17:19:29.899124
6.939593402,0.5683017969,0.1170424819,0.4418053925,2024-06-05 17:19:29.939593
6.980109704,0.5872097015,-0.5672366023,0.2246310115,2024-06-05 17:19:29.980110
7.020606423,0.5768237114,-1.026751518,0.2496639937,2024-06-05 17:19:30.020606
7.061084756,0.6074491143,-0.8596430421,0.2797568142,2024-06-05 17:19:30.061085
7.1015896,0.440207541,-0.4505935609,0.1972012669,2024-06-05 17:19:30.101590
7.142061319,0.1896114796,0.07603100687,0.1221023351,2024-06-05 17:19:30.142061
7.1825346,-0.1998643428,0.3544562757,-0.1031944528,2024-06-05 17:19:30.182535
7.223020277,-0.5166380405,0.2873466015,-0.2472672164,2024-06-05 17:19:30.223020
7.263523506,-0.7145050764,0.009187635034,-0.3099828064,2024-06-05 17:19:30.263524
7.304040746,-0.8516538143,0.2213021666,-0.1716356725,2024-06-05 17:19:30.304041
7.3445096,-1.011438727,0.3145100474,-0.1948044896,2024-06-05 17:19:30.344510
7.385007777,-1.141530395,0.2950695455,-0.1447385401,2024-06-05 17:19:30.385008
7.425508871,-1.136204123,0.1958697289,-0.1780270636,2024-06-05 17:19:30.425509
7.466002829,-1.246189475,0.3051892519,-0.3462007344,2024-06-05 17:19:30.466003
7.506432412,-1.284271598,0.5432688594,-0.3264939189,2024-06-05 17:19:30.506432
7.546921319,-1.274684429,0.3352820873,-0.4135767221,2024-06-05 17:19:30.546921
7.587419496,-1.308771968,0.09227581322,-0.687874198,2024-06-05 17:19:30.587419
7.627933194,-1.382272959,0.2655093372,-0.5288882256,2024-06-05 17:19:30.627933
7.668434704,-1.40544188,0.03342168778,-0.2605826259,2024-06-05 17:19:30.668435
7.70892986,-1.364696622,0.2065220475,-0.3872122169,2024-06-05 17:19:30.708930
7.749411683,-1.17828083,-0.00998655986,-0.4135767221,2024-06-05 17:19:30.749412
7.789897256,-0.8481917977,-0.08987903595,-0.3853480518,2024-06-05 17:19:30.789897
7.830388402,-0.6900047064,-0.229424566,-0.3573856652,2024-06-05 17:19:30.830388
7.870905902,-0.6479279995,-0.2523270845,-0.1343525201,2024-06-05 17:19:30.870906
7.911372829,-0.5579158068,-0.2219679356,0.06537867337,2024-06-05 17:19:30.911373
7.951856996,-0.3844159544,-0.03715000302,0.1106510833,2024-06-05 17:19:30.951857
7.992327256,-0.2014621943,0.006790860556,0.273365438,2024-06-05 17:19:30.992327
8.032825746,-0.09387365729,0.1045259908,0.3941362202,2024-06-05 17:19:31.032826
8.073335017,0.2388785034,0.1191729456,0.6838796139,2024-06-05 17:19:31.073335
8.113821371,0.3129121959,0.222367391,0.8519201279,2024-06-05 17:19:31.113821
8.154291319,0.06457975507,0.2362154275,0.7768211961,2024-06-05 17:19:31.154291
8.194765485,0.3374125659,-0.2304897904,0.9089100957,2024-06-05 17:19:31.194765
8.235256683,0.3757609427,-0.2651098669,0.7302172184,2024-06-05 17:19:31.235257
8.275753662,0.3275591433,-0.1402112991,0.5059856772,2024-06-05 17:19:31.275754
8.316238454,0.2484655976,-0.1066564545,0.2802894413,2024-06-05 17:19:31.316238
8.356736214,0.1920082569,-0.03794892505,0.2030600458,2024-06-05 17:19:31.356736
8.397222152,0.270835489,0.08295502514,0.1814890802,2024-06-05 17:19:31.397222
8.437704548,0.4218322635,0.1569887102,0.09387365729,2024-06-05 17:19:31.437705
8.478208767,0.4673709869,-0.01318225823,0.07762885839,2024-06-05 17:19:31.478209
8.51869085,0.5754921436,0.07123745978,0.0541937314,2024-06-05 17:19:31.518691
8.55919085,0.6125090122,-0.002796236658,0.02330197208,2024-06-05 17:19:31.559191
8.599673298,0.4937354922,0.06005251035,-0.09600412846,2024-06-05 17:19:31.599673
8.64016986,0.5166380405,0.1247654185,-0.1226349548,2024-06-05 17:19:31.640170
8.680667152,0.4809527099,0.2596505582,-0.028361829,2024-06-05 17:19:31.680667
8.721140121,0.5999925137,0.2607157826,0.07150376588,2024-06-05 17:19:31.721140
8.761646214,0.5770899653,0.1135804728,0.1247654185,2024-06-05 17:19:31.761646
8.802117933,0.715570271,-0.1189066395,0.2696371078,2024-06-05 17:19:31.802118
8.842609235,0.7862751484,-0.1138467789,0.4133104086,2024-06-05 17:19:31.842609
8.883099756,0.9284837246,-0.07789516449,0.6039870977,2024-06-05 17:19:31.883100
8.923585694,1.10477984,-0.1330209672,0.6857437491,2024-06-05 17:19:31.923586
8.964075277,1.200384498,-0.4372781515,0.572030127,2024-06-05 17:19:31.964075
9.004549444,1.11809516,-0.08268871158,0.4149082601,2024-06-05 17:19:32.004549
9.045043558,1.088002324,-0.1050586104,0.2201037705,2024-06-05 17:19:32.045044
9.085538194,1.094660044,-0.07043853402,-0.002529928461,2024-06-05 17:19:32.085538
9.126008714,0.9790822864,0.0512643382,-0.2011958808,2024-06-05 17:19:32.126009
9.166483819,0.6769555807,0.07283531129,-0.2030600458,2024-06-05 17:19:32.166484
9.206969183,0.2790910602,0.04434032366,-0.2286256403,2024-06-05 17:19:32.206969
9.247480694,0.02942706272,0.07736254483,-0.3275591433,2024-06-05 17:19:32.247481
9.287973767,-0.1793586165,-0.07975932211,-0.3307548463,2024-06-05 17:19:32.287974
9.328483194,-0.4166392684,-0.09360735118,-0.3906742036,2024-06-05 17:19:32.328483
9.368975694,-0.5941337347,-0.02223674022,-0.4841484129,2024-06-05 17:19:32.368976
9.409467881,-0.7408695817,0.1271621883,-0.5246272683,2024-06-05 17:19:32.409468
9.449940017,-0.8282186985,-0.05312849581,-0.5448666811,2024-06-05 17:19:32.449940
9.4904246,-0.9480574131,-0.1982664913,-0.538475275,2024-06-05 17:19:32.490425
9.530928142,-1.110372305,0.2046578974,-0.4841484129,2024-06-05 17:19:32.530928
9.5713896,-1.26589632,0.1913424879,-0.4676373005,2024-06-05 17:19:32.571390
9.611888506,-1.156709909,0.2503297627,-0.5826824903,2024-06-05 17:19:32.611889
9.652375798,-0.8710942864,0.1982664913,-0.5451329947,2024-06-05 17:19:32.652376
9.692863246,-0.7507229447,0.292140156,-0.5760247707,2024-06-05 17:19:32.692863
9.733396475,-0.8540505767,0.1548582464,-0.4274247587,2024-06-05 17:19:32.733396
9.773838662,-0.8876054287,-0.01797580719,-0.2134460658,2024-06-05 17:19:32.773839
9.814346475,-0.9272853732,0.005725627299,-0.3403419554,2024-06-05 17:19:32.814346
9.854815746,-0.8015878797,0.08801487833,-0.2828193605,2024-06-05 17:19:32.854816
9.89530986,-0.5712311864,0.219171688,-0.1045259908,2024-06-05 17:19:32.895310
9.935796058,-0.48468104,0.1548582464,0.01983996481,2024-06-05 17:19:32.935796
9.976286996,-0.4597811997,0.273498565,0.1812227666,2024-06-05 17:19:32.976287
10.01677606,-0.4310199022,0.1287600398,0.4165061116,2024-06-05 17:19:33.016776
10.05729674,-0.3167736828,0.02356828004,0.49506706,2024-06-05 17:19:33.057297
10.09776767,-0.2283593267,-0.1103847697,0.3858806491,2024-06-05 17:19:33.097768
10.13826538,-0.05845466256,-0.02330197208,0.3629781604,2024-06-05 17:19:33.138265
10.17870772,0.0957378149,-0.03794892505,0.3181052208,2024-06-05 17:19:33.178708
10.21923424,0.2151770741,-0.1255643368,0.2464682907,2024-06-05 17:19:33.219234
10.25975481,0.2655093372,-0.2267614752,0.1801575422,2024-06-05 17:19:33.259755
10.3002195,0.3861469626,-0.06378082931,0.2177069932,2024-06-05 17:19:33.300220
10.34071236,0.4410064816,0.07629731297,0.2046578974,2024-06-05 17:19:33.340712
10.38119976,0.4916050434,0.1175750941,0.2379464209,2024-06-05 17:19:33.381200
10.42166252,0.5358121991,0.1181077138,0.1916087866,2024-06-05 17:19:33.421663
10.46217095,0.5629756451,0.0243672058,0.2579195499,2024-06-05 17:19:33.462171
10.50265752,0.4644415975,-0.0683080703,0.2773600519,2024-06-05 17:19:33.502658
10.54313944,0.510512948,-0.2089188248,0.2589847744,2024-06-05 17:19:33.543139
10.58365111,0.5627093315,-0.4063864052,0.2693707943,2024-06-05 17:19:33.583651
10.62413429,0.6196992993,-0.5640408993,0.4228975177,2024-06-05 17:19:33.624134
10.66460814,0.7947970033,-0.6367430687,0.7107767463,2024-06-05 17:19:33.664608
10.70509319,0.7694976926,-0.5091813803,0.6527215242,2024-06-05 17:19:33.705093
10.7455922,0.7254236937,-0.2246310115,0.6961297989,2024-06-05 17:19:33.745592
10.78612262,0.6535204649,0.04034570232,0.6165035963,2024-06-05 17:19:33.786123
10.82660715,0.6391398311,0.07656362653,0.5440677404,2024-06-05 17:19:33.826607
10.86706939,0.7326140404,-0.1079879999,0.4348813891,2024-06-05 17:19:33.867069
10.90752465,0.8941299915,-0.2097177505,0.4039896131,2024-06-05 17:19:33.907525
10.94803455,0.7453967929,-0.006258244161,0.1221023351,2024-06-05 17:19:33.948035
10.98850549,0.6977276206,-0.03688369319,-0.01877473295,2024-06-05 17:19:33.988505
11.02900267,0.5248935819,0.123167567,-0.1607170254,2024-06-05 17:19:34.029003
11.06949773,0.4458000064,0.3954677582,-0.1466026902,2024-06-05 17:19:34.069498
11.10999736,0.3230319023,0.3379451632,-0.2517944574,2024-06-05 17:19:34.109997
11.15047424,0.1322220564,0.6002588272,-0.5669702888,2024-06-05 17:19:34.150474
11.19093335,0.05552527308,0.700124383,-0.5877423286,2024-06-05 17:19:34.190933
11.23144002,-0.1207707971,0.2322207987,-0.638607204,2024-06-05 17:19:34.231440
11.27194158,-0.2379464209,0.1450048387,-0.782679975,2024-06-05 17:19:34.271942
11.31244621,-0.4049217105,0.3645760119,-0.9892020226,2024-06-05 17:19:34.312446
11.35294319,-0.5430025458,0.6457974911,-0.9884030819,2024-06-05 17:19:34.352943
11.39340215,-0.6063839197,0.3169068098,-0.9684299827,2024-06-05 17:19:34.393402
11.43390361,-0.5182358623,0.1663095057,-0.7757559419,2024-06-05 17:19:34.433904
11.47439496,-0.7256900072,0.296667397,-0.7709624171,2024-06-05 17:19:34.474395
11.51487976,-0.9235570431,0.2252967805,-0.8471265435,2024-06-05 17:19:34.514880
11.55538231,-0.8785509467,0.1575213373,-0.8465939164,2024-06-05 17:19:34.555382
11.59586023,-0.8388710022,-0.09866721183,-0.7744244337,2024-06-05 17:19:34.595860
11.63635283,-0.7350108027,-0.028361829,-0.6551182866,2024-06-05 17:19:34.636353
11.67685106,-0.7025212049,0.08668334037,-0.5744268894,2024-06-05 17:19:34.676851
11.71730153,-0.6772218943,0.3760272563,-0.5914706588,2024-06-05 17:19:34.717302
11.75780606,-0.5456656218,0.3991960883,-0.4681699276,2024-06-05 17:19:34.757806
11.79830606,-0.490539819,0.4244953692,-0.4354139864,2024-06-05 17:19:34.798306
11.83879658,-0.4798874855,0.2636451721,-0.1521951705,2024-06-05 17:19:34.838797
11.87928559,-0.1926740259,0.2308892608,0.009187635034,2024-06-05 17:19:34.879286
11.91972153,-0.02250304818,0.3387441039,0.06351451576,2024-06-05 17:19:34.919722
11.96022835,-0.05898727849,0.1151783243,0.05951989442,2024-06-05 17:19:34.960228
12.00072538,0.1458037645,0.1071890742,0.09893351793,2024-06-05 17:19:35.000725
12.04123601,0.4239627421,0.1247654185,0.1527277827,2024-06-05 17:19:35.041236
12.08173257,0.6607108116,0.1940055639,0.127961114,2024-06-05 17:19:35.081733
12.12222298,0.685211122,0.04513924941,0.09227581322,2024-06-05 17:19:35.122223
12.16264924,0.6841459274,0.009453942999,0.08295502514,2024-06-05 17:19:35.162649
12.20316663,0.7041190267,0.08109086752,0.109585844,2024-06-05 17:19:35.203167
12.24370064,0.6319494843,0.07736254483,0.1655105799,2024-06-05 17:19:35.243701
12.28417137,0.5938674212,0.1002650559,0.3015941083,2024-06-05 17:19:35.284171
12.32465929,0.6609770656,-0.03501953557,0.3475322723,2024-06-05 17:19:35.324659
12.36516908,0.6647053957,-0.04167724028,0.3872122169,2024-06-05 17:19:35.365169
12.40563502,0.7942643762,-0.109585844,0.3274259865,2024-06-05 17:19:35.405635
12.44610908,1.007843614,-0.4604469836,0.540872097,2024-06-05 17:19:35.446109
12.48659783,1.089600205,-0.617302537,0.6306179762,2024-06-05 17:19:35.486598
12.52708663,1.044860482,-0.5685681105,0.6774882078,2024-06-05 17:19:35.527087
12.56758163,1.115432143,-0.516371727,0.7653699517,2024-06-05 17:19:35.567582
12.60806981,1.091997027,-0.3173062801,0.8167673945,2024-06-05 17:19:35.608070
12.64856069,1.16416657,-0.6732272506,0.8037183285,2024-06-05 17:19:35.648561
12.68903627,1.0075773,-0.6207645535,0.6641727686,2024-06-05 17:19:35.689036
12.72957111,0.7320814133,-0.3748288751,0.4330172241,2024-06-05 17:19:35.729571
12.77003809,0.5501928329,-0.3170399666,0.3813534081,2024-06-05 17:19:35.770038
12.81051434,0.31024912,0.08774857223,0.3042571843,2024-06-05 17:19:35.810514
12.85100585,0.03661738336,0.2306229472,0.1713693589,2024-06-05 17:19:35.851006
12.89148476,-0.1444722265,0.2548570037,0.07869409025,2024-06-05 17:19:35.891485
12.93197351,-0.3199693561,0.2572537661,-0.1351514459,2024-06-05 17:19:35.931974
12.97253017,-0.469235152,0.3166405261,-0.1617822647,2024-06-05 17:19:35.972530
13.01297371,-0.6399387121,0.2854824364,-0.4186365902,2024-06-05 17:19:36.012974
13.05345715,-0.7509892583,0.4862788618,-0.5904054046,2024-06-05 17:19:36.053457
13.09395439,-0.8276860714,0.3861469626,-0.6415365934,2024-06-05 17:19:36.093954
13.13442069,-0.79493016,0.3422061205,-0.6742925048,2024-06-05 17:19:36.134421
13.17487059,-0.8170337081,0.33474949,-0.736874938,2024-06-05 17:19:36.174871
13.21542429,-0.9307473302,0.2860150635,-0.8119738698,2024-06-05 17:19:36.215424
13.25590314,-1.042330503,0.2396774292,-0.844197154,2024-06-05 17:19:36.255903
13.29639184,-1.112769008,0.2998631001,-0.7645710111,2024-06-05 17:19:36.296392
13.33683319,-1.253113508,0.151928857,-0.7472609878,2024-06-05 17:19:36.336833
13.37732658,-1.209172606,0.05259587988,-0.5776225924,2024-06-05 17:19:36.377327
13.41782361,-1.125019193,0.02543243766,-0.4372781515,2024-06-05 17:19:36.417824
13.4583121,-0.9523183107,0.01371487509,-0.4697677493,2024-06-05 17:19:36.458312
13.498802,-0.5651060939,0.2282261699,-0.5001268983,2024-06-05 17:19:36.498802
13.5393384,-0.411046803,0.2298240215,-0.5619103909,2024-06-05 17:19:36.539338
13.57980653,-0.2685718834,0.2011958808,-0.4410064816,2024-06-05 17:19:36.579807
13.6203133,-0.109585844,0.1591191888,-0.3368799388,2024-06-05 17:19:36.620313
13.66085429,-0.1300915778,0.01983996481,-0.2054568231,2024-06-05 17:19:36.660854
13.70125757,-0.07682993263,0.05259587988,-0.1244991124,2024-06-05 17:19:36.701258
13.74178377,-0.003595161485,0.028361829,-0.01904104091,2024-06-05 17:19:36.741784
13.7822747,0.07443315536,-0.1066564545,0.2062557489,2024-06-05 17:19:36.782275
13.8227596,0.2545906901,-0.06884068251,0.3754946291,2024-06-05 17:19:36.822760
13.863222,0.3874785006,-0.3050560951,0.3872122169,2024-06-05 17:19:36.863222
13.90371585,0.5011921525,0.09627043456,0.4378107786,2024-06-05 17:19:36.903716
13.94421304,0.5033226013,-0.02463351376,0.3563204408,2024-06-05 17:19:36.944213
13.98469778,0.5496602654,-0.08162347972,0.3842828274,2024-06-05 17:19:36.984698
14.02517887,0.7121082544,-0.0685743764,0.46018067,2024-06-05 17:19:37.025179
14.06570377,0.7572475076,-0.2211690098,0.5422036052,2024-06-05 17:19:37.065704
14.10615757,0.8187647462,-0.3436708152,0.6676347852,2024-06-05 17:19:37.106158
14.14666132,0.8081123829,-0.6274222732,0.7121082544,2024-06-05 17:19:37.146661
14.18712491,0.6796186566,-0.4876104295,0.785343051,2024-06-05 17:19:37.187125
14.22762528,0.6535204649,-0.4577838778,0.8431319594,2024-06-05 17:19:37.227625
14.26811564,0.6524552107,-0.3524589837,0.8489907384,2024-06-05 17:19:37.268116
14.30861455,0.5917369723,-0.3962666988,0.9118394852,2024-06-05 17:19:37.308615
14.34912746,0.6109111309,-0.5640408993,0.8548495173,2024-06-05 17:19:37.349127
14.3895947,0.593334794,-0.5123770833,0.941666007,2024-06-05 17:19:37.389595
14.43009887,0.4119788706,-0.1860163212,0.9264864326,2024-06-05 17:19:37.430099
14.47058262,0.2447372824,-0.1942718774,0.7195649147,2024-06-05 17:19:37.470583
14.51105861,0.2050573528,-0.2219679356,0.562443018,2024-06-05 17:19:37.511059
14.5515484,0.1954702586,-0.1439396143,0.3816197217,2024-06-05 17:19:37.551548
14.5920483,0.1260969639,-0.0736342296,0.2723001838,2024-06-05 17:19:37.592048
14.63253272,0.03501953557,0.156456098,0.07816147059,2024-06-05 17:19:37.632533
14.67300486,-0.1069227681,0.1990654171,-0.1274285018,2024-06-05 17:19:37.673005
14.71350345,-0.2773600519,0.4159734845,-0.3350157738,2024-06-05 17:19:37.713503
14.75397882,-0.4216991365,0.2439383566,-0.3877448142,2024-06-05 17:19:37.753979
14.79445548,-0.5400731564,0.09413997084,-0.5781552196,2024-06-05 17:19:37.794455
14.83496538,-0.657248795,0.3938699067,-0.8742899895,2024-06-05 17:19:37.834965
14.87548371,-0.7967942953,0.7014559507,-0.9777507782,2024-06-05 17:19:37.875484
14.91596319,-0.8601756692,0.602389276,-0.9386034608,2024-06-05 17:19:37.915963
14.95643908,-0.8308817744,0.156456098,-0.7472609878,2024-06-05 17:19:37.956439
14.99690887,-0.8761541843,-0.1439396143,-0.740070641,2024-06-05 17:19:37.996909
15.0373933,-0.7861419916,0.1585865617,-0.9881367683,2024-06-05 17:19:38.037393
15.07788309,-0.7264889479,0.03129122034,-0.9034507871,2024-06-05 17:19:38.077883
15.11838778,-0.7690982223,-0.09866721183,-0.8396699429,2024-06-05 17:19:38.118388
15.15889434,-0.7648373246,-0.05525896326,-0.7358096838,2024-06-05 17:19:38.158894
15.19936767,-0.5941337347,0.03874785081,-0.6649717093,2024-06-05 17:19:38.199368
15.23985304,-0.5238283277,0.1380808353,-0.4713656008,2024-06-05 17:19:38.239853
15.28034668,-0.5512580872,-0.1972012669,-0.3414071798,2024-06-05 17:19:38.280347
15.32082632,-0.3979976773,-0.1929403245,0.02303566411,2024-06-05 17:19:38.320826
15.36131075,-0.1599181145,0.0003994623839,0.07203638554,2024-06-05 17:19:38.361311
15.4018209,-0.1817553788,-0.2946700752,0.04434032366,2024-06-05 17:19:38.401821
15.44230189,-0.002529928461,-0.01238333434,0.250729233,2024-06-05 17:19:38.442302
15.48277491,0.1133141592,0.1282274276,0.2235657871,2024-06-05 17:19:38.482775
15.52326158,0.1717688292,-0.5379426479,0.2006632686,2024-06-05 17:19:38.523262
15.56376871,0.3720326424,-0.3479317427,0.3276923001,2024-06-05 17:19:38.563769
15.60425773,0.6133078933,-0.440207541,0.5461982489,2024-06-05 17:19:38.604258
15.64478064,0.6916025281,-0.3151758313,0.7222279906,2024-06-05 17:19:38.644781
15.68524668,0.8951951861,-0.3327521682,0.9251548648,2024-06-05 17:19:38.685247
15.7257147,0.8882712126,-0.6577813625,1.00091958,2024-06-05 17:19:38.725715
15.7661758,0.762573719,-0.218505919,1.003582716,2024-06-05 17:19:38.766176
15.80665637,0.6157047153,-0.507317245,0.9078448415,2024-06-05 17:19:38.806656
15.8471701,0.3651086092,-0.5193011165,0.9435301423,2024-06-05 17:19:38.847170
15.88767171,0.3121132851,-0.7075810432,0.9934629202,2024-06-05 17:19:38.887672
15.92816005,0.267639786,-0.7070484161,1.059241056,2024-06-05 17:19:38.928160
15.9686052,0.2553896308,-0.4473978579,0.9788159728,2024-06-05 17:19:38.968605
16.00915973,0.1509967744,-0.2379464209,0.7608426809,2024-06-05 17:19:39.009160
16.04964312,0.2231663167,-0.1679073572,0.806647718,2024-06-05 17:19:39.049643
16.09013619,0.4418053925,-0.5054530501,0.7789516449,2024-06-05 17:19:39.090136
16.13062333,0.467903614,-0.1372819096,0.7720276117,2024-06-05 17:19:39.130623
16.17109025,0.2548570037,-0.08615072072,0.6564498544,2024-06-05 17:19:39.171090
16.21163228,0.06777545065,-0.1125152409,0.5363448262,2024-06-05 17:19:39.211632
16.25207505,-0.09999874979,0.117308788,0.4386096895,2024-06-05 17:19:39.252075
16.2925863,-0.2446041405,0.3552552164,0.2845503688,2024-06-05 17:19:39.292586
16.33304645,-0.4344819188,0.4772244096,0.01211702544,2024-06-05 17:19:39.333046
16.37353067,-0.5240946412,0.3067871034,-0.09360735118,2024-06-05 17:19:39.373531
16.41403228,-0.5861444473,0.3589835167,-0.250729233,2024-06-05 17:19:39.414032
16.45453978,-0.6535204649,0.4284899831,-0.3906742036,2024-06-05 17:19:39.454540
16.49502895,-0.7344781756,0.3840165138,-0.5667039752,2024-06-05 17:19:39.495029
16.53549067,-0.8758878708,0.3339505494,-0.6636402011,2024-06-05 17:19:39.535491
16.57599546,-0.8849423528,0.3254286945,-0.7858756781,2024-06-05 17:19:39.575995
16.61648468,-0.9272853732,0.07123745978,-0.918364048,2024-06-05 17:19:39.616485
16.6569552,-0.841001451,0.3243634701,-1.1188941,2024-06-05 17:19:39.656955
16.69747046,-0.8639039993,0.06777545065,-1.021425366,2024-06-05 17:19:39.697470
16.73793552,-0.7296846509,0.2372806519,-0.9649679661,2024-06-05 17:19:39.737936
16.77842973,-0.6250254512,0.1633801162,-0.9210271239,2024-06-05 17:19:39.778430
16.81893176,-0.5563179255,0.270835489,-0.8119738698,2024-06-05 17:19:39.818932
16.85941604,-0.5134423375,0.2998631001,-0.6535204649,2024-06-05 17:19:39.859416
16.89990036,-0.4756265581,0.3017272651,-0.5549864173,2024-06-05 17:19:39.899900
16.94038176,-0.4374113083,0.1274285018,-0.4463326335,2024-06-05 17:19:39.940382
16.98084937,-0.3681711555,0.06564498693,-0.2796236575,2024-06-05 17:19:39.980849
17.02134119,-0.2387453467,-0.09387365729,-0.1873478591,2024-06-05 17:19:40.021341
17.0618864,-0.1026618332,-0.06431344151,0.003595161485,2024-06-05 17:19:40.061886
17.10235937,0.01105179265,-0.1711030602,0.1346188188,2024-06-05 17:19:40.102359
17.1428852,0.1058575287,-0.2115819156,0.2174406946,2024-06-05 17:19:40.142885
17.18332978,0.3126458824,-0.2539249361,0.2901428342,2024-06-05 17:19:40.183330
17.22383676,0.4260932207,-0.3037245572,0.3456681073,2024-06-05 17:19:40.223837
17.26429932,0.5693670511,-0.3298227787,0.4135767221,2024-06-05 17:19:40.264299
17.30479145,0.5914706588,-0.2291582525,0.4849473238,2024-06-05 17:19:40.304791
17.34528525,0.6330147386,-0.3868127465,0.5866770744,2024-06-05 17:19:40.345285
17.38576624,0.599193573,-0.09094426781,0.7177007794,2024-06-05 17:19:40.385766
17.42625551,0.5712311864,-0.2525933683,0.7712287307,2024-06-05 17:19:40.426256
17.46671499,0.5842803121,-0.2390116602,0.8279523849,2024-06-05 17:19:40.466715
17.50720416,0.6079817414,-0.3782908916,0.8431319594,2024-06-05 17:19:40.507204
17.54770505,0.5310186744,-0.3234313726,0.9067795873,2024-06-05 17:19:40.547705
17.5882276,0.4780233204,-0.1982664913,1.002251148,2024-06-05 17:19:40.588228
17.62872109,0.443403244,-0.496398598,0.9062470198,2024-06-05 17:19:40.628721
17.66918411,0.5219641924,-0.4087831676,1.02462101,2024-06-05 17:19:40.669184
17.70968359,0.5416709781,-0.5017247796,1.010772943,2024-06-05 17:19:40.709684
17.75015317,0.5760247707,-0.6647053957,0.9275516272,2024-06-05 17:19:40.750153
17.79066015,0.444734782,-0.6857437491,0.803984642,2024-06-05 17:19:40.790660
17.8311651,0.2740311921,-0.4306204617,0.7126408815,2024-06-05 17:19:40.831165
17.87164937,0.1664426625,-0.3364804685,0.5446003675,2024-06-05 17:19:40.871649
17.91213067,-0.07603100687,-0.1250317246,0.2232994735,2024-06-05 17:19:40.912131
17.95259411,-0.3617797792,0.06085143611,0.06644391268,2024-06-05 17:19:40.952594
17.99307494,-0.4849473238,0.2145113051,-0.05099803209,2024-06-05 17:19:40.993075
18.03357708,-0.7227606177,0.1649779677,-0.2724333405,2024-06-05 17:19:41.033577
18.07409203,-0.8697627783,0.06963960826,-0.3230319023,2024-06-05 17:19:41.074092
18.11458963,-0.9264864326,0.2961347699,-0.4386096895,2024-06-05 17:19:41.114590
18.15505083,-1.102383018,0.3475322723,-0.5680354834,2024-06-05 17:19:41.155051
18.19553942,-1.133274794,0.1769618392,-0.6388735175,2024-06-05 17:19:41.195539
18.23605343,-1.257640719,0.2205032408,-0.6655043364,2024-06-05 17:19:41.236053
18.27654885,-1.24059701,0.007323476952,-0.6561835408,2024-06-05 17:19:41.276549
18.31702359,-1.271755099,-0.01557903271,-0.7406032681,2024-06-05 17:19:41.317024
18.35748541,-1.090931773,-0.03022598661,-0.6119763851,2024-06-05 17:19:41.357485
18.39798505,-1.060173154,0.07097115368,-0.62049824,2024-06-05 17:19:41.397985
18.43846692,-0.9840090275,0.133819893,-0.6969286799,2024-06-05 17:19:41.438467
18.47895291,-0.9437964559,0.1330209672,-0.6319494843,2024-06-05 17:19:41.478953
18.51946187,-0.8963935971,0.2668408751,-0.5435351729,2024-06-05 17:19:41.519462
18.5599589,-0.8780183196,0.04913387448,-0.3307548463,2024-06-05 17:19:41.559959
18.60044864,-0.7749570012,-0.03901416063,-0.1607170254,2024-06-05 17:19:41.600449
18.64095255,-0.565638721,-0.06431344151,-0.05206326395,2024-06-05 17:19:41.640953
18.68141489,-0.4185034335,0.1878804713,0.05232957378,2024-06-05 17:19:41.681415
18.72188734,-0.1825543046,0.1053249165,0.1588528752,2024-06-05 17:19:41.721887
18.76236947,0.04141093418,0.05472634733,0.2970668674,2024-06-05 17:19:41.762369
18.8028676,0.3398093283,0.06191666797,0.4066527188,2024-06-05 17:19:41.802868
18.84336833,0.5691007376,0.0126496423,0.4718982279,2024-06-05 17:19:41.843368
18.88385911,0.6620423198,0.08774857223,0.5472634435,2024-06-05 17:19:41.883859
18.92434978,0.6274222732,0.2121145278,0.5483286977,2024-06-05 17:19:41.924350
18.96481051,0.6351451874,0.1447385401,0.623693943,2024-06-05 17:19:41.964811
19.00530421,0.6995918155,0.1758965999,0.5659050345,2024-06-05 17:19:42.005304
19.04581458,0.7166355252,0.1580539495,0.5129097104,2024-06-05 17:19:42.045815
19.08632442,0.8326127529,0.1750976741,0.6071828008,2024-06-05 17:19:42.086324
19.12679025,0.9492557645,0.1114500016,0.7967942953,2024-06-05 17:19:42.126790
19.16728015,0.9444622397,0.005193010904,0.9350082874,2024-06-05 17:19:42.167280
19.20777296,0.9655005932,-0.2595174015,1.063502073,2024-06-05 17:19:42.207773
19.24827255,0.9756202698,-0.4790885448,1.005979419,2024-06-05 17:19:42.248273
19.28877161,1.044327855,-0.7877398133,0.7978595495,2024-06-05 17:19:42.288772
19.32923489,0.6908035874,-0.2613815665,0.5632419586,2024-06-05 17:19:42.329235
19.36971229,0.5757584572,-0.1737661362,0.5275566578,2024-06-05 17:19:42.369712
19.41020666,0.522763133,-0.1665758193,0.4322183132,2024-06-05 17:19:42.410207
19.45071494,0.5600462556,-0.2568543255,0.3220998347,2024-06-05 17:19:42.450715
19.49119093,0.3802881837,-0.2390116602,0.1703041345,2024-06-05 17:19:42.491191
19.53169317,0.0842865631,-0.05099803209,-0.2238320857,2024-06-05 17:19:42.531693
19.5721552,-0.1103847697,0.4599143565,-0.4122451842,2024-06-05 17:19:42.572155
19.61264619,-0.4113130867,0.3792229593,-0.6809502244,2024-06-05 17:19:42.612646
19.65316692,-0.510512948,0.2447372824,-0.7467283607,2024-06-05 17:19:42.653167
19.69366453,-0.7493914366,0.2524602413,-0.8713606,2024-06-05 17:19:42.693665
19.7341215,-0.806647718,0.1484668553,-0.9617722631,2024-06-05 17:19:42.734122
19.7746151,-0.9616391063,-0.04061200842,-1.081344724,2024-06-05 17:19:42.774615
19.81510078,-0.9187634587,-0.05579157919,-0.9503210187,2024-06-05 17:19:42.815101
19.85558338,-0.9445953965,-0.1591191888,-1.11596477,2024-06-05 17:19:42.855583
19.89607484,-1.03913486,0.03954677656,-1.137269378,2024-06-05 17:19:42.896075
19.93662822,-1.006645203,0.001731003635,-0.8750889301,2024-06-05 17:19:42.936628
19.97711718,-0.9911993146,-0.06457975507,-0.9085106254,2024-06-05 17:19:42.977117
20.01753713,-0.8844097257,-0.006790860556,-0.7744244337,2024-06-05 17:19:43.017537
20.05806093,-0.8612409234,0.04407401755,-0.6649717093,2024-06-05 17:19:43.058061
20.09851817,-0.8364742398,-0.3093170524,-0.5283555984,2024-06-05 17:19:43.098518
20.13899734,-0.693466723,-0.4146419466,-0.3251623809,2024-06-05 17:19:43.138997
20.17949083,-0.5643072128,-0.2310224175,-0.05499265343,2024-06-05 17:19:43.179491
20.21997359,-0.3772256374,-0.1284937263,0.1556571722,2024-06-05 17:19:43.219974
20.26047031,-0.1750976741,-0.3817528784,0.4007939398,2024-06-05 17:19:43.260470
20.30096468,0.03422060981,-0.01850842312,0.5552527308,2024-06-05 17:19:43.300965
20.34146176,0.1640458852,0.04593817517,0.5006595254,2024-06-05 17:19:43.341462
20.38193989,0.1399449855,-0.03635107726,0.3165073693,2024-06-05 17:19:43.381940
20.42250078,0.2290250957,-0.004394086078,0.3338173926,2024-06-05 17:19:43.422501
20.46293562,0.3693695366,0.08987903595,0.3340837061,2024-06-05 17:19:43.462936
20.50343973,0.3552552164,0.1527277827,0.4934692085,2024-06-05 17:19:43.503440
20.54389619,0.5065183043,0.03874785081,0.6074491143,2024-06-05 17:19:43.543896
20.58440822,0.5232957006,0.1197055578,0.7973269224,2024-06-05 17:19:43.584408
20.62493885,0.5709648728,0.1125152409,0.7414022088,2024-06-05 17:19:43.624939
20.66536161,0.6127753258,0.08348763734,0.7347444892,2024-06-05 17:19:43.665362
20.70584093,0.6905373335,0.1857500076,0.8902685046,2024-06-05 17:19:43.705841
20.74632505,0.6916025281,0.0952052027,0.9897346497,2024-06-05 17:19:43.746325
20.78682005,0.8800156116,-0.1804238409,1.184139609,2024-06-05 17:19:43.786820
20.82733442,0.9737561345,-0.2179733068,1.205976963,2024-06-05 17:19:43.827334
20.86783395,1.106910229,-0.5698996782,1.080013156,2024-06-05 17:19:43.867834
20.90831729,0.8919994831,-0.07709623873,0.7051842809,2024-06-05 17:19:43.908317
20.94879374,0.8770862222,-0.1322220564,0.8982577324,2024-06-05 17:19:43.948794
20.98928421,0.5507254601,-0.05366111174,0.4673709869,2024-06-05 17:19:43.989284
21.02978067,0.2551233172,0.1987991184,0.001464695437,2024-06-05 17:19:44.029781
21.07026937,-0.01051917579,0.5291544795,-0.4191691875,2024-06-05 17:19:44.070269
21.11078098,-0.3252955377,0.7198312283,-0.6806839108,2024-06-05 17:19:44.110781
21.15123541,-0.3913399875,0.6181014776,-0.8726921678,2024-06-05 17:19:44.151235
21.19171598,-0.6828143597,0.5342143774,-1.204379082,2024-06-05 17:19:44.191716
21.2322213,-0.7959953547,0.7994573712,-1.361234665,2024-06-05 17:19:44.232221
21.27274114,-0.8023867607,0.287612915,-1.253113508,2024-06-05 17:19:44.272741
21.31323791,-0.6290200949,0.2625799477,-1.444589138,2024-06-05 17:19:44.313238
21.35371296,-0.5592473149,0.4367455542,-1.430474758,2024-06-05 17:19:44.353713
21.39418041,-0.3569862247,0.4335498512,-1.280809522,2024-06-05 17:19:44.394180
21.43466182,-0.4774906933,0.7118419409,-1.231808782,2024-06-05 17:19:44.434662
21.47514989,-0.4555202723,0.4913387299,-0.9090432525,2024-06-05 17:19:44.475150
21.51564078,-0.3878779709,0.4087831676,-0.6434007287,2024-06-05 17:19:44.515641
21.55611296,-0.5368774533,0.3667064607,-0.4623111188,2024-06-05 17:19:44.556113
21.59660593,-0.4382102489,0.504121542,-0.3382114768,2024-06-05 17:19:44.596606
21.6371565,-0.2592510879,0.1780270636,-0.284417212,2024-06-05 17:19:44.637156
21.67760609,-0.03981308267,0.2189053893,-0.07469946891,2024-06-05 17:19:44.677606
21.71806114,0.1637795717,0.2247641683,0.1689725816,2024-06-05 17:19:44.718061
21.75858317,0.2495308369,0.2636451721,0.3247629106,2024-06-05 17:19:44.758583
21.79905421,0.316107899,0.3022598624,0.3408745527,2024-06-05 17:19:44.799054
21.8395488,0.3597824574,0.2788247466,0.3034582436,2024-06-05 17:19:44.839549
21.88003728,0.469235152,0.121836029,0.2528596818,2024-06-05 17:19:44.880037
21.92052848,0.5480623841,0.2793573737,0.1623148769,2024-06-05 17:19:44.920528
21.96101932,0.6495258212,-0.03874785081,0.2291582525,2024-06-05 17:19:44.961019
22.0015414,0.6881405115,0.2758953571,0.09307473898,2024-06-05 17:19:45.001541
22.04203744,1.396786809,0.1631138027,0.3643096983,2024-06-05 17:19:45.042037
22.08251239,1.069094539,0.5358121991,0.8750889301,2024-06-05 17:19:45.082512
22.12301958,0.9817453623,0.2110492885,1.241662264,2024-06-05 17:19:45.123020
22.16347072,1.245656848,-0.577888906,1.062436819,2024-06-05 17:19:45.163471
22.20393234,1.197987676,-0.486012578,1.186270118,2024-06-05 17:19:45.203932
22.2444426,0.5589810014,-0.1053249165,1.286401987,2024-06-05 17:19:45.244443
22.28490812,0.8893364072,0.9026518464,1.235537171,2024-06-05 17:19:45.284908
22.32539963,1.114633203,0.9370055795,1.437132478,2024-06-05 17:19:45.325400
22.36591104,0.5216978788,0.534480691,1.032343984,2024-06-05 17:19:45.365911
22.40640791,0.6103785038,-0.06591129303,-0.05392742157,2024-06-05 17:19:45.406408
22.4468964,0.07256899774,0.3603150845,-0.7256900072,2024-06-05 17:19:45.446896
22.48736046,0.2213021666,0.3107817471,-0.7525871396,2024-06-05 17:19:45.487360
22.52787031,-0.1758965999,0.4082505703,-1.028615594,2024-06-05 17:19:45.527870
22.56833744,-0.3213009238,0.3544562757,-1.476812482,2024-06-05 17:19:45.568337
22.60885458,-0.2813546658,0.6559172273,-1.495320916,2024-06-05 17:19:45.608855
22.64930885,-0.3143768907,0.8379389048,-1.21689558,2024-06-05 17:19:45.649309
22.6899251,-0.243006289,0.693466723,-1.307706714,2024-06-05 17:19:45.689925
22.73029765,-0.177760765,0.6109111309,-1.486665845,2024-06-05 17:19:45.730298
22.77079744,-0.177760765,0.4226312041,-1.349250793,2024-06-05 17:19:45.770797
22.81126775,-0.2480661422,0.343803972,-1.272820354,2024-06-05 17:19:45.811268
22.85176947,-0.3569862247,0.09706936032,-1.208373666,2024-06-05 17:19:45.851769
22.89222911,-0.4371449947,0.03768261895,-0.8380720615,2024-06-05 17:19:45.892229
22.93282843,-0.403323859,-0.01584534161,-0.5211652517,2024-06-05 17:19:45.932828
22.97331838,-0.3231650591,-0.1711030602,-0.2190385461,2024-06-05 17:19:45.973318
23.0137201,-0.05019910634,0.02809552103,0.1332872808,2024-06-05 17:19:46.013720
23.05424239,0.1765623689,0.1966686398,0.4870778024,2024-06-05 17:19:46.054242
23.09472255,0.1848179251,0.1263632625,0.5722964406,2024-06-05 17:19:46.094723
23.13520937,0.2532591522,0.03262276202,0.5203663111,2024-06-05 17:19:46.135209
23.17567838,0.3150426745,-0.01531272475,0.226228863,2024-06-05 17:19:46.175678
23.21618479,0.3978645205,0.03262276202,0.01051917579,2024-06-05 17:19:46.216185
23.25666104,0.5299534202,0.08188978583,-0.01611164957,2024-06-05 17:19:46.256661
23.29715223,0.8147701025,0.1964023411,0.6527215242,2024-06-05 17:19:46.297152
23.33763723,0.7235595584,-0.1194392517,1.165231824,2024-06-05 17:19:46.337637
23.37810437,0.7342118621,0.2700365782,0.9620385766,2024-06-05 17:19:46.378104
23.41862593,0.7641715407,0.02090519853,0.8236914277,2024-06-05 17:19:46.418626
23.45911786,0.8155690432,-0.1926740259,0.9089100957,2024-06-05 17:19:46.459118
23.49959171,0.9524514675,-0.5762910843,1.177215695,2024-06-05 17:19:46.499592
23.54010828,1.05657804,-0.5014584661,0.8761541843,2024-06-05 17:19:46.540108
23.58055874,0.9617722631,-0.7235595584,1.013702393,2024-06-05 17:19:46.580559
23.62106786,0.8280855417,-0.5400731564,1.034740686,2024-06-05 17:19:46.621068
23.66153203,0.5280892849,-0.37296471,0.5970631242,2024-06-05 17:19:46.661532
23.70205255,0.2575200796,-0.02703028731,0.3469996452,2024-06-05 17:19:46.702053
23.74254978,-0.04593817517,-0.04061200842,0.1380808353,2024-06-05 17:19:46.742550
23.78308833,-0.1908098608,0.1790923029,-0.1644453406,2024-06-05 17:19:46.783088
23.82348525,-0.2952027023,0.3432713449,-0.4726971686,2024-06-05 17:19:46.823485
23.86399307,-0.4825505614,0.5107792616,-0.8481917977,2024-06-05 17:19:46.863993
23.90448463,-0.4424711764,0.4926702678,-1.051518202,2024-06-05 17:19:46.904485
23.94496307,-0.4190360308,0.3994623721,-1.303179502,2024-06-05 17:19:46.944963
23.98544619,-0.4382102489,0.2131797522,-1.4187572,2024-06-05 17:19:46.985446
24.02594546,-0.39746508,0.6244928837,-1.461366534,2024-06-05 17:19:47.025945
24.06643937,-0.388410598,0.4274247587,-1.495054603,2024-06-05 17:19:47.066439
24.10694447,-0.4512593448,0.3587172329,-1.414229989,2024-06-05 17:19:47.106944
24.14742744,-0.3034582436,0.3858806491,-1.254977703,2024-06-05 17:19:47.147427
24.18791635,-0.5568505526,0.2041252851,-1.144459724,2024-06-05 17:19:47.187916
24.22838025,-0.5038552284,-0.05232957378,-0.8909342885,2024-06-05 17:19:47.228380
24.2688688,-0.4571181238,0.09147688746,-0.534480691,2024-06-05 17:19:47.268869
24.30936187,-0.2446041405,-0.1300915778,-0.2022611201,2024-06-05 17:19:47.309362
24.34984437,-0.08508548886,-0.226228863,0.1191729456,2024-06-05 17:19:47.349844
24.39033859,0.1661763489,0.0467370972,0.2944037914,2024-06-05 17:19:47.390339
24.43083202,0.1738992929,-0.3404751122,0.1982664913,2024-06-05 17:19:47.430832
24.47134234,0.1090532318,0.6857437491,0.3539236784,2024-06-05 17:19:47.471342
24.51181156,0.127961114,-0.176429227,0.2970668674,2024-06-05 17:19:47.511812
24.55229062,0.1407439113,-0.04726971686,0.3109148741,2024-06-05 17:19:47.552291
24.59279781,0.3280917704,0.1972012669,0.5880086422,2024-06-05 17:19:47.592798
24.63328343,0.4553871155,-0.06884068251,0.7536523938,2024-06-05 17:19:47.633283
24.67377119,0.5941337347,0.1250317246,0.9985228181,2024-06-05 17:19:47.673771
24.7142615,0.7435326576,0.08082455397,1.149253249,2024-06-05 17:19:47.714261
24.75473828,0.8427324891,-0.1061238423,1.245124221,2024-06-05 17:19:47.754738
24.79527838,0.6391398311,-0.3276923001,1.301847935,2024-06-05 17:19:47.795278
24.83575499,0.6303516626,-0.5097140074,1.079214215,2024-06-05 17:19:47.835755
24.87622562,0.4721645415,-0.4734960794,0.8607082963,2024-06-05 17:19:47.876226
24.91671333,0.4588491321,-0.5858781338,0.923024416,2024-06-05 17:19:47.916713
24.95717307,0.3667064607,-0.6093133092,0.8953283429,2024-06-05 17:19:47.957173
24.99767755,0.3456681073,-0.4231638312,0.8580452204,2024-06-05 17:19:47.997678
25.03818098,0.2497971505,-0.3157084286,0.7006570101,2024-06-05 17:19:48.038181
25.07865458,0.02010627277,-0.0576557368,0.2432725877,2024-06-05 17:19:48.078655
25.11914989,-0.1846847683,0.1380808353,-0.2693707943,2024-06-05 17:19:48.119150
25.15963942,-0.534480691,0.4260932207,-0.7134398222,2024-06-05 17:19:48.159639
25.20013765,-0.6141068339,0.4079842567,-0.8686975241,2024-06-05 17:19:48.200138
25.24061953,-0.641802907,0.3709673882,-1.109839678,2024-06-05 17:19:48.240620
25.28111083,-0.7230269313,0.272167027,-1.364696622,2024-06-05 17:19:48.281111
25.32159567,-0.5951989293,0.3781577349,-1.325815678,2024-06-05 17:19:48.321596
25.36206682,-0.6705641747,0.6804175973,-1.396919966,2024-06-05 17:19:48.362067
25.40257093,-0.5797531009,0.3746957183,-1.419822454,2024-06-05 17:19:48.402571
25.44310161,-0.3013277948,0.4364792407,-1.1188941,2024-06-05 17:19:48.443102
25.48356718,-0.2707023323,0.4303541481,-0.9817453623,2024-06-05 17:19:48.483567
25.52401796,-0.3418066502,0.09627043456,-0.9817453623,2024-06-05 17:19:48.524018
25.56451348,-0.3074528873,0.204924196,-0.581084609,2024-06-05 17:19:48.564513
25.60502057,-0.2754958868,-0.2515281439,-0.4002613127,2024-06-05 17:19:48.605021
25.64547906,-0.2222342342,-0.270169735,-0.1705704331,2024-06-05 17:19:48.645479
25.68599708,-0.1268958896,-0.02942706272,-0.01371487509,2024-06-05 17:19:48.685997
25.72649968,-0.09387365729,-0.4079842567,0.08268871158,2024-06-05 17:19:48.726500
25.76696161,-0.1047922969,0.1023955271,0.4545882046,2024-06-05 17:19:48.766962
25.80746505,0.03581846133,-0.1516625583,0.5698996782,2024-06-05 17:19:48.807465
25.84794536,0.03155753016,-0.1814890802,0.4037233293,2024-06-05 17:19:48.847945
25.88843562,0.2886781394,-0.08162347972,0.685211122,2024-06-05 17:19:48.888436
25.92894228,0.461512208,-0.2648435533,0.6332810521,2024-06-05 17:19:48.928942
25.96939812,0.6758903265,0.117308788,0.8058487773,2024-06-05 17:19:48.969398
26.00988234,0.7536523938,0.3123795986,1.006512046,2024-06-05 17:19:49.009882
26.05040484,0.6601781845,0.2452699095,1.007044673,2024-06-05 17:19:49.050405
26.09089109,0.6226286888,-0.02596505545,0.9628375173,2024-06-05 17:19:49.090891
26.13136301,0.8254224658,-0.4042559266,0.9806801677,2024-06-05 17:19:49.131363
26.17187317,0.9260869622,-0.2334191799,0.9505873322,2024-06-05 17:19:49.171873
26.21233275,0.9191629291,-0.2328865677,0.9516525269,2024-06-05 17:19:49.212333
26.25285697,0.7254236937,0.3589835167,0.8412677646,2024-06-05 17:19:49.252857
26.293329,0.4844147265,-0.01185071748,0.803984642,2024-06-05 17:19:49.293329
26.33382755,0.228758797,-0.2888112962,0.4133104086,2024-06-05 17:19:49.333828
26.37430333,0.0957378149,-0.1002650559,0.05525896326,2024-06-05 17:19:49.374303
26.41480546,-0.02223674022,0.2338186502,-0.4505935609,2024-06-05 17:19:49.414805
26.45528046,-0.1111836955,0.4926702678,-0.7153039575,2024-06-05 17:19:49.455280
26.4957676,-0.2129134536,0.4356803,-1.044061542,2024-06-05 17:19:49.495768
26.53633807,-0.3069202602,0.5070509315,-1.397718906,2024-06-05 17:19:49.536338
26.57674025,-0.4496614933,0.3696358502,-1.623681426,2024-06-05 17:19:49.576740
26.6172476,-0.4232969582,0.2105166763,-1.663095117,2024-06-05 17:19:49.617248
26.65772499,-0.3559209704,0.3595161438,-1.65963304,2024-06-05 17:19:49.657725
26.69819567,-0.2046578974,0.2086525112,-1.463230729,2024-06-05 17:19:49.698196
26.73871119,-0.3346163332,-0.0512643382,-1.410235405,2024-06-05 17:19:49.738711
26.77915728,-0.1940055639,-0.07017222792,-1.242993832,2024-06-05 17:19:49.779157
26.81969223,-0.4054543078,-0.0904116556,-0.813039124,2024-06-05 17:19:49.819692
26.86015645,-0.4499278069,-0.01398118306,-0.4231638312,2024-06-05 17:19:49.860156
26.90071859,-0.2880123854,-0.1932066381,0.0621829778,2024-06-05 17:19:49.900719
26.94114265,-0.1476679295,-0.6090469956,0.1742987484,2024-06-05 17:19:49.941143
26.98162463,-0.141542837,-0.4785559475,0.3295564651,2024-06-05 17:19:49.981625
27.02212275,-0.1111836955,0.1442059278,0.6671021581,2024-06-05 17:19:50.022123
27.06264307,0.03448691964,-0.3900084496,0.6769555807,2024-06-05 17:19:50.062643
27.10306452,0.1410102248,-0.2869471312,0.8777520061,2024-06-05 17:19:50.103065
27.14359916,0.3746957183,0.1391460598,1.129812717,2024-06-05 17:19:50.143599
27.1840901,0.3946688473,-0.2509955168,1.272820354,2024-06-05 17:19:50.184090
27.22457791,0.525426209,0.01371487509,1.370555401,2024-06-05 17:19:50.224578
27.26506187,0.4836157858,-0.2256962508,1.329810262,2024-06-05 17:19:50.265062
27.30555343,0.6537867785,-0.4854799509,1.538595915,2024-06-05 17:19:50.305553
27.3460439,0.5853455663,-0.6947982311,1.559234858,2024-06-05 17:19:50.346044
27.38653447,0.4545882046,-0.7943975329,1.406507015,2024-06-05 17:19:50.386534
27.42700426,0.4687025249,-0.7834789157,1.235803485,2024-06-05 17:19:50.427004
27.46750343,0.1627143472,-0.4793548584,1.02541995,2024-06-05 17:19:50.467503
27.50797703,-0.09227581322,-0.08055824786,1.015300274,2024-06-05 17:19:50.507977
27.54848739,-0.2201037705,0.08508548886,0.5989272594,2024-06-05 17:19:50.548487
27.5889801,-0.3404751122,0.1956034154,-0.02010627277,2024-06-05 17:19:50.588980
27.62946614,-0.3782908916,0.3035914004,-0.4772244096,2024-06-05 17:19:50.629466
27.66994453,-0.5137086511,0.3901416063,-0.8617734909,2024-06-05 17:19:50.669945
27.710424,-0.5741605759,0.5621767044,-1.16043818,2024-06-05 17:19:50.710424
27.75089989,-0.5770899653,0.447930485,-1.410768032,2024-06-05 17:19:50.750900
27.79139202,-0.5786878467,0.3153089881,-1.553376079,2024-06-05 17:19:50.791392
27.83189119,-0.5504591465,0.51956743,-1.55044663,2024-06-05 17:19:50.831891
27.87238703,-0.4985290468,0.5147738457,-1.521951675,2024-06-05 17:19:50.872387
27.91290437,-0.504121542,0.5613778234,-1.413697362,2024-06-05 17:19:50.912904
27.95333385,-0.4198349714,0.2782921195,-1.388664365,2024-06-05 17:19:50.953334
27.99384682,-0.4475310147,-0.03129122034,-1.104513526,2024-06-05 17:19:50.993847
28.03435676,-0.544334054,0.1167761683,-0.6774882078,2024-06-05 17:19:51.034357
28.07483286,-0.5155727863,0.04860125855,-0.314776361,2024-06-05 17:19:51.074833
28.11530885,-0.2848166823,-0.02676397935,-0.07043853402,2024-06-05 17:19:51.115309
28.15581255,-0.1974675655,-0.2832188308,0.09786828607,2024-06-05 17:19:51.155813
28.1963089,-0.1548582464,0.09147688746,0.3536573648,2024-06-05 17:19:51.196309
28.2367926,0.1194392517,0.294803232,0.6963961124,2024-06-05 17:19:51.236793
28.27730421,0.08029194176,0.04354140162,0.6362104416,2024-06-05 17:19:51.277304
28.31779088,0.2039921284,-0.01318225823,0.431153059,2024-06-05 17:19:51.317791
28.35826656,0.1715025157,-0.1157109365,0.3539236784,2024-06-05 17:19:51.358267
28.39876926,0.283085674,0.2964010835,0.5850792527,2024-06-05 17:19:51.398769
28.43924109,0.5480623841,-0.0166442655,1.085072994,2024-06-05 17:19:51.439241
28.47972208,0.3882774413,0.132488355,1.455507755,2024-06-05 17:19:51.479722
28.52020067,0.3653749228,0.04274247587,1.407838583,2024-06-05 17:19:51.520201
28.56070656,0.6239602566,-0.7347444892,1.206243277,2024-06-05 17:19:51.560707
28.60118926,0.6655043364,-0.5459319353,1.211036801,2024-06-05 17:19:51.601189
28.64166755,0.718765974,-0.853251636,1.210237861,2024-06-05 17:19:51.641668
28.68219994,0.6202319264,-0.657248795,1.008376241,2024-06-05 17:19:51.682200
28.72271083,0.4599143565,-0.2989310026,0.7448641658,2024-06-05 17:19:51.722711
28.76315046,0.2756290436,-0.0957378149,0.5259587765,2024-06-05 17:19:51.763150
28.80362452,0.1539261788,-0.1122489274,0.2683055699,2024-06-05 17:19:51.803625
28.84413281,0.03581846133,-0.01478010789,-0.0355521515,2024-06-05 17:19:51.844133
28.88460828,-0.08322133124,0.2596505582,-0.5059856772,2024-06-05 17:19:51.884608
28.92508682,-0.07896039635,0.3280917704,-0.809843421,2024-06-05 17:19:51.925087
28.96559702,-0.1852173954,0.4489957094,-1.058175802,2024-06-05 17:19:51.965597
29.00607411,-0.4075847864,0.473762393,-1.318092704,2024-06-05 17:19:52.006074
29.0465765,-0.4838820994,0.531817615,-1.473883033,2024-06-05 17:19:52.046577
29.08707447,-0.4499278069,0.7035863996,-1.54831624,2024-06-05 17:19:52.087074
29.1275689,-0.5014584661,0.5379426479,-1.635931611,2024-06-05 17:19:52.127569
29.16803682,-0.4584496617,0.4833494723,-1.487198472,2024-06-05 17:19:52.168037
29.2085238,-0.2757622004,0.266308248,-1.352446437,2024-06-05 17:19:52.208524
29.24901801,-0.3218335211,-0.2962679267,-1.299184799,2024-06-05 17:19:52.249018
29.28949223,-0.3841496706,-0.3756277859,-0.9497883916,2024-06-05 17:19:52.289492
29.32999083,-0.3444697261,-0.2240983993,-0.4010602236,2024-06-05 17:19:52.329991
29.37049166,-0.3378120363,-0.5451329947,0.1242327988,2024-06-05 17:19:52.370492
29.41096135,-0.2227668613,-0.3324858546,0.2563216984,2024-06-05 17:19:52.410961
29.45147864,-0.2025274336,-0.1375482082,0.230756104,2024-06-05 17:19:52.451479
29.49195536,-0.08881380409,-0.02090519853,0.3306216896,2024-06-05 17:19:52.491955
29.53246031,0.1372819096,-0.05659050494,0.46018067,2024-06-05 17:19:52.532460
29.57291801,0.2095845938,-0.2065220475,0.5981283188,2024-06-05 17:19:52.572918
29.61339473,0.3637770712,0.3155752718,0.8982577324,2024-06-05 17:19:52.613395
29.65389124,0.4703003764,0.2218347788,1.031012416,2024-06-05 17:19:52.653891
29.69443343,0.4628437459,0.1181077138,0.9929303527,2024-06-05 17:19:52.694433
29.73486734,0.4274247587,0.1540593207,1.103181958,2024-06-05 17:19:52.734867
29.77539515,0.4961322844,0.09706936032,1.313299179,2024-06-05 17:19:52.775395
29.81588473,0.4836157858,-0.52622509,1.360435724,2024-06-05 17:19:52.815885
29.85633598,0.6551182866,-0.4897408783,1.460833907,2024-06-05 17:19:52.856336
29.89683926,0.5816172361,-0.7845441103,1.220890164,2024-06-05 17:19:52.896839
29.93732979,0.487344116,-0.5033226013,1.007843614,2024-06-05 17:19:52.937330
29.97778208,0.1912093312,-0.4671046734,0.779484272,2024-06-05 17:19:52.977782
30.01831281,0.05659050494,-0.2177069932,0.6141068339,2024-06-05 17:19:53.018313
30.0587852,-0.1005313694,0.04966649041,0.2813546658,2024-06-05 17:19:53.058785
30.09927484,-0.1769618392,0.02782921307,0.08109086752,2024-06-05 17:19:53.099275
30.1397765,-0.2051905096,0.1569887102,-0.3595161438,2024-06-05 17:19:53.139776
30.18026255,-0.2920069993,0.5097140074,-0.8125064969,2024-06-05 17:19:53.180263
30.22075708,-0.4017260075,0.6391398311,-1.143660784,2024-06-05 17:19:53.220757
30.26123369,-0.4504604042,0.4742949903,-1.451513171,2024-06-05 17:19:53.261234
30.30177291,-0.5461982489,0.5067846179,-1.645784974,2024-06-05 17:19:53.301773
30.34220229,-0.6141068339,0.555785358,-1.74937892,2024-06-05 17:19:53.342202
30.38269926,-0.540872097,0.6268896461,-1.558169603,2024-06-05 17:19:53.382699
30.42324676,-0.4062532485,0.4340824485,-1.38094151,2024-06-05 17:19:53.423247
30.46371515,-0.3266270757,0.3139774203,-1.276548624,2024-06-05 17:19:53.463715
30.50417109,-0.3623123765,0.06724283099,-1.072023869,2024-06-05 17:19:53.504171
30.54464296,-0.4025249183,0.09254211932,-0.8149032593,2024-06-05 17:19:53.544643
30.5851464,-0.3455349505,-0.03794892505,-0.4780233204,2024-06-05 17:19:53.585146
30.62564676,-0.3122464418,-0.1585865617,-0.2363485843,2024-06-05 17:19:53.625647
30.66614187,-0.142874375,-0.2645772398,0.2025274336,2024-06-05 17:19:53.666142
30.70662791,0.008655018173,-0.2541912198,0.3997286856,2024-06-05 17:19:53.706628
30.7470939,0.0954715088,-0.2115819156,0.3356815577,2024-06-05 17:19:53.747094
30.7875826,0.2380795777,-0.02703028731,0.3874785006,2024-06-05 17:19:53.787583
30.82808848,0.3651086092,-0.1087869257,0.6612433791,2024-06-05 17:19:53.828088
30.86860578,0.481485337,-0.1484668553,0.7957290411,2024-06-05 17:19:53.868606
30.90906583,0.4910724163,0.0432750918,0.7818810344,2024-06-05 17:19:53.909066
30.94954713,0.6010577083,-0.3220998347,0.7035863996,2024-06-05 17:19:53.949547
30.99005239,0.8600425124,-0.176429227,0.8892032504,2024-06-05 17:19:53.990052
31.03052906,1.039800644,-0.5190348029,1.076284766,2024-06-05 17:19:54.030529
31.07101208,1.014767647,-0.4332835376,1.120491982,2024-06-05 17:19:54.071012
31.11151593,1.025686264,-0.4338161349,1.106111288,2024-06-05 17:19:54.111516
31.15200531,0.8033188581,-0.5794867873,1.003316402,2024-06-05 17:19:54.152005
31.19249557,0.7812152505,-0.9797480702,1.208906293,2024-06-05 17:19:54.192496
31.23300312,0.7886719108,-0.7411358953,1.082676172,2024-06-05 17:19:54.233003
31.27346989,0.4167724252,0.2545906901,0.3595161438,2024-06-05 17:19:54.273470
31.31394906,-0.1476679295,1.067762971,-0.5174369216,2024-06-05 17:19:54.313949
31.35443005,-0.6391398311,0.9513862729,-1.023822069,2024-06-05 17:19:54.354430
31.39496322,-0.8758878708,0.6761566401,-1.134606361,2024-06-05 17:19:54.394963
31.43543281,-0.7896040082,0.5768237114,-1.154313087,2024-06-05 17:19:54.435433
31.47589947,-0.2408758104,0.1122489274,-1.121290922,2024-06-05 17:19:54.475899
31.51640244,-0.01797580719,0.9247553945,-1.095725298,2024-06-05 17:19:54.516402
31.55688906,-0.2669740319,1.399582982,-1.119426727,2024-06-05 17:19:54.556889
31.59736119,-0.4665720761,1.217428207,-1.163900256,2024-06-05 17:19:54.597361
31.6378439,-0.416905582,0.6335473657,-1.415295243,2024-06-05 17:19:54.637844
31.67835395,-0.5552527308,-0.0957378149,-1.71822083,2024-06-05 17:19:54.678354
31.71885255,-0.5033226013,-0.3649754524,-1.541658521,2024-06-05 17:19:54.718853
31.7593302,-0.5182358623,-0.9730903506,-1.351381302,2024-06-05 17:19:54.759330
31.7998101,-0.4987953603,-1.012104511,-1.017430663,2024-06-05 17:19:54.799810
31.84029937,-0.2392779738,-0.7648373246,-0.4133104086,2024-06-05 17:19:54.840299
31.88079041,0.3217003644,-0.6223623753,0.7150376439,2024-06-05 17:19:54.880790
31.92128312,0.8967930675,-0.3005288541,1.884929776,2024-06-05 17:19:54.921283
31.96177426,1.210770488,-0.6995918155,2.161890507,2024-06-05 17:19:54.961774
32.00224447,0.9231575727,-0.339409858,1.441393495,2024-06-05 17:19:55.002244
32.0427465,0.6279548407,-0.5336817503,0.8670997024,2024-06-05 17:19:55.042746
32.08323176,0.6058512926,-0.5704323053,0.5563179255,2024-06-05 17:19:55.083232
32.12374083,0.5185021758,-0.0954715088,0.4058537781,2024-06-05 17:19:55.123741
32.16422062,0.3715000153,-0.1734998226,0.4258269072,2024-06-05 17:19:55.164221
32.20468447,0.3930709958,-0.2853493094,0.6838796139,2024-06-05 17:19:55.204684
32.24516505,0.0952052027,-0.8263545036,1.030479789,2024-06-05 17:19:55.245165
32.28569781,0.1244991124,-0.9792154431,1.389729619,2024-06-05 17:19:55.285698
32.3261477,0.3930709958,-1.061904192,1.820483208,2024-06-05 17:19:55.326148
32.36665265,-0.0352858454,-0.1708367467,1.844717264,2024-06-05 17:19:55.366653
32.40713484,0.04593817517,0.06484606117,1.665491819,2024-06-05 17:19:55.407135
32.44766411,-0.1998643428,0.3145100474,1.183074474,2024-06-05 17:19:55.447664
32.4881251,-0.489208281,0.4039896131,0.5161054134,2024-06-05 17:19:55.488125
32.52861932,-0.6567161679,0.3368799388,-0.2286256403,2024-06-05 17:19:55.528619
32.56910328,-0.7323477268,0.6079817414,-0.834610045,2024-06-05 17:19:55.569103
32.60958645,-0.7840114832,0.7328802943,-1.143128157,2024-06-05 17:19:55.609586
32.65007713,-0.8037183285,0.6183677912,-1.184139609,2024-06-05 17:19:55.650077
32.69056114,-0.6953308582,0.7536523938,-1.242194891,2024-06-05 17:19:55.690561
32.73101468,-0.3708342612,0.7557828426,-1.427545428,2024-06-05 17:19:55.731015
32.77156604,-0.1314231306,0.6473953724,-1.508369923,2024-06-05 17:19:55.771566
32.81201609,-0.2408758104,0.3842828274,-1.632469654,2024-06-05 17:19:55.812016
32.85249244,-0.4323514402,0.4319519997,-1.604240894,2024-06-05 17:19:55.852492
32.89297874,-0.6750914454,0.028361829,-1.399582982,2024-06-05 17:19:55.892979
32.93345864,-0.825289309,-0.07709623873,-1.015832901,2024-06-05 17:19:55.933459
32.97399036,-0.8551158309,0.06324820966,-0.6039870977,2024-06-05 17:19:55.973990
33.01451442,-0.4384765327,0.1623148769,-0.2001306564,2024-06-05 17:19:56.014514
33.05494979,0.000932078925,-0.1607170254,0.3954677582,2024-06-05 17:19:56.054950
33.09544958,0.4018591642,0.1018629074,0.8119738698,2024-06-05 17:19:56.095450
33.13593317,0.6950645447,0.1300915778,1.162302375,2024-06-05 17:19:56.135933
33.17646682,0.6005251408,-0.213978678,0.8780183196,2024-06-05 17:19:56.176467
33.21693426,0.4785559475,-0.08002562821,0.3813534081,2024-06-05 17:19:56.216934
33.25745598,0.4356803,-0.0171768833,0.2411421239,2024-06-05 17:19:56.257456
33.29795666,0.453789264,-0.08668334037,0.6580476761,2024-06-05 17:19:56.297957
33.33838697,0.5760247707,0.4790885448,0.7882724404,2024-06-05 17:19:56.338387
33.37890156,0.3752283454,0.07549838722,1.022224188,2024-06-05 17:19:56.378902
33.41936505,0.2532591522,-0.4215659797,1.193726778,2024-06-05 17:19:56.419365
33.45985557,0.4575175941,-0.8479254842,1.486932158,2024-06-05 17:19:56.459856
33.50038728,0.6125090122,-1.064833522,1.639127374,2024-06-05 17:19:56.500387
33.54082062,0.7009233236,-0.9589760303,1.384669781,2024-06-05 17:19:56.540821
33.58134645,0.3632444739,-0.2600499988,1.099187374,2024-06-05 17:19:56.581346
33.62179275,-0.02916075476,0.2142449915,0.7595111728,2024-06-05 17:19:56.621793
33.66224749,-0.3655080795,0.5824161768,0.1306242049,2024-06-05 17:19:56.662247
33.70277062,-0.3993292153,0.343803972,-0.3446028829,2024-06-05 17:19:56.702771
33.74328723,-0.3255618513,0.5307523608,-0.5757584572,2024-06-05 17:19:56.743287
33.78379583,-0.3641765416,0.6777545214,-0.8906679749,2024-06-05 17:19:56.783796
33.82424135,-0.1785596907,0.8784177899,-1.127682328,2024-06-05 17:19:56.824241
33.864739,-0.2310224175,0.6604444981,-1.504375339,2024-06-05 17:19:56.864739
33.90521932,-0.1913424879,0.2284924835,-1.542990088,2024-06-05 17:19:56.905219
33.94571947,-0.02197043039,0.3326190114,-1.556039095,2024-06-05 17:19:56.945719
33.98619551,-0.1913424879,0.1625811905,-1.663893938,2024-06-05 17:19:56.986196
34.02667843,-0.3010614812,0.5712311864,-1.71822083,2024-06-05 17:19:57.026678
34.0671751,-0.4280905128,0.3944025338,-1.438730359,2024-06-05 17:19:57.067175
34.10767854,-0.532083869,-0.02330197208,-1.086138248,2024-06-05 17:19:57.107679
34.14817801,-0.5794867873,0.04167724028,-0.7813484073,2024-06-05 17:19:57.148178
34.18864432,-0.383883357,-0.3999949992,-0.429821521,2024-06-05 17:19:57.188644
34.2291315,-0.07896039635,-0.03954677656,0.05499265343,2024-06-05 17:19:57.229132
34.26961687,0.1274285018,0.03049229458,0.5336817503,2024-06-05 17:19:57.269617
34.31011296,0.4900071919,0.1015966013,1.006245732,2024-06-05 17:19:57.310113
34.35062437,0.6284874678,0.01344856713,1.154313087,2024-06-05 17:19:57.350624
34.39113385,0.4122451842,-0.3372794092,0.5438014865,2024-06-05 17:19:57.391134
34.43160275,0.6378082633,0.006790860556,0.209451437,2024-06-05 17:19:57.431603
34.472069,0.6308842301,-0.7477935553,0.2568543255,2024-06-05 17:19:57.472069
34.51260676,0.6503247619,0.541138351,0.8854749799,2024-06-05 17:19:57.512607
34.55302859,0.4777570069,0.4218322635,1.223286986,2024-06-05 17:19:57.553029
34.59352583,0.4878767133,-0.1998643428,1.246455789,2024-06-05 17:19:57.593526
34.63402223,0.5155727863,-0.2555227578,1.507970452,2024-06-05 17:19:57.634022
34.67452489,0.6636402011,-0.6886731386,1.512764096,2024-06-05 17:19:57.674525
34.71498854,0.5885412693,-0.5683017969,1.236336112,2024-06-05 17:19:57.714989
34.755469,0.2213021666,-0.7075810432,0.9400681257,2024-06-05 17:19:57.755469
34.79598166,0.1914756298,-0.5360785127,0.6726946831,2024-06-05 17:19:57.795982
34.83648817,-0.1684399694,-0.07922670245,0.3954677582,2024-06-05 17:19:57.836488
34.87697728,-0.2928059399,0.1071890742,0.2123808414,2024-06-05 17:19:57.876977
34.91744666,-0.2757622004,0.332885325,-0.3174394369,2024-06-05 17:19:57.917447
34.95791364,-0.2661750913,0.6532541513,-0.868164897,2024-06-05 17:19:57.957914
34.99842432,-0.2509955168,0.537676394,-1.168427467,2024-06-05 17:19:57.998424
35.03892322,-0.1639127284,0.4631100595,-1.38094151,2024-06-05 17:19:58.038923
35.07939546,-0.1742987484,0.3195699155,-1.561897874,2024-06-05 17:19:58.079395
35.11988692,-0.2235657871,0.151928857,-1.695052028,2024-06-05 17:19:58.119887
35.16041911,-0.3300890923,0.0904116556,-1.614094377,2024-06-05 17:19:58.160419
35.20088421,-0.6141068339,0.4633763731,-1.529674649,2024-06-05 17:19:58.200884
35.24135161,-0.6947982311,0.2137123793,-1.5267452,2024-06-05 17:19:58.241352
35.2818277,-0.4987953603,0.1042596847,-1.159106731,2024-06-05 17:19:58.281828
35.32234453,-0.4350145459,-0.1727008969,-0.8644366264,2024-06-05 17:19:58.322345
35.36280187,-0.2994636297,-0.1258306503,-0.5749595165,2024-06-05 17:19:58.362802
35.40332098,-0.02543243766,-0.2411421239,-0.1007976755,2024-06-05 17:19:58.403321
35.44378078,0.1247654185,-0.06324820966,0.1543256342,2024-06-05 17:19:58.443781
35.48427801,0.2599168718,-0.003595161485,0.3414071798,2024-06-05 17:19:58.484278
35.52477374,0.5461982489,-0.220370084,0.5336817503,2024-06-05 17:19:58.524774
35.5652551,0.6388735175,-0.146070078,0.6338136196,2024-06-05 17:19:58.565255
35.6057589,0.7171681523,-0.129292652,0.7347444892,2024-06-05 17:19:58.605759
35.6462288,0.781481564,-0.1788259894,0.8678985834,2024-06-05 17:19:58.646229
35.68674489,0.8200962543,-0.2240983993,0.8865401745,2024-06-05 17:19:58.686745
35.72720572,0.6596455574,-0.1090532318,1.006778359,2024-06-05 17:19:58.727206
35.76769249,0.5054530501,-0.1434070021,1.264831066,2024-06-05 17:19:58.767692
35.80818921,0.482816875,-0.162847504,1.585066795,2024-06-05 17:19:58.808189
35.8487088,0.3081186414,-0.2994636297,1.679073572,2024-06-05 17:19:58.848709
35.8891902,0.1396786869,-0.437011838,1.609567046,2024-06-05 17:19:58.889190
35.92966317,0.02356828004,-0.6881405115,1.305309892,2024-06-05 17:19:58.929663
35.97010744,-0.1500647068,-0.4604469836,0.9931966662,2024-06-05 17:19:58.970107
36.01065947,-0.3415403366,-0.08588441461,0.6396724582,2024-06-05 17:19:59.010659
36.05113979,-0.34846434,0.1327546686,0.3351489305,2024-06-05 17:19:59.051140
36.09164364,-0.5030562878,0.3584509194,-0.04700340703,2024-06-05 17:19:59.091644
36.13208921,-0.5435351729,0.5177032351,-0.6069164872,2024-06-05 17:19:59.132089
36.17257807,-0.6367430687,0.7464620471,-1.067762971,2024-06-05 17:19:59.172578
36.21306692,-0.6343462467,0.6335473657,-1.375082731,2024-06-05 17:19:59.213067
36.25357786,-0.6529878378,0.3848154247,-1.528343081,2024-06-05 17:19:59.253578
36.29404989,-0.6319494843,0.2521939278,-1.58986032,2024-06-05 17:19:59.294050
36.33454322,-0.6575151086,0.3121132851,-1.531272531,2024-06-05 17:19:59.334543
36.37503458,-0.9781502485,0.2929390669,-1.553109765,2024-06-05 17:19:59.375035
36.41554499,-0.9065132737,0.2426068187,-1.460034966,2024-06-05 17:19:59.415545
36.45601218,-0.785343051,0.2950695455,-1.132475853,2024-06-05 17:19:59.456012
36.49650062,-0.6066502333,0.1862826198,-0.9487231374,2024-06-05 17:19:59.496501
36.53700989,-0.4360797703,0.1772281379,-0.7227606177,2024-06-05 17:19:59.537010
36.57751208,-0.08135717362,0.4663057625,-0.3491301239,2024-06-05 17:19:59.577512
36.6179864,0.1210371032,0.5770899653,-0.1106510833,2024-06-05 17:19:59.617986
36.65848473,0.2932053804,0.5035889149,-0.02623136342,2024-06-05 17:19:59.658485
36.69897093,0.3507279754,0.3259612918,-0.008655018173,2024-06-05 17:19:59.698971
36.739414,0.3952014446,0.3366136253,0.03422060981,2024-06-05 17:19:59.739414
36.77992911,0.327026546,0.1876141727,0.109585844,2024-06-05 17:19:59.779929
36.82041963,0.3358147144,0.1748313755,0.1657768935,2024-06-05 17:19:59.820420
36.8609688,0.3275591433,0.02569874749,0.2366148829,2024-06-05 17:19:59.860969
36.90141656,0.316107899,0.2814878225,0.08508548886,2024-06-05 17:19:59.901417
36.94191124,0.04487293959,0.01291595027,-0.3600487709,2024-06-05 17:19:59.941911
36.98234728,-0.007323476952,0.1705704331,-0.5504591465,2024-06-05 17:19:59.982347
37.02283619,0.01504641678,0.1663095057,-0.6543194056,2024-06-05 17:20:00.022836
37.06333411,0.05579157919,0.1133141592,-0.5507254601,2024-06-05 17:20:00.063334
37.10384588,0.1202381775,0.203592658,-0.3318201005,2024-06-05 17:20:00.103846
37.14436385,0.1936061084,-0.06591129303,-0.2232994735,2024-06-05 17:20:00.144364
37.18481739,0.1765623689,0.05206326395,-0.1061238423,2024-06-05 17:20:00.184817
37.22530208,0.214644447,-0.2011958808,0.04753602296,2024-06-05 17:20:00.225302
37.26579213,0.2311555594,-0.2121145278,0.1031944528,2024-06-05 17:20:00.265792
37.30629817,0.278025806,-0.2019948065,0.1058575287,2024-06-05 17:20:00.306298
37.34679369,0.1810896099,-0.2877460718,-0.005193010904,2024-06-05 17:20:00.346794
37.38727531,0.07469946891,-0.2302234918,0.05019910634,2024-06-05 17:20:00.387275
37.42775671,-0.03501953557,-0.3159747422,-0.01185071748,2024-06-05 17:20:00.427757
37.46825234,-0.1090532318,-0.08535179496,-0.03049229458,2024-06-05 17:20:00.468252
37.50873499,-0.1588528752,-0.2424736619,-0.1351514459,2024-06-05 17:20:00.508735
37.5492177,-0.1716356725,-0.176429227,-0.1513962448,2024-06-05 17:20:00.549218
37.58973005,-0.1513962448,-0.2403431982,-0.1268958896,2024-06-05 17:20:00.589730
37.63023182,-0.06378082931,-0.146070078,0.01557903271,2024-06-05 17:20:00.630232
37.67070848,-0.01451379992,-0.2624467909,0.05525896326,2024-06-05 17:20:00.670708
37.7112165,-0.05046541616,-0.2110492885,0.1306242049,2024-06-05 17:20:00.711216
37.75168807,-0.1516625583,-0.2193048447,0.06884068251,2024-06-05 17:20:00.751688
37.79214255,-0.1591191888,-0.2648435533,0.1529940963,2024-06-05 17:20:00.792143
37.83262197,-0.129292652,-0.1593854874,0.1655105799,2024-06-05 17:20:00.832622
37.87309223,-0.1503310055,-0.2195711583,0.1229012609,2024-06-05 17:20:00.873092
37.91359255,-0.1956034154,-0.1495320797,0.07603100687,2024-06-05 17:20:00.913593
37.95409953,-0.2523270845,-0.1146457046,-0.007589785382,2024-06-05 17:20:00.954100
37.99461333,-0.1529940963,-0.2283593267,0.001997311832,2024-06-05 17:20:00.994613
38.03510906,-0.1476679295,-0.2635120153,-0.04380770773,2024-06-05 17:20:01.035109
38.07560583,-0.1695052087,-0.121836029,-0.005459319334,2024-06-05 17:20:01.075606
38.11608572,-0.2099840641,0.04434032366,-0.04886756465,2024-06-05 17:20:01.116086
38.15659406,-0.2254299372,0.07390054315,-0.004660394508,2024-06-05 17:20:01.156594
38.19707124,-0.151928857,0.09999874979,0.06591129303,2024-06-05 17:20:01.197071
38.23754739,0.02703028731,0.1876141727,0.08641702682,2024-06-05 17:20:01.237547
38.27803145,0.1444722265,0.162847504,0.1098521575,2024-06-05 17:20:01.278031
38.31851385,0.1659100503,0.2033263594,0.05286218971,2024-06-05 17:20:01.318514
38.35900067,0.1135804728,0.1940055639,-0.0355521515,2024-06-05 17:20:01.359001
38.39949036,0.1624480337,0.2942706347,-0.02729659714,2024-06-05 17:20:01.399490
38.43999551,0.108254306,0.2155765295,-0.06990591437,2024-06-05 17:20:01.439996
38.48049255,0.146070078,0.1774944514,-0.008388710208,2024-06-05 17:20:01.480493
38.5209814,0.08135717362,0.03501953557,-0.02410089783,2024-06-05 17:20:01.520981
38.56144708,0.05685681105,0.1271621883,0.02543243766,2024-06-05 17:20:01.561447
38.60193828,0.06324820966,-0.1042596847,0.03715000302,2024-06-05 17:20:01.601938
38.64243437,0.07256899774,0.002529928461,0.02410089783,2024-06-05 17:20:01.642434
38.68292359,0.03794892505,-0.07043853402,0.05898727849,2024-06-05 17:20:01.682924
38.723379,-0.009720250964,-0.1138467789,0.01398118306,2024-06-05 17:20:01.723379
38.76387661,0.01770949923,0.06431344151,0.02782921307,2024-06-05 17:20:01.763877
38.80437952,-0.01824211515,-0.02330197208,0.008122402243,2024-06-05 17:20:01.804380
38.84487067,0.05366111174,0.05232957378,0.08242240548,2024-06-05 17:20:01.844871
38.8853589,-0.1015966013,-0.2504629195,0.03262276202,2024-06-05 17:20:01.885359
38.925844,-0.07842778414,-0.07469946891,0.1276948154,2024-06-05 17:20:01.925844
38.96632364,-0.06085143611,0.07283531129,0.06511236727,2024-06-05 17:20:01.966324
39.00687255,-0.1388797611,-0.1362166703,0.04593817517,2024-06-05 17:20:02.006873
39.04733609,-0.07816147059,0.1351514459,0.1375482082,2024-06-05 17:20:02.047336
39.08781645,0.008655018173,-0.1359503716,0.1327546686,2024-06-05 17:20:02.087816
39.12829036,0.05392742157,0.2503297627,0.05046541616,2024-06-05 17:20:02.128290
39.16876932,0.08908011019,0.03635107726,-0.006524552125,2024-06-05 17:20:02.168769
39.20928515,0.1555240154,0.2681724131,-0.03794892505,2024-06-05 17:20:02.209285
39.24977374,0.09174319357,0.0736342296,-0.05632419512,2024-06-05 17:20:02.249774
39.29024562,0.288944453,0.2022611201,-0.01078548469,2024-06-05 17:20:02.290246
39.33073005,0.235949114,-0.01051917579,-0.08508548886,2024-06-05 17:20:02.330730
39.37126656,0.1715025157,0.0573894307,-0.1093195379,2024-06-05 17:20:02.371267
39.41174354,0.2380795777,0.2330197245,-0.114113085,2024-06-05 17:20:02.411744
39.45216291,0.1475347728,0.1705704331,-0.1623148769,2024-06-05 17:20:02.452163
39.49265109,0.2535254657,0.2319544852,-0.03315537795,2024-06-05 17:20:02.492651
39.53314062,0.2447372824,0.0731016174,-0.08934641629,2024-06-05 17:20:02.533141
39.57362869,0.3563204408,0.1663095057,-0.06005251035,2024-06-05 17:20:02.573629
39.61415645,0.2338186502,0.004926702939,-0.1668421179,2024-06-05 17:20:02.614156
39.654644,0.2173075378,-0.05659050494,-0.1585865617,2024-06-05 17:20:02.654644
39.69512229,0.1571218669,-0.1841521561,-0.1468690038,2024-06-05 17:20:02.695122
39.73558171,0.1920082569,-0.07283531129,-0.0544600375,2024-06-05 17:20:02.735582
39.77608978,0.09094426781,-0.5166380405,-0.04354140162,2024-06-05 17:20:02.776090
39.81658739,0.09840089828,-0.230756104,-0.02703028731,2024-06-05 17:20:02.816587
39.8571051,-0.007057168987,-0.3793561161,0.009720250964,2024-06-05 17:20:02.857105
39.8975863,-0.1772281379,-0.4087831676,0.04247616604,2024-06-05 17:20:02.897586
39.93805671,-0.1255643368,-0.2997299433,0.1942718774,2024-06-05 17:20:02.938057
39.97853072,-0.1742987484,-0.363910228,0.2254299372,2024-06-05 17:20:02.978531
40.01903864,-0.129292652,-0.1202381775,0.3143768907,2024-06-05 17:20:03.019039
40.05956463,-0.239810586,-0.5493939519,0.1575213373,2024-06-05 17:20:03.059565
40.10003718,-0.363910228,-0.3223661482,0.06644391268,2024-06-05 17:20:03.100037
40.14051578,-0.3913399875,-0.3133116663,0.04860125855,2024-06-05 17:20:03.140516
40.18103307,-0.1977338791,0.07256899774,0.1873478591,2024-06-05 17:20:03.181033
40.22149765,-0.1876141727,-0.08082455397,0.1362166703,2024-06-05 17:20:03.221498
40.26202005,-0.1364829838,0.007323476952,0.1476679295,2024-06-05 17:20:03.262020
40.30250859,-0.1663095057,-0.02809552103,-0.007323476952,2024-06-05 17:20:03.302509
40.34293098,-0.1380808353,0.08375394344,-0.07975932211,2024-06-05 17:20:03.342931
40.38342583,-0.1013302878,0.01877473295,-0.06591129303,2024-06-05 17:20:03.383426
40.42392437,-0.1444722265,0.03315537795,0.01478010789,2024-06-05 17:20:03.423924
40.46440744,-0.05472634733,-0.05845466256,0.1029281393,2024-06-05 17:20:03.464407
40.5049014,-0.03448691964,0.0352858454,0.03209014609,2024-06-05 17:20:03.504901
40.54539499,-0.02916075476,-0.01930734888,0.01318225823,2024-06-05 17:20:03.545395
40.58587833,-0.1005313694,-0.02463351376,-0.04034570232,2024-06-05 17:20:03.585878
40.62638822,-0.1199718714,-0.01584534161,-0.006258244161,2024-06-05 17:20:03.626388
40.66689322,-0.1194392517,-0.1838858575,0.01770949923,2024-06-05 17:20:03.666893
40.70735328,-0.002263620263,0.08242240548,0.108254306,2024-06-05 17:20:03.707353
40.74783119,-0.03342168778,-0.1439396143,0.04726971686,2024-06-05 17:20:03.747831
40.78833239,-0.009187635034,0.07842778414,0.08029194176,2024-06-05 17:20:03.788332
40.82881739,0.05579157919,0.02197043039,0.01904104091,2024-06-05 17:20:03.828817
40.86933546,0.1130478531,0.07975932211,0.002529928461,2024-06-05 17:20:03.869335
40.90983281,0.1271621883,0.1202381775,-0.03102491237,2024-06-05 17:20:03.909833
40.9502888,0.1600512564,-0.04487293959,-0.06724283099,2024-06-05 17:20:03.950289
40.99077432,0.1842853129,-0.01850842312,-0.121836029,2024-06-05 17:20:03.990774
41.03128312,0.2058562785,-0.09706936032,-0.1306242049,2024-06-05 17:20:04.031283
41.07178359,0.2330197245,0.05366111174,-0.08721595258,2024-06-05 17:20:04.071784
41.1122738,0.1624480337,-0.1268958896,-0.06591129303,2024-06-05 17:20:04.112274
41.1527626,0.1675078869,-0.06298190355,0.01424749196,2024-06-05 17:20:04.152763
41.1932515,0.1343525201,-0.1782933772,0.02383458801,2024-06-05 17:20:04.193252
41.2336788,0.0573894307,-0.2195711583,0.01930734888,2024-06-05 17:20:04.233679
41.27419463,-0.04087831825,-0.3476654291,-0.01478010789,2024-06-05 17:20:04.274195
41.31470364,0.008655018173,-0.3399424851,0.08481918275,2024-06-05 17:20:04.314704
41.35517739,0.02489982173,-0.4359466136,0.1316894293,2024-06-05 17:20:04.355177
41.39566228,0.1170424819,-0.456984967,0.2097177505,2024-06-05 17:20:04.395662
41.43618739,0.06963960826,-0.6758903265,0.2304897904,2024-06-05 17:20:04.436187
41.47669333,0.04966649041,-0.6007914543,0.3234313726,2024-06-05 17:20:04.476693
41.51717447,-0.00998655986,-0.6370093226,0.2952027023,2024-06-05 17:20:04.517174
41.55763562,0.0683080703,-0.5762910843,0.3616466224,2024-06-05 17:20:04.557636
41.59812609,0.1298252791,-0.5243609548,0.3904078901,2024-06-05 17:20:04.598126
41.63862729,-0.1050586104,-0.7539186478,0.3427387178,2024-06-05 17:20:04.638627
41.67909791,-0.2896102369,-0.5661713481,0.3090507388,2024-06-05 17:20:04.679098
41.71954296,-0.4211665094,-0.9528509378,0.3079854846,2024-06-05 17:20:04.719543
41.76003624,-0.3567199111,-0.7997236848,0.6045197248,2024-06-05 17:20:04.760036
41.80055328,-0.1223686412,-0.6101121902,0.8708279729,2024-06-05 17:20:04.800553
41.84106432,-0.06138405204,-0.7073147297,0.8732247949,2024-06-05 17:20:04.841064
41.88154161,0.0384815447,-0.4636426866,0.9873378873,2024-06-05 17:20:04.881542
41.92202312,-0.224897325,-0.7440652847,0.6410039663,2024-06-05 17:20:04.922023
41.96248906,0.009453942999,-0.4958659708,0.9083774686,2024-06-05 17:20:04.962489
42.0029776,-0.08055824786,-0.476958096,0.9161003828,2024-06-05 17:20:05.002978
42.04346619,-0.09760197252,-0.5182358623,0.7866745591,2024-06-05 17:20:05.043466
42.08398291,-0.1418091506,0.1364829838,0.9878704548,2024-06-05 17:20:05.083983
42.12445161,-0.4520582557,-0.1881467849,0.9860063195,2024-06-05 17:20:05.124452
42.16494531,-0.4876104295,0.0685743764,0.8111749291,2024-06-05 17:20:05.164945
42.20546348,-0.5347470045,0.01637795754,0.9129046798,2024-06-05 17:20:05.205463
42.24595208,-0.5089150667,-0.6535204649,1.029680848,2024-06-05 17:20:05.245952
42.2864164,-0.467903614,-0.4993279874,1.206243277,2024-06-05 17:20:05.286416
42.32692911,-0.4304873049,-0.6798849702,1.354310632,2024-06-05 17:20:05.326929
42.36742025,-0.3351489305,-0.5166380405,1.324750423,2024-06-05 17:20:05.367420
42.40790067,-0.369769007,-0.5107792616,1.243526459,2024-06-05 17:20:05.407901
42.4483814,-0.4971975088,-0.5893401504,1.16043818,2024-06-05 17:20:05.448381
42.48885567,-0.4493951797,-0.5446003675,1.074420691,2024-06-05 17:20:05.488856
42.52934171,-0.5592473149,-0.3058550358,0.8828118443,2024-06-05 17:20:05.529342
42.56984031,-0.5379426479,-0.1593854874,0.6830806732,2024-06-05 17:20:05.569840
42.61034838,-0.5861444473,-0.1660431921,0.5179695487,2024-06-05 17:20:05.610348
42.65087234,-0.5629756451,-0.003595161485,0.3101159632,2024-06-05 17:20:05.650872
42.69136114,-0.6039870977,-0.06351451576,0.1007976755,2024-06-05 17:20:05.691361
42.7317613,-0.7350108027,0.1194392517,-0.2206363827,2024-06-05 17:20:05.731761
42.77227343,-0.8050498366,0.272167027,-0.4468652606,2024-06-05 17:20:05.772273
42.81276218,-0.6897383928,0.3051892519,-0.7038527131,2024-06-05 17:20:05.812762
42.85325098,-0.5528559685,0.3177057505,-0.8444634676,2024-06-05 17:20:05.853251
42.89372994,-0.4435364008,0.06671021879,-0.8639039993,2024-06-05 17:20:05.893730
42.93426541,-0.4493951797,0.01291595027,-0.9612396359,2024-06-05 17:20:05.934265
42.97471656,-0.4235632718,0.05099803209,-1.006512046,2024-06-05 17:20:05.974717
43.01523781,-0.4671046734,0.3933372796,-0.9862726331,2024-06-05 17:20:06.015238
43.05572473,-0.4547213614,0.3462007344,-0.9548482299,2024-06-05 17:20:06.055725
43.09619124,-0.356187284,0.167374745,-0.9348751307,2024-06-05 17:20:06.096191
43.13673739,-0.3053224087,0.290275991,-0.9082443118,2024-06-05 17:20:06.136737
43.17719578,-0.3764267266,0.4236964285,-0.9292826653,2024-06-05 17:20:06.177196
43.21765395,-0.343937099,0.4015928507,-0.7925333977,2024-06-05 17:20:06.217654
43.25811864,-0.2773600519,0.3339505494,-0.5834813714,2024-06-05 17:20:06.258119
43.29865135,-0.2392779738,0.2282261699,-0.1796249151,2024-06-05 17:20:06.298651
43.33915156,-0.2065220475,0.07736254483,0.1074553803,2024-06-05 17:20:06.339152
43.37960999,-0.5371437669,-0.02729659714,-0.0467370972,2024-06-05 17:20:06.379610
43.42010687,-0.5848129392,-0.1932066381,0.05659050494,2024-06-05 17:20:06.420107
43.46063343,-0.333551079,-0.3660407066,0.4761591554,2024-06-05 17:20:06.460633
43.50106557,-0.2187722325,-0.4135767221,0.5432688594,2024-06-05 17:20:06.501066
43.54162921,0.008388710208,-0.2360822707,0.6881405115,2024-06-05 17:20:06.541629
43.5820752,0.2450035959,-0.1833532304,0.8955946565,2024-06-05 17:20:06.582075
43.62266635,0.3227656186,-0.6303516626,0.8838770986,2024-06-05 17:20:06.622666
43.66315604,0.327026546,-0.07070484012,0.7411358953,2024-06-05 17:20:06.663156
43.70364578,0.2114487588,-0.546730876,0.3316869438,2024-06-05 17:20:06.703646
43.7440052,0.3954677582,0.3973319232,0.1961360276,2024-06-05 17:20:06.744005
43.78452031,0.2322207987,0.4852136374,0.1015966013,2024-06-05 17:20:06.784520
43.82498926,0.129292652,0.3398093283,0.1330209672,2024-06-05 17:20:06.824989
43.86549796,0.3390104175,0.5067846179,0.4926702678,2024-06-05 17:20:06.865498
43.90599333,0.4774906933,0.281221509,0.5451329947,2024-06-05 17:20:06.905993
43.94645973,0.4026580751,-0.1615159512,0.7110430598,2024-06-05 17:20:06.946460
43.98696749,0.4940018058,-0.1817553788,0.8316806555,2024-06-05 17:20:06.986967
44.02745406,0.6194329858,-0.8817466497,0.8652355075,2024-06-05 17:20:07.027454
44.06793187,0.6545857191,-0.5744268894,0.6900047064,2024-06-05 17:20:07.067932
44.10841984,0.5129097104,-0.2983984053,0.5525896549,2024-06-05 17:20:07.108420
44.14893702,0.1965354979,-0.3388772607,0.4633763731,2024-06-05 17:20:07.148937
44.18942057,0.08029194176,-0.4197018147,0.5912043452,2024-06-05 17:20:07.189421
44.22989484,0.09280842543,-0.3994623721,0.5882749557,2024-06-05 17:20:07.229895
44.27040583,0.0003994623839,-0.5928021669,0.4114462435,2024-06-05 17:20:07.270406
44.31087848,0.04993279651,-0.5392742157,0.2781589627,2024-06-05 17:20:07.310878
44.35139452,-0.01770949923,-0.5363448262,0.0845528692,2024-06-05 17:20:07.351395
44.3919115,-0.03661738336,-0.1809564531,-0.08135717362,2024-06-05 17:20:07.391911
44.43234791,-0.1077216864,-0.0683080703,-0.3185046613,2024-06-05 17:20:07.432348
44.47280921,-0.239810586,0.07869409025,-0.5267577171,2024-06-05 17:20:07.472809
44.51329801,-0.5006595254,0.1199718714,-0.6553846002,2024-06-05 17:20:07.513298
44.55380551,-0.7395380139,0.1822880059,-0.9404675961,2024-06-05 17:20:07.553806
44.59429161,-0.8306154609,0.3501953483,-1.084540367,2024-06-05 17:20:07.594292
44.63477453,-0.9784165621,0.03635107726,-1.068029284,2024-06-05 17:20:07.634775
44.67526416,-1.016232252,-0.1375482082,-0.8794830441,2024-06-05 17:20:07.675264
44.71571161,-0.8908011317,0.2386122048,-0.9378045201,2024-06-05 17:20:07.715712
44.75622921,-0.7568480372,-0.1045259908,-0.9228912592,2024-06-05 17:20:07.756229
44.79672213,-0.6894720793,-0.003062544856,-0.7416685224,2024-06-05 17:20:07.796722
44.83720843,-0.7536523938,-0.2075872868,-0.5675029159,2024-06-05 17:20:07.837208
44.87770098,-0.7587122321,-0.000133154128,-0.5440677404,2024-06-05 17:20:07.877701
44.91822041,-0.730483532,-0.1833532304,-0.5680354834,2024-06-05 17:20:07.918220
44.95869447,-0.5936011076,-0.1758965999,-0.3624455333,2024-06-05 17:20:07.958694
44.99918984,-0.5477960706,-0.2592510879,-0.1508636326,2024-06-05 17:20:07.999190
45.03967676,-0.7129071951,-0.4181039631,-0.08801487833,2024-06-05 17:20:08.039677
45.08017067,-0.7805495262,-0.7139724493,0.04380770773,2024-06-05 17:20:08.080171
45.12066536,-0.5187684894,-0.6111774445,0.3202356696,2024-06-05 17:20:08.120665
45.16113994,-0.2914743721,-0.3149095178,0.4948007464,2024-06-05 17:20:08.161140
45.20162176,-0.1410102248,-0.1684399694,0.7049179673,2024-06-05 17:20:08.201622
45.24211088,0.07709623873,0.0733679235,0.9758865833,2024-06-05 17:20:08.242111
45.28259713,0.127961114,-0.04726971686,0.9278179407,2024-06-05 17:20:08.282597
45.32308473,0.08481918275,0.1671084315,0.4471315742,2024-06-05 17:20:08.323085
45.363569,-0.04913387448,0.2612484097,0.09467258304,2024-06-05 17:20:08.363569
45.40405614,0.08055824786,0.2019948065,0.4114462435,2024-06-05 17:20:08.404056
45.44454994,0.3187709749,0.2197043151,0.7856093645,2024-06-05 17:20:08.444550
45.48503906,0.3784240186,-0.03874785081,0.8553821445,2024-06-05 17:20:08.485039
45.52553197,0.3917394578,0.09786828607,0.8657681346,2024-06-05 17:20:08.525532
45.56603833,0.3587172329,0.03395430371,0.9838758707,2024-06-05 17:20:08.566038
45.60653624,0.2274272442,-0.1071890742,1.277081251,2024-06-05 17:20:08.606536
45.6470139,0.2841508985,-0.08961272985,1.389463305,2024-06-05 17:20:08.647014
45.68748895,0.4726971686,-0.3476654291,1.254178762,2024-06-05 17:20:08.687489
45.7279576,0.6322157979,-0.2957353294,1.193993092,2024-06-05 17:20:08.727958
45.76848463,0.5267577171,-0.4620448351,0.9003882408,2024-06-05 17:20:08.768485
45.80897098,0.6013240218,-0.2462019771,0.6194329858,2024-06-05 17:20:08.808971
45.84944619,0.4641752839,-0.04487293959,0.3677717149,2024-06-05 17:20:08.849446
45.88995749,0.1637795717,0.1471353173,-0.07390054315,2024-06-05 17:20:08.889957
45.93041015,0.1010639817,-0.1063901484,-0.4593817294,2024-06-05 17:20:08.930410
45.97087234,0.1509967744,0.248199299,-0.8721595407,2024-06-05 17:20:08.970872
46.01142104,0.08135717362,0.270835489,-1.065632463,2024-06-05 17:20:09.011421
46.0519101,0.151263088,0.2782921195,-1.264032125,2024-06-05 17:20:09.051910
46.09235145,0.1560566425,0.3504616618,-1.372952223,2024-06-05 17:20:09.092351
46.13283963,-0.07443315536,-0.03049229458,-1.382006645,2024-06-05 17:20:09.132840
46.17333692,-0.2368811965,0.5371437669,-1.345256209,2024-06-05 17:20:09.173337
46.21382223,-0.1671084315,0.5283555984,-1.182541847,2024-06-05 17:20:09.213822
46.25431041,-0.1982664913,0.6271559596,-1.232341409,2024-06-05 17:20:09.254310
46.29481739,-0.1167761683,0.4516588151,-1.240863323,2024-06-05 17:20:09.294817
46.33532817,-0.239810586,0.1023955271,-1.295456529,2024-06-05 17:20:09.335328
46.3758015,-0.3359478712,0.1676410437,-1.343924642,2024-06-05 17:20:09.375802
46.41631703,-0.4571181238,-0.1394123733,-1.159373045,2024-06-05 17:20:09.416317
46.45682265,-0.4841484129,-0.1354177445,-0.7224943042,2024-06-05 17:20:09.456823
46.49731083,-0.3479317427,-0.2153102309,-0.1375482082,2024-06-05 17:20:09.497311
46.53776244,-0.3655080795,-0.3703016341,0.2869471312,2024-06-05 17:20:09.537762
46.57826874,-0.2603163123,-0.3601819277,0.5278229713,2024-06-05 17:20:09.578269
46.61873958,-0.261115253,-0.559779942,0.5501928329,2024-06-05 17:20:09.618740
46.65922755,-0.3042571843,-0.6263570189,0.5113118291,2024-06-05 17:20:09.659228
46.69973864,-0.2033263594,-0.5704323053,0.556584239,2024-06-05 17:20:09.699739
46.74022749,0.06431344151,-0.2938711643,0.6319494843,2024-06-05 17:20:09.740227
46.78071926,0.2599168718,-0.07869409025,0.7310161591,2024-06-05 17:20:09.780719
46.82120484,0.2908086181,-0.01797580719,0.782679975,2024-06-05 17:20:09.821205
46.86166697,0.3251623809,0.2878792286,0.844197154,2024-06-05 17:20:09.861667
46.90213713,0.3049229383,-0.03448691964,0.7635057569,2024-06-05 17:20:09.902137
46.94262593,0.3280917704,0.09706936032,0.8295502067,2024-06-05 17:20:09.942626
46.98310421,0.3688369393,-0.07762885839,1.145791292,2024-06-05 17:20:09.983104
47.02361104,0.3432713449,-0.08987903595,1.142861843,2024-06-05 17:20:10.023611
47.06410244,0.3991960883,-0.1761629134,1.102383018,2024-06-05 17:20:10.064102
47.10460161,0.3912068307,-0.2800231278,1.16416657,2024-06-05 17:20:10.104602
47.14511057,0.4013265371,-0.1604507267,0.8109086156,2024-06-05 17:20:10.145111
47.18559463,0.5129097104,-0.434348762,0.7765548825,2024-06-05 17:20:10.185595
47.2260614,0.2231663167,-0.03342168778,0.7126408815,2024-06-05 17:20:10.226061
47.26655234,0.06404713541,-0.1471353173,0.6218297482,2024-06-05 17:20:10.266552
47.30704135,0.003062544856,-0.1015966013,0.3965329826,2024-06-05 17:20:10.307041
47.34754286,-0.06271559745,-0.06031882018,0.1066564545,2024-06-05 17:20:10.347543
47.38805812,-0.1170424819,0.04194355011,-0.1476679295,2024-06-05 17:20:10.388058
47.42851734,-0.0736342296,0.4979964495,-0.6103785038,2024-06-05 17:20:10.428517
47.46900301,-0.1175750941,0.5211652517,-0.8327459097,2024-06-05 17:20:10.469003
47.50949208,-0.1183740199,0.3041240275,-1.098388433,2024-06-05 17:20:10.509492
47.54997869,-0.07203638554,0.5951989293,-1.323685169,2024-06-05 17:20:10.549979
47.59046354,-0.04167724028,0.3997286856,-1.360435724,2024-06-05 17:20:10.590464
47.63095421,-0.2166417688,-0.3053224087,-1.521685362,2024-06-05 17:20:10.630954
47.6714402,-0.5102466345,0.3685706258,-1.60690403,2024-06-05 17:20:10.671440
47.71192343,-0.517170608,0.3736304939,-1.527277827,2024-06-05 17:20:10.711923
47.7524113,-0.1724345982,0.4908061028,-1.256841779,2024-06-05 17:20:10.752411
47.7928915,-0.4243622124,0.0467370972,-1.098654747,2024-06-05 17:20:10.792892
47.83336676,-0.3676385581,0.1700378209,-1.305576205,2024-06-05 17:20:10.833367
47.8738701,-0.5278229713,-0.3205019832,-1.157775164,2024-06-05 17:20:10.873870
47.91437952,-0.4041227698,0.3730978668,-0.8527190089,2024-06-05 17:20:10.914380
47.95487697,-0.1902772486,-0.007856093347,-0.2043915838,2024-06-05 17:20:10.954877
47.99537775,-0.146070078,-0.1098521575,0.2424736619,2024-06-05 17:20:10.995378
48.03587202,0.03794892505,-0.160983339,0.4375444651,2024-06-05 17:20:11.035872
48.07633666,0.2231663167,-0.2368811965,0.682015419,2024-06-05 17:20:11.076337
48.11683744,0.3286243975,-0.02276935615,0.9214265943,2024-06-05 17:20:11.116837
48.15731322,0.3275591433,-0.04700340703,0.9184971452,2024-06-05 17:20:11.157313
48.19781614,0.3275591433,-0.5608451962,0.7983921766,2024-06-05 17:20:11.197816
48.23831859,0.3254286945,0.6955971718,1.10185039,2024-06-05 17:20:11.238319
48.27879468,0.2117150575,0.2001306564,0.782679975,2024-06-05 17:20:11.278795
48.31928661,0.0949388966,0.02303566411,0.5251598954,2024-06-05 17:20:11.319287
48.35977994,0.2242315561,0.1071890742,0.5118444562,2024-06-05 17:20:11.359780
48.40027161,0.4066527188,-0.1633801162,0.7544512749,2024-06-05 17:20:11.400272
48.44076739,0.4308867455,-0.380687654,1.029947162,2024-06-05 17:20:11.440767
48.48125921,0.5046541691,-0.2850829959,1.291195631,2024-06-05 17:20:11.481259
48.52176989,0.5051867366,-0.5517907143,1.375881553,2024-06-05 17:20:11.521770
48.56226989,0.496398598,-0.767234087,1.308505654,2024-06-05 17:20:11.562270
48.60269322,0.3837502003,-0.2864145339,1.059773684,2024-06-05 17:20:11.602693
48.64314874,0.304390341,-0.378823489,0.7291520238,2024-06-05 17:20:11.643149
48.68366864,0.1319557428,-0.05472634733,0.5006595254,2024-06-05 17:20:11.683669
48.72413515,0.0171768833,0.05099803209,0.3608476818,2024-06-05 17:20:11.724135
48.76465187,-0.02969337068,0.05286218971,0.1916087866,2024-06-05 17:20:11.764652
48.80515624,-0.06591129303,0.04167724028,-0.06324820966,2024-06-05 17:20:11.805156
48.8456339,-0.0126496423,0.05925358832,-0.4364792407,2024-06-05 17:20:11.845634
48.88613781,-0.1189066395,0.1929403245,-0.7198312283,2024-06-05 17:20:11.886138
48.9266113,-0.1878804713,0.3651086092,-0.9852073789,2024-06-05 17:20:11.926611
48.96708036,-0.3977313936,0.3922720551,-1.242194891,2024-06-05 17:20:11.967080
49.0075763,-0.3460675776,0.15512456,-1.269624591,2024-06-05 17:20:12.007576
49.04809536,-0.4315525293,0.03688369319,-1.381740332,2024-06-05 17:20:12.048095
49.08857468,-0.4243622124,0.06111774594,-1.48187232,2024-06-05 17:20:12.088575
49.12907395,-0.3681711555,0.528621912,-1.439262986,2024-06-05 17:20:12.129074
49.16953223,-0.1692388952,0.453789264,-1.263765812,2024-06-05 17:20:12.169532
49.21006937,-0.1636464298,0.3659075499,-1.241928577,2024-06-05 17:20:12.210069
49.25056317,-0.03581846133,0.4023917615,-1.01050663,2024-06-05 17:20:12.250563
49.2910115,-0.1647116542,-0.05153064802,-0.8772193789,2024-06-05 17:20:12.291012
49.33148921,-0.1071890742,-0.05792204663,-0.5741605759,2024-06-05 17:20:12.331489
49.3719965,-0.1705704331,-0.2968005538,-0.3733641803,2024-06-05 17:20:12.371997
49.41245978,-0.2944037914,-0.4391423166,-0.1945381761,2024-06-05 17:20:12.412460
49.45294255,-0.329023838,-0.6149057746,0.08561810106,2024-06-05 17:20:12.452943
49.49343176,-0.21264714,-0.4676373005,0.3015941083,2024-06-05 17:20:12.493432
49.5339264,-0.1354177445,-0.2563216984,0.455653429,2024-06-05 17:20:12.533926
49.57442442,0.08055824786,-0.127961114,0.7669677734,2024-06-05 17:20:12.574424
49.61493557,0.3033251166,0.0243672058,1.058708429,2024-06-05 17:20:12.614936
49.65542692,0.2383458912,-0.1615159512,0.8495233655,2024-06-05 17:20:12.655427
49.69592354,0.1805569977,0.1993317306,0.4545882046,2024-06-05 17:20:12.695924
49.73635984,0.1672415882,0.03448691964,0.3792229593,2024-06-05 17:20:12.736360
49.77689255,0.2697702646,-0.04860125855,0.8146369457,2024-06-05 17:20:12.776893
49.81739104,0.1605838835,0.004127778113,1.109573364,2024-06-05 17:20:12.817391
49.85785093,0.03262276202,-0.3679048419,0.9631038308,2024-06-05 17:20:12.857851
49.89836645,0.1146457046,-0.537676394,1.025153637,2024-06-05 17:20:12.898366
49.9388463,0.1986659616,-0.4460663199,1.204645395,2024-06-05 17:20:12.938846
49.97930057,0.2820204496,-0.6892057657,1.379876256,2024-06-05 17:20:12.979301
50.01982801,0.1930734813,-0.447930485,1.279478073,2024-06-05 17:20:13.019828
50.06030525,0.1515294015,-0.441539079,1.10105145,2024-06-05 17:20:13.060305
50.10080833,0.0352858454,-0.2797568142,0.8306154609,2024-06-05 17:20:13.100808
50.14130234,-0.06138405204,-0.2691044807,0.6002588272,2024-06-05 17:20:13.141302
50.18179374,-0.1085206121,-0.07097115368,0.3220998347,2024-06-05 17:20:13.181794
50.22222161,-0.1593854874,0.158320263,-0.1114500016,2024-06-05 17:20:13.222222
50.26271083,-0.2379464209,0.2014621943,-0.4801537991,2024-06-05 17:20:13.262711
50.30320005,-0.3199693561,0.3866795897,-0.897059381,2024-06-05 17:20:13.303200
50.34371364,-0.3833507299,0.4263595045,-1.163367629,2024-06-05 17:20:13.343714
50.38422369,-0.3764267266,0.3214340508,-1.399050474,2024-06-05 17:20:13.384224
50.42469203,-0.360714525,0.3312874734,-1.552044511,2024-06-05 17:20:13.424692
50.46517702,-0.1426080763,0.4165061116,-1.327946067,2024-06-05 17:20:13.465177
50.50566567,-0.2957353294,0.1444722265,-1.504375339,2024-06-05 17:20:13.505666
50.54615713,-0.3268933892,0.5920032263,-1.633002281,2024-06-05 17:20:13.546157
50.58667906,-0.2675066292,0.8941299915,-1.285603046,2024-06-05 17:20:13.586679
50.62720385,-0.2605826259,0.3640433848,-1.096257925,2024-06-05 17:20:13.627204
50.66764921,-0.2089188248,0.2958684862,-0.9529840946,2024-06-05 17:20:13.667649
50.70809791,-0.1452711523,0.1572550237,-0.6340799332,2024-06-05 17:20:13.708098
50.74858614,-0.07416684926,-0.4178376496,-0.3195699155,2024-06-05 17:20:13.748586
50.78911036,-0.1535267085,-0.1625811905,-0.1029281393,2024-06-05 17:20:13.789110
50.82960411,-0.07469946891,-0.4252942801,0.08029194176,2024-06-05 17:20:13.829604
50.87010531,-0.0467370972,-0.4998605847,0.09999874979,2024-06-05 17:20:13.870105
50.91059187,-0.1189066395,-0.1769618392,0.3146432042,2024-06-05 17:20:13.910592
50.95105926,0.1050586104,0.1181077138,0.6593792439,2024-06-05 17:20:13.951059
50.9915438,0.3107817471,-0.1982664913,0.7062494755,2024-06-05 17:20:13.991544
51.03204906,0.4545882046,0.3456681073,0.7789516449,2024-06-05 17:20:14.032049
51.07250197,0.467903614,-0.004394086078,0.5874760151,2024-06-05 17:20:14.072502
51.11299005,0.3962666988,0.1695052087,0.7856093645,2024-06-05 17:20:14.112990
51.15347765,0.4239627421,0.168706283,0.92036134,2024-06-05 17:20:14.153478
51.19400817,0.3153089881,-0.1327546686,0.8878717422,2024-06-05 17:20:14.194008
51.23451833,0.3395430148,-0.1026618332,0.8314144015,2024-06-05 17:20:14.234518
51.27499338,0.3030588031,-0.2067883611,1.167628527,2024-06-05 17:20:14.274993
51.31549604,0.2247641683,-0.3074528873,1.382805586,2024-06-05 17:20:14.315496
51.35597932,0.3086512685,-0.5126433969,1.431273699,2024-06-05 17:20:14.355979
51.3964489,0.2639114857,-0.6212971807,1.214498758,2024-06-05 17:20:14.396449
51.43693447,0.1439396143,-0.6159709692,1.039800644,2024-06-05 17:20:14.436934
51.47742484,-0.0685743764,-0.3055887222,0.767234087,2024-06-05 17:20:14.477425
51.51789098,-0.2121145278,-0.01025286783,0.5946663618,2024-06-05 17:20:14.517891
51.55838916,-0.3466002047,0.06298190355,0.2086525112,2024-06-05 17:20:14.558389
51.59888702,-0.3053224087,0.1093195379,-0.3544562757,2024-06-05 17:20:14.598887
51.63937275,-0.4030575454,0.3296896219,-0.8242240548,2024-06-05 17:20:14.639373
51.67988916,-0.329023838,0.2982652485,-1.109839678,2024-06-05 17:20:14.679889
51.72039275,-0.389742136,0.4588491321,-1.444056511,2024-06-05 17:20:14.720393
51.76086348,-0.3069202602,0.5243609548,-1.456306696,2024-06-05 17:20:14.760863
51.80134942,-0.06804175675,0.472430855,-1.394523144,2024-06-05 17:20:14.801349
51.84182083,-0.06777545065,0.2163754553,-1.493190408,2024-06-05 17:20:14.841821
51.88229984,-0.1223686412,0.5941337347,-1.678274632,2024-06-05 17:20:14.882300
51.92278926,-0.2347507328,0.7089125514,-1.512098312,2024-06-05 17:20:14.922789
51.96327234,-0.1655105799,0.4801537991,-1.137269378,2024-06-05 17:20:14.963272
52.00377275,-0.3532578945,0.3033251166,-0.9881367683,2024-06-05 17:20:15.003773
52.04426385,-0.3591166735,0.1372819096,-0.700124383,2024-06-05 17:20:15.044264
52.08475578,-0.1833532304,-0.1031944528,-0.49506706,2024-06-05 17:20:15.084756
52.12523031,-0.2491313666,-0.2874797583,-0.1908098608,2024-06-05 17:20:15.125230
52.16572666,-0.1692388952,-0.5035889149,0.1822880059,2024-06-05 17:20:15.165727
52.20623265,-0.02143781446,-0.7046516538,0.2704360485,2024-06-05 17:20:15.206233
52.24672161,0.1194392517,-0.5161054134,0.4748276174,2024-06-05 17:20:15.246722
52.28718192,0.1271621883,-0.1010639817,0.6034545302,2024-06-05 17:20:15.287182
52.32769124,0.2074541301,0.0845528692,0.5613778234,2024-06-05 17:20:15.327691
52.36816666,0.2769605815,0.4037233293,0.6737598777,2024-06-05 17:20:15.368167
52.40865744,0.4125114977,0.6263570189,0.7451304793,2024-06-05 17:20:15.408657
52.44914301,0.4378107786,0.319303602,1.048855066,2024-06-05 17:20:15.449143
52.48965604,0.4684362113,0.4199681282,1.374816418,2024-06-05 17:20:15.489656
52.53012416,0.09014534205,-0.0949388966,1.460034966,2024-06-05 17:20:15.530124
52.57063515,-0.05099803209,-0.8034520149,1.603441954,2024-06-05 17:20:15.570635
52.61113255,0.2588516176,-0.490539819,1.325549364,2024-06-05 17:20:15.611133
52.65158765,0.605052352,-0.691069901,1.147655487,2024-06-05 17:20:15.651588
52.6921126,0.2649767101,-0.4111799598,1.132209539,2024-06-05 17:20:15.692113
52.73257442,0.05925358832,-0.4825505614,0.8870728016,2024-06-05 17:20:15.732574
52.77303354,-0.01185071748,-0.03448691964,0.3430050313,2024-06-05 17:20:15.773034
52.81356624,-0.244337827,-0.3962666988,0.03581846133,2024-06-05 17:20:15.813566
52.85402666,-0.08721595258,-0.4274247587,0.03288906813,2024-06-05 17:20:15.854027
52.8945288,-0.2270277888,-0.08109086752,-0.1420754492,2024-06-05 17:20:15.894529
52.93502796,-0.1050586104,0.1194392517,-0.258452177,2024-06-05 17:20:15.935028
52.97552609,-0.264310956,0.9710930586,-0.6045197248,2024-06-05 17:20:15.975526
53.01601343,-0.3948020041,0.705716908,-0.7675004005,2024-06-05 17:20:16.016013
53.0564838,-0.4057206213,0.7906692028,-1.16789484,2024-06-05 17:20:16.056484
53.09697583,-0.2821536064,0.5216978788,-1.422219276,2024-06-05 17:20:16.096976
53.13745515,-0.08748225868,0.4529903531,-1.742987514,2024-06-05 17:20:16.137455
53.17795989,-0.02356828004,0.476958096,-1.733400464,2024-06-05 17:20:16.177960
53.21843791,-0.0384815447,0.4878767133,-1.643654585,2024-06-05 17:20:16.218438
53.25892661,-0.09387365729,0.5608451962,-1.52381587,2024-06-05 17:20:16.258927
53.2994201,-0.2933385372,0.3262276053,-1.239265442,2024-06-05 17:20:16.299420
53.33991078,-0.3705679476,-0.1183740199,-0.9479242563,2024-06-05 17:20:16.339911
53.38039452,-0.2922733128,-0.334882617,-0.4916050434,2024-06-05 17:20:16.380395
53.42088317,-0.0683080703,-0.2102503628,-0.001997311832,2024-06-05 17:20:16.420883
53.46139286,-0.03928046674,-0.2406095117,0.160983339,2024-06-05 17:20:16.461393
53.50188499,-0.09653674066,-0.1817553788,0.0949388966,2024-06-05 17:20:16.501885
53.54237364,-0.09014534205,-0.02623136342,0.02516612969,2024-06-05 17:20:16.542374
53.58280781,0.1029281393,0.1119826213,0.2390116602,2024-06-05 17:20:16.582808
53.62331473,0.3906742036,0.1346188188,0.6756240726,2024-06-05 17:20:16.623315
53.66382546,0.5845466256,0.4159734845,1.077083707,2024-06-05 17:20:16.663825
53.70428984,0.4338161349,0.3446028829,1.001452208,2024-06-05 17:20:16.704290
53.74477187,0.3909405172,0.504121542,0.6857437491,2024-06-05 17:20:16.744772
53.78527447,0.3344831765,0.1093195379,0.7688319087,2024-06-05 17:20:16.785274
53.82577046,0.51956743,0.332885325,0.9070459008,2024-06-05 17:20:16.825770
53.8662614,0.5848129392,0.02995967865,0.9700278044,2024-06-05 17:20:16.866261
53.90677078,0.6215634942,-0.1785596907,1.086404562,2024-06-05 17:20:16.906771
53.94726598,0.6761566401,-0.5414046645,1.370022774,2024-06-05 17:20:16.947266
53.98772489,0.657248795,-0.3970656097,1.469355822,2024-06-05 17:20:16.987725
54.02821723,0.5235620141,-0.8987903595,1.308239341,2024-06-05 17:20:17.028217
54.06874171,0.3611139953,-0.7611089945,1.022490501,2024-06-05 17:20:17.068742
54.10927005,0.08481918275,-0.253392309,0.6199656129,2024-06-05 17:20:17.109270
54.1496876,-0.1210371032,0.02596505545,0.3414071798,2024-06-05 17:20:17.149688
54.19018135,-0.1708367467,0.06644391268,-0.05046541616,2024-06-05 17:20:17.190181
54.23067057,-0.1748313755,0.1271621883,-0.5019910336,2024-06-05 17:20:17.230671
54.27116114,-0.252060771,0.2169080675,-0.8925321102,2024-06-05 17:20:17.271161
54.31164583,-0.2496639937,0.4527240396,-1.176949382,2024-06-05 17:20:17.311646
54.35213473,-0.176429227,0.5355458856,-1.31702745,2024-06-05 17:20:17.352135
54.39261583,-0.08961272985,0.427957356,-1.373218536,2024-06-05 17:20:17.392616
54.43309499,0.02037258074,0.04167724028,-1.41582787,2024-06-05 17:20:17.433095
54.47357973,0.03501953557,0.3906742036,-1.43287158,2024-06-05 17:20:17.473580
54.51408833,-0.2467346042,0.5904054046,-1.521419048,2024-06-05 17:20:17.514088
54.55458635,-0.3961335421,0.2788247466,-1.519022346,2024-06-05 17:20:17.554586
54.59507354,-0.4475310147,0.4103810191,-1.473616719,2024-06-05 17:20:17.595074
54.63556859,-0.3977313936,-0.1761629134,-1.220890164,2024-06-05 17:20:17.635569
54.67607234,-0.5275566578,-0.3173062801,-0.797593236,2024-06-05 17:20:17.676072
54.71649322,-0.4174381793,-0.516371727,-0.2632457018,2024-06-05 17:20:17.716493
54.75701645,-0.3750951886,-0.5683017969,0.1439396143,2024-06-05 17:20:17.757016
54.79754557,-0.2347507328,-0.2821536064,0.259783715,2024-06-05 17:20:17.797546
54.83802104,-0.06298190355,-0.3284912407,0.2523270845,2024-06-05 17:20:17.838021
54.8784926,0.07523208112,-0.250729233,0.3213009238,2024-06-05 17:20:17.878493
54.91898119,0.2399437428,-0.08987903595,0.4588491321,2024-06-05 17:20:17.918981
54.95943025,0.3675054014,-0.06963960826,0.7131735086,2024-06-05 17:20:17.959430
54.999949,0.5027899742,0.1157109365,0.9631038308,2024-06-05 17:20:17.999949
55.04046942,0.4812190235,0.07576470077,1.223020673,2024-06-05 17:20:18.040469
55.08096374,0.4210333526,0.09467258304,1.384936094,2024-06-05 17:20:18.080964
55.121454,0.2865476906,-0.2304897904,1.381740332,2024-06-05 17:20:18.121454
55.16196088,0.2053236663,-0.1860163212,1.35191381,2024-06-05 17:20:18.161961
55.20245817,0.2021279633,-0.3239639997,1.230743647,2024-06-05 17:20:18.202458
55.24290426,0.1797580719,-0.3423392773,1.160171866,2024-06-05 17:20:18.242904
55.2833663,0.2370143533,-0.3801550269,1.253379822,2024-06-05 17:20:18.283366
55.32386921,0.2796236575,-0.5414046645,1.291728139,2024-06-05 17:20:18.323869
55.36435109,0.1757634431,-0.5097140074,1.1396662,2024-06-05 17:20:18.364351
55.40483916,-0.02330197208,-0.4886756539,0.7472609878,2024-06-05 17:20:18.404839
55.44532817,-0.1513962448,-0.2829525173,0.2560553849,2024-06-05 17:20:18.445328
55.48581687,-0.2723001838,0.2916075289,-0.3659075499,2024-06-05 17:20:18.485817
55.52632926,-0.3178389072,0.248199299,-0.5850792527,2024-06-05 17:20:18.526329
55.56681765,-0.368437469,0.3533910513,-0.943130672,2024-06-05 17:20:18.566818
55.60729874,-0.3303554058,0.5379426479,-1.212900996,2024-06-05 17:20:18.607299
55.64778572,-0.3396761715,0.4258269072,-1.50597322,2024-06-05 17:20:18.647786
55.68828291,-0.162847504,0.4519250989,-1.50970149,2024-06-05 17:20:18.688283
55.72874671,-0.09360735118,0.1972012669,-1.487198472,2024-06-05 17:20:18.728747
55.76924801,0.04380770773,0.3715000153,-1.445388079,2024-06-05 17:20:18.769248
55.80975369,-0.09254211932,0.8146369457,-1.426213861,2024-06-05 17:20:18.809754
55.85021432,-0.1964023411,0.4159734845,-1.501712203,2024-06-05 17:20:18.850214
55.89073041,-0.2866808474,0.3387441039,-1.439262986,2024-06-05 17:20:18.890730
55.93121385,-0.3378120363,-0.007589785382,-1.07735002,2024-06-05 17:20:18.931214
55.97166697,-0.24753353,-0.2446041405,-0.623693943,2024-06-05 17:20:18.971667
56.01215624,-0.1804238409,-0.4002613127,-0.2054568231,2024-06-05 17:20:19.012156
56.05263406,-0.05179695413,-0.4026580751,0.1194392517,2024-06-05 17:20:19.052634
56.09317671,0.04726971686,-0.2326202542,0.3848154247,2024-06-05 17:20:19.093177
56.1336152,0.07922670245,-0.04141093418,0.6223623753,2024-06-05 17:20:19.133615
56.17414775,0.2838846147,-0.03288906813,0.773625493,2024-06-05 17:20:19.174148
56.21462786,0.2774932086,-0.003861469682,0.7493914366,2024-06-05 17:20:19.214628
56.25511708,0.3022598624,0.02037258074,0.5382089615,2024-06-05 17:20:19.255117
56.29561364,0.164844811,0.06138405204,0.6830806732,2024-06-05 17:20:19.295614
56.3360888,0.1436733007,0.06937330216,1.305576205,2024-06-05 17:20:19.336089
56.37660307,0.0243672058,-0.232087642,1.470421076,2024-06-05 17:20:19.376603
56.41708906,0.02916075476,-0.6825480461,1.436067224,2024-06-05 17:20:19.417089
56.45757525,0.06884068251,-0.7262226343,1.463230729,2024-06-05 17:20:19.457575
56.49803078,0.08694964647,-0.3833507299,1.495187759,2024-06-05 17:20:19.498031
56.53852578,0.0954715088,-0.3660407066,1.311701298,2024-06-05 17:20:19.538526
56.57905979,0.06910699606,-0.5600462556,1.151117444,2024-06-05 17:20:19.579060
56.61953687,0.04247616604,-0.7818810344,0.9559134841,2024-06-05 17:20:19.619537
56.66001041,-0.1703041345,-0.2121145278,0.5784215331,2024-06-05 17:20:19.660010
56.70052364,-0.3481980562,-0.05046541616,0.4157072008,2024-06-05 17:20:19.700524
56.74098275,-0.3109148741,-0.112781547,0.2089188248,2024-06-05 17:20:19.740983
56.78147156,-0.3210346103,0.2383458912,-0.4228975177,2024-06-05 17:20:19.781472
56.82197374,-0.3732310236,0.5762910843,-0.9362066984,2024-06-05 17:20:19.821974
56.86246291,-0.3833507299,0.6063839197,-1.123421431,2024-06-05 17:20:19.862463
56.90295203,-0.4230306745,0.712374568,-1.346587658,2024-06-05 17:20:19.902952
56.94344119,-0.3609808385,0.5560516119,-1.406240702,2024-06-05 17:20:19.943441
56.98391124,-0.0464707911,0.4897408783,-1.448051095,2024-06-05 17:20:19.983911
57.02440536,-0.2640446424,0.4708330035,-1.577876449,2024-06-05 17:20:20.024405
57.06488838,-0.3772256374,0.489208281,-1.848978162,2024-06-05 17:20:20.064888
57.10538775,-0.2501966059,0.8674991727,-1.668421268,2024-06-05 17:20:20.105388
57.14590473,-0.1729672104,0.3299559355,-1.168960094,2024-06-05 17:20:20.145905
57.1863788,-0.2880123854,0.03155753016,-0.8354089856,2024-06-05 17:20:20.186379
57.22685755,-0.4198349714,-0.162847504,-0.438876003,2024-06-05 17:20:20.226858
57.26733619,-0.3111811876,-0.1340862066,-0.255256474,2024-06-05 17:20:20.267336
57.30783661,-0.2904091477,-0.1237001866,0.004127778113,2024-06-05 17:20:20.307837
57.34831426,-0.121836029,-0.109585844,0.4252942801,2024-06-05 17:20:20.348314
57.38880187,0.03901416063,-0.127961114,0.583747685,2024-06-05 17:20:20.388802
57.42930426,0.4079842567,0.06777545065,0.7419347763,2024-06-05 17:20:20.429304
57.46979234,0.491871357,0.3150426745,0.7675004005,2024-06-05 17:20:20.469792
57.51027104,0.5102466345,0.1106510833,0.6777545214,2024-06-05 17:20:20.510271
57.55076421,0.4961322844,0.2604494691,0.7142387629,2024-06-05 17:20:20.550764
57.59130354,0.7860088348,0.7206301689,1.040333152,2024-06-05 17:20:20.591304
57.63178728,0.6053186655,0.09919982404,1.193194151,2024-06-05 17:20:20.631787
57.67226161,0.4045222402,-0.3772256374,1.289331436,2024-06-05 17:20:20.672262
57.71268822,0.5659050345,-0.02303566411,1.478410244,2024-06-05 17:20:20.712688
57.75317708,0.7169018388,-0.5906717181,1.484002709,2024-06-05 17:20:20.753177
57.79366817,0.6671021581,-0.694265604,1.418224573,2024-06-05 17:20:20.793668
57.83416781,0.5920032263,-0.984275341,1.321820974,2024-06-05 17:20:20.834168
57.87467968,0.1125152409,-0.3167736828,0.9421986341,2024-06-05 17:20:20.874680
57.91516791,-0.2627131045,-0.160983339,0.487344116,2024-06-05 17:20:20.915168
57.95566775,-0.3183715343,0.1948044896,-0.04034570232,2024-06-05 17:20:20.955668
57.99613979,-0.2379464209,0.1002650559,-0.1572550237,2024-06-05 17:20:20.996140
58.03664989,-0.1860163212,0.01930734888,-0.5043878555,2024-06-05 17:20:21.036650
58.07713729,-0.114113085,0.4633763731,-0.9686962962,2024-06-05 17:20:21.077137
58.1176188,-0.1239664927,0.5861444473,-1.292260766,2024-06-05 17:20:21.117619
58.15812234,-0.1500647068,0.447930485,-1.33194077,2024-06-05 17:20:21.158122
58.19860083,-0.08348763734,0.1865489334,-1.493190408,2024-06-05 17:20:21.198601
58.23906666,0.05872096866,0.2580527067,-1.688926935,2024-06-05 17:20:21.239067
58.27956895,-0.03182383627,0.441539079,-1.725943804,2024-06-05 17:20:21.279569
58.32006031,-0.2496639937,0.2091851383,-1.657502532,2024-06-05 17:20:21.320060
58.36054614,-0.3175725937,0.2455362082,-1.586664557,2024-06-05 17:20:21.360546
58.40104973,-0.3860138059,-0.01398118306,-1.493190408,2024-06-05 17:20:21.401050
58.44156609,-0.2504629195,-0.4007939398,-0.9870715737,2024-06-05 17:20:21.441566
58.48203494,-0.1242327988,-0.4812190235,-0.3142437339,2024-06-05 17:20:21.482035
58.52249338,-0.1396786869,-0.4458000064,0.2150439173,2024-06-05 17:20:21.522493
58.56298239,-0.1404775977,-0.3780245781,0.486012578,2024-06-05 17:20:21.562982
58.60347145,-0.08481918275,0.2244978547,0.489208281,2024-06-05 17:20:21.603471
58.64395817,0.05259587988,-0.09627043456,0.5480623841,2024-06-05 17:20:21.643958
58.68445947,0.2215684652,0.02916075476,0.5800193548,2024-06-05 17:20:21.684459
58.7249002,0.1587197185,0.05312849581,0.3746957183,2024-06-05 17:20:21.724900
58.76543578,0.276694268,0.2110492885,0.513974905,2024-06-05 17:20:21.765436
58.80592885,0.2007964253,0.4127778113,1.033409238,2024-06-05 17:20:21.805929
58.84641072,0.1800243855,-0.04913387448,1.36309886,2024-06-05 17:20:21.846411
58.88690421,0.08987903595,-0.3037245572,1.495986581,2024-06-05 17:20:21.886904
58.92737343,0.4513925016,-0.3138442934,1.654040575,2024-06-05 17:20:21.927373
58.96785656,0.4197018147,-0.6676347852,1.642056704,2024-06-05 17:20:21.967857
59.00844098,0.3946688473,-0.496398598,1.445920706,2024-06-05 17:20:22.008441
59.04886421,0.3595161438,-0.8694964647,1.239531755,2024-06-05 17:20:22.048864
59.0893751,0.2529928386,-0.5872097015,0.8455287218,2024-06-05 17:20:22.089375
59.12984281,-0.05179695413,-0.4378107786,0.5371437669,2024-06-05 17:20:22.129843
59.17033354,-0.1412765235,0.07896039635,0.2323539555,2024-06-05 17:20:22.170334
59.21090458,-0.3508611321,0.3746957183,-0.02143781446,2024-06-05 17:20:22.210905
59.25134135,-0.2368811965,0.1870815456,-0.2873466015,2024-06-05 17:20:22.251341
59.29183036,-0.277892679,0.3035914004,-0.7664351463,2024-06-05 17:20:22.291830
59.33224229,-0.4328840673,0.3762935698,-1.082143545,2024-06-05 17:20:22.332242
59.37273124,-0.5155727863,0.4327509105,-1.370555401,2024-06-05 17:20:22.372731
59.41321885,-0.3583177626,0.5326164961,-1.427545428,2024-06-05 17:20:22.413219
59.45370718,-0.1045259908,0.01398118306,-1.526478887,2024-06-05 17:20:22.453707
59.49422239,-0.09094426781,0.7941312194,-1.639127374,2024-06-05 17:20:22.494222
59.53472135,-0.2017285079,0.6372756362,-1.574680686,2024-06-05 17:20:22.534721
59.57524025,-0.2999962568,0.4913387299,-1.706236959,2024-06-05 17:20:22.575240
59.61569452,-0.2001306564,0.417571336,-1.431273699,2024-06-05 17:20:22.615695
59.65623452,-0.1977338791,0.01531272475,-0.9958597422,2024-06-05 17:20:22.656235
59.69672583,-0.1479342431,-0.07842778414,-0.5030562878,2024-06-05 17:20:22.696726
59.73712484,-0.05552527308,-0.4383433759,0.002263620263,2024-06-05 17:20:22.737125
59.77764223,-0.01025286783,-0.2872134447,0.2826862037,2024-06-05 17:20:22.777642
59.8181726,-0.04141093418,0.1117163152,0.4609795809,2024-06-05 17:20:22.818173
59.8586538,0.1701709777,0.141542837,0.5640408993,2024-06-05 17:20:22.858654
59.89911963,0.2828193605,-0.03448691964,0.5896064639,2024-06-05 17:20:22.899120
59.93961619,0.3363473415,0.1005313694,0.7696308494,2024-06-05 17:20:22.939616
59.98006088,0.4226312041,0.3797555864,0.9275516272,2024-06-05 17:20:22.980061
60.02058921,0.5153064728,0.1071890742,1.049920321,2024-06-05 17:20:23.020589
60.06107854,0.3443365693,0.03741630912,1.411566854,2024-06-05 17:20:23.061079
60.10156937,0.2636451721,-0.02569874749,1.514894485,2024-06-05 17:20:23.101569
60.14207801,0.2399437428,-0.6524552107,1.444855452,2024-06-05 17:20:23.142078
60.18251317,0.2591179311,-0.5326164961,1.429675817,2024-06-05 17:20:23.182513
60.22302244,0.5304860473,-0.5097140074,1.346055031,2024-06-05 17:20:23.223022
60.26351442,0.3307548463,-0.6087806821,1.222221732,2024-06-05 17:20:23.263514
60.30401807,0.04061200842,-0.496398598,1.129013896,2024-06-05 17:20:23.304018
60.34451364,-0.0683080703,-0.2800231278,0.8021204472,2024-06-05 17:20:23.344514
60.38499562,-0.2613815665,-0.2025274336,0.3904078901,2024-06-05 17:20:23.384996
60.42550505,-0.2800231278,-0.079493016,0.02117150649,2024-06-05 17:20:23.425505
60.46597234,-0.3252955377,0.2777595222,-0.6306179762,2024-06-05 17:20:23.465972
60.50646328,-0.3050560951,0.6644390821,-1.050186634,2024-06-05 17:20:23.506463
60.54694874,-0.2752295732,0.5714974999,-1.216362953,2024-06-05 17:20:23.546949
60.58744093,-0.3492632806,0.3448691964,-1.393191695,2024-06-05 17:20:23.587441
60.62796025,-0.3034582436,0.4117125571,-1.494255662,2024-06-05 17:20:23.627960
60.66842697,-0.2856155932,-0.05019910634,-1.581604719,2024-06-05 17:20:23.668427
60.70886171,-0.3322195411,0.3808208108,-1.729405761,2024-06-05 17:20:23.708862
60.74936723,-0.3511274457,0.6396724582,-1.638062119,2024-06-05 17:20:23.749367
60.78988296,-0.3175725937,0.3533910513,-1.488396883,2024-06-05 17:20:23.789883
60.83037161,-0.1945381761,0.1809564531,-1.243792653,2024-06-05 17:20:23.830372
60.87088452,-0.2198374718,-0.1077216864,-0.9481905699,2024-06-05 17:20:23.870885
60.91136197,-0.1969349533,0.1734998226,-0.541138351,2024-06-05 17:20:23.911362
60.95182333,-0.1117163152,-0.3093170524,-0.2336854935,2024-06-05 17:20:23.951823
60.99229822,-0.03501953557,-0.1692388952,0.06298190355,2024-06-05 17:20:23.992298
61.03278874,0.07762885839,-0.09440627694,0.4452674091,2024-06-05 17:20:24.032789
61.07327775,0.005193010904,0.4335498512,0.6918688416,2024-06-05 17:20:24.073278
61.11380249,-0.0541937314,0.07842778414,0.806647718,2024-06-05 17:20:24.113802
61.15429239,0.06617759913,-0.1804238409,1.096524239,2024-06-05 17:20:24.154292
61.19477234,0.1597849578,0.2311555594,1.375615239,2024-06-05 17:20:24.194772
61.23525551,0.4894745648,-0.4316856861,1.495720267,2024-06-05 17:20:24.235256
61.27572895,1.182275534,0.4119788706,1.757101893,2024-06-05 17:20:24.275729
