Time (s),Linear Acceleration x (m/s^2),Linear Acceleration y (m/s^2),Linear Acceleration z (m/s^2),Datetime
0.052388142,0.0,0.0,0.0,2024-06-05 17:19:23.052388
0.092876996,-0.03646802902,-0.03225183487,0.06174755096,2024-06-05 17:19:23.092877
0.177954027,-0.1940720081,0.2561335564,-0.2551488876,2024-06-05 17:19:23.177954
0.218447152,0.4063149691,-0.1110415459,0.5530848503,2024-06-05 17:19:23.218447
0.258922777,-0.1202590466,-0.4523906708,1.600099087,2024-06-05 17:19:23.258923
0.299413298,0.9058572054,-0.4291653633,1.590427399,2024-06-05 17:19:23.299413
0.339911267,-0.7040064335,0.0004191398621,-0.5787258148,2024-06-05 17:19:23.339911
0.380381319,0.6096377373,-0.4027638435,-1.223898411,2024-06-05 17:19:23.380381
0.420889496,0.8739114404,-1.23831296,0.03773403168,2024-06-05 17:19:23.420889
0.461362048,0.8179840446,-2.325143814,1.244398117,2024-06-05 17:19:23.461362
0.501857933,-0.1628855467,-2.590445042,1.927087784,2024-06-05 17:19:23.501858
0.5423571,-0.5854874849,-0.118285656,1.208195686,2024-06-05 17:19:23.542357
0.582828142,-1.361600757,1.005871773,1.506572723,2024-06-05 17:19:23.582828
0.623310902,-0.8906652331,0.6364889145,-0.1898412704,2024-06-05 17:19:23.623311
0.663805069,-1.062913179,0.02566051483,-1.163426399,2024-06-05 17:19:23.663805
0.704306162,-0.6418458223,-0.6544779539,0.1087770462,2024-06-05 17:19:23.704306
0.744790485,-0.8577455282,-0.2292692661,1.151498795,2024-06-05 17:19:23.744790
0.785292673,-1.023538828,0.6026618481,0.7257928848,2024-06-05 17:19:23.785293
0.825790537,-1.134224653,-0.7082285881,0.1332502365,2024-06-05 17:19:23.825791
0.866274235,-0.3401875496,0.1417598724,-1.033551216,2024-06-05 17:19:23.866274
0.906778246,-1.051282644,0.173361063,-0.8483600616,2024-06-05 17:19:23.906778
0.947244287,-0.6929680109,1.154897213,-0.6727466583,2024-06-05 17:19:23.947244
0.987738194,-0.9283160567,0.5974419117,1.094903946,2024-06-05 17:19:23.987738
1.028228558,0.08739721775,-0.1774978638,0.5577116013,2024-06-05 17:19:24.028229
1.068745589,-0.460739255,-0.05823397636,-0.8156070709,2024-06-05 17:19:24.068746
1.109302048,0.391256094,-0.07269239426,-0.8933877945,2024-06-05 17:19:24.109302
1.149679027,0.7560858727,-0.4392857552,1.979154587,2024-06-05 17:19:24.149679
1.190183506,1.654296637,-0.9479207993,1.835879326,2024-06-05 17:19:24.190184
1.230659183,-0.0292506218,-0.369790554,-2.858998775,2024-06-05 17:19:24.230659
1.271153714,1.619427919,-0.9802007675,-2.388110161,2024-06-05 17:19:24.271154
1.311639444,4.648877621,-1.401970625,-0.694439888,2024-06-05 17:19:24.311639
1.352117621,3.612444401,-1.566853404,0.519162178,2024-06-05 17:19:24.352118
1.392612308,0.9189209938,-1.132707596,-3.522905827,2024-06-05 17:19:24.392612
1.433107152,-1.761733532,-0.8159219027,-3.883496284,2024-06-05 17:19:24.433107
1.473595642,-3.392624855,-0.7466814518,-1.817700863,2024-06-05 17:19:24.473596
1.514078246,-3.477069855,-0.2106211185,3.829368114,2024-06-05 17:19:24.514078
1.554561475,-4.538772106,0.3431499004,0.812836647,2024-06-05 17:19:24.554561
1.595046214,-1.725042343,1.062093973,1.9646945,2024-06-05 17:19:24.595046
1.635538298,-3.026674747,0.1763198376,2.25385952,2024-06-05 17:19:24.635538
1.676012256,-0.2667870522,0.5092120171,1.850942612,2024-06-05 17:19:24.676012
1.716558037,1.936210632,0.5114707947,-0.2464880943,2024-06-05 17:19:24.716558
1.757042308,7.354172707,0.9422773123,9.098085403,2024-06-05 17:19:24.757042
1.797537777,1.865875721,-0.8881852627,2.118832588,2024-06-05 17:19:24.797538
1.838007777,-0.3368024826,0.08593583107,-2.812433004,2024-06-05 17:19:24.838008
1.878508506,5.287872314,4.142161369,-0.5980463028,2024-06-05 17:19:24.878509
1.919002048,0.6409215927,2.557837486,-0.2857894897,2024-06-05 17:19:24.919002
1.959468923,4.40857172,2.111722946,1.172946453,2024-06-05 17:19:24.959469
1.999965173,-9.122289658,-4.718070507,-0.2886109352,2024-06-05 17:19:24.999965
2.040458662,4.118291855,2.150658131,-1.609362602,2024-06-05 17:19:25.040459
2.0809221,-2.628804207,-0.06021118164,-0.5869932175,2024-06-05 17:19:25.080922
2.121398871,3.046181202,3.932883978,1.255581856,2024-06-05 17:19:25.121399
2.161932204,-2.327876568,1.100025654,1.327338219,2024-06-05 17:19:25.161932
2.202408089,-0.7410593033,-0.2284898758,0.562836647,2024-06-05 17:19:25.202408
2.242890589,-0.9731097221,-3.205169678,-0.7755570412,2024-06-05 17:19:25.242891
2.283375433,-2.393661976,-7.619423389,-2.623048782,2024-06-05 17:19:25.283375
2.32385835,1.371513844,-0.12196064,-0.36170578,2024-06-05 17:19:25.323858
2.364346214,0.4062552452,-0.213968277,0.3117380142,2024-06-05 17:19:25.364346
2.404860746,0.4026975632,0.8289437294,0.2501959801,2024-06-05 17:19:25.404861
2.44534335,0.434823513,0.8145973682,-0.3563451767,2024-06-05 17:19:25.445343
2.485842256,-0.1399350166,-0.1725482941,-0.1040568352,2024-06-05 17:19:25.485842
2.526306735,-0.3800888062,-0.8737726212,-0.2490262985,2024-06-05 17:19:25.526307
2.566805954,0.4103212357,-0.3349413872,-0.3861403465,2024-06-05 17:19:25.566806
2.607289027,0.1557774544,0.213385582,0.3929033279,2024-06-05 17:19:25.607289
2.647760225,0.1930656433,-0.7434663773,-0.5850334167,2024-06-05 17:19:25.647760
2.688270277,0.4913873672,-0.7215795517,-0.1654496193,2024-06-05 17:19:25.688270
2.728758246,-0.1947302818,0.8024349213,-0.04188919067,2024-06-05 17:19:25.728758
2.769254964,0.3426632881,1.062021732,0.2104945183,2024-06-05 17:19:25.769255
2.809739496,-1.820730209,4.581649303,0.4181838036,2024-06-05 17:19:25.809739
2.850225381,1.569569111,0.5286734104,1.245895863,2024-06-05 17:19:25.850225
2.890698454,2.34419179,1.353314877,-0.5421948433,2024-06-05 17:19:25.890698
2.931203714,3.622953415,3.39538002,1.52282095,2024-06-05 17:19:25.931204
2.971701371,1.827931881,-7.083028316,-2.192087173,2024-06-05 17:19:25.971701
3.012156892,-4.379921436,-7.324879646,-0.5417289734,2024-06-05 17:19:26.012157
3.052662569,-2.674800396,-3.462109566,-4.238879204,2024-06-05 17:19:26.052663
3.09313486,0.1135797501,0.4334764481,4.65393734,2024-06-05 17:19:26.093135
3.133674183,-0.24106884,1.690294743,-1.41139555,2024-06-05 17:19:26.133674
3.1741271,-0.1764574051,0.7669568062,1.457261562,2024-06-05 17:19:26.174127
3.214617048,-0.2644672394,-1.098701,-0.7279028893,2024-06-05 17:19:26.214617
3.255133089,-0.1063094139,0.07340669632,-0.06367301941,2024-06-05 17:19:26.255133
3.295603714,0.1330566406,-0.1560645103,0.281917572,2024-06-05 17:19:26.295604
3.33607736,0.8425462246,-0.1174297333,-0.2963762283,2024-06-05 17:19:26.336077
3.376578142,0.5369403362,-0.2284216881,-0.03542947769,2024-06-05 17:19:26.376578
3.417115277,0.7961940765,5.638841629,-0.7158474922,2024-06-05 17:19:26.417115
3.457542517,-0.1951999664,-2.870354652,0.4385976791,2024-06-05 17:19:26.457543
3.498044235,-0.09186267853,-1.490427971,-0.001822948456,2024-06-05 17:19:26.498044
3.538530954,0.4809041023,-1.286116123,-0.1270360947,2024-06-05 17:19:26.538531
3.579026944,0.8135490417,-2.162885189,0.1019501686,2024-06-05 17:19:26.579027
3.619534339,0.04901075363,-2.380697012,0.2582249641,2024-06-05 17:19:26.619534
3.660002308,0.6635890007,0.8940863609,-0.4629006386,2024-06-05 17:19:26.660002
3.700501319,0.24650383,0.1152713299,0.1847133636,2024-06-05 17:19:26.700501
3.740989131,0.1803643703,-0.6284990311,-0.02713871002,2024-06-05 17:19:26.740989
3.781504912,0.07987976074,-0.002672195435,-0.1591444016,2024-06-05 17:19:26.781505
3.821991579,0.04988503456,-0.5154922009,0.139831543,2024-06-05 17:19:26.821992
3.862461944,-0.05236434937,0.07481169701,-0.7094521523,2024-06-05 17:19:26.862462
3.902937204,-0.2671473026,0.4424676895,-0.2680549622,2024-06-05 17:19:26.902937
3.943427881,-0.4656136036,-0.05825710297,-0.03924274445,2024-06-05 17:19:26.943428
3.983933246,-0.5608196259,0.2553966045,-0.4280743599,2024-06-05 17:19:26.983933
4.024451683,-0.482360363,0.6977763176,-0.1396579742,2024-06-05 17:19:27.024452
4.064911267,-0.08254027367,1.484163284,0.4458084106,2024-06-05 17:19:27.064911
4.105417308,-0.378775835,0.4789643288,0.1339359283,2024-06-05 17:19:27.105417
4.145889756,-1.372699261,0.2945227623,1.045964241,2024-06-05 17:19:27.145890
4.186346058,-1.596992493,1.695573807,0.4725646973,2024-06-05 17:19:27.186346
4.226835433,-0.5863718987,1.902100563,0.1966152191,2024-06-05 17:19:27.226835
4.267340954,-0.3721444607,0.5074651241,1.629022598,2024-06-05 17:19:27.267341
4.307828142,0.2182365656,0.8171019554,0.4163646698,2024-06-05 17:19:27.307828
4.348310589,-0.036013484,1.807323933,0.2626428604,2024-06-05 17:19:27.348311
4.388801839,0.5810232162,1.796862125,0.4770278931,2024-06-05 17:19:27.388802
4.429308975,-0.1359263659,2.178793907,0.7133388519,2024-06-05 17:19:27.429309
4.469808089,-0.1156297922,2.907436609,0.5524921417,2024-06-05 17:19:27.469808
4.510282621,0.6879767179,2.734172821,0.3520793915,2024-06-05 17:19:27.510283
4.550781735,2.638954878,1.262634277,0.3561077118,2024-06-05 17:19:27.550782
4.591293923,2.069351673,1.099826813,-0.951499939,2024-06-05 17:19:27.591294
4.631774392,-1.310177326,-0.5563960075,-0.3511581421,2024-06-05 17:19:27.631774
4.672256944,-3.118288279,-0.8603634834,0.0004281997681,2024-06-05 17:19:27.672257
4.712744808,-2.462682724,1.298255444,0.4856147766,2024-06-05 17:19:27.712745
4.753231162,-0.7774248123,0.251730442,1.184374332,2024-06-05 17:19:27.753231
4.793702985,-0.05965447426,-2.081467152,1.203549862,2024-06-05 17:19:27.793703
4.834202985,-0.2118234634,-0.1581220627,0.8102273941,2024-06-05 17:19:27.834203
4.874714964,-0.4623475075,1.297723293,0.5060420036,2024-06-05 17:19:27.874715
4.915188246,-0.694303751,1.813128948,0.3476552963,2024-06-05 17:19:27.915188
4.95566736,-0.3847515583,1.273857117,0.8842248917,2024-06-05 17:19:27.955667
4.99615585,0.5514745712,1.207645416,0.6828541756,2024-06-05 17:19:27.996156
5.036646892,0.4546723366,-0.4202718735,1.536678314,2024-06-05 17:19:28.036647
5.077135173,0.1041939259,1.379967213,0.8593182564,2024-06-05 17:19:28.077135
5.11764585,-0.6534030437,1.33450985,0.2712426186,2024-06-05 17:19:28.117646
5.158099756,-1.601683378,0.267077446,-0.02743864059,2024-06-05 17:19:28.158100
5.198594964,-0.9275362492,1.526643753,-0.189889431,2024-06-05 17:19:28.198595
5.239089339,0.3095898628,0.73985672,0.6241106987,2024-06-05 17:19:28.239089
5.279590589,0.1578054428,0.6341209412,0.2881655693,2024-06-05 17:19:28.279591
5.320077412,1.330213189,-0.9183483124,1.244828224,2024-06-05 17:19:28.320077
5.360511787,-0.6948702335,0.2633714676,-0.9045572281,2024-06-05 17:19:28.360512
5.401047464,-0.2082424164,0.1536855698,0.1865787506,2024-06-05 17:19:28.401047
5.441546371,0.8108445406,-1.508852005,2.203483105,2024-06-05 17:19:28.441546
5.482025642,-0.7457346916,-1.870844841,0.303401947,2024-06-05 17:19:28.482026
5.522526371,0.8064363003,-1.699061394,-0.5775120258,2024-06-05 17:19:28.522526
5.562999652,1.246220708,-1.007556915,-2.151381016,2024-06-05 17:19:28.563000
5.603460017,-0.9083964825,-1.944928169,1.658923149,2024-06-05 17:19:28.603460
5.643959392,1.306702614,-1.930752754,1.925098419,2024-06-05 17:19:28.643959
5.684458402,1.298047304,-0.8409194946,0.01405143738,2024-06-05 17:19:28.684458
5.724958871,0.3941657543,-0.2959127426,-0.7493453026,2024-06-05 17:19:28.724959
5.765453037,0.6836400032,0.5159878731,-0.2617249489,2024-06-05 17:19:28.765453
5.805929392,1.570060253,0.6116366386,-1.446413755,2024-06-05 17:19:28.805929
5.846428714,1.272221565,0.285358429,-0.6206831932,2024-06-05 17:19:28.846429
5.886927621,-0.2043147087,0.442111969,-0.07632684708,2024-06-05 17:19:28.886928
5.927358454,-0.9685409069,0.1482858658,0.9102554321,2024-06-05 17:19:28.927358
5.968003298,-0.1922955513,-0.2128734589,0.02857398987,2024-06-05 17:19:28.968003
6.008390329,-0.2591547966,-0.7356548309,0.4789395332,2024-06-05 17:19:29.008390
6.048855121,-0.3224339485,-0.3211598396,0.1792883873,2024-06-05 17:19:29.048855
6.089378767,0.8852763176,-0.3400435448,-0.6555986404,2024-06-05 17:19:29.089379
6.129842204,0.15797472,-0.1119370461,-0.3154144287,2024-06-05 17:19:29.129842
6.170318871,-0.9560980797,0.7890024185,0.1977615356,2024-06-05 17:19:29.170319
6.210822517,0.05992031097,-0.2041649818,0.05866909027,2024-06-05 17:19:29.210823
6.251322464,-0.2933135033,-0.640352726,0.5961341858,2024-06-05 17:19:29.251322
6.291793142,-0.5696706772,-0.2736945152,0.4026203156,2024-06-05 17:19:29.291793
6.332288819,-0.07724237442,0.01514863968,-0.1918692589,2024-06-05 17:19:29.332289
6.372780173,0.1254339218,-0.1827192307,-0.5900821686,2024-06-05 17:19:29.372780
6.413266006,0.5517857075,-0.6920275688,-0.09061861038,2024-06-05 17:19:29.413266
6.453798089,0.2093048096,-0.6277122498,0.5398831367,2024-06-05 17:19:29.453798
6.494247048,-0.6124696732,0.1540670395,-0.3617739677,2024-06-05 17:19:29.494247
6.534757464,-0.3938503265,-0.279153347,-0.741976738,2024-06-05 17:19:29.534757
6.575213819,0.2948765755,-0.9021921158,-0.2190332413,2024-06-05 17:19:29.575214
6.615713454,0.1350235939,-0.309817791,0.07510137558,2024-06-05 17:19:29.615713
6.656168975,-0.8632984161,-0.685031414,0.1122522354,2024-06-05 17:19:29.656169
6.696708142,-0.9780392647,-0.08711242676,-0.4208879471,2024-06-05 17:19:29.696708
6.737201579,-0.992857933,-0.06857681274,-0.6732354164,2024-06-05 17:19:29.737202
6.777691214,0.214315176,-0.3467040062,-1.082302094,2024-06-05 17:19:29.777691
6.818150902,-0.03784513474,-1.099624157,-0.8566784859,2024-06-05 17:19:29.818151
6.858633975,-0.5942444801,-0.8580071926,-1.020554066,2024-06-05 17:19:29.858634
6.899124027,-0.8559947014,-0.8417539597,-0.6452646255,2024-06-05 17:19:29.899124
6.939593402,-1.09760952,-1.304363728,-0.2135334015,2024-06-05 17:19:29.939593
6.980109704,0.4981808662,-0.452583313,-1.4861269,2024-06-05 17:19:29.980110
7.020606423,-1.492371321,-1.507470608,-0.6894273758,2024-06-05 17:19:30.020606
7.061084756,1.521719694,-1.345216036,-0.5448675156,2024-06-05 17:19:30.061085
7.1015896,2.583199978,0.1395316124,-0.6950788498,2024-06-05 17:19:30.101590
7.142061319,1.368706942,0.7765200138,-1.648096561,2024-06-05 17:19:30.142061
7.1825346,2.248792648,0.6589167118,-1.382279873,2024-06-05 17:19:30.182535
7.223020277,-0.3022572994,1.299892426,-1.165867329,2024-06-05 17:19:30.223020
7.263523506,-1.664227247,1.741036773,-0.3148641586,2024-06-05 17:19:30.263524
7.304040746,-0.9115216732,0.6558485031,-0.2388124466,2024-06-05 17:19:30.304041
7.3445096,0.5308837891,0.2536971569,0.5898160934,2024-06-05 17:19:30.344510
7.385007777,-0.5701663494,0.8562233448,-0.5676074028,2024-06-05 17:19:30.385008
7.425508871,-0.5037674904,1.043586731,-0.4380536079,2024-06-05 17:19:30.425509
7.466002829,0.7318375111,1.52058506,-0.1738700867,2024-06-05 17:19:30.466003
7.506432412,0.153393507,1.565336943,-0.1961984634,2024-06-05 17:19:30.506432
7.546921319,-0.05001401901,1.268304825,0.3297948837,2024-06-05 17:19:30.546921
7.587419496,0.02227210999,0.6431770325,-0.9837565422,2024-06-05 17:19:30.587419
7.627933194,-1.390222788,-0.2760176659,0.05700492859,2024-06-05 17:19:30.627933
7.668434704,-2.247672796,-0.9543890953,0.6859841347,2024-06-05 17:19:30.668435
7.70892986,-0.8424222469,0.5913934708,0.8795757294,2024-06-05 17:19:30.708930
7.749411683,0.07624459267,0.3129177094,0.2021222115,2024-06-05 17:19:30.749412
7.789897256,0.3108022213,1.112494469,0.7010817528,2024-06-05 17:19:30.789897
7.830388402,0.1169931889,-0.8753843307,0.09470367432,2024-06-05 17:19:30.830388
7.870905902,-1.324908495,-0.2896785736,-0.03838253021,2024-06-05 17:19:30.870906
7.911372829,-0.8658597469,-1.625959396,0.02934598923,2024-06-05 17:19:30.911373
7.951856996,-0.1629502773,-1.02602005,0.9911794662,2024-06-05 17:19:30.951857
7.992327256,-0.05414247513,-1.210053444,0.7562971115,2024-06-05 17:19:30.992327
8.032825746,-0.4136326313,-1.234183311,1.129006147,2024-06-05 17:19:31.032826
8.073335017,-0.1454439163,-1.690317154,0.4161589146,2024-06-05 17:19:31.073335
8.113821371,0.008273124695,-0.9017219543,0.834482193,2024-06-05 17:19:31.113821
8.154291319,1.603685379,0.3037714958,-1.685516357,2024-06-05 17:19:31.154291
8.194765485,1.580804825,-0.469804287,-0.6123034954,2024-06-05 17:19:31.194765
8.235256683,1.201439619,-0.4234972,-1.29949522,2024-06-05 17:19:31.235257
8.275753662,0.5927143097,-0.6583447456,-0.8420102596,2024-06-05 17:19:31.275754
8.316238454,0.9990131855,-1.419106007,-0.2295556068,2024-06-05 17:19:31.316238
8.356736214,0.5168085098,-0.7423362732,-0.2364597321,2024-06-05 17:19:31.356736
8.397222152,0.3739843369,-0.6289272308,0.3662595749,2024-06-05 17:19:31.397222
8.437704548,1.14197731,-0.1948142052,0.2630271912,2024-06-05 17:19:31.437705
8.478208767,0.7187380791,-0.3920788765,-0.4854626656,2024-06-05 17:19:31.478209
8.51869085,0.3512911797,-0.62784338,0.8015422821,2024-06-05 17:19:31.518691
8.55919085,-0.07651281357,-0.6101312637,0.2755670547,2024-06-05 17:19:31.559191
8.599673298,0.4592237473,-0.1686959267,-0.1900253296,2024-06-05 17:19:31.599673
8.64016986,-0.1791176796,-0.3767323494,0.2880754471,2024-06-05 17:19:31.640170
8.680667152,-0.8369727135,-0.9949707985,0.2460951805,2024-06-05 17:19:31.680667
8.721140121,-0.6394162178,-0.4405817986,0.1924376488,2024-06-05 17:19:31.721140
8.761646214,-0.4646053314,0.01932477951,0.1502914429,2024-06-05 17:19:31.761646
8.802117933,-0.527636528,0.2777199745,0.1555628777,2024-06-05 17:19:31.802118
8.842609235,0.2443995476,0.6256856918,-0.737549305,2024-06-05 17:19:31.842609
8.883099756,0.399368763,-0.355820179,-0.03970003128,2024-06-05 17:19:31.883100
8.923585694,0.06871747971,-2.019174576,0.1152162552,2024-06-05 17:19:31.923586
8.964075277,0.5812401772,-1.894107819,-1.08124876,2024-06-05 17:19:31.964075
9.004549444,0.5764799118,-1.24236083,-0.05267715454,2024-06-05 17:19:32.004549
9.045043558,0.16873312,-1.068994999,0.2701096535,2024-06-05 17:19:32.045044
9.085538194,1.307174206,-0.1510505676,-0.109210968,2024-06-05 17:19:32.085538
9.126008714,2.278277874,-0.05278539658,-0.464132309,2024-06-05 17:19:32.126009
9.166483819,1.233557701,-0.05632567406,-0.906709671,2024-06-05 17:19:32.166484
9.206969183,0.7342123985,0.5278279781,-1.456726074,2024-06-05 17:19:32.206969
9.247480694,1.305440903,0.7433974743,-1.46152401,2024-06-05 17:19:32.247481
9.287973767,0.004741191864,0.3689188957,-0.7400946617,2024-06-05 17:19:32.287974
9.328483194,0.2290143967,0.3760728836,-0.5912361145,2024-06-05 17:19:32.328483
9.368975694,0.6765460968,0.7928829193,-1.006108761,2024-06-05 17:19:32.368976
9.409467881,0.9048290253,0.9331097603,-0.4723515511,2024-06-05 17:19:32.409468
9.449940017,0.3862814903,0.3901004791,-0.3653693199,2024-06-05 17:19:32.449940
9.4904246,0.007741928101,0.7819724083,-0.9548969269,2024-06-05 17:19:32.490425
9.530928142,-0.1585798264,1.341933489,-0.6349687576,2024-06-05 17:19:32.530928
9.5713896,-0.6967391968,0.5302577019,-0.05672550201,2024-06-05 17:19:32.571390
9.611888506,-0.06143093109,0.4545993805,0.4838476181,2024-06-05 17:19:32.611889
9.652375798,-0.6953334808,0.9655542374,1.177836418,2024-06-05 17:19:32.652376
9.692863246,-0.2561674118,0.8669366837,1.23554945,2024-06-05 17:19:32.692863
9.733396475,0.00523519516,-0.4928627014,-0.4138526917,2024-06-05 17:19:32.733396
9.773838662,-0.149242878,-1.050011635,-0.04817771912,2024-06-05 17:19:32.773839
9.814346475,-0.2452988625,-0.05652856827,0.2149128914,2024-06-05 17:19:32.814346
9.854815746,-0.4285783768,-0.9459095001,0.9836220741,2024-06-05 17:19:32.854816
9.89530986,-0.7801537514,-1.761613369,1.362942219,2024-06-05 17:19:32.895310
9.935796058,-0.4958043098,-0.5568141937,0.2548046112,2024-06-05 17:19:32.935796
9.976286996,0.8427217007,-0.6091570854,-0.7014169693,2024-06-05 17:19:32.976287
10.01677606,0.5413813591,-0.8835673332,-1.448178053,2024-06-05 17:19:33.016776
10.05729674,0.09078121185,-0.2883620262,0.09889698029,2024-06-05 17:19:33.057297
10.09776767,0.544277668,-0.9790101051,0.01038837433,2024-06-05 17:19:33.097768
10.13826538,0.8060650826,-0.5867919922,0.7837314606,2024-06-05 17:19:33.138265
10.17870772,-0.03041362762,-0.7870583534,0.823720932,2024-06-05 17:19:33.178708
10.21923424,0.1879434586,-0.487965107,-0.002929449081,2024-06-05 17:19:33.219234
10.25975481,0.5107922554,-0.521273613,-0.4003436565,2024-06-05 17:19:33.259755
10.3002195,0.283080101,-0.5455727577,0.07834291458,2024-06-05 17:19:33.300220
10.34071236,0.4875950813,-0.8549466133,-0.3908483982,2024-06-05 17:19:33.340712
10.38119976,0.07074689865,-1.178466797,0.2968268394,2024-06-05 17:19:33.381200
10.42166252,0.5568242073,-0.5302987099,-0.2199521065,2024-06-05 17:19:33.421663
10.46217095,-0.6870222092,-0.8425011635,0.2731676102,2024-06-05 17:19:33.462171
10.50265752,0.1644864082,0.02995967865,-0.9502806664,2024-06-05 17:19:33.502658
10.54313944,0.04340362549,-0.07253408432,0.09035587311,2024-06-05 17:19:33.543139
10.58365111,-0.01598405838,-0.2091727257,-0.2589511871,2024-06-05 17:19:33.583651
10.62413429,0.2350606918,0.1841039658,-0.7119050026,2024-06-05 17:19:33.624134
10.66460814,-1.585965633,-1.15805006,0.600212574,2024-06-05 17:19:33.664608
10.70509319,-0.2512702942,-0.1971945763,-0.4210877419,2024-06-05 17:19:33.705093
10.7455922,0.413236618,0.3558216095,-0.2017998695,2024-06-05 17:19:33.745592
10.78612262,0.7392749786,-0.8550605774,0.08359336853,2024-06-05 17:19:33.786123
10.82660715,1.535286903,-1.34044075,-0.01209306717,2024-06-05 17:19:33.826607
10.86706939,-0.03097391129,-1.571388721,0.1743049622,2024-06-05 17:19:33.867069
10.90752465,0.005957603455,-0.7264583111,0.005540370941,2024-06-05 17:19:33.907525
10.94803455,0.8537940979,-0.9119977951,0.06536102295,2024-06-05 17:19:33.948035
10.98850549,1.06613636,-0.8367993832,-0.3968033791,2024-06-05 17:19:33.988505
11.02900267,1.210348606,-0.5493876934,-0.3465542793,2024-06-05 17:19:34.029003
11.06949773,2.523943901,-0.7044174671,-0.2700695992,2024-06-05 17:19:34.069498
11.10999736,2.894737959,0.3417823315,-0.5362334251,2024-06-05 17:19:34.109997
11.15047424,3.225816965,2.51411438,-1.679350853,2024-06-05 17:19:34.150474
11.19093335,1.311666965,0.9686627388,-0.6513667107,2024-06-05 17:19:34.190933
11.23144002,-0.1971421242,-0.01175093651,-0.2177109718,2024-06-05 17:19:34.231440
11.27194158,1.432140827,0.514780283,0.1659421921,2024-06-05 17:19:34.271942
11.31244621,1.158059597,1.530375719,0.07139348984,2024-06-05 17:19:34.312446
11.35294319,-0.3424911499,1.294696808,0.8848695755,2024-06-05 17:19:34.352943
11.39340215,-0.9247999191,-0.03795909882,1.024665833,2024-06-05 17:19:34.393402
11.43390361,-0.5736103058,-0.4757289886,1.112192154,2024-06-05 17:19:34.433904
11.47439496,0.4859623909,0.7527098656,-0.420791626,2024-06-05 17:19:34.474395
11.51487976,0.357008934,1.623843193,-0.2918772697,2024-06-05 17:19:34.514880
11.55538231,0.818561554,1.396112919,0.6316313744,2024-06-05 17:19:34.555382
11.59586023,-1.02810812,-0.5616884232,0.4805994034,2024-06-05 17:19:34.595860
11.63635283,-1.553105831,-0.6325364113,1.885135651,2024-06-05 17:19:34.636353
11.67685106,-0.1610388756,-0.353369236,1.397710323,2024-06-05 17:19:34.676851
11.71730153,1.655920982,-0.1088671684,0.7577877045,2024-06-05 17:19:34.717302
11.75780606,0.1331391335,-0.466050148,0.5354151726,2024-06-05 17:19:34.757806
11.79830606,0.2213702202,0.04849338531,0.7231001854,2024-06-05 17:19:34.798306
11.83879658,-0.4409804344,-1.006257534,0.330286026,2024-06-05 17:19:34.838797
11.87928559,0.001323223114,-0.8997035027,1.020652533,2024-06-05 17:19:34.879286
11.91972153,0.09022378922,-0.4276189804,1.167577744,2024-06-05 17:19:34.919722
11.96022835,0.853482008,-0.3252186775,-0.05067181587,2024-06-05 17:19:34.960228
12.00072538,0.1887593269,-0.2918453217,0.4249613285,2024-06-05 17:19:35.000725
12.04123601,-0.5013589859,-1.031338215,1.024902105,2024-06-05 17:19:35.041236
12.08173257,0.04852867126,-0.2315330505,0.7677433491,2024-06-05 17:19:35.081733
12.12222298,0.808511734,-0.5318074226,-0.3343057632,2024-06-05 17:19:35.122223
12.16264924,0.2301917076,-0.2720103264,0.05607891083,2024-06-05 17:19:35.162649
12.20316663,-0.4947495461,0.03823804855,0.1877713203,2024-06-05 17:19:35.203167
12.24370064,-0.1066327095,-0.3641119003,-0.5095796585,2024-06-05 17:19:35.243701
12.28417137,-0.7642936707,-0.8151140213,0.2698526382,2024-06-05 17:19:35.284171
12.32465929,-0.2663903236,0.04229545593,-0.1933374405,2024-06-05 17:19:35.324659
12.36516908,-1.043487072,-0.5556497574,-0.1633777618,2024-06-05 17:19:35.365169
12.40563502,-0.3745074272,-0.4637680054,0.4559278488,2024-06-05 17:19:35.405635
12.44610908,-0.5644278526,-0.8537187576,-0.2412872314,2024-06-05 17:19:35.446109
12.48659783,0.3897628784,-1.125472069,-0.4428291321,2024-06-05 17:19:35.486598
12.52708663,-0.2385501862,-0.8439950943,-0.7442951202,2024-06-05 17:19:35.527087
12.56758163,-0.3039941788,-0.4875121117,-0.8057188988,2024-06-05 17:19:35.567582
12.60806981,0.04414701462,-0.9238243103,-0.1644864082,2024-06-05 17:19:35.608070
12.64856069,-0.04482221603,-1.493268251,-0.2599468231,2024-06-05 17:19:35.648561
12.68903627,-0.2645421028,-1.413357973,-1.504980564,2024-06-05 17:19:35.689036
12.72957111,0.2833108902,0.09208440781,-1.229711056,2024-06-05 17:19:35.729571
12.77003809,0.1010222435,-0.1344282627,-1.312369823,2024-06-05 17:19:35.770038
12.81051434,1.34425354,-0.1421332359,-1.385821819,2024-06-05 17:19:35.810514
12.85100585,2.140428543,0.4381034374,-1.114928246,2024-06-05 17:19:35.851006
12.89148476,0.1370353699,0.04860758781,-0.4828615189,2024-06-05 17:19:35.891485
12.93197351,0.8697624207,-0.009323835373,-0.1252574921,2024-06-05 17:19:35.931974
12.97253017,0.1635184288,0.05902433395,-0.1955060959,2024-06-05 17:19:35.972530
13.01297371,1.703665733,0.8022301197,-1.404958248,2024-06-05 17:19:36.012974
13.05345715,1.649011612,0.9374849796,-1.280072212,2024-06-05 17:19:36.053457
13.09395439,1.138393402,0.962059021,-0.9468345642,2024-06-05 17:19:36.093954
13.13442069,0.3304934502,0.6265313625,-0.02321767807,2024-06-05 17:19:36.134421
13.17487059,-0.4662666321,0.201821804,-0.198802948,2024-06-05 17:19:36.174871
13.21542429,-0.5532917976,-0.1943125725,0.2824840546,2024-06-05 17:19:36.215424
13.25590314,-0.4385738373,-0.912405014,0.8079304695,2024-06-05 17:19:36.255903
13.29639184,-1.074493885,-0.948381424,0.5325050354,2024-06-05 17:19:36.296392
13.33683319,-1.148974419,0.4450516701,-0.3221597672,2024-06-05 17:19:36.336833
13.37732658,-0.6021251678,0.8774662018,-0.3510966301,2024-06-05 17:19:36.377327
13.41782361,0.1908111572,-0.507437706,-0.1140356064,2024-06-05 17:19:36.417824
13.4583121,-0.6363339424,-1.25011158,1.049339771,2024-06-05 17:19:36.458312
13.498802,1.81174159,0.7644281387,0.5737214088,2024-06-05 17:19:36.498802
13.5393384,0.5594205856,-0.4509954453,0.03165602684,2024-06-05 17:19:36.539338
13.57980653,-0.7946152687,-2.751236916,1.547914505,2024-06-05 17:19:36.579807
13.6203133,-1.45271349,-1.143628597,1.193421364,2024-06-05 17:19:36.620313
13.66085429,-0.6837162971,-0.6607027054,0.06104207039,2024-06-05 17:19:36.660854
13.70125757,-0.1546177864,-0.04729223251,-0.07118201256,2024-06-05 17:19:36.701258
13.74178377,0.1837425232,1.07822752,-0.4426014423,2024-06-05 17:19:36.741784
13.7822747,0.2782030106,0.2122597694,-0.1826198101,2024-06-05 17:19:36.782275
13.8227596,0.3155789375,-0.4275765419,0.3597288132,2024-06-05 17:19:36.822760
13.863222,0.3295946121,-0.3130912781,-0.3481459618,2024-06-05 17:19:36.863222
13.90371585,-0.9483480453,-1.167588234,0.7556490898,2024-06-05 17:19:36.903716
13.94421304,-0.07122802734,-0.6689343452,-0.1163263321,2024-06-05 17:19:36.944213
13.98469778,0.01234769821,0.004986763,-0.616109848,2024-06-05 17:19:36.984698
14.02517887,-0.435295105,-0.4768452644,0.130812645,2024-06-05 17:19:37.025179
14.06570377,-0.7257051468,-0.146042347,-0.4572706223,2024-06-05 17:19:37.065704
14.10615757,-1.503863335,-0.56285429,-0.2167677879,2024-06-05 17:19:37.106158
14.14666132,-1.616017342,-0.6450715065,-0.2497835159,2024-06-05 17:19:37.146661
14.18712491,-1.347378731,-1.022424698,-0.3811039925,2024-06-05 17:19:37.187125
14.22762528,-0.3155283928,-1.450959206,-0.7705636024,2024-06-05 17:19:37.227625
14.26811564,0.2584781647,-0.7471055984,-0.6121473312,2024-06-05 17:19:37.268116
14.30861455,-0.121260643,-0.8562464714,-0.7487769127,2024-06-05 17:19:37.308615
14.34912746,0.5539574623,-0.7366166115,-0.8243346214,2024-06-05 17:19:37.349127
14.3895947,0.03551483154,-0.8236010075,-0.9808735847,2024-06-05 17:19:37.389595
14.43009887,-0.4359312057,-0.9323465824,-0.1943688393,2024-06-05 17:19:37.430099
14.47058262,0.03461265564,-0.3125123978,-1.735049725,2024-06-05 17:19:37.470583
14.51105861,0.4990811348,-1.34367013,-0.470220089,2024-06-05 17:19:37.511059
14.5515484,1.728951931,-0.5218391418,-1.077972889,2024-06-05 17:19:37.551548
14.5920483,1.181004047,0.2003335953,-1.133572102,2024-06-05 17:19:37.592048
14.63253272,1.651355743,0.7912943363,-1.480280876,2024-06-05 17:19:37.632533
14.67300486,1.786220551,0.8902397156,-0.7612366676,2024-06-05 17:19:37.673005
14.71350345,1.424855709,0.4942646027,-0.9129314423,2024-06-05 17:19:37.713503
14.75397882,-0.1093063354,-0.7321429253,-0.6387319565,2024-06-05 17:19:37.753979
14.79445548,0.5712947845,0.4983606339,-0.5190024376,2024-06-05 17:19:37.794455
14.83496538,1.516943455,2.429671049,-1.19739151,2024-06-05 17:19:37.834965
14.87548371,0.4594082832,2.267651796,-1.128997326,2024-06-05 17:19:37.875484
14.91596319,-0.8166966438,0.1605100632,0.4345192909,2024-06-05 17:19:37.915963
14.95643908,-1.109354973,-1.704433441,0.5886993408,2024-06-05 17:19:37.956439
14.99690887,-0.5481090546,-0.9813990593,-0.3054966927,2024-06-05 17:19:37.996909
15.0373933,0.6281290054,1.835804462,-0.6516265869,2024-06-05 17:19:38.037393
15.07788309,-1.247335911,1.070255756,0.4656920433,2024-06-05 17:19:38.077883
15.11838778,-2.309200764,-3.740501881,0.9937138557,2024-06-05 17:19:38.118388
15.15889434,-0.8407797813,-2.021273613,0.5415620804,2024-06-05 17:19:38.158894
15.19936767,1.089683056,1.900590897,-0.7251319885,2024-06-05 17:19:38.199368
15.23985304,1.596876383,3.306214809,-1.119854212,2024-06-05 17:19:38.239853
15.28034668,-0.8154411316,0.9444818497,-0.1685085297,2024-06-05 17:19:38.280347
15.32082632,-4.753908634,-2.361569405,1.310156345,2024-06-05 17:19:38.320826
15.36131075,-0.2165937424,0.8448405266,0.8106307983,2024-06-05 17:19:38.361311
15.4018209,0.2992506027,-0.5839724541,-0.7085387707,2024-06-05 17:19:38.401821
15.44230189,-3.228304386,-3.836558819,1.559123516,2024-06-05 17:19:38.442302
15.48277491,-2.070133686,-1.42158556,0.7040996552,2024-06-05 17:19:38.482775
15.52326158,-0.381310463,-1.329689503,-0.9595532417,2024-06-05 17:19:38.523262
15.56376871,-0.09781694412,0.4067049026,-1.050212383,2024-06-05 17:19:38.563769
15.60425773,0.7868094444,-1.317553043,-0.4446310997,2024-06-05 17:19:38.604258
15.64478064,-0.5722141266,-1.215172291,-0.05088853836,2024-06-05 17:19:38.644781
15.68524668,-0.8267502785,-0.3788433075,-0.20728302,2024-06-05 17:19:38.685247
15.7257147,-1.486375809,-0.8538680077,-0.7319712639,2024-06-05 17:19:38.725715
15.7661758,-3.161581993,-0.8839707375,-0.3589568138,2024-06-05 17:19:38.766176
15.80665637,-1.176724911,-1.025597572,-1.102487087,2024-06-05 17:19:38.806656
15.84717031,-1.567684174,-0.9266009331,-2.380312204,2024-06-05 17:19:38.847170
15.88767192,-1.348581314,-1.968598366,-1.102237701,2024-06-05 17:19:38.887672
15.92816005,-1.449908733,-1.225790501,-1.506330967,2024-06-05 17:19:38.928160
15.9686052,0.9921607971,-1.238467693,-1.366007805,2024-06-05 17:19:38.968605
16.00915973,1.81183672,-1.211292267,-2.16655159,2024-06-05 17:19:39.009160
16.04964312,0.9056282043,-0.6359815598,-0.7919316292,2024-06-05 17:19:39.049643
16.09013619,2.012605906,-1.165615082,-2.517825603,2024-06-05 17:19:39.090136
16.13062333,0.5782399178,-0.01475811005,-1.313563347,2024-06-05 17:19:39.130623
16.17109025,-0.8329644203,-0.2189450264,-0.5305466652,2024-06-05 17:19:39.171090
16.21163228,-0.2283058167,-1.470992088,-0.3837242126,2024-06-05 17:19:39.211632
16.25207505,1.204868317,-0.4306967258,-0.1379942894,2024-06-05 17:19:39.252075
16.2925863,1.501020432,-0.1328289509,-0.631626606,2024-06-05 17:19:39.292586
16.33304645,1.838757515,1.342223763,-1.718659878,2024-06-05 17:19:39.333046
16.37353067,1.577054977,0.7631208897,-1.283956528,2024-06-05 17:19:39.373531
16.41403228,1.87909317,1.081830263,-1.04458189,2024-06-05 17:19:39.414032
16.45453978,1.436908722,1.299991131,-0.8638386726,2024-06-05 17:19:39.454540
16.49502895,0.2079863548,1.020792246,-0.2742733955,2024-06-05 17:19:39.495029
16.53549067,-1.015604496,0.6046094894,0.849064827,2024-06-05 17:19:39.535491
16.57599546,-1.416887283,-0.1265268326,1.329533577,2024-06-05 17:19:39.575995
16.61648468,-1.077342987,-0.5260744095,1.069574833,2024-06-05 17:19:39.616485
16.6569552,0.9873285294,0.4914665222,0.3483338356,2024-06-05 17:19:39.656955
16.69747046,0.6126317978,-0.2839169502,-0.5869693756,2024-06-05 17:19:39.697470
16.73793562,-0.01105499268,-0.8417830467,0.0378408432,2024-06-05 17:19:39.737936
16.77842973,-0.1736083031,0.1375255585,0.1946787834,2024-06-05 17:19:39.778430
16.81893176,-0.3468036652,-0.6558246613,0.6708035469,2024-06-05 17:19:39.818932
16.85941604,-1.297134876,-0.4771971703,0.7403264046,2024-06-05 17:19:39.859416
16.89990036,-0.9108662605,-0.6191420555,0.6225571632,2024-06-05 17:19:39.899900
16.94038176,-0.3681440353,-0.4115219116,0.09645700455,2024-06-05 17:19:39.940382
16.98084937,-0.385468483,0.8620038033,0.1716310978,2024-06-05 17:19:39.980849
17.02134119,0.1275205612,0.01029205322,0.4674310684,2024-06-05 17:19:40.021341
17.0618864,-1.293298244,-0.8858213425,0.818731308,2024-06-05 17:19:40.061886
17.10235937,-0.7724781036,-0.1670155525,0.4804441929,2024-06-05 17:19:40.102359
17.1428852,-0.5649619102,-0.9065690041,0.3779337406,2024-06-05 17:19:40.142885
17.18332978,-0.2028565407,-0.7759652138,0.07792115211,2024-06-05 17:19:40.183330
17.22383676,0.2542376518,-0.2398400307,-0.5101883411,2024-06-05 17:19:40.223837
17.26429932,-0.4576444626,-0.01576280594,-0.1665272713,2024-06-05 17:19:40.264299
17.30479145,-0.3580713272,0.4922280312,-0.5343909264,2024-06-05 17:19:40.304791
17.34528525,-0.9159932137,-0.6315979958,-0.4497127533,2024-06-05 17:19:40.345285
17.38576624,-1.643638134,-0.9090886116,-0.568862915,2024-06-05 17:19:40.385766
17.42625551,-0.8760509491,-0.5426907539,-0.6391015053,2024-06-05 17:19:40.426256
17.46671499,-0.9996914864,-0.6280674934,-0.61992836,2024-06-05 17:19:40.466715
17.50720416,-1.219726086,-1.569365501,-0.5394048691,2024-06-05 17:19:40.507204
17.54770505,-1.313911915,-1.404224873,-0.657075882,2024-06-05 17:19:40.547705
17.5882276,-0.2822184563,-1.568920612,-0.7176265717,2024-06-05 17:19:40.588228
17.62872109,0.57802248,-1.452616215,-1.058341503,2024-06-05 17:19:40.628721
17.66918411,0.07939958572,0.4890499115,-1.354130745,2024-06-05 17:19:40.669184
17.70968359,0.6597089767,-0.102132082,-2.41832304,2024-06-05 17:19:40.709684
17.75015317,-0.08212280273,-1.191767454,-0.9775362015,2024-06-05 17:19:40.750153
17.79066015,-0.2696070671,-0.997030735,-1.311117172,2024-06-05 17:19:40.790660
17.8311651,-0.6610989571,-1.588380337,-0.822947979,2024-06-05 17:19:40.831165
17.87164937,0.07923841476,-0.7503943443,-0.3537216187,2024-06-05 17:19:40.871649
17.91213067,0.7119979858,0.2168471813,-1.235338688,2024-06-05 17:19:40.912131
17.95259411,0.6781134605,0.7399599552,-1.439165592,2024-06-05 17:19:40.952594
17.99307494,2.251108408,0.8178169727,-2.15796423,2024-06-05 17:19:40.993075
18.03357708,2.290935516,0.7706422806,-2.344421387,2024-06-05 17:19:41.033577
18.07409203,0.2184033394,1.017211676,-1.266040802,2024-06-05 17:19:41.074092
18.11458963,0.8237805367,1.7080791,-0.6775856018,2024-06-05 17:19:41.114590
18.15505083,-0.6059017181,0.5003042221,-0.2248792648,2024-06-05 17:19:41.155051
18.19553942,-0.6007165909,-0.6024746895,-0.3829817772,2024-06-05 17:19:41.195539
18.23605343,-0.888864994,-0.2621655464,-1.127830505,2024-06-05 17:19:41.236053
18.27654885,0.02692937851,-0.1295847893,-0.1835603714,2024-06-05 17:19:41.276549
18.31702359,-0.2747340202,0.1269993782,-0.2593178749,2024-06-05 17:19:41.317024
18.35748541,-0.9616780281,0.2486152649,0.4112453461,2024-06-05 17:19:41.357485
18.39798505,-0.6112289429,-0.7827715874,0.2544136047,2024-06-05 17:19:41.397985
18.43846692,0.5880618095,-0.2227492332,0.5129566193,2024-06-05 17:19:41.438467
18.47895291,-0.5512900352,-0.02911949158,0.4090094566,2024-06-05 17:19:41.478953
18.51946187,-0.8964285851,0.1911211014,0.578258276,2024-06-05 17:19:41.519462
18.5599589,-1.037210464,-2.16791153,1.020205021,2024-06-05 17:19:41.559959
18.60044864,-0.880712986,-0.8919529915,1.159548044,2024-06-05 17:19:41.600449
18.64095255,0.05887174606,-0.05788993835,1.092087507,2024-06-05 17:19:41.640953
18.68141489,-0.1050701141,-0.7303314209,1.357500076,2024-06-05 17:19:41.681415
18.72188734,0.2736096382,0.2197303772,0.3077244759,2024-06-05 17:19:41.721887
18.76236947,1.253757954,1.116708279,-0.1808710098,2024-06-05 17:19:41.762369
18.8028676,1.432736397,0.6867733002,0.4213020802,2024-06-05 17:19:41.802868
18.84336833,0.01452827454,0.4302825928,0.7643108368,2024-06-05 17:19:41.843368
18.88385911,-1.144260406,-1.596967697,1.345603943,2024-06-05 17:19:41.883859
18.92434978,-0.844004631,-2.08199358,1.229424477,2024-06-05 17:19:41.924350
18.96481051,-0.2979183197,-1.529359341,0.9953446388,2024-06-05 17:19:41.964811
19.00530421,0.3069152832,-1.143522739,1.093160152,2024-06-05 17:19:42.005304
19.04581458,0.4911727905,-0.2000451088,0.2955677509,2024-06-05 17:19:42.045815
19.08632442,0.3267469406,0.05702877045,0.4320220947,2024-06-05 17:19:42.086324
19.12679025,-0.4080924988,-0.714527607,0.6755332947,2024-06-05 17:19:42.126790
19.16728015,-0.1831841469,-0.8836355209,0.09781980515,2024-06-05 17:19:42.167280
19.20777296,-1.045491219,-2.483901978,0.5841994286,2024-06-05 17:19:42.207773
19.24827255,-0.9780926704,-1.939905643,0.03972101212,2024-06-05 17:19:42.248273
19.28877161,0.8463582993,-1.135961533,-0.899066925,2024-06-05 17:19:42.288772
19.32923489,1.807043076,-0.4171690941,-1.287898064,2024-06-05 17:19:42.329235
19.36971229,1.265027523,-0.9432780743,-0.3621220589,2024-06-05 17:19:42.369712
19.41020666,0.5489935875,-0.8191616535,-0.4684529305,2024-06-05 17:19:42.410207
19.45071494,1.486233234,-0.4822964668,-1.005170345,2024-06-05 17:19:42.450715
19.49119093,0.2612228394,0.5831019878,-0.856795311,2024-06-05 17:19:42.491191
19.53169317,2.716574669,1.450237513,-0.9521245956,2024-06-05 17:19:42.531693
19.5721552,2.172267914,1.249262094,-0.7262005806,2024-06-05 17:19:42.572155
19.61264619,1.764823437,0.9847223759,-0.9182271957,2024-06-05 17:19:42.612646
19.65316692,-0.4841346741,0.07468390465,0.2109313011,2024-06-05 17:19:42.653167
19.69366453,-0.1192865372,0.8154342175,-0.05710792542,2024-06-05 17:19:42.693665
19.7341215,0.3397579193,0.5015158653,-0.3608150482,2024-06-05 17:19:42.734122
19.7746151,-0.3110585213,0.03018903732,-0.8453655243,2024-06-05 17:19:42.774615
19.81510078,0.2568459511,0.6875567436,-0.6699080467,2024-06-05 17:19:42.815101
19.85558338,1.720140934,1.222458363,-0.8007769585,2024-06-05 17:19:42.855583
19.89607484,-0.1111240387,0.7979421616,-0.2969923019,2024-06-05 17:19:42.896075
19.93662822,-1.189429283,-0.6440930367,0.3876047134,2024-06-05 17:19:42.936628
19.97711718,-1.100558758,-1.944783211,0.7733776569,2024-06-05 17:19:42.977117
20.01753713,-1.64847517,-1.365380764,0.7130510807,2024-06-05 17:19:43.017537
20.05806093,-0.8182959557,-0.07396650314,0.433068037,2024-06-05 17:19:43.058061
20.09851817,0.08579301834,-0.8265480995,-0.2883982658,2024-06-05 17:19:43.098518
20.13899734,-0.2522540092,1.116240025,0.2302689552,2024-06-05 17:19:43.138997
20.17949083,-1.266514778,1.640247345,0.8088159561,2024-06-05 17:19:43.179491
20.21997359,-0.2949409485,0.7443194389,0.5850982666,2024-06-05 17:19:43.219974
20.26047031,-0.554125309,-0.9435539246,0.1658754349,2024-06-05 17:19:43.260470
20.30096468,-1.128554821,-1.278745651,0.8420038223,2024-06-05 17:19:43.300965
20.34146176,0.3976144791,-0.9882555008,0.4657859802,2024-06-05 17:19:43.341462
20.38193989,1.019866228,-0.1723070145,-0.067507267,2024-06-05 17:19:43.381940
20.42250078,0.5960235596,0.5426673889,0.05885219574,2024-06-05 17:19:43.422501
20.46293562,0.539703846,0.9033908844,0.1782429218,2024-06-05 17:19:43.462936
20.50343973,0.2722806931,0.2759661674,0.2707936764,2024-06-05 17:19:43.503440
20.54389619,-0.1965498924,-0.74914217,0.6878113747,2024-06-05 17:19:43.543896
20.58440822,-1.519643307,-0.1601090431,0.6302330494,2024-06-05 17:19:43.584408
20.62493885,-0.8144168854,0.2674708366,0.2707090378,2024-06-05 17:19:43.624939
20.66536161,0.01807403564,-1.14210844,0.7198522091,2024-06-05 17:19:43.665362
20.70584093,0.191183567,-1.724638939,0.4786453247,2024-06-05 17:19:43.705841
20.74632505,0.2825188637,-1.304098606,0.05636501312,2024-06-05 17:19:43.746325
20.78682005,-0.3134102821,-1.6191082,0.940536499,2024-06-05 17:19:43.786820
20.82733442,0.06206083298,-1.612805367,0.9741353989,2024-06-05 17:19:43.827334
20.86783395,0.4569339752,-1.209092617,-0.3953461647,2024-06-05 17:19:43.867834
20.90831729,3.138729095,-0.2096910477,-0.3807358742,2024-06-05 17:19:43.908317
20.94879374,0.8677992821,-2.593770981,0.4012966156,2024-06-05 17:19:43.948794
20.98928421,1.932750702,-0.04839849472,-0.3036818504,2024-06-05 17:19:43.989284
21.02978067,2.519997597,2.872683287,0.1017856598,2024-06-05 17:19:44.029781
21.07026937,3.903760672,2.474029541,-0.5478801727,2024-06-05 17:19:44.070269
21.11078098,1.846761703,1.437039375,-0.2708339691,2024-06-05 17:19:44.110781
21.15123541,1.271996498,-0.4494812489,-0.00440788269,2024-06-05 17:19:44.151235
21.19171598,1.41822052,0.6085386276,1.585718632,2024-06-05 17:19:44.191716
21.2322213,-3.722378731,-0.07784795761,2.607141495,2024-06-05 17:19:44.232221
21.27274114,0.8546147346,-2.447048187,0.9219386578,2024-06-05 17:19:44.272741
21.31323791,3.983323097,0.06209993362,0.1946861744,2024-06-05 17:19:44.313238
21.35371296,2.737365484,2.027239799,0.02351212502,2024-06-05 17:19:44.353713
21.39418041,1.156937122,1.848077297,0.3079464436,2024-06-05 17:19:44.394180
21.43466182,-0.2195620537,0.2095799446,1.482979059,2024-06-05 17:19:44.434662
21.47514989,-2.584561825,-2.219219208,1.965878725,2024-06-05 17:19:44.475150
21.51564078,-2.340703011,-0.9347524643,2.298828363,2024-06-05 17:19:44.515641
21.55611296,-1.215791225,-0.1043310165,1.271146774,2024-06-05 17:19:44.556113
21.59660593,1.088228226,0.4901175499,1.812385082,2024-06-05 17:19:44.596606
21.6371565,1.318411827,0.3041582108,0.8909484148,2024-06-05 17:19:44.637156
21.67760609,-0.8691391945,0.4298157692,1.503670692,2024-06-05 17:19:44.677606
21.71806114,-0.9857912064,-0.4263758659,1.695624948,2024-06-05 17:19:44.718061
21.75858317,-0.401804924,-0.7277145386,1.908033848,2024-06-05 17:19:44.758583
21.79905421,0.05793380737,-1.227725029,1.934631586,2024-06-05 17:19:44.799054
21.8395488,0.3142719269,-1.064053535,1.447434664,2024-06-05 17:19:44.839549
21.88003728,0.1024270058,-0.6123933792,1.196159124,2024-06-05 17:19:44.880037
21.92052848,0.3008995056,0.5953621864,1.13928318,2024-06-05 17:19:44.920528
21.96101932,0.1817269325,-0.04163122177,0.6029398441,2024-06-05 17:19:44.961019
22.0015414,1.473691463,2.879705906,-0.4946541786,2024-06-05 17:19:45.001541
22.04203744,2.768271446,1.452225685,2.068291903,2024-06-05 17:19:45.042037
22.08251239,-2.216183662,-7.242303848,2.082775116,2024-06-05 17:19:45.082512
22.12301958,-2.327741146,-3.802659512,1.772789717,2024-06-05 17:19:45.123020
22.16347072,-0.8520236015,0.8666758537,1.171122551,2024-06-05 17:19:45.163471
22.20393234,-0.7907967567,0.2543559074,-0.9127483368,2024-06-05 17:19:45.203932
22.2444426,3.586945057,-2.183469772,-2.211221695,2024-06-05 17:19:45.244443
22.28490812,5.332052231,0.5222296715,-3.022623062,2024-06-05 17:19:45.284908
22.32539963,3.616611004,2.403940678,2.921169758,2024-06-05 17:19:45.325400
22.36591104,-7.009608269,-2.782725334,3.634847164,2024-06-05 17:19:45.365911
22.40640791,1.655749321,-3.774632931,1.865015984,2024-06-05 17:19:45.406408
22.4468964,3.709494114,3.143501282,-0.07085132599,2024-06-05 17:19:45.446896
22.48736046,2.484766006,-0.29261446,0.5253920555,2024-06-05 17:19:45.487360
22.52787031,2.423481464,-0.2170603275,-0.3179063797,2024-06-05 17:19:45.527870
22.56833744,4.259352684,2.22995019,-1.368752718,2024-06-05 17:19:45.568337
22.60885458,2.37858057,2.773876667,-0.2035765648,2024-06-05 17:19:45.608855
22.64930885,-0.7116298676,0.7070727348,1.536935806,2024-06-05 17:19:45.649309
22.6899251,-0.411303997,-0.956799984,2.291810751,2024-06-05 17:19:45.689925
22.73029765,-0.1761732101,0.0195775032,2.151014805,2024-06-05 17:19:45.730298
22.77079744,-2.01510191,-1.619410515,1.69718051,2024-06-05 17:19:45.770797
22.81126775,-1.682531357,-1.737754345,1.057560682,2024-06-05 17:19:45.811268
22.85176947,1.383445263,0.2328987122,0.4496254921,2024-06-05 17:19:45.851769
22.89222911,-0.4888191223,0.9493074417,0.6149230003,2024-06-05 17:19:45.892229
22.93282843,-1.849243641,0.3108434677,0.7334303856,2024-06-05 17:19:45.932828
22.97331838,-0.353925705,0.03907489777,1.270009518,2024-06-05 17:19:45.973318
23.0137201,-2.122465611,-0.9197921753,1.997606277,2024-06-05 17:19:46.013720
23.05424239,-1.410694122,-1.915178776,1.781708002,2024-06-05 17:19:46.054242
23.09472255,-0.3426675797,-1.145154476,0.8991613388,2024-06-05 17:19:46.094723
23.13520937,0.9209785461,-0.8056840897,0.3290951252,2024-06-05 17:19:46.135209
23.17567838,2.432552338,-0.2952885628,0.03101468086,2024-06-05 17:19:46.175678
23.21618479,1.752653599,1.169691086,-0.0509827137,2024-06-05 17:19:46.216185
23.25666104,1.529147148,0.3867621422,0.2003221512,2024-06-05 17:19:46.256661
23.29715223,-2.368578911,-0.8696331978,1.27376771,2024-06-05 17:19:46.297152
23.33763723,-4.146552086,-2.108486176,0.1538653374,2024-06-05 17:19:46.337637
23.37810437,-0.7967424393,-1.624229908,0.4614274502,2024-06-05 17:19:46.378104
23.41862593,1.596102715,-1.296408176,-0.4349577427,2024-06-05 17:19:46.418626
23.45911786,1.244161129,-0.8369498253,-0.7378928661,2024-06-05 17:19:46.459118
23.49959171,-1.325126171,-1.248795509,-0.02928709984,2024-06-05 17:19:46.499592
23.54010828,0.4018216133,-0.4506635666,-0.08885335922,2024-06-05 17:19:46.540108
23.58055874,1.547135353,-1.511168957,-1.374424458,2024-06-05 17:19:46.580559
23.62106786,-0.3407235146,-2.533821821,-0.4655103683,2024-06-05 17:19:46.621068
23.66153203,2.509297371,1.018211365,-2.425909996,2024-06-05 17:19:46.661532
23.70205255,3.086187363,0.009145259857,-1.745639324,2024-06-05 17:19:46.702053
23.74254978,1.392874241,0.5848283768,-0.8775014877,2024-06-05 17:19:46.742550
23.78308833,2.347460747,1.344865561,-0.7753696442,2024-06-05 17:19:46.783088
23.82348525,2.635039806,1.148144484,-0.4730024338,2024-06-05 17:19:46.823485
23.86399307,1.459456444,1.566678286,-0.196574688,2024-06-05 17:19:46.863993
23.90448463,1.565009594,0.3275325298,-0.01951122284,2024-06-05 17:19:46.904485
23.94496307,2.09331131,-0.4095511436,0.3944797516,2024-06-05 17:19:46.944963
23.98544619,-0.4934229851,-0.579158783,0.5213489532,2024-06-05 17:19:46.985446
24.02594546,0.1795582771,0.04770994186,1.146465302,2024-06-05 17:19:47.025945
24.06643937,0.04169034958,-0.08059740067,0.1403057575,2024-06-05 17:19:47.066439
24.10694447,-1.142858505,0.196624279,-0.1875529289,2024-06-05 17:19:47.106944
24.14742744,-0.2226338387,0.9750161171,0.5197587013,2024-06-05 17:19:47.147427
24.18791635,-0.6135258675,-3.419867992,-0.4168403149,2024-06-05 17:19:47.187916
24.22838025,-2.168052197,-2.836552143,1.217258215,2024-06-05 17:19:47.228380
24.2688688,-2.588212967,0.4431562424,0.3462662697,2024-06-05 17:19:47.268869
24.30936187,-0.1969819069,0.7562427521,0.8896887302,2024-06-05 17:19:47.309362
24.34984437,-1.156777859,1.41578722,0.4745457172,2024-06-05 17:19:47.349844
24.39033859,0.9648528099,2.174565792,0.4323246479,2024-06-05 17:19:47.390339
24.43083202,-1.210906506,-0.754737854,-0.09961175919,2024-06-05 17:19:47.430832
24.47134234,-4.142230988,-4.842245579,1.684730768,2024-06-05 17:19:47.471342
24.51181156,2.220232964,-0.5877404213,-1.078289747,2024-06-05 17:19:47.511812
24.55229062,-0.7651877403,-1.171255112,-0.196693182,2024-06-05 17:19:47.552291
24.59279781,-0.9578413963,0.7729797363,0.3292253017,2024-06-05 17:19:47.592798
24.63328343,1.214483738,0.8054823875,-0.3008697033,2024-06-05 17:19:47.633283
24.67377119,1.757459641,1.374616146,-0.7597017288,2024-06-05 17:19:47.673771
24.7142615,-0.2629013062,0.00860452652,-0.02496647835,2024-06-05 17:19:47.714261
24.75473828,-2.175934792,-2.005804062,0.2665503025,2024-06-05 17:19:47.754738
24.79527838,-2.74436903,-4.212989807,-2.015589237,2024-06-05 17:19:47.795278
24.83575499,-2.037169456,-2.294445992,0.3036384583,2024-06-05 17:19:47.835755
24.87622562,0.7215619087,-0.6637439728,-1.659239769,2024-06-05 17:19:47.876226
24.91671333,1.289491653,-1.540164471,-1.226557732,2024-06-05 17:19:47.916713
24.95717307,2.816525936,-0.5863449574,-2.453136921,2024-06-05 17:19:47.957173
24.99767755,2.616681099,0.6325073242,-1.29798007,2024-06-05 17:19:47.997678
25.03818098,0.5359454155,0.1679787636,-1.551175117,2024-06-05 17:19:48.038181
25.07865458,2.53474474,1.671547413,-1.098797321,2024-06-05 17:19:48.078655
25.11914989,3.564107895,1.32003653,-1.352032423,2024-06-05 17:19:48.119150
25.15963942,1.732239246,1.540369034,-0.7424855232,2024-06-05 17:19:48.159639
25.20013765,0.09658527374,0.6181116104,-0.1645870209,2024-06-05 17:19:48.200138
25.24061953,0.9996919632,-0.5334634781,0.1013183594,2024-06-05 17:19:48.240620
25.28111083,0.7339920998,0.01347637177,-0.2932167053,2024-06-05 17:19:48.281111
25.32159567,0.9807281494,-0.2328362465,-0.2544291019,2024-06-05 17:19:48.321596
25.36206682,1.518573761,-0.1860771179,-0.5231461525,2024-06-05 17:19:48.362067
25.40257093,0.4424114227,-0.3558688164,-0.08447027206,2024-06-05 17:19:48.402571
25.44310161,-1.573813438,1.694141388,1.091944933,2024-06-05 17:19:48.443102
25.48356718,-2.221350193,-0.8330807686,1.064224482,2024-06-05 17:19:48.483567
25.52401796,-1.664269447,-4.655700207,0.1653783321,2024-06-05 17:19:48.524018
25.56451348,-3.650809765,-0.4568014145,1.158825874,2024-06-05 17:19:48.564513
25.60502057,-2.541325569,-0.5626564026,0.5641686916,2024-06-05 17:19:48.605021
25.64547906,-0.7159209251,0.4077954292,0.3388090134,2024-06-05 17:19:48.645479
25.68599708,1.934693575,2.207714558,-0.2890043259,2024-06-05 17:19:48.685997
25.72649968,-0.4097623825,0.2320494652,0.3577392101,2024-06-05 17:19:48.726500
25.76696161,-4.959912777,-3.430247307,1.990713835,2024-06-05 17:19:48.766962
25.80746505,0.3592662811,-1.17022419,0.07902407646,2024-06-05 17:19:48.807465
25.84794536,2.218481541,0.5125551224,-0.6220686436,2024-06-05 17:19:48.847945
25.88843562,0.1541175842,-0.3363823891,0.3018460274,2024-06-05 17:19:48.888436
25.92894228,0.2866954803,0.7575907707,0.4906611443,2024-06-05 17:19:48.928942
25.96939812,-0.4395804405,1.096393108,-0.3302791119,2024-06-05 17:19:48.969398
26.00988234,-0.3516278267,-1.087710857,0.547801733,2024-06-05 17:19:49.009882
26.05040484,-1.165568352,-4.021436214,-0.1199719906,2024-06-05 17:19:49.050405
26.09089109,-0.7689819336,-2.085961342,-0.1620354652,2024-06-05 17:19:49.090891
26.13136301,-1.503977776,-0.6143126488,-0.1739506721,2024-06-05 17:19:49.131363
26.17187317,2.15071249,0.007481098175,-1.091855526,2024-06-05 17:19:49.171873
26.21233275,4.826586723,-0.4976029396,-2.259524107,2024-06-05 17:19:49.212333
26.25285697,2.447673798,0.1374938488,-0.4224257469,2024-06-05 17:19:49.252857
26.293329,-3.886372566,-1.746164799,0.4725704193,2024-06-05 17:19:49.293329
26.33382755,0.5377755165,-1.225397587,-0.9235160351,2024-06-05 17:19:49.333828
26.37430333,3.481960297,1.756052256,-1.448792458,2024-06-05 17:19:49.374303
26.41480546,6.328752518,2.745608091,-1.591265917,2024-06-05 17:19:49.414805
26.45528046,2.113400459,2.196346998,-0.3969552517,2024-06-05 17:19:49.455280
26.4957676,1.182471275,0.977350235,0.3805837631,2024-06-05 17:19:49.495768
26.53633807,-0.1771373749,0.09969997406,1.026597261,2024-06-05 17:19:49.536338
26.57674025,-0.5377397537,-1.165864468,0.1738605499,2024-06-05 17:19:49.576740
26.6172476,0.2800335884,-0.9978876114,0.3326406479,2024-06-05 17:19:49.617248
26.65772499,0.2601561546,0.9147496223,-0.2862639427,2024-06-05 17:19:49.657725
26.69819567,-1.091632843,1.504249573,-0.06670379639,2024-06-05 17:19:49.698196
26.73871119,-2.012075901,-1.229904652,-0.1830880642,2024-06-05 17:19:49.738711
26.77915728,-0.8732261658,-3.129092216,0.166863203,2024-06-05 17:19:49.779157
26.81969223,-2.916420937,0.719950676,0.1259684563,2024-06-05 17:19:49.819692
26.86015645,-1.851099491,-0.7622175217,-0.1388170719,2024-06-05 17:19:49.860156
26.90071859,-2.634521008,0.3251714706,0.5792546272,2024-06-05 17:19:49.900719
26.94114265,-0.1098794937,2.746023178,-0.6845037937,2024-06-05 17:19:49.941143
26.98162463,-3.772624016,-1.603549957,0.2978253365,2024-06-05 17:19:49.981625
27.02212275,-2.15868187,-3.03188467,0.2166731358,2024-06-05 17:19:50.022123
27.06264307,1.418535233,-1.011625767,-0.6562533379,2024-06-05 17:19:50.062643
27.10306452,-0.8002905846,-1.06524086,-0.411331892,2024-06-05 17:19:50.103065
27.14359916,-1.27207756,-1.283523083,0.7189502716,2024-06-05 17:19:50.143599
27.1840901,-0.110640049,-1.247234821,-1.439365864,2024-06-05 17:19:50.184090
27.22457791,0.04017686844,-0.09447145462,-1.018676996,2024-06-05 17:19:50.224578
27.26506187,-0.6089801788,-0.7062754631,-1.7100389,2024-06-05 17:19:50.265062
27.30555343,-2.035636902,-2.00740242,-0.3337032795,2024-06-05 17:19:50.305553
27.3460439,-1.897624493,-3.998487949,-1.453113079,2024-06-05 17:19:50.346044
27.38653447,-2.271695137,-2.998774529,-1.025993109,2024-06-05 17:19:50.386534
27.42700426,0.8441462517,-1.676013708,-1.622144699,2024-06-05 17:19:50.427004
27.46750343,4.049084663,-1.405639648,-3.327458382,2024-06-05 17:19:50.467503
27.50797703,3.553521633,-1.048261881,-2.411080837,2024-06-05 17:19:50.507977
27.54848739,2.248870373,1.005582452,-1.204940081,2024-06-05 17:19:50.548487
27.5889801,1.600637436,1.168325782,-1.038684368,2024-06-05 17:19:50.588980
27.62946614,3.356851578,0.8513374329,-0.8648195267,2024-06-05 17:19:50.629466
27.66994453,2.878511429,0.3405880928,-0.7934389114,2024-06-05 17:19:50.669945
27.710424,1.929605484,0.6772418022,-0.3798623085,2024-06-05 17:19:50.710424
27.75089989,-0.443983078,0.1694860458,0.07639670372,2024-06-05 17:19:50.750900
27.79139202,-0.3983464241,-0.9557881355,-0.05039095879,2024-06-05 17:19:50.791392
27.83189119,1.219521999,-0.6121554375,-0.1864175797,2024-06-05 17:19:50.831891
27.87238703,1.600059986,0.02708721161,-0.487541914,2024-06-05 17:19:50.872387
27.91290437,-0.09377098083,0.6449179649,-0.05837702751,2024-06-05 17:19:50.912904
27.95333385,-1.560684204,-1.098491192,-0.1471765041,2024-06-05 17:19:50.953334
27.99384682,-2.253107071,-2.292304993,0.2140066624,2024-06-05 17:19:50.993847
28.03435676,-2.785975456,-1.792279243,0.6154808998,2024-06-05 17:19:51.034357
28.07483286,-1.988269806,0.1650557518,0.566642046,2024-06-05 17:19:51.074833
28.11530885,-0.9048032761,0.2501473427,0.8412897587,2024-06-05 17:19:51.115309
28.15581255,-0.01560401917,1.173004627,0.2709863186,2024-06-05 17:19:51.155813
28.1963089,-1.167385578,0.3299999237,0.7611222267,2024-06-05 17:19:51.196309
28.2367926,-1.755990505,-1.361021042,1.124605417,2024-06-05 17:19:51.236793
28.27730421,-0.02259588242,-0.5762829781,-0.304728508,2024-06-05 17:19:51.277304
28.31779088,1.317433357,-1.209717274,0.02513456345,2024-06-05 17:19:51.317791
28.35826656,0.5508112907,-0.4302635193,-0.3171941042,2024-06-05 17:19:51.358267
28.39876926,-0.1722173691,0.2463827133,-0.2837538719,2024-06-05 17:19:51.398769
28.43924109,-0.783908844,-0.3743948936,1.188174963,2024-06-05 17:19:51.439241
28.47972208,-3.765780449,-1.863021851,-0.5730503798,2024-06-05 17:19:51.479722
28.52020067,-0.8084578514,-1.145123482,-0.9784802198,2024-06-05 17:19:51.520201
28.56070656,0.8714632988,-1.621002197,-0.06508469582,2024-06-05 17:19:51.560707
28.60118926,-0.6689867973,-2.508581638,-1.201314211,2024-06-05 17:19:51.601189
28.64166755,-0.05267047882,-1.93820715,-0.6932287216,2024-06-05 17:19:51.641668
28.68219994,1.865195274,-0.5274813175,-1.105438709,2024-06-05 17:19:51.682200
28.72271083,3.308909416,-0.5497925282,-1.255258083,2024-06-05 17:19:51.722711
28.76315046,2.955548286,-0.4487836361,-1.644343138,2024-06-05 17:19:51.763150
28.80362452,0.9512863159,-0.05572867393,-0.9510064125,2024-06-05 17:19:51.803625
28.84413281,1.876895905,0.4792735577,-0.925350666,2024-06-05 17:19:51.844133
28.88460828,3.154900551,1.927846432,-0.3279979229,2024-06-05 17:19:51.884608
28.92508682,2.670377731,1.852610588,-0.5790228844,2024-06-05 17:19:51.925087
28.96559702,3.113077164,1.176091194,-0.6569752693,2024-06-05 17:19:51.965597
29.00607411,2.555120468,0.6015825272,-0.4416842461,2024-06-05 17:19:52.006074
29.0465765,-1.748820782,-0.3746438026,0.427123785,2024-06-05 17:19:52.046577
29.08707447,-1.463345528,-1.42123127,0.8938388824,2024-06-05 17:19:52.087074
29.1275689,-0.8972883224,-1.176398754,0.3947918415,2024-06-05 17:19:52.127569
29.16803682,-1.695960999,-0.5878362656,0.2349839211,2024-06-05 17:19:52.168037
29.2085238,-0.06522369385,0.5428681374,0.5033092499,2024-06-05 17:19:52.208524
29.24901801,-0.1968698502,0.1185994148,-0.1461648941,2024-06-05 17:19:52.249018
29.28949223,-3.069700718,0.2600445747,0.4570171833,2024-06-05 17:19:52.289492
29.32999083,-2.297783852,-0.8438858986,0.3544449806,2024-06-05 17:19:52.329991
29.37049166,-3.309067726,-1.973297119,0.5464978218,2024-06-05 17:19:52.370492
29.41096135,-0.8773908615,0.5069584846,0.9050757885,2024-06-05 17:19:52.410961
29.45147864,1.043048382,0.2840089798,0.2070748806,2024-06-05 17:19:52.451479
29.49195536,0.4387106895,-0.4445028305,-0.07243180275,2024-06-05 17:19:52.491955
29.53246031,0.6962695122,1.03521204,0.1133050919,2024-06-05 17:19:52.532460
29.57291801,-0.8167090416,0.4339022636,-0.1409966946,2024-06-05 17:19:52.572918
29.61339473,-3.770211697,-3.057344437,0.9760830402,2024-06-05 17:19:52.613395
29.65389124,0.6928110123,-1.472151279,-0.09712505341,2024-06-05 17:19:52.653891
29.69443343,1.443914413,-0.6984343529,-0.7705181837,2024-06-05 17:19:52.694433
29.73486734,-1.927716255,-1.01445055,-0.1335022449,2024-06-05 17:19:52.734867
29.77539515,-1.16492939,-0.3624005318,-0.5183076859,2024-06-05 17:19:52.775395
29.81588473,1.472123623,-0.6841025352,-1.467788696,2024-06-05 17:19:52.815885
29.85633598,-1.813177109,-2.420931339,0.4109592438,2024-06-05 17:19:52.856336
29.89683926,0.2584075928,-1.03588295,-1.198234081,2024-06-05 17:19:52.896839
29.93732979,0.1211557388,-2.184254169,-1.333466768,2024-06-05 17:19:52.937330
29.97778208,1.084433556,-1.147833824,-1.541385889,2024-06-05 17:19:52.977782
30.01831281,2.89374733,-0.5003349781,-1.498158455,2024-06-05 17:19:53.018313
30.0587852,3.930394173,1.424360752,-1.139926434,2024-06-05 17:19:53.058785
30.09927484,2.243752003,0.7853569984,-1.006782055,2024-06-05 17:19:53.099275
30.1397765,3.664710522,0.9236032963,-0.3961541653,2024-06-05 17:19:53.139776
30.18026255,1.917375565,1.438623905,-0.05256152153,2024-06-05 17:19:53.180263
30.22075708,1.540997505,0.6448152065,0.0790848732,2024-06-05 17:19:53.220757
30.26123369,0.9998192787,0.01011657715,-0.05325603485,2024-06-05 17:19:53.261234
30.30177291,1.099656582,0.1483178139,-0.1801083088,2024-06-05 17:19:53.301773
30.34220229,0.2326469421,-0.1341300011,0.2874252796,2024-06-05 17:19:53.342202
30.38269926,-0.8391399384,0.6235289574,0.9941673279,2024-06-05 17:19:53.382699
30.42324676,-2.31196928,-0.4653754234,1.133555651,2024-06-05 17:19:53.423247
30.46371515,-1.695847988,-0.4976730347,1.090894818,2024-06-05 17:19:53.463715
30.50417109,-0.9778447151,-0.01371669769,0.6651363373,2024-06-05 17:19:53.504171
30.54464296,-1.699996471,-1.233269691,0.3254468441,2024-06-05 17:19:53.544643
30.5851464,-2.307423592,-1.116455078,0.6137397289,2024-06-05 17:19:53.585146
30.62564676,-1.022543907,-0.2734584808,1.183937907,2024-06-05 17:19:53.625647
30.66614187,-1.661851883,-1.065824986,0.7488406897,2024-06-05 17:19:53.666142
30.70662791,-0.8882832527,1.071077824,0.4174690247,2024-06-05 17:19:53.706628
30.7470939,1.315429688,1.807224274,0.3537858725,2024-06-05 17:19:53.747094
30.7875826,0.07555627823,-1.140511036,0.2458913326,2024-06-05 17:19:53.787583
30.82808848,-1.485095978,-2.14511013,0.3000215292,2024-06-05 17:19:53.828088
30.86860578,-1.397960663,-1.030538559,0.5140573978,2024-06-05 17:19:53.868606
30.90906583,-1.759373665,-2.645098686,0.8246779442,2024-06-05 17:19:53.909066
30.94954713,1.126730442,-0.7305083275,-0.8359526396,2024-06-05 17:19:53.949547
30.99005239,1.594771862,-0.02737092972,-0.2253046036,2024-06-05 17:19:53.990052
31.03052906,-0.2334527969,-0.8967666626,-0.5687441826,2024-06-05 17:19:54.030529
31.07101208,-1.978721619,-1.36185503,-0.4834001064,2024-06-05 17:19:54.071012
31.11151593,-0.428668499,-1.776087761,-1.572152376,2024-06-05 17:19:54.111516
31.15200531,-1.993779182,-3.54874897,-0.107963562,2024-06-05 17:19:54.152005
31.19249557,-2.630059242,-2.238281965,-0.3064985275,2024-06-05 17:19:54.192496
31.23300312,0.4153966904,-1.848269463,-0.8080663681,2024-06-05 17:19:54.233003
31.27346989,5.216429234,0.106420517,-2.405638218,2024-06-05 17:19:54.273470
31.31394906,7.32545805,1.337258816,-2.766682148,2024-06-05 17:19:54.313949
31.35443005,5.622570992,1.70531559,-3.322372675,2024-06-05 17:19:54.354430
31.39496322,3.323196888,2.772685528,-1.928725004,2024-06-05 17:19:54.394963
31.43543281,1.112641811,2.608973742,-0.823908329,2024-06-05 17:19:54.435433
31.47589947,1.280792236,3.41582799,0.564170599,2024-06-05 17:19:54.475899
31.51640244,0.8064112663,3.378185034,2.836947203,2024-06-05 17:19:54.516402
31.55688906,1.206149578,1.997739315,0.8858573437,2024-06-05 17:19:54.556889
31.59736119,-1.792589664,-1.375747204,0.05379319191,2024-06-05 17:19:54.597361
31.6378439,-6.403508663,-1.604368687,0.1540647745,2024-06-05 17:19:54.637844
31.67835395,-2.372274399,-2.08167696,-0.1097579002,2024-06-05 17:19:54.678354
31.71885255,-3.564075947,-3.415733337,0.273940444,2024-06-05 17:19:54.718853
31.7593302,-1.49781847,-0.3142895699,-0.3297345638,2024-06-05 17:19:54.759330
31.7998101,-1.48404789,0.7873458862,-0.2713422775,2024-06-05 17:19:54.799810
31.84029937,-0.4644451141,1.733280182,0.1071853638,2024-06-05 17:19:54.840299
31.88079041,-1.760720253,-1.56532383,0.7502062321,2024-06-05 17:19:54.880790
31.92128312,-2.279953957,-0.5844392776,0.2568442822,2024-06-05 17:19:54.921283
31.96177426,0.2665991783,0.4298810959,-0.8838784695,2024-06-05 17:19:54.961774
32.00224447,0.8973264694,-1.535971165,-1.034900188,2024-06-05 17:19:55.002244
32.0427465,0.3315310478,-2.387525558,-0.8887133598,2024-06-05 17:19:55.042746
32.08323176,-1.593711853,-2.404327393,0.1297311783,2024-06-05 17:19:55.083232
32.12374083,-2.706601143,-0.906498909,-1.248654366,2024-06-05 17:19:55.123741
32.16422062,-2.513664246,-1.672062397,-1.667524576,2024-06-05 17:19:55.164221
32.20468447,-3.476312637,-1.23805809,-0.3714385033,2024-06-05 17:19:55.204684
32.24516505,-1.671010971,0.7821059227,-4.128209114,2024-06-05 17:19:55.245165
32.28569781,0.955016613,0.7519874573,-2.52555275,2024-06-05 17:19:55.285698
32.3261477,2.0562253,-2.447741508,-1.660399437,2024-06-05 17:19:55.326148
32.36665265,0.04933834076,-2.829621792,-4.170967579,2024-06-05 17:19:55.366653
32.40713484,1.347057343,-1.137488604,-0.7645998001,2024-06-05 17:19:55.407135
32.44766411,2.541668892,-1.179386377,-1.417709589,2024-06-05 17:19:55.447664
32.4881251,3.726212025,-0.1132457256,-0.7757425308,2024-06-05 17:19:55.488125
32.52861932,2.775000572,0.866759181,-0.8934783936,2024-06-05 17:19:55.528619
32.56910328,2.756279469,1.555055857,-0.6609899998,2024-06-05 17:19:55.569103
32.60958645,2.506635666,1.049262285,-0.2331058979,2024-06-05 17:19:55.609586
32.65007713,1.385117054,-0.1893815994,0.2150533199,2024-06-05 17:19:55.650077
32.69056114,1.912602425,0.6922626495,0.3875598907,2024-06-05 17:19:55.690561
32.73101468,0.9884467125,2.060075998,1.517075539,2024-06-05 17:19:55.731015
32.77156604,-1.18207407,-0.1420221329,1.635355711,2024-06-05 17:19:55.771566
32.81201609,-0.8381118774,-1.003982067,0.7445733547,2024-06-05 17:19:55.812016
32.85249244,-1.111318111,1.169048786,0.520198822,2024-06-05 17:19:55.852492
32.89297874,-2.623068333,-0.2913498878,0.120102644,2024-06-05 17:19:55.892979
32.93345864,-2.456774235,-2.622785091,-0.3165113926,2024-06-05 17:19:55.933459
32.97399036,-1.088914394,-1.198883533,0.5229172707,2024-06-05 17:19:55.973990
33.01451442,-1.437298775,-2.018793583,2.09846735,2024-06-05 17:19:56.014514
33.05494979,-1.326006889,-0.5384559631,1.615467191,2024-06-05 17:19:56.054950
33.09544958,-0.854514122,0.2732338905,1.255090714,2024-06-05 17:19:56.095450
33.13593317,-1.173286915,-0.3442354202,0.6946923733,2024-06-05 17:19:56.135933
33.17646682,0.3060545921,-0.3330545425,-0.5286890268,2024-06-05 17:19:56.176467
33.21693426,1.872359753,-0.488471508,-0.1833524704,2024-06-05 17:19:56.216934
33.25745598,-0.1521830559,-1.64934206,0.5047025681,2024-06-05 17:19:56.257456
33.29795666,-2.120054722,-0.8978767395,-0.2401471138,2024-06-05 17:19:56.297957
33.33838697,-1.5340271,-0.5107121468,0.5418877602,2024-06-05 17:19:56.338387
33.37890156,-1.943764687,-0.4404988289,-1.435063362,2024-06-05 17:19:56.378902
33.41936505,-0.9683346748,-1.539950848,-1.100251913,2024-06-05 17:19:56.419365
33.45985557,0.1311254501,-1.947807789,-0.2222194672,2024-06-05 17:19:56.459856
33.50038728,-0.1378479004,-1.706644535,-1.253250122,2024-06-05 17:19:56.500387
33.54082062,1.340228081,-1.82344985,-0.8942878246,2024-06-05 17:19:56.540821
33.58134645,2.307786942,0.2514548302,-1.801679611,2024-06-05 17:19:56.581346
33.62179275,2.793736458,-0.5883040428,-1.382938862,2024-06-05 17:19:56.621793
33.66224749,3.403205872,1.462036848,-0.7024466991,2024-06-05 17:19:56.662247
33.70277062,3.856319427,0.8736765385,-0.6041917801,2024-06-05 17:19:56.702771
33.74328723,2.482823372,0.2927978039,0.5395402908,2024-06-05 17:19:56.743287
33.78379583,4.214301109,1.124321938,0.4310157299,2024-06-05 17:19:56.783796
33.82424135,1.753844261,0.8976862431,0.9661061764,2024-06-05 17:19:56.824241
33.864739,1.930044174,0.2913222313,0.4837830067,2024-06-05 17:19:56.864739
33.90521932,0.1021232605,-0.8294801712,0.9396076202,2024-06-05 17:19:56.905219
33.94571947,-0.7376551628,-1.461436272,1.104936361,2024-06-05 17:19:56.945719
33.98619551,-0.2734870911,0.1637353897,0.3790814877,2024-06-05 17:19:56.986196
34.02667843,-1.571682453,-1.458189964,0.8690092564,2024-06-05 17:19:57.026678
34.0671751,-2.656962872,-0.8134059906,0.3067163229,2024-06-05 17:19:57.067175
34.10767854,-1.40477705,-0.797519207,0.3003044128,2024-06-05 17:19:57.107679
34.14817801,-1.700359344,-0.01347112656,0.5620397329,2024-06-05 17:19:57.148178
34.18864432,-0.8740520477,0.9165344238,0.8302152157,2024-06-05 17:19:57.188644
34.2291315,-2.882688046,-0.9697766304,1.958882451,2024-06-05 17:19:57.229132
34.26961687,-1.989097595,-1.850024223,1.675958037,2024-06-05 17:19:57.269617
34.31011296,-1.613418579,-0.7934780121,1.835917115,2024-06-05 17:19:57.310113
34.35062437,-1.308020115,-1.913691044,0.9587661028,2024-06-05 17:19:57.350624
34.39113385,2.33880806,1.353208065,-1.745440722,2024-06-05 17:19:57.391134
34.43160275,3.63459444,0.7232923508,0.3350377083,2024-06-05 17:19:57.431603
34.472069,2.639413357,-0.0805850029,-1.31386435,2024-06-05 17:19:57.472069
34.51260676,-3.703995228,-1.840569019,1.525983572,2024-06-05 17:19:57.512607
34.55302859,-4.464675426,-1.778561592,-0.3953769207,2024-06-05 17:19:57.553029
34.59352583,-1.561794281,-2.148674965,0.001712322235,2024-06-05 17:19:57.593526
34.63402223,-0.2042326927,-2.012107849,-0.6532654762,2024-06-05 17:19:57.634022
34.67452489,2.989396095,-1.009644032,-1.508745432,2024-06-05 17:19:57.674525
34.71498854,0.9274115562,0.01167345047,-0.7876858711,2024-06-05 17:19:57.714989
34.755469,-0.3568048477,-0.5084795952,-2.488170624,2024-06-05 17:19:57.755469
34.79598166,2.157263756,-0.005420923233,-0.7237305641,2024-06-05 17:19:57.795982
34.83648817,3.853759289,0.2634294033,-0.8465952873,2024-06-05 17:19:57.836488
34.87697728,1.912856102,-0.1591880322,-0.3347127438,2024-06-05 17:19:57.876977
34.91744666,4.315262794,1.296193004,-0.2466831207,2024-06-05 17:19:57.917447
34.95791364,3.656945229,2.309423923,-0.2503018379,2024-06-05 17:19:57.957914
34.99842432,3.008811951,1.012144089,-0.2749989033,2024-06-05 17:19:57.998424
35.03892322,0.9917488098,-0.5618290901,0.424639225,2024-06-05 17:19:58.038923
35.07939546,0.1932497025,0.02779006958,0.5634784698,2024-06-05 17:19:58.079395
35.11988692,-1.424620628,-0.4927353859,0.6096162796,2024-06-05 17:19:58.119887
35.16041911,-0.7066040039,-0.1342892647,0.4704959393,2024-06-05 17:19:58.160419
35.20088421,0.3489918709,0.1561999321,0.048640728,2024-06-05 17:19:58.200884
35.24135161,-1.014821529,-0.6663880348,0.2171728611,2024-06-05 17:19:58.241352
35.2818277,-3.068316936,-0.7771162987,0.2314367294,2024-06-05 17:19:58.281828
35.32234453,-1.250777245,0.07073354721,0.1368434429,2024-06-05 17:19:58.322345
35.36280187,-2.450524807,-2.034059048,0.6122024059,2024-06-05 17:19:58.362802
35.40332098,-2.340364456,-1.074156761,1.776634693,2024-06-05 17:19:58.403321
35.44378078,-1.575734138,0.4651098251,0.9198577404,2024-06-05 17:19:58.443781
35.48427801,-0.2691245079,0.4652047157,0.6283755302,2024-06-05 17:19:58.484278
35.52477374,-0.4154319763,0.5798206329,0.3370285034,2024-06-05 17:19:58.524774
35.5652551,-0.4259696007,-0.1098604202,-0.1475169659,2024-06-05 17:19:58.565255
35.6057589,-1.95964241,-2.065015316,0.1931948662,2024-06-05 17:19:58.605759
35.6462288,-0.724111557,-0.753680706,-0.7253699303,2024-06-05 17:19:58.646229
35.68674489,-0.1439366341,-0.7584843636,-0.3984098434,2024-06-05 17:19:58.686745
35.72720572,-0.6639575958,-0.7011504173,-1.526343346,2024-06-05 17:19:58.727206
35.76769249,-1.22617197,-0.799226284,-1.587483883,2024-06-05 17:19:58.767692
35.80818921,-1.030299187,-1.537494183,-1.061052322,2024-06-05 17:19:58.808189
35.8487088,-1.390671253,-1.685421944,-1.570289373,2024-06-05 17:19:58.848709
35.8891902,-0.3839507103,-1.763579369,-1.857461929,2024-06-05 17:19:58.889190
35.92966317,0.745616436,-0.6455874443,-1.959019661,2024-06-05 17:19:58.929663
35.97010744,1.595377922,-1.207825422,-2.152662277,2024-06-05 17:19:58.970107
36.01065947,3.540264606,0.359972477,-1.843426228,2024-06-05 17:19:59.010659
36.05113979,3.736639023,0.6236422062,-0.3968827724,2024-06-05 17:19:59.051140
36.09164364,1.607820511,0.8130688667,-0.589107275,2024-06-05 17:19:59.091644
36.13208921,4.408195496,1.702961445,-0.7709066868,2024-06-05 17:19:59.132089
36.17257807,2.63403368,1.524324179,-0.6606955528,2024-06-05 17:19:59.172578
36.21306692,0.8040614128,0.3685102463,-0.1380751133,2024-06-05 17:19:59.213067
36.25357786,-0.3939576149,-0.6965055466,0.1742286682,2024-06-05 17:19:59.253578
36.29404989,-0.6098856926,-0.7188186646,0.398116827,2024-06-05 17:19:59.294050
36.33454322,-0.914949894,-0.4590764046,0.6837937832,2024-06-05 17:19:59.334543
36.37503458,0.4482526779,-0.7304449081,-0.9693789482,2024-06-05 17:19:59.375035
36.41554499,0.09840106964,0.3967399597,0.5744915009,2024-06-05 17:19:59.415545
36.45601218,-1.871231079,0.07654571533,0.9687703848,2024-06-05 17:19:59.456012
36.49650062,-1.402818203,-2.395748138,1.188324571,2024-06-05 17:19:59.496501
36.53700989,-1.569942474,-1.881156445,1.300881028,2024-06-05 17:19:59.537010
36.57751208,-2.321653843,-1.263335705,2.341130257,2024-06-05 17:19:59.577512
36.6179864,-0.8953690529,-1.276950359,1.744394183,2024-06-05 17:19:59.617986
36.65848473,0.2233290672,0.1452717781,0.8513468504,2024-06-05 17:19:59.658485
36.69897093,0.2410283089,1.980025291,0.4931976795,2024-06-05 17:19:59.698971
36.739414,0.07584905624,-0.3168010712,1.225797415,2024-06-05 17:19:59.739414
36.77992911,-0.6716065407,-0.5081543922,0.08984172344,2024-06-05 17:19:59.779929
36.82041963,0.6641139984,0.5884480476,0.5935206413,2024-06-05 17:19:59.820420
36.8609688,0.5430655479,-1.639029503,0.2077805996,2024-06-05 17:19:59.860969
36.90141656,-0.6079330444,-1.112607002,0.4141585827,2024-06-05 17:19:59.901417
36.94191124,2.442252636,0.4174118042,-0.3940027952,2024-06-05 17:19:59.941911
36.98234728,1.631821156,0.5150547028,0.03286254406,2024-06-05 17:19:59.982347
37.02283619,1.003996849,0.1754050255,0.3507562876,2024-06-05 17:20:00.022836
37.06333411,-0.2348957062,-0.5411224365,0.5433843136,2024-06-05 17:20:00.063334
37.10384588,-1.73064518,0.6331691742,0.4408097267,2024-06-05 17:20:00.103846
37.14436385,-0.4424057007,0.3110427856,0.2002900839,2024-06-05 17:20:00.144364
37.18481739,-1.469320774,-0.5305328369,0.1247879267,2024-06-05 17:20:00.184817
37.22530208,-0.4908194542,-0.5102319717,-0.055149436,2024-06-05 17:20:00.225302
37.26579213,-1.501742363,-0.3146657944,-0.0611269474,2024-06-05 17:20:00.265792
37.30629817,-0.320898056,-0.1020412445,-0.2137820721,2024-06-05 17:20:00.306298
37.34679369,1.530956268,-0.3756399155,-1.04361701,2024-06-05 17:20:00.346794
37.38727531,0.8556365967,0.6361179352,-1.028441429,2024-06-05 17:20:00.387275
37.42775671,0.2665638924,-0.01479053497,-0.6486107111,2024-06-05 17:20:00.427757
37.46825234,-0.9022417068,-0.1015195847,-0.6824920177,2024-06-05 17:20:00.468252
37.50873499,1.019183874,0.8221359253,-0.8430510759,2024-06-05 17:20:00.508735
37.5492177,0.746819973,0.5081338882,-0.578234911,2024-06-05 17:20:00.549218
37.58973005,-0.4135351181,-1.340337753,-0.1643168926,2024-06-05 17:20:00.589730
37.63023182,-1.364179134,-0.7631559372,-0.3566040993,2024-06-05 17:20:00.630232
37.67070848,-0.5036797523,-0.4628219604,-0.3999502659,2024-06-05 17:20:00.670708
37.7112165,-0.6237511635,0.2260174751,-0.8176391125,2024-06-05 17:20:00.711216
37.75168807,1.121022224,0.6071372032,-1.14919281,2024-06-05 17:20:00.751688
37.79214255,0.5210118294,0.02469730377,-0.9167981148,2024-06-05 17:20:00.792143
37.83262197,-1.321229458,-0.6744127274,-0.01420331001,2024-06-05 17:20:00.832622
37.87309223,0.09220075607,-0.546587944,-0.6350814104,2024-06-05 17:20:00.873092
37.91359255,0.2624392509,0.518424511,-0.4585789442,2024-06-05 17:20:00.913593
37.95409953,0.5358481407,0.1046714783,-0.3059209585,2024-06-05 17:20:00.954100
37.99461333,-0.262488842,-1.032819748,-0.3659690619,2024-06-05 17:20:00.994613
38.03510906,-0.26963377,-1.723219872,0.2590081692,2024-06-05 17:20:01.035109
38.07560583,0.3942747116,0.2307081223,-0.09101951122,2024-06-05 17:20:01.075606
38.11608572,1.436839104,0.6130013466,-0.1158411503,2024-06-05 17:20:01.116086
38.15659406,1.063281536,0.4499268532,-0.2297774553,2024-06-05 17:20:01.156594
38.19707124,0.3852295876,1.064039707,-0.2192687988,2024-06-05 17:20:01.197071
38.23754739,0.639231205,0.1300230026,0.414110899,2024-06-05 17:20:01.237547
38.27803145,-0.6044335365,-1.595439911,0.7067962885,2024-06-05 17:20:01.278031
38.31851385,-0.142387867,-1.373526573,0.5801855326,2024-06-05 17:20:01.318514
38.35900067,1.144416809,-0.4860010147,0.2547014952,2024-06-05 17:20:01.359001
38.39949036,-0.06412744522,-0.9977970123,0.5633807182,2024-06-05 17:20:01.399490
38.43999551,0.4471311569,0.01032161713,0.1318365335,2024-06-05 17:20:01.439996
38.48049255,0.5732965469,1.011743069,0.09674358368,2024-06-05 17:20:01.480493
38.5209814,1.259198189,0.4232888222,0.0246553421,2024-06-05 17:20:01.520981
38.56144708,-0.4580965042,0.5763168335,0.2423056364,2024-06-05 17:20:01.561447
38.60193828,-0.4893770218,-0.1120929718,0.1788104773,2024-06-05 17:20:01.601938
38.64243437,-0.6892113686,-0.6946372986,0.3226164579,2024-06-05 17:20:01.642434
38.68292359,-0.4106407166,-0.9970817566,-0.01681256294,2024-06-05 17:20:01.682924
38.723379,0.264544487,-1.04722023,-0.02960813046,2024-06-05 17:20:01.723379
38.76387661,0.3634705544,0.1488552094,-0.140024066,2024-06-05 17:20:01.763877
38.80437952,1.083554268,0.0285282135,-0.1709423065,2024-06-05 17:20:01.804380
38.84487067,0.6684007645,0.391327858,0.08302021027,2024-06-05 17:20:01.844871
38.8853589,1.35971117,-1.233090401,0.05482983589,2024-06-05 17:20:01.885359
38.925844,-0.2306933403,0.7557473183,0.1906011105,2024-06-05 17:20:01.925844
38.96632364,-0.0577788353,1.22775507,-0.05040800571,2024-06-05 17:20:01.966324
39.00687255,-0.1295051575,-0.9270105362,0.1316895485,2024-06-05 17:20:02.006873
39.04733609,-0.3858146667,0.8486280441,-0.3017002344,2024-06-05 17:20:02.047336
39.08781645,0.8915638924,-1.456002235,0.3400563002,2024-06-05 17:20:02.087816
39.12829036,-1.472388744,-2.626851082,0.5444462299,2024-06-05 17:20:02.128290
39.16876932,0.3243246078,-0.7828674316,-0.08737230301,2024-06-05 17:20:02.168769
39.20928515,2.047921419,0.6293373108,0.2858797312,2024-06-05 17:20:02.209285
39.24977374,2.484388113,-0.308757782,-0.6640080214,2024-06-05 17:20:02.249774
39.29024562,0.1112647057,1.566725731,0.3183453083,2024-06-05 17:20:02.290246
39.33073005,0.8501095772,0.542219162,0.04205477238,2024-06-05 17:20:02.330730
39.37126656,0.324338913,-0.1115055084,0.374974966,2024-06-05 17:20:02.371267
39.41174354,0.1344490051,1.413118839,0.2580567598,2024-06-05 17:20:02.411744
39.45216291,0.2819046974,-0.7466869354,0.05014443398,2024-06-05 17:20:02.452163
39.49265109,-2.721456051,-1.467456818,0.4844164848,2024-06-05 17:20:02.492651
39.53314062,-0.06712722778,-1.167817116,0.05085611343,2024-06-05 17:20:02.533141
39.57362869,-0.06112766266,-0.2943620682,0.07065176964,2024-06-05 17:20:02.573629
39.61415645,0.6669940948,0.06778240204,-0.3117251396,2024-06-05 17:20:02.614156
39.654644,1.131145954,2.45985508,-0.5681313276,2024-06-05 17:20:02.654644
39.69512229,0.7119312286,1.933510303,-0.5232219696,2024-06-05 17:20:02.695122
39.73558171,-1.518957615,-0.2460269928,-0.3383593559,2024-06-05 17:20:02.735582
39.77608978,-1.325129509,-0.4717435837,-0.2268071175,2024-06-05 17:20:02.776090
39.81658739,-1.449945927,-0.6947975159,-0.4602246284,2024-06-05 17:20:02.816587
39.8571051,-0.3309693336,-0.5750017166,-0.7606188059,2024-06-05 17:20:02.857105
39.8975863,-0.7275662422,-1.078637123,-0.9470652342,2024-06-05 17:20:02.897586
39.93805671,0.06765174866,1.708417416,-1.200874686,2024-06-05 17:20:02.938057
39.97853072,0.361374855,0.6387119293,-1.111468792,2024-06-05 17:20:02.978531
40.01903864,-0.1724767685,-0.9635057449,-0.8259792328,2024-06-05 17:20:03.019039
40.05956463,1.121326447,-0.904545784,-1.303337216,2024-06-05 17:20:03.059565
40.10003718,1.098359108,-0.2294044495,-0.7630221844,2024-06-05 17:20:03.100037
40.14051578,0.583990097,-1.877594948,-1.11136806,2024-06-05 17:20:03.140516
40.18103307,-0.196141243,-0.2555494308,-0.1069290638,2024-06-05 17:20:03.181033
40.22149765,0.9192819595,-1.199808121,-0.9501975775,2024-06-05 17:20:03.221498
40.26202005,0.1808786392,-0.5201950073,-0.6761783361,2024-06-05 17:20:03.262020
40.30250859,0.9062416553,-0.2085123062,-0.6367862225,2024-06-05 17:20:03.302509
40.34293098,1.058579445,0.6087713242,-0.4368413687,2024-06-05 17:20:03.342931
40.38342583,1.088051319,0.2329454422,-0.4841718674,2024-06-05 17:20:03.383426
40.42392437,-0.01605844498,-1.04065609,-0.6179232597,2024-06-05 17:20:03.423924
40.46440744,-0.1259918213,-0.6897907257,-0.1767811775,2024-06-05 17:20:03.464407
40.5049014,-0.7912349701,-1.268217087,0.3178787231,2024-06-05 17:20:03.504901
40.54539499,0.8124308586,-0.2221412659,-0.3618206978,2024-06-05 17:20:03.545395
40.58587833,1.119214296,0.008516311646,-0.4769191742,2024-06-05 17:20:03.585878
40.62638822,0.8147215843,0.5976862907,-0.4896296263,2024-06-05 17:20:03.626388
40.66689322,0.2915449142,-0.180850029,-0.5132558346,2024-06-05 17:20:03.666893
40.70735328,-0.5275993347,-0.9279193878,0.1989181042,2024-06-05 17:20:03.707353
40.74783119,1.576099873,-0.6669826508,-0.7093610764,2024-06-05 17:20:03.747831
40.78833239,-0.4156041145,-1.134896278,-0.001313686371,2024-06-05 17:20:03.788332
40.82881739,0.6193170547,-0.3746032715,-0.07884716988,2024-06-05 17:20:03.828817
40.86933546,1.114976168,-0.1280574799,-0.3228404522,2024-06-05 17:20:03.869335
40.90983281,0.8142843246,-1.254903793,-0.2120733261,2024-06-05 17:20:03.909833
40.9502888,1.776330471,-0.8731079102,-0.744699955,2024-06-05 17:20:03.950289
40.99077432,0.7819452286,-0.4216871262,-0.1420502663,2024-06-05 17:20:03.990774
41.03128312,1.200266123,-0.4673814774,-0.5656039715,2024-06-05 17:20:04.031283
41.07178359,0.2313203812,-0.3763628006,-0.3666453362,2024-06-05 17:20:04.071784
41.1122738,0.6647520065,-1.024044037,-0.8688838482,2024-06-05 17:20:04.112274
41.1527626,-0.2884087563,-0.556678772,-0.7187080383,2024-06-05 17:20:04.152763
41.1932515,0.3921556473,-1.065728188,-0.6670480967,2024-06-05 17:20:04.193252
41.2336788,0.1680698395,-1.289130211,-0.767993927,2024-06-05 17:20:04.233679
41.27419463,-0.04506158829,-0.07996082306,-0.9479682446,2024-06-05 17:20:04.274195
41.31470364,0.265484333,0.9233679771,-0.5904741287,2024-06-05 17:20:04.314704
41.35517739,-0.664188385,0.9822597504,-0.9542754889,2024-06-05 17:20:04.355177
41.39566228,-1.541447639,1.117424488,-0.9843477011,2024-06-05 17:20:04.395662
41.43618739,-1.821850777,-1.672385216,-1.040160537,2024-06-05 17:20:04.436187
41.47669333,-1.579036236,-1.382212639,-1.098478794,2024-06-05 17:20:04.476693
41.51717447,-0.3547549248,-1.004049301,-1.077008009,2024-06-05 17:20:04.517174
41.55763562,-1.066344738,-0.9678864479,-0.9485559464,2024-06-05 17:20:04.557636
41.59812609,0.152279377,0.5470209122,-1.605460644,2024-06-05 17:20:04.598126
41.63862729,0.296880722,0.3211040497,-2.073996782,2024-06-05 17:20:04.638627
41.67909791,-0.1187338829,0.8809175491,-2.264187098,2024-06-05 17:20:04.679098
41.71954296,0.1877155304,-0.8367080688,-1.730215073,2024-06-05 17:20:04.719543
41.76003624,-3.022538185,-2.156689644,-1.098954916,2024-06-05 17:20:04.760036
41.80055328,-2.095379353,-0.8031768799,-0.7055063248,2024-06-05 17:20:04.800553
41.84106432,-0.8072924614,-1.717257023,-1.346235514,2024-06-05 17:20:04.841064
41.88154161,-0.3868517876,-1.338434696,-1.461673737,2024-06-05 17:20:04.881542
41.92202312,1.341451168,-1.067285538,-3.359937668,2024-06-05 17:20:04.922023
41.96248906,-0.1670041084,0.1745867729,-0.6829724312,2024-06-05 17:20:04.962489
42.0029776,-1.025979042,0.6604151726,-2.123216391,2024-06-05 17:20:05.002978
42.04346619,-0.1204419136,-0.1784505844,-1.552096367,2024-06-05 17:20:05.043466
42.08398291,-3.289996624,-1.740227699,-0.8708062172,2024-06-05 17:20:05.083983
42.12445161,-1.950718403,-1.748373985,-2.13431716,2024-06-05 17:20:05.124452
42.16494531,-0.6782450676,-1.3255229,-1.142487049,2024-06-05 17:20:05.164945
42.20546348,-0.9754424095,-0.3217377663,-2.136241674,2024-06-05 17:20:05.205463
42.24595208,-0.2704963684,-1.815208912,-2.490036488,2024-06-05 17:20:05.245952
42.2864164,-0.9692530632,-0.7713899612,-1.857549191,2024-06-05 17:20:05.286416
42.32692911,0.2637219429,-0.9158415794,-1.918136001,2024-06-05 17:20:05.326929
42.36742025,1.274490833,-0.6074800491,-1.422384739,2024-06-05 17:20:05.367420
42.40790067,0.4133915901,-0.7840833664,-1.607825041,2024-06-05 17:20:05.407901
42.4483814,-1.306774616,-2.692405701,-2.648131847,2024-06-05 17:20:05.448381
42.48885567,0.5599179268,-1.439118385,-1.043534517,2024-06-05 17:20:05.488856
42.52934171,1.359880924,0.05483174324,-1.021862268,2024-06-05 17:20:05.529342
42.56984031,1.310853481,-0.640155077,-0.6074879169,2024-06-05 17:20:05.569840
42.61034838,1.977993965,0.2967224121,-0.8719611168,2024-06-05 17:20:05.610348
42.65087234,2.116698265,0.1423070431,-0.4185156822,2024-06-05 17:20:05.650872
42.69136114,1.490274906,0.1893780231,-0.8198342323,2024-06-05 17:20:05.691361
42.7317613,2.131026268,1.211080551,-0.8092081547,2024-06-05 17:20:05.731761
42.77227343,0.7112731934,1.440577507,-0.332908392,2024-06-05 17:20:05.772273
42.81276218,-0.9490122795,0.4898934364,0.3650383949,2024-06-05 17:20:05.812762
42.85325098,-0.5099010468,-0.203417778,0.8327672482,2024-06-05 17:20:05.853251
42.89372994,0.3965668678,-0.7487955093,0.5965678692,2024-06-05 17:20:05.893730
42.93426541,1.439581871,-0.1989293098,0.102615118,2024-06-05 17:20:05.934265
42.97471656,1.29484272,0.8958611488,-0.1491384506,2024-06-05 17:20:05.974717
43.01523781,0.1688938141,0.510307312,0.6268365383,2024-06-05 17:20:06.015238
43.05572473,-1.904726982,-0.8978919983,0.8600344658,2024-06-05 17:20:06.055725
43.09619124,-1.329668045,-0.7084088326,0.7571747303,2024-06-05 17:20:06.096191
43.13673739,-0.03866815567,0.3267531395,0.6555159092,2024-06-05 17:20:06.136737
43.17719578,0.770152092,0.8067245483,0.3557100296,2024-06-05 17:20:06.177196
43.21765395,-0.2307753563,0.0520529747,0.5015027523,2024-06-05 17:20:06.217654
43.25811864,-0.4543042183,1.229444027,0.5355966091,2024-06-05 17:20:06.258119
43.29865135,-2.53473568,-0.5444030762,0.4491238594,2024-06-05 17:20:06.298651
43.33915156,-3.532223225,-2.74353981,1.023711324,2024-06-05 17:20:06.339152
43.37960999,-0.1479926109,-1.784698963,0.03398191929,2024-06-05 17:20:06.379610
43.42010687,0.9778637886,-1.728622913,0.3740739822,2024-06-05 17:20:06.420107
43.46063343,-0.283703804,-0.3643350601,1.268734336,2024-06-05 17:20:06.460633
43.50106557,0.1629891396,1.145414352,0.5782696009,2024-06-05 17:20:06.501066
43.54162921,0.3959841728,0.4896249771,1.017024875,2024-06-05 17:20:06.541629
43.5820752,0.3081092834,0.7451696396,0.4184547663,2024-06-05 17:20:06.582075
43.62266635,1.38335228,1.034972191,-0.7722551823,2024-06-05 17:20:06.622666
43.66315604,-0.1120343208,-1.581783295,0.4421205521,2024-06-05 17:20:06.663156
43.70364578,0.281876564,-2.335078716,-0.01050806046,2024-06-05 17:20:06.703646
43.7440052,-1.046241283,-2.295820236,1.837155104,2024-06-05 17:20:06.744005
43.78452031,-0.09502649307,-2.512144089,0.154194355,2024-06-05 17:20:06.784520
43.82498926,0.5740084648,-0.8971481323,0.3804967403,2024-06-05 17:20:06.824989
43.86549796,0.009292602539,0.3615822792,0.4797042608,2024-06-05 17:20:06.865498
43.90599333,2.253042698,1.186521053,0.02415156364,2024-06-05 17:20:06.905993
43.94645973,1.828271389,0.9215831757,-0.4628118277,2024-06-05 17:20:06.946460
43.98696749,-0.5990896225,-0.1601610184,-0.01737952232,2024-06-05 17:20:06.986967
44.02745406,-1.541334152,0.2259688377,-0.552999258,2024-06-05 17:20:07.027454
44.06793187,-1.071584702,0.4621481895,0.100158453,2024-06-05 17:20:07.067932
44.10841984,-0.2202692032,0.1910505295,-0.1077036858,2024-06-05 17:20:07.108420
44.14893702,-1.139436722,-2.007602215,-0.1682829857,2024-06-05 17:20:07.148937
44.18942057,-1.345719337,-0.5143604279,-0.3472135067,2024-06-05 17:20:07.189421
44.22989484,-0.407087326,-1.008233547,-1.227848768,2024-06-05 17:20:07.229895
44.27040583,2.782368183,-0.2742400169,-1.287607431,2024-06-05 17:20:07.270406
44.31087848,2.589921474,-0.1640012264,-0.8121681213,2024-06-05 17:20:07.310878
44.35139452,4.073122978,-0.006930112839,-1.312922001,2024-06-05 17:20:07.351395
44.3919115,3.790380955,0.7531876564,-0.2693312168,2024-06-05 17:20:07.391911
44.43234791,3.989192486,1.892686129,-0.8303570747,2024-06-05 17:20:07.432348
44.47280921,0.653834343,1.610866547,-0.530402422,2024-06-05 17:20:07.472809
44.51329801,-1.828438759,1.278330803,-0.4515268803,2024-06-05 17:20:07.513298
44.55380551,-2.37615633,0.7257902622,0.09948825836,2024-06-05 17:20:07.553806
44.59429161,-1.950960159,-0.4163885117,0.1716108322,2024-06-05 17:20:07.594292
44.63477453,-0.5649499893,-0.4677782059,-0.5578384399,2024-06-05 17:20:07.634775
44.67526416,-0.4134426117,0.01491212845,-0.1640958786,2024-06-05 17:20:07.675264
44.71571161,0.8661580086,1.712511063,0.06946516037,2024-06-05 17:20:07.715712
44.75622921,1.90177536,2.668540001,-0.6288706064,2024-06-05 17:20:07.756229
44.79672213,0.3797860146,0.666434288,-0.1113667488,2024-06-05 17:20:07.796722
44.83720843,-1.89140749,-0.9889922142,0.06448364258,2024-06-05 17:20:07.837208
44.87770098,-1.674700737,-1.200228214,-0.1629440784,2024-06-05 17:20:07.877701
44.91822041,0.07299947739,0.2253313065,0.1096732616,2024-06-05 17:20:07.918220
44.95869447,-2.476153374,-3.320316315,-0.8583167195,2024-06-05 17:20:07.958694
44.99918984,-2.519648552,-2.310911655,0.5936489105,2024-06-05 17:20:07.999190
45.03967676,-0.5791893005,-1.443468094,-0.1046991348,2024-06-05 17:20:08.039677
45.08017067,0.5911355019,0.6686863899,-0.2742188573,2024-06-05 17:20:08.080171
45.12066536,1.35377121,0.7927589417,0.05978512764,2024-06-05 17:20:08.120665
45.16113994,1.076923847,0.0308380127,-0.003123521805,2024-06-05 17:20:08.161140
45.20162176,0.2849087715,-0.8315935135,0.04418754578,2024-06-05 17:20:08.201622
45.24211088,-0.6571550369,-0.6779737473,0.6339809895,2024-06-05 17:20:08.242111
45.28259713,-0.739552021,-1.340135574,0.2371088266,2024-06-05 17:20:08.282597
45.32308473,1.152204037,-0.3525738716,0.4080356359,2024-06-05 17:20:08.323085
45.363569,2.146161556,-1.907258987,0.3920356035,2024-06-05 17:20:08.363569
45.40405614,-0.2246818542,-0.821999073,0.5944854021,2024-06-05 17:20:08.404056
45.44454994,-1.156934738,0.7511296272,0.3382214308,2024-06-05 17:20:08.444550
45.48503906,0.03019189835,0.2840781212,0.6460077763,2024-06-05 17:20:08.485039
45.52553197,-0.217997551,-0.08569335938,0.6198009253,2024-06-05 17:20:08.525532
45.56603833,0.4546542168,-0.9828705788,0.4071834087,2024-06-05 17:20:08.566038
45.60653624,-1.813983917,-2.738816261,0.6997828484,2024-06-05 17:20:08.606536
45.6470139,-1.956233025,-2.69914341,1.190669656,2024-06-05 17:20:08.647014
45.68748895,0.4282989502,-1.043203354,0.4963505268,2024-06-05 17:20:08.687489
45.7279576,2.21104002,-0.8501224518,0.3927185535,2024-06-05 17:20:08.727958
45.76848463,3.230882645,-0.9302470684,-2.198675871,2024-06-05 17:20:08.768485
45.80897098,2.887191296,0.2914710045,0.9014115334,2024-06-05 17:20:08.808971
45.84944619,2.807411194,0.03474593163,0.499778986,2024-06-05 17:20:08.849446
45.88995749,-0.5585632324,-0.7443606853,1.043330669,2024-06-05 17:20:08.889957
45.93041015,0.271361351,-1.142184973,1.258637428,2024-06-05 17:20:08.930410
45.97087234,2.75418663,-0.711427927,1.260715246,2024-06-05 17:20:08.970872
46.01142104,3.312967777,0.7159955502,0.1575462818,2024-06-05 17:20:09.011421
46.0519101,3.080184937,0.7914044857,0.0627720356,2024-06-05 17:20:09.051910
46.09235145,1.046499252,1.533557892,0.3990094662,2024-06-05 17:20:09.092351
46.13283963,0.5917434692,1.410980463,-0.2006618977,2024-06-05 17:20:09.132840
46.17333692,0.155711174,1.378629684,0.5379385948,2024-06-05 17:20:09.173337
46.21382223,-2.183410645,1.23115921,2.004636288,2024-06-05 17:20:09.213822
46.25431041,-2.060316086,0.521985054,1.029184222,2024-06-05 17:20:09.254310
46.29481739,-0.5618200302,-0.1454772949,1.307569623,2024-06-05 17:20:09.294817
46.33532817,-1.461137295,-1.732265472,0.2442229986,2024-06-05 17:20:09.335328
46.3758015,-0.1786336899,0.505625248,0.5938040018,2024-06-05 17:20:09.375802
46.41631703,0.3593921661,0.8690848351,0.01194775105,2024-06-05 17:20:09.416317
46.45682265,-1.650762081,-0.3536748886,0.3425836563,2024-06-05 17:20:09.456823
46.49731083,-2.050201416,-0.663936615,0.3192459941,2024-06-05 17:20:09.497311
46.53776244,-1.196421146,-0.4493322372,0.08402037621,2024-06-05 17:20:09.537762
46.57826874,-1.28292799,-0.005120277405,0.787080586,2024-06-05 17:20:09.578269
46.61873958,-0.4284548759,-1.038601875,-0.3211246729,2024-06-05 17:20:09.618740
46.65922755,0.8666620255,-1.327310085,-0.2789168358,2024-06-05 17:20:09.659228
46.69973864,0.3561124802,-0.4066720009,-0.02514350414,2024-06-05 17:20:09.699739
46.74022749,-0.2832126617,-0.4522080421,0.6013189554,2024-06-05 17:20:09.740227
46.78071926,-0.01289463043,-1.105619907,0.4370799065,2024-06-05 17:20:09.780719
46.82120484,0.1459889412,-1.920917988,0.432328701,2024-06-05 17:20:09.821205
46.86166697,0.3305654526,-0.708003521,0.03152406216,2024-06-05 17:20:09.861667
46.90213713,1.302045822,-0.7567334175,-0.2935756445,2024-06-05 17:20:09.902137
46.94262593,-0.4428091049,-0.7952370644,-0.104876399,2024-06-05 17:20:09.942626
46.98310421,-1.689209938,-1.132734299,-0.4130079746,2024-06-05 17:20:09.983104
47.02361104,0.9946374893,-0.150988102,-0.3017331362,2024-06-05 17:20:10.023611
47.06410244,0.6434602737,-0.6616029739,-0.3818628788,2024-06-05 17:20:10.064102
47.10460161,-1.533761978,-1.551897049,0.8520934582,2024-06-05 17:20:10.104602
47.14511057,2.000279427,-0.04423141479,-1.129802704,2024-06-05 17:20:10.145111
47.18559463,1.355680943,-1.114868164,0.03872823715,2024-06-05 17:20:10.185595
47.2260614,0.9617757797,-1.770410299,-1.276275277,2024-06-05 17:20:10.226061
47.26655234,0.9569692612,-1.654469967,0.007978200912,2024-06-05 17:20:10.266552
47.30704135,1.53387785,-0.6606755257,-0.2835161686,2024-06-05 17:20:10.307041
47.34754286,2.46516037,0.5501873493,0.1202521324,2024-06-05 17:20:10.347543
47.38805812,2.84679842,0.07164621353,-0.008814334869,2024-06-05 17:20:10.388058
47.42851734,7.613978386,2.075475931,-0.4918456078,2024-06-05 17:20:10.428517
47.46900301,2.754105568,1.831668139,0.1960594654,2024-06-05 17:20:10.469003
47.50949208,-1.175132751,-0.08677721024,1.051027775,2024-06-05 17:20:10.509492
47.54997869,-1.641611099,0.888484478,1.546704173,2024-06-05 17:20:10.549979
47.59046354,-2.878604412,-1.294370651,1.443847895,2024-06-05 17:20:10.590464
47.63095421,-1.676290035,-3.578428268,0.7785099745,2024-06-05 17:20:10.630954
47.6714402,0.7211470604,1.362267971,0.4075502157,2024-06-05 17:20:10.671440
47.71192343,1.765822411,1.948272705,0.1185039282,2024-06-05 17:20:10.711923
47.7524113,1.351214886,2.844502926,1.313123941,2024-06-05 17:20:10.752411
47.7928915,-2.348816395,0.6565761566,-0.1484857202,2024-06-05 17:20:10.792892
47.83336676,1.145586967,0.5136799812,-0.07034635544,2024-06-05 17:20:10.833367
47.8738701,-0.9395108223,0.3905949593,0.8267985582,2024-06-05 17:20:10.873870
47.91437952,-4.591410637,-5.944858551,1.434445024,2024-06-05 17:20:10.914380
47.95487697,-1.188436985,-6.057168961,1.543623447,2024-06-05 17:20:10.954877
47.99537775,-3.205469608,-1.643200874,0.4752917886,2024-06-05 17:20:10.995378
48.03587202,2.219842196,2.163906097,0.7207395434,2024-06-05 17:20:11.035872
48.07633666,2.745676517,3.196831703,0.6826025248,2024-06-05 17:20:11.076337
48.11683744,1.409145355,2.482810974,-0.3659753799,2024-06-05 17:20:11.116837
48.15731322,1.936882019,1.778978348,-0.5030434728,2024-06-05 17:20:11.157313
48.19781614,0.5173778534,-0.376534462,0.0560656786,2024-06-05 17:20:11.197816
48.23831859,-7.721162796,-6.022358894,2.588970661,2024-06-05 17:20:11.238319
48.27879468,-0.3189120293,-3.642597675,0.6456313133,2024-06-05 17:20:11.278795
48.31928661,0.5416493416,-2.917376995,0.2610330582,2024-06-05 17:20:11.319287
48.35977994,0.7883892059,-0.07376384735,-0.6529468298,2024-06-05 17:20:11.359780
48.40027161,1.781926632,1.368383408,0.1145362854,2024-06-05 17:20:11.400272
48.44076739,0.9643826485,1.460780621,-0.7563881874,2024-06-05 17:20:11.440767
48.48125921,-0.5309638977,-0.1033797264,0.01889169216,2024-06-05 17:20:11.481259
48.52176989,0.02795124054,-1.008711338,-0.2970604897,2024-06-05 17:20:11.521770
48.56226989,-0.8923215866,-1.436897755,-0.04856824875,2024-06-05 17:20:11.562270
48.60269322,-1.149617195,-2.026855469,-1.032971144,2024-06-05 17:20:11.602693
48.64314874,1.563503742,-2.356062889,-1.263567924,2024-06-05 17:20:11.643149
48.68366864,2.559177876,-1.169362307,-1.138361931,2024-06-05 17:20:11.683669
48.72413515,2.940242767,0.2878558636,-1.162383914,2024-06-05 17:20:11.724135
48.76465187,3.677698135,0.3701665401,-0.6509239674,2024-06-05 17:20:11.764652
48.80515624,2.372786522,0.6199657917,-0.3745191097,2024-06-05 17:20:11.805156
48.8456339,2.076879025,1.532874823,0.4570703506,2024-06-05 17:20:11.845634
48.88613781,1.105255127,0.9820115566,0.02877402306,2024-06-05 17:20:11.886138
48.9266113,1.652273178,0.597053051,0.6701126099,2024-06-05 17:20:11.926611
48.96708036,-0.06160354614,0.8287849426,0.194881916,2024-06-05 17:20:11.967080
49.0075763,-1.526677132,-0.3182845116,0.8030760288,2024-06-05 17:20:12.007576
49.04809536,0.2376675606,0.1224279404,0.07612454891,2024-06-05 17:20:12.048095
49.08857468,0.7674536705,1.708397865,0.286888957,2024-06-05 17:20:12.088575
49.12907395,0.05153417587,1.56185627,0.4784560204,2024-06-05 17:20:12.129074
49.16953223,-1.521100044,0.3300967216,1.277021646,2024-06-05 17:20:12.169532
49.21006937,-1.478864193,-0.9439239502,0.6795773506,2024-06-05 17:20:12.210069
49.25056317,-1.502433777,0.8106269836,1.070871472,2024-06-05 17:20:12.250563
49.2910115,-1.649478436,-0.9191441536,0.03035318851,2024-06-05 17:20:12.291012
49.33148921,-3.028653622,-1.84525013,-0.1030963659,2024-06-05 17:20:12.331489
49.3719965,-1.032267094,-0.8731708527,0.07865321636,2024-06-05 17:20:12.371997
49.41245978,0.6306304932,0.145160675,-0.1078110933,2024-06-05 17:20:12.412460
49.45294255,-0.1617088318,-0.1008234024,-0.4123817682,2024-06-05 17:20:12.452943
49.49343176,-0.6062278748,0.05209779739,0.2248066664,2024-06-05 17:20:12.493432
49.5339264,0.1801729202,0.5910878181,0.07196485996,2024-06-05 17:20:12.533926
49.57442442,-0.8279490471,-0.8376054764,0.226175189,2024-06-05 17:20:12.574424
49.61493557,-0.9473085403,-1.574247837,0.2543896437,2024-06-05 17:20:12.614936
49.65542692,0.5622110367,-0.8636059761,-0.7075486183,2024-06-05 17:20:12.655427
49.69592354,0.8813467026,-0.5587873459,0.08965611458,2024-06-05 17:20:12.695924
49.73635984,0.7079615593,-1.053203583,-0.4432141781,2024-06-05 17:20:12.736360
49.77689255,-1.291096687,-0.2545108795,-0.5890654325,2024-06-05 17:20:12.776893
49.81739104,-2.620736599,-1.184208393,-0.6269247532,2024-06-05 17:20:12.817391
49.85785093,-0.6284785271,-0.9912891388,-1.042681217,2024-06-05 17:20:12.857851
49.89836645,-0.4880957603,-0.2228360176,-0.5344500542,2024-06-05 17:20:12.898366
49.9388463,-0.9226059914,-1.254172325,-0.7969241142,2024-06-05 17:20:12.938846
49.97930057,0.5935754776,-1.374760151,-0.7952914238,2024-06-05 17:20:12.979301
50.01982801,1.059854031,-0.8584299088,-1.250198841,2024-06-05 17:20:13.019828
50.06030525,1.380175591,-1.055119514,-0.8412377834,2024-06-05 17:20:13.060305
50.10080833,1.499310493,-0.8762550354,-1.310259104,2024-06-05 17:20:13.100808
50.14130234,2.431197166,-1.180580854,-0.8607580662,2024-06-05 17:20:13.141302
50.18179374,3.499144554,0.1519908905,-1.046574593,2024-06-05 17:20:13.181794
50.22222161,4.219967365,1.302871227,-0.3506014347,2024-06-05 17:20:13.222222
50.26271083,1.941393852,1.164365292,0.1109573841,2024-06-05 17:20:13.262711
50.30320005,2.003834248,0.905295372,-0.2072713375,2024-06-05 17:20:13.303200
50.34371364,0.2339363098,-0.01671743393,0.3795375824,2024-06-05 17:20:13.343714
50.38422369,-0.1186857224,-0.5441875458,0.739287138,2024-06-05 17:20:13.384224
50.42469203,0.07929563522,-0.03046894073,0.6495008469,2024-06-05 17:20:13.424692
50.46517702,-0.7654933929,-0.2035908699,1.527031422,2024-06-05 17:20:13.465177
50.50566567,-0.4172511101,-0.7270541191,0.1221339703,2024-06-05 17:20:13.505666
50.54615713,0.6115131378,2.321524143,0.5661969185,2024-06-05 17:20:13.546157
50.58667906,-0.03470563889,2.467257977,0.6701251268,2024-06-05 17:20:13.586679
50.62720385,-1.817811489,-1.334982872,0.8996579647,2024-06-05 17:20:13.627204
50.66764921,-2.886894703,-1.677566051,0.7724964023,2024-06-05 17:20:13.667649
50.70809791,-1.052436829,-0.125231266,0.3621236682,2024-06-05 17:20:13.708098
50.74858614,-2.031805515,-1.936161041,0.7020632625,2024-06-05 17:20:13.748586
50.78911036,-2.177844524,-1.443588257,0.4146027565,2024-06-05 17:20:13.789110
50.82960411,0.9856543541,0.7174139023,0.1919674277,2024-06-05 17:20:13.829604
50.87010531,1.046489239,1.199969769,0.1118358374,2024-06-05 17:20:13.870105
50.91059187,-0.5343351364,-0.4027428627,0.2358709574,2024-06-05 17:20:13.910592
50.95105926,-0.841905117,-1.593387604,0.6833384037,2024-06-05 17:20:13.951059
50.9915438,0.329706192,-0.399017334,0.2806041241,2024-06-05 17:20:13.991544
51.03204906,0.01032447815,-0.418823719,0.2701624632,2024-06-05 17:20:14.032049
51.07250197,1.815550804,-0.6919021606,-0.3036768436,2024-06-05 17:20:14.072502
51.11299005,-0.6800117493,-0.8946228027,-0.1426593065,2024-06-05 17:20:14.112990
51.15347765,-1.223834991,-0.8368053436,-0.4326252937,2024-06-05 17:20:14.153478
51.19400817,-1.553495407,-1.271981716,-0.6895509362,2024-06-05 17:20:14.194008
51.23451833,-0.804479599,-0.8240852356,-0.818153441,2024-06-05 17:20:14.234518
51.27499338,-1.002094746,-0.9195766449,-0.6614239216,2024-06-05 17:20:14.274993
51.31549604,0.06763887405,-1.578548908,-0.843225956,2024-06-05 17:20:14.315496
51.35597932,-0.1388835907,-0.2575554848,-0.1396799088,2024-06-05 17:20:14.355979
51.3964489,1.172552109,-0.2806529999,-0.9192874432,2024-06-05 17:20:14.396449
51.43693447,1.187222481,-0.970518589,-1.493788958,2024-06-05 17:20:14.436934
51.47742484,2.944998264,-0.2312266827,-1.361508846,2024-06-05 17:20:14.477425
51.51789098,4.069030762,-0.1338152885,-0.9070634842,2024-06-05 17:20:14.517891
51.55838916,1.20061779,-0.1077098846,-0.2332594395,2024-06-05 17:20:14.558389
51.59888702,2.653374672,0.6480438709,0.3663606644,2024-06-05 17:20:14.598887
51.63937275,2.458202839,0.7226247787,-0.05152583122,2024-06-05 17:20:14.639373
51.67988916,0.9820389748,0.1870722771,0.8721590042,2024-06-05 17:20:14.679889
51.72039275,2.781558514,1.043828964,0.2229220867,2024-06-05 17:20:14.720393
51.76086348,1.298937321,0.6896252632,0.8457223177,2024-06-05 17:20:14.760863
51.80134942,-1.670404434,-0.1702475548,1.64081943,2024-06-05 17:20:14.801349
51.84182083,-2.394070625,-0.8161554337,1.166156888,2024-06-05 17:20:14.841821
51.88229984,-0.004477977753,1.187786579,0.653903842,2024-06-05 17:20:14.882300
51.92278926,-0.8733510971,2.043290138,0.7710062265,2024-06-05 17:20:14.922789
51.96327234,-2.492603779,-1.587834358,1.068418264,2024-06-05 17:20:14.963272
52.00377275,-1.074447632,-0.8837652206,0.1995820403,2024-06-05 17:20:15.003773
52.04426385,-1.110066414,-0.6660757065,0.08970034122,2024-06-05 17:20:15.044264
52.08475578,-1.156703949,-0.08302974701,1.138951063,2024-06-05 17:20:15.084756
52.12523031,-1.353712082,-1.245491982,1.08002317,2024-06-05 17:20:15.125230
52.16572666,-1.305717945,0.626294136,0.4013121724,2024-06-05 17:20:15.165727
52.20623265,-0.1604299545,0.9479598999,0.6657961011,2024-06-05 17:20:15.206233
52.24672161,-0.7484703064,-1.114896774,-0.006579637527,2024-06-05 17:20:15.246722
52.28718192,-0.4054017067,-3.08096981,0.1084822416,2024-06-05 17:20:15.287182
52.32769124,1.807918072,-1.182083607,-0.1804465055,2024-06-05 17:20:15.327691
52.36816666,0.5969557762,0.3082208633,0.004489183426,2024-06-05 17:20:15.368167
52.40865744,0.2497010231,0.5190067291,0.384304285,2024-06-05 17:20:15.408657
52.44914301,-0.9328551292,-0.5417094231,-0.659290731,2024-06-05 17:20:15.449143
52.48965604,-0.9829268456,-0.6274104118,-0.5561007261,2024-06-05 17:20:15.489656
52.53012416,-2.165192127,-3.099693298,-0.3740893006,2024-06-05 17:20:15.530124
52.57063515,-3.153177261,-3.080163002,-1.299497366,2024-06-05 17:20:15.570635
52.61113255,1.344437599,0.5894255638,-0.3545114994,2024-06-05 17:20:15.611133
52.65158765,3.687385559,1.963424683,1.284476161,2024-06-05 17:20:15.651588
52.6921126,0.468515873,-1.294406414,-2.281139374,2024-06-05 17:20:15.692113
52.73257442,1.965382576,-1.81629324,-1.263690948,2024-06-05 17:20:15.732574
52.77303354,-1.49080658,-1.585003376,1.340260506,2024-06-05 17:20:15.773034
52.81356624,0.1836137772,-3.364552975,-1.676516056,2024-06-05 17:20:15.813566
52.85402666,3.414017677,-0.5137028694,-0.2402684689,2024-06-05 17:20:15.854027
52.8945288,7.14133215,2.528073311,-0.9440900087,2024-06-05 17:20:15.894529
52.93502796,5.366017818,3.573943138,-0.2194335461,2024-06-05 17:20:15.935028
52.97552609,3.1821208,2.578646183,-0.4690998793,2024-06-05 17:20:15.975526
53.01601343,2.427278519,0.8928630352,-0.7838799357,2024-06-05 17:20:16.016013
53.0564838,-0.7750997543,0.05804300308,0.5693483353,2024-06-05 17:20:16.056484
53.09697583,-3.350921631,-1.823791504,1.831564426,2024-06-05 17:20:16.096976
53.13745515,-2.696106911,-2.315958023,2.203652143,2024-06-05 17:20:16.137455
53.17795989,-1.947944164,-1.725448608,1.650638819,2024-06-05 17:20:16.177960
53.21843791,-0.3432216644,0.5830945969,0.6253862977,2024-06-05 17:20:16.218438
53.25892661,0.6899051666,1.924578667,0.1242160201,2024-06-05 17:20:16.258927
53.2994201,-0.4328432083,2.09414196,-0.00304043293,2024-06-05 17:20:16.299420
53.33991078,-1.808451176,-0.3316335678,0.5535575151,2024-06-05 17:20:16.339911
53.38039452,-2.972832203,-1.239359856,0.4347927272,2024-06-05 17:20:16.380395
53.42088317,-1.770265579,-2.268345833,1.958584189,2024-06-05 17:20:16.420883
53.46139286,-1.353950977,-2.837629318,0.905041337,2024-06-05 17:20:16.461393
53.50188499,0.4828934669,-0.4202337265,0.3841049671,2024-06-05 17:20:16.501885
53.54237364,1.995840788,0.1673679352,-0.03516563773,2024-06-05 17:20:16.542374
53.58280781,0.5633625984,0.4314899445,0.7790226936,2024-06-05 17:20:16.582808
53.62331473,-0.4396233559,0.9894013405,0.9792360663,2024-06-05 17:20:16.623315
53.66382546,-1.381707191,0.3344898224,1.064025402,2024-06-05 17:20:16.663825
53.70428984,0.258849144,-1.975370884,0.0791426897,2024-06-05 17:20:16.704290
53.74477187,1.382423878,-1.664173126,0.5871975422,2024-06-05 17:20:16.744772
53.78527447,-0.6825489998,-1.69658947,-0.2490791678,2024-06-05 17:20:16.785274
53.82577046,-2.446928978,-1.133706093,0.7955341339,2024-06-05 17:20:16.825770
53.8662614,-0.3004932404,-0.17598629,-0.06649327278,2024-06-05 17:20:16.866261
53.90677078,1.243051529,-0.4947052002,-0.5417276621,2024-06-05 17:20:16.906771
53.94726598,-0.1129179001,-1.562168598,0.318397522,2024-06-05 17:20:16.947266
53.98772489,-1.688923836,-1.564327717,0.0323164463,2024-06-05 17:20:16.987725
54.02821723,0.252614975,-0.4646844864,-1.803742886,2024-06-05 17:20:17.028217
54.06874171,1.719661713,-0.8416600227,-1.90096283,2024-06-05 17:20:17.068742
54.10927005,5.618470192,1.171537638,-1.27583909,2024-06-05 17:20:17.109270
54.1496876,3.701937675,0.9120006561,-0.4070167542,2024-06-05 17:20:17.149688
54.19018135,-0.03727531433,-0.4346103668,0.5831449032,2024-06-05 17:20:17.190181
54.23067057,1.81156826,0.2343378067,0.3080716133,2024-06-05 17:20:17.230671
54.27116114,2.840400219,0.9502077103,0.1425173283,2024-06-05 17:20:17.271161
54.31164583,2.501583576,1.452396631,0.1540915966,2024-06-05 17:20:17.311646
54.35213473,2.121783257,1.601141453,0.460300684,2024-06-05 17:20:17.352135
54.39261583,0.4635014534,0.8312392235,0.6605695486,2024-06-05 17:20:17.392616
54.43309499,-2.125869274,-0.4028425217,0.9276868105,2024-06-05 17:20:17.433095
54.47357973,-1.392642975,0.02027797699,0.8692927361,2024-06-05 17:20:17.473580
54.51408833,-0.7806787491,0.1100311279,-0.1878421307,2024-06-05 17:20:17.514088
54.55458635,-1.589134693,-1.575210571,-0.01401793957,2024-06-05 17:20:17.554586
54.59507354,-0.7669796944,0.1429200172,0.1119498014,2024-06-05 17:20:17.595074
54.63556859,-1.096008778,0.9541144371,0.03199321032,2024-06-05 17:20:17.635569
54.67607234,-2.441923141,0.1377382278,-0.5226866007,2024-06-05 17:20:17.676072
54.71649322,-1.234055996,-0.5514469147,0.327691853,2024-06-05 17:20:17.716493
54.75701645,-1.736453056,-0.02747631073,0.5190836191,2024-06-05 17:20:17.757016
54.79754557,-1.954300404,-1.346737862,-0.1192886233,2024-06-05 17:20:17.797546
54.83802104,-0.06431770325,-1.071817398,-0.1898485422,2024-06-05 17:20:17.838021
54.8784926,0.3379421234,-1.68721199,0.3955432177,2024-06-05 17:20:17.878493
54.91898119,0.6911797523,-0.3887310028,0.2799043655,2024-06-05 17:20:17.918981
54.95943025,-0.3805232048,-0.017619133,-0.2000361681,2024-06-05 17:20:17.959430
54.999949,-0.4270915985,0.2964830399,-0.06004810333,2024-06-05 17:20:17.999949
55.04046942,0.104467392,-0.2325620651,-0.5762535334,2024-06-05 17:20:18.040469
55.08096374,-0.3741002083,-0.7501926422,-1.191074133,2024-06-05 17:20:18.080964
55.121454,-1.674438477,-1.352046967,-0.9923529625,2024-06-05 17:20:18.121454
55.16196088,-2.935980797,-3.281400204,-0.7795143723,2024-06-05 17:20:18.161961
55.20245817,-0.02452945709,-1.404379368,-0.8580771685,2024-06-05 17:20:18.202458
55.24290426,1.056274891,-1.262277603,-0.5345914364,2024-06-05 17:20:18.242904
55.2833663,1.332355022,-0.9628076553,-0.3899245262,2024-06-05 17:20:18.283366
55.32386921,2.031013966,-1.591323853,-0.838465929,2024-06-05 17:20:18.323869
55.36435109,1.938295841,-0.2350211143,-1.499503493,2024-06-05 17:20:18.364351
55.40483916,1.880559444,0.02064585686,-1.824026942,2024-06-05 17:20:18.404839
55.44532817,3.964121819,0.7947599888,-1.22464323,2024-06-05 17:20:18.445328
55.48581687,3.032419205,1.52856493,0.08264780045,2024-06-05 17:20:18.485817
55.52632926,0.9498624802,-0.1190481186,0.06977939606,2024-06-05 17:20:18.526329
55.56681765,1.199673176,0.08245563507,0.3514990807,2024-06-05 17:20:18.566818
55.60729874,1.02788353,1.04952693,0.5118980408,2024-06-05 17:20:18.607299
55.64778572,2.145310402,0.7556943893,0.07898890972,2024-06-05 17:20:18.647786
55.68828291,1.138650417,0.7851057053,0.8845114708,2024-06-05 17:20:18.688283
55.72874671,0.6070485115,0.685295105,0.3962054253,2024-06-05 17:20:18.728747
55.76924801,-1.334538937,0.2320346832,1.021523356,2024-06-05 17:20:18.769248
55.80975369,-2.375996113,-0.2519321442,0.8541015387,2024-06-05 17:20:18.809754
55.85021432,-0.8989157677,-1.204318523,-0.07959640026,2024-06-05 17:20:18.850214
55.89073041,-0.7133183479,-0.9556856155,-0.267976284,2024-06-05 17:20:18.890730
55.93121385,-1.782109737,-1.326406479,-0.376488328,2024-06-05 17:20:18.931214
55.97166697,-2.444828987,0.161231041,-0.04067653418,2024-06-05 17:20:18.971667
56.01215624,-1.829166412,0.7997989655,0.362220645,2024-06-05 17:20:19.012156
56.05263406,-1.217712879,-0.3737077713,0.592173636,2024-06-05 17:20:19.052634
56.09317671,-1.796527386,-0.1495227814,0.08730351925,2024-06-05 17:20:19.093177
56.1336152,-0.5824432373,-0.4756422043,-0.02780616283,2024-06-05 17:20:19.133615
56.17414775,-1.072014332,-2.820475578,0.5500713587,2024-06-05 17:20:19.174148
56.21462786,-0.5128068924,-0.03307914734,-0.4722149372,2024-06-05 17:20:19.214628
56.25511708,1.859188557,0.7979640961,-0.3135427237,2024-06-05 17:20:19.255117
56.29561364,0.7346839905,-0.2062792778,-0.9326064587,2024-06-05 17:20:19.295614
56.3360888,-2.327150822,-0.8630857468,-1.115732551,2024-06-05 17:20:19.336089
56.37660307,-2.685212612,-0.5107860565,-1.769258976,2024-06-05 17:20:19.376603
56.41708906,-1.734944344,-2.307843208,-1.205579042,2024-06-05 17:20:19.417089
56.45757525,-0.1880588531,-1.88360548,-1.295134783,2024-06-05 17:20:19.457575
56.49803078,-0.1390314102,-1.686018467,-0.811851263,2024-06-05 17:20:19.498031
56.53852578,0.9910702705,-1.489260674,-0.8494141102,2024-06-05 17:20:19.538526
56.57905979,0.6168441772,-2.102347851,-1.747056007,2024-06-05 17:20:19.579060
56.61953687,2.742151737,-0.6175732613,-1.805028915,2024-06-05 17:20:19.619537
56.66001041,5.012652397,1.178070068,-1.445191741,2024-06-05 17:20:19.660010
56.70052364,3.373412132,0.5656266212,-1.235236883,2024-06-05 17:20:19.700524
56.74098275,0.2891769409,-1.342427254,0.05905103683,2024-06-05 17:20:19.740983
56.78147156,3.17856884,1.920836687,-0.2732901573,2024-06-05 17:20:19.781472
56.82197374,3.359512329,1.694777012,-0.1844439507,2024-06-05 17:20:19.821974
56.86246291,1.255142212,-0.02653217316,0.2658622265,2024-06-05 17:20:19.862463
56.90295203,1.696109772,0.6375470161,0.4798569679,2024-06-05 17:20:19.902952
56.94344119,-0.5197353363,0.1784529686,0.7228556871,2024-06-05 17:20:19.943441
56.98391124,-1.602888107,-0.5429668427,1.592075825,2024-06-05 17:20:19.983911
57.02440536,-1.693174839,-0.1294922829,0.6839042306,2024-06-05 17:20:20.024405
57.06488838,1.024209976,-0.1408939362,0.3978043199,2024-06-05 17:20:20.064888
57.10538775,-0.3321638107,3.037077427,1.391919613,2024-06-05 17:20:20.105388
57.14590473,-2.996841431,-1.112798214,1.164674163,2024-06-05 17:20:20.145905
57.1863788,-2.605547428,-3.876502991,-0.6141889095,2024-06-05 17:20:20.186379
57.22685755,-2.180069923,-1.872170448,0.4769330621,2024-06-05 17:20:20.226858
57.26733619,-1.167387009,0.5522942543,1.689650297,2024-06-05 17:20:20.267336
57.30783661,0.2472496033,-0.3108100891,1.025487065,2024-06-05 17:20:20.307837
57.34831426,0.245223999,0.5683894157,1.29039228,2024-06-05 17:20:20.348314
57.38880187,-0.6019005775,1.31668663,0.5915740132,2024-06-05 17:20:20.388802
57.42930426,-3.584300518,-2.532451153,1.003775716,2024-06-05 17:20:20.429304
57.46979234,0.08711671829,-2.451354027,0.8561506867,2024-06-05 17:20:20.469792
57.51027104,3.049250364,-0.8806824684,0.5237734318,2024-06-05 17:20:20.510271
57.55076421,-0.3152294159,-0.4786567688,0.1955088079,2024-06-05 17:20:20.550764
57.59130354,-2.333783627,-1.456733704,1.386440158,2024-06-05 17:20:20.591304
57.63178728,1.904892445,-1.076485157,-0.7300068736,2024-06-05 17:20:20.631787
57.67226161,-0.1358118057,-1.51506424,-1.508605242,2024-06-05 17:20:20.672262
57.71268822,-2.594210625,-0.9962968826,0.7387089729,2024-06-05 17:20:20.712688
57.75317708,-0.4787845612,-1.063980579,0.6488645077,2024-06-05 17:20:20.753177
57.79366817,1.13679266,-0.8136672974,-1.666121483,2024-06-05 17:20:20.793668
57.83416781,2.084300995,-0.971394062,-1.607475519,2024-06-05 17:20:20.834168
57.87467968,0.7770318985,0.05633831024,-1.354730368,2024-06-05 17:20:20.874680
57.91516791,2.40994072,-0.7760477066,-1.38301146,2024-06-05 17:20:20.915168
57.95566775,4.355303288,0.1975560188,0.2177352905,2024-06-05 17:20:20.955668
57.99613979,1.024106026,0.02517652512,0.1618952751,2024-06-05 17:20:20.996140
58.03664989,4.064108849,0.9184594154,-0.0258898735,2024-06-05 17:20:21.036650
58.07713729,4.517907143,2.574328661,0.1901156902,2024-06-05 17:20:21.077137
58.1176188,3.000244617,2.17258358,0.2994669676,2024-06-05 17:20:21.117619
58.15812234,-0.6433200836,-0.5418157578,0.9350754023,2024-06-05 17:20:21.158122
58.19860083,-1.112701893,-0.4356555939,0.9599553347,2024-06-05 17:20:21.198601
58.23906666,-1.733949184,0.3174862862,1.592793345,2024-06-05 17:20:21.239067
58.27956895,-2.437347412,-1.107840538,0.5202834606,2024-06-05 17:20:21.279569
58.32006031,-0.9303092957,-0.7021183968,0.02434563637,2024-06-05 17:20:21.320060
58.36054614,-0.4959187508,-0.05244207382,0.03947782516,2024-06-05 17:20:21.360546
58.40104973,-0.317697525,1.656468391,-0.3911826909,2024-06-05 17:20:21.401050
58.44156609,-0.683318615,1.02345562,-0.09591662884,2024-06-05 17:20:21.441566
58.48203494,-2.135595322,-0.7968463898,0.3037383556,2024-06-05 17:20:21.482035
58.52249338,-2.960010529,-1.36209774,0.09437674284,2024-06-05 17:20:21.522493
58.56298239,-2.90217638,-0.1529159546,0.1765902638,2024-06-05 17:20:21.562982
58.60347145,-0.9407658577,-1.176109314,0.5595735908,2024-06-05 17:20:21.603471
58.64395817,0.7147583961,-1.377840042,0.1097134352,2024-06-05 17:20:21.643958
58.68445947,0.9853138924,0.7278833389,-0.1127518415,2024-06-05 17:20:21.684459
58.7249002,0.3435149193,-0.51537323,-0.3054702282,2024-06-05 17:20:21.724900
58.76543578,0.07515192032,-1.793546677,0.08015441895,2024-06-05 17:20:21.765436
58.80592885,-1.114574432,-1.017607212,-0.8043419719,2024-06-05 17:20:21.805929
58.84641072,-1.386568546,-1.043244839,-0.4546331763,2024-06-05 17:20:21.846411
58.88690421,-3.077849388,-1.005506039,-0.8271915913,2024-06-05 17:20:21.886904
58.92737343,0.2690658569,-0.5376696587,-0.4375249147,2024-06-05 17:20:21.927373
58.96785656,1.738717556,0.6014404297,-1.50120461,2024-06-05 17:20:21.967857
59.00844098,-2.116065979,-2.546534538,-0.5105056763,2024-06-05 17:20:22.008441
59.04886421,-1.287036896,-1.454293728,-1.283833742,2024-06-05 17:20:22.048864
59.0893751,0.2976951599,-2.070075512,-1.100120306,2024-06-05 17:20:22.089375
59.12984281,3.558333874,-0.402929306,-2.089356422,2024-06-05 17:20:22.129843
59.17033354,7.732615948,0.408680439,-0.7377303839,2024-06-05 17:20:22.170334
59.21090458,3.390256405,1.47759366,-0.7025098801,2024-06-05 17:20:22.210905
59.25134135,1.29518795,-0.12048769,0.4090414047,2024-06-05 17:20:22.251341
59.29183036,2.676147938,1.400286674,0.06566405296,2024-06-05 17:20:22.291830
59.33224229,1.865704536,0.7462968826,-0.02035045624,2024-06-05 17:20:22.332242
59.37273124,2.546186447,1.152829647,0.3813370466,2024-06-05 17:20:22.372731
59.41321885,-0.07531547546,1.318201065,1.146812439,2024-06-05 17:20:22.413219
59.45370718,-2.017596245,-0.4857182503,1.475479007,2024-06-05 17:20:22.453707
59.49422239,-1.081104755,0.538734436,0.9449412823,2024-06-05 17:20:22.494222
59.53472135,-2.00316,-1.172402859,0.764878571,2024-06-05 17:20:22.534721
59.57524025,-1.689630985,-2.658590317,0.2450464964,2024-06-05 17:20:22.575240
59.61569452,-1.742192745,0.1984987259,0.7969992161,2024-06-05 17:20:22.615695
59.65623452,-0.7672381401,-0.1615848541,0.002923309803,2024-06-05 17:20:22.656235
59.69672583,-1.752631187,-1.037302017,0.005962252617,2024-06-05 17:20:22.696726
59.73712484,-0.9812502861,1.581316471,0.7420806885,2024-06-05 17:20:22.737125
59.77764223,-2.167705536,0.5397830009,1.015726924,2024-06-05 17:20:22.777642
59.8181726,-1.188702583,-1.794610977,-0.2973364294,2024-06-05 17:20:22.818173
59.8586538,-0.07791090012,0.05239105225,0.521023035,2024-06-05 17:20:22.858654
59.89911963,0.05431938171,-1.376101017,0.497469306,2024-06-05 17:20:22.899120
59.93961619,-1.819211006,-1.832886696,0.2988439798,2024-06-05 17:20:22.939616
59.98006088,-0.001786708832,0.55337286,0.04098439217,2024-06-05 17:20:22.980061
60.02058921,2.073384285,0.4985899925,-0.1110299826,2024-06-05 17:20:23.020589
60.06107854,-1.719208241,-1.405114651,-0.6385950446,2024-06-05 17:20:23.061079
60.10156937,-1.875184536,-1.814162731,-1.176136017,2024-06-05 17:20:23.101569
60.14207801,-1.310487747,-1.959992409,-0.4616591334,2024-06-05 17:20:23.142078
60.18251317,-1.728054523,-2.188447475,-0.6953517199,2024-06-05 17:20:23.182513
60.22302244,1.237729549,-0.5497765541,-0.3285617828,2024-06-05 17:20:23.223022
60.26351442,2.443371773,-0.9272818565,-0.9722037315,2024-06-05 17:20:23.263514
60.30401807,1.615618706,-2.101802826,-1.718560457,2024-06-05 17:20:23.304018
60.34451364,2.778968334,-0.2409825325,-1.020492315,2024-06-05 17:20:23.344514
60.38499562,3.102797508,0.7159101963,-1.188986421,2024-06-05 17:20:23.384996
60.42550505,2.774577141,0.06612801552,-0.4697916508,2024-06-05 17:20:23.425505
60.46597234,5.635029793,2.647773266,0.0569858551,2024-06-05 17:20:23.465972
60.50646328,2.184631824,2.160014629,0.2716705799,2024-06-05 17:20:23.506463
60.54694874,0.6753559113,-0.3208751678,0.6308764219,2024-06-05 17:20:23.546949
60.58744093,-0.2377347946,-0.782515049,0.4036524296,2024-06-05 17:20:23.587441
60.62796025,-0.2153868675,-0.00629234314,0.6095147133,2024-06-05 17:20:23.627960
60.66842697,-1.041283607,-0.3788423538,0.3339223862,2024-06-05 17:20:23.668427
60.70886171,0.718170166,0.9627623558,0.7348003387,2024-06-05 17:20:23.708862
60.74936723,0.4559698105,1.714188099,0.2559409142,2024-06-05 17:20:23.749367
60.78988296,-0.6945610046,-1.435714245,0.4058775306,2024-06-05 17:20:23.789883
60.83037161,-3.033903122,-1.256942749,0.6778668165,2024-06-05 17:20:23.830372
60.87088452,-2.02822113,-0.7126569748,0.2395870686,2024-06-05 17:20:23.870885
60.91136197,-2.298164845,-1.277168274,0.7967050076,2024-06-05 17:20:23.911362
60.95182333,-0.9512248039,-0.6709785461,0.1727437377,2024-06-05 17:20:23.951823
60.99229822,-1.574143887,1.197720051,0.4435818493,2024-06-05 17:20:23.992298
61.03278874,-0.5048236847,-0.9925575256,-0.06771114469,2024-06-05 17:20:24.032789
61.07327775,-0.7209234238,-2.160115242,-0.03154158592,2024-06-05 17:20:24.073278
61.11380249,0.4498729706,-1.336050034,0.08354067802,2024-06-05 17:20:24.113802
61.15429239,-1.689074516,1.472367287,0.7990205288,2024-06-05 17:20:24.154292
61.19477234,-3.108234406,-0.6361217499,0.7368166447,2024-06-05 17:20:24.194772
61.23525551,1.162394047,0.09184837341,0.5315613151,2024-06-05 17:20:24.235256
61.27572895,1.633887291,-0.5273346901,-0.3310818076,2024-06-05 17:20:24.275729
61.31621869,-0.1900529861,-2.801640034,-0.4514026046,2024-06-05 17:20:24.316219
61.35671624,-5.578753471,-8.413921356,0.6601531506,2024-06-05 17:20:24.356716
61.39722286,-0.1987543106,-4.606441021,-1.475750208,2024-06-05 17:20:24.397223
61.43771833,-0.9481983185,-1.30362463,-2.556462765,2024-06-05 17:20:24.437718
61.47820697,4.278318882,2.945532799,-0.2318370342,2024-06-05 17:20:24.478207
61.51866588,11.13178921,4.848339081,-3.273776054,2024-06-05 17:20:24.518666
61.5591526,-3.881289482,-2.450752735,-0.01084709167,2024-06-05 17:20:24.559153
61.5996464,-2.084072113,-5.323119164,3.96221447,2024-06-05 17:20:24.599646
61.64013666,7.617371559,6.267620564,-2.545447826,2024-06-05 17:20:24.640137
61.68062703,-1.357282639,-1.7441926,0.3697030544,2024-06-05 17:20:24.680627
61.72111635,-1.533935547,-6.50382328,1.280070782,2024-06-05 17:20:24.721116
61.76165369,7.64987421,5.596218586,-2.27301836,2024-06-05 17:20:24.761654
61.80209807,9.231470108,6.720744133,-2.624240398,2024-06-05 17:20:24.802098
61.84259473,2.86689043,3.909516811,2.359733105,2024-06-05 17:20:24.842595
61.88309463,-5.336050987,-4.828071594,-1.616258144,2024-06-05 17:20:24.883095
61.92356083,1.848427773,3.270660639,3.563563824,2024-06-05 17:20:24.923561
61.96405057,-4.319250584,1.90742445,1.138016939,2024-06-05 17:20:24.964051
62.00457728,-6.057232857,-9.085252762,-0.8393958807,2024-06-05 17:20:25.004577
62.04502489,-0.9929327965,-0.02734184265,-0.09457181394,2024-06-05 17:20:25.045025
