Time (s),Acceleration x (m/s^2),Acceleration y (m/s^2),Acceleration z (m/s^2),Datetime
0.005788142,-2.088934183,3.032603502,7.917252064,2024-06-05 16:52:32.005788
0.026030433,-2.136790514,3.07836628,7.186543941,2024-06-05 16:52:32.026030
0.066030433,-2.472084999,3.001496792,7.668099403,2024-06-05 16:52:32.066030
0.106030433,-2.472084999,3.001496792,7.668099403,2024-06-05 16:52:32.106030
0.146030433,-2.472084999,3.001496792,7.668099403,2024-06-05 16:52:32.146030
0.186030433,-2.472084999,3.001496792,7.668099403,2024-06-05 16:52:32.186030
0.226030433,-2.472084999,3.001496792,7.668099403,2024-06-05 16:52:32.226030
0.266030433,-2.472084999,3.001496792,7.668099403,2024-06-05 16:52:32.266030
0.306030433,-2.472084999,3.001496792,7.668099403,2024-06-05 16:52:32.306030
0.346030433,-2.472084999,3.001496792,7.668099403,2024-06-05 16:52:32.346030
0.386030433,-2.472084999,3.001496792,7.668099403,2024-06-05 16:52:32.386030
0.426030433,-2.472084999,3.001496792,7.668099403,2024-06-05 16:52:32.426030
0.466030433,-2.472084999,3.001496792,7.668099403,2024-06-05 16:52:32.466030
0.506030433,-2.472084999,3.001496792,7.668099403,2024-06-05 16:52:32.506030
0.546030433,-2.472084999,3.001496792,7.668099403,2024-06-05 16:52:32.546030
0.586030433,-2.472084999,3.001496792,7.668099403,2024-06-05 16:52:32.586030
0.626030433,-2.472084999,3.001496792,7.668099403,2024-06-05 16:52:32.626030
0.666030433,-4.140480518,3.451945782,8.158926964,2024-06-05 16:52:32.666030
0.706030433,-4.140480518,3.451945782,8.158926964,2024-06-05 16:52:32.706030
0.746030433,-4.140480518,3.451945782,8.158926964,2024-06-05 16:52:32.746030
0.786030433,-4.140480518,3.451945782,8.158926964,2024-06-05 16:52:32.786030
0.826030433,-4.140480518,3.451945782,8.158926964,2024-06-05 16:52:32.826030
0.866030433,-4.140480518,3.451945782,8.158926964,2024-06-05 16:52:32.866030
0.906030433,-4.140480518,3.451945782,8.158926964,2024-06-05 16:52:32.906030
0.946030433,-4.140480518,3.451945782,8.158926964,2024-06-05 16:52:32.946030
0.986030433,-4.140480518,3.451945782,8.158926964,2024-06-05 16:52:32.986030
1.026030433,-4.140480518,3.451945782,8.158926964,2024-06-05 16:52:33.026030
1.066030433,-4.140480518,3.451945782,8.158926964,2024-06-05 16:52:33.066030
1.106030433,-4.140480518,3.451945782,8.158926964,2024-06-05 16:52:33.106030
1.146030433,-4.140480518,3.451945782,8.158926964,2024-06-05 16:52:33.146030
1.186030433,-4.140480518,3.451945782,8.158926964,2024-06-05 16:52:33.186030
1.226030433,-4.140480518,3.451945782,8.158926964,2024-06-05 16:52:33.226030
1.266030433,-4.140480518,3.451945782,8.158926964,2024-06-05 16:52:33.266030
1.306030433,-21.13669968,-11.14636612,1.276870012,2024-06-05 16:52:33.306030
1.346030433,-20.1867485,-10.04566765,0.8479565382,2024-06-05 16:52:33.346030
1.386030433,-13.5092783,-5.233103275,5.973083496,2024-06-05 16:52:33.386030
1.426030433,-5.741877079,-0.9511470199,0.6406782866,2024-06-05 16:52:33.426030
1.466030433,9.51386261,1.524826288,2.123630047,2024-06-05 16:52:33.466030
1.506030433,1.636092424,0.4205385745,-5.355136871,2024-06-05 16:52:33.506030
1.546030433,-1.856531262,-1.390529037,-1.486541033,2024-06-05 16:52:33.546030
1.586030433,-10.33071232,-6.740880489,-2.128415823,2024-06-05 16:52:33.586030
1.626030433,-10.33071232,-6.740880489,-2.128415823,2024-06-05 16:52:33.626030
1.666030433,-8.617751122,-12.7250309,-1.203589797,2024-06-05 16:52:33.666030
1.706030433,-8.617751122,-12.7250309,-1.203589797,2024-06-05 16:52:33.706030
1.746030433,-8.617751122,-12.7250309,-1.203589797,2024-06-05 16:52:33.746030
1.786030433,-8.617751122,-12.7250309,-1.203589797,2024-06-05 16:52:33.786030
1.826030433,-8.617751122,-12.7250309,-1.203589797,2024-06-05 16:52:33.826030
1.866030433,-8.617751122,-12.7250309,-1.203589797,2024-06-05 16:52:33.866030
1.906030433,-4.281956196,-10.13180923,-1.857727647,2024-06-05 16:52:33.906030
1.946030433,-4.281956196,-10.13180923,-1.857727647,2024-06-05 16:52:33.946030
1.986030433,-4.281956196,-10.13180923,-1.857727647,2024-06-05 16:52:33.986030
2.026030433,-4.281956196,-10.13180923,-1.857727647,2024-06-05 16:52:34.026030
2.066030433,-4.281956196,-10.13180923,-1.857727647,2024-06-05 16:52:34.066030
2.106030433,-4.281956196,-10.13180923,-1.857727647,2024-06-05 16:52:34.106030
2.146030433,-4.281956196,-10.13180923,-1.857727647,2024-06-05 16:52:34.146030
2.186030433,-4.281956196,-10.13180923,-1.857727647,2024-06-05 16:52:34.186030
2.226030433,-4.281956196,-10.13180923,-1.857727647,2024-06-05 16:52:34.226030
2.266030433,-4.281956196,-10.13180923,-1.857727647,2024-06-05 16:52:34.266030
2.306030433,-4.281956196,-10.13180923,-1.857727647,2024-06-05 16:52:34.306030
2.346030433,-4.281956196,-10.13180923,-1.857727647,2024-06-05 16:52:34.346030
2.386030433,-4.281956196,-10.13180923,-1.857727647,2024-06-05 16:52:34.386030
2.426030433,-4.281956196,-10.13180923,-1.857727647,2024-06-05 16:52:34.426030
2.466030433,-4.281956196,-10.13180923,-1.857727647,2024-06-05 16:52:34.466030
2.506030433,-4.281956196,-10.13180923,-1.857727647,2024-06-05 16:52:34.506030
2.546030433,-4.281956196,-10.13180923,-1.857727647,2024-06-05 16:52:34.546030
2.586030433,-4.281956196,-10.13180923,-1.857727647,2024-06-05 16:52:34.586030
2.626030433,-4.281956196,-10.13180923,-1.857727647,2024-06-05 16:52:34.626030
2.666030433,-4.281956196,-10.13180923,-1.857727647,2024-06-05 16:52:34.666030
2.706030433,-4.281956196,-10.13180923,-1.857727647,2024-06-05 16:52:34.706030
2.746030433,-4.281956196,-10.13180923,-1.857727647,2024-06-05 16:52:34.746030
2.786030433,-4.281956196,-10.13180923,-1.857727647,2024-06-05 16:52:34.786030
2.826030433,-4.281956196,-10.13180923,-1.857727647,2024-06-05 16:52:34.826030
2.866030433,-4.281956196,-10.13180923,-1.857727647,2024-06-05 16:52:34.866030
2.906030433,-4.281956196,-10.13180923,-1.857727647,2024-06-05 16:52:34.906030
2.946030433,-4.281956196,-10.13180923,-1.857727647,2024-06-05 16:52:34.946030
2.986030433,-1.276870012,-9.743574142,2.108076811,2024-06-05 16:52:34.986030
3.026030433,1.037288666,-9.019146919,-0.7929216027,2024-06-05 16:52:35.026030
3.066030433,0.1280160099,-7.803293705,0.3652045429,2024-06-05 16:52:35.066030
3.106030433,0.9257232547,-8.301599503,1.861316919,2024-06-05 16:52:35.106030
3.146030433,0.152243346,-8.615358353,2.462513685,2024-06-05 16:52:35.146030
3.186030433,0.8288139701,-8.973683357,3.418446302,2024-06-05 16:52:35.186030
3.226030433,1.044467092,-8.529216766,2.342872381,2024-06-05 16:52:35.226030
3.266030433,1.363011599,-11.93330574,4.327419758,2024-06-05 16:52:35.266030
3.306030433,1.363011599,-11.93330574,4.327419758,2024-06-05 16:52:35.306030
3.346030433,1.363011599,-11.93330574,4.327419758,2024-06-05 16:52:35.346030
3.386030433,1.363011599,-11.93330574,4.327419758,2024-06-05 16:52:35.386030
3.426030433,0.2982055247,-9.926923752,0.5688936114,2024-06-05 16:52:35.426030
3.466030433,0.2982055247,-9.926923752,0.5688936114,2024-06-05 16:52:35.466030
3.506030433,0.2982055247,-9.926923752,0.5688936114,2024-06-05 16:52:35.506030
3.546030433,0.2982055247,-9.926923752,0.5688936114,2024-06-05 16:52:35.546030
3.586030433,0.2982055247,-9.926923752,0.5688936114,2024-06-05 16:52:35.586030
3.626030433,0.2982055247,-9.926923752,0.5688936114,2024-06-05 16:52:35.626030
3.666030433,1.594218135,-9.367601395,0.1869392693,2024-06-05 16:52:35.666030
3.706030433,1.594218135,-9.367601395,0.1869392693,2024-06-05 16:52:35.706030
3.746030433,1.594218135,-9.367601395,0.1869392693,2024-06-05 16:52:35.746030
3.786030433,1.594218135,-9.367601395,0.1869392693,2024-06-05 16:52:35.786030
3.826030433,1.594218135,-9.367601395,0.1869392693,2024-06-05 16:52:35.826030
3.866030433,1.594218135,-9.367601395,0.1869392693,2024-06-05 16:52:35.866030
3.906030433,1.594218135,-9.367601395,0.1869392693,2024-06-05 16:52:35.906030
3.946030433,1.594218135,-9.367601395,0.1869392693,2024-06-05 16:52:35.946030
3.986030433,1.594218135,-9.367601395,0.1869392693,2024-06-05 16:52:35.986030
4.026030433,1.594218135,-9.367601395,0.1869392693,2024-06-05 16:52:36.026030
4.066030433,1.594218135,-9.367601395,0.1869392693,2024-06-05 16:52:36.066030
4.106030433,1.594218135,-9.367601395,0.1869392693,2024-06-05 16:52:36.106030
4.146030433,1.594218135,-9.367601395,0.1869392693,2024-06-05 16:52:36.146030
4.186030433,1.594218135,-9.367601395,0.1869392693,2024-06-05 16:52:36.186030
4.226030433,1.594218135,-9.367601395,0.1869392693,2024-06-05 16:52:36.226030
4.266030433,1.594218135,-9.367601395,0.1869392693,2024-06-05 16:52:36.266030
4.306030433,1.594218135,-9.367601395,0.1869392693,2024-06-05 16:52:36.306030
4.346030433,1.594218135,-9.367601395,0.1869392693,2024-06-05 16:52:36.346030
4.386030433,1.594218135,-9.367601395,0.1869392693,2024-06-05 16:52:36.386030
4.426030433,1.594218135,-9.367601395,0.1869392693,2024-06-05 16:52:36.426030
4.466030433,1.594218135,-9.367601395,0.1869392693,2024-06-05 16:52:36.466030
4.506030433,1.594218135,-9.367601395,0.1869392693,2024-06-05 16:52:36.506030
4.546030433,1.594218135,-9.367601395,0.1869392693,2024-06-05 16:52:36.546030
4.586030433,1.594218135,-9.367601395,0.1869392693,2024-06-05 16:52:36.586030
4.626030433,1.131805062,-6.455835342,1.262513041,2024-06-05 16:52:36.626030
4.666030433,-3.862613916,-5.437689304,1.56191504,2024-06-05 16:52:36.666030
4.706030433,-4.271188259,-8.592626572,4.117748737,2024-06-05 16:52:36.706030
4.746030433,-1.180858016,-7.815258026,6.11097002,2024-06-05 16:52:36.746030
4.786030433,-2.136790514,-4.777868748,2.554936409,2024-06-05 16:52:36.786030
4.826030433,-3.722633839,-8.72453022,6.495316982,2024-06-05 16:52:36.826030
4.866030433,-3.455534935,-9.658628464,7.033103943,2024-06-05 16:52:36.866030
4.906030433,-1.263709426,-4.389633179,3.560819149,2024-06-05 16:52:36.906030
4.946030433,-2.035095692,-5.921638012,5.071288586,2024-06-05 16:52:36.946030
4.986030433,-2.035095692,-5.921638012,5.071288586,2024-06-05 16:52:36.986030
5.026030433,-2.035095692,-5.921638012,5.071288586,2024-06-05 16:52:37.026030
5.066030433,-2.035095692,-5.921638012,5.071288586,2024-06-05 16:52:37.066030
5.106030433,-2.035095692,-5.921638012,5.071288586,2024-06-05 16:52:37.106030
5.146030433,-2.035095692,-5.921638012,5.071288586,2024-06-05 16:52:37.146030
5.186030433,-2.035095692,-5.921638012,5.071288586,2024-06-05 16:52:37.186030
5.226030433,-2.035095692,-5.921638012,5.071288586,2024-06-05 16:52:37.226030
5.266030433,-2.035095692,-5.921638012,5.071288586,2024-06-05 16:52:37.266030
5.306030433,-2.035095692,-5.921638012,5.071288586,2024-06-05 16:52:37.306030
5.346030433,-2.035095692,-5.921638012,5.071288586,2024-06-05 16:52:37.346030
5.386030433,-2.035095692,-5.921638012,5.071288586,2024-06-05 16:52:37.386030
5.426030433,-2.035095692,-5.921638012,5.071288586,2024-06-05 16:52:37.426030
5.466030433,-2.035095692,-5.921638012,5.071288586,2024-06-05 16:52:37.466030
5.506030433,-2.035095692,-5.921638012,5.071288586,2024-06-05 16:52:37.506030
5.546030433,-2.035095692,-5.921638012,5.071288586,2024-06-05 16:52:37.546030
5.586030433,-2.035095692,-5.921638012,5.071288586,2024-06-05 16:52:37.586030
5.626030433,-2.035095692,-5.921638012,5.071288586,2024-06-05 16:52:37.626030
5.666030433,-5.050949574,-0.8814560175,8.919545174,2024-06-05 16:52:37.666030
5.706030433,-5.050949574,-0.8814560175,8.919545174,2024-06-05 16:52:37.706030
5.746030433,-5.050949574,-0.8814560175,8.919545174,2024-06-05 16:52:37.746030
5.786030433,-5.050949574,-0.8814560175,8.919545174,2024-06-05 16:52:37.786030
5.826030433,-5.050949574,-0.8814560175,8.919545174,2024-06-05 16:52:37.826030
5.866030433,-5.050949574,-0.8814560175,8.919545174,2024-06-05 16:52:37.866030
5.906030433,-4.161118507,-0.4037888348,8.315956116,2024-06-05 16:52:37.906030
5.946030433,-4.161118507,-0.4037888348,8.315956116,2024-06-05 16:52:37.946030
5.986030433,-4.161118507,-0.4037888348,8.315956116,2024-06-05 16:52:37.986030
6.026030433,-4.161118507,-0.4037888348,8.315956116,2024-06-05 16:52:38.026030
6.066030433,-4.161118507,-0.4037888348,8.315956116,2024-06-05 16:52:38.066030
6.106030433,-4.161118507,-0.4037888348,8.315956116,2024-06-05 16:52:38.106030
6.146030433,-4.161118507,-0.4037888348,8.315956116,2024-06-05 16:52:38.146030
6.186030433,-4.161118507,-0.4037888348,8.315956116,2024-06-05 16:52:38.186030
6.226030433,-4.161118507,-0.4037888348,8.315956116,2024-06-05 16:52:38.226030
6.266030433,-4.161118507,-0.4037888348,8.315956116,2024-06-05 16:52:38.266030
6.306030433,-5.006682396,-0.8874381185,8.397312164,2024-06-05 16:52:38.306030
6.346030433,-5.204090118,-0.7989036441,8.433503151,2024-06-05 16:52:38.346030
6.386030433,-5.32163763,-0.7235297561,8.157731056,2024-06-05 16:52:38.386030
6.426030433,-5.50857687,-0.9822536707,7.806882858,2024-06-05 16:52:38.426030
6.466030433,-5.053342342,-1.037288666,7.98903656,2024-06-05 16:52:38.466030
6.506030433,-5.42572546,-0.8395816684,8.091927528,2024-06-05 16:52:38.506030
6.546030433,-5.963512421,-0.5988038778,7.615158081,2024-06-05 16:52:38.546030
6.586030433,-5.426921844,-0.7486543655,7.919644833,2024-06-05 16:52:38.586030
6.626030433,-5.743073463,-0.7630113363,8.126624107,2024-06-05 16:52:38.626030
6.666030433,-5.698806286,-0.6681957245,7.929215908,2024-06-05 16:52:38.666030
6.706030433,-5.698806286,-0.6681957245,7.929215908,2024-06-05 16:52:38.706030
6.746030433,-5.698806286,-0.6681957245,7.929215908,2024-06-05 16:52:38.746030
6.786030433,-5.698806286,-0.6681957245,7.929215908,2024-06-05 16:52:38.786030
6.826030433,-5.698806286,-0.6681957245,7.929215908,2024-06-05 16:52:38.826030
6.866030433,-5.698806286,-0.6681957245,7.929215908,2024-06-05 16:52:38.866030
6.906030433,-5.868995667,-0.4839483798,7.797311783,2024-06-05 16:52:38.906030
6.946030433,-5.868995667,-0.4839483798,7.797311783,2024-06-05 16:52:38.946030
6.986030433,-5.868995667,-0.4839483798,7.797311783,2024-06-05 16:52:38.986030
7.026030433,-5.868995667,-0.4839483798,7.797311783,2024-06-05 16:52:39.026030
7.066030433,-5.868995667,-0.4839483798,7.797311783,2024-06-05 16:52:39.066030
7.106030433,-5.868995667,-0.4839483798,7.797311783,2024-06-05 16:52:39.106030
7.146030433,-5.868995667,-0.4839483798,7.797311783,2024-06-05 16:52:39.146030
7.186030433,-5.868995667,-0.4839483798,7.797311783,2024-06-05 16:52:39.186030
7.226030433,-5.868995667,-0.4839483798,7.797311783,2024-06-05 16:52:39.226030
7.266030433,-5.868995667,-0.4839483798,7.797311783,2024-06-05 16:52:39.266030
7.306030433,-5.868995667,-0.4839483798,7.797311783,2024-06-05 16:52:39.306030
7.346030433,-5.868995667,-0.4839483798,7.797311783,2024-06-05 16:52:39.346030
7.386030433,-5.868995667,-0.4839483798,7.797311783,2024-06-05 16:52:39.386030
7.426030433,-5.868995667,-0.4839483798,7.797311783,2024-06-05 16:52:39.426030
7.466030433,-5.868995667,-0.4839483798,7.797311783,2024-06-05 16:52:39.466030
7.506030433,-5.868995667,-0.4839483798,7.797311783,2024-06-05 16:52:39.506030
7.546030433,-5.868995667,-0.4839483798,7.797311783,2024-06-05 16:52:39.546030
7.586030433,-5.868995667,-0.4839483798,7.797311783,2024-06-05 16:52:39.586030
7.626030433,-5.868995667,-0.4839483798,7.797311783,2024-06-05 16:52:39.626030
7.666030433,-5.868995667,-0.4839483798,7.797311783,2024-06-05 16:52:39.666030
7.706030433,-5.868995667,-0.4839483798,7.797311783,2024-06-05 16:52:39.706030
7.746030433,-5.868995667,-0.4839483798,7.797311783,2024-06-05 16:52:39.746030
7.786030433,-5.868995667,-0.4839483798,7.797311783,2024-06-05 16:52:39.786030
7.826030433,-5.868995667,-0.4839483798,7.797311783,2024-06-05 16:52:39.826030
7.866030433,-5.868995667,-0.4839483798,7.797311783,2024-06-05 16:52:39.866030
7.906030433,-5.493023396,-0.4839483798,8.102695465,2024-06-05 16:52:39.906030
7.946030433,-5.493023396,-0.4839483798,8.102695465,2024-06-05 16:52:39.946030
7.986030433,-5.098805904,-0.5988038778,8.160123825,2024-06-05 16:52:39.986030
8.026030433,-5.242674351,-0.6263213158,8.185546875,2024-06-05 16:52:40.026030
8.066030433,-5.246263504,-0.5330012441,8.149355888,2024-06-05 16:52:40.066030
8.106030433,-5.380261898,-0.3436691463,8.145766258,2024-06-05 16:52:40.106030
8.146030433,-5.261816978,-0.4396811724,8.143373489,2024-06-05 16:52:40.146030
8.186030433,-5.261816978,-0.4648058116,8.155337334,2024-06-05 16:52:40.186030
8.226030433,-5.248656273,-0.4193421602,8.127820015,2024-06-05 16:52:40.226030
8.266030433,-5.319244862,-0.3747758567,8.220243454,2024-06-05 16:52:40.266030
8.306030433,-5.319244862,-0.3747758567,8.220243454,2024-06-05 16:52:40.306030
8.346030433,-5.319244862,-0.3747758567,8.220243454,2024-06-05 16:52:40.346030
8.386030433,-5.319244862,-0.3747758567,8.220243454,2024-06-05 16:52:40.386030
8.426030433,-5.347958565,-0.4121637046,8.127820015,2024-06-05 16:52:40.426030
8.466030433,-5.347958565,-0.4121637046,8.127820015,2024-06-05 16:52:40.466030
8.506030433,-5.347958565,-0.4121637046,8.127820015,2024-06-05 16:52:40.506030
8.546030433,-5.347958565,-0.4121637046,8.127820015,2024-06-05 16:52:40.546030
8.586030433,-5.347958565,-0.4121637046,8.127820015,2024-06-05 16:52:40.586030
8.626030433,-5.347958565,-0.4121637046,8.127820015,2024-06-05 16:52:40.626030
8.666030433,-5.520540714,-0.2682952285,8.066802979,2024-06-05 16:52:40.666030
8.706030433,-5.520540714,-0.2682952285,8.066802979,2024-06-05 16:52:40.706030
8.746030433,-5.520540714,-0.2682952285,8.066802979,2024-06-05 16:52:40.746030
8.786030433,-5.520540714,-0.2682952285,8.066802979,2024-06-05 16:52:40.786030
8.826030433,-5.520540714,-0.2682952285,8.066802979,2024-06-05 16:52:40.826030
8.866030433,-5.520540714,-0.2682952285,8.066802979,2024-06-05 16:52:40.866030
8.906030433,-5.520540714,-0.2682952285,8.066802979,2024-06-05 16:52:40.906030
8.946030433,-5.520540714,-0.2682952285,8.066802979,2024-06-05 16:52:40.946030
8.986030433,-5.520540714,-0.2682952285,8.066802979,2024-06-05 16:52:40.986030
9.026030433,-5.520540714,-0.2682952285,8.066802979,2024-06-05 16:52:41.026030
9.066030433,-5.520540714,-0.2682952285,8.066802979,2024-06-05 16:52:41.066030
9.106030433,-5.520540714,-0.2682952285,8.066802979,2024-06-05 16:52:41.106030
9.146030433,-5.520540714,-0.2682952285,8.066802979,2024-06-05 16:52:41.146030
9.186030433,-5.520540714,-0.2682952285,8.066802979,2024-06-05 16:52:41.186030
9.226030433,-5.520540714,-0.2682952285,8.066802979,2024-06-05 16:52:41.226030
9.266030433,-5.520540714,-0.2682952285,8.066802979,2024-06-05 16:52:41.266030
9.306030433,-5.520540714,-0.2682952285,8.066802979,2024-06-05 16:52:41.306030
9.346030433,-5.520540714,-0.2682952285,8.066802979,2024-06-05 16:52:41.346030
9.386030433,-5.520540714,-0.2682952285,8.066802979,2024-06-05 16:52:41.386030
9.426030433,-5.520540714,-0.2682952285,8.066802979,2024-06-05 16:52:41.426030
9.466030433,-5.520540714,-0.2682952285,8.066802979,2024-06-05 16:52:41.466030
9.506030433,-5.520540714,-0.2682952285,8.066802979,2024-06-05 16:52:41.506030
9.546030433,-5.520540714,-0.2682952285,8.066802979,2024-06-05 16:52:41.546030
9.586030433,-5.520540714,-0.2682952285,8.066802979,2024-06-05 16:52:41.586030
9.626030433,-5.380261898,-0.147457689,8.076375008,2024-06-05 16:52:41.626030
9.666030433,-5.364708424,-0.1977069676,8.090731621,2024-06-05 16:52:41.666030
9.706030433,-5.401797295,-0.1977069676,8.065607071,2024-06-05 16:52:41.706030
9.746030433,-5.388636589,-0.1666002721,8.119445801,2024-06-05 16:52:41.746030
9.786030433,-5.359922886,-0.1677966863,8.145766258,2024-06-05 16:52:41.786030
9.826030433,-5.375475883,-0.2431706041,8.030911446,2024-06-05 16:52:41.826030
9.866030433,-5.405386448,-0.1666002721,8.154141426,2024-06-05 16:52:41.866030
9.906030433,-5.365904808,-0.2048854381,8.071588516,2024-06-05 16:52:41.906030
9.946030433,-5.42572546,-0.1594218016,8.084749222,2024-06-05 16:52:41.946030
9.986030433,-5.42572546,-0.1594218016,8.084749222,2024-06-05 16:52:41.986030
10.02603043,-5.42572546,-0.1594218016,8.084749222,2024-06-05 16:52:42.026030
10.06603043,-5.42572546,-0.1594218016,8.084749222,2024-06-05 16:52:42.066030
10.10603043,-5.42572546,-0.1594218016,8.084749222,2024-06-05 16:52:42.106030
10.14603043,-5.42572546,-0.1594218016,8.084749222,2024-06-05 16:52:42.146030
10.18603043,-5.42572546,-0.1594218016,8.084749222,2024-06-05 16:52:42.186030
10.22603043,-5.42572546,-0.1594218016,8.084749222,2024-06-05 16:52:42.226030
10.26603043,-5.42572546,-0.1594218016,8.084749222,2024-06-05 16:52:42.266030
10.30603043,-5.42572546,-0.1594218016,8.084749222,2024-06-05 16:52:42.306030
10.34603043,-5.42572546,-0.1594218016,8.084749222,2024-06-05 16:52:42.346030
10.38603043,-5.42572546,-0.1594218016,8.084749222,2024-06-05 16:52:42.386030
10.42603043,-5.42572546,-0.1594218016,8.084749222,2024-06-05 16:52:42.426030
10.46603043,-5.42572546,-0.1594218016,8.084749222,2024-06-05 16:52:42.466030
10.50603043,-5.42572546,-0.1594218016,8.084749222,2024-06-05 16:52:42.506030
10.54603043,-5.42572546,-0.1594218016,8.084749222,2024-06-05 16:52:42.546030
10.58603043,-5.42572546,-0.1594218016,8.084749222,2024-06-05 16:52:42.586030
10.62603043,-5.42572546,-0.1594218016,8.084749222,2024-06-05 16:52:42.626030
10.66603043,-5.181358337,0.08015955985,8.186743736,2024-06-05 16:52:42.666030
10.70603043,-5.181358337,0.08015955985,8.186743736,2024-06-05 16:52:42.706030
10.74603043,-5.181358337,0.08015955985,8.186743736,2024-06-05 16:52:42.746030
10.78603043,-5.181358337,0.08015955985,8.186743736,2024-06-05 16:52:42.786030
10.82603043,-5.181358337,0.08015955985,8.186743736,2024-06-05 16:52:42.826030
10.86603043,-5.181358337,0.08015955985,8.186743736,2024-06-05 16:52:42.866030
10.90603043,-5.198108196,0.07776673883,8.191529274,2024-06-05 16:52:42.906030
10.94603043,-5.198108196,0.07776673883,8.191529274,2024-06-05 16:52:42.946030
10.98603043,-5.198108196,0.07776673883,8.191529274,2024-06-05 16:52:42.986030
11.02603043,-5.198108196,0.07776673883,8.191529274,2024-06-05 16:52:43.026030
11.06603043,-5.198108196,0.07776673883,8.191529274,2024-06-05 16:52:43.066030
11.10603043,-5.198108196,0.07776673883,8.191529274,2024-06-05 16:52:43.106030
11.14603043,-5.198108196,0.07776673883,8.191529274,2024-06-05 16:52:43.146030
11.18603043,-5.198108196,0.07776673883,8.191529274,2024-06-05 16:52:43.186030
11.22603043,-5.198108196,0.07776673883,8.191529274,2024-06-05 16:52:43.226030
11.26603043,-5.198108196,0.07776673883,8.191529274,2024-06-05 16:52:43.266030
11.30603043,-5.246263504,0.03110669367,8.181958199,2024-06-05 16:52:43.306030
11.34603043,-5.198108196,-0.07896314561,8.213064194,2024-06-05 16:52:43.346030
11.38603043,-5.276174068,-0.06340979785,8.220243454,2024-06-05 16:52:43.386030
11.42603043,-5.261816978,-0.0933200866,8.094321251,2024-06-05 16:52:43.426030
11.46603043,-5.257031441,-0.08494520187,8.160123825,2024-06-05 16:52:43.466030
11.50603043,-5.374279499,-0.04785645381,8.1759758,2024-06-05 16:52:43.506030
11.54603043,-5.243870735,0.03349951655,8.168797493,2024-06-05 16:52:43.546030
11.58603043,-5.320441246,-0.09212367237,8.097909927,2024-06-05 16:52:43.586030
11.62603043,-5.320441246,-0.09212367237,8.097909927,2024-06-05 16:52:43.626030
11.66603043,-5.289334297,-0.004785645287,8.12183857,2024-06-05 16:52:43.666030
11.70603043,-5.289334297,-0.004785645287,8.12183857,2024-06-05 16:52:43.706030
11.74603043,-5.289334297,-0.004785645287,8.12183857,2024-06-05 16:52:43.746030
11.78603043,-5.289334297,-0.004785645287,8.12183857,2024-06-05 16:52:43.786030
11.82603043,-5.289334297,-0.004785645287,8.12183857,2024-06-05 16:52:43.826030
11.86603043,-5.289334297,-0.004785645287,8.12183857,2024-06-05 16:52:43.866030
11.90603043,-5.426921844,0.01076770201,8.191529274,2024-06-05 16:52:43.906030
11.94603043,-5.426921844,0.01076770201,8.191529274,2024-06-05 16:52:43.946030
11.98603043,-5.426921844,0.01076770201,8.191529274,2024-06-05 16:52:43.986030
12.02603043,-5.426921844,0.01076770201,8.191529274,2024-06-05 16:52:44.026030
12.06603043,-5.426921844,0.01076770201,8.191529274,2024-06-05 16:52:44.066030
12.10603043,-5.426921844,0.01076770201,8.191529274,2024-06-05 16:52:44.106030
12.14603043,-5.426921844,0.01076770201,8.191529274,2024-06-05 16:52:44.146030
12.18603043,-5.426921844,0.01076770201,8.191529274,2024-06-05 16:52:44.186030
12.22603043,-5.313262463,0.157028988,8.01775074,2024-06-05 16:52:44.226030
12.26603043,-5.313262463,0.157028988,8.01775074,2024-06-05 16:52:44.266030
12.30603043,-5.313262463,0.157028988,8.01775074,2024-06-05 16:52:44.306030
12.34603043,-5.313262463,0.157028988,8.01775074,2024-06-05 16:52:44.346030
12.38603043,-5.313262463,0.157028988,8.01775074,2024-06-05 16:52:44.386030
12.42603043,-5.313262463,0.157028988,8.01775074,2024-06-05 16:52:44.426030
12.46603043,-5.313262463,0.157028988,8.01775074,2024-06-05 16:52:44.466030
12.50603043,-5.313262463,0.157028988,8.01775074,2024-06-05 16:52:44.506030
12.54603043,-5.313262463,0.157028988,8.01775074,2024-06-05 16:52:44.546030
12.58603043,-5.313262463,0.157028988,8.01775074,2024-06-05 16:52:44.586030
12.62603043,-5.313262463,0.157028988,8.01775074,2024-06-05 16:52:44.626030
12.66603043,-5.313262463,0.157028988,8.01775074,2024-06-05 16:52:44.666030
12.70603043,-5.313262463,0.157028988,8.01775074,2024-06-05 16:52:44.706030
12.74603043,-5.313262463,0.157028988,8.01775074,2024-06-05 16:52:44.746030
12.78603043,-5.313262463,0.157028988,8.01775074,2024-06-05 16:52:44.786030
12.82603043,-5.313262463,0.157028988,8.01775074,2024-06-05 16:52:44.826030
12.86603043,-5.313262463,0.157028988,8.01775074,2024-06-05 16:52:44.866030
12.90603043,-5.313262463,0.157028988,8.01775074,2024-06-05 16:52:44.906030
12.94603043,-5.313262463,0.157028988,8.01775074,2024-06-05 16:52:44.946030
12.98603043,-5.392225742,0.07896314561,8.099106789,2024-06-05 16:52:44.986030
13.02603043,-5.364708424,0.06939185411,8.115856171,2024-06-05 16:52:45.026030
13.06603043,-5.375475883,0.1594218016,8.138587952,2024-06-05 16:52:45.066030
13.10603043,-5.395814896,-0.02751746029,8.081160545,2024-06-05 16:52:45.106030
13.14603043,-5.438885689,-0.07896314561,8.009375572,2024-06-05 16:52:45.146030
13.18603043,-5.51934433,0.009571290575,7.975875854,2024-06-05 16:52:45.186030
13.22603043,-5.532505035,0.03589234129,8.002197266,2024-06-05 16:52:45.226030
13.26603043,-5.532505035,0.03589234129,8.002197266,2024-06-05 16:52:45.266030
13.30603043,-5.532505035,0.03589234129,8.002197266,2024-06-05 16:52:45.306030
13.34603043,-5.532505035,0.03589234129,8.002197266,2024-06-05 16:52:45.346030
13.38603043,-5.532505035,0.03589234129,8.002197266,2024-06-05 16:52:45.386030
13.42603043,-5.534897804,-0.03349951655,7.993822098,2024-06-05 16:52:45.426030
13.46603043,-5.534897804,-0.03349951655,7.993822098,2024-06-05 16:52:45.466030
13.50603043,-5.534897804,-0.03349951655,7.993822098,2024-06-05 16:52:45.506030
13.54603043,-5.534897804,-0.03349951655,7.993822098,2024-06-05 16:52:45.546030
13.58603043,-5.534897804,-0.03349951655,7.993822098,2024-06-05 16:52:45.586030
13.62603043,-5.534897804,-0.03349951655,7.993822098,2024-06-05 16:52:45.626030
13.66603043,-5.534897804,-0.03349951655,7.993822098,2024-06-05 16:52:45.666030
13.70603043,-5.534897804,-0.03349951655,7.993822098,2024-06-05 16:52:45.706030
13.74603043,-5.534897804,-0.03349951655,7.993822098,2024-06-05 16:52:45.746030
13.78603043,-5.534897804,-0.03349951655,7.993822098,2024-06-05 16:52:45.786030
13.82603043,-5.534897804,-0.03349951655,7.993822098,2024-06-05 16:52:45.826030
13.86603043,-5.534897804,-0.03349951655,7.993822098,2024-06-05 16:52:45.866030
13.90603043,-5.468796253,0.4061816335,7.916055679,2024-06-05 16:52:45.906030
13.94603043,-5.468796253,0.4061816335,7.916055679,2024-06-05 16:52:45.946030
13.98603043,-5.468796253,0.4061816335,7.916055679,2024-06-05 16:52:45.986030
14.02603043,-5.468796253,0.4061816335,7.916055679,2024-06-05 16:52:46.026030
14.06603043,-5.468796253,0.4061816335,7.916055679,2024-06-05 16:52:46.066030
14.10603043,-5.468796253,0.4061816335,7.916055679,2024-06-05 16:52:46.106030
14.14603043,-5.468796253,0.4061816335,7.916055679,2024-06-05 16:52:46.146030
14.18603043,-5.468796253,0.4061816335,7.916055679,2024-06-05 16:52:46.186030
14.22603043,-5.468796253,0.4061816335,7.916055679,2024-06-05 16:52:46.226030
14.26603043,-5.468796253,0.4061816335,7.916055679,2024-06-05 16:52:46.266030
14.30603043,-5.468796253,0.4061816335,7.916055679,2024-06-05 16:52:46.306030
14.34603043,-5.468796253,0.4061816335,7.916055679,2024-06-05 16:52:46.346030
14.38603043,-5.468796253,0.4061816335,7.916055679,2024-06-05 16:52:46.386030
14.42603043,-5.468796253,0.4061816335,7.916055679,2024-06-05 16:52:46.426030
14.46603043,-5.468796253,0.4061816335,7.916055679,2024-06-05 16:52:46.466030
14.50603043,-5.468796253,0.4061816335,7.916055679,2024-06-05 16:52:46.506030
14.54603043,-5.468796253,0.4061816335,7.916055679,2024-06-05 16:52:46.546030
14.58603043,-5.468796253,0.4061816335,7.916055679,2024-06-05 16:52:46.586030
14.62603043,-5.468796253,0.4061816335,7.916055679,2024-06-05 16:52:46.626030
14.66603043,-5.624628544,0.09690931439,7.950751305,2024-06-05 16:52:46.666030
14.70603043,-5.617450237,0.08614161611,7.991429329,2024-06-05 16:52:46.706030
14.74603043,-5.601896763,0.1088734269,7.936394691,2024-06-05 16:52:46.746030
14.78603043,-5.661717415,-0.01196411345,7.972286701,2024-06-05 16:52:46.786030
14.82603043,-5.370690346,0.132801652,7.999804497,2024-06-05 16:52:46.826030
14.86603043,-5.670092583,0.1977069676,7.999804497,2024-06-05 16:52:46.866030
14.90603043,-5.528915882,0.2072782665,8.030911446,2024-06-05 16:52:46.906030
14.94603043,-5.528915882,0.2072782665,8.030911446,2024-06-05 16:52:46.946030
14.98603043,-5.528915882,0.2072782665,8.030911446,2024-06-05 16:52:46.986030
15.02603043,-5.528915882,0.2072782665,8.030911446,2024-06-05 16:52:47.026030
15.06603043,-5.528915882,0.2072782665,8.030911446,2024-06-05 16:52:47.066030
15.10603043,-5.528915882,0.2072782665,8.030911446,2024-06-05 16:52:47.106030
15.14603043,-5.528915882,0.2072782665,8.030911446,2024-06-05 16:52:47.146030
15.18603043,-5.528915882,0.2072782665,8.030911446,2024-06-05 16:52:47.186030
15.22603043,-5.528915882,0.2072782665,8.030911446,2024-06-05 16:52:47.226030
15.26603043,-5.528915882,0.2072782665,8.030911446,2024-06-05 16:52:47.266030
15.30603043,-5.528915882,0.2072782665,8.030911446,2024-06-05 16:52:47.306030
15.34603043,-5.528915882,0.2072782665,8.030911446,2024-06-05 16:52:47.346030
15.38603043,-5.528915882,0.2072782665,8.030911446,2024-06-05 16:52:47.386030
15.42603043,-5.528915882,0.2072782665,8.030911446,2024-06-05 16:52:47.426030
15.46603043,-5.528915882,0.2072782665,8.030911446,2024-06-05 16:52:47.466030
15.50603043,-5.528915882,0.2072782665,8.030911446,2024-06-05 16:52:47.506030
15.54603043,-5.528915882,0.2072782665,8.030911446,2024-06-05 16:52:47.546030
15.58603043,-5.528915882,0.2072782665,8.030911446,2024-06-05 16:52:47.586030
15.62603043,-5.528915882,0.2072782665,8.030911446,2024-06-05 16:52:47.626030
15.66603043,-5.092823982,0.1354935765,8.32791996,2024-06-05 16:52:47.666030
15.70603043,-5.092823982,0.1354935765,8.32791996,2024-06-05 16:52:47.706030
15.74603043,-5.092823982,0.1354935765,8.32791996,2024-06-05 16:52:47.746030
15.78603043,-5.092823982,0.1354935765,8.32791996,2024-06-05 16:52:47.786030
15.82603043,-5.092823982,0.1354935765,8.32791996,2024-06-05 16:52:47.826030
15.86603043,-5.092823982,0.1354935765,8.32791996,2024-06-05 16:52:47.866030
15.90603043,-4.824528694,0.07537391037,8.350651741,2024-06-05 16:52:47.906030
15.94603043,-4.824528694,0.07537391037,8.350651741,2024-06-05 16:52:47.946030
15.98603043,-4.824528694,0.07537391037,8.350651741,2024-06-05 16:52:47.986030
16.02603043,-4.824528694,0.07537391037,8.350651741,2024-06-05 16:52:48.026030
16.06603043,-4.824528694,0.07537391037,8.350651741,2024-06-05 16:52:48.066030
16.10603043,-4.824528694,0.07537391037,8.350651741,2024-06-05 16:52:48.106030
16.14603043,-4.824528694,0.07537391037,8.350651741,2024-06-05 16:52:48.146030
16.18603043,-4.824528694,0.07537391037,8.350651741,2024-06-05 16:52:48.186030
16.22603043,-4.824528694,0.07537391037,8.350651741,2024-06-05 16:52:48.226030
16.26603043,-4.824528694,0.07537391037,8.350651741,2024-06-05 16:52:48.266030
16.30603043,-5.257031441,0.1148554832,8.22383213,2024-06-05 16:52:48.306030
16.34603043,-5.022235394,0.1016949639,8.339883804,2024-06-05 16:52:48.346030
16.38603043,-5.129912853,0.2324029058,8.27767086,2024-06-05 16:52:48.386030
16.42603043,-5.328815937,0.03708875179,8.238189697,2024-06-05 16:52:48.426030
16.46603043,-5.08325243,0.2718844712,8.215457916,2024-06-05 16:52:48.466030
16.50603043,-5.435296535,0.2132603228,8.169993401,2024-06-05 16:52:48.506030
16.54603043,-5.249852657,0.1582254022,8.25254631,2024-06-05 16:52:48.546030
16.58603043,-4.967200756,0.1606182158,8.275278091,2024-06-05 16:52:48.586030
16.62603043,-4.967200756,0.1606182158,8.275278091,2024-06-05 16:52:48.626030
16.66603043,-5.194519043,0.2192423791,8.177172661,2024-06-05 16:52:48.666030
16.70603043,-5.194519043,0.2192423791,8.177172661,2024-06-05 16:52:48.706030
16.74603043,-5.194519043,0.2192423791,8.177172661,2024-06-05 16:52:48.746030
16.78603043,-5.194519043,0.2192423791,8.177172661,2024-06-05 16:52:48.786030
16.82603043,-5.194519043,0.2192423791,8.177172661,2024-06-05 16:52:48.826030
16.86603043,-5.194519043,0.2192423791,8.177172661,2024-06-05 16:52:48.866030
16.90603043,-5.229514122,0.1606182158,8.119445801,2024-06-05 16:52:48.906030
16.94603043,-5.229514122,0.1606182158,8.119445801,2024-06-05 16:52:48.946030
16.98603043,-5.229514122,0.1606182158,8.119445801,2024-06-05 16:52:48.986030
17.02603043,-5.229514122,0.1606182158,8.119445801,2024-06-05 16:52:49.026030
17.06603043,-5.229514122,0.1606182158,8.119445801,2024-06-05 16:52:49.066030
17.10603043,-5.229514122,0.1606182158,8.119445801,2024-06-05 16:52:49.106030
17.14603043,-5.229514122,0.1606182158,8.119445801,2024-06-05 16:52:49.146030
17.18603043,-5.229514122,0.1606182158,8.119445801,2024-06-05 16:52:49.186030
17.22603043,-5.229514122,0.1606182158,8.119445801,2024-06-05 16:52:49.226030
17.26603043,-5.229514122,0.1606182158,8.119445801,2024-06-05 16:52:49.266030
17.30603043,-5.229514122,0.1606182158,8.119445801,2024-06-05 16:52:49.306030
17.34603043,-5.229514122,0.1606182158,8.119445801,2024-06-05 16:52:49.346030
17.38603043,-5.229514122,0.1606182158,8.119445801,2024-06-05 16:52:49.386030
17.42603043,-5.229514122,0.1606182158,8.119445801,2024-06-05 16:52:49.426030
17.46603043,-5.229514122,0.1606182158,8.119445801,2024-06-05 16:52:49.466030
17.50603043,-5.229514122,0.1606182158,8.119445801,2024-06-05 16:52:49.506030
17.54603043,-5.229514122,0.1606182158,8.119445801,2024-06-05 16:52:49.546030
17.58603043,-5.229514122,0.1606182158,8.119445801,2024-06-05 16:52:49.586030
17.62603043,-5.229514122,0.1606182158,8.119445801,2024-06-05 16:52:49.626030
17.66603043,-5.229514122,0.1606182158,8.119445801,2024-06-05 16:52:49.666030
17.70603043,-5.229514122,0.1606182158,8.119445801,2024-06-05 16:52:49.706030
17.74603043,-5.229514122,0.1606182158,8.119445801,2024-06-05 16:52:49.746030
17.78603043,-5.229514122,0.1606182158,8.119445801,2024-06-05 16:52:49.786030
17.82603043,-5.229514122,0.1606182158,8.119445801,2024-06-05 16:52:49.826030
17.86603043,-5.229514122,0.1606182158,8.119445801,2024-06-05 16:52:49.866030
17.90603043,-5.229514122,0.1606182158,8.119445801,2024-06-05 16:52:49.906030
17.94603043,-5.229514122,0.1606182158,8.119445801,2024-06-05 16:52:49.946030
17.98603043,-5.237888813,0.1857428551,8.244171143,2024-06-05 16:52:49.986030
18.02603043,-5.146662235,0.195314154,8.235795975,2024-06-05 16:52:50.026030
18.06603043,-5.258227825,0.2300100774,8.177172661,2024-06-05 16:52:50.066030
18.10603043,-5.247459888,0.2252244353,8.196314812,2024-06-05 16:52:50.106030
18.14603043,-5.266602516,0.1220339537,8.20468998,2024-06-05 16:52:50.146030
18.18603043,-5.334797859,0.1510469317,8.235795975,2024-06-05 16:52:50.186030
18.22603043,-5.368297577,0.2898306549,8.090731621,2024-06-05 16:52:50.226030
18.26603043,-5.249852657,0.3460619748,8.173583031,2024-06-05 16:52:50.266030
18.30603043,-5.249852657,0.3460619748,8.173583031,2024-06-05 16:52:50.306030
18.34603043,-5.249852657,0.3460619748,8.173583031,2024-06-05 16:52:50.346030
18.38603043,-5.079663277,0.3376871049,8.142177582,2024-06-05 16:52:50.386030
18.42603043,-5.251049519,0.3831507266,7.936394691,2024-06-05 16:52:50.426030
18.46603043,-5.251049519,0.3831507266,7.936394691,2024-06-05 16:52:50.466030
18.50603043,-5.251049519,0.3831507266,7.936394691,2024-06-05 16:52:50.506030
18.54603043,-5.251049519,0.3831507266,7.936394691,2024-06-05 16:52:50.546030
18.58603043,-5.251049519,0.3831507266,7.936394691,2024-06-05 16:52:50.586030
18.62603043,-5.251049519,0.3831507266,7.936394691,2024-06-05 16:52:50.626030
18.66603043,-5.038985252,0.147457689,8.185546875,2024-06-05 16:52:50.666030
18.70603043,-5.038985252,0.147457689,8.185546875,2024-06-05 16:52:50.706030
18.74603043,-5.038985252,0.147457689,8.185546875,2024-06-05 16:52:50.746030
18.78603043,-5.038985252,0.147457689,8.185546875,2024-06-05 16:52:50.786030
18.82603043,-5.038985252,0.147457689,8.185546875,2024-06-05 16:52:50.826030
18.86603043,-5.038985252,0.147457689,8.185546875,2024-06-05 16:52:50.866030
18.90603043,-5.038985252,0.147457689,8.185546875,2024-06-05 16:52:50.906030
18.94603043,-5.038985252,0.147457689,8.185546875,2024-06-05 16:52:50.946030
18.98603043,-5.038985252,0.147457689,8.185546875,2024-06-05 16:52:50.986030
19.02603043,-5.038985252,0.147457689,8.185546875,2024-06-05 16:52:51.026030
19.06603043,-5.038985252,0.147457689,8.185546875,2024-06-05 16:52:51.066030
19.10603043,-5.038985252,0.147457689,8.185546875,2024-06-05 16:52:51.106030
19.14603043,-5.038985252,0.147457689,8.185546875,2024-06-05 16:52:51.146030
19.18603043,-5.038985252,0.147457689,8.185546875,2024-06-05 16:52:51.186030
19.22603043,-5.038985252,0.147457689,8.185546875,2024-06-05 16:52:51.226030
19.26603043,-5.038985252,0.147457689,8.185546875,2024-06-05 16:52:51.266030
19.30603043,-5.038985252,0.147457689,8.185546875,2024-06-05 16:52:51.306030
19.34603043,-5.038985252,0.147457689,8.185546875,2024-06-05 16:52:51.346030
19.38603043,-5.038985252,0.147457689,8.185546875,2024-06-05 16:52:51.386030
19.42603043,-5.038985252,0.147457689,8.185546875,2024-06-05 16:52:51.426030
19.46603043,-5.038985252,0.147457689,8.185546875,2024-06-05 16:52:51.466030
19.50603043,-5.038985252,0.147457689,8.185546875,2024-06-05 16:52:51.506030
19.54603043,-5.038985252,0.147457689,8.185546875,2024-06-05 16:52:51.546030
19.58603043,-5.038985252,0.147457689,8.185546875,2024-06-05 16:52:51.586030
19.62603043,-5.038985252,0.147457689,8.185546875,2024-06-05 16:52:51.626030
19.66603043,-4.92502737,0.2766701281,8.33150959,2024-06-05 16:52:51.666030
19.70603043,-5.406582832,0.3640081584,8.301599503,2024-06-05 16:52:51.706030
19.74603043,-5.199304581,0.08614161611,8.421239853,2024-06-05 16:52:51.746030
19.78603043,-5.107180595,-0.2455634177,8.605786324,2024-06-05 16:52:51.786030
19.82603043,-5.005486012,-0.3807578981,8.312366486,2024-06-05 16:52:51.826030
19.86603043,-4.929812908,0.02033899166,7.814061642,2024-06-05 16:52:51.866030
19.90603043,-4.62203598,0.06939185411,8.398508072,2024-06-05 16:52:51.906030
19.94603043,-4.62203598,0.06939185411,8.398508072,2024-06-05 16:52:51.946030
19.98603043,-4.62203598,0.06939185411,8.398508072,2024-06-05 16:52:51.986030
20.02603043,-4.62203598,0.06939185411,8.398508072,2024-06-05 16:52:52.026030
20.06603043,-4.62203598,0.06939185411,8.398508072,2024-06-05 16:52:52.066030
20.10603043,-4.62203598,0.06939185411,8.398508072,2024-06-05 16:52:52.106030
20.14603043,-4.62203598,0.06939185411,8.398508072,2024-06-05 16:52:52.146030
20.18603043,-4.62203598,0.06939185411,8.398508072,2024-06-05 16:52:52.186030
20.22603043,-4.62203598,0.06939185411,8.398508072,2024-06-05 16:52:52.226030
20.26603043,-4.62203598,0.06939185411,8.398508072,2024-06-05 16:52:52.266030
20.30603043,-4.62203598,0.06939185411,8.398508072,2024-06-05 16:52:52.306030
20.34603043,-4.62203598,0.06939185411,8.398508072,2024-06-05 16:52:52.346030
20.38603043,-4.62203598,0.06939185411,8.398508072,2024-06-05 16:52:52.386030
20.42603043,-4.62203598,0.06939185411,8.398508072,2024-06-05 16:52:52.426030
20.46603043,-4.62203598,0.06939185411,8.398508072,2024-06-05 16:52:52.466030
20.50603043,-4.62203598,0.06939185411,8.398508072,2024-06-05 16:52:52.506030
20.54603043,-4.62203598,0.06939185411,8.398508072,2024-06-05 16:52:52.546030
20.58603043,-4.62203598,0.06939185411,8.398508072,2024-06-05 16:52:52.586030
20.62603043,-4.62203598,0.06939185411,8.398508072,2024-06-05 16:52:52.626030
20.66603043,-4.62203598,0.06939185411,8.398508072,2024-06-05 16:52:52.666030
20.70603043,-4.62203598,0.06939185411,8.398508072,2024-06-05 16:52:52.706030
20.74603043,-4.62203598,0.06939185411,8.398508072,2024-06-05 16:52:52.746030
20.78603043,-4.62203598,0.06939185411,8.398508072,2024-06-05 16:52:52.786030
20.82603043,-4.62203598,0.06939185411,8.398508072,2024-06-05 16:52:52.826030
20.86603043,-4.62203598,0.06939185411,8.398508072,2024-06-05 16:52:52.866030
20.90603043,-4.62203598,0.06939185411,8.398508072,2024-06-05 16:52:52.906030
20.94603043,-4.62203598,0.06939185411,8.398508072,2024-06-05 16:52:52.946030
20.98603043,-4.62203598,0.06939185411,8.398508072,2024-06-05 16:52:52.986030
21.02603043,-4.62203598,0.06939185411,8.398508072,2024-06-05 16:52:53.026030
21.06603043,-4.62203598,0.06939185411,8.398508072,2024-06-05 16:52:53.066030
21.10603043,-4.62203598,0.06939185411,8.398508072,2024-06-05 16:52:53.106030
21.14603043,-4.62203598,0.06939185411,8.398508072,2024-06-05 16:52:53.146030
21.18603043,-4.62203598,0.06939185411,8.398508072,2024-06-05 16:52:53.186030
21.22603043,-4.62203598,0.06939185411,8.398508072,2024-06-05 16:52:53.226030
21.26603043,-4.62203598,0.06939185411,8.398508072,2024-06-05 16:52:53.266030
21.30603043,-5.221138954,0.2431706041,8.254939079,2024-06-05 16:52:53.306030
21.34603043,-5.144269466,0.2120639086,8.347063065,2024-06-05 16:52:53.346030
21.38603043,-5.169394016,0.2144567221,8.228617668,2024-06-05 16:52:53.386030
21.42603043,-5.158626556,0.1785643846,8.185546875,2024-06-05 16:52:53.426030
21.46603043,-5.159822941,0.2431706041,8.278866768,2024-06-05 16:52:53.466030
21.50603043,-5.16221571,0.2084746659,8.227421761,2024-06-05 16:52:53.506030
21.54603043,-5.104787827,0.2515454888,8.319544792,2024-06-05 16:52:53.546030
21.58603043,-5.155037403,0.2216351926,8.284849167,2024-06-05 16:52:53.586030
21.62603043,-5.155037403,0.2216351926,8.284849167,2024-06-05 16:52:53.626030
21.66603043,-5.094020367,0.2300100774,8.318348885,2024-06-05 16:52:53.666030
21.70603043,-5.094020367,0.2300100774,8.318348885,2024-06-05 16:52:53.706030
21.74603043,-5.094020367,0.2300100774,8.318348885,2024-06-05 16:52:53.746030
21.78603043,-5.094020367,0.2300100774,8.318348885,2024-06-05 16:52:53.786030
21.82603043,-5.094020367,0.2300100774,8.318348885,2024-06-05 16:52:53.826030
21.86603043,-5.094020367,0.2300100774,8.318348885,2024-06-05 16:52:53.866030
21.90603043,-5.094020367,0.2300100774,8.318348885,2024-06-05 16:52:53.906030
21.94603043,-5.094020367,0.2300100774,8.318348885,2024-06-05 16:52:53.946030
21.98603043,-5.094020367,0.2300100774,8.318348885,2024-06-05 16:52:53.986030
22.02603043,-5.094020367,0.2300100774,8.318348885,2024-06-05 16:52:54.026030
22.06603043,-5.094020367,0.2300100774,8.318348885,2024-06-05 16:52:54.066030
22.10603043,-5.094020367,0.2300100774,8.318348885,2024-06-05 16:52:54.106030
22.14603043,-5.128716469,0.2192423791,8.219046593,2024-06-05 16:52:54.146030
22.18603043,-5.128716469,0.2192423791,8.219046593,2024-06-05 16:52:54.186030
22.22603043,-5.128716469,0.2192423791,8.219046593,2024-06-05 16:52:54.226030
22.26603043,-5.128716469,0.2192423791,8.219046593,2024-06-05 16:52:54.266030
22.30603043,-5.128716469,0.2192423791,8.219046593,2024-06-05 16:52:54.306030
22.34603043,-5.128716469,0.2192423791,8.219046593,2024-06-05 16:52:54.346030
22.38603043,-5.128716469,0.2192423791,8.219046593,2024-06-05 16:52:54.386030
22.42603043,-5.128716469,0.2192423791,8.219046593,2024-06-05 16:52:54.426030
22.46603043,-5.128716469,0.2192423791,8.219046593,2024-06-05 16:52:54.466030
22.50603043,-5.128716469,0.2192423791,8.219046593,2024-06-05 16:52:54.506030
22.54603043,-5.128716469,0.2192423791,8.219046593,2024-06-05 16:52:54.546030
22.58603043,-5.128716469,0.2192423791,8.219046593,2024-06-05 16:52:54.586030
22.62603043,-5.128716469,0.2192423791,8.219046593,2024-06-05 16:52:54.626030
22.66603043,-5.128716469,0.2192423791,8.219046593,2024-06-05 16:52:54.666030
22.70603043,-5.128716469,0.2192423791,8.219046593,2024-06-05 16:52:54.706030
22.74603043,-5.128716469,0.2192423791,8.219046593,2024-06-05 16:52:54.746030
22.78603043,-5.128716469,0.2192423791,8.219046593,2024-06-05 16:52:54.786030
22.82603043,-5.128716469,0.2192423791,8.219046593,2024-06-05 16:52:54.826030
22.86603043,-5.128716469,0.2192423791,8.219046593,2024-06-05 16:52:54.866030
22.90603043,-5.129912853,0.2635096014,8.29920578,2024-06-05 16:52:54.906030
22.94603043,-5.129912853,0.2635096014,8.29920578,2024-06-05 16:52:54.946030
22.98603043,-5.167001247,0.2228316069,8.192725182,2024-06-05 16:52:54.986030
23.02603043,-5.278566837,0.2718844712,8.177172661,2024-06-05 16:52:55.026030
23.06603043,-5.143073082,0.2324029058,8.208278656,2024-06-05 16:52:55.066030
23.10603043,-5.242674351,0.2192423791,8.151748657,2024-06-05 16:52:55.106030
23.14603043,-5.316852093,0.2994019389,8.157731056,2024-06-05 16:52:55.146030
23.18603043,-5.257031441,0.3161516786,8.251349449,2024-06-05 16:52:55.186030
23.22603043,-5.284548759,0.2084746659,8.162815094,2024-06-05 16:52:55.226030
23.26603043,-5.167001247,0.318544507,8.260921478,2024-06-05 16:52:55.266030
23.30603043,-5.167001247,0.318544507,8.260921478,2024-06-05 16:52:55.306030
23.34603043,-5.167001247,0.318544507,8.260921478,2024-06-05 16:52:55.346030
23.38603043,-5.167001247,0.318544507,8.260921478,2024-06-05 16:52:55.386030
23.42603043,-5.367101192,0.2575275302,8.065607071,2024-06-05 16:52:55.426030
23.46603043,-5.367101192,0.2575275302,8.065607071,2024-06-05 16:52:55.466030
23.50603043,-5.367101192,0.2575275302,8.065607071,2024-06-05 16:52:55.506030
23.54603043,-5.367101192,0.2575275302,8.065607071,2024-06-05 16:52:55.546030
23.58603043,-5.367101192,0.2575275302,8.065607071,2024-06-05 16:52:55.586030
23.62603043,-5.367101192,0.2575275302,8.065607071,2024-06-05 16:52:55.626030
23.66603043,-5.181358337,0.3568296731,8.24895668,2024-06-05 16:52:55.666030
23.70603043,-5.181358337,0.3568296731,8.24895668,2024-06-05 16:52:55.706030
23.74603043,-5.181358337,0.3568296731,8.24895668,2024-06-05 16:52:55.746030
23.78603043,-5.181358337,0.3568296731,8.24895668,2024-06-05 16:52:55.786030
23.82603043,-5.181358337,0.3568296731,8.24895668,2024-06-05 16:52:55.826030
23.86603043,-5.181358337,0.3568296731,8.24895668,2024-06-05 16:52:55.866030
23.90603043,-5.181358337,0.3568296731,8.24895668,2024-06-05 16:52:55.906030
23.94603043,-5.181358337,0.3568296731,8.24895668,2024-06-05 16:52:55.946030
23.98603043,-5.181358337,0.3568296731,8.24895668,2024-06-05 16:52:55.986030
24.02603043,-5.181358337,0.3568296731,8.24895668,2024-06-05 16:52:56.026030
24.06603043,-5.181358337,0.3568296731,8.24895668,2024-06-05 16:52:56.066030
24.10603043,-5.181358337,0.3568296731,8.24895668,2024-06-05 16:52:56.106030
24.14603043,-5.181358337,0.3568296731,8.24895668,2024-06-05 16:52:56.146030
24.18603043,-5.181358337,0.3568296731,8.24895668,2024-06-05 16:52:56.186030
24.22603043,-5.181358337,0.3568296731,8.24895668,2024-06-05 16:52:56.226030
24.26603043,-5.181358337,0.3568296731,8.24895668,2024-06-05 16:52:56.266030
24.30603043,-5.181358337,0.3568296731,8.24895668,2024-06-05 16:52:56.306030
24.34603043,-5.181358337,0.3568296731,8.24895668,2024-06-05 16:52:56.346030
24.38603043,-5.181358337,0.3568296731,8.24895668,2024-06-05 16:52:56.386030
24.42603043,-5.181358337,0.3568296731,8.24895668,2024-06-05 16:52:56.426030
24.46603043,-5.181358337,0.3568296731,8.24895668,2024-06-05 16:52:56.466030
24.50603043,-5.181358337,0.3568296731,8.24895668,2024-06-05 16:52:56.506030
24.54603043,-5.181358337,0.3568296731,8.24895668,2024-06-05 16:52:56.546030
24.58603043,-5.181358337,0.3568296731,8.24895668,2024-06-05 16:52:56.586030
24.62603043,-5.181358337,0.3568296731,8.24895668,2024-06-05 16:52:56.626030
24.66603043,-5.328815937,0.432502687,8.040482521,2024-06-05 16:52:56.666030
24.70603043,-5.207679272,0.3017947674,8.145766258,2024-06-05 16:52:56.706030
24.74603043,-5.207679272,0.3017947674,8.145766258,2024-06-05 16:52:56.746030
24.78603043,-5.207679272,0.3017947674,8.145766258,2024-06-05 16:52:56.786030
24.82603043,-5.207679272,0.3017947674,8.145766258,2024-06-05 16:52:56.826030
24.86603043,-5.207679272,0.3017947674,8.145766258,2024-06-05 16:52:56.866030
24.90603043,-5.207679272,0.3017947674,8.145766258,2024-06-05 16:52:56.906030
24.94603043,-5.207679272,0.3017947674,8.145766258,2024-06-05 16:52:56.946030
24.98603043,-5.207679272,0.3017947674,8.145766258,2024-06-05 16:52:56.986030
25.02603043,-5.207679272,0.3017947674,8.145766258,2024-06-05 16:52:57.026030
25.06603043,-5.207679272,0.3017947674,8.145766258,2024-06-05 16:52:57.066030
25.10603043,-5.207679272,0.3017947674,8.145766258,2024-06-05 16:52:57.106030
25.14603043,-5.207679272,0.3017947674,8.145766258,2024-06-05 16:52:57.146030
25.18603043,-5.207679272,0.3017947674,8.145766258,2024-06-05 16:52:57.186030
25.22603043,-5.207679272,0.3017947674,8.145766258,2024-06-05 16:52:57.226030
25.26603043,-5.207679272,0.3017947674,8.145766258,2024-06-05 16:52:57.266030
25.30603043,-5.207679272,0.3017947674,8.145766258,2024-06-05 16:52:57.306030
25.34603043,-5.207679272,0.3017947674,8.145766258,2024-06-05 16:52:57.346030
25.38603043,-5.207679272,0.3017947674,8.145766258,2024-06-05 16:52:57.386030
25.42603043,-5.207679272,0.3017947674,8.145766258,2024-06-05 16:52:57.426030
25.46603043,-4.589733124,0.4660021961,8.325527191,2024-06-05 16:52:57.466030
25.50603043,-4.89631319,0.3412763178,8.397312164,2024-06-05 16:52:57.506030
25.54603043,-4.914259434,0.1689931005,8.548358917,2024-06-05 16:52:57.546030
25.58603043,-5.134698391,-0.7486543655,9.429815292,2024-06-05 16:52:57.586030
25.62603043,-4.728815556,0.03230310604,8.161319733,2024-06-05 16:52:57.626030
25.66603043,-4.968397141,-0.3771686554,8.272885323,2024-06-05 16:52:57.666030
25.70603043,-4.875974178,0.3221337497,8.174779892,2024-06-05 16:52:57.706030
25.74603043,-5.161019325,0.2276172489,8.484949112,2024-06-05 16:52:57.746030
25.78603043,-4.73001194,0.176171571,8.169993401,2024-06-05 16:52:57.786030
25.82603043,-4.84845686,0.1534397453,8.481359482,2024-06-05 16:52:57.826030
25.86603043,-4.971986294,-0.02153540403,8.320741653,2024-06-05 16:52:57.866030
25.90603043,-5.001896858,-0.03469592705,8.342276573,2024-06-05 16:52:57.906030
25.94603043,-4.626821518,0.347258389,8.429914474,2024-06-05 16:52:57.946030
25.98603043,-5.114359379,0.2838485837,8.390133858,2024-06-05 16:52:57.986030
26.02603043,-5.114359379,0.2838485837,8.390133858,2024-06-05 16:52:58.026030
26.06603043,-5.114359379,0.2838485837,8.390133858,2024-06-05 16:52:58.066030
26.10603043,-5.114359379,0.2838485837,8.390133858,2024-06-05 16:52:58.106030
26.14603043,-5.114359379,0.2838485837,8.390133858,2024-06-05 16:52:58.146030
26.18603043,-5.114359379,0.2838485837,8.390133858,2024-06-05 16:52:58.186030
26.22603043,-5.114359379,0.2838485837,8.390133858,2024-06-05 16:52:58.226030
26.26603043,-5.114359379,0.2838485837,8.390133858,2024-06-05 16:52:58.266030
26.30603043,-5.149055004,0.3508476317,8.38175869,2024-06-05 16:52:58.306030
26.34603043,-4.934598446,0.3101696372,8.414061546,2024-06-05 16:52:58.346030
26.38603043,-5.301298618,0.1654038578,8.20468998,2024-06-05 16:52:58.386030
26.42603043,-5.053342342,0.171385929,8.160123825,2024-06-05 16:52:58.426030
26.46603043,-5.174180031,0.176171571,8.227421761,2024-06-05 16:52:58.466030
26.50603043,-5.208875656,0.2144567221,8.189136505,2024-06-05 16:52:58.506030
26.54603043,-4.947759151,0.3053839803,8.309973717,2024-06-05 16:52:58.546030
26.58603043,-5.066503048,0.3783650696,8.37816906,2024-06-05 16:52:58.586030
26.62603043,-5.236692429,0.4085744619,8.258528709,2024-06-05 16:52:58.626030
26.66603043,-4.905884743,0.3819543123,8.547162056,2024-06-05 16:52:58.666030
26.70603043,-5.015057087,0.3340978622,8.256134987,2024-06-05 16:52:58.706030
26.74603043,-4.961218834,0.3652045429,8.382954597,2024-06-05 16:52:58.746030
26.78603043,-4.986343384,0.4624129832,8.208278656,2024-06-05 16:52:58.786030
26.82603043,-5.231906891,0.5126622319,8.220243454,2024-06-05 16:52:58.826030
26.86603043,-4.973182678,0.7079764009,8.113463402,2024-06-05 16:52:58.866030
26.90603043,-5.289334297,0.2180459648,8.553144455,2024-06-05 16:52:58.906030
26.94603043,-4.897509575,0.2647060156,8.321938515,2024-06-05 16:52:58.946030
26.98603043,-4.940580368,0.2850449979,8.305188179,2024-06-05 16:52:58.986030
27.02603043,-5.042574406,0.2718844712,8.294420242,2024-06-05 16:52:59.026030
27.06603043,-5.070092201,0.2623131871,8.278866768,2024-06-05 16:52:59.066030
27.10603043,-5.07248497,0.3005983531,8.228617668,2024-06-05 16:52:59.106030
27.14603043,-5.017449856,0.147457689,8.260921478,2024-06-05 16:52:59.146030
27.18603043,-4.957629204,-0.0466600433,8.398508072,2024-06-05 16:52:59.186030
27.22603043,-4.987539768,0.0933200866,8.27408123,2024-06-05 16:52:59.226030
27.26603043,-5.158626556,0.3412763178,8.262117386,2024-06-05 16:52:59.266030
27.30603043,-5.062913418,0.3771686554,8.241778374,2024-06-05 16:52:59.306030
27.34603043,-5.126323223,0.3173480928,8.284849167,2024-06-05 16:52:59.346030
27.38603043,-5.230710506,0.3735794425,8.293224335,2024-06-05 16:52:59.386030
27.42603043,-5.230710506,0.3735794425,8.293224335,2024-06-05 16:52:59.426030
27.46603043,-5.084448814,0.3101696372,8.286046028,2024-06-05 16:52:59.466030
27.50603043,-5.07248497,0.294616282,8.235795975,2024-06-05 16:52:59.506030
27.54603043,-5.126323223,0.3975076675,8.283653259,2024-06-05 16:52:59.546030
27.58603043,-5.00787878,0.2611167729,8.288438797,2024-06-05 16:52:59.586030
27.62603043,-5.00787878,0.2611167729,8.288438797,2024-06-05 16:52:59.626030
27.66603043,-5.144269466,0.3029911816,8.29920578,2024-06-05 16:52:59.666030
27.70603043,-5.064109802,0.3723830283,8.276473999,2024-06-05 16:52:59.706030
27.74603043,-5.184947491,0.3843471408,8.270492554,2024-06-05 16:52:59.746030
27.78603043,-5.077270508,0.323330164,8.241778374,2024-06-05 16:52:59.786030
27.82603043,-5.131109238,0.323330164,8.278866768,2024-06-05 16:52:59.826030
27.86603043,-5.236692429,0.2682952285,8.339883804,2024-06-05 16:52:59.866030
27.90603043,-5.056931496,0.3197409213,8.319544792,2024-06-05 16:52:59.906030
27.94603043,-5.242674351,0.2192423791,8.254939079,2024-06-05 16:52:59.946030
27.98603043,-5.110770226,0.1989033818,8.190332413,2024-06-05 16:52:59.986030
28.02603043,-4.915455818,0.2072782665,8.348258972,2024-06-05 16:53:00.026030
28.06603043,-4.901099205,0.1845464408,8.263314247,2024-06-05 16:53:00.066030
28.10603043,-4.884349346,0.1064806059,8.30279541,2024-06-05 16:53:00.106030
28.14603043,-5.030610561,0.1594218016,8.43589592,2024-06-05 16:53:00.146030
28.18603043,-4.93579483,0.2503490746,8.537590981,2024-06-05 16:53:00.186030
28.22603043,-5.193322659,0.2335993052,8.531609535,2024-06-05 16:53:00.226030
28.26603043,-5.031806946,0.1905284971,8.241778374,2024-06-05 16:53:00.266030
28.30603043,-5.141876698,0.1414756328,8.653642654,2024-06-05 16:53:00.306030
28.34603043,-4.690530777,0.7785646915,7.816454411,2024-06-05 16:53:00.346030
28.38603043,-5.068895817,0.7007979155,7.846364498,2024-06-05 16:53:00.386030
28.42603043,-4.280759811,0.7151548862,8.845368385,2024-06-05 16:53:00.426030
28.46603043,-5.631807327,-1.345065475,10.79282665,2024-06-05 16:53:00.466030
28.50603043,-6.278467655,-1.092323542,11.70808125,2024-06-05 16:53:00.506030
28.54603043,-5.907280922,-1.490130305,10.8047905,2024-06-05 16:53:00.546030
28.58603043,-4.555037022,-0.9667003751,10.05404282,2024-06-05 16:53:00.586030
28.62603043,-5.70000267,-0.8587242365,8.932705879,2024-06-05 16:53:00.626030
28.66603043,-4.559822559,-0.88504529,7.476374149,2024-06-05 16:53:00.666030
28.70603043,-4.462913513,-1.48295188,7.306184769,2024-06-05 16:53:00.706030
28.74603043,-5.027021408,-2.3201406,8.199904442,2024-06-05 16:53:00.746030
28.78603043,-4.543072701,-2.470888376,7.609176159,2024-06-05 16:53:00.786030
28.82603043,-2.926122904,-2.596810818,6.973283291,2024-06-05 16:53:00.826030
28.86603043,-3.276970625,-3.350250721,7.47398138,2024-06-05 16:53:00.866030
28.90603043,-3.399303675,-4.211368084,7.520641804,2024-06-05 16:53:00.906030
28.94603043,-3.002693415,-4.338187218,7.476374149,2024-06-05 16:53:00.946030
28.98603043,-3.040978432,-5.096413136,7.447660446,2024-06-05 16:53:00.986030
29.02603043,-2.82682085,-5.484349728,7.233203888,2024-06-05 16:53:01.026030
29.06603043,-2.708076954,-6.3373909,7.309773922,2024-06-05 16:53:01.066030
29.10603043,-2.46371007,-6.627221584,6.560222149,2024-06-05 16:53:01.106030
29.14603043,-2.734398127,-6.62243557,5.691627979,2024-06-05 16:53:01.146030
29.18603043,-2.091326952,-6.733702183,5.883352757,2024-06-05 16:53:01.186030
29.22603043,-1.821835399,-7.597211838,5.846263885,2024-06-05 16:53:01.226030
29.26603043,-1.814656854,-7.687242031,5.64616394,2024-06-05 16:53:01.266030
29.30603043,-1.534397483,-7.263113976,5.617450237,2024-06-05 16:53:01.306030
29.34603043,-1.897209287,-8.317152023,4.874777794,2024-06-05 16:53:01.346030
29.38603043,-1.897209287,-8.317152023,4.874777794,2024-06-05 16:53:01.386030
29.42603043,-1.897209287,-8.317152023,4.874777794,2024-06-05 16:53:01.426030
29.46603043,-1.897209287,-8.317152023,4.874777794,2024-06-05 16:53:01.466030
29.50603043,-1.897209287,-8.317152023,4.874777794,2024-06-05 16:53:01.506030
29.54603043,-1.897209287,-8.317152023,4.874777794,2024-06-05 16:53:01.546030
29.58603043,-1.897209287,-8.317152023,4.874777794,2024-06-05 16:53:01.586030
29.62603043,-1.897209287,-8.317152023,4.874777794,2024-06-05 16:53:01.626030
29.66603043,-1.897209287,-8.317152023,4.874777794,2024-06-05 16:53:01.666030
29.70603043,-1.069591761,-9.105288506,2.464906454,2024-06-05 16:53:01.706030
29.74603043,-0.7115656137,-9.462118149,2.426621199,2024-06-05 16:53:01.746030
29.78603043,-0.1989033818,-9.294620514,2.486441851,2024-06-05 16:53:01.786030
29.82603043,-0.8503493667,-9.583254814,2.000100613,2024-06-05 16:53:01.826030
29.86603043,-1.213460207,-9.494421005,1.717448473,2024-06-05 16:53:01.866030
29.90603043,-1.245763302,-9.717252731,1.53080833,2024-06-05 16:53:01.906030
29.94603043,-1.196411371,-9.711270332,1.371386528,2024-06-05 16:53:01.946030
29.98603043,-0.3544368446,-9.280263901,1.767996788,2024-06-05 16:53:01.986030
30.02603043,-0.3436691463,-9.870692253,1.388136268,2024-06-05 16:53:02.026030
30.06603043,-0.4097708762,-9.287442207,1.567897081,2024-06-05 16:53:02.066030
30.10603043,-1.015753269,-9.743574142,0.5533402562,2024-06-05 16:53:02.106030
30.14603043,-0.8012964725,-10.00110149,0.8898309469,2024-06-05 16:53:02.146030
30.18603043,-0.007178467698,-9.435796738,1.627717614,2024-06-05 16:53:02.186030
30.22603043,-0.566500783,-9.477671623,1.238584876,2024-06-05 16:53:02.226030
30.26603043,-0.7474579811,-9.704092026,0.4791627228,2024-06-05 16:53:02.266030
30.30603043,-0.5641079545,-9.753145218,1.33788693,2024-06-05 16:53:02.306030
30.34603043,-0.7079764009,-9.680164337,1.697109461,2024-06-05 16:53:02.346030
30.38603043,0.1124626622,-9.676574707,1.070788145,2024-06-05 16:53:02.386030
30.42603043,-0.176171571,-9.768997192,0.8659027219,2024-06-05 16:53:02.426030
30.46603043,-0.2407777756,-9.601201057,0.09571290761,2024-06-05 16:53:02.466030
30.50603043,0.1148554832,-9.812067986,0.308973223,2024-06-05 16:53:02.506030
30.54603043,0.4408775866,-9.531808853,1.197607756,2024-06-05 16:53:02.546030
30.58603043,-0.4025924206,-9.652647018,0.5353940725,2024-06-05 16:53:02.586030
30.62603043,-0.5641079545,-10.01186943,0.7211369276,2024-06-05 16:53:02.626030
30.66603043,0.1450648755,-9.728020668,0.7486543655,2024-06-05 16:53:02.666030
30.70603043,0.1280160099,-9.905388832,0.3568296731,2024-06-05 16:53:02.706030
30.74603043,-0.7007979155,-9.661021233,-0.2790629268,2024-06-05 16:53:02.746030
30.78603043,-1.279262781,-9.900602341,0.7570292354,2024-06-05 16:53:02.786030
30.82603043,-0.1268195957,-10.04088211,0.4923232496,2024-06-05 16:53:02.826030
30.86603043,1.130608678,-9.767501831,0.4600201547,2024-06-05 16:53:02.866030
30.90603043,0.2252244353,-9.943673134,0.9667003751,2024-06-05 16:53:02.906030
30.94603043,0.2252244353,-9.943673134,0.9667003751,2024-06-05 16:53:02.946030
30.98603043,0.2252244353,-9.943673134,0.9667003751,2024-06-05 16:53:02.986030
31.02603043,0.8383852243,-10.1282196,0.8264211416,2024-06-05 16:53:03.026030
31.06603043,0.8383852243,-10.1282196,0.8264211416,2024-06-05 16:53:03.066030
31.10603043,0.8383852243,-10.1282196,0.8264211416,2024-06-05 16:53:03.106030
31.14603043,0.8383852243,-10.1282196,0.8264211416,2024-06-05 16:53:03.146030
31.18603043,0.8383852243,-10.1282196,0.8264211416,2024-06-05 16:53:03.186030
31.22603043,0.8383852243,-10.1282196,0.8264211416,2024-06-05 16:53:03.226030
31.26603043,0.8383852243,-10.1282196,0.8264211416,2024-06-05 16:53:03.266030
31.30603043,-0.7462615371,-9.435796738,1.925923109,2024-06-05 16:53:03.306030
31.34603043,-0.5976074338,-9.88504982,3.011068106,2024-06-05 16:53:03.346030
31.38603043,0.008374879137,-10.01186943,5.343173027,2024-06-05 16:53:03.386030
31.42603043,0.5988038778,-9.574879646,4.032803535,2024-06-05 16:53:03.426030
31.46603043,0.5054838061,-9.735198975,2.746362209,2024-06-05 16:53:03.466030
31.50603043,0.2730808854,-8.59142971,1.694716692,2024-06-05 16:53:03.506030
31.54603043,-0.2551347017,-8.197511673,0.4660021961,2024-06-05 16:53:03.546030
31.58603043,0.8862416744,-8.409276009,2.104487419,2024-06-05 16:53:03.586030
31.62603043,0.3963112533,-8.799904823,2.445763826,2024-06-05 16:53:03.626030
31.66603043,0.6562315822,-9.667003632,3.042174816,2024-06-05 16:53:03.666030
31.70603043,1.807478428,-11.36889839,3.146561861,2024-06-05 16:53:03.706030
31.74603043,1.250548959,-9.442975044,4.741976261,2024-06-05 16:53:03.746030
31.78603043,1.237388372,-8.125427246,1.478166223,2024-06-05 16:53:03.786030
31.82603043,-0.3903291821,-9.869496346,1.03848505,2024-06-05 16:53:03.826030
31.86603043,1.4479568,-9.40229702,1.679163337,2024-06-05 16:53:03.866030
31.90603043,0.1486541033,-9.814460754,0.7366902828,2024-06-05 16:53:03.906030
31.94603043,-1.291226864,-10.3666048,-0.7414759398,2024-06-05 16:53:03.946030
31.98603043,-0.3137588799,-9.718449593,-2.000100613,2024-06-05 16:53:03.986030
32.02603043,-0.8766704202,-10.06720352,-1.305583835,2024-06-05 16:53:04.026030
32.06603043,-0.9269196987,-10.22991467,1.353440285,2024-06-05 16:53:04.066030
32.10603043,0.2515454888,-9.754341125,0.4923232496,2024-06-05 16:53:04.106030
32.14603043,0.08135596663,-9.522237778,-0.6358926296,2024-06-05 16:53:04.146030
32.18603043,-0.442073971,-9.932906151,-1.413260818,2024-06-05 16:53:04.186030
32.22603043,0.1965105534,-9.867103577,1.128215909,2024-06-05 16:53:04.226030
32.26603043,1.671984792,-9.444171906,1.851745605,2024-06-05 16:53:04.266030
32.30603043,0.6598208547,-9.033503532,-1.801496387,2024-06-05 16:53:04.306030
32.34603043,-1.03848505,-9.729216576,-0.4875376225,2024-06-05 16:53:04.346030
32.38603043,-0.003589233849,-9.714859962,-0.1654038578,2024-06-05 16:53:04.386030
32.42603043,0.5545366406,-9.862318039,0.1857428551,2024-06-05 16:53:04.426030
32.46603043,0.06939185411,-9.620343208,-0.02871387079,2024-06-05 16:53:04.466030
32.50603043,-0.8240283132,-10.04207802,-1.287637711,2024-06-05 16:53:04.506030
32.54603043,-0.8240283132,-10.04207802,-1.287637711,2024-06-05 16:53:04.546030
32.58603043,-0.8240283132,-10.04207802,-1.287637711,2024-06-05 16:53:04.586030
32.62603043,-0.8240283132,-10.04207802,-1.287637711,2024-06-05 16:53:04.626030
32.66603043,-2.153540373,-13.48415375,0.6622136831,2024-06-05 16:53:04.666030
32.70603043,2.760719061,-9.759127617,6.126523495,2024-06-05 16:53:04.706030
32.74603043,3.484248877,-9.69093132,-3.12383008,2024-06-05 16:53:04.746030
32.78603043,0.2838485837,-11.36889839,0.01196411345,2024-06-05 16:53:04.786030
32.82603043,-1.075573802,-11.55703449,-4.319045067,2024-06-05 16:53:04.826030
32.86603043,0.6406782866,-10.65523911,-1.313958764,2024-06-05 16:53:04.866030
32.90603043,-1.588235974,-10.33071232,0.3293122053,2024-06-05 16:53:04.906030
32.94603043,-0.7235297561,-8.539983749,-0.137886405,2024-06-05 16:53:04.946030
32.98603043,0.1546361595,-7.750651836,-0.5485545993,2024-06-05 16:53:04.986030
33.02603043,1.707877159,-6.407979012,-0.1100698411,2024-06-05 16:53:05.026030
33.06603043,2.45533514,-5.770890236,0.2790629268,2024-06-05 16:53:05.066030
33.10603043,1.62652123,-7.036693096,2.600399971,2024-06-05 16:53:05.106030
33.14603043,-2.251646042,-10.4168539,4.650749683,2024-06-05 16:53:05.146030
33.18603043,-3.127419233,-11.01805115,3.322434187,2024-06-05 16:53:05.186030
33.22603043,-3.986143351,-8.972486496,1.818246126,2024-06-05 16:53:05.226030
33.26603043,-2.996711254,-9.053842545,5.255835056,2024-06-05 16:53:05.266030
33.30603043,1.919941068,-13.00529003,-0.5820540786,2024-06-05 16:53:05.306030
33.34603043,-0.6478567123,-15.99841213,7.666903019,2024-06-05 16:53:05.346030
33.38603043,5.504987717,-3.450749397,-2.842374086,2024-06-05 16:53:05.386030
33.42603043,5.158626556,-4.078267097,-0.8395816684,2024-06-05 16:53:05.426030
33.46603043,7.182954311,-13.79701519,-3.343969584,2024-06-05 16:53:05.466030
33.50603043,-3.270988464,-12.77288723,-3.068495989,2024-06-05 16:53:05.506030
33.54603043,-1.89242363,-10.55803108,5.265406132,2024-06-05 16:53:05.546030
33.58603043,1.398903966,-9.325727463,0.2706880569,2024-06-05 16:53:05.586030
33.62603043,5.769693375,-8.021339417,-0.2060818523,2024-06-05 16:53:05.626030
33.66603043,2.418246269,-8.414061546,0.8216354847,2024-06-05 16:53:05.666030
33.70603043,-0.4145565331,-10.79761219,0.1232303679,2024-06-05 16:53:05.706030
33.74603043,0.9810572863,-9.515059471,-0.323330164,2024-06-05 16:53:05.746030
33.78603043,-1.5224334,-10.08754253,0.2252244353,2024-06-05 16:53:05.786030
33.82603043,-1.025324464,-12.42891884,-1.663609982,2024-06-05 16:53:05.826030
33.86603043,3.027817965,-11.88634682,-0.7821539044,2024-06-05 16:53:05.866030
33.90603043,3.515355587,-10.43599701,3.299702406,2024-06-05 16:53:05.906030
33.94603043,1.751247048,-9.347262383,1.258923769,2024-06-05 16:53:05.946030
33.98603043,1.386939883,-8.507680893,1.536790371,2024-06-05 16:53:05.986030
34.02603043,1.188036442,-9.074181557,3.818346739,2024-06-05 16:53:06.026030
34.06603043,1.991725802,-11.10927773,1.390529037,2024-06-05 16:53:06.066030
34.10603043,2.421835661,-11.73081303,-3.618546009,2024-06-05 16:53:06.106030
34.14603043,-0.4636093974,-10.1904335,0.1606182158,2024-06-05 16:53:06.146030
34.18603043,-0.6622136831,-9.293423653,0.931705296,2024-06-05 16:53:06.186030
34.22603043,-0.3891327679,-8.482556343,0.8623134494,2024-06-05 16:53:06.226030
34.26603043,-0.3891327679,-8.482556343,0.8623134494,2024-06-05 16:53:06.266030
34.30603043,1.162911773,-6.295516491,0.4743770957,2024-06-05 16:53:06.306030
34.34603043,2.445763826,-7.676474094,2.124826431,2024-06-05 16:53:06.346030
34.38603043,0.2264208496,-9.788140297,3.439981699,2024-06-05 16:53:06.386030
34.42603043,-0.6888338327,-10.16889763,6.672685146,2024-06-05 16:53:06.426030
34.46603043,-0.6888338327,-10.16889763,6.672685146,2024-06-05 16:53:06.466030
34.50603043,-0.6888338327,-10.16889763,6.672685146,2024-06-05 16:53:06.506030
34.54603043,-0.6888338327,-10.16889763,6.672685146,2024-06-05 16:53:06.546030
34.58603043,-0.6888338327,-10.16889763,6.672685146,2024-06-05 16:53:06.586030
34.62603043,3.26141715,-13.26042461,3.522534132,2024-06-05 16:53:06.626030
34.66603043,3.780061483,-4.703691006,-2.551347256,2024-06-05 16:53:06.666030
34.70603043,3.638885021,-6.157629967,-0.6275177598,2024-06-05 16:53:06.706030
34.74603043,1.737787485,-13.75125217,-3.262613773,2024-06-05 16:53:06.746030
34.78603043,-1.697109461,-9.923335075,2.606382132,2024-06-05 16:53:06.786030
34.82603043,1.081555843,-9.762716293,-0.1737787426,2024-06-05 16:53:06.826030
34.86603043,0.3987040818,-9.846764565,0.3843471408,2024-06-05 16:53:06.866030
34.90603043,0.4360919297,-9.784550667,0.8407780528,2024-06-05 16:53:06.906030
34.94603043,2.839981318,-8.906385422,-0.385543555,2024-06-05 16:53:06.946030
34.98603043,2.884248495,-8.303992271,-1.93190515,2024-06-05 16:53:06.986030
35.02603043,2.057827473,-9.250352859,0.05503492057,2024-06-05 16:53:07.026030
35.06603043,0.2240280211,-9.77378273,-0.1462612897,2024-06-05 16:53:07.066030
35.10603043,-0.4265206456,-10.67557812,0.4432703853,2024-06-05 16:53:07.106030
35.14603043,-0.3065803945,-11.45892811,1.567897081,2024-06-05 16:53:07.146030
35.18603043,1.398903966,-10.71625614,0.6732804775,2024-06-05 16:53:07.186030
35.22603043,0.1208375469,-12.86022568,0.941575706,2024-06-05 16:53:07.226030
35.26603043,-1.269691467,-12.64816093,3.499802113,2024-06-05 16:53:07.266030
35.30603043,1.113858938,-10.43121147,4.855635166,2024-06-05 16:53:07.306030
35.34603043,3.268595695,-10.37617588,-0.2144567221,2024-06-05 16:53:07.346030
35.38603043,5.504987717,-12.63858986,-3.51894474,2024-06-05 16:53:07.386030
35.42603043,1.306780219,-10.11745262,-0.2778665423,2024-06-05 16:53:07.426030
35.46603043,-0.5940182209,-10.9498558,0.1630110443,2024-06-05 16:53:07.466030
35.50603043,-0.1004985496,-8.517251968,-1.266102314,2024-06-05 16:53:07.506030
35.54603043,1.70548439,-5.55882597,0.4085744619,2024-06-05 16:53:07.546030
35.58603043,3.207578659,-5.723930836,0.03708875179,2024-06-05 16:53:07.586030
35.62603043,2.880659342,-5.239085197,0.8587242365,2024-06-05 16:53:07.626030
35.66603043,1.79671073,-7.180561543,2.54656148,2024-06-05 16:53:07.666030
35.70603043,-0.8934201598,-14.07727432,9.206983566,2024-06-05 16:53:07.706030
35.74603043,-1.263709426,-11.79422283,6.089434624,2024-06-05 16:53:07.746030
35.78603043,-0.2910270393,-7.252346516,6.104988098,2024-06-05 16:53:07.786030
35.82603043,6.881159782,-13.11296749,-3.679563046,2024-06-05 16:53:07.826030
35.86603043,0.9583254457,-14.31655693,10.82034397,2024-06-05 16:53:07.866030
35.90603043,3.444767237,-3.591925859,-4.939383984,2024-06-05 16:53:07.906030
35.94603043,3.628117323,-7.365108013,-1.441974759,2024-06-05 16:53:07.946030
35.98603043,-0.05264209956,-13.66630745,-9.1423769,2024-06-05 16:53:07.986030
36.02603043,-3.318845034,-10.3725872,11.76191998,2024-06-05 16:53:08.026030
36.06603043,1.301994562,-10.3725872,-1.992922187,2024-06-05 16:53:08.066030
36.10603043,1.301994562,-10.3725872,-1.992922187,2024-06-05 16:53:08.106030
36.14603043,1.301994562,-10.3725872,-1.992922187,2024-06-05 16:53:08.146030
36.18603043,1.301994562,-10.3725872,-1.992922187,2024-06-05 16:53:08.186030
36.22603043,1.301994562,-10.3725872,-1.992922187,2024-06-05 16:53:08.226030
36.26603043,1.301994562,-10.3725872,-1.992922187,2024-06-05 16:53:08.266030
36.30603043,0.6708876491,-10.24427223,5.906084538,2024-06-05 16:53:08.306030
36.34603043,-2.321336985,-11.6829567,-0.8730811477,2024-06-05 16:53:08.346030
36.38603043,-0.4492524564,-13.54905891,0.485144794,2024-06-05 16:53:08.386030
36.42603043,0.3448655605,-13.02443314,3.70588398,2024-06-05 16:53:08.426030
36.46603043,3.39212513,-10.86371422,5.908477306,2024-06-05 16:53:08.466030
36.50603043,5.496612549,-10.37737274,0.2371885478,2024-06-05 16:53:08.506030
36.54603043,7.271489143,-13.7548418,-3.511766434,2024-06-05 16:53:08.546030
36.58603043,2.177468538,-9.857531548,-2.175075769,2024-06-05 16:53:08.586030
36.62603043,-1.363011599,-10.99651527,-0.561715126,2024-06-05 16:53:08.626030
36.66603043,0.699601531,-7.932805061,0.4492524564,2024-06-05 16:53:08.666030
36.70603043,1.541576028,-5.689234734,-1.20867455,2024-06-05 16:53:08.706030
36.74603043,2.691327333,-4.818546772,-0.2168495506,2024-06-05 16:53:08.746030
36.78603043,3.037389278,-4.856831551,0.4169493318,2024-06-05 16:53:08.786030
36.78603043,2.691327333,-4.818546772,-0.2168495506,2024-06-05 16:53:08.786030
36.86603043,0.9197412133,-12.03739357,8.700602531,2024-06-05 16:53:08.866030
36.90603043,-1.534397483,-12.5560379,8.532805443,2024-06-05 16:53:08.906030
36.94603043,0.751047194,-9.734002113,5.760122299,2024-06-05 16:53:08.946030
36.98603043,6.083452702,-11.49123192,-0.1244267747,2024-06-05 16:53:08.986030
37.02603043,3.889234066,-13.29990673,2.104487419,2024-06-05 16:53:09.026030
37.06603043,2.210968018,-5.358726501,-3.448356628,2024-06-05 16:53:09.066030
37.10603043,3.013461113,-5.33240509,-2.600399971,2024-06-05 16:53:09.106030
37.14603043,1.879263043,-13.81974697,-8.087141991,2024-06-05 16:53:09.146030
37.18603043,-3.008675337,-10.7677021,11.45653534,2024-06-05 16:53:09.186030
37.22603043,0.3161516786,-10.72821999,-2.188236237,2024-06-05 16:53:09.226030
37.26603043,2.249253273,-8.894420624,1.542772412,2024-06-05 16:53:09.266030
37.30603043,2.596810818,-9.040681839,0.8922237158,2024-06-05 16:53:09.306030
37.34603043,1.585843205,-8.368597984,-1.424028635,2024-06-05 16:53:09.346030
37.38603043,0.78095752,-8.875278473,-2.884248495,2024-06-05 16:53:09.386030
37.42603043,1.916351795,-10.02263641,-0.4983053207,2024-06-05 16:53:09.426030
37.46603043,1.192822099,-9.888638496,5.145465851,2024-06-05 16:53:09.466030
37.50603043,-2.185843468,-11.24327564,-1.076770186,2024-06-05 16:53:09.506030
37.54603043,-0.4743770957,-12.0792675,0.4779663086,2024-06-05 16:53:09.546030
37.58603043,-0.6334998012,-14.22562981,1.231406331,2024-06-05 16:53:09.586030
37.62603043,0.2718844712,-12.26620674,5.997011662,2024-06-05 16:53:09.626030
37.66603043,4.483252525,-9.822835922,-0.941575706,2024-06-05 16:53:09.666030
37.70603043,6.75284481,-13.35494137,-0.6011967063,2024-06-05 16:53:09.706030
37.74603043,1.685145378,-11.0994072,-3.826721668,2024-06-05 16:53:09.746030
37.78603043,1.685145378,-11.0994072,-3.826721668,2024-06-05 16:53:09.786030
37.82603043,1.685145378,-11.0994072,-3.826721668,2024-06-05 16:53:09.826030
37.86603043,1.685145378,-11.0994072,-3.826721668,2024-06-05 16:53:09.866030
37.90603043,1.085145116,-5.865406513,-0.0239282269,2024-06-05 16:53:09.906030
37.94603043,1.476969719,-5.394618511,-0.1450648755,2024-06-05 16:53:09.946030
37.98603043,2.344068766,-5.222335339,0.442073971,2024-06-05 16:53:09.986030
38.02603043,2.063809633,-8.169993401,3.448356628,2024-06-05 16:53:10.026030
38.06603043,1.879263043,-10.39890766,7.445267677,2024-06-05 16:53:10.066030
38.10603043,-1.237388372,-10.65045357,6.171987057,2024-06-05 16:53:10.106030
38.14603043,0.8766704202,-12.53210926,8.131409645,2024-06-05 16:53:10.146030
38.18603043,5.182554722,-11.54506969,2.38474679,2024-06-05 16:53:10.186030
38.22603043,5.804389477,-13.03041458,-0.06460621208,2024-06-05 16:53:10.226030
38.26603043,1.919941068,-5.668895721,1.218245864,2024-06-05 16:53:10.266030
38.30603043,3.865006685,-4.679463863,-3.396910906,2024-06-05 16:53:10.306030
38.34603043,1.549950838,-13.42074394,-3.159722328,2024-06-05 16:53:10.346030
38.38603043,-1.597807288,-10.97737312,-2.903391123,2024-06-05 16:53:10.386030
38.42603043,0.2575275302,-10.63968563,6.274878502,2024-06-05 16:53:10.426030
38.46603043,1.071984529,-9.40947628,-0.1136590764,2024-06-05 16:53:10.466030
38.50603043,2.242074728,-9.256335258,-0.2431706041,2024-06-05 16:53:10.506030
38.54603043,2.017149448,-8.954241753,-0.3592225015,2024-06-05 16:53:10.546030
38.58603043,1.272084355,-8.848957062,-1.818246126,2024-06-05 16:53:10.586030
38.62603043,0.399900496,-8.899206161,-1.633699656,2024-06-05 16:53:10.626030
38.66603043,-0.1028913707,-9.774979591,-1.085145116,2024-06-05 16:53:10.666030
38.70603043,0.6526423693,-10.11625576,0.8730811477,2024-06-05 16:53:10.706030
38.74603043,-0.1160518974,-10.54008484,2.385943174,2024-06-05 16:53:10.746030
38.78603043,-0.485144794,-11.29113197,-1.003789067,2024-06-05 16:53:10.786030
38.82603043,1.528415442,-10.27298546,0.1244267747,2024-06-05 16:53:10.826030
38.86603043,0.171385929,-14.12991714,2.264806747,2024-06-05 16:53:10.866030
38.90603043,0.1558325738,-12.05773258,6.599703789,2024-06-05 16:53:10.906030
38.94603043,3.895216227,-9.141180992,-0.1881356835,2024-06-05 16:53:10.946030
38.98603043,3.895216227,-9.141180992,-0.1881356835,2024-06-05 16:53:10.986030
39.02603043,3.895216227,-9.141180992,-0.1881356835,2024-06-05 16:53:11.026030
39.06603043,-0.1941177398,-10.79761219,0.003589233849,2024-06-05 16:53:11.066030
39.10603043,-0.4109672904,-9.629914284,-0.6215356588,2024-06-05 16:53:11.106030
39.14603043,-0.4109672904,-9.629914284,-0.6215356588,2024-06-05 16:53:11.146030
39.18603043,0.7115656137,-6.53958416,-0.2240280211,2024-06-05 16:53:11.186030
39.22603043,2.103291035,-5.58754015,-0.1208375469,2024-06-05 16:53:11.226030
39.26603043,2.335694075,-5.25942421,0.4731806815,2024-06-05 16:53:11.266030
39.30603043,1.490130305,-8.707780838,3.312862873,2024-06-05 16:53:11.306030
39.34603043,0.6514459848,-12.16899872,8.726922989,2024-06-05 16:53:11.346030
39.38603043,-3.727419376,-12.45793152,8.822636604,2024-06-05 16:53:11.386030
39.42603043,1.287637711,-10.07916737,5.243870735,2024-06-05 16:53:11.426030
39.46603043,4.931009293,-13.14048481,-0.03469592705,2024-06-05 16:53:11.466030
39.50603043,2.292623281,-7.433303356,1.909173369,2024-06-05 16:53:11.506030
39.54603043,2.292623281,-7.433303356,1.909173369,2024-06-05 16:53:11.546030
39.58603043,2.11046958,-10.13659477,-1.576271892,2024-06-05 16:53:11.586030
39.62603043,1.936690807,-10.76291656,-4.140480518,2024-06-05 16:53:11.626030
39.66603043,2.094916344,-10.134202,8.895617485,2024-06-05 16:53:11.666030
39.70603043,-0.7199404836,-10.9809618,-1.967797518,2024-06-05 16:53:11.706030
39.74603043,-1.16769743,-10.69950676,-0.1725823283,2024-06-05 16:53:11.746030
39.78603043,1.922333837,-9.037093163,0.5569294691,2024-06-05 16:53:11.786030
39.82603043,3.322434187,-8.909974098,0.4205385745,2024-06-05 16:53:11.826030
39.86603043,1.500898004,-8.814261436,-1.161715388,2024-06-05 16:53:11.866030
39.90603043,0.4241278172,-9.478867531,-1.676770449,2024-06-05 16:53:11.906030
39.94603043,0.3640081584,-10.28016472,0.3903291821,2024-06-05 16:53:11.946030
39.98603043,-0.7462615371,-9.516255379,3.509373426,2024-06-05 16:53:11.986030
40.02603043,-1.559522152,-10.37617588,-1.563111424,2024-06-05 16:53:12.026030
40.06603043,0.8072785139,-11.34855938,-1.396511078,2024-06-05 16:53:12.066030
40.10603043,1.74047935,-13.26042461,-2.268395901,2024-06-05 16:53:12.106030
40.14603043,2.079362869,-12.34277725,5.613861084,2024-06-05 16:53:12.146030
40.18603043,4.110570431,-10.91276646,4.785047054,2024-06-05 16:53:12.186030
40.22603043,4.241278172,-7.496713161,5.120341301,2024-06-05 16:53:12.226030
40.26603043,4.860421181,-11.18584728,-1.26490593,2024-06-05 16:53:12.266030
40.30603043,3.116651535,-12.03739357,-4.659124851,2024-06-05 16:53:12.306030
40.34603043,0.7091727853,-10.08156013,0.1184447184,2024-06-05 16:53:12.346030
40.38603043,-0.4552344978,-9.007183075,0.5545366406,2024-06-05 16:53:12.386030
40.42603043,1.095912814,-6.552744865,1.085145116,2024-06-05 16:53:12.426030
40.42603043,1.095912814,-6.552744865,1.085145116,2024-06-05 16:53:12.426030
40.50603043,2.400300264,-5.87258482,0.7606185079,2024-06-05 16:53:12.506030
40.54603043,1.813460469,-8.388936996,2.267199516,2024-06-05 16:53:12.546030
40.58603043,0.994217813,-9.298210144,3.480659723,2024-06-05 16:53:12.586030
40.62603043,-0.8180462122,-10.57268715,8.071588516,2024-06-05 16:53:12.626030
40.66603043,-3.287738323,-13.31546021,8.689535141,2024-06-05 16:53:12.666030
40.70603043,3.129812002,-9.7196455,2.824428082,2024-06-05 16:53:12.706030
40.74603043,4.92143774,-13.39801216,-0.9269196987,2024-06-05 16:53:12.746030
40.78603043,2.184647083,-7.628617764,0.3664009571,2024-06-05 16:53:12.786030
40.82603043,1.622931957,-6.416353703,-0.8132606149,2024-06-05 16:53:12.826030
40.86603043,1.773978829,-9.338887215,-1.136590719,2024-06-05 16:53:12.866030
40.90603043,4.654339314,-8.978468895,0.3831507266,2024-06-05 16:53:12.906030
40.94603043,1.003789067,-10.06241703,0.2982055247,2024-06-05 16:53:12.946030
40.98603043,1.003789067,-10.06241703,0.2982055247,2024-06-05 16:53:12.986030
41.02603043,1.003789067,-10.06241703,0.2982055247,2024-06-05 16:53:13.026030
41.06603043,1.003789067,-10.06241703,0.2982055247,2024-06-05 16:53:13.066030
41.10603043,1.003789067,-10.06241703,0.2982055247,2024-06-05 16:53:13.106030
41.14603043,1.003789067,-10.06241703,0.2982055247,2024-06-05 16:53:13.146030
41.18603043,1.003789067,-10.06241703,0.2982055247,2024-06-05 16:53:13.186030
41.22603043,0.751047194,-9.56770134,-0.9065806866,2024-06-05 16:53:13.226030
41.22603043,0.751047194,-9.56770134,-0.9065806866,2024-06-05 16:53:13.226030
41.30603043,-0.05623133108,-9.74477005,0.5114658475,2024-06-05 16:53:13.306030
41.34603043,-0.3891327679,-10.00708294,-0.3017947674,2024-06-05 16:53:13.346030
41.38603043,-0.5557330847,-10.07318497,-0.1917249113,2024-06-05 16:53:13.386030
41.42603043,0.2706880569,-10.25025368,-0.4779663086,2024-06-05 16:53:13.426030
41.46603043,1.282852054,-10.61815071,-1.165304661,2024-06-05 16:53:13.466030
41.50603043,-0.8383852243,-13.31665611,-0.9340981245,2024-06-05 16:53:13.506030
41.54603043,0.1666002721,-12.16540909,2.365604401,2024-06-05 16:53:13.546030
41.58603043,4.29750967,-11.34377384,8.602197647,2024-06-05 16:53:13.586030
41.62603043,4.592125893,-8.474181175,-4.291527271,2024-06-05 16:53:13.626030
41.66603043,4.429413795,-11.31386375,-1.401296735,2024-06-05 16:53:13.666030
41.70603043,4.707280159,-12.44596767,-5.230710506,2024-06-05 16:53:13.706030
41.74603043,1.664806366,-10.62772179,-0.9379864931,2024-06-05 16:53:13.746030
41.78603043,-1.671984792,-9.628718376,2.660220623,2024-06-05 16:53:13.786030
41.82603043,0.1630110443,-6.578168392,0.8001000881,2024-06-05 16:53:13.826030
41.86603043,2.556132793,-5.733502388,0.2060818523,2024-06-05 16:53:13.866030
41.90603043,2.318944216,-5.443671703,0.2395813614,2024-06-05 16:53:13.906030
41.94603043,1.506880045,-6.53958416,1.731805444,2024-06-05 16:53:13.946030
41.98603043,0.2000997961,-8.983254433,4.586143494,2024-06-05 16:53:13.986030
42.02603043,0.8359923959,-10.32353401,7.816454411,2024-06-05 16:53:14.026030
42.06603043,-6.773183823,-14.22562981,9.936494827,2024-06-05 16:53:14.066030
42.10603043,2.219342947,-7.13509798,4.214957237,2024-06-05 16:53:14.106030
42.14603043,6.832107067,-13.13809204,-1.615753531,2024-06-05 16:53:14.146030
42.18603043,3.499802113,-10.98215866,1.137787223,2024-06-05 16:53:14.186030
42.22603043,2.469691992,-4.920241356,-0.5712863803,2024-06-05 16:53:14.226030
42.26603043,3.567997694,-6.518048763,-0.8371888399,2024-06-05 16:53:14.266030
42.30603043,2.535494804,-13.28794193,-2.966800928,2024-06-05 16:53:14.306030
42.34603043,-2.177468538,-9.850353241,1.156929731,2024-06-05 16:53:14.346030
42.38603043,-0.698405087,-10.56161976,-2.218146563,2024-06-05 16:53:14.386030
42.42603043,-0.4384847581,-10.4216404,0.7319046259,2024-06-05 16:53:14.426030
42.46603043,2.243271112,-9.118449211,0.4265206456,2024-06-05 16:53:14.466030
42.50603043,2.716451883,-8.556734085,-0.537786901,2024-06-05 16:53:14.506030
42.54603043,1.185643673,-9.051449776,-0.09212367237,2024-06-05 16:53:14.546030
42.58603043,-0.5485545993,-9.332905769,-1.392921925,2024-06-05 16:53:14.586030
42.62603043,0.0765703246,-10.1832552,-0.7905287743,2024-06-05 16:53:14.626030
42.66603043,0.2754737139,-9.614361763,3.662813187,2024-06-05 16:53:14.666030
42.70603043,-1.428814173,-10.99531937,-1.624128342,2024-06-05 16:53:14.706030
42.74603043,-0.7151548862,-12.52612782,-1.87567389,2024-06-05 16:53:14.746030
42.78603043,-0.9221340418,-14.02074432,-0.03110669367,2024-06-05 16:53:14.786030
42.82603043,3.107080221,-11.93928814,5.389832973,2024-06-05 16:53:14.826030
42.86603043,5.240281582,-9.904191971,6.27966404,2024-06-05 16:53:14.866030
42.90603043,5.491827011,-9.011968613,4.938187599,2024-06-05 16:53:14.906030
42.94603043,3.952643871,-11.46969604,-0.8886345029,2024-06-05 16:53:14.946030
42.98603043,4.386044025,-12.14507008,-4.159922123,2024-06-05 16:53:14.986030
43.02603043,1.599003673,-10.10788059,0.08614161611,2024-06-05 16:53:15.026030
43.06603043,-1.450349569,-9.87787056,0.4289134443,2024-06-05 16:53:15.066030
43.10603043,0.2120639086,-6.678667068,0.8814560175,2024-06-05 16:53:15.106030
43.14603043,1.38574338,-5.702395439,-0.3281157911,2024-06-05 16:53:15.146030
43.18603043,3.080759048,-5.070092201,-0.4612165689,2024-06-05 16:53:15.186030
43.22603043,2.397907495,-6.74925518,1.098305583,2024-06-05 16:53:15.226030
43.26603043,0.7737790346,-9.463314056,3.84706068,2024-06-05 16:53:15.266030
43.30603043,-0.6792625189,-11.91057396,10.43360424,2024-06-05 16:53:15.306030
43.34603043,-1.624128342,-12.77408409,7.366304398,2024-06-05 16:53:15.346030
43.38603043,5.064109802,-12.22433281,3.937090635,2024-06-05 16:53:15.386030
43.42603043,5.747859001,-11.98355484,-1.087537885,2024-06-05 16:53:15.426030
43.46603043,5.747859001,-11.98355484,-1.087537885,2024-06-05 16:53:15.466030
43.50603043,2.528316259,-6.663113594,-1.670788407,2024-06-05 16:53:15.506030
43.54603043,1.333101273,-12.14985561,-4.153940201,2024-06-05 16:53:15.546030
43.58603043,-0.7486543655,-10.31755257,2.366800785,2024-06-05 16:53:15.586030
43.62603043,-1.551147223,-11.16790104,0.3161516786,2024-06-05 16:53:15.626030
43.66603043,0.8647062778,-9.895816803,0.936490953,2024-06-05 16:53:15.666030
43.70603043,1.66600275,-9.002396584,0.832403183,2024-06-05 16:53:15.706030
43.74603043,2.559721947,-8.544769287,-0.2395813614,2024-06-05 16:53:15.746030
43.78603043,1.107876897,-9.348459244,-1.016949654,2024-06-05 16:53:15.786030
43.82603043,0.01555334684,-9.655039787,-0.06939185411,2024-06-05 16:53:15.826030
43.86603043,0.6490531564,-9.993923187,-0.5425725579,2024-06-05 16:53:15.866030
43.90603043,0.2335993052,-9.271888733,2.586043119,2024-06-05 16:53:15.906030
43.94603043,-0.6526423693,-10.22632599,-0.009571290575,2024-06-05 16:53:15.946030
43.98603043,-0.7773682475,-12.89731407,-3.308077335,2024-06-05 16:53:15.986030
44.02603043,2.43021059,-13.76680565,-0.1160518974,2024-06-05 16:53:16.026030
44.06603043,4.922634602,-11.31745243,7.584051132,2024-06-05 16:53:16.066030
44.10603043,4.380061626,-9.28265667,1.607378602,2024-06-05 16:53:16.106030
44.14603043,4.700101852,-9.068199158,0.6936194897,2024-06-05 16:53:16.146030
44.18603043,5.976672649,-12.12951756,-3.780061483,2024-06-05 16:53:16.186030
44.22603043,1.280459166,-10.00708294,-2.236092806,2024-06-05 16:53:16.226030
44.26603043,0.8934201598,-9.655039787,0.05742774159,2024-06-05 16:53:16.266030
44.30603043,0.5341976285,-7.242774963,0.7941179872,2024-06-05 16:53:16.306030
44.34603043,1.6181463,-5.785246849,0.01674975827,2024-06-05 16:53:16.346030
44.38603043,1.985743642,-5.775675774,0.727118969,2024-06-05 16:53:16.386030
44.42603043,2.073380709,-7.000801086,2.641077995,2024-06-05 16:53:16.426030
44.46603043,0.6502495408,-8.665607452,2.306980133,2024-06-05 16:53:16.466030
44.50603043,0.5521438122,-10.60259724,7.433303356,2024-06-05 16:53:16.506030
44.54603043,0.5521438122,-10.60259724,7.433303356,2024-06-05 16:53:16.546030
44.58603043,-1.22542429,-12.20877934,6.233004093,2024-06-05 16:53:16.586030
44.62603043,6.303891182,-15.57548046,3.400500059,2024-06-05 16:53:16.626030
44.66603043,4.855635166,-5.974279881,0.1677966863,2024-06-05 16:53:16.666030
44.70603043,2.86032033,-4.577768803,-3.975375652,2024-06-05 16:53:16.706030
44.74603043,3.323630571,-7.820043564,-1.717448473,2024-06-05 16:53:16.746030
44.78603043,3.259024382,-12.98495102,-7.693223953,2024-06-05 16:53:16.786030
44.82603043,-2.705684185,-10.61815071,8.056035995,2024-06-05 16:53:16.826030
44.86603043,0.1366899908,-10.42642593,-4.513162613,2024-06-05 16:53:16.866030
44.90603043,0.1148554832,-9.858728409,0.01316052489,2024-06-05 16:53:16.906030
44.94603043,2.714059114,-8.850153923,1.318744421,2024-06-05 16:53:16.946030
44.98603043,3.326023579,-8.870492935,2.443371058,2024-06-05 16:53:16.986030
45.02603043,0.2359921336,-9.175876617,-2.066202402,2024-06-05 16:53:17.026030
45.06603043,-0.8479565382,-10.42522907,-2.139183521,2024-06-05 16:53:17.066030
45.10603043,-0.2264208496,-9.828818321,3.119044304,2024-06-05 16:53:17.106030
45.14603043,-1.137787223,-10.3666048,1.396511078,2024-06-05 16:53:17.146030
45.18603043,-1.112662554,-11.93210888,-2.564507723,2024-06-05 16:53:17.186030
45.22603043,2.893819809,-13.47936821,-2.001296997,2024-06-05 16:53:17.226030
45.26603043,5.804389477,-10.78205872,5.42572546,2024-06-05 16:53:17.266030
45.30603043,5.804389477,-10.78205872,5.42572546,2024-06-05 16:53:17.306030
45.34603043,5.804389477,-10.78205872,5.42572546,2024-06-05 16:53:17.346030
45.38603043,4.835296154,-10.78564835,-4.479662895,2024-06-05 16:53:17.386030
45.42603043,1.022931695,-11.15952682,-0.7019943595,2024-06-05 16:53:17.426030
45.46603043,-0.1510469317,-8.966505051,0.3975076675,2024-06-05 16:53:17.466030
45.50603043,0.9499505758,-6.932605267,0.5760720372,2024-06-05 16:53:17.506030
45.54603043,1.461117268,-6.315855503,0.1821536273,2024-06-05 16:53:17.546030
45.58603043,1.583450437,-5.775675774,0.147457689,2024-06-05 16:53:17.586030
45.62603043,0.7654041648,-8.994022369,1.577468276,2024-06-05 16:53:17.626030
45.66603043,0.1004985496,-12.52253819,3.359822035,2024-06-05 16:53:17.666030
45.70603043,-1.237388372,-11.22054386,12.5057888,2024-06-05 16:53:17.706030
45.74603043,2.908176899,-12.11157131,1.645663738,2024-06-05 16:53:17.746030
45.78603043,3.425624609,-10.46351433,-1.098305583,2024-06-05 16:53:17.786030
45.82603043,2.266003132,-6.903891563,-1.232602715,2024-06-05 16:53:17.826030
45.86603043,0.7127620578,-8.313563347,-1.85892415,2024-06-05 16:53:17.866030
45.90603043,2.279462576,-9.990333557,0.3257229924,2024-06-05 16:53:17.906030
45.94603043,2.586043119,-11.0431757,1.200000525,2024-06-05 16:53:17.946030
45.98603043,0.07178468257,-10.40608692,-0.2730808854,2024-06-05 16:53:17.986030
46.02603043,0.6287141442,-9.916155815,1.110269666,2024-06-05 16:53:18.026030
46.06603043,1.918744683,-9.21535778,-1.516451359,2024-06-05 16:53:18.066030
46.10603043,2.528316259,-9.033503532,1.165304661,2024-06-05 16:53:18.106030
46.14603043,0.2132603228,-10.01545811,-0.6155536175,2024-06-05 16:53:18.146030
46.18603043,0.4360919297,-9.623932838,-1.793121457,2024-06-05 16:53:18.186030
46.22603043,0.7295117974,-9.809675217,-0.7342974544,2024-06-05 16:53:18.226030
46.26603043,1.231406331,-10.03729248,0.8730811477,2024-06-05 16:53:18.266030
46.30603043,1.622931957,-9.742377281,0.8587242365,2024-06-05 16:53:18.306030
46.34603043,0.7402794957,-9.972387314,-1.775175333,2024-06-05 16:53:18.346030
46.38603043,-1.36899364,-10.64088249,-1.583450437,2024-06-05 16:53:18.386030
46.42603043,1.627717614,-9.680164337,-1.209870934,2024-06-05 16:53:18.426030
46.46603043,1.957029819,-8.973683357,-0.03469592705,2024-06-05 16:53:18.466030
46.50603043,1.700698733,-9.440582275,-0.2431706041,2024-06-05 16:53:18.506030
46.54603043,1.340279818,-9.766305923,-0.9858429432,2024-06-05 16:53:18.546030
46.58603043,1.451546073,-9.614361763,-1.000199914,2024-06-05 16:53:18.586030
46.62603043,1.717448473,-9.688538551,-0.1606182158,2024-06-05 16:53:18.626030
46.66603043,1.656431437,-9.535398483,0.2623131871,2024-06-05 16:53:18.666030
46.70603043,0.7737790346,-9.589237213,-0.2228316069,2024-06-05 16:53:18.706030
46.74603043,1.681556106,-9.62154007,-0.5700899959,2024-06-05 16:53:18.746030
46.78603043,2.21216464,-9.66580677,0.3628117442,2024-06-05 16:53:18.786030
46.82603043,2.21216464,-9.66580677,0.3628117442,2024-06-05 16:53:18.826030
46.86603043,2.063809633,-9.561718941,0.6346961856,2024-06-05 16:53:18.866030
46.90603043,2.073380709,-9.486045837,0.2599203587,2024-06-05 16:53:18.906030
46.94603043,2.348854542,-9.536594391,0.5150550604,2024-06-05 16:53:18.946030
46.98603043,2.280659199,-9.628718376,0.5210371017,2024-06-05 16:53:18.986030
47.02603043,2.423032045,-9.379565239,0.5222335458,2024-06-05 16:53:19.026030
47.06603043,2.423032045,-9.379565239,0.5222335458,2024-06-05 16:53:19.066030
47.10603043,2.709273338,-9.440582275,0.6828517914,2024-06-05 16:53:19.106030
47.14603043,2.691327333,-9.458528519,0.8670991063,2024-06-05 16:53:19.146030
47.18603043,2.318944216,-9.499206543,0.4791627228,2024-06-05 16:53:19.186030
47.22603043,1.763211131,-9.395118713,0.4552344978,2024-06-05 16:53:19.226030
47.26603043,2.182254314,-9.702896118,0.5030909777,2024-06-05 16:53:19.266030
47.30603043,2.912962437,-9.838389397,0.4935196638,2024-06-05 16:53:19.306030
47.34603043,2.098505497,-9.014361382,1.345065475,2024-06-05 16:53:19.346030
47.38603043,1.825424552,-9.916155815,0.3281157911,2024-06-05 16:53:19.386030
47.42603043,1.814656854,-9.436993599,1.052842021,2024-06-05 16:53:19.426030
47.46603043,1.435992718,-9.977172852,-0.01196411345,2024-06-05 16:53:19.466030
47.50603043,1.907976985,-9.411869049,1.498505235,2024-06-05 16:53:19.506030
47.54603043,0.8467600942,-8.766405106,0.6394818425,2024-06-05 16:53:19.546030
47.58603043,1.676770449,-10.39172935,0.7582256794,2024-06-05 16:53:19.586030
47.62603043,1.066002488,-8.321938515,0.3843471408,2024-06-05 16:53:19.626030
47.66603043,0.8204390407,-10.77966595,1.194018483,2024-06-05 16:53:19.666030
47.70603043,2.302194595,-9.457332611,1.406082392,2024-06-05 16:53:19.706030
47.74603043,0.6000002623,-9.675378799,1.939083695,2024-06-05 16:53:19.746030
47.78603043,1.857727647,-8.696713448,0.3317050338,2024-06-05 16:53:19.786030
47.82603043,1.343868971,-9.56770134,2.208575249,2024-06-05 16:53:19.826030
47.86603043,1.343868971,-9.56770134,2.208575249,2024-06-05 16:53:19.866030
47.90603043,1.625324726,-9.730413437,0.01555334684,2024-06-05 16:53:19.906030
47.94603043,1.683948994,-9.25394249,1.250548959,2024-06-05 16:53:19.946030
47.98603043,2.358425856,-9.062217712,0.8168498278,2024-06-05 16:53:19.986030
48.02603043,3.235096216,-9.173483849,0.3544368446,2024-06-05 16:53:20.026030
48.06603043,2.601596355,-11.12841988,1.930708766,2024-06-05 16:53:20.066030
48.10603043,1.842174292,-9.953245163,0.2551347017,2024-06-05 16:53:20.106030
48.14603043,1.140179992,-8.601000786,1.683948994,2024-06-05 16:53:20.146030
48.18603043,0.03948157281,-9.858728409,0.6720840335,2024-06-05 16:53:20.186030
48.22603043,1.113858938,-9.078967094,0.8383852243,2024-06-05 16:53:20.226030
48.26603043,0.7175477147,-9.314959526,2.019542217,2024-06-05 16:53:20.266030
48.30603043,1.642074585,-8.786744118,2.370389938,2024-06-05 16:53:20.306030
48.34603043,2.400300264,-10.27896786,0.8335995674,2024-06-05 16:53:20.346030
48.38603043,2.249253273,-9.349655151,0.8252246976,2024-06-05 16:53:20.386030
48.42603043,0.4600201547,-9.969994545,1.248156071,2024-06-05 16:53:20.426030
48.46603043,1.946262121,-12.49502087,2.059023857,2024-06-05 16:53:20.466030
48.50603043,-0.4253242314,-10.51017475,2.302194595,2024-06-05 16:53:20.506030
48.50603043,-0.4253242314,-10.51017475,2.302194595,2024-06-05 16:53:20.506030
48.58603043,0.9547362328,-5.094020367,0.6442674994,2024-06-05 16:53:20.586030
48.62603043,4.142873287,-4.24367094,0.004785645287,2024-06-05 16:53:20.626030
48.66603043,3.886841297,-5.676074505,-2.126022816,2024-06-05 16:53:20.666030
48.70603043,4.132105827,-11.3258276,1.511665702,2024-06-05 16:53:20.706030
48.74603043,1.547558069,-13.97647667,7.340880871,2024-06-05 16:53:20.746030
48.78603043,-0.4085744619,-9.577272415,-1.232602715,2024-06-05 16:53:20.786030
48.82603043,1.850549221,-10.246665,2.345265388,2024-06-05 16:53:20.826030
48.86603043,2.19780755,-9.273084641,1.309173107,2024-06-05 16:53:20.866030
48.90603043,2.309372902,-9.288638115,1.620539188,2024-06-05 16:53:20.906030
48.94603043,2.030309916,-9.270691872,1.848156333,2024-06-05 16:53:20.946030
48.98603043,3.642474174,-12.55484104,1.712662816,2024-06-05 16:53:20.986030
49.02603043,2.209771633,-6.657131672,2.081755638,2024-06-05 16:53:21.026030
49.06603043,2.153540373,-10.748559,2.037488461,2024-06-05 16:53:21.066030
49.10603043,1.063609719,-8.621339798,1.316351533,2024-06-05 16:53:21.106030
49.14603043,0.7307082415,-9.710074425,3.000300407,2024-06-05 16:53:21.146030
49.18603043,2.248056889,-9.305388451,2.11645174,2024-06-05 16:53:21.186030
49.22603043,4.247260094,-9.429815292,1.620539188,2024-06-05 16:53:21.226030
49.26603043,3.322434187,-10.51376343,3.359822035,2024-06-05 16:53:21.266030
49.30603043,3.177668571,-10.43838978,3.368196964,2024-06-05 16:53:21.306030
49.34603043,3.177668571,-10.43838978,3.368196964,2024-06-05 16:53:21.346030
49.38603043,0.9894321561,-8.196314812,2.266003132,2024-06-05 16:53:21.386030
49.42603043,2.458924294,-8.505288124,1.494915962,2024-06-05 16:53:21.426030
49.46603043,2.509173632,-8.087141991,2.691327333,2024-06-05 16:53:21.466030
49.50603043,2.509173632,-8.087141991,2.691327333,2024-06-05 16:53:21.506030
49.54603043,4.532305241,-7.206882477,0.1366899908,2024-06-05 16:53:21.546030
49.58603043,0.8431708813,-10.2837534,2.959622622,2024-06-05 16:53:21.586030
49.62603043,3.726222992,-8.652446747,1.293619752,2024-06-05 16:53:21.626030
49.66603043,1.977368832,-11.43500042,3.249453068,2024-06-05 16:53:21.666030
49.70603043,4.447360039,-9.962816238,2.884248495,2024-06-05 16:53:21.706030
49.74603043,4.065106392,-10.09352398,2.371586323,2024-06-05 16:53:21.746030
49.78603043,1.354636669,-8.771190643,6.151648045,2024-06-05 16:53:21.786030
49.82603043,3.850649834,-6.339783669,-0.8694919348,2024-06-05 16:53:21.826030
49.86603043,1.715055585,-7.389036179,3.375375509,2024-06-05 16:53:21.866030
49.90603043,2.783450842,-8.653642654,1.912762642,2024-06-05 16:53:21.906030
49.94603043,2.848356247,-8.927920341,2.476870537,2024-06-05 16:53:21.946030
49.98603043,1.207478166,-10.24546814,4.752744198,2024-06-05 16:53:21.986030
50.02603043,2.228914261,-9.256335258,0.8814560175,2024-06-05 16:53:22.026030
50.06603043,4.973182678,-8.060821533,3.371786118,2024-06-05 16:53:22.066030
50.10603043,-1.358225942,-11.14875889,3.214757204,2024-06-05 16:53:22.106030
50.14603043,0.176171571,-11.06710339,3.853042603,2024-06-05 16:53:22.146030
50.18603043,-2.666202545,-13.28196049,2.48883462,2024-06-05 16:53:22.186030
50.22603043,1.656431437,-11.41585732,2.830410004,2024-06-05 16:53:22.226030
50.26603043,2.749951363,-10.66241741,4.346562386,2024-06-05 16:53:22.266030
50.30603043,-0.9714859724,-11.86959648,2.478066921,2024-06-05 16:53:22.306030
50.34603043,2.67338109,-9.3807621,0.5066801906,2024-06-05 16:53:22.346030
50.38603043,2.21216464,-6.219843388,4.490430832,2024-06-05 16:53:22.386030
50.42603043,0.4169493318,-8.944669724,2.692523718,2024-06-05 16:53:22.426030
50.46603043,-3.007478952,-10.84457111,1.535593987,2024-06-05 16:53:22.466030
50.50603043,2.87467742,-8.529216766,0.7677969933,2024-06-05 16:53:22.506030
50.54603043,-3.12383008,-9.742377281,2.327319145,2024-06-05 16:53:22.546030
50.58603043,0.5078766346,-9.356833458,5.339583874,2024-06-05 16:53:22.586030
50.62603043,2.210968018,-7.863114357,-0.446859628,2024-06-05 16:53:22.626030
50.66603043,-3.255435228,-11.5642128,-1.22542429,2024-06-05 16:53:22.666030
50.70603043,-0.499501735,-10.66600704,3.946661949,2024-06-05 16:53:22.706030
50.74603043,0.2467598319,-10.32353401,0.5688936114,2024-06-05 16:53:22.746030
50.78603043,-2.580060959,-9.312566757,2.551347256,2024-06-05 16:53:22.786030
50.82603043,0.2036890239,-5.665306568,20.70180511,2024-06-05 16:53:22.826030
50.86603043,-8.512466431,-9.203393936,2.222932339,2024-06-05 16:53:22.866030
50.90603043,-8.512466431,-9.203393936,2.222932339,2024-06-05 16:53:22.906030
50.94603043,-15.65085506,-9.932906151,3.836292982,2024-06-05 16:53:22.946030
50.98603043,-12.13310623,-9.015557289,-3.943072557,2024-06-05 16:53:22.986030
51.02603043,-6.798308372,-6.192326069,1.469492197,2024-06-05 16:53:23.026030
51.06603043,-6.004190445,-8.066802979,0.970289588,2024-06-05 16:53:23.066030
51.10603043,-4.022035599,-8.632107735,3.658027649,2024-06-05 16:53:23.106030
51.14603043,2.420639277,-4.147658825,-1.421635747,2024-06-05 16:53:23.146030
51.18603043,2.72961235,-3.506980658,-0.5461617708,2024-06-05 16:53:23.186030
51.22603043,-1.36061883,-2.819642305,-1.022931695,2024-06-05 16:53:23.226030
51.26603043,-1.430010676,-0.3831507266,5.532505035,2024-06-05 16:53:23.266030
51.30603043,-4.541876316,-0.803689301,15.65833187,2024-06-05 16:53:23.306030
51.34603043,1.082752228,1.135394335,12.61107254,2024-06-05 16:53:23.346030
51.38603043,-2.092523336,3.297309637,5.983851433,2024-06-05 16:53:23.386030
51.42603043,-0.8443672657,4.671088696,7.204489708,2024-06-05 16:53:23.426030
51.46603043,1.027717352,2.364407778,12.84945774,2024-06-05 16:53:23.466030
51.50603043,5.042574406,2.668595552,12.16899872,2024-06-05 16:53:23.506030
51.54603043,6.59731102,-2.006082773,12.18365479,2024-06-05 16:53:23.546030
51.58603043,3.794418573,2.564507723,9.071788788,2024-06-05 16:53:23.586030
51.62603043,-0.07298108935,1.520040631,9.841979027,2024-06-05 16:53:23.626030
51.66603043,-0.8647062778,1.709073544,10.30798054,2024-06-05 16:53:23.666030
51.70603043,1.848156333,1.817049742,13.71177101,2024-06-05 16:53:23.706030
51.74603043,1.250548959,2.606382132,6.206682682,2024-06-05 16:53:23.746030
51.78603043,-5.68564558,1.421635747,12.08046436,2024-06-05 16:53:23.786030
51.82603043,-1.083948612,3.133401155,10.66600704,2024-06-05 16:53:23.826030
51.86603043,-0.3101696372,3.055335522,9.547362328,2024-06-05 16:53:23.866030
51.90603043,-2.497209549,3.792025566,9.037093163,2024-06-05 16:53:23.906030
51.94603043,-1.7138592,2.748754978,10.30558777,2024-06-05 16:53:23.946030
51.98603043,-0.3388835192,2.093719721,8.967700958,2024-06-05 16:53:23.986030
52.02603043,-0.3388835192,2.093719721,8.967700958,2024-06-05 16:53:24.026030
52.06603043,-0.6912266612,3.630510092,7.500302792,2024-06-05 16:53:24.066030
52.10603043,-2.437388897,5.129912853,8.069195747,2024-06-05 16:53:24.106030
52.14603043,-1.687538147,4.246063709,7.114758968,2024-06-05 16:53:24.146030
52.18603043,1.472184181,4.198207378,9.898209572,2024-06-05 16:53:24.186030
52.22603043,0.6406782866,5.050949574,7.06301403,2024-06-05 16:53:24.226030
52.26603043,-0.509073019,4.507180691,5.96590519,2024-06-05 16:53:24.266030
52.30603043,-0.171385929,4.545465946,6.446264267,2024-06-05 16:53:24.306030
52.34603043,-1.030110121,3.748954773,8.231010437,2024-06-05 16:53:24.346030
52.38603043,-1.155733347,3.679563046,9.741181374,2024-06-05 16:53:24.386030
52.42603043,-0.5461617708,4.182653904,7.923233986,2024-06-05 16:53:24.426030
52.46603043,-0.4408775866,3.959822416,6.83569622,2024-06-05 16:53:24.466030
52.50603043,0.4887340367,4.285545349,6.621239185,2024-06-05 16:53:24.506030
52.54603043,0.8168498278,4.25802803,7.731509209,2024-06-05 16:53:24.546030
52.58603043,1.076770186,3.270988464,11.8971138,2024-06-05 16:53:24.586030
52.62603043,1.076770186,3.270988464,11.8971138,2024-06-05 16:53:24.626030
52.66603043,1.076770186,3.270988464,11.8971138,2024-06-05 16:53:24.666030
52.70603043,1.076770186,3.270988464,11.8971138,2024-06-05 16:53:24.706030
52.74603043,0.3580260873,3.564408541,9.506684303,2024-06-05 16:53:24.746030
52.78603043,0.643071115,3.46271348,8.852546692,2024-06-05 16:53:24.786030
52.82603043,1.443171144,4.005286217,8.605786324,2024-06-05 16:53:24.826030
52.86603043,1.357029557,3.64127779,11.9225378,2024-06-05 16:53:24.866030
52.90603043,2.164308071,2.990729094,8.842975616,2024-06-05 16:53:24.906030
52.94603043,0.8491529226,3.492623806,8.870492935,2024-06-05 16:53:24.946030
52.98603043,1.069591761,3.672384501,9.023932457,2024-06-05 16:53:24.986030
53.02603043,0.8300103545,3.176471949,8.957830429,2024-06-05 16:53:25.026030
53.06603043,1.013360381,3.298506021,9.506684303,2024-06-05 16:53:25.066030
53.10603043,0.751047194,3.057728291,9.4310112,2024-06-05 16:53:25.106030
53.14603043,0.5497509837,3.036192894,8.909974098,2024-06-05 16:53:25.146030
53.18603043,-0.8706883192,1.638485312,10.07438183,2024-06-05 16:53:25.186030
53.22603043,0.4456632137,2.621935368,7.306184769,2024-06-05 16:53:25.226030
53.26603043,-0.7594220638,2.057827473,7.438089371,2024-06-05 16:53:25.266030
53.30603043,2.408675194,3.151347399,9.986744881,2024-06-05 16:53:25.306030
53.34603043,2.933301449,3.783650875,9.319745064,2024-06-05 16:53:25.346030
53.38603043,5.270191669,4.722833633,10.50419235,2024-06-05 16:53:25.386030
53.42603043,3.201596737,3.886841297,8.535198212,2024-06-05 16:53:25.426030
53.46603043,2.215753794,2.760719061,9.736394882,2024-06-05 16:53:25.466030
53.50603043,3.327219963,3.546462297,8.833403587,2024-06-05 16:53:25.506030
53.54603043,2.783450842,3.376571894,8.893224716,2024-06-05 16:53:25.546030
53.58603043,2.809772015,3.33439827,8.476573944,2024-06-05 16:53:25.586030
53.62603043,3.565604925,3.910769463,8.895617485,2024-06-05 16:53:25.626030
53.66603043,3.192025423,3.49382019,9.323334694,2024-06-05 16:53:25.666030
53.70603043,2.976372242,3.71186614,9.218947411,2024-06-05 16:53:25.706030
53.74603043,3.054138899,3.925126553,8.656036377,2024-06-05 16:53:25.746030
53.78603043,2.583650351,3.281756163,9.314959526,2024-06-05 16:53:25.786030
53.82603043,2.258824587,3.895216227,9.311369896,2024-06-05 16:53:25.826030
53.86603043,2.632703066,3.732205153,8.819046974,2024-06-05 16:53:25.866030
53.90603043,0.2503490746,2.885445118,8.826225281,2024-06-05 16:53:25.906030
53.94603043,1.837388635,3.584747314,8.59142971,2024-06-05 16:53:25.946030
53.98603043,2.589632273,3.594318628,8.198707581,2024-06-05 16:53:25.986030
54.02603043,1.421635747,3.091526747,9.153144836,2024-06-05 16:53:26.026030
54.06603043,1.894816399,3.405285835,8.24895668,2024-06-05 16:53:26.066030
54.10603043,1.22542429,3.050549746,9.14596653,2024-06-05 16:53:26.106030
54.14603043,0.2467598319,2.853141785,10.61695385,2024-06-05 16:53:26.146030
54.18603043,1.024128079,3.504587889,8.621339798,2024-06-05 16:53:26.186030
54.22603043,0.536590457,3.108276606,8.022536278,2024-06-05 16:53:26.226030
54.26603043,0.7953144312,3.578765392,9.69452095,2024-06-05 16:53:26.266030
54.30603043,0.7103692293,2.911766052,9.632308006,2024-06-05 16:53:26.306030
54.34603043,1.087537885,3.351447105,9.037093163,2024-06-05 16:53:26.346030
54.38603043,1.286441326,3.678366661,9.912567139,2024-06-05 16:53:26.386030
54.42603043,1.695913076,3.443570852,11.10179996,2024-06-05 16:53:26.426030
54.46603043,0.5964110494,3.404089212,8.415258408,2024-06-05 16:53:26.466030
54.50603043,0.5964110494,3.404089212,8.415258408,2024-06-05 16:53:26.506030
54.54603043,1.547558069,3.837489367,10.13779163,2024-06-05 16:53:26.546030
54.58603043,1.341476202,3.630510092,8.765208244,2024-06-05 16:53:26.586030
54.62603043,1.0863415,3.80159688,8.912366867,2024-06-05 16:53:26.626030
54.66603043,1.830210209,4.042374611,8.822636604,2024-06-05 16:53:26.666030
54.70603043,0.8946165442,4.703691006,8.263314247,2024-06-05 16:53:26.706030
54.74603043,1.619342685,4.496412754,9.283852577,2024-06-05 16:53:26.746030
54.78603043,0.5318048596,5.331208706,7.296613693,2024-06-05 16:53:26.786030
54.82603043,1.196411371,4.788636208,7.939983845,2024-06-05 16:53:26.826030
54.86603043,-0.142672047,4.39800787,8.580661774,2024-06-05 16:53:26.866030
54.90603043,-0.1773679852,4.004089355,8.444271088,2024-06-05 16:53:26.906030
54.94603043,-0.6323033571,4.456931114,9.947262764,2024-06-05 16:53:26.946030
54.98603043,-0.5126622319,4.552644253,8.40688324,2024-06-05 16:53:26.986030
55.02603043,-1.425225019,4.649553299,7.581658363,2024-06-05 16:53:27.026030
55.06603043,-1.639681697,3.296113253,7.270292282,2024-06-05 16:53:27.066030
55.10603043,-1.639681697,3.296113253,7.270292282,2024-06-05 16:53:27.106030
55.14603043,1.904387712,3.798007727,11.25882912,2024-06-05 16:53:27.146030
55.18603043,0.7055835724,3.667598963,9.306584358,2024-06-05 16:53:27.186030
55.22603043,1.109073281,3.995714664,7.66092062,2024-06-05 16:53:27.226030
55.26603043,1.268495083,4.031607151,8.065607071,2024-06-05 16:53:27.266030
55.30603043,0.994217813,3.411267757,8.759226799,2024-06-05 16:53:27.306030
55.34603043,0.728315413,3.554837227,9.468100548,2024-06-05 16:53:27.346030
55.38603043,0.8228318691,3.43160677,10.0142622,2024-06-05 16:53:27.386030
55.42603043,1.067198873,3.469892025,9.734002113,2024-06-05 16:53:27.426030
55.46603043,0.8778668046,3.569194078,8.977272034,2024-06-05 16:53:27.466030
55.50603043,1.465902925,3.762115479,9.0921278,2024-06-05 16:53:27.506030
55.54603043,0.9846464992,3.506980658,9.501898766,2024-06-05 16:53:27.546030
55.58603043,0.7881359458,3.511766434,8.671588898,2024-06-05 16:53:27.586030
55.62603043,1.444367528,3.837489367,8.56271553,2024-06-05 16:53:27.626030
55.66603043,1.677966833,3.766901016,8.29920578,2024-06-05 16:53:27.666030
55.70603043,1.254138112,3.455534935,8.978468895,2024-06-05 16:53:27.706030
55.74603043,0.8730811477,3.145365477,9.45613575,2024-06-05 16:53:27.746030
55.78603043,0.2359921336,2.854338408,9.375976562,2024-06-05 16:53:27.786030
55.82603043,1.275673628,3.429214001,9.292227745,2024-06-05 16:53:27.826030
55.86603043,-0.009571290575,2.669791937,9.616754532,2024-06-05 16:53:27.866030
55.90603043,-0.1342971772,2.452942371,9.150752068,2024-06-05 16:53:27.906030
55.94603043,1.484148264,3.378964663,9.796515465,2024-06-05 16:53:27.946030
55.98603043,0.3269194067,2.838784933,9.598808289,2024-06-05 16:53:27.986030
56.02603043,0.04785645381,2.510370016,9.250352859,2024-06-05 16:53:28.026030
56.06603043,1.349851131,3.298506021,9.19621563,2024-06-05 16:53:28.066030
56.10603043,1.359422326,3.435195923,7.794919014,2024-06-05 16:53:28.106030
56.14603043,1.359422326,3.435195923,7.794919014,2024-06-05 16:53:28.146030
56.18603043,0.1414756328,2.114058733,9.868299484,2024-06-05 16:53:28.186030
56.22603043,2.740380049,3.638885021,10.43480015,2024-06-05 16:53:28.226030
56.26603043,-0.5210371017,1.958226204,9.360423088,2024-06-05 16:53:28.266030
56.30603043,1.455135226,3.606282711,6.897909641,2024-06-05 16:53:28.306030
56.34603043,1.741675735,2.857927561,8.978468895,2024-06-05 16:53:28.346030
56.38603043,2.510370016,1.68275249,9.677771568,2024-06-05 16:53:28.386030
56.42603043,4.04476738,0.9631111026,11.20020485,2024-06-05 16:53:28.426030
56.46603043,2.588435888,2.017149448,8.41047287,2024-06-05 16:53:28.466030
56.50603043,0.5581258535,3.496212959,8.610571861,2024-06-05 16:53:28.506030
56.54603043,-0.78095752,3.831507206,10.00588703,2024-06-05 16:53:28.546030
56.58603043,-1.310369492,3.538087368,8.98803997,2024-06-05 16:53:28.586030
56.62603043,-0.5162515044,2.482852697,9.359226227,2024-06-05 16:53:28.626030
56.66603043,-0.5880361795,2.715255499,10.1330061,2024-06-05 16:53:28.666030
56.70603043,-0.5557330847,2.831606388,9.659825325,2024-06-05 16:53:28.706030
56.74603043,-0.5557330847,2.831606388,9.659825325,2024-06-05 16:53:28.746030
56.78603043,-0.2407777756,3.032603502,11.0491581,2024-06-05 16:53:28.786030
56.82603043,-1.170090318,2.940479994,8.423632622,2024-06-05 16:53:28.826030
56.86603043,-1.067198873,3.290131092,8.507680893,2024-06-05 16:53:28.866030
56.90603043,-1.899602056,4.090231419,7.743473053,2024-06-05 16:53:28.906030
57.03684416,-4.000500202,4.28315258,10.11625576,2024-06-05 16:53:29.036844
57.07684416,-3.870988846,4.64716053,8.283653259,2024-06-05 16:53:29.076844
57.11684416,-2.314158678,6.187540054,6.822236538,2024-06-05 16:53:29.116844
57.15684416,-2.790629387,5.883352757,6.103791237,2024-06-05 16:53:29.156844
57.19684416,-2.098505497,5.931209087,7.931608677,2024-06-05 16:53:29.196844
57.23684416,-1.523629785,6.56141901,6.566204548,2024-06-05 16:53:29.236844
57.27684416,-2.829213619,5.818746567,9.191430092,2024-06-05 16:53:29.276844
57.31684416,-4.105784416,4.093820572,10.33669472,2024-06-05 16:53:29.316844
57.35684416,-1.238584876,5.976672649,10.89242744,2024-06-05 16:53:29.356844
57.39684416,-1.846959949,-0.1749751568,10.84457111,2024-06-05 16:53:29.396844
57.43684416,0.0,-1.159322619,12.4109726,2024-06-05 16:53:29.436844
57.47684416,6.007779598,-0.009571290575,15.99721622,2024-06-05 16:53:29.476844
57.51684416,3.516551971,-2.35962224,22.92264366,2024-06-05 16:53:29.516844
57.55684416,1.286441326,0.5533402562,-7.282256603,2024-06-05 16:53:29.556844
57.59684416,1.494915962,1.679163337,10.03968525,2024-06-05 16:53:29.596844
57.63684416,3.408874989,3.375375509,8.621339798,2024-06-05 16:53:29.636844
57.67684416,-1.640878081,1.94028008,7.284649372,2024-06-05 16:53:29.676844
57.71684416,0.8742775917,2.73798728,7.035496712,2024-06-05 16:53:29.716844
57.75684416,0.9559326172,2.402693033,9.445367813,2024-06-05 16:53:29.756844
57.79684416,0.2994019389,3.449553013,6.793522358,2024-06-05 16:53:29.796844
57.83684416,2.151147604,4.304687977,8.08953476,2024-06-05 16:53:29.836844
57.87684416,0.2467598319,4.369294167,7.095616341,2024-06-05 16:53:29.876844
57.91684416,1.868495345,4.992325306,7.636992455,2024-06-05 16:53:29.916844
57.95684416,1.679163337,4.659124851,8.801100731,2024-06-05 16:53:29.956844
57.99684416,1.782353759,4.738387108,8.123034477,2024-06-05 16:53:29.996844
58.03684416,1.279262781,4.17069006,9.756733894,2024-06-05 16:53:30.036844
58.07684416,1.73898387,4.378865242,9.718449593,2024-06-05 16:53:30.076844
58.11684416,1.621735573,5.840281963,10.87807083,2024-06-05 16:53:30.116844
58.15684416,1.763211131,5.66052103,7.234400272,2024-06-05 16:53:30.156844
58.19684416,2.905783892,3.461517096,9.96042347,2024-06-05 16:53:30.196844
58.23684416,1.72223413,2.038684845,12.50459194,2024-06-05 16:53:30.236844
58.27684416,1.595414519,2.548954248,9.617950439,2024-06-05 16:53:30.276844
58.31684416,0.5006981492,3.102294445,8.015357971,2024-06-05 16:53:30.316844
58.35684416,2.364407778,4.61126852,7.243971348,2024-06-05 16:53:30.356844
58.39684416,2.627917528,4.427021027,8.142177582,2024-06-05 16:53:30.396844
58.43684416,0.9822536707,3.456731319,9.124430656,2024-06-05 16:53:30.436844
58.47684416,1.394118309,4.129712582,7.670492172,2024-06-05 16:53:30.476844
58.51684416,1.765604019,4.724030018,6.745666027,2024-06-05 16:53:30.516844
58.55684416,1.688734531,4.517948151,7.780561924,2024-06-05 16:53:30.556844
58.59684416,1.374975681,4.86281395,7.332505703,2024-06-05 16:53:30.596844
58.63684416,1.758425593,5.766104221,7.500302792,2024-06-05 16:53:30.636844
58.67684416,1.336690545,5.58395052,8.424829483,2024-06-05 16:53:30.676844
58.71684416,1.315155149,4.122534275,9.732806206,2024-06-05 16:53:30.716844
58.75684416,-0.1052841991,4.48444891,11.74756241,2024-06-05 16:53:30.756844
58.79684416,0.8910273314,6.329015732,8.472985268,2024-06-05 16:53:30.796844
58.83684416,0.7426723242,4.527519703,9.297013283,2024-06-05 16:53:30.836844
58.87684416,0.08614161611,2.817249537,9.950852394,2024-06-05 16:53:30.876844
58.91684416,-0.4049852192,3.202793121,9.452547073,2024-06-05 16:53:30.916844
58.95684416,-1.106680512,3.878167391,8.233403206,2024-06-05 16:53:30.956844
58.99684416,-1.645663738,4.086641788,7.586444378,2024-06-05 16:53:30.996844
59.03684416,1.604985833,4.427021027,7.172186852,2024-06-05 16:53:31.036844
59.07684416,1.45633173,3.396910906,9.01675415,2024-06-05 16:53:31.076844
59.11684416,-0.294616282,3.023032188,8.741280556,2024-06-05 16:53:31.116844
59.15684416,-0.05742774159,3.765704632,8.08953476,2024-06-05 16:53:31.156844
59.19684416,0.7666005492,3.806382656,8.11824894,2024-06-05 16:53:31.196844
59.23684416,0.280259341,3.540480137,9.615557671,2024-06-05 16:53:31.236844
59.27684416,1.106680512,3.911965847,9.969994545,2024-06-05 16:53:31.276844
59.31684416,1.339083314,3.837489367,9.751948357,2024-06-05 16:53:31.316844
59.35684416,0.4983053207,3.21954298,9.967601776,2024-06-05 16:53:31.356844
59.39684416,0.9439685345,5.123930454,10.7677021,2024-06-05 16:53:31.396844
59.43684416,1.937887192,5.152644634,6.688238621,2024-06-05 16:53:31.436844
59.47684416,1.832603097,1.77996099,12.76810169,2024-06-05 16:53:31.476844
59.51684416,2.678166628,1.334297776,12.62901878,2024-06-05 16:53:31.516844
59.55684416,1.48295188,2.179861546,9.289834976,2024-06-05 16:53:31.556844
59.59684416,-0.09810572863,2.429013968,6.817451,2024-06-05 16:53:31.596844
59.63684416,2.093719721,3.26979208,8.748458862,2024-06-05 16:53:31.636844
59.67684416,2.606382132,3.231507063,10.40608692,2024-06-05 16:53:31.676844
59.71684416,0.8024929166,3.013461113,8.815457344,2024-06-05 16:53:31.716844
59.75684416,0.3927220106,3.411267757,7.148258686,2024-06-05 16:53:31.756844
59.79684416,1.406082392,4.340580463,7.155436993,2024-06-05 16:53:31.796844
59.83684416,0.5102694035,4.067499161,7.179365158,2024-06-05 16:53:31.836844
59.87684416,0.9173483849,4.357329845,7.814061642,2024-06-05 16:53:31.876844
59.91684416,1.022931695,4.877170563,8.8034935,2024-06-05 16:53:31.916844
59.95684416,0.8575277925,4.84845686,9.122037888,2024-06-05 16:53:31.956844
59.99684416,0.08853443712,4.395615101,11.86241817,2024-06-05 16:53:31.996844
60.03684416,-0.5270192027,5.365904808,7.888238907,2024-06-05 16:53:32.036844
60.07684416,1.279262781,3.921537161,11.16550827,2024-06-05 16:53:32.076844
60.11684416,0.4576273263,2.484049082,10.39412212,2024-06-05 16:53:32.116844
60.15684416,-0.8383852243,2.946461916,10.6983099,2024-06-05 16:53:32.156844
60.19684416,-0.1438684613,4.187439442,7.706384659,2024-06-05 16:53:32.196844
60.23684416,-0.7139584422,3.715455294,8.398508072,2024-06-05 16:53:32.236844
60.27684416,0.7019943595,3.075674295,10.35823059,2024-06-05 16:53:32.276844
60.31684416,1.600200176,3.65563488,7.656135082,2024-06-05 16:53:32.316844
60.35684416,-0.1965105534,2.812463999,8.64526844,2024-06-05 16:53:32.356844
60.39684416,-0.1148554832,4.467699051,7.869096279,2024-06-05 16:53:32.396844
60.43684416,3.21954298,4.216153622,8.168797493,2024-06-05 16:53:32.436844
60.47684416,-0.6876373887,4.136891365,6.810272217,2024-06-05 16:53:32.476844
60.51684416,1.391725421,4.70488739,5.591129303,2024-06-05 16:53:32.516844
60.55684416,2.429013968,5.04736042,8.077570915,2024-06-05 16:53:32.556844
60.59684416,0.7091727853,3.547658682,8.980861664,2024-06-05 16:53:32.596844
60.63684416,0.09092725813,3.780061483,8.40329361,2024-06-05 16:53:32.636844
60.67684416,3.820739508,3.298506021,12.91884899,2024-06-05 16:53:32.676844
60.71684416,2.929712296,1.842174292,14.78495216,2024-06-05 16:53:32.716844
60.75684416,1.45633173,-0.5581258535,12.47109222,2024-06-05 16:53:32.756844
60.79684416,1.305583835,3.229114056,7.644171238,2024-06-05 16:53:32.796844
60.83684416,2.54656148,4.702494621,5.164608479,2024-06-05 16:53:32.836844
60.87684416,-0.1100698411,2.412264347,7.934001446,2024-06-05 16:53:32.876844
60.91684416,-0.6442674994,2.623131752,8.099106789,2024-06-05 16:53:32.916844
60.95684416,-2.649452925,0.05742774159,7.962715626,2024-06-05 16:53:32.956844
60.99684416,0.1486541033,4.61126852,10.32473087,2024-06-05 16:53:32.996844
61.03684416,1.214656591,4.992325306,8.254939079,2024-06-05 16:53:33.036844
61.07684416,0.4719842672,5.126323223,7.955537319,2024-06-05 16:53:33.076844
61.11684416,-0.8120641708,4.110570431,8.978468895,2024-06-05 16:53:33.116844
61.15684416,-1.276870012,4.371686935,8.93031311,2024-06-05 16:53:33.156844
61.19684416,-0.9607182741,4.376472473,9.792925835,2024-06-05 16:53:33.196844
61.23684416,-0.9197412133,4.374079704,10.25982571,2024-06-05 16:53:33.236844
61.27684416,-0.2778665423,3.454338551,13.08425331,2024-06-05 16:53:33.276844
61.31684416,0.07178468257,0.589232564,14.14068413,2024-06-05 16:53:33.316844
61.35684416,-0.1366899908,0.9918249846,11.9153595,2024-06-05 16:53:33.356844
61.39684416,-1.478166223,2.524727106,8.779565811,2024-06-05 16:53:33.396844
61.43684416,-1.686341763,3.490231037,5.854638577,2024-06-05 16:53:33.436844
61.47684416,0.3161516786,3.648456335,7.172186852,2024-06-05 16:53:33.476844
61.51684416,0.7354938388,2.6087749,10.14975548,2024-06-05 16:53:33.516844
61.55684416,0.5700899959,3.049353361,10.56401253,2024-06-05 16:53:33.556844
61.59684416,-2.32851553,1.526022673,7.598408222,2024-06-05 16:53:33.596844
61.63684416,-0.4121637046,5.945566177,4.795814991,2024-06-05 16:53:33.636844
61.67684416,-0.3807578981,4.287938118,12.87338543,2024-06-05 16:53:33.676844
61.71684416,4.975575447,4.826921463,11.57498074,2024-06-05 16:53:33.716844
61.75684416,4.331008911,2.939283609,8.341080666,2024-06-05 16:53:33.756844
61.79684416,1.329512119,0.3592225015,13.65434361,2024-06-05 16:53:33.796844
61.83684416,6.422336102,4.472484589,4.151547432,2024-06-05 16:53:33.836844
61.87684416,1.195214868,4.731208801,-1.128215909,2024-06-05 16:53:33.876844
61.91684416,-1.281655669,2.002493382,15.25215054,2024-06-05 16:53:33.916844
61.95684416,5.737091541,3.878167391,5.214858055,2024-06-05 16:53:33.956844
61.99684416,1.85892415,0.6227321029,4.788636208,2024-06-05 16:53:33.996844
62.03684416,1.590628862,-0.09571290761,2.685345173,2024-06-05 16:53:34.036844
62.07684416,6.084649086,0.08135596663,5.049753189,2024-06-05 16:53:34.076844
62.11684416,3.10947299,-0.9583254457,7.078567505,2024-06-05 16:53:34.116844
62.15684416,3.425624609,-1.590628862,5.404190063,2024-06-05 16:53:34.156844
62.19684416,6.261717796,-0.5940182209,6.326622963,2024-06-05 16:53:34.196844
62.23684416,10.11147022,0.3783650696,5.389832973,2024-06-05 16:53:34.236844
62.27684416,12.10199928,0.9774680734,11.08385372,2024-06-05 16:53:34.276844
62.31684416,10.39651489,1.351047516,6.443871498,2024-06-05 16:53:34.316844
62.35684416,11.0431757,1.444367528,3.320041418,2024-06-05 16:53:34.356844
62.39684416,11.75952721,0.6442674994,6.034399509,2024-06-05 16:53:34.396844
62.43684416,8.079963684,-3.336791277,1.094716311,2024-06-05 16:53:34.436844
62.47684416,13.21825123,-3.17407918,4.273581028,2024-06-05 16:53:34.476844
