Time (s),Gyroscope x (rad/s),Gyroscope y (rad/s),Gyroscope z (rad/s),Datetime
0.036318819,-0.2041252851,-0.04247616604,0.2952027023,2024-06-05 16:52:32.036319
0.076803454,-0.4830831885,-0.001464695437,0.4015928507,2024-06-05 16:52:32.076803
0.117268298,-0.4294220507,0.2833519876,0.6774882078,2024-06-05 16:52:32.117268
0.157777413,0.3901416063,-0.2645772398,1.047523499,2024-06-05 16:52:32.157777
0.213083298,0.0541937314,0.7909355164,0.3013277948,2024-06-05 16:52:32.213083
0.253549756,-0.6391398311,1.933664203,0.3627118468,2024-06-05 16:52:32.253550
0.294064756,-0.1623148769,0.7784190178,0.9641690254,2024-06-05 16:52:32.294065
0.334500798,-0.3585840762,0.854450047,1.474149346,2024-06-05 16:52:32.334501
0.375020954,-0.4115794003,1.124752879,1.496785522,2024-06-05 16:52:32.375021
0.415473454,-0.004127778113,0.7792179585,1.602376819,2024-06-05 16:52:32.415473
0.4559596,-0.1740324497,1.2027812,1.639926195,2024-06-05 16:52:32.455960
0.496454913,-0.7118419409,0.01344856713,0.5430025458,2024-06-05 16:52:32.496455
0.536941631,-0.1681736708,0.4804200828,0.4236964285,2024-06-05 16:52:32.536942
0.577446058,0.2114487588,0.05312849581,0.816234827,2024-06-05 16:52:32.577446
0.617902256,-0.1133141592,0.8312812448,0.5834813714,2024-06-05 16:52:32.617902
0.658388038,0.1434070021,-0.1404775977,0.4516588151,2024-06-05 16:52:32.658388
0.698872308,0.2330197245,-0.4034570158,0.5917369723,2024-06-05 16:52:32.698872
0.739356579,-0.03342168778,-0.1394123733,0.434348762,2024-06-05 16:52:32.739357
0.779877204,-0.2608489394,0.146070078,0.4039896131,2024-06-05 16:52:32.779877
0.820330642,-0.2232994735,0.3352820873,0.3667064607,2024-06-05 16:52:32.820331
0.860845277,-0.467903614,0.5193011165,0.2999962568,2024-06-05 16:52:32.860845
0.901306579,-1.209172606,0.8943963051,0.1167761683,2024-06-05 16:52:32.901307
0.941764704,-1.36682713,0.90957582,-0.532083869,2024-06-05 16:52:32.941765
0.982261423,-2.106764555,0.4082505703,-2.153501749,2024-06-05 16:52:32.982261
1.022755173,-1.889989734,1.136470437,-2.001306534,2024-06-05 16:52:33.022755
1.063239392,-2.054834604,2.30716157,-3.547092915,2024-06-05 16:52:33.063239
1.103748038,-2.951494455,2.819938183,-4.146686077,2024-06-05 16:52:33.103748
1.144281423,-3.327255249,2.521273375,-3.490901709,2024-06-05 16:52:33.144281
1.184676163,-3.592365265,4.853600979,-3.989031315,2024-06-05 16:52:33.184676
1.22520585,-3.21007967,3.503950834,-1.897446275,2024-06-05 16:52:33.225206
1.265669444,-2.848566294,3.694094896,-0.9870715737,2024-06-05 16:52:33.265669
1.30615059,-2.798766613,3.299426079,0.1303578913,2024-06-05 16:52:33.306151
1.346630485,-2.464017153,2.30343318,1.737395048,2024-06-05 16:52:33.346630
1.38712309,-0.7744244337,1.826874614,2.255764008,2024-06-05 16:52:33.387123
1.427616163,-0.06484606117,1.168427467,1.969615817,2024-06-05 16:52:33.427616
1.468089131,0.08961272985,1.054181218,0.08188978583,2024-06-05 16:52:33.468089
1.5085846,-0.235283345,-0.8103760481,-0.491871357,2024-06-05 16:52:33.508585
1.5490571,0.5920032263,-1.449116349,-0.7733591795,2024-06-05 16:52:33.549057
1.589543715,1.293858647,-1.707302213,-0.07123745978,2024-06-05 16:52:33.589544
1.6300696,0.3123795986,-1.367359757,-0.5129097104,2024-06-05 16:52:33.630070
1.67054236,0.2103835195,-1.0075773,-0.525426209,2024-06-05 16:52:33.670542
1.711002933,-0.002796236658,-0.5187684894,-0.486012578,2024-06-05 16:52:33.711003
1.751494652,0.6716294289,0.7374075651,-1.767754197,2024-06-05 16:52:33.751495
1.79200335,-0.02117150649,0.3507279754,-2.372407198,2024-06-05 16:52:33.792003
1.83247309,0.258585304,-0.01850842312,-1.641524076,2024-06-05 16:52:33.832473
1.872957777,0.5017247796,-0.7834789157,-1.775477171,2024-06-05 16:52:33.872958
1.913461058,0.59599787,-0.9927971959,-1.668953896,2024-06-05 16:52:33.913461
1.953958038,0.2559222281,-0.6234276295,-0.9987891316,2024-06-05 16:52:33.953958
1.994448767,0.4322183132,-0.409848392,0.1846847683,2024-06-05 16:52:33.994449
2.034902517,0.5328828096,-0.4106473327,-0.4753602445,2024-06-05 16:52:34.034903
2.07536809,-0.1263632625,-0.6234276295,-1.810629845,2024-06-05 16:52:34.075368
2.115849756,0.2252967805,0.4154408872,-0.90957582,2024-06-05 16:52:34.115850
2.156329913,0.452457726,-0.1711030602,-1.646850228,2024-06-05 16:52:34.156330
2.196819392,0.5507254601,-1.033142924,-0.730483532,2024-06-05 16:52:34.196819
2.237330433,1.037670135,-0.4250279665,0.1535267085,2024-06-05 16:52:34.237330
2.277800694,0.5291544795,0.5326164961,-0.9279510975,2024-06-05 16:52:34.277801
2.318278506,0.1351514459,0.3880111277,0.01424749196,2024-06-05 16:52:34.318279
2.358784965,0.08268871158,0.5587147474,1.024887323,2024-06-05 16:52:34.358785
2.399295381,0.1394123733,0.6865426898,-0.2299571782,2024-06-05 16:52:34.399295
2.439762933,0.03209014609,2.019149303,-1.741922259,2024-06-05 16:52:34.439763
2.480221215,0.1587197185,0.4540555775,-1.008642554,2024-06-05 16:52:34.480221
2.520703819,0.2103835195,0.0685743764,-0.2993304729,2024-06-05 16:52:34.520704
2.561195902,0.142874375,0.3952014446,-0.7837451696,2024-06-05 16:52:34.561196
2.601698923,-0.04567186534,-0.5896064639,-0.1631138027,2024-06-05 16:52:34.601699
2.642170902,-0.5635082722,-0.3495295942,0.4532566369,2024-06-05 16:52:34.642171
2.682659704,-0.4504604042,-1.112236381,-1.025153637,2024-06-05 16:52:34.682660
2.723153819,0.09121058136,-1.206243277,-1.342859387,2024-06-05 16:52:34.723154
2.763639183,0.2535254657,0.5541874766,0.2560553849,2024-06-05 16:52:34.763639
2.80412835,0.3941362202,-0.0166442655,0.05579157919,2024-06-05 16:52:34.804128
2.844615069,0.7003906965,0.517170608,0.2499302924,2024-06-05 16:52:34.844615
2.885081215,0.9154346585,-0.01637795754,0.432484597,2024-06-05 16:52:34.885081
2.925556735,1.190531015,0.1953371018,0.408516854,2024-06-05 16:52:34.925557
2.966052048,1.31489706,-0.1987991184,0.5560516119,2024-06-05 16:52:34.966052
3.006546319,1.095991611,-0.9427312016,0.4742949903,2024-06-05 16:52:35.006546
3.047018715,0.2548570037,-0.6870753169,0.1780270636,2024-06-05 16:52:35.047019
3.087525225,-0.2709686458,-0.7914681435,0.01957365684,2024-06-05 16:52:35.087525
3.128026319,-0.5059856772,-0.9291495085,-0.04487293959,2024-06-05 16:52:35.128026
3.16847559,-0.5155727863,-1.088268638,-0.01238333434,2024-06-05 16:52:35.168476
3.20897986,-0.5328828096,-1.470687389,-0.05552527308,2024-06-05 16:52:35.208980
3.249501423,-0.6529878378,-1.163900256,0.04726971686,2024-06-05 16:52:35.249501
3.289962621,-0.3242303133,-1.072023869,0.03874785081,2024-06-05 16:52:35.289963
3.330447621,-0.1620485783,-0.8516538143,-0.02649767138,2024-06-05 16:52:35.330448
3.370925017,-0.1455374658,-1.472018838,0.05792204663,2024-06-05 16:52:35.370925
3.411391996,-0.3042571843,-1.44991529,0.1332872808,2024-06-05 16:52:35.411392
3.451890173,-0.3532578945,-1.044327855,0.141542837,2024-06-05 16:52:35.451890
3.492370798,-0.1252980381,-1.301847935,0.02862813696,2024-06-05 16:52:35.492371
3.53290861,-0.003861469682,-1.298385859,0.09627043456,2024-06-05 16:52:35.532909
3.573354444,0.1450048387,-0.7038527131,0.1599181145,2024-06-05 16:52:35.573354
3.613853715,0.2282261699,-0.1809564531,0.1561897993,2024-06-05 16:52:35.613854
3.654391319,0.06244928762,-0.2619141638,0.05312849581,2024-06-05 16:52:35.654391
3.694826892,-0.04141093418,-0.2304897904,-0.05685681105,2024-06-05 16:52:35.694827
3.735273402,-0.01211702544,0.221035853,-0.0512643382,2024-06-05 16:52:35.735273
3.775793506,0.0467370972,0.6162372828,-0.1553908736,2024-06-05 16:52:35.775794
3.816275069,0.01105179265,0.5653724074,-0.2110492885,2024-06-05 16:52:35.816275
3.856765017,0.005193010904,0.3235645294,-0.150597319,2024-06-05 16:52:35.856765
3.897246579,0.05659050494,0.2017285079,-0.03581846133,2024-06-05 16:52:35.897247
3.937710329,-0.006524552125,-0.1071890742,0.02782921307,2024-06-05 16:52:35.937710
3.978199756,0.1696383655,0.05019910634,-0.02117150649,2024-06-05 16:52:35.978200
4.018696631,0.2031932026,-0.08029194176,-0.02117150649,2024-06-05 16:52:36.018697
4.059131735,0.2450035959,-0.1708367467,0.08055824786,2024-06-05 16:52:36.059132
4.099630121,0.3003957272,-0.05872096866,0.1884130985,2024-06-05 16:52:36.099630
4.140149652,0.2724333405,-0.04567186534,0.0544600375,2024-06-05 16:52:36.140150
4.180631475,0.3094501793,0.09467258304,0.2467346042,2024-06-05 16:52:36.180631
4.22110111,0.4117125571,0.09014534205,0.4271584451,2024-06-05 16:52:36.221101
4.261597308,0.7748238444,0.3632444739,0.1769618392,2024-06-05 16:52:36.261597
4.302082308,1.022224188,0.2497971505,-0.02276935615,2024-06-05 16:52:36.302082
4.342576475,0.7780195475,0.2330197245,0.05552527308,2024-06-05 16:52:36.342576
4.38310486,0.5358121991,0.2442046702,0.4953333437,2024-06-05 16:52:36.383105
4.423553715,0.1274285018,0.2742975056,0.8793498874,2024-06-05 16:52:36.423554
4.464041788,-0.3034582436,0.03129122034,0.9184971452,2024-06-05 16:52:36.464042
4.504534704,-0.01770949923,-0.4202344418,0.572030127,2024-06-05 16:52:36.504535
4.544980433,0.1388797611,0.01398118306,0.5033226013,2024-06-05 16:52:36.544980
4.585533923,0.9188966155,0.6908035874,0.6612433791,2024-06-05 16:52:36.585534
4.6259521,0.7435326576,-0.07150376588,0.4884093404,2024-06-05 16:52:36.625952
4.666435225,0.6884068251,-0.5619103909,0.7350108027,2024-06-05 16:52:36.666435
4.706944652,0.9527177811,-0.938470304,0.8902685046,2024-06-05 16:52:36.706945
4.747427465,1.149785876,-0.2477998286,0.5938674212,2024-06-05 16:52:36.747427
4.787935225,0.8661676049,-0.0683080703,0.7294183373,2024-06-05 16:52:36.787935
4.828411423,1.064833522,-0.0432750918,0.818897903,2024-06-05 16:52:36.828411
4.868885121,1.609300733,-0.535279572,0.8689638376,2024-06-05 16:52:36.868885
4.9093621,1.382672429,-0.1772281379,0.724624753,2024-06-05 16:52:36.909362
4.949880225,1.231808782,0.1482005417,0.6375419497,2024-06-05 16:52:36.949880
4.990343923,1.203047514,0.3139774203,0.66949898,2024-06-05 16:52:36.990344
5.03081236,1.164699197,0.1900109351,0.7027874589,2024-06-05 16:52:37.030812
5.071295277,1.030213475,0.2774932086,0.6979939342,2024-06-05 16:52:37.071295
5.111794704,0.9796149135,0.203592658,0.7291520238,2024-06-05 16:52:37.111795
5.152281215,0.918364048,0.3536573648,0.7432663441,2024-06-05 16:52:37.152281
5.19278111,0.9133041501,0.4423380196,0.694265604,2024-06-05 16:52:37.192781
5.23326236,0.9886693954,0.4354139864,0.6271559596,2024-06-05 16:52:37.233262
5.273742256,0.9820116758,0.2123808414,0.5328828096,2024-06-05 16:52:37.273742
5.314250277,1.040066838,0.2351501882,0.5123770833,2024-06-05 16:52:37.314250
5.354768402,0.8403357267,0.2131797522,0.4135767221,2024-06-05 16:52:37.354768
5.395192465,0.8682980537,-0.03182383627,0.4473978579,2024-06-05 16:52:37.395192
5.435668975,0.7809489369,-0.05605788901,0.5097140074,2024-06-05 16:52:37.435669
5.476149079,0.6151720881,-0.06910699606,0.3952014446,2024-06-05 16:52:37.476149
5.516651267,0.5126433969,0.04114462435,0.3632444739,2024-06-05 16:52:37.516651
5.557147621,0.3174394369,0.2244978547,0.4593817294,2024-06-05 16:52:37.557148
5.597633767,0.2202369273,0.09200949967,0.4055874646,2024-06-05 16:52:37.597634
5.638119808,0.1047922969,0.05659050494,0.2850829959,2024-06-05 16:52:37.638120
5.6786171,0.0541937314,0.1359503716,0.2222342342,2024-06-05 16:52:37.678617
5.719079913,-0.04220985994,-0.1663095057,-0.02090519853,2024-06-05 16:52:37.719080
5.759579548,-0.2001306564,-0.1306242049,-0.1974675655,2024-06-05 16:52:37.759580
5.800051683,-0.1716356725,0.1322220564,-0.04700340703,2024-06-05 16:52:37.800052
5.840549756,-0.1663095057,0.02037258074,0.00599193573,2024-06-05 16:52:37.840550
5.88102585,-0.2374138087,-0.1657768935,-0.2774932086,2024-06-05 16:52:37.881026
5.921512204,-0.2059894353,0.008921326138,-0.2998631001,2024-06-05 16:52:37.921512
5.961976006,-0.112781547,0.04141093418,-0.1290263534,2024-06-05 16:52:37.961976
6.002484496,0.01238333434,-0.1402112991,-0.07789516449,2024-06-05 16:52:38.002484
6.042970329,-0.0006657706108,0.01478010789,-0.04567186534,2024-06-05 16:52:38.042970
6.083449808,-0.008921326138,0.1521951705,-0.002263620263,2024-06-05 16:52:38.083450
6.123937621,0.01344856713,0.0904116556,0.04194355011,2024-06-05 16:52:38.123938
6.164424392,0.04034570232,0.1399449855,0.07789516449,2024-06-05 16:52:38.164424
6.204894496,0.01344856713,0.07097115368,0.1356840581,2024-06-05 16:52:38.204894
6.245403767,-0.01344856713,-0.001464695437,0.1724345982,2024-06-05 16:52:38.245404
6.285887569,-0.02676397935,0.07256899774,0.162847504,2024-06-05 16:52:38.285888
6.326369444,-0.003861469682,0.05019910634,0.1130478531,2024-06-05 16:52:38.326369
6.366851371,-0.04407401755,0.08748225868,0.1181077138,2024-06-05 16:52:38.366851
6.407334131,-0.06324820966,0.1258306503,0.146070078,2024-06-05 16:52:38.407334
6.447834392,-0.03422060981,0.164179042,0.1255643368,2024-06-05 16:52:38.447834
6.488314704,0.02596505545,0.1471353173,0.06804175675,2024-06-05 16:52:38.488315
6.528779444,0.06324820966,0.1162435561,0.07549838722,2024-06-05 16:52:38.528779
6.569317152,0.07576470077,0.1002650559,0.06537867337,2024-06-05 16:52:38.569317
6.609819965,0.07709623873,0.1524614692,0.05845466256,2024-06-05 16:52:38.609820
6.650293298,0.05179695413,0.1183740199,0.05712312087,2024-06-05 16:52:38.650293
6.690757621,0.03901416063,0.09307473898,0.06324820966,2024-06-05 16:52:38.690758
6.731176788,0.04806863889,0.09121058136,0.02410089783,2024-06-05 16:52:38.731177
6.771690746,0.03102491237,0.04780233279,0.02729659714,2024-06-05 16:52:38.771691
6.812219079,0.02117150649,0.02276935615,0.01557903271,2024-06-05 16:52:38.812219
6.852673038,0.01318225823,-0.008122402243,0.007856093347,2024-06-05 16:52:38.852673
6.893159444,-0.000932078925,-0.01691057347,0.0006657706108,2024-06-05 16:52:38.893159
6.933642152,0.004127778113,-0.03102491237,-0.01105179265,2024-06-05 16:52:38.933642
6.974088715,0.002796236658,-0.02010627277,-0.005193010904,2024-06-05 16:52:38.974089
7.014623194,-0.006790860556,0.01318225823,-0.003595161485,2024-06-05 16:52:39.014623
7.055102517,0.009187635034,-0.02250304818,-0.02463351376,2024-06-05 16:52:39.055103
7.095587985,0.006790860556,-0.04620448127,-0.0352858454,2024-06-05 16:52:39.095588
7.136071579,0.01105179265,-0.02170412242,-0.02596505545,2024-06-05 16:52:39.136072
7.17652934,0.02623136342,-0.02782921307,-0.01637795754,2024-06-05 16:52:39.176529
7.217023246,0.02543243766,-0.04300878197,-0.00599193573,2024-06-05 16:52:39.217023
7.257502621,0.02303566411,-0.07736254483,0.007323476952,2024-06-05 16:52:39.257503
7.298028767,0.01611164957,-0.05153064802,0.003595161485,2024-06-05 16:52:39.298029
7.338502725,0.03635107726,-0.0733679235,-0.009187635034,2024-06-05 16:52:39.338503
7.378986788,0.02942706272,-0.1106510833,-0.01291595027,2024-06-05 16:52:39.378987
7.419493975,0.01957365684,-0.1050586104,-0.02063889056,2024-06-05 16:52:39.419494
7.459946423,0.04061200842,-0.08828118443,-0.03661738336,2024-06-05 16:52:39.459946
7.500444079,0.03688369319,-0.07443315536,-0.05153064802,2024-06-05 16:52:39.500444
7.54090236,0.0323564522,-0.1149120107,-0.07736254483,2024-06-05 16:52:39.540902
7.581387465,0.02969337068,-0.09600412846,-0.1042596847,2024-06-05 16:52:39.581387
7.621885017,0.01637795754,-0.04247616604,-0.1026618332,2024-06-05 16:52:39.621885
7.662379548,0.02569874749,-0.01344856713,-0.09999874979,2024-06-05 16:52:39.662380
7.702855225,0.02143781446,0.007856093347,-0.08322133124,2024-06-05 16:52:39.702855
7.74337486,0.0006657706108,-0.07203638554,-0.07043853402,2024-06-05 16:52:39.743375
7.783835433,-0.008921326138,-0.1021292135,-0.04274247587,2024-06-05 16:52:39.783835
7.824290902,-0.006258244161,-0.0355521515,-0.02623136342,2024-06-05 16:52:39.824291
7.864801163,0.0006657706108,0.003595161485,-0.003062544856,2024-06-05 16:52:39.864801
7.905293767,0.00998655986,-0.04220985994,0.006258244161,2024-06-05 16:52:39.905294
7.945775746,0.01504641678,-0.05818835273,0.02250304818,2024-06-05 16:52:39.945776
7.986241267,0.02356828004,-0.01291595027,0.0323564522,2024-06-05 16:52:39.986241
8.026745173,0.02809552103,-0.007323476952,0.03475322574,2024-06-05 16:52:40.026745
8.06723684,0.01957365684,-0.00998655986,0.04141093418,2024-06-05 16:52:40.067237
8.107720121,0.01983996481,-0.01371487509,0.04700340703,2024-06-05 16:52:40.107720
8.14820585,0.01504641678,-0.0003994623839,0.04567186534,2024-06-05 16:52:40.148206
8.188683975,0.01904104091,-0.00599193573,0.03635107726,2024-06-05 16:52:40.188684
8.229220329,0.0126496423,-0.000133154128,0.04247616604,2024-06-05 16:52:40.229220
8.269631006,-0.001731003635,0.009187635034,0.04167724028,2024-06-05 16:52:40.269631
8.310167673,0.003861469682,0.00599193573,0.02969337068,2024-06-05 16:52:40.310168
8.350632569,-0.002263620263,0.01770949923,0.02889444493,2024-06-05 16:52:40.350633
8.391096475,-0.000932078925,0.02197043039,0.03155753016,2024-06-05 16:52:40.391096
8.431580642,0.001731003635,0.02703028731,0.03315537795,2024-06-05 16:52:40.431581
8.472131423,0.008921326138,0.0355521515,0.03129122034,2024-06-05 16:52:40.472131
8.512639027,0.007323476952,0.04620448127,0.04513924941,2024-06-05 16:52:40.512639
8.553037413,0.01691057347,0.05339480564,0.04354140162,2024-06-05 16:52:40.553037
8.593529548,0.01930734888,0.07070484012,0.05366111174,2024-06-05 16:52:40.593530
8.634031215,0.02410089783,0.06484606117,0.04167724028,2024-06-05 16:52:40.634031
8.674515017,0.02543243766,0.02250304818,0.03821523488,2024-06-05 16:52:40.674515
8.71497486,0.004926702939,0.01504641678,0.03049229458,2024-06-05 16:52:40.714975
8.755476735,0.008921326138,0.000133154128,0.006790860556,2024-06-05 16:52:40.755477
8.795988871,0.00599193573,0.007589785382,0.006524552125,2024-06-05 16:52:40.795989
8.836469913,-0.005193010904,0.01291595027,0.01025286783,2024-06-05 16:52:40.836470
8.876965173,0.003861469682,-0.000133154128,0.002263620263,2024-06-05 16:52:40.876965
8.917431267,0.005193010904,0.007856093347,0.00998655986,2024-06-05 16:52:40.917431
8.957915538,0.004394086078,0.01291595027,0.01770949923,2024-06-05 16:52:40.957916
8.998382413,0.009187635034,0.005459319334,0.01424749196,2024-06-05 16:52:40.998382
9.038874704,0.008921326138,0.01078548469,0.01025286783,2024-06-05 16:52:41.038875
9.079337725,0.00998655986,0.002263620263,0.008388710208,2024-06-05 16:52:41.079338
9.119827256,0.008655018173,-0.01824211515,-0.000932078925,2024-06-05 16:52:41.119827
9.160310798,0.008388710208,-0.03501953557,-0.007856093347,2024-06-05 16:52:41.160311
9.200808038,0.01051917579,-0.02303566411,-0.01584534161,2024-06-05 16:52:41.200808
9.241298663,-0.000133154128,-0.02330197208,-0.01637795754,2024-06-05 16:52:41.241299
9.281766579,0.0006657706108,-0.01744319126,-0.004394086078,2024-06-05 16:52:41.281767
9.322288871,0.002529928461,0.01185071748,0.002529928461,2024-06-05 16:52:41.322289
9.362785225,0.008921326138,-0.002796236658,0.0006657706108,2024-06-05 16:52:41.362785
9.403253975,0.008122402243,0.000932078925,-0.000133154128,2024-06-05 16:52:41.403254
9.4437571,0.008655018173,-0.008655018173,-0.0003994623839,2024-06-05 16:52:41.443757
9.48421986,0.01078548469,-0.02197043039,0.003328853287,2024-06-05 16:52:41.484220
9.524698871,0.007589785382,-0.0126496423,0.002796236658,2024-06-05 16:52:41.524699
9.565185121,0.004926702939,-0.02916075476,-0.001198387123,2024-06-05 16:52:41.565185
9.605668975,0.003062544856,-0.01904104091,-0.001731003635,2024-06-05 16:52:41.605669
9.646125329,-0.000133154128,-0.008655018173,-0.000932078925,2024-06-05 16:52:41.646125
9.686598558,0.003595161485,-0.01371487509,0.004926702939,2024-06-05 16:52:41.686599
9.727081058,0.001198387123,-0.007589785382,0.005725627299,2024-06-05 16:52:41.727081
9.767568663,0.002263620263,-0.008122402243,0.0003994623839,2024-06-05 16:52:41.767569
9.808058194,0.005193010904,-0.01983996481,-0.002796236658,2024-06-05 16:52:41.808058
9.848539444,0.003328853287,-0.003595161485,0.002529928461,2024-06-05 16:52:41.848539
9.889021475,0.006258244161,-0.006258244161,-0.005193010904,2024-06-05 16:52:41.889021
9.929506683,0.009720250964,-0.009453942999,-0.003861469682,2024-06-05 16:52:41.929507
9.970063194,0.008122402243,-0.006258244161,-0.001464695437,2024-06-05 16:52:41.970063
10.01048424,0.006524552125,0.003328853287,0.001997311832,2024-06-05 16:52:42.010484
10.05100241,0.006790860556,-0.001198387123,0.001464695437,2024-06-05 16:52:42.051002
10.09144924,0.005193010904,-0.001464695437,0.004127778113,2024-06-05 16:52:42.091449
10.13194215,0.001997311832,0.008388710208,0.01078548469,2024-06-05 16:52:42.131942
10.17242939,0.004127778113,0.003328853287,0.02170412242,2024-06-05 16:52:42.172429
10.2129947,-0.01078548469,-0.003328853287,0.02729659714,2024-06-05 16:52:42.212995
10.25340929,-0.009187635034,-0.0243672058,0.02916075476,2024-06-05 16:52:42.253409
10.29389382,-0.02223674022,-0.02516612969,0.02623136342,2024-06-05 16:52:42.293894
10.33437257,-0.0166442655,-0.0243672058,0.01770949923,2024-06-05 16:52:42.334373
10.37484825,-0.01105179265,-0.03768261895,0.02356828004,2024-06-05 16:52:42.374848
10.41536715,0.02276935615,-0.0243672058,0.002529928461,2024-06-05 16:52:42.415367
10.4558345,0.03794892505,-0.02197043039,-0.01344856713,2024-06-05 16:52:42.455834
10.496302,0.04141093418,-0.03608476743,-0.01424749196,2024-06-05 16:52:42.496302
10.5368333,0.03981308267,-0.02223674022,-0.0126496423,2024-06-05 16:52:42.536833
10.57727575,0.03928046674,-0.01531272475,-0.006258244161,2024-06-05 16:52:42.577276
10.61779965,0.04274247587,-0.02516612969,-0.002796236658,2024-06-05 16:52:42.617800
10.65824325,0.03075860441,-0.008921326138,0.02569874749,2024-06-05 16:52:42.658243
10.69875387,0.01557903271,0.01051917579,0.02117150649,2024-06-05 16:52:42.698754
10.73921877,0.0003994623839,-0.03049229458,0.02410089783,2024-06-05 16:52:42.739219
10.77972194,-0.0003994623839,-0.01824211515,0.01158440951,2024-06-05 16:52:42.779722
10.82017054,-0.005459319334,0.003062544856,0.02223674022,2024-06-05 16:52:42.820171
10.86066309,-0.01557903271,-0.002796236658,0.02223674022,2024-06-05 16:52:42.860663
10.90117653,-0.003062544856,-0.0166442655,0.008388710208,2024-06-05 16:52:42.901177
10.94164705,-0.007323476952,-0.0171768833,0.004926702939,2024-06-05 16:52:42.941647
10.98214538,0.005725627299,-0.02543243766,-0.004926702939,2024-06-05 16:52:42.982145
11.02260309,0.009187635034,-0.02090519853,-0.004127778113,2024-06-05 16:52:43.022603
11.06312236,0.01770949923,-0.01611164957,-0.01318225823,2024-06-05 16:52:43.063122
11.10358934,0.005459319334,-0.01478010789,-0.006258244161,2024-06-05 16:52:43.103589
11.14406616,0.005193010904,0.002263620263,-0.008921326138,2024-06-05 16:52:43.144066
11.1845658,0.004660394508,0.007589785382,-0.0126496423,2024-06-05 16:52:43.184566
11.2250233,0.01291595027,0.007057168987,-0.01850842312,2024-06-05 16:52:43.225023
11.265517,0.003861469682,0.006258244161,-0.01344856713,2024-06-05 16:52:43.265517
11.30600668,0.001198387123,0.004660394508,-0.01105179265,2024-06-05 16:52:43.306007
11.34648866,0.005193010904,0.01105179265,-0.01691057347,2024-06-05 16:52:43.346489
11.3869671,0.005459319334,0.01504641678,-0.01557903271,2024-06-05 16:52:43.386967
11.4274597,0.001997311832,0.02197043039,-0.006524552125,2024-06-05 16:52:43.427460
11.46794439,0.006258244161,0.02410089783,-0.001198387123,2024-06-05 16:52:43.467944
11.50843632,0.001731003635,0.01078548469,0.009187635034,2024-06-05 16:52:43.508436
11.548922,0.005193010904,0.01051917579,0.00998655986,2024-06-05 16:52:43.548922
11.58945304,0.003062544856,0.01797580719,0.01904104091,2024-06-05 16:52:43.589453
11.62989533,0.00998655986,0.01877473295,0.02010627277,2024-06-05 16:52:43.629895
11.67038085,0.009720250964,0.01770949923,0.02276935615,2024-06-05 16:52:43.670381
11.71084955,0.01371487509,0.006790860556,0.01824211515,2024-06-05 16:52:43.710850
11.75133325,0.003861469682,0.006258244161,0.02170412242,2024-06-05 16:52:43.751333
11.79181715,0.007589785382,0.003861469682,0.02010627277,2024-06-05 16:52:43.791817
11.83230835,0.006790860556,0.01930734888,0.02197043039,2024-06-05 16:52:43.832308
11.87281106,0.004127778113,0.005725627299,0.01025286783,2024-06-05 16:52:43.872811
11.91328226,-0.0003994623839,0.009453942999,0.01131810062,2024-06-05 16:52:43.913282
11.95376648,0.004660394508,0.02463351376,0.0171768833,2024-06-05 16:52:43.953766
11.99426325,0.01131810062,0.02623136342,0.01983996481,2024-06-05 16:52:43.994263
12.03475668,0.01318225823,0.02969337068,0.02117150649,2024-06-05 16:52:44.034757
12.07524017,0.01904104091,0.02862813696,0.02223674022,2024-06-05 16:52:44.075240
12.11572429,0.02037258074,0.03768261895,0.02037258074,2024-06-05 16:52:44.115724
12.15621496,0.01131810062,0.0352858454,0.009720250964,2024-06-05 16:52:44.156215
12.19670757,-0.004926702939,0.02037258074,0.01238333434,2024-06-05 16:52:44.196708
12.23718996,-0.01131810062,0.01637795754,-0.004926702939,2024-06-05 16:52:44.237190
12.27766455,-0.01770949923,0.01344856713,-0.01291595027,2024-06-05 16:52:44.277665
12.31815403,-0.01185071748,0.003861469682,-0.02090519853,2024-06-05 16:52:44.318154
12.35863267,-0.003062544856,0.001464695437,-0.01904104091,2024-06-05 16:52:44.358633
12.39910512,0.008388710208,0.003861469682,-0.01025286783,2024-06-05 16:52:44.399105
12.43960653,0.01770949923,0.006790860556,-0.005193010904,2024-06-05 16:52:44.439607
12.48009825,0.01025286783,-0.002529928461,-0.001198387123,2024-06-05 16:52:44.480098
12.52056726,0.01131810062,0.003062544856,-0.006524552125,2024-06-05 16:52:44.520567
12.5610458,0.008655018173,0.008122402243,-0.0126496423,2024-06-05 16:52:44.561046
12.60154627,0.00998655986,-0.01478010789,-0.01877473295,2024-06-05 16:52:44.601546
12.64203773,0.009187635034,-0.01344856713,-0.01824211515,2024-06-05 16:52:44.642038
12.68251924,0.002796236658,-0.007057168987,-0.01371487509,2024-06-05 16:52:44.682519
12.72299741,0.000133154128,-0.01770949923,-0.002263620263,2024-06-05 16:52:44.722997
12.76347434,0.000932078925,-0.008122402243,0.007057168987,2024-06-05 16:52:44.763474
12.80397122,0.005459319334,-0.009720250964,0.006258244161,2024-06-05 16:52:44.803971
12.84445981,0.008122402243,-0.00998655986,-0.003861469682,2024-06-05 16:52:44.844460
12.88494012,-0.001731003635,-0.0003994623839,-0.01185071748,2024-06-05 16:52:44.884940
12.92542345,-0.002796236658,0.01531272475,-0.01877473295,2024-06-05 16:52:44.925423
12.96590502,-0.001198387123,0.02809552103,-0.01531272475,2024-06-05 16:52:44.965905
13.0063897,-0.006524552125,0.0352858454,-0.01557903271,2024-06-05 16:52:45.006390
13.04690497,0.000133154128,0.03581846133,-0.03155753016,2024-06-05 16:52:45.046905
13.08738825,0.01291595027,0.04247616604,-0.04034570232,2024-06-05 16:52:45.087388
13.12786476,0.003062544856,0.06724283099,-0.03155753016,2024-06-05 16:52:45.127865
13.16832616,0.003328853287,0.06617759913,-0.01504641678,2024-06-05 16:52:45.168326
13.20882361,0.002529928461,0.0432750918,-0.008655018173,2024-06-05 16:52:45.208824
13.249332,-0.006790860556,0.02356828004,0.002529928461,2024-06-05 16:52:45.249332
13.28979366,-0.001997311832,0.01078548469,0.00599193573,2024-06-05 16:52:45.289794
13.33025111,0.001997311832,0.005193010904,0.008122402243,2024-06-05 16:52:45.330251
13.37077038,-0.0006657706108,-0.008388710208,0.00998655986,2024-06-05 16:52:45.370770
13.41125023,-0.01078548469,-0.008388710208,0.01557903271,2024-06-05 16:52:45.411250
13.45171705,-0.006790860556,0.007057168987,0.01051917579,2024-06-05 16:52:45.451717
13.49222273,-0.004660394508,0.004127778113,0.01424749196,2024-06-05 16:52:45.492223
13.5326884,0.001464695437,-0.01105179265,0.02010627277,2024-06-05 16:52:45.532688
13.57320163,-0.007856093347,-0.004660394508,0.02862813696,2024-06-05 16:52:45.573202
13.61367153,0.002263620263,-0.01584534161,0.01930734888,2024-06-05 16:52:45.613672
13.65416064,0.01051917579,-0.05792204663,0.02276935615,2024-06-05 16:52:45.654161
13.69462455,0.01185071748,-0.05925358832,0.03022598661,2024-06-05 16:52:45.694625
13.73512247,0.001997311832,-0.02862813696,0.03874785081,2024-06-05 16:52:45.735122
13.77559012,0.01691057347,-0.02063889056,0.03475322574,2024-06-05 16:52:45.775590
13.81610304,0.02276935615,-0.02090519853,0.04833494872,2024-06-05 16:52:45.816103
13.85658642,0.04407401755,-0.00998655986,0.05872096866,2024-06-05 16:52:45.856586
13.89708064,0.03981308267,0.02010627277,0.06484606117,2024-06-05 16:52:45.897081
13.93755382,-0.01105179265,0.01584534161,0.03954677656,2024-06-05 16:52:45.937554
13.97804418,-0.0275629051,0.02010627277,0.01983996481,2024-06-05 16:52:45.978044
14.01852981,-0.02330197208,0.02303566411,0.02623136342,2024-06-05 16:52:46.018530
14.05899637,-0.02090519853,0.008122402243,0.000133154128,2024-06-05 16:52:46.058996
14.09948845,-0.01478010789,0.02596505545,-0.01584534161,2024-06-05 16:52:46.099488
14.13998595,-0.02916075476,0.05179695413,-0.003595161485,2024-06-05 16:52:46.139986
14.18048168,-0.01424749196,0.03501953557,0.004660394508,2024-06-05 16:52:46.180482
14.22096189,0.001731003635,0.04434032366,-0.004660394508,2024-06-05 16:52:46.220962
14.26145788,0.005725627299,0.03209014609,-0.004926702939,2024-06-05 16:52:46.261458
14.30192741,0.01025286783,0.01478010789,-0.002529928461,2024-06-05 16:52:46.301927
14.34241991,0.01105179265,0.005725627299,-0.001198387123,2024-06-05 16:52:46.342420
14.38290642,0.01424749196,0.01211702544,0.001464695437,2024-06-05 16:52:46.382906
14.42339095,0.008921326138,0.01637795754,-0.002529928461,2024-06-05 16:52:46.423391
14.46386366,0.006524552125,-0.0003994623839,-0.001198387123,2024-06-05 16:52:46.463864
14.50435215,0.008921326138,0.01398118306,-0.003595161485,2024-06-05 16:52:46.504352
14.54482517,0.008122402243,0.01078548469,-0.004660394508,2024-06-05 16:52:46.544825
14.58533262,0.005459319334,0.01584534161,-0.001198387123,2024-06-05 16:52:46.585333
14.62580799,0.00599193573,0.01877473295,-0.01078548469,2024-06-05 16:52:46.625808
14.66629569,0.003062544856,0.01105179265,-0.01637795754,2024-06-05 16:52:46.666296
14.70678424,0.00599193573,0.001731003635,-0.0243672058,2024-06-05 16:52:46.706784
14.74725788,0.01131810062,-0.02782921307,-0.03262276202,2024-06-05 16:52:46.747258
14.78775215,0.0166442655,-0.02995967865,-0.02676397935,2024-06-05 16:52:46.787752
14.8282347,0.02516612969,-0.00998655986,-0.02729659714,2024-06-05 16:52:46.828235
14.86871736,0.028361829,-0.02942706272,-0.03182383627,2024-06-05 16:52:46.868717
14.90919913,0.02729659714,-0.01531272475,-0.0275629051,2024-06-05 16:52:46.909199
14.9496921,0.02063889056,0.000932078925,-0.03049229458,2024-06-05 16:52:46.949692
14.99017262,0.02037258074,0.000932078925,-0.0275629051,2024-06-05 16:52:46.990173
15.0306609,0.01957365684,-0.02623136342,-0.02596505545,2024-06-05 16:52:47.030661
15.07115476,0.01850842312,-0.02463351376,-0.01957365684,2024-06-05 16:52:47.071155
15.1116346,-0.02383458801,-0.01691057347,0.01371487509,2024-06-05 16:52:47.111635
15.15211585,-0.03049229458,-0.05552527308,0.02410089783,2024-06-05 16:52:47.152116
15.19261132,-0.03262276202,-0.09973244369,0.01691057347,2024-06-05 16:52:47.192611
15.23307705,-0.05153064802,-0.1354177445,0.02596505545,2024-06-05 16:52:47.233077
15.27357434,-0.04061200842,-0.1386134475,0.03262276202,2024-06-05 16:52:47.273574
15.31406554,-0.03288906813,-0.133819893,0.03715000302,2024-06-05 16:52:47.314066
15.35454549,-0.03928046674,-0.1252980381,0.03422060981,2024-06-05 16:52:47.354545
15.39503398,-0.05499265343,-0.1098521575,0.028361829,2024-06-05 16:52:47.395034
15.43552002,-0.05712312087,-0.1929403245,0.02862813696,2024-06-05 16:52:47.435520
15.47600122,-0.1042596847,-0.227560401,0.07443315536,2024-06-05 16:52:47.476001
15.51648986,-0.09840089828,-0.1761629134,0.05978620425,2024-06-05 16:52:47.516490
15.55698283,-0.05153064802,-0.1071890742,0.01478010789,2024-06-05 16:52:47.556983
15.59746382,-0.05685681105,-0.079493016,0.03075860441,2024-06-05 16:52:47.597464
15.63794674,-0.07283531129,-0.127961114,0.05046541616,2024-06-05 16:52:47.637947
15.6784396,-0.07469946891,-0.1255643368,0.0576557368,2024-06-05 16:52:47.678440
15.71891234,-0.05206326395,-0.09254211932,0.04220985994,2024-06-05 16:52:47.718912
15.75939541,-0.04300878197,-0.02383458801,0.05339480564,2024-06-05 16:52:47.759395
15.79988166,-0.02463351376,0.001731003635,0.04940018058,2024-06-05 16:52:47.799882
15.84036864,0.001731003635,0.007057168987,0.0384815447,2024-06-05 16:52:47.840369
15.88085687,0.02969337068,0.02063889056,0.02250304818,2024-06-05 16:52:47.880857
15.9213451,0.02995967865,0.01078548469,0.007057168987,2024-06-05 16:52:47.921345
15.96181802,0.02330197208,0.009187635034,-0.0003994623839,2024-06-05 16:52:47.961818
16.00230708,0.003062544856,0.04886756465,0.01957365684,2024-06-05 16:52:48.002307
16.04280052,-0.01078548469,0.02197043039,0.04220985994,2024-06-05 16:52:48.042801
16.08328531,-0.02037258074,0.04354140162,0.03688369319,2024-06-05 16:52:48.083285
16.12377275,-0.0126496423,0.08481918275,0.03608476743,2024-06-05 16:52:48.123773
16.16425473,0.01797580719,0.06750914454,0.01611164957,2024-06-05 16:52:48.164255
16.20474796,0.04167724028,0.07576470077,-0.01531272475,2024-06-05 16:52:48.204748
16.24523525,0.05073172227,0.08694964647,-0.01025286783,2024-06-05 16:52:48.245235
16.28571223,0.04194355011,0.08348763734,0.01051917579,2024-06-05 16:52:48.285712
16.32619812,0.0355521515,0.0683080703,0.009187635034,2024-06-05 16:52:48.326198
16.36668364,0.03288906813,0.07390054315,0.008122402243,2024-06-05 16:52:48.366684
16.40716604,0.02276935615,0.04434032366,0.02063889056,2024-06-05 16:52:48.407166
16.44765031,0.02117150649,0.05792204663,0.02090519853,2024-06-05 16:52:48.447650
16.48811802,0.00599193573,0.05792204663,0.02543243766,2024-06-05 16:52:48.488118
16.52861458,-0.003861469682,0.00599193573,0.02596505545,2024-06-05 16:52:48.528615
16.56911395,-0.00599193573,0.02010627277,0.01557903271,2024-06-05 16:52:48.569114
16.60959885,0.0006657706108,0.02250304818,0.01504641678,2024-06-05 16:52:48.609599
16.6500689,0.001464695437,-0.003062544856,0.007856093347,2024-06-05 16:52:48.650069
16.69058223,-0.000932078925,-0.004127778113,0.007856093347,2024-06-05 16:52:48.690582
16.73105598,0.005459319334,-0.01983996481,0.007856093347,2024-06-05 16:52:48.731056
16.77152161,0.02543243766,-0.01744319126,0.006258244161,2024-06-05 16:52:48.771522
16.81202218,0.01983996481,0.006524552125,-0.000932078925,2024-06-05 16:52:48.812022
16.85251437,0.008122402243,-0.005725627299,-0.001997311832,2024-06-05 16:52:48.852514
16.89301781,0.0275629051,-0.01584534161,0.01557903271,2024-06-05 16:52:48.893018
16.93345812,0.009187635034,0.007323476952,0.02942706272,2024-06-05 16:52:48.933458
16.97394796,0.002263620263,-0.0003994623839,0.02330197208,2024-06-05 16:52:48.973948
17.01444265,0.02010627277,0.002796236658,0.01904104091,2024-06-05 16:52:49.014443
17.05494786,0.01238333434,0.01051917579,0.02596505545,2024-06-05 16:52:49.054948
17.0954139,-0.003062544856,0.0006657706108,0.02569874749,2024-06-05 16:52:49.095414
17.13589921,-0.008655018173,0.02623136342,0.02197043039,2024-06-05 16:52:49.135899
17.17636994,-0.01131810062,0.01584534161,0.01078548469,2024-06-05 16:52:49.176370
17.21687343,-0.005193010904,-0.007323476952,-0.006258244161,2024-06-05 16:52:49.216873
17.257364,-0.009187635034,-0.02117150649,-0.008122402243,2024-06-05 16:52:49.257364
17.29784578,-0.01451379992,-0.01584534161,-0.008655018173,2024-06-05 16:52:49.297846
17.33833244,-0.01398118306,-0.001198387123,-0.01185071748,2024-06-05 16:52:49.338332
17.37881812,-0.008655018173,-0.001997311832,-0.01770949923,2024-06-05 16:52:49.378818
17.41928322,-0.007057168987,-0.01105179265,-0.02223674022,2024-06-05 16:52:49.419283
17.45977135,-0.002529928461,-0.009453942999,-0.02250304818,2024-06-05 16:52:49.459771
17.50026848,-0.004127778113,0.001198387123,-0.01930734888,2024-06-05 16:52:49.500268
17.5407663,-0.001731003635,0.002529928461,-0.02250304818,2024-06-05 16:52:49.540766
17.58124692,-0.001464695437,-0.005459319334,-0.01557903271,2024-06-05 16:52:49.581247
17.62173338,0.004394086078,-0.007589785382,-0.008921326138,2024-06-05 16:52:49.621733
17.66222156,0.008655018173,0.000932078925,-0.007323476952,2024-06-05 16:52:49.662222
17.70267734,0.002796236658,0.005459319334,-0.000932078925,2024-06-05 16:52:49.702677
17.74318218,0.006790860556,0.003595161485,0.0003994623839,2024-06-05 16:52:49.743182
17.7836538,0.005459319334,0.004394086078,0.004926702939,2024-06-05 16:52:49.783654
17.82415036,0.004926702939,0.003595161485,0.003595161485,2024-06-05 16:52:49.824150
17.86463343,0.005459319334,0.007323476952,0.007323476952,2024-06-05 16:52:49.864633
17.90512604,0.001198387123,-0.0003994623839,0.009720250964,2024-06-05 16:52:49.905126
17.9456002,0.0003994623839,0.001464695437,0.007589785382,2024-06-05 16:52:49.945600
17.98607593,0.004660394508,0.003062544856,0.009720250964,2024-06-05 16:52:49.986076
18.02657921,0.01131810062,0.01025286783,0.004926702939,2024-06-05 16:52:50.026579
18.06706822,0.004926702939,0.0003994623839,0.0126496423,2024-06-05 16:52:50.067068
18.10755452,0.006258244161,-0.008921326138,0.01557903271,2024-06-05 16:52:50.107555
18.14803921,0.0166442655,-0.001731003635,0.02356828004,2024-06-05 16:52:50.148039
18.18852515,0.02942706272,-0.02037258074,0.02463351376,2024-06-05 16:52:50.188525
18.22901036,0.0171768833,-0.03209014609,0.01557903271,2024-06-05 16:52:50.229010
18.269489,-0.009187635034,-0.007323476952,0.008921326138,2024-06-05 16:52:50.269489
18.30998781,-0.02782921307,-0.001997311832,0.01158440951,2024-06-05 16:52:50.309988
18.3504701,-0.03315537795,-0.01424749196,0.028361829,2024-06-05 16:52:50.350470
18.39097552,-0.0323564522,0.01983996481,0.02782921307,2024-06-05 16:52:50.390976
18.43144015,-0.0544600375,0.01185071748,0.00998655986,2024-06-05 16:52:50.431440
18.47194223,-0.05206326395,0.000133154128,-0.009720250964,2024-06-05 16:52:50.471942
18.51240791,-0.004926702939,0.01584534161,-0.005725627299,2024-06-05 16:52:50.512408
18.55289166,-0.009720250964,-0.0171768833,-0.01478010789,2024-06-05 16:52:50.552892
18.59337765,-0.005459319334,-0.01637795754,-0.02250304818,2024-06-05 16:52:50.593378
18.63385874,0.01105179265,0.002529928461,-0.04220985994,2024-06-05 16:52:50.633859
18.67435109,0.00599193573,-0.002263620263,-0.04194355011,2024-06-05 16:52:50.674351
18.71482062,0.005459319334,0.01531272475,-0.03688369319,2024-06-05 16:52:50.714821
18.75531869,0.005193010904,0.01611164957,-0.03129122034,2024-06-05 16:52:50.755319
18.79580369,-0.003328853287,0.01344856713,-0.02969337068,2024-06-05 16:52:50.795804
18.83628124,0.009720250964,0.0171768833,-0.03075860441,2024-06-05 16:52:50.836281
18.87678374,-0.002796236658,0.004127778113,-0.03129122034,2024-06-05 16:52:50.876784
18.91726609,-0.007323476952,0.02676397935,-0.02889444493,2024-06-05 16:52:50.917266
18.9577514,0.003062544856,0.001464695437,-0.02010627277,2024-06-05 16:52:50.957751
18.99823999,-0.008388710208,-0.01211702544,-0.000932078925,2024-06-05 16:52:50.998240
19.03873515,-0.004926702939,-0.008122402243,0.00998655986,2024-06-05 16:52:51.038735
19.07919406,0.001198387123,-0.01424749196,0.01158440951,2024-06-05 16:52:51.079194
19.1197027,0.001997311832,0.02037258074,0.01211702544,2024-06-05 16:52:51.119703
19.16017833,0.005193010904,-0.000133154128,-0.007856093347,2024-06-05 16:52:51.160178
19.20063885,-0.005193010904,-0.02782921307,-0.02063889056,2024-06-05 16:52:51.200639
19.2411176,-0.01478010789,-0.04833494872,-0.01957365684,2024-06-05 16:52:51.241118
19.28162406,-0.01158440951,-0.06777545065,-0.02703028731,2024-06-05 16:52:51.281624
19.32209708,-0.01158440951,-0.04220985994,-0.02995967865,2024-06-05 16:52:51.322097
19.3625938,-0.003328853287,-0.07922670245,-0.03315537795,2024-06-05 16:52:51.362594
19.40308854,0.01158440951,-0.09866721183,-0.02383458801,2024-06-05 16:52:51.403089
19.44357614,0.028361829,-0.06591129303,-0.01185071748,2024-06-05 16:52:51.443576
19.48405854,0.03342168778,-0.04860125855,0.00998655986,2024-06-05 16:52:51.484059
19.52453843,0.02516612969,-0.04061200842,0.01584534161,2024-06-05 16:52:51.524538
19.56502723,0.01797580719,-0.03288906813,0.03821523488,2024-06-05 16:52:51.565027
19.60551359,0.02569874749,-0.05232957378,0.03501953557,2024-06-05 16:52:51.605514
19.64598255,0.01105179265,-0.04194355011,0.04753602296,2024-06-05 16:52:51.645983
19.68646525,0.003861469682,-0.04726971686,0.0541937314,2024-06-05 16:52:51.686465
19.72696025,0.000932078925,-0.02117150649,0.07762885839,2024-06-05 16:52:51.726960
19.76745614,0.03821523488,0.0954715088,0.1031944528,2024-06-05 16:52:51.767456
19.80792234,0.09360735118,0.1093195379,0.1117163152,2024-06-05 16:52:51.807922
19.84841802,0.1130478531,0.01398118306,0.0683080703,2024-06-05 16:52:51.848418
19.88890968,0.1468690038,-0.0432750918,-0.04460663348,2024-06-05 16:52:51.888910
19.92937739,0.1640458852,-0.01531272475,-0.06724283099,2024-06-05 16:52:51.929377
19.96988088,0.1547250897,-0.07496577501,-0.04940018058,2024-06-05 16:52:51.969881
20.0103713,0.137015596,-0.168706283,-0.079493016,2024-06-05 16:52:52.010371
20.05085614,0.07816147059,-0.0845528692,-0.1015966013,2024-06-05 16:52:52.050856
20.09134291,0.04593817517,-0.04567186534,-0.07736254483,2024-06-05 16:52:52.091343
20.1317938,-0.0006657706108,-0.001198387123,-0.05312849581,2024-06-05 16:52:52.131794
20.17233177,-0.04220985994,-0.000133154128,-0.07203638554,2024-06-05 16:52:52.172332
20.2127676,-0.008921326138,-0.05099803209,-0.1026618332,2024-06-05 16:52:52.212768
20.25329192,-0.02516612969,-0.01877473295,-0.1122489274,2024-06-05 16:52:52.253292
20.29375775,-0.06697652489,-0.003328853287,-0.05579157919,2024-06-05 16:52:52.293758
20.33424718,-0.08082455397,0.03155753016,-0.0006657706108,2024-06-05 16:52:52.334247
20.37473619,-0.1308905035,0.06191666797,0.01930734888,2024-06-05 16:52:52.374736
20.41522447,-0.1862826198,0.05872096866,0.01398118306,2024-06-05 16:52:52.415224
20.45570963,-0.1423417628,0.02356828004,0.04806863889,2024-06-05 16:52:52.455710
20.49616505,-0.0544600375,0.01850842312,0.1013302878,2024-06-05 16:52:52.496165
20.5366826,-0.09067796171,0.04247616604,0.09467258304,2024-06-05 16:52:52.536683
20.57716416,-0.05685681105,0.01451379992,0.08215609938,2024-06-05 16:52:52.577164
20.61765249,-0.06244928762,0.02703028731,0.06963960826,2024-06-05 16:52:52.617652
20.65813624,-0.04993279651,-0.003595161485,0.06671021879,2024-06-05 16:52:52.658136
20.6986314,-0.009453942999,-0.004394086078,0.03368799388,2024-06-05 16:52:52.698631
20.73909828,0.01158440951,0.05339480564,0.002263620263,2024-06-05 16:52:52.739098
20.77957187,0.03821523488,0.06644391268,-0.02276935615,2024-06-05 16:52:52.779572
20.82006947,0.04940018058,0.07975932211,-0.04700340703,2024-06-05 16:52:52.820069
20.8605313,0.03794892505,0.06244928762,-0.04806863889,2024-06-05 16:52:52.860531
20.90104911,0.009720250964,0.05632419512,-0.03901416063,2024-06-05 16:52:52.901049
20.94153833,-0.008122402243,0.01957365684,-0.02969337068,2024-06-05 16:52:52.941538
20.98201692,-0.01744319126,-0.0243672058,-0.02063889056,2024-06-05 16:52:52.982017
21.02250104,-0.03182383627,-0.02276935615,-0.002796236658,2024-06-05 16:52:53.022501
21.06299895,-0.02330197208,-0.02090519853,0.002796236658,2024-06-05 16:52:53.062999
21.10348609,-0.001997311832,0.003062544856,0.003062544856,2024-06-05 16:52:53.103486
21.143954,0.01398118306,0.02489982173,-0.008921326138,2024-06-05 16:52:53.143954
21.18444478,0.02090519853,0.02569874749,-0.01158440951,2024-06-05 16:52:53.184445
21.22492812,0.02676397935,0.03288906813,-0.008655018173,2024-06-05 16:52:53.224928
21.26541213,0.01371487509,0.02676397935,0.000133154128,2024-06-05 16:52:53.265412
21.30589354,-0.002529928461,0.001997311832,0.005725627299,2024-06-05 16:52:53.305894
21.346384,-0.0126496423,-0.006790860556,0.00998655986,2024-06-05 16:52:53.346384
21.38687072,-0.01637795754,-0.01078548469,0.01025286783,2024-06-05 16:52:53.386871
21.42734989,-0.00998655986,-0.005725627299,0.007057168987,2024-06-05 16:52:53.427350
21.4678363,0.001464695437,-0.008921326138,0.002529928461,2024-06-05 16:52:53.467836
21.50832453,0.007323476952,-0.01611164957,-0.0006657706108,2024-06-05 16:52:53.508325
21.54881187,0.009187635034,-0.01318225823,-0.002529928461,2024-06-05 16:52:53.548812
21.589299,0.004926702939,-0.01824211515,-0.006524552125,2024-06-05 16:52:53.589299
21.62977307,-0.002529928461,-0.004394086078,-0.005459319334,2024-06-05 16:52:53.629773
21.67026109,-0.0006657706108,-0.00599193573,-0.0126496423,2024-06-05 16:52:53.670261
21.71073906,-0.006258244161,-0.005725627299,-0.01691057347,2024-06-05 16:52:53.710739
21.75122541,-0.001198387123,0.01051917579,-0.01611164957,2024-06-05 16:52:53.751225
21.79169338,0.01051917579,0.004926702939,-0.01318225823,2024-06-05 16:52:53.791693
21.83218718,0.008655018173,-0.008655018173,-0.001997311832,2024-06-05 16:52:53.832187
21.87269515,0.00599193573,-0.01371487509,0.002263620263,2024-06-05 16:52:53.872695
21.91319432,-0.008655018173,-0.01105179265,0.00998655986,2024-06-05 16:52:53.913194
21.95366098,-0.01451379992,0.001731003635,0.006790860556,2024-06-05 16:52:53.953661
21.99414005,-0.0166442655,0.01105179265,0.008388710208,2024-06-05 16:52:53.994140
22.0346301,-0.008655018173,0.01877473295,0.002796236658,2024-06-05 16:52:54.034630
22.07511713,0.005725627299,0.02276935615,-0.003861469682,2024-06-05 16:52:54.075117
22.11560234,0.01504641678,0.01930734888,-0.006258244161,2024-06-05 16:52:54.115602
22.15608145,0.01957365684,0.01637795754,-0.005193010904,2024-06-05 16:52:54.156081
22.19656687,0.02623136342,0.01797580719,-0.008388710208,2024-06-05 16:52:54.196567
22.23705624,0.02276935615,0.01770949923,-0.01078548469,2024-06-05 16:52:54.237056
22.27754775,0.004127778113,0.01957365684,-0.002263620263,2024-06-05 16:52:54.277548
22.31803067,-0.02010627277,0.01797580719,0.008388710208,2024-06-05 16:52:54.318031
22.35851656,-0.02623136342,0.004926702939,0.01158440951,2024-06-05 16:52:54.358517
22.39900937,-0.03608476743,0.003062544856,0.01504641678,2024-06-05 16:52:54.399009
22.43951307,-0.03075860441,0.008921326138,0.01904104091,2024-06-05 16:52:54.439513
22.47997755,-0.01504641678,0.0171768833,0.0166442655,2024-06-05 16:52:54.479978
22.52045416,0.003328853287,0.02090519853,0.01744319126,2024-06-05 16:52:54.520454
22.56092025,0.01824211515,0.02489982173,0.01398118306,2024-06-05 16:52:54.560920
22.60141932,0.03288906813,0.00599193573,0.01025286783,2024-06-05 16:52:54.601419
22.64191645,0.03155753016,-0.003595161485,0.009453942999,2024-06-05 16:52:54.641916
22.68238676,0.02782921307,-0.008655018173,0.001198387123,2024-06-05 16:52:54.682387
22.72286598,0.02170412242,-0.005459319334,-0.005193010904,2024-06-05 16:52:54.722866
22.76335661,0.02276935615,0.001198387123,-0.01051917579,2024-06-05 16:52:54.763357
22.80383088,0.009187635034,-0.01211702544,-0.009453942999,2024-06-05 16:52:54.803831
22.84432213,0.002263620263,-0.01398118306,0.001997311832,2024-06-05 16:52:54.844322
22.88481791,-0.01291595027,0.0166442655,0.01584534161,2024-06-05 16:52:54.884818
22.92530546,-0.01424749196,0.01504641678,0.01611164957,2024-06-05 16:52:54.925305
22.96579239,-0.01105179265,0.01398118306,0.0126496423,2024-06-05 16:52:54.965792
23.00627692,-0.01105179265,0.01611164957,0.02170412242,2024-06-05 16:52:55.006277
23.04676478,-0.006258244161,0.01478010789,0.01930734888,2024-06-05 16:52:55.046765
23.08725114,0.005193010904,0.01291595027,0.0171768833,2024-06-05 16:52:55.087251
23.12773739,0.003062544856,0.008921326138,0.01131810062,2024-06-05 16:52:55.127737
23.1682252,0.009187635034,0.001997311832,-0.006258244161,2024-06-05 16:52:55.168225
23.20870739,0.01691057347,-0.005459319334,-0.02862813696,2024-06-05 16:52:55.208707
23.24918947,0.01185071748,0.002263620263,-0.03075860441,2024-06-05 16:52:55.249189
23.28966317,-0.006790860556,0.02942706272,-0.03155753016,2024-06-05 16:52:55.289663
23.33016182,-0.003328853287,0.02410089783,-0.02729659714,2024-06-05 16:52:55.330162
23.37062359,-0.009453942999,0.04540555924,-0.01211702544,2024-06-05 16:52:55.370624
23.41113421,0.0003994623839,0.0352858454,-0.01078548469,2024-06-05 16:52:55.411134
23.45159333,0.008122402243,-0.02037258074,0.001464695437,2024-06-05 16:52:55.451593
23.49209963,0.009453942999,-0.01025286783,0.01051917579,2024-06-05 16:52:55.492100
23.5325888,0.001997311832,-0.02463351376,0.0243672058,2024-06-05 16:52:55.532589
23.57306802,-0.003328853287,-0.04513924941,0.02197043039,2024-06-05 16:52:55.573068
23.61355395,-0.005459319334,-0.04380770773,0.01770949923,2024-06-05 16:52:55.613554
23.65405484,-0.007856093347,-0.01957365684,0.01611164957,2024-06-05 16:52:55.654055
23.69454364,-0.002529928461,0.000133154128,0.006258244161,2024-06-05 16:52:55.694544
23.73500468,0.004660394508,0.000133154128,-0.002529928461,2024-06-05 16:52:55.735005
23.77550505,-0.001198387123,0.003328853287,-0.000133154128,2024-06-05 16:52:55.775505
23.81599078,0.0006657706108,-0.008655018173,-0.000133154128,2024-06-05 16:52:55.815991
23.85647781,0.002796236658,-0.008921326138,0.004127778113,2024-06-05 16:52:55.856478
23.89695359,0.000932078925,-0.005725627299,0.006258244161,2024-06-05 16:52:55.896954
23.93745187,-0.008921326138,-0.005725627299,0.004660394508,2024-06-05 16:52:55.937452
23.97792176,-0.01051917579,-0.02489982173,-0.01025286783,2024-06-05 16:52:55.977922
24.01841109,-0.004127778113,-0.02862813696,-0.01584534161,2024-06-05 16:52:56.018411
24.05888525,0.003062544856,0.002796236658,-0.01424749196,2024-06-05 16:52:56.058885
24.09939275,0.003328853287,-0.01957365684,-0.01131810062,2024-06-05 16:52:56.099393
24.13986296,0.003062544856,-0.02942706272,-0.004660394508,2024-06-05 16:52:56.139863
24.18035281,0.006790860556,0.005459319334,-0.004660394508,2024-06-05 16:52:56.180353
24.22083228,0.01371487509,-0.01344856713,-0.01478010789,2024-06-05 16:52:56.220832
24.26133098,0.04380770773,-0.03288906813,-0.03661738336,2024-06-05 16:52:56.261331
24.30179604,0.0731016174,-0.0355521515,-0.05579157919,2024-06-05 16:52:56.301796
24.34230468,0.09840089828,-0.0323564522,-0.06058513001,2024-06-05 16:52:56.342305
24.38279114,0.1111836955,-0.0323564522,-0.07256899774,2024-06-05 16:52:56.382791
24.42327963,0.07576470077,-0.01398118306,-0.05659050494,2024-06-05 16:52:56.423280
24.46374213,0.05951989442,-0.001997311832,-0.02782921307,2024-06-05 16:52:56.463742
24.50424515,0.02623136342,0.03155753016,-0.003861469682,2024-06-05 16:52:56.504245
24.54471734,0.009453942999,0.02969337068,0.02170412242,2024-06-05 16:52:56.544717
24.5852127,-0.004127778113,0.06191666797,0.03901416063,2024-06-05 16:52:56.585213
24.62569583,-0.03501953557,0.02942706272,0.04274247587,2024-06-05 16:52:56.625696
24.66618536,-0.02703028731,-0.004127778113,0.06484606117,2024-06-05 16:52:56.666185
24.70666906,-0.03821523488,0.01957365684,0.08242240548,2024-06-05 16:52:56.706669
24.74716161,-0.03182383627,0.03395430371,0.1058575287,2024-06-05 16:52:56.747162
24.78765031,-0.004660394508,0.0171768833,0.09067796171,2024-06-05 16:52:56.787650
24.82812932,0.02117150649,-0.04860125855,0.04780233279,2024-06-05 16:52:56.828129
24.86860828,0.0541937314,-0.114113085,0.002263620263,2024-06-05 16:52:56.868608
24.90909234,0.07762885839,-0.1165098622,-0.04007939249,2024-06-05 16:52:56.909092
24.94959192,0.08774857223,-0.06031882018,-0.0355521515,2024-06-05 16:52:56.949592
24.99007348,0.07603100687,-0.0541937314,-0.0432750918,2024-06-05 16:52:56.990073
25.03054864,0.07203638554,-0.06351451576,-0.03981308267,2024-06-05 16:52:57.030549
25.07102666,0.06884068251,-0.0432750918,-0.03475322574,2024-06-05 16:52:57.071027
25.11153093,0.04833494872,-0.05978620425,-0.0275629051,2024-06-05 16:52:57.111531
25.15202411,0.02729659714,-0.06777545065,-0.0352858454,2024-06-05 16:52:57.152024
25.19250786,-0.000133154128,-0.04247616604,-0.02649767138,2024-06-05 16:52:57.192508
25.23298312,-0.00599193573,-0.03581846133,-0.03102491237,2024-06-05 16:52:57.232983
25.27347499,-0.03129122034,-0.01531272475,-0.02942706272,2024-06-05 16:52:57.273475
25.31396416,-0.0512643382,0.01344856713,-0.0275629051,2024-06-05 16:52:57.313964
25.35444603,-0.08641702682,0.06111774594,-0.03901416063,2024-06-05 16:52:57.354446
25.39492994,-0.1247654185,0.04167724028,-0.01983996481,2024-06-05 16:52:57.394930
25.43541036,-0.1322220564,-0.03901416063,-0.01691057347,2024-06-05 16:52:57.435410
25.475889,-0.146070078,-0.008921326138,-0.02942706272,2024-06-05 16:52:57.475889
25.51638015,-0.1391460598,-0.02197043039,-0.04114462435,2024-06-05 16:52:57.516380
25.55686723,-0.1194392517,-0.04220985994,-0.0352858454,2024-06-05 16:52:57.556867
25.59734624,-0.03768261895,0.01318225823,-0.003062544856,2024-06-05 16:52:57.597346
25.6378289,-0.04141093418,-0.01451379992,-0.05659050494,2024-06-05 16:52:57.637829
25.67831182,-0.02303566411,-0.03661738336,-0.04966649041,2024-06-05 16:52:57.678312
25.71880338,-0.02489982173,0.01105179265,-0.06324820966,2024-06-05 16:52:57.718803
25.75929926,-0.003328853287,-0.04806863889,-0.04860125855,2024-06-05 16:52:57.759299
25.79978614,0.006524552125,-0.02170412242,-0.01398118306,2024-06-05 16:52:57.799786
25.84028655,0.02117150649,0.01824211515,-0.002529928461,2024-06-05 16:52:57.840287
25.88079109,0.009453942999,0.03022598661,0.02995967865,2024-06-05 16:52:57.880791
25.92130379,-0.01025286783,0.04513924941,0.07416684926,2024-06-05 16:52:57.921304
25.96175874,-0.0003994623839,0.02916075476,0.04966649041,2024-06-05 16:52:57.961759
26.00226114,-0.01398118306,0.03129122034,0.05552527308,2024-06-05 16:52:58.002261
26.04283937,-0.002263620263,0.05525896326,0.05685681105,2024-06-05 16:52:58.042839
26.08323124,-0.000133154128,0.03182383627,0.06085143611,2024-06-05 16:52:58.083231
26.12369426,0.004394086078,0.03635107726,0.0323564522,2024-06-05 16:52:58.123694
26.16419973,-0.005193010904,0.03954677656,0.04061200842,2024-06-05 16:52:58.164200
26.20469635,0.0006657706108,0.0323564522,0.03688369319,2024-06-05 16:52:58.204696
26.24517817,-0.000133154128,0.0243672058,0.03768261895,2024-06-05 16:52:58.245178
26.28566447,0.009720250964,0.01983996481,0.02809552103,2024-06-05 16:52:58.285664
26.32617577,-0.006524552125,0.03581846133,0.02889444493,2024-06-05 16:52:58.326176
26.36663687,-0.001997311832,0.02995967865,0.02463351376,2024-06-05 16:52:58.366637
26.40710525,0.001731003635,0.01371487509,0.02995967865,2024-06-05 16:52:58.407105
26.44756749,0.02330197208,0.007856093347,0.02383458801,2024-06-05 16:52:58.447567
26.48806546,0.02623136342,-0.03422060981,0.0275629051,2024-06-05 16:52:58.488065
26.52857588,0.02809552103,-0.02463351376,0.01637795754,2024-06-05 16:52:58.528576
26.56904791,0.02942706272,0.002529928461,-0.001997311832,2024-06-05 16:52:58.569048
26.60956817,0.01744319126,-0.0541937314,-0.02250304818,2024-06-05 16:52:58.609568
26.65000978,0.001198387123,-0.02916075476,-0.03075860441,2024-06-05 16:52:58.650010
26.69053234,0.0171768833,0.01850842312,-0.05392742157,2024-06-05 16:52:58.690532
26.73100619,0.04460663348,-0.02303566411,-0.08348763734,2024-06-05 16:52:58.731006
26.77150905,0.0573894307,-0.005725627299,-0.08641702682,2024-06-05 16:52:58.771509
26.81196249,0.03661738336,-0.02410089783,-0.07283531129,2024-06-05 16:52:58.811962
26.85246947,0.007856093347,0.001997311832,-0.03262276202,2024-06-05 16:52:58.852469
26.89300478,-0.02170412242,0.005459319334,-0.01398118306,2024-06-05 16:52:58.893005
26.93349978,-0.03741630912,-0.028361829,-0.0006657706108,2024-06-05 16:52:58.933500
26.97395932,-0.05259587988,-0.000932078925,0.008122402243,2024-06-05 16:52:58.973959
27.01444103,-0.05019910634,-0.001997311832,0.009720250964,2024-06-05 16:52:59.014441
27.05490442,-0.05286218971,0.009720250964,0.03102491237,2024-06-05 16:52:59.054904
27.09542333,-0.04726971686,0.01611164957,0.04194355011,2024-06-05 16:52:59.095423
27.13587671,-0.02942706272,0.008655018173,0.04434032366,2024-06-05 16:52:59.135877
27.17633036,-0.006524552125,0.0126496423,0.02143781446,2024-06-05 16:52:59.176330
27.21682692,0.02063889056,0.009187635034,0.002263620263,2024-06-05 16:52:59.216827
27.25734838,0.03049229458,0.028361829,-0.003062544856,2024-06-05 16:52:59.257348
27.29786103,0.02489982173,0.04700340703,0.0006657706108,2024-06-05 16:52:59.297861
27.33828869,0.02809552103,0.0384815447,-0.002529928461,2024-06-05 16:52:59.338289
27.3787778,0.00998655986,0.02596505545,0.003595161485,2024-06-05 16:52:59.378778
27.41929077,0.0006657706108,0.003328853287,0.001997311832,2024-06-05 16:52:59.419291
27.45974968,-0.004394086078,0.000932078925,0.005459319334,2024-06-05 16:52:59.459750
27.50023103,-0.0003994623839,-0.003595161485,0.006524552125,2024-06-05 16:52:59.500231
27.54075088,-0.005725627299,-0.003328853287,0.007856093347,2024-06-05 16:52:59.540751
27.5812414,-0.0003994623839,0.0003994623839,0.01078548469,2024-06-05 16:52:59.581241
27.62172577,0.007589785382,0.009187635034,0.008655018173,2024-06-05 16:52:59.621726
27.66219874,0.005193010904,0.007856093347,0.01238333434,2024-06-05 16:52:59.662199
27.70266296,0.003595161485,0.008388710208,0.008655018173,2024-06-05 16:52:59.702663
27.74318567,-0.005193010904,0.01158440951,0.0126496423,2024-06-05 16:52:59.743186
27.78368593,-0.008122402243,-0.003595161485,0.01051917579,2024-06-05 16:52:59.783686
27.82417098,-0.007856093347,0.006524552125,0.01211702544,2024-06-05 16:52:59.824171
27.86463494,-0.028361829,-0.004127778113,0.01318225823,2024-06-05 16:52:59.864635
27.90512098,-0.02356828004,-0.0323564522,0.001997311832,2024-06-05 16:52:59.905121
27.94561635,-0.02303566411,-0.02276935615,-0.003062544856,2024-06-05 16:52:59.945616
27.98609515,-0.01691057347,-0.01557903271,-0.008122402243,2024-06-05 16:52:59.986095
28.02658041,0.01025286783,0.003595161485,-0.01371487509,2024-06-05 16:53:00.026580
28.06709129,0.03874785081,0.01850842312,-0.02063889056,2024-06-05 16:53:00.067091
28.10755822,0.09600412846,0.007057168987,-0.03741630912,2024-06-05 16:53:00.107558
28.14804791,0.1300915778,0.006524552125,-0.03874785081,2024-06-05 16:53:00.148048
28.18853025,0.1541924775,0.01877473295,-0.03448691964,2024-06-05 16:53:00.188530
28.22901166,0.1568555683,0.02223674022,-0.02010627277,2024-06-05 16:53:00.229012
28.26948614,0.1335535944,-0.02117150649,-0.02170412242,2024-06-05 16:53:00.269486
28.30999452,0.1447385401,-0.01424749196,-0.02969337068,2024-06-05 16:53:00.309995
28.35050463,0.04540555924,-0.05206326395,-0.1167761683,2024-06-05 16:53:00.350505
28.39097327,-0.09307473898,-0.2376801223,-0.208119899,2024-06-05 16:53:00.390973
28.43145234,-0.3692364097,-0.4002613127,-0.3914731443,2024-06-05 16:53:00.431452
28.47195338,-0.5858781338,-0.1615159512,-0.4149082601,2024-06-05 16:53:00.471953
28.51242489,-0.7331466079,-0.3194367588,-0.590139091,2024-06-05 16:53:00.512425
28.55286978,-0.9254211783,-0.3922720551,-0.6671021581,2024-06-05 16:53:00.552870
28.59336343,-1.022091031,-0.2435389012,-0.7432663441,2024-06-05 16:53:00.593363
28.63385379,-1.04872191,-0.2723001838,-0.6436670423,2024-06-05 16:53:00.633854
28.67433161,-1.090132833,-0.2472672164,-0.5472634435,2024-06-05 16:53:00.674332
28.71481926,-1.110372305,-0.264310956,-0.4002613127,2024-06-05 16:53:00.714819
28.75530827,-1.078148961,-0.4010602236,-0.204924196,2024-06-05 16:53:00.755308
28.79579791,-1.110372305,-0.522763133,-0.1146457046,2024-06-05 16:53:00.795798
28.83638885,-1.114633203,-0.4756265581,-0.0731016174,2024-06-05 16:53:00.836389
28.87680426,-1.089333892,-0.4306204617,-0.02276935615,2024-06-05 16:53:00.876804
28.91728119,-1.119426727,-0.4039896131,-0.01424749196,2024-06-05 16:53:00.917281
28.95776905,-1.118627787,-0.4862788618,-0.03209014609,2024-06-05 16:53:00.957769
28.99822671,-1.169226408,-0.47056669,-0.02942706272,2024-06-05 16:53:00.998227
29.03872036,-1.189998388,-0.5126433969,-0.03288906813,2024-06-05 16:53:01.038720
29.0792189,-1.213699818,-0.5017247796,-0.03954677656,2024-06-05 16:53:01.079219
29.11970708,-1.297320724,-0.3657743931,-0.04380770773,2024-06-05 16:53:01.119707
29.16017661,-1.393458009,-0.4644415975,-0.04860125855,2024-06-05 16:53:01.160177
29.20068582,-1.416094184,-0.4955996573,-0.08055824786,2024-06-05 16:53:01.200686
29.24115374,-1.389463305,-0.3989297748,-0.07390054315,2024-06-05 16:53:01.241154
29.28165645,-1.354044318,-0.248865068,-0.04966649041,2024-06-05 16:53:01.281656
29.32214577,-1.219026089,-0.01424749196,-0.06298190355,2024-06-05 16:53:01.322146
29.36262473,-1.080812097,0.04167724028,-0.04753602296,2024-06-05 16:53:01.362625
29.40313447,-1.098654747,0.04300878197,0.0003994623839,2024-06-05 16:53:01.403134
29.44360484,-0.9541825056,-0.1114500016,-0.05153064802,2024-06-05 16:53:01.443605
29.48408332,-0.8449960947,-0.3186378181,-0.1362166703,2024-06-05 16:53:01.484083
29.5245678,-0.8202294111,-0.4135767221,-0.1271621883,2024-06-05 16:53:01.524568
29.56506182,-0.758179605,-0.3306216896,-0.08801487833,2024-06-05 16:53:01.565062
29.60554562,-0.6900047064,-0.3748288751,-0.1170424819,2024-06-05 16:53:01.605546
29.64602885,-0.6058512926,-0.329023838,-0.1830869317,2024-06-05 16:53:01.646029
29.68652353,-0.531817615,-0.3625786901,-0.1838858575,2024-06-05 16:53:01.686524
29.72701286,-0.4613790512,-0.3292901516,-0.1407439113,2024-06-05 16:53:01.727013
29.76750603,-0.403323859,-0.2161091566,-0.1500647068,2024-06-05 16:53:01.767506
29.80798499,-0.4035901725,-0.1114500016,-0.2358159572,2024-06-05 16:53:01.807985
29.84850036,-0.4059869349,-0.1007976755,-0.2342181057,2024-06-05 16:53:01.848500
29.889024,-0.412378341,-0.05872096866,-0.2009295821,2024-06-05 16:53:01.889024
29.92945468,-0.3756277859,-0.1497983932,-0.149265781,2024-06-05 16:53:01.929455
29.9699603,-0.3149095178,-0.1207707971,-0.07150376588,2024-06-05 16:53:01.969960
30.01042697,-0.2113156021,0.1023955271,-0.09840089828,2024-06-05 16:53:02.010427
30.05092754,-0.1945381761,0.06697652489,-0.1790923029,2024-06-05 16:53:02.050928
30.09138494,-0.1700378209,0.06191666797,-0.1993317306,2024-06-05 16:53:02.091385
30.13185244,-0.2906754613,0.1817553788,-0.1276948154,2024-06-05 16:53:02.131852
30.17234333,-0.3346163332,0.1418091506,-0.07549838722,2024-06-05 16:53:02.172343
30.21283072,-0.149265781,0.1087869257,-0.1716356725,2024-06-05 16:53:02.212831
30.25332447,-0.138347134,0.1364829838,-0.1063901484,2024-06-05 16:53:02.253324
30.29384463,-0.2155765295,0.1663095057,-0.04274247587,2024-06-05 16:53:02.293845
30.33435473,-0.1023955271,0.1420754492,-0.03635107726,2024-06-05 16:53:02.334355
30.37482254,-0.03315537795,0.1388797611,-0.01371487509,2024-06-05 16:53:02.374823
30.41533421,-0.01211702544,0.221035853,-0.04087831825,2024-06-05 16:53:02.415334
30.45580374,-0.02489982173,0.2551233172,-0.01318225823,2024-06-05 16:53:02.455804
30.4962839,-0.08215609938,0.3227656186,0.000932078925,2024-06-05 16:53:02.496284
30.536749,-0.079493016,0.5147738457,-0.06697652489,2024-06-05 16:53:02.536749
30.57726098,0.0243672058,0.5427362323,-0.09919982404,2024-06-05 16:53:02.577261
30.61773593,0.0126496423,0.7531197667,-0.07390054315,2024-06-05 16:53:02.617736
30.65826025,-0.04380770773,0.854450047,-0.02995967865,2024-06-05 16:53:02.658260
30.69868593,0.01185071748,0.8244903684,-0.08508548886,2024-06-05 16:53:02.698686
30.73925155,0.006258244161,0.4916050434,-0.1671084315,2024-06-05 16:53:02.739252
30.77969728,-0.03928046674,0.4380770922,-0.1284937263,2024-06-05 16:53:02.779697
30.82016838,0.06058513001,0.8485912681,0.03448691964,2024-06-05 16:53:02.820168
30.86067353,0.08242240548,1.094926357,0.02197043039,2024-06-05 16:53:02.860674
30.90112999,0.2607157826,1.119693041,0.002529928461,2024-06-05 16:53:02.901130
30.94163015,0.4820179343,1.29332602,0.1447385401,2024-06-05 16:53:02.941630
30.98211848,0.7817478776,1.426746488,0.2659088075,2024-06-05 16:53:02.982118
31.02261869,0.8986572027,1.449782133,0.3045234978,2024-06-05 16:53:03.022619
31.06311806,0.8653686643,1.39425683,0.2211690098,2024-06-05 16:53:03.063118
31.10360239,0.9417991638,1.248319983,0.07709623873,2024-06-05 16:53:03.103602
31.14409041,0.7014559507,0.8773525357,-0.2557890713,2024-06-05 16:53:03.144090
31.18456984,0.292140156,0.7784190178,-0.5675029159,2024-06-05 16:53:03.184570
31.22506098,0.01877473295,0.4308867455,-0.6274222732,2024-06-05 16:53:03.225061
31.26562749,-0.162847504,0.2956021726,-0.5893401504,2024-06-05 16:53:03.265627
31.30600338,-0.2232994735,0.2532591522,-0.5797531009,2024-06-05 16:53:03.306003
31.34650499,-0.1007976755,0.2252967805,-0.5248935819,2024-06-05 16:53:03.346505
31.38701322,0.4106473327,0.2825530469,-0.4979964495,2024-06-05 16:53:03.387013
31.4274639,0.546730876,0.3491301239,-0.4900071919,2024-06-05 16:53:03.427464
31.46795171,0.4178376496,0.2497971505,-0.3909405172,2024-06-05 16:53:03.467952
31.50845385,0.2777595222,0.1511299312,-0.3725652397,2024-06-05 16:53:03.508454
31.54895588,-0.168706283,0.4149082601,-0.2913412452,2024-06-05 16:53:03.548956
31.58942119,-0.4742949903,0.2740311921,-0.1945381761,2024-06-05 16:53:03.589421
31.63005119,-0.6979939342,0.51956743,-0.0621829778,2024-06-05 16:53:03.630051
31.67041275,-0.9368724227,0.9101084471,0.09174319357,2024-06-05 16:53:03.670413
31.71091291,-1.053249121,0.8784177899,0.02569874749,2024-06-05 16:53:03.710913
31.75139822,-0.5363448262,0.6119763851,-0.1559234858,2024-06-05 16:53:03.751398
31.79188249,-0.3902747631,0.1391460598,-0.3845491111,2024-06-05 16:53:03.791882
31.83233598,-0.5400731564,0.4173050225,-0.01291595027,2024-06-05 16:53:03.832336
31.87286504,-0.4323514402,0.9276847839,-0.04487293959,2024-06-05 16:53:03.872865
31.91335734,-0.2821536064,0.6391398311,-0.156456098,2024-06-05 16:53:03.913357
31.95385296,-0.3069202602,0.5664376616,0.01131810062,2024-06-05 16:53:03.953853
31.99429187,-0.5366111398,0.4111799598,0.005725627299,2024-06-05 16:53:03.994292
32.03476911,-0.7456631064,0.3744294047,0.05925358832,2024-06-05 16:53:04.034769
32.07527161,-0.5488613248,0.9465926886,0.2163754553,2024-06-05 16:53:04.075272
32.11577385,-0.258452177,1.064833522,0.1351514459,2024-06-05 16:53:04.115774
32.15626598,-0.2382127345,0.903717041,-0.06724283099,2024-06-05 16:53:04.156266
32.19669614,-0.5129097104,0.4830831885,-0.008122402243,2024-06-05 16:53:04.196696
32.2372215,-0.5509917736,0.7235595584,0.1101184636,2024-06-05 16:53:04.237221
32.27772671,-0.1002650559,0.8664339185,0.005193010904,2024-06-05 16:53:04.277727
32.31822494,-0.3958672285,0.3717663288,-0.2451367527,2024-06-05 16:53:04.318225
32.3586701,-0.5398068428,0.4806863964,-0.2182396203,2024-06-05 16:53:04.358670
32.39919015,-0.5387415886,0.4982627332,-0.1450048387,2024-06-05 16:53:04.399190
32.43963416,-0.4499278069,0.6002588272,-0.1918751001,2024-06-05 16:53:04.439634
32.48014572,-0.3226324618,0.5730953813,-0.2982652485,2024-06-05 16:53:04.480146
32.5206264,-0.3950682878,0.3997286856,-0.321167767,2024-06-05 16:53:04.520626
32.5611365,-0.4288894534,0.4948007464,-0.261115253,2024-06-05 16:53:04.561137
32.60161905,-0.1117163152,0.231421873,-0.2918738425,2024-06-05 16:53:04.601619
32.64210697,0.5406057835,-0.3999949992,-0.02862813696,2024-06-05 16:53:04.642107
32.68258588,1.066697717,-0.02543243766,0.5200999975,2024-06-05 16:53:04.682586
32.72307234,2.439250469,0.9612396359,0.432484597,2024-06-05 16:53:04.723072
32.7636153,2.565214157,0.1679073572,0.4375444651,2024-06-05 16:53:04.763615
32.8040277,2.121012211,1.864690423,0.7752233148,2024-06-05 16:53:04.804028
32.8445277,1.405841231,0.7395380139,1.046724558,2024-06-05 16:53:04.844528
32.88502343,0.8073135018,0.2607157826,0.8447297812,2024-06-05 16:53:04.885023
32.92549817,0.4897408783,-0.8908011317,1.007310987,2024-06-05 16:53:04.925498
32.96598577,0.1223686412,-1.306907773,0.9758865833,2024-06-05 16:53:04.965986
33.00648947,-0.01051917579,-1.405708075,0.6191666722,2024-06-05 16:53:05.006489
33.04694963,-0.2909417748,-1.349250793,0.2645772398,2024-06-05 16:53:05.046950
33.08746697,-0.8255556226,-0.8199630976,-0.132488355,2024-06-05 16:53:05.087467
33.12795567,-0.7469946742,-0.6615096927,-0.3797555864,2024-06-05 16:53:05.127956
33.16846812,-0.3250292242,-0.6939992905,-0.153793022,2024-06-05 16:53:05.168468
33.20890885,-0.4549876451,-1.148187995,0.1793586165,2024-06-05 16:53:05.208909
33.24941827,-0.638607204,-0.4793548584,0.3117138147,2024-06-05 16:53:05.249418
33.28990812,-0.5216978788,0.1247654185,-0.0621829778,2024-06-05 16:53:05.289908
33.33036869,-0.3924052119,-0.4481967986,-0.6159709692,2024-06-05 16:53:05.330369
33.37087723,0.1541924775,-0.1924077123,-0.03768261895,2024-06-05 16:53:05.370877
33.41135379,-0.3346163332,1.006778359,-0.6335473657,2024-06-05 16:53:05.411354
33.45181822,-0.3410077095,-0.46018067,-2.400369406,2024-06-05 16:53:05.451818
33.49235911,-0.2704360485,-4.276378155,-1.316761136,2024-06-05 16:53:05.492359
33.53283593,-1.215297699,-2.194380045,0.07443315536,2024-06-05 16:53:05.532836
33.57332192,-0.7129071951,1.904902935,0.7504566908,2024-06-05 16:53:05.573322
33.61380494,-0.9770849943,2.495974064,0.6939992905,2024-06-05 16:53:05.613805
33.65429223,-0.6758903265,0.2043915838,-0.1929403245,2024-06-05 16:53:05.654292
33.69477671,-0.4710993171,0.6780208349,-0.31024912,2024-06-05 16:53:05.694777
33.73523822,-0.4027912319,0.822892487,-0.1721682847,2024-06-05 16:53:05.735238
33.77575463,-0.1862826198,0.5792204738,-0.4146419466,2024-06-05 16:53:05.775755
33.81624859,0.0003994623839,0.31024912,-0.07177007198,2024-06-05 16:53:05.816249
33.85673082,-0.2709686458,0.912771523,0.2517944574,2024-06-05 16:53:05.856731
33.8972102,-0.07070484012,0.7712287307,0.07123745978,2024-06-05 16:53:05.897210
33.93767978,0.8153027296,1.026218891,-0.028361829,2024-06-05 16:53:05.937680
33.9781715,1.172155738,1.050452948,0.1351514459,2024-06-05 16:53:05.978172
34.01868478,1.872147083,1.445254922,0.2363485843,2024-06-05 16:53:06.018685
34.05921978,2.3116889,1.658567786,0.4718982279,2024-06-05 16:53:06.059220
34.09967025,1.50890255,1.354310632,0.5310186744,2024-06-05 16:53:06.099670
34.14011754,0.7184996605,0.7698971629,0.458316505,2024-06-05 16:53:06.140118
34.18059879,0.1877473146,0.4242290556,0.6364767551,2024-06-05 16:53:06.180599
34.22109603,-0.1671084315,-0.1838858575,0.6604444981,2024-06-05 16:53:06.221096
34.26158697,-0.2975994647,-0.8995893002,0.4929365814,2024-06-05 16:53:06.261587
34.30208015,-0.4844147265,-1.009974003,0.4210333526,2024-06-05 16:53:06.302080
34.34257077,-0.9227581024,-0.7834789157,0.1223686412,2024-06-05 16:53:06.342571
34.38307098,-0.6543194056,-1.424083352,-0.1964023411,2024-06-05 16:53:06.383071
34.42356473,-0.3812202811,-0.8015878797,-0.2342181057,2024-06-05 16:53:06.423565
34.46407405,0.1712362021,-0.853251636,-0.1255643368,2024-06-05 16:53:06.464074
34.50451338,0.4359466136,-1.882799387,0.2794905007,2024-06-05 16:53:06.504513
34.54498978,-0.03768261895,-0.9592423439,0.1258306503,2024-06-05 16:53:06.544990
34.58547437,-0.3782908916,-0.7182333469,-0.4404738545,2024-06-05 16:53:06.585474
34.62598437,0.1274285018,-1.008376241,-0.3331516385,2024-06-05 16:53:06.625984
34.66644562,-0.7757559419,0.3081186414,-0.535279572,2024-06-05 16:53:06.666446
34.7069377,-0.6588466167,1.007843614,-0.92741853,2024-06-05 16:53:06.706938
34.74741932,-0.4006607831,-1.993317246,-0.7912018299,2024-06-05 16:53:06.747419
34.78793515,-0.4870778024,-2.054301977,-0.1745650619,2024-06-05 16:53:06.787935
34.82839306,-0.4852136374,-1.224618554,0.03288906813,2024-06-05 16:53:06.828393
34.86889999,-0.5477960706,-1.154313087,0.1972012669,2024-06-05 16:53:06.868900
34.90940119,-0.5400731564,-0.4141093493,0.4418053925,2024-06-05 16:53:06.909401
34.94989822,-0.6740261912,0.1268958896,0.4125114977,2024-06-05 16:53:06.949898
34.99034905,-0.9318125844,-0.1684399694,0.09467258304,2024-06-05 16:53:06.990349
35.03083562,-0.8266208172,-0.4993279874,-0.2659088075,2024-06-05 16:53:07.030836
35.07132536,-0.6982602477,-0.4332835376,-0.3589835167,2024-06-05 16:53:07.071325
35.11181228,-0.6058512926,-0.3021267056,-0.3318201005,2024-06-05 16:53:07.111812
35.15229187,-0.07496577501,-0.07070484012,-0.2696371078,2024-06-05 16:53:07.152292
35.19283843,0.1058575287,0.04274247587,-0.1567224115,2024-06-05 16:53:07.192838
35.23330025,0.5776225924,0.1569887102,0.09174319357,2024-06-05 16:53:07.233300
35.27373051,1.744851708,-0.4186365902,0.2595174015,2024-06-05 16:53:07.273731
35.31425744,2.701431036,0.1479342431,0.5339480639,2024-06-05 16:53:07.314257
35.3547428,2.783720255,0.7139724493,0.7725602388,2024-06-05 16:53:07.354743
35.3952401,1.856701136,1.885728717,0.475093931,2024-06-05 16:53:07.395240
35.43568379,1.35937047,0.4271584451,0.5667039752,2024-06-05 16:53:07.435684
35.47621879,0.9673647285,-0.03422060981,0.9019860625,2024-06-05 16:53:07.476219
35.5166964,0.6567161679,-1.122356176,1.095991611,2024-06-05 16:53:07.516696
35.55719822,0.319303602,-1.205178022,0.8149032593,2024-06-05 16:53:07.557198
35.59768265,-0.264310956,-0.9800143838,0.4732297659,2024-06-05 16:53:07.597683
35.63814296,-0.7121082544,-1.093861103,-0.1489994675,2024-06-05 16:53:07.638143
35.67867895,-0.9746882319,-1.242194891,-0.6889394522,2024-06-05 16:53:07.678679
35.71912713,-0.2975994647,-0.5738942623,-0.4252942801,2024-06-05 16:53:07.719127
35.75964291,0.2870802879,-1.444056511,0.2211690098,2024-06-05 16:53:07.759643
35.80012301,-0.2270277888,0.1165098622,0.171901986,2024-06-05 16:53:07.800123
35.8405965,-1.089333892,0.641802907,-0.874556303,2024-06-05 16:53:07.840596
35.88109978,0.08162347972,0.4119788706,-0.4095821083,2024-06-05 16:53:07.881100
35.92156192,-0.9808133245,0.4450010955,-0.6034545302,2024-06-05 16:53:07.921562
35.96204723,-0.4509930313,-0.7192986012,-1.124752879,2024-06-05 16:53:07.962047
36.00255582,-1.713959932,-4.173050404,-0.5424699187,2024-06-05 16:53:08.002556
36.04304582,-0.9472584724,-0.01770949923,0.4780233204,2024-06-05 16:53:08.043046
36.08354582,-1.068428755,0.2455362082,0.687607944,2024-06-05 16:53:08.083546
36.12400192,-0.8247566819,0.7517881989,0.5006595254,2024-06-05 16:53:08.124002
36.16450504,-0.7049179673,0.663906455,0.1561897993,2024-06-05 16:53:08.164505
36.20497374,-0.9155677557,0.05872096866,-0.1585865617,2024-06-05 16:53:08.204974
36.24549708,-1.397718906,-0.6375419497,-0.2326202542,2024-06-05 16:53:08.245497
36.28594426,-0.6500584483,0.01078548469,-0.4378107786,2024-06-05 16:53:08.285944
36.32643744,0.05259587988,0.1418091506,-0.5488613248,2024-06-05 16:53:08.326437
36.36693812,0.186149478,-0.2499302924,-0.09121058136,2024-06-05 16:53:08.366938
36.40740364,0.9255543351,0.09919982404,0.5651060939,2024-06-05 16:53:08.407404
36.44787369,2.414217472,0.002529928461,0.568834424,2024-06-05 16:53:08.447874
36.4884151,3.113409758,0.084020257,0.5640408993,2024-06-05 16:53:08.488415
36.52893629,2.883585691,2.858819246,0.4535229504,2024-06-05 16:53:08.528936
36.56937166,2.034195662,1.335136414,0.2675066292,2024-06-05 16:53:08.569372
36.60986687,1.613561749,0.3414071798,0.2083862126,2024-06-05 16:53:08.609867
36.65035197,1.053382277,-0.1892120093,0.6492595077,2024-06-05 16:53:08.650352
36.69085718,0.5062519908,-0.8852086663,0.6580476761,2024-06-05 16:53:08.690857
36.73131249,-0.07762885839,-0.9043828249,0.4809527099,2024-06-05 16:53:08.731312
36.7718153,-0.8276860714,-0.4865451753,0.05659050494,2024-06-05 16:53:08.771815
36.81231499,-1.378278375,-0.9161003828,-0.3038577139,2024-06-05 16:53:08.812315
36.85278588,-1.285336852,-0.388410598,-0.3675054014,2024-06-05 16:53:08.852786
36.89328025,-0.4067858756,0.1806901544,-0.08322133124,2024-06-05 16:53:08.893280
36.93375557,0.1475347728,-0.9445953965,0.4684362113,2024-06-05 16:53:08.933756
36.97426114,-0.1620485783,0.09067796171,-0.07123745978,2024-06-05 16:53:08.974261
37.01473155,-0.9744219184,0.3334179223,-0.6090469956,2024-06-05 16:53:09.014732
37.05522056,-0.3801550269,1.103714585,-0.2480661422,2024-06-05 16:53:09.055221
37.09572754,-0.8372731805,0.6157047153,-0.5741605759,2024-06-05 16:53:09.095728
37.13623463,-0.7115756869,-2.406494617,-0.7110430598,2024-06-05 16:53:09.136235
37.17672853,-1.90303874,-1.748047352,-0.1263632625,2024-06-05 16:53:09.176729
37.21717728,-0.8916000128,1.256042838,0.6410039663,2024-06-05 16:53:09.217177
37.25766624,-1.27255404,-0.004926702939,0.5011921525,2024-06-05 16:53:09.257666
37.29814697,-0.6537867785,0.5973294377,0.2667077184,2024-06-05 16:53:09.298147
37.33865348,-0.6322157979,0.5208989382,0.09387365729,2024-06-05 16:53:09.338653
37.37913619,-0.7967942953,0.2335523367,-0.01584534161,2024-06-05 16:53:09.379136
37.4196027,-1.347652912,0.1077216864,-0.01691057347,2024-06-05 16:53:09.419603
37.46010015,-0.8519201279,0.481485337,-0.1804238409,2024-06-05 16:53:09.460100
37.50058244,-0.07230269164,0.2758953571,-0.5033226013,2024-06-05 16:53:09.500582
37.54107921,-0.02383458801,-0.1271621883,-0.07603100687,2024-06-05 16:53:09.541079
37.5815615,0.5605788827,-0.1085206121,0.2059894353,2024-06-05 16:53:09.581561
37.62204202,1.621817231,-0.2137123793,0.5078498721,2024-06-05 16:53:09.622042
37.662529,3.143502712,-0.1213034093,0.3029256463,2024-06-05 16:53:09.662529
37.7030189,3.145899534,1.779471755,0.1484668553,2024-06-05 16:53:09.703019
37.74350744,2.736317396,1.312500238,-0.06138405204,2024-06-05 16:53:09.743507
37.78402067,2.051239252,0.2503297627,0.0126496423,2024-06-05 16:53:09.784021
37.82447312,1.544055223,0.3051892519,0.2147776037,2024-06-05 16:53:09.824473
37.86499947,0.6814828515,-0.5451329947,0.5350132585,2024-06-05 16:53:09.864999
37.90558296,0.06111774594,-0.7611089945,0.6111774445,2024-06-05 16:53:09.905583
37.94597208,-0.572030127,-0.4444684684,0.5134423375,2024-06-05 16:53:09.945972
37.9864553,-1.130345345,-0.663107574,0.08481918275,2024-06-05 16:53:09.986455
38.02693708,-1.037803292,-1.046191931,-0.1284937263,2024-06-05 16:53:10.026937
38.06742546,-0.6250254512,-0.541138351,-0.2862813771,2024-06-05 16:53:10.067425
38.10791004,-0.5030562878,-0.5659050345,0.1753639877,2024-06-05 16:53:10.107910
38.14841869,0.06777545065,-0.4942681193,0.4695014656,2024-06-05 16:53:10.148419
38.18889218,-0.5970631242,-0.02063889056,-0.1745650619,2024-06-05 16:53:10.188892
38.22938405,-0.4631100595,0.02889444493,-0.2408758104,2024-06-05 16:53:10.229384
38.26988765,-0.4485962689,1.225151181,-0.209451437,2024-06-05 16:53:10.269888
38.31035291,-1.000786424,1.195857167,-0.6796186566,2024-06-05 16:53:10.310353
38.35084536,-0.9677641988,-1.133541107,-0.4628437459,2024-06-05 16:53:10.350845
38.39134442,-2.012225151,-1.839657426,0.2003969699,2024-06-05 16:53:10.391344
38.43179525,-1.186270118,1.085605621,0.5033226013,2024-06-05 16:53:10.431795
38.4722964,-0.7629731297,0.7003906965,0.46018067,2024-06-05 16:53:10.472296
38.51283515,-0.7805495262,1.467624784,0.340608269,2024-06-05 16:53:10.512835
38.5533053,-0.6109111309,1.307973027,0.1916087866,2024-06-05 16:53:10.553305
38.59376015,-0.6588466167,1.146856546,0.06724283099,2024-06-05 16:53:10.593760
38.63427192,-0.834343791,0.5717638135,-0.0954715088,2024-06-05 16:53:10.634272
38.67473801,-1.032743454,0.443403244,-0.02809552103,2024-06-05 16:53:10.674738
38.71522557,-0.9533835649,0.6982602477,-0.07869409025,2024-06-05 16:53:10.715226
38.75572416,-0.1386134475,0.6226286888,-0.2833519876,2024-06-05 16:53:10.755724
38.79620598,-0.1532603949,0.4071853161,0.09946613014,2024-06-05 16:53:10.796206
38.83672051,-0.1191729456,0.672162056,0.2001306564,2024-06-05 16:53:10.836721
38.87720812,0.9969249368,0.2439383566,0.3362141848,2024-06-05 16:53:10.877208
38.91768687,2.794905186,0.3155752718,0.3101159632,2024-06-05 16:53:10.917687
38.95816124,3.110746622,0.9226249456,0.1271621883,2024-06-05 16:53:10.958161
38.99876202,2.84497118,2.695572138,0.08268871158,2024-06-05 16:53:10.998762
39.03916056,2.333792448,0.8236914277,-0.1969349533,2024-06-05 16:53:11.039161
39.07965155,1.63513267,0.8722926974,-0.1194392517,2024-06-05 16:53:11.079652
39.12016291,1.144459724,-0.1471353173,0.167374745,2024-06-05 16:53:11.120163
39.16062353,0.5019910336,-0.5762910843,0.171901986,2024-06-05 16:53:11.160624
39.20108405,-0.0845528692,-0.2768274248,0.3469996452,2024-06-05 16:53:11.201084
39.24158864,-0.696662426,-0.01211702544,0.1604507267,2024-06-05 16:53:11.241589
39.28207223,-1.323951483,-0.2661750913,-0.2793573737,2024-06-05 16:53:11.282072
39.32258051,-1.463497043,-0.6553846002,-0.5427362323,2024-06-05 16:53:11.322581
39.36305119,-0.7621742487,0.3632444739,-0.4119788706,2024-06-05 16:53:11.363051
39.40357223,0.02623136342,-0.2392779738,0.5067846179,2024-06-05 16:53:11.403572
39.44408004,0.117308788,-0.3029256463,0.06351451576,2024-06-05 16:53:11.444080
39.48454098,-0.2014621943,-0.5754921436,-0.31024912,2024-06-05 16:53:11.484541
39.52505046,-0.4059869349,0.07975932211,-0.1002650559,2024-06-05 16:53:11.525050
39.56550926,-1.29252708,1.44658649,-0.2105166763,2024-06-05 16:53:11.565509
39.60599004,-0.7211627364,-0.5965304971,-0.3382114768,2024-06-05 16:53:11.605990
39.64648598,-1.421686649,-2.539382458,-0.294803232,2024-06-05 16:53:11.646486
39.68693786,-0.523029387,0.7211627364,0.01238333434,2024-06-05 16:53:11.686938
39.72744182,-1.058042645,-0.1034607589,0.3390104175,2024-06-05 16:53:11.727442
39.76796015,-0.9046491385,0.6428681016,0.5816172361,2024-06-05 16:53:11.767960
39.80846682,-0.828751266,0.9298152924,0.3252955377,2024-06-05 16:53:11.808467
39.84893624,-0.6636402011,0.9681636691,-0.04354140162,2024-06-05 16:53:11.848936
39.88941244,-0.8005226254,0.4545882046,-0.1346188188,2024-06-05 16:53:11.889412
39.92990947,-1.159639359,0.4039896131,-0.06431344151,2024-06-05 16:53:11.929909
39.97037879,-0.715570271,0.7605763674,-0.09174319357,2024-06-05 16:53:11.970379
40.0108615,0.08162347972,0.3565867543,-0.1615159512,2024-06-05 16:53:12.010861
40.0513753,-0.04487293959,0.429821521,0.1713693589,2024-06-05 16:53:12.051375
40.09184265,-0.2627131045,0.5059856772,0.4159734845,2024-06-05 16:53:12.091843
40.13235833,0.3840165138,0.127961114,0.258452177,2024-06-05 16:53:12.132358
40.17284265,2.005167961,1.039800644,0.1665758193,2024-06-05 16:53:12.172843
40.21332202,2.799165964,0.4404738545,-0.03954677656,2024-06-05 16:53:12.213322
40.25380046,3.001826763,2.148708105,-0.1165098622,2024-06-05 16:53:12.253800
40.2943128,2.643109322,1.449249506,-0.1993317306,2024-06-05 16:53:12.294313
40.3347752,1.553908706,0.9713593721,-0.1910761744,2024-06-05 16:53:12.334775
40.3752914,0.7828131318,0.7312824726,0.04913387448,2024-06-05 16:53:12.375291
40.4157226,0.1994648874,0.03581846133,0.1716356725,2024-06-05 16:53:12.415723
40.45626666,-0.2877460718,0.1130478531,0.09946613014,2024-06-05 16:53:12.456267
40.49674572,-0.9533835649,0.6183677912,-0.08109086752,2024-06-05 16:53:12.496746
40.5372453,-1.229145765,0.3595161438,-0.3065207899,2024-06-05 16:53:12.537245
40.57773682,-1.296521783,-0.4862788618,-0.28574875,2024-06-05 16:53:12.577737
40.61822218,-0.8908011317,0.08109086752,-0.4652405083,2024-06-05 16:53:12.618222
40.65870926,-0.2624467909,0.7480598688,0.2632457018,2024-06-05 16:53:12.658709
40.69920275,0.07975932211,0.1199718714,0.3733641803,2024-06-05 16:53:12.699203
40.73966093,-0.03049229458,-1.250450373,-0.253392309,2024-06-05 16:53:12.739661
40.780169,-0.3649754524,-0.4463326335,-0.173233524,2024-06-05 16:53:12.780169
40.82066905,-0.9805470109,0.6764229536,0.1543256342,2024-06-05 16:53:12.820669
40.86112827,-1.156177282,0.869363308,0.2137123793,2024-06-05 16:53:12.861128
40.90164379,-0.9091764092,-0.828751266,0.007589785382,2024-06-05 16:53:12.901644
40.94208582,-0.2099840641,-0.3772256374,-0.3491301239,2024-06-05 16:53:12.942086
40.98262536,-0.6596455574,0.3230319023,0.006790860556,2024-06-05 16:53:12.982625
41.02311187,-1.028748751,0.6093133092,0.3784240186,2024-06-05 16:53:13.023112
41.06357838,-0.773625493,1.285336852,0.6564498544,2024-06-05 16:53:13.063578
41.10409041,-0.5219641924,1.524082184,0.3850817382,2024-06-05 16:53:13.104090
41.14457484,-0.5730953813,1.733400464,0.1250317246,2024-06-05 16:53:13.144575
41.1850789,-0.7174344659,1.280010581,0.1061238423,2024-06-05 16:53:13.185079
41.22555036,-0.7935985923,1.071757555,0.01611164957,2024-06-05 16:53:13.225550
41.26603411,-0.7848104239,0.9380708337,-0.05872096866,2024-06-05 16:53:13.266034
41.30653176,-0.5813509226,1.096790552,-0.02623136342,2024-06-05 16:53:13.306532
41.34700562,-0.4565854967,1.149253249,-0.000932078925,2024-06-05 16:53:13.347006
41.38751499,-0.1916087866,0.9971912503,0.03608476743,2024-06-05 16:53:13.387515
41.42794437,-0.1362166703,1.261635303,0.2145113051,2024-06-05 16:53:13.427944
41.46848343,-0.2057231218,1.294657588,0.1932066381,2024-06-05 16:53:13.468483
41.50897275,0.0467370972,0.5635082722,0.3047898114,2024-06-05 16:53:13.508973
41.5494628,0.6857437491,1.029414535,0.4308867455,2024-06-05 16:53:13.549463
41.58995812,2.435788393,1.655105829,0.1964023411,2024-06-05 16:53:13.589958
41.63044608,3.080121279,0.8485912681,-0.09174319357,2024-06-05 16:53:13.630446
41.67092603,3.011680126,3.198362112,-0.02223674022,2024-06-05 16:53:13.670926
41.7114264,2.093848705,2.245910645,-0.1495320797,2024-06-05 16:53:13.711426
41.75189666,1.468423724,0.8611077666,-0.2846835256,2024-06-05 16:53:13.751897
41.79240447,0.918364048,0.4862788618,0.06058513001,2024-06-05 16:53:13.792404
41.83290249,0.5270240307,-0.09147688746,-0.02143781446,2024-06-05 16:53:13.832902
41.87338192,0.07523208112,0.1905435622,-0.1892120093,2024-06-05 16:53:13.873382
41.91385234,-0.6769555807,0.234617576,-0.3334179223,2024-06-05 16:53:13.913852
41.95435874,-1.351647496,0.1002650559,-0.4713656008,2024-06-05 16:53:13.954359
41.99480937,-1.297853231,0.01478010789,-0.49506706,2024-06-05 16:53:13.994809
42.0353464,-0.7520545125,0.4444684684,-0.4194355011,2024-06-05 16:53:14.035346
42.07581661,0.2026605755,0.2633788586,0.5749595165,2024-06-05 16:53:14.075817
42.11628978,0.0949388966,-0.5664376616,0.1844184697,2024-06-05 16:53:14.116290
42.15679348,-0.8663007617,-0.1426080763,-0.3829512596,2024-06-05 16:53:14.156793
42.19724348,-0.7749570012,0.8050498366,0.0621829778,2024-06-05 16:53:14.197243
42.2377565,-1.251249313,1.425947547,-0.002263620263,2024-06-05 16:53:14.237757
42.27824046,-0.9070459008,0.9801475406,-0.7046516538,2024-06-05 16:53:14.278240
42.31875239,-0.8380720615,-1.258972287,-0.7238258123,2024-06-05 16:53:14.318752
42.35923124,-0.7310161591,0.48468104,0.01797580719,2024-06-05 16:53:14.359231
42.39969187,-1.287467241,0.590139091,0.4013265371,2024-06-05 16:53:14.399692
42.44016551,-1.183607101,0.724624753,0.6463301182,2024-06-05 16:53:14.440166
42.48066176,-0.9672315717,1.882000446,0.5275566578,2024-06-05 16:53:14.480662
42.52119098,-0.8521864414,1.464695454,0.1431406885,2024-06-05 16:53:14.521191
42.56165546,-0.6900047064,1.000386953,-0.1452711523,2024-06-05 16:53:14.561655
42.60214145,-0.8604419827,0.894662559,-0.1434070021,2024-06-05 16:53:14.602141
42.64265609,-1.069227695,0.6364767551,0.01291595027,2024-06-05 16:53:14.642656
42.68311524,-0.2390116602,0.9718919992,-0.2209026963,2024-06-05 16:53:14.683115
42.72361967,0.09094426781,0.3059881926,-0.1937392503,2024-06-05 16:53:14.723620
42.76411514,-0.1969349533,0.4039896131,0.213978678,2024-06-05 16:53:14.764115
42.80459592,0.1170424819,0.2559222281,0.5770899653,2024-06-05 16:53:14.804596
42.84509155,1.495320916,0.8087781668,0.3904078901,2024-06-05 16:53:14.845092
42.88557077,3.067871094,0.3307548463,0.07150376588,2024-06-05 16:53:14.885571
42.92604483,3.204886675,2.046445847,-0.08322133124,2024-06-05 16:53:14.926045
42.96657134,2.671071768,2.266416311,0.0736342296,2024-06-05 16:53:14.966571
43.00705061,1.916354179,1.258173347,-0.3033251166,2024-06-05 16:53:15.007051
43.04753446,1.421819806,0.5446003675,0.02729659714,2024-06-05 16:53:15.047534
43.08802827,0.6497921348,-0.3159747422,0.3384777904,2024-06-05 16:53:15.088028
43.12851389,0.1744319052,-0.5605788827,0.3616466224,2024-06-05 16:53:15.128514
43.16901868,-0.5312849879,-0.2382127345,0.1663095057,2024-06-05 16:53:15.169019
43.2094603,-1.125019193,-0.4194355011,-0.1814890802,2024-06-05 16:53:15.209460
43.24995785,-1.410501719,-0.8298165202,-0.3158415854,2024-06-05 16:53:15.249958
43.29045347,-1.031145573,0.05525896326,-0.3760272563,2024-06-05 16:53:15.290453
43.33094139,-0.1287600398,0.1652442664,0.4034570158,2024-06-05 16:53:15.330941
43.37143478,0.1463363916,-0.3159747422,0.3284912407,2024-06-05 16:53:15.371435
43.41191113,-0.06591129303,-0.452457726,-0.3877448142,2024-06-05 16:53:15.411911
43.45239972,-0.5499265194,0.6916025281,-0.2790910602,2024-06-05 16:53:15.452400
43.49289207,-1.54418838,1.91422379,-0.4383433759,2024-06-05 16:53:15.492892
43.53339957,-0.4094489515,-0.2027937323,-0.7714950442,2024-06-05 16:53:15.533400
43.57390238,-1.242727518,-2.181330919,-0.4252942801,2024-06-05 16:53:15.573902
43.61436733,-1.103714585,1.031278729,0.2677729428,2024-06-05 16:53:15.614367
43.6548442,-1.163367629,0.3278254569,0.423430115,2024-06-05 16:53:15.654844
43.69533092,-0.8713606,0.7224943042,0.3933372796,2024-06-05 16:53:15.695331
43.73584816,-0.7073147297,0.654053092,0.217174381,2024-06-05 16:53:15.735848
43.77635045,-0.638607204,0.6252917647,-0.0621829778,2024-06-05 16:53:15.776350
43.8168242,-0.8449960947,0.3677717149,-0.04380770773,2024-06-05 16:53:15.816824
43.85732446,-0.8561810255,0.5326164961,-0.07922670245,2024-06-05 16:53:15.857324
43.89779978,-0.6516563296,0.1868152469,-0.1268958896,2024-06-05 16:53:15.897800
43.93827649,0.1074553803,0.5374100804,-0.2531259954,2024-06-05 16:53:15.938276
43.97876186,0.1298252791,0.305721879,-0.03688369319,2024-06-05 16:53:15.978762
44.01925113,-0.2368811965,0.2476666719,0.476958096,2024-06-05 16:53:16.019251
44.05974545,1.07362175,0.3411408663,0.1484668553,2024-06-05 16:53:16.059745
44.10025535,2.474403143,0.001198387123,-0.1873478591,2024-06-05 16:53:16.100255
44.14074488,2.936314821,1.463097572,-0.1404775977,2024-06-05 16:53:16.140745
44.18122899,2.825530529,1.973344207,-0.1117163152,2024-06-05 16:53:16.181229
44.22170149,1.797580719,1.315163374,-0.2411421239,2024-06-05 16:53:16.221701
44.26220728,1.168161154,1.069360852,-0.08082455397,2024-06-05 16:53:16.262207
44.30272702,0.6620423198,0.1521951705,0.09813459218,2024-06-05 16:53:16.302727
44.34320931,0.04034570232,0.4676373005,0.1087869257,2024-06-05 16:53:16.343209
44.38370373,-0.6079817414,0.761375308,0.01904104091,2024-06-05 16:53:16.383704
44.42419936,-1.024221539,0.5190348029,-0.1418091506,2024-06-05 16:53:16.424199
44.46462618,-1.30371201,-0.244337827,-0.1844184697,2024-06-05 16:53:16.464626
44.50512306,-1.266162634,0.2386122048,-0.2621804774,2024-06-05 16:53:16.505123
44.54561952,-0.5525896549,0.672960937,0.2121145278,2024-06-05 16:53:16.545620
44.5860928,-0.08481918275,0.2817541361,0.5648398399,2024-06-05 16:53:16.586093
44.62660186,0.5083824396,-0.7235595584,0.0512643382,2024-06-05 16:53:16.626602
44.66708394,-0.1135804728,0.3608476818,-0.07896039635,2024-06-05 16:53:16.667084
44.70756827,-1.407838583,2.634188175,-0.2576532364,2024-06-05 16:53:16.707568
44.74810431,-0.5861444473,0.4631100595,-0.7078473568,2024-06-05 16:53:16.748104
44.78856509,-1.284804225,-2.5891819,-0.7211627364,2024-06-05 16:53:16.788565
44.82905342,-0.5177032351,1.338065863,-0.05073172227,2024-06-05 16:53:16.829053
44.8695341,-1.019428015,-0.0006657706108,0.2952027023,2024-06-05 16:53:16.869534
44.91002686,-1.261635303,0.9806801677,0.5406057835,2024-06-05 16:53:16.910027
44.95051545,-1.036471725,1.764025927,0.4244953692,2024-06-05 16:53:16.950515
44.99103832,-0.3053224087,1.990387917,-0.1274285018,2024-06-05 16:53:16.991038
45.03151202,-0.34846434,0.967631042,-0.3113143444,2024-06-05 16:53:17.031512
45.07198326,-1.003982067,0.6074491143,-0.1098521575,2024-06-05 16:53:17.071983
45.11246707,-0.6380745769,1.117296338,-0.08162347972,2024-06-05 16:53:17.112467
45.15304504,0.3520595133,1.079480529,-0.05552527308,2024-06-05 16:53:17.153045
45.19353358,0.3294233084,0.9684299827,0.4849473238,2024-06-05 16:53:17.193534
45.23402212,-0.158320263,1.520353794,0.6199656129,2024-06-05 16:53:17.234022
45.27445905,1.166563272,1.597316861,0.08668334037,2024-06-05 16:53:17.274459
45.31494764,2.556426048,1.318891644,-0.2929390669,2024-06-05 16:53:17.314948
45.35540759,3.181318521,2.031931877,-0.1980001926,2024-06-05 16:53:17.355408
45.39589623,2.458690882,1.116231084,-0.4774906933,2024-06-05 16:53:17.395896
45.4363703,1.178014517,0.881613493,-0.4471315742,2024-06-05 16:53:17.436370
45.47688373,0.3049229383,1.015300274,-0.003062544856,2024-06-05 16:53:17.476884
45.517388,-0.4408733249,0.875754714,0.1015966013,2024-06-05 16:53:17.517388
45.55786316,-1.150584817,0.8320801258,-0.01877473295,2024-06-05 16:53:17.557863
45.59834202,-1.915022612,1.250184059,-0.3363473415,2024-06-05 16:53:17.598342
45.63885097,-1.903305054,-0.1013302878,-0.423430115,2024-06-05 16:53:17.638851
45.67931681,-1.37348485,-0.5198337436,-0.03981308267,2024-06-05 16:53:17.679317
45.71982425,-0.04061200842,0.7422010899,0.3462007344,2024-06-05 16:53:17.719824
45.76029702,0.04460663348,0.231421873,0.1298252791,2024-06-05 16:53:17.760297
45.80082816,0.008655018173,-0.3920057416,0.005459319334,2024-06-05 16:53:17.800828
45.84127196,-0.2746969759,-0.5509917736,-0.2326202542,2024-06-05 16:53:17.841272
45.88177264,-0.3133116663,-1.111437559,-0.01078548469,2024-06-05 16:53:17.881773
45.92225608,-0.4684362113,-1.081344724,0.02143781446,2024-06-05 16:53:17.922256
45.96274498,-0.02276935615,-0.5155727863,-0.2267614752,2024-06-05 16:53:17.962745
46.00323394,-0.4057206213,0.2580527067,0.1258306503,2024-06-05 16:53:18.003234
46.04373785,-0.4620448351,1.155644655,0.3013277948,2024-06-05 16:53:18.043738
46.0842229,-0.4663057625,0.5528559685,0.2009295821,2024-06-05 16:53:18.084223
46.12469467,-0.2754958868,0.8315475583,-0.05206326395,2024-06-05 16:53:18.124695
46.16518811,-0.2549901605,1.119693041,-0.07070484012,2024-06-05 16:53:18.165188
46.20567702,-0.4716319144,0.7832126021,-0.07390054315,2024-06-05 16:53:18.205677
46.24616155,-0.4790885448,0.8746894598,-0.07682993263,2024-06-05 16:53:18.246162
46.28664483,-0.1977338791,1.099453688,-0.1466026902,2024-06-05 16:53:18.286645
46.32714629,0.01584534161,0.8967930675,-0.284417212,2024-06-05 16:53:18.327146
46.36764592,0.09919982404,0.7629731297,-0.2193048447,2024-06-05 16:53:18.367646
46.40811957,-0.0464707911,0.672960937,-0.004127778113,2024-06-05 16:53:18.408120
46.44860576,-0.1178414002,0.7738918066,-0.1117163152,2024-06-05 16:53:18.448606
46.48910702,-0.05179695413,0.8986572027,-0.1644453406,2024-06-05 16:53:18.489107
46.52959842,-0.0243672058,1.079746842,-0.1167761683,2024-06-05 16:53:18.529598
46.57010071,0.07682993263,0.8291507363,-0.1242327988,2024-06-05 16:53:18.570101
46.61058665,0.06271559745,0.5944000483,-0.1545919478,2024-06-05 16:53:18.610587
46.65108144,0.02356828004,0.5818835497,-0.1647116542,2024-06-05 16:53:18.651081
46.6915279,0.1509967744,0.4921376705,-0.1830869317,2024-06-05 16:53:18.691528
46.73203879,0.05872096866,0.5113118291,-0.04780233279,2024-06-05 16:53:18.732039
46.77252769,-0.01158440951,0.3589835167,-0.03022598661,2024-06-05 16:53:18.772528
46.81302228,0.01557903271,0.2639114857,-0.05712312087,2024-06-05 16:53:18.813022
46.85351655,0.05925358832,0.3384777904,-0.05472634733,2024-06-05 16:53:18.853517
46.89402102,0.06271559745,0.3552552164,-0.04007939249,2024-06-05 16:53:18.894021
46.93451618,0.0683080703,0.3097164929,-0.02356828004,2024-06-05 16:53:18.934516
46.97499858,0.07709623873,0.217174381,-0.02782921307,2024-06-05 16:53:18.974999
47.01548806,0.1021292135,0.2025274336,-0.01344856713,2024-06-05 16:53:19.015488
47.05597754,0.09307473898,0.3094501793,0.01451379992,2024-06-05 16:53:19.055978
47.09646238,0.08588441461,0.3251623809,0.02117150649,2024-06-05 16:53:19.096462
47.13693582,0.1504641622,0.288944453,-0.01291595027,2024-06-05 16:53:19.136936
47.17741842,0.1741656065,0.2665745616,-0.07097115368,2024-06-05 16:53:19.177418
47.21789545,0.1007976755,0.343803972,-0.03954677656,2024-06-05 16:53:19.217895
47.25839837,0.03368799388,0.5145075321,0.02356828004,2024-06-05 16:53:19.258398
47.29888957,-0.05179695413,0.5517907143,-0.04700340703,2024-06-05 16:53:19.298890
47.3393755,-0.04380770773,0.4934692085,-0.0949388966,2024-06-05 16:53:19.339376
47.37988102,-0.07842778414,0.2319544852,-0.1055912226,2024-06-05 16:53:19.379881
47.4203342,0.03209014609,0.3688369393,-0.02969337068,2024-06-05 16:53:19.420334
47.46084019,0.07123745978,0.5185021758,0.000932078925,2024-06-05 16:53:19.460840
47.50133566,0.06591129303,0.3800218701,-0.01451379992,2024-06-05 16:53:19.501336
47.54182702,0.1069227681,0.1013302878,-0.02995967865,2024-06-05 16:53:19.541827
47.58233946,-0.01770949923,0.1806901544,0.01371487509,2024-06-05 16:53:19.582339
47.62284509,-0.000133154128,0.08535179496,0.1455374658,2024-06-05 16:53:19.622845
47.66327774,-0.1785596907,0.02782921307,0.06404713541,2024-06-05 16:53:19.663278
47.70380899,-0.1101184636,-0.3785571754,0.05579157919,2024-06-05 16:53:19.703809
47.74428967,0.03688369319,-0.6111774445,-0.06963960826,2024-06-05 16:53:19.744290
47.78476149,-0.0467370972,-0.2635120153,-0.03901416063,2024-06-05 16:53:19.784761
47.82525264,-0.2038589716,-0.7363423109,-0.07390054315,2024-06-05 16:53:19.825253
47.865743,0.05499265343,-0.229424566,-0.05552527308,2024-06-05 16:53:19.865743
47.90625754,0.01983996481,-0.2107829899,0.01105179265,2024-06-05 16:53:19.906258
47.94674707,0.1189066395,0.01744319126,0.0384815447,2024-06-05 16:53:19.946747
47.98721316,0.142874375,0.3491301239,0.06378082931,2024-06-05 16:53:19.987213
48.02774988,0.1659100503,0.3789566457,0.02596505545,2024-06-05 16:53:20.027750
48.06818082,0.3762935698,0.7121082544,0.08641702682,2024-06-05 16:53:20.068181
48.10867077,0.3059881926,0.204924196,0.07097115368,2024-06-05 16:53:20.108671
48.14919655,0.1284937263,0.4545882046,-0.04167724028,2024-06-05 16:53:20.149197
48.18968608,-0.04726971686,0.2466014475,0.1521951705,2024-06-05 16:53:20.189686
48.23014894,-0.3013277948,-0.4521914124,0.09334104508,2024-06-05 16:53:20.230149
48.27062884,-0.4541887343,-0.8218272924,0.1945381761,2024-06-05 16:53:20.270629
48.31112077,-0.09413997084,-0.1271621883,0.1631138027,2024-06-05 16:53:20.311121
48.35161655,-0.02223674022,-0.2528596818,0.04993279651,2024-06-05 16:53:20.351617
48.3921053,-0.001731003635,-0.6609770656,-0.2395442724,2024-06-05 16:53:20.392105
48.43257894,-0.02889444493,-0.3170399666,-0.2115819156,2024-06-05 16:53:20.432579
48.47307978,0.1226349548,0.1434070021,-0.3746957183,2024-06-05 16:53:20.473080
48.51357759,0.4878767133,0.2205032408,-0.1601844132,2024-06-05 16:53:20.513578
48.55407092,0.659911871,-0.418902874,0.1953371018,2024-06-05 16:53:20.554071
48.59454634,0.3754946291,0.5049204826,0.5102466345,2024-06-05 16:53:20.594546
48.63503519,-0.03422060981,1.245656848,0.3271597028,2024-06-05 16:53:20.635035
48.67550165,-0.4584496617,-0.9192960858,0.109585844,2024-06-05 16:53:20.675502
48.71599056,0.003595161485,-1.552976608,-0.2761616707,2024-06-05 16:53:20.715991
48.75651795,0.8355421424,2.979456663,-0.4274247587,2024-06-05 16:53:20.756518
48.7970229,0.2263620198,0.2894770801,-0.05206326395,2024-06-05 16:53:20.797023
48.83748524,0.1965354979,0.2388785034,-0.08801487833,2024-06-05 16:53:20.837485
48.87797759,0.01078548469,0.05818835273,-0.04487293959,2024-06-05 16:53:20.877978
48.91846228,-0.08774857223,-0.07177007198,-0.1913424879,2024-06-05 16:53:20.918462
48.95895259,-0.06564498693,-0.09973244369,-0.1782933772,2024-06-05 16:53:20.958953
48.99944827,-0.003595161485,-0.455653429,-0.1367492825,2024-06-05 16:53:20.999448
49.03993056,0.04940018058,-0.5099803209,-0.5581821203,2024-06-05 16:53:21.039931
49.08043389,0.0544600375,0.5808182955,-0.9481905699,2024-06-05 16:53:21.080434
49.12090597,-0.03155753016,0.7360759974,-0.6079817414,2024-06-05 16:53:21.120906
49.16142222,0.1760297567,-0.0842865631,-0.248865068,2024-06-05 16:53:21.161422
49.20191139,0.1877473146,-0.5278229713,-0.03182383627,2024-06-05 16:53:21.201911
49.2423929,0.2886781394,-1.632735968,-0.08588441461,2024-06-05 16:53:21.242393
49.28290102,0.2276935577,-1.104247212,-0.000133154128,2024-06-05 16:53:21.282901
49.32339113,0.7671009302,-0.2829525173,0.4655068219,2024-06-05 16:53:21.323391
49.36384254,0.2127802968,0.03981308267,0.3244965971,2024-06-05 16:53:21.363843
49.4043579,0.3014609516,-0.2302234918,0.1620485783,2024-06-05 16:53:21.404358
49.44484702,0.2127802968,-0.4463326335,0.1929403245,2024-06-05 16:53:21.444847
49.48530441,0.1002650559,0.5134423375,-0.1023955271,2024-06-05 16:53:21.485304
49.52579337,-0.1572550237,0.2189053893,-0.5629756451,2024-06-05 16:53:21.525793
49.56628254,-0.7283530831,-0.3455349505,-1.25178194,2024-06-05 16:53:21.566283
49.60677816,-0.2219679356,0.2043915838,-0.7896040082,2024-06-05 16:53:21.606778
49.6472828,0.01691057347,-0.4665720761,-0.2177069932,2024-06-05 16:53:21.647283
49.68777353,0.5153064728,-0.08002562821,0.6817491055,2024-06-05 16:53:21.687774
49.72829441,0.5187684894,-0.4671046734,0.831148088,2024-06-05 16:53:21.728294
49.76882702,0.6737598777,0.3214340508,0.6908035874,2024-06-05 16:53:21.768827
49.80925212,0.8051829934,0.4998605847,1.124220252,2024-06-05 16:53:21.809252
49.84976264,0.08162347972,-0.02703028731,0.1748313755,2024-06-05 16:53:21.849763
49.89024004,0.1298252791,0.2908086181,0.1215697154,2024-06-05 16:53:21.890240
49.93072222,0.06244928762,0.4247616827,0.04354140162,2024-06-05 16:53:21.930722
49.9712128,-0.1407439113,1.253646135,0.04620448127,2024-06-05 16:53:21.971213
50.01170452,-0.7869408727,2.784785509,0.08162347972,2024-06-05 16:53:22.011705
50.05219248,-0.5256925225,-0.3463338912,-0.5179695487,2024-06-05 16:53:22.052192
50.09267936,-0.02569874749,-0.5280892849,-0.284417212,2024-06-05 16:53:22.092679
50.13317941,0.05818835273,0.2284924835,0.2773600519,2024-06-05 16:53:22.133179
50.17368978,-0.07097115368,0.4820179343,0.7842777967,2024-06-05 16:53:22.173690
50.21417243,-0.2342181057,0.2836183012,1.680138826,2024-06-05 16:53:22.214172
50.25463602,-0.2033263594,0.2660419345,1.280543208,2024-06-05 16:53:22.254636
50.29510155,0.1778939217,-0.7027874589,1.27548337,2024-06-05 16:53:22.295102
50.33558915,0.08109086752,-0.3564535975,1.263233185,2024-06-05 16:53:22.335589
50.37607472,-0.1101184636,0.0003994623839,0.6830806732,2024-06-05 16:53:22.376075
50.41658634,0.2961347699,0.2516613007,0.4689688385,2024-06-05 16:53:22.416586
50.45709134,-0.1375482082,-0.2006632686,0.4276910722,2024-06-05 16:53:22.457091
50.4975703,-0.3500621915,-0.04007939249,0.5312849879,2024-06-05 16:53:22.497570
50.53805602,-0.700124383,-0.02543243766,0.333551079,2024-06-05 16:53:22.538056
50.57856806,-1.022623658,0.3938699067,0.3045234978,2024-06-05 16:53:22.578568
50.61904535,-0.3836170435,-2.766277075,1.239798069,2024-06-05 16:53:22.619045
50.65953134,-1.400115609,-0.2470009029,0.8620398045,2024-06-05 16:53:22.659531
50.70001754,-1.633934259,0.7760222554,1.335402727,2024-06-05 16:53:22.700018
50.74051556,-2.20290184,0.08082455397,1.374283791,2024-06-05 16:53:22.740516
50.78101498,-2.605693102,0.6183677912,1.129812717,2024-06-05 16:53:22.781015
50.82149702,0.1877473146,-0.8180989623,0.4710993171,2024-06-05 16:53:22.821497
50.86201202,3.409677744,-1.035007,-0.2201037705,2024-06-05 16:53:22.862012
50.90248191,2.676664352,-0.1125152409,0.8117075562,2024-06-05 16:53:22.902482
50.94295399,3.205951929,-1.024887323,2.159493685,2024-06-05 16:53:22.942954
50.98345769,3.223262072,-2.011958838,3.198894739,2024-06-05 16:53:22.983458
51.02396754,2.987712383,-3.118469715,3.270265341,2024-06-05 16:53:23.023968
51.06448509,3.885703802,-2.097177505,2.915809155,2024-06-05 16:53:23.064485
51.10493238,3.044968605,0.08109086752,3.017272472,2024-06-05 16:53:23.104932
51.14540618,2.619141579,0.4484631121,2.262954473,2024-06-05 16:53:23.145406
51.18590144,1.699579239,-1.562031031,1.037403822,2024-06-05 16:53:23.185901
51.22637764,0.8802819252,-4.350677967,0.5912043452,2024-06-05 16:53:23.226378
51.2669153,0.451126188,-4.656000614,0.2179733068,2024-06-05 16:53:23.266915
51.30738082,1.188933253,-3.063343763,0.3491301239,2024-06-05 16:53:23.307381
51.34787379,2.168148756,-1.890788674,0.08535179496,2024-06-05 16:53:23.347874
51.38837024,0.3805544972,-0.09866721183,0.0952052027,2024-06-05 16:53:23.388370
51.42882702,0.8429988027,-4.220453262,-0.3850817382,2024-06-05 16:53:23.428827
51.46931519,0.133819893,-2.940575838,-0.2716344297,2024-06-05 16:53:23.469315
51.50985087,-0.6700315475,0.5794867873,-0.5507254601,2024-06-05 16:53:23.509851
51.55031649,0.6782871485,0.8461945057,-1.701709747,2024-06-05 16:53:23.550316
51.59080212,0.405321151,0.3672390878,-1.096790552,2024-06-05 16:53:23.590802
51.6313228,-0.5635082722,1.497983932,-0.2873466015,2024-06-05 16:53:23.631323
51.67177514,-0.7200975418,1.917419434,-0.2227668613,2024-06-05 16:53:23.671775
51.71226759,0.534480691,1.678274632,-1.015832901,2024-06-05 16:53:23.712268
51.75275608,-0.05925358832,0.1042596847,-1.603441954,2024-06-05 16:53:23.752756
51.79331978,0.6625749469,-0.475093931,-0.158320263,2024-06-05 16:53:23.793320
51.83376905,1.057110667,-0.5387415886,-0.2972000241,2024-06-05 16:53:23.833769
51.87425613,0.574693203,0.5102466345,-0.3171731234,2024-06-05 16:53:23.874256
51.91474649,0.3443365693,0.5728290677,0.03661738336,2024-06-05 16:53:23.914746
51.95523618,0.4961322844,0.3501953483,0.1098521575,2024-06-05 16:53:23.955236
51.99567597,0.8864070177,-0.4399412274,-0.2536586225,2024-06-05 16:53:23.995676
52.03616556,1.286934614,-1.040599465,-0.2299571782,2024-06-05 16:53:24.036166
52.07667254,0.3475322723,0.4809527099,-0.2083862126,2024-06-05 16:53:24.076673
52.11716889,0.1517957002,0.1159772426,0.1266295761,2024-06-05 16:53:24.117169
52.15770321,0.3003957272,-0.862306118,0.3882774413,2024-06-05 16:53:24.157703
52.1981928,0.8821461201,-0.6828143597,0.08748225868,2024-06-05 16:53:24.198193
52.23862431,0.638607204,-0.3841496706,-0.1649779677,2024-06-05 16:53:24.238624
52.27914957,0.07150376588,-0.2214353085,-0.1298252791,2024-06-05 16:53:24.279150
52.31962811,-0.5730953813,0.1122489274,-0.1782933772,2024-06-05 16:53:24.319628
52.36011655,-0.7006570101,0.2732322812,-0.1090532318,2024-06-05 16:53:24.360117
52.4006217,-0.06724283099,-0.2723001838,0.04940018058,2024-06-05 16:53:24.400622
52.44108571,-0.02330197208,-0.4548544884,0.09600412846,2024-06-05 16:53:24.441086
52.48158847,-0.3359478712,-0.5752258301,0.06963960826,2024-06-05 16:53:24.481588
52.52207061,-0.7925333977,-0.8077129126,0.02383458801,2024-06-05 16:53:24.522071
52.56257311,-1.010639787,-0.7909355164,-0.1298252791,2024-06-05 16:53:24.562573
52.60306311,-0.7877398133,0.2894770801,-0.2121145278,2024-06-05 16:53:24.603063
52.64358764,-0.1527277827,-0.232087642,-0.2833519876,2024-06-05 16:53:24.643588
52.68399962,0.01957365684,-0.3111811876,-0.1561897993,2024-06-05 16:53:24.684000
52.72454483,-0.2304897904,-0.2422073632,-0.08375394344,2024-06-05 16:53:24.724545
52.76500842,-0.07283531129,-0.380687654,-0.08348763734,2024-06-05 16:53:24.765008
52.80547556,0.02303566411,-0.489208281,-0.1047922969,2024-06-05 16:53:24.805476
52.8459655,-0.08375394344,-0.3434045017,-0.2581858635,2024-06-05 16:53:24.845965
52.88651103,0.216508612,-0.3300890923,-0.2302234918,2024-06-05 16:53:24.886511
52.92698337,-0.03874785081,-0.04913387448,-0.0683080703,2024-06-05 16:53:24.926983
52.9674754,-0.1695052087,-0.003328853287,-0.05632419512,2024-06-05 16:53:24.967475
53.00797545,-0.1766955256,-0.000932078925,-0.08801487833,2024-06-05 16:53:25.007975
53.04846983,-0.3556546867,0.3491301239,-0.03288906813,2024-06-05 16:53:25.048470
53.08894431,-0.1940055639,0.1948044896,-0.0275629051,2024-06-05 16:53:25.088944
53.12944004,-0.3005288541,0.3326190114,0.04114462435,2024-06-05 16:53:25.129440
53.16994217,-0.06111774594,0.00599193573,0.1905435622,2024-06-05 16:53:25.169942
53.21043285,0.2511286736,-0.7307498455,0.4071853161,2024-06-05 16:53:25.210433
53.25096238,0.2777595222,-1.07655108,0.5821498632,2024-06-05 16:53:25.250962
53.29139311,0.2577863932,-1.450714231,0.4681699276,2024-06-05 16:53:25.291393
53.33189712,0.2319544852,-1.007843614,-0.06910699606,2024-06-05 16:53:25.331897
53.37237852,-0.01504641678,-0.156456098,0.01850842312,2024-06-05 16:53:25.372379
53.41287092,0.06937330216,-0.2717675865,-0.1146457046,2024-06-05 16:53:25.412871
53.45334405,-0.003595161485,0.008388710208,0.2083862126,2024-06-05 16:53:25.453344
53.49385629,0.1154446304,-0.1287600398,0.1191729456,2024-06-05 16:53:25.493856
53.53436202,0.1149120107,-0.08748225868,-0.09467258304,2024-06-05 16:53:25.534362
53.57482254,-0.03688369319,0.06644391268,0.03422060981,2024-06-05 16:53:25.574823
53.61528759,-0.003328853287,0.02037258074,-0.0467370972,2024-06-05 16:53:25.615288
53.65577691,-0.006258244161,0.2719007432,-0.1149120107,2024-06-05 16:53:25.655777
53.69627316,0.04434032366,0.354189992,-0.171901986,2024-06-05 16:53:25.696273
53.73676743,-0.001464695437,0.3560541272,-0.2440715134,2024-06-05 16:53:25.736767
53.77728108,-0.07416684926,0.3139774203,-0.3845491111,2024-06-05 16:53:25.777281
53.81776009,0.04780233279,0.2394111156,-0.3075860441,2024-06-05 16:53:25.817760
53.85827832,0.08828118443,0.3411408663,-0.3651086092,2024-06-05 16:53:25.858278
53.89874717,0.1109173894,0.03981308267,-0.292140156,2024-06-05 16:53:25.898747
53.93921634,0.08561810106,0.08162347972,-0.02649767138,2024-06-05 16:53:25.939216
53.97970488,-0.03768261895,0.02729659714,-0.2713681161,2024-06-05 16:53:25.979705
54.02021858,-0.2030600458,0.266308248,-0.2972000241,2024-06-05 16:53:26.020219
54.06073806,-0.05818835273,0.1982664913,-0.2390116602,2024-06-05 16:53:26.060738
54.10119936,-0.3034582436,0.3006620109,-0.2756290436,2024-06-05 16:53:26.101199
54.14167983,-0.1450048387,0.4181039631,-0.1649779677,2024-06-05 16:53:26.141680
54.18217436,0.1191729456,-0.03715000302,-0.167374745,2024-06-05 16:53:26.182174
54.22264535,-0.2635120153,0.177760765,-0.1015966013,2024-06-05 16:53:26.222645
54.26314952,-0.3998618424,0.1561897993,-0.03022598661,2024-06-05 16:53:26.263150
54.30363946,0.03635107726,-0.4045222402,-0.1484668553,2024-06-05 16:53:26.303639
54.34413582,-0.07656362653,-0.01478010789,-0.08987903595,2024-06-05 16:53:26.344136
54.38463514,-0.02995967865,-0.07576470077,-0.04780233279,2024-06-05 16:53:26.384635
54.42512806,0.3507279754,-0.02916075476,-0.1149120107,2024-06-05 16:53:26.425128
54.46558681,0.3960003853,0.01531272475,-0.1165098622,2024-06-05 16:53:26.465587
54.50606108,0.405321151,-0.2691044807,-0.1900109351,2024-06-05 16:53:26.506061
54.5465853,0.5022573471,0.04940018058,-0.3113143444,2024-06-05 16:53:26.546585
54.58705748,0.3933372796,0.2442046702,-0.2985315621,2024-06-05 16:53:26.587057
54.62754738,0.3264939189,0.2322207987,-0.2932053804,2024-06-05 16:53:26.627547
54.66806748,0.3909405172,0.03608476743,-0.6210308671,2024-06-05 16:53:26.668067
54.70854879,0.2274272442,-0.05392742157,-0.5712311864,2024-06-05 16:53:26.708549
54.74901472,0.3904078901,-0.09467258304,-0.6383408904,2024-06-05 16:53:26.749015
54.7895128,0.1765623689,-0.149265781,-0.5272903442,2024-06-05 16:53:26.789513
54.83003191,-0.2145113051,0.09467258304,-0.5387415886,2024-06-05 16:53:26.830032
54.87048405,-0.09893351793,-0.3106485903,-0.5075835586,2024-06-05 16:53:26.870484
54.9110016,-0.1820216924,-0.2062557489,-0.2926727831,2024-06-05 16:53:26.911002
54.95149144,0.1789591461,-0.2986647189,-0.1442059278,2024-06-05 16:53:26.951491
54.99198962,0.1191729456,-0.6585803032,-0.2083862126,2024-06-05 16:53:26.991990
55.03244274,-0.5904054046,-0.3952014446,0.09121058136,2024-06-05 16:53:27.032443
55.07297717,-0.9738892913,-0.1750976741,0.7017222643,2024-06-05 16:53:27.072977
55.11346774,-0.6133078933,0.1681736708,0.3762935698,2024-06-05 16:53:27.113468
55.1539705,0.1189066395,0.0957378149,0.08481918275,2024-06-05 16:53:27.153970
55.19436868,0.3049229383,-0.03981308267,0.06138405204,2024-06-05 16:53:27.194369
55.23485915,-0.08029194176,0.06671021879,0.1476679295,2024-06-05 16:53:27.234859
55.27534972,-0.2717675865,-0.001464695437,0.09919982404,2024-06-05 16:53:27.275350
55.31588259,-0.3543231487,0.04993279651,0.1434070021,2024-06-05 16:53:27.315883
55.35637139,-0.2941374779,0.09946613014,0.2193048447,2024-06-05 16:53:27.356371
55.39689905,-0.0126496423,0.004127778113,0.1721682847,2024-06-05 16:53:27.396899
55.43731613,0.05845466256,0.1657768935,0.1553908736,2024-06-05 16:53:27.437316
55.47785946,0.07682993263,0.06671021879,0.1724345982,2024-06-05 16:53:27.477859
55.51832863,-0.03448691964,0.2213021666,0.1420754492,2024-06-05 16:53:27.518329
55.55883082,0.09147688746,0.1990654171,0.1543256342,2024-06-05 16:53:27.558831
55.59931446,-0.01211702544,0.2189053893,0.1892120093,2024-06-05 16:53:27.599314
55.63978868,0.02170412242,-0.08109086752,0.07123745978,2024-06-05 16:53:27.639789
55.68028165,-0.1221023351,-0.1229012609,-0.06644391268,2024-06-05 16:53:27.680282
55.72078493,-0.1711030602,-0.1833532304,-0.123167567,2024-06-05 16:53:27.720785
55.76127623,-0.2336854935,0.02250304818,-0.07816147059,2024-06-05 16:53:27.761276
55.80174233,-0.405188024,0.3672390878,0.108254306,2024-06-05 16:53:27.801742
55.84223425,-0.3282249272,0.2527265251,-0.004660394508,2024-06-05 16:53:27.842234
55.88277212,-0.2624467909,0.3712337017,0.1716356725,2024-06-05 16:53:27.882772
55.92323103,-0.1727008969,0.1982664913,0.3202356696,2024-06-05 16:53:27.923231
55.96370821,-0.1066564545,-0.02676397935,-0.03661738336,2024-06-05 16:53:27.963708
56.00420274,0.07842778414,-0.235283345,-0.06671021879,2024-06-05 16:53:28.004203
56.0447028,-0.1098521575,0.1527277827,0.2944037914,2024-06-05 16:53:28.044703
56.08521337,0.04620448127,-0.1271621883,0.1561897993,2024-06-05 16:53:28.085213
56.12570363,-0.01371487509,-0.5920032263,-0.2158428431,2024-06-05 16:53:28.125704
56.16618431,-0.3045234978,-0.1109173894,0.1439396143,2024-06-05 16:53:28.166184
56.20666962,0.04114462435,-0.04806863889,0.08322133124,2024-06-05 16:53:28.206670
56.24716816,0.3805544972,-0.7355434299,-0.1263632625,2024-06-05 16:53:28.247168
56.28765967,0.2503297627,-0.2392779738,0.1916087866,2024-06-05 16:53:28.287660
56.32814295,-0.5547201037,-0.2624467909,0.2901428342,2024-06-05 16:53:28.328143
56.36863483,-0.233951807,-0.5944000483,-0.01344856713,2024-06-05 16:53:28.368635
56.409093,0.07390054315,0.1631138027,-0.4117125571,2024-06-05 16:53:28.409093
56.44956681,0.1458037645,1.48147285,-0.865501821,2024-06-05 16:53:28.449567
56.49007306,0.03182383627,1.030479789,-0.5472634435,2024-06-05 16:53:28.490073
56.53058399,-0.1753639877,0.7259563208,-0.4295552075,2024-06-05 16:53:28.530584
56.57104576,-0.1359503716,0.8143706322,-0.0952052027,2024-06-05 16:53:28.571046
56.61154321,-0.2240983993,0.4543218911,0.2571206093,2024-06-05 16:53:28.611543
56.6520191,0.003595161485,0.4836157858,0.129292652,2024-06-05 16:53:28.652019
56.69249436,0.1619154215,0.3525921404,0.1748313755,2024-06-05 16:53:28.692494
56.73300207,0.2740311921,0.2551233172,0.1796249151,2024-06-05 16:53:28.733002
56.77353509,0.6066502333,0.5272903442,0.1585865617,2024-06-05 16:53:28.773535
56.8140253,0.7166355252,0.7456631064,0.1753639877,2024-06-05 16:53:28.814025
56.85447884,0.4982627332,0.7685656548,0.2033263594,2024-06-05 16:53:28.854479
56.89497248,0.004127778113,0.682015419,0.1761629134,2024-06-05 16:53:28.894972
57.00881145,-0.5762910843,-1.244857907,-0.8535179496,2024-06-05 16:53:29.008811
57.04931182,-0.406519562,-0.6665695906,-0.6292864084,2024-06-05 16:53:29.049312
57.12486728,-0.1529940963,-0.6620423198,-0.1940055639,2024-06-05 16:53:29.124867
57.16535682,-0.2696371078,-1.031278729,-0.2206363827,2024-06-05 16:53:29.165357
57.20587968,-0.07656362653,-1.312500238,-0.2467346042,2024-06-05 16:53:29.205880
57.2463138,-0.388410598,-1.745384336,-0.7592448592,2024-06-05 16:53:29.246314
57.28683437,-1.093328595,-1.574813843,-0.6410039663,2024-06-05 16:53:29.286834
57.32732135,-1.666956544,0.15512456,0.611443758,2024-06-05 16:53:29.327321
57.36780801,-2.000773907,-1.288798809,0.9246222377,2024-06-05 16:53:29.367808
57.40827968,-3.182649851,-1.876940608,2.146178246,2024-06-05 16:53:29.408280
57.44879077,-2.472538948,-1.40464294,3.405683041,2024-06-05 16:53:29.448791
57.48930083,1.039001703,-2.591046095,2.486120701,2024-06-05 16:53:29.489301
57.52977228,3.807675362,0.3613803089,0.7648373246,2024-06-05 16:53:29.529772
57.57025088,2.159893036,-0.9472584724,-0.1910761744,2024-06-05 16:53:29.570251
57.61074182,1.502511144,0.1189066395,0.1556571722,2024-06-05 16:53:29.610742
57.65123161,0.7902697325,0.4673709869,-0.538475275,2024-06-05 16:53:29.651232
57.69174671,0.6407376528,0.05206326395,0.04274247587,2024-06-05 16:53:29.691747
57.732209,0.1581871063,-0.06111774594,0.02969337068,2024-06-05 16:53:29.732209
57.77267072,0.2050573528,0.4708330035,0.1015966013,2024-06-05 16:53:29.772671
57.81318697,0.1965354979,0.09254211932,0.239810586,2024-06-05 16:53:29.813187
57.85365416,0.2319544852,-0.03209014609,-0.04567186534,2024-06-05 16:53:29.853654
57.89418067,0.09600412846,-0.1090532318,0.04540555924,2024-06-05 16:53:29.894181
57.93465885,-0.09413997084,-0.1189066395,-0.1093195379,2024-06-05 16:53:29.934659
57.97515442,-0.0171768833,-0.04167724028,-0.1806901544,2024-06-05 16:53:29.975154
58.01560728,-0.2454030514,0.05685681105,-0.2001306564,2024-06-05 16:53:30.015607
58.05609468,-0.01850842312,-0.1295589656,-0.2110492885,2024-06-05 16:53:30.056095
58.09661046,0.3339505494,-0.5382089615,-0.3824186623,2024-06-05 16:53:30.096610
58.13710004,0.499594301,-0.6282211542,-0.5270240307,2024-06-05 16:53:30.137100
58.17761989,-0.5483286977,-0.5552527308,-0.479621172,2024-06-05 16:53:30.177620
58.21808025,-0.9832100868,0.02383458801,-0.4197018147,2024-06-05 16:53:30.218080
58.25857062,0.3744294047,0.0432750918,-0.349662751,2024-06-05 16:53:30.258571
58.29905676,0.8395367861,-0.5027899742,-0.4095821083,2024-06-05 16:53:30.299057
58.33954562,0.432484597,-0.2917406857,-0.1436733007,2024-06-05 16:53:30.339546
58.38005301,-0.244337827,0.1495320797,-0.2515281439,2024-06-05 16:53:30.380053
58.4205276,-0.4174381793,0.2434057444,-0.3757609427,2024-06-05 16:53:30.420528
58.46100182,-0.02356828004,0.1516625583,-0.1444722265,2024-06-05 16:53:30.461002
58.5015052,0.1595186442,-0.02303566411,-0.1079879999,2024-06-05 16:53:30.501505
58.54199812,0.1493989378,-0.04860125855,-0.1742987484,2024-06-05 16:53:30.541998
58.58248223,0.2593842447,0.08694964647,-0.08242240548,2024-06-05 16:53:30.582482
58.62297541,0.03075860441,0.2134460658,0.005193010904,2024-06-05 16:53:30.622975
58.66347421,-0.2898765504,0.3664401472,-0.06671021879,2024-06-05 16:53:30.663474
58.70395228,-0.6007914543,0.6298190355,-0.005193010904,2024-06-05 16:53:30.703952
58.74445124,-0.1825543046,0.6343462467,0.1793586165,2024-06-05 16:53:30.744451
58.78492411,0.5419372916,0.3078523576,0.3151758313,2024-06-05 16:53:30.784924
58.82539984,0.1130478531,-0.1202381775,0.1138467789,2024-06-05 16:53:30.825400
58.86592036,-0.3577851355,0.6356778145,0.2579195499,2024-06-05 16:53:30.865920
58.90640088,0.04513924941,0.4982627332,0.4444684684,2024-06-05 16:53:30.906401
58.94687937,0.4553871155,0.05659050494,0.4335498512,2024-06-05 16:53:30.946879
58.98738077,0.2117150575,0.01930734888,0.6346125603,2024-06-05 16:53:30.987381
59.02783942,-0.2485987544,-0.1878804713,0.6913362145,2024-06-05 16:53:31.027839
59.06834853,-0.8103760481,0.01451379992,0.2283593267,2024-06-05 16:53:31.068349
59.1088377,-0.7770875096,0.5118444562,0.3738967776,2024-06-05 16:53:31.108838
59.14938687,-0.5387415886,0.2953358591,0.5653724074,2024-06-05 16:53:31.149387
59.1898163,-0.5331491232,0.2617810071,0.4657731354,2024-06-05 16:53:31.189816
59.23027541,-0.5456656218,0.2697702646,0.3135779798,2024-06-05 16:53:31.230275
59.2707915,-0.1870815456,0.1378145218,0.2898765504,2024-06-05 16:53:31.270792
59.31129103,0.06244928762,-0.164179042,-0.1114500016,2024-06-05 16:53:31.311291
59.35180916,0.1749645174,-0.3242303133,-0.09840089828,2024-06-05 16:53:31.351809
59.39227322,0.3379451632,-0.2376801223,-0.08375394344,2024-06-05 16:53:31.392273
59.43274822,0.08162347972,-0.6734935641,-0.4295552075,2024-06-05 16:53:31.432748
59.47323614,-0.8729584813,-0.4111799598,-0.5027899742,2024-06-05 16:53:31.473236
59.51369994,-0.06191666797,-0.08109086752,-0.3232982159,2024-06-05 16:53:31.513700
59.55421317,1.150318503,-0.4423380196,-0.5278229713,2024-06-05 16:53:31.554213
