Time (s),Linear Acceleration x (m/s^2),Linear Acceleration y (m/s^2),Linear Acceleration z (m/s^2),Datetime
0.036318819,0.0,0.0,0.0,2024-06-05 16:52:32.036319
0.076803454,-0.01494216919,0.06757760048,0.6492443085,2024-06-05 16:52:32.076803
0.117268298,-0.122169733,0.4788196087,0.1580457687,2024-06-05 16:52:32.117268
0.157777413,0.5867238045,-1.177050948,0.6077289581,2024-06-05 16:52:32.157777
0.213083298,0.6765606403,-0.9268628359,0.5305318832,2024-06-05 16:52:32.213083
0.253549756,0.5442330837,0.1328606606,1.080590248,2024-06-05 16:52:32.253550
0.294064756,-1.049410105,0.9512281418,0.7470541,2024-06-05 16:52:32.294065
0.334500798,-0.3193967342,0.323611021,0.2044725418,2024-06-05 16:52:32.334501
0.375020954,-0.1270403862,-0.06060957909,1.612961769,2024-06-05 16:52:32.375021
0.415473454,-0.2634854317,-0.4347879887,0.5471982956,2024-06-05 16:52:32.415473
0.4559596,0.5950660706,-1.046488762,-1.09907198,2024-06-05 16:52:32.455960
0.496454913,0.535112381,-1.263398647,0.7699975967,2024-06-05 16:52:32.496455
0.536941631,0.1801562309,-1.134309888,0.918050766,2024-06-05 16:52:32.536942
0.577446058,-0.3678643703,0.2998795509,0.3273591995,2024-06-05 16:52:32.577446
0.617902256,0.4561495781,-0.1538321972,-0.1284265518,2024-06-05 16:52:32.617902
0.658388038,-0.2902338505,0.09067630768,-0.6312980652,2024-06-05 16:52:32.658388
0.698872308,-0.05803108215,-0.1792616844,0.01686000824,2024-06-05 16:52:32.698872
0.739356579,-0.1798839569,0.326788187,-0.8087558746,2024-06-05 16:52:32.739357
0.779877204,-0.1100764275,0.7684891224,-0.2887535095,2024-06-05 16:52:32.779877
0.820330642,0.07242679596,0.05470538139,0.9089193344,2024-06-05 16:52:32.820331
0.860845277,1.315893173,-0.8883850574,-1.167407036,2024-06-05 16:52:32.860845
0.901306579,2.469294071,-0.7945687771,-1.272345543,2024-06-05 16:52:32.901307
0.941764704,9.860128403,-4.071359158,-3.063771248,2024-06-05 16:52:32.941765
0.982261423,7.304361343,-4.007081985,-3.997535706,2024-06-05 16:52:32.982261
1.022755173,1.032096863,-6.216529369,-1.675963402,2024-06-05 16:52:33.022755
1.063239392,5.48517704,-5.366040707,-3.93924284,2024-06-05 16:52:33.063239
1.103748038,-5.236582756,-6.266091347,-5.840161324,2024-06-05 16:52:33.103748
1.144281423,-5.431282997,-6.417170525,-2.860933542,2024-06-05 16:52:33.144281
1.184676163,-10.99063683,-6.430179119,-1.316877484,2024-06-05 16:52:33.184676
1.22520585,-17.34978867,-5.637176037,0.3423391581,2024-06-05 16:52:33.225206
1.265669444,-11.73477173,-3.39180088,3.035850286,2024-06-05 16:52:33.265669
1.30615059,-15.43316841,-2.697472572,2.577270985,2024-06-05 16:52:33.306151
1.346630485,-12.3376503,-1.52163744,3.47619915,2024-06-05 16:52:33.346630
1.38712309,-3.745556355,2.851142168,12.20233536,2024-06-05 16:52:33.387123
1.427616163,3.004638195,4.944262981,1.868440151,2024-06-05 16:52:33.427616
1.468089131,14.03220367,7.04227829,3.0068326,2024-06-05 16:52:33.468089
1.5085846,8.54971981,6.144414902,-1.214578152,2024-06-05 16:52:33.508585
1.5490571,3.383479834,3.628364086,2.035014629,2024-06-05 16:52:33.549057
1.589543715,-5.971054077,-3.182914257,-0.6640274525,2024-06-05 16:52:33.589544
1.6300696,0.02970504761,-2.672105312,-2.38102293,2024-06-05 16:52:33.630070
1.67054236,-0.5977988243,-5.301092625,0.7879782319,2024-06-05 16:52:33.670542
1.711002933,0.7544364929,-2.826407433,0.2243849039,2024-06-05 16:52:33.711003
1.751494652,4.897554874,-1.843918324,-0.2649571896,2024-06-05 16:52:33.751495
1.79200335,-0.9160590172,4.452139378,-1.78684473,2024-06-05 16:52:33.792003
1.83247309,-3.855296612,3.480554104,0.1265801191,2024-06-05 16:52:33.832473
1.872957777,-0.4460082054,3.360469818,-0.1554071903,2024-06-05 16:52:33.872958
1.913461058,0.3429913521,-2.504647255,-1.158550024,2024-06-05 16:52:33.913461
1.953958038,0.3130531311,-3.370987892,0.3818593025,2024-06-05 16:52:33.953958
1.994448767,1.772424102,-4.743916512,0.4986881316,2024-06-05 16:52:33.994449
2.034902517,7.314820766,-2.915703773,-1.762773752,2024-06-05 16:52:34.034903
2.07536809,-2.586271524,4.281369209,-2.335469961,2024-06-05 16:52:34.075368
2.115849756,-5.621003151,5.291698456,3.250353813,2024-06-05 16:52:34.115850
2.156329913,-0.05289494991,7.715679169,0.4950796068,2024-06-05 16:52:34.156330
2.196819392,-1.34573698,1.304066658,0.388246119,2024-06-05 16:52:34.196819
2.237330433,0.6953849792,-0.1673812866,-0.008690655231,2024-06-05 16:52:34.237330
2.277800694,1.675191879,-5.833509445,-1.849449873,2024-06-05 16:52:34.277801
2.318278506,-3.403422356,-6.155779839,-0.4362801909,2024-06-05 16:52:34.318279
2.358784965,-1.251038074,-1.107566833,0.1302679777,2024-06-05 16:52:34.358785
2.399295381,4.492763519,2.080679417,-0.03429019451,2024-06-05 16:52:34.399295
2.439762933,1.253657341,3.813008308,0.2728293538,2024-06-05 16:52:34.439763
2.480221215,0.3504435122,1.984895229,-1.978210449,2024-06-05 16:52:34.480221
2.520703819,0.3524620831,2.049659252,-0.05532991886,2024-06-05 16:52:34.520704
2.561195902,0.9400043488,1.583575249,0.03860676289,2024-06-05 16:52:34.561196
2.601698923,-1.401074767,1.42527771,-1.521716833,2024-06-05 16:52:34.601699
2.642170902,-0.1017885208,3.919517994,0.04273277521,2024-06-05 16:52:34.642171
2.682659704,2.265273809,-9.540346146,-2.166439056,2024-06-05 16:52:34.682660
2.723153819,-4.483371735,-9.336381912,4.720168114,2024-06-05 16:52:34.723154
2.763639183,1.067105532,1.379235268,-0.8759900331,2024-06-05 16:52:34.763639
2.80412835,0.8114795089,0.1039524078,0.9104828835,2024-06-05 16:52:34.804128
2.844615069,-0.1266175807,-0.5673627853,1.500391245,2024-06-05 16:52:34.844615
2.885081215,0.7245094776,-0.58436203,1.073222637,2024-06-05 16:52:34.885081
2.925556735,0.6625642776,-0.4044704437,0.6425204277,2024-06-05 16:52:34.925557
2.966052048,-0.8798331618,-0.3018770218,-0.4884502888,2024-06-05 16:52:34.966052
3.006546319,0.8382858038,0.3026161194,-2.904384375,2024-06-05 16:52:35.006546
3.047018715,0.2858576775,1.385212898,-3.266671896,2024-06-05 16:52:35.047019
3.087525225,0.9328378439,1.157184601,-1.559796453,2024-06-05 16:52:35.087525
3.128026319,0.1965789497,0.8031024933,-0.5383620262,2024-06-05 16:52:35.128026
3.16847559,0.3997511268,0.547533989,0.6390376091,2024-06-05 16:52:35.168476
3.20897986,0.7142531276,0.8213644028,0.241774559,2024-06-05 16:52:35.208980
3.249501423,0.4673838019,-0.9360971451,1.638560534,2024-06-05 16:52:35.249501
3.289962621,2.731259584,-2.959485054,1.885864735,2024-06-05 16:52:35.289963
3.330447621,0.03370451927,1.383285522,-0.8933128119,2024-06-05 16:52:35.330448
3.370925017,-0.4293668568,1.066126823,-1.526905537,2024-06-05 16:52:35.370925
3.411391996,-0.5715272427,0.107588768,-1.14111495,2024-06-05 16:52:35.411392
3.451890173,0.3238945007,-0.8223791122,-0.3181627989,2024-06-05 16:52:35.451890
3.492370798,0.4027898908,0.2333688736,-0.04821968079,2024-06-05 16:52:35.492371
3.53290861,-0.2900925875,-0.5699310303,-0.3079027534,2024-06-05 16:52:35.532909
3.573354444,-0.4827630222,-0.4086904526,-0.008026123047,2024-06-05 16:52:35.573354
3.613853715,-0.08241260052,0.1260538101,-0.7560510039,2024-06-05 16:52:35.613854
3.654391319,0.4134402871,0.2976169586,-1.267358065,2024-06-05 16:52:35.654391
3.694826892,0.427947402,0.2519712448,-0.4386164546,2024-06-05 16:52:35.694827
3.735273402,0.2923150063,-0.2246322632,0.2428711653,2024-06-05 16:52:35.735273
3.775793506,0.403137207,0.03603553772,0.2177827358,2024-06-05 16:52:35.775794
3.816275069,-0.7008109093,-0.1455011368,-0.9243280888,2024-06-05 16:52:35.816275
3.856765017,-1.698690891,-0.3665370941,-0.2213801146,2024-06-05 16:52:35.856765
3.897246579,-1.467176318,0.002330780029,-0.4884338379,2024-06-05 16:52:35.897247
3.937710329,-0.1928322315,-0.3002328873,-0.4096169472,2024-06-05 16:52:35.937710
3.978199756,-0.1521388292,-0.2322683334,0.7847043276,2024-06-05 16:52:35.978200
4.018696631,-0.636297822,-0.05448246002,-0.583771348,2024-06-05 16:52:36.018697
4.059131735,-0.6842464805,-0.433924675,-1.314143896,2024-06-05 16:52:36.059132
4.099630121,0.01491385698,-0.0278968811,-1.024526834,2024-06-05 16:52:36.099630
4.140149652,0.08989495039,0.1801042557,-0.8727755547,2024-06-05 16:52:36.140150
4.180631475,-0.4052753448,-0.3670721054,-0.4619265795,2024-06-05 16:52:36.180631
4.22110111,1.769271135,-0.2069835663,-0.05618739128,2024-06-05 16:52:36.221101
4.261597308,2.250302076,-0.7927742004,2.289381504,2024-06-05 16:52:36.261597
4.302082308,-0.8222067356,-0.0809545517,1.239924669,2024-06-05 16:52:36.302082
4.342576475,-2.088574409,1.118844032,-0.2571363449,2024-06-05 16:52:36.342576
4.38310486,-3.50217557,0.322271347,-0.7656481266,2024-06-05 16:52:36.383105
4.423553715,-1.376654387,1.186248779,-2.41060257,2024-06-05 16:52:36.423554
4.464041788,1.252426505,1.731082916,-0.1371033192,2024-06-05 16:52:36.464042
4.504534704,4.108201504,2.360133648,1.012076855,2024-06-05 16:52:36.504535
4.544980433,1.378439426,-0.5651960373,2.755397081,2024-06-05 16:52:36.544980
4.585533923,0.01283383369,-4.629110336,3.327079535,2024-06-05 16:52:36.585534
4.6259521,1.165950298,3.321789742,-2.904092312,2024-06-05 16:52:36.625952
4.666435225,-2.95672369,2.098519802,-1.192131996,2024-06-05 16:52:36.666435
4.706944652,-0.5669014454,0.310377121,-0.05010938644,2024-06-05 16:52:36.706945
4.747427465,-0.1193143129,0.6733489037,-0.470243454,2024-06-05 16:52:36.747427
4.787935225,-0.704051733,2.883371353,-1.558218002,2024-06-05 16:52:36.787935
4.828411423,-1.232064009,-1.758593559,1.075335503,2024-06-05 16:52:36.828411
4.868885121,-0.637349844,-1.255060673,0.5180583,2024-06-05 16:52:36.868885
4.9093621,1.668058276,2.586406708,-3.17349124,2024-06-05 16:52:36.909362
4.949880225,0.2491247654,-0.2400608063,-1.13513422,2024-06-05 16:52:36.949880
4.990343923,-0.5813136101,-0.3390378952,-0.1219544411,2024-06-05 16:52:36.990344
5.03081236,-0.3174130917,-0.5257534981,-0.5801749229,2024-06-05 16:52:37.030812
5.071295277,0.7310910225,-0.2045040131,-0.996368885,2024-06-05 16:52:37.071295
5.111794704,-0.5597553253,-0.9726881981,-0.2057180405,2024-06-05 16:52:37.111795
5.152281215,0.3259453773,-0.5548505783,-0.2240762711,2024-06-05 16:52:37.152281
5.19278111,0.7397377491,-1.182948589,0.01646137238,2024-06-05 16:52:37.192781
5.23326236,0.08687829971,-2.06684947,0.7143435478,2024-06-05 16:52:37.233262
5.273742256,0.4633989334,-1.265509367,-0.3355760574,2024-06-05 16:52:37.273742
5.314250277,-0.07919502258,-1.596805334,0.8117437363,2024-06-05 16:52:37.314250
5.354768402,-0.1982021332,-0.7452390194,0.6839466095,2024-06-05 16:52:37.354768
5.395192465,-1.512804985,-1.401544333,1.690382004,2024-06-05 16:52:37.395192
5.435668975,-0.7191171646,0.1449609995,0.1413908005,2024-06-05 16:52:37.435669
5.476149079,-0.2550287247,0.0507183075,0.378698349,2024-06-05 16:52:37.476149
5.516651267,-1.187216282,0.5583299994,0.4964084625,2024-06-05 16:52:37.516651
5.557147621,-0.882692337,1.085687518,0.124756813,2024-06-05 16:52:37.557148
5.597633767,-0.3510270119,0.5069983006,-0.2592191696,2024-06-05 16:52:37.597634
5.638119808,0.332734108,-0.2248911262,0.1057224274,2024-06-05 16:52:37.638120
5.6786171,-0.02372694016,-0.1480734944,0.5155544281,2024-06-05 16:52:37.678617
5.719079913,-0.09373903275,0.8778911829,-0.1933240891,2024-06-05 16:52:37.719080
5.759579548,0.3463420868,0.5464237332,0.2306318283,2024-06-05 16:52:37.759580
5.800051683,-1.045191765,-0.8392207623,0.7965745926,2024-06-05 16:52:37.800052
5.840549756,-0.21667099,0.303899914,-0.6972193718,2024-06-05 16:52:37.840550
5.88102585,1.289252758,1.537585378,-1.282495022,2024-06-05 16:52:37.881026
5.921512204,0.2770256996,0.370105207,0.2710723877,2024-06-05 16:52:37.921512
5.961976006,-0.8299555779,0.1222543716,0.0861530304,2024-06-05 16:52:37.961976
6.002484496,-0.673286438,-0.9317361116,0.8553266525,2024-06-05 16:52:38.002484
6.042970329,0.7617530823,-0.81822896,-0.6022324562,2024-06-05 16:52:38.042970
6.083449808,-0.1341609955,-1.373997688,-0.245221138,2024-06-05 16:52:38.083450
6.123937621,-0.04094696045,-0.186841011,-0.3057422638,2024-06-05 16:52:38.123938
6.164424392,0.2642860413,0.8588885069,-0.1419448853,2024-06-05 16:52:38.164424
6.204894496,-0.8203082085,0.741548419,-0.2931437492,2024-06-05 16:52:38.204894
6.245403767,-0.2478551865,0.2554090023,-0.02733802795,2024-06-05 16:52:38.245404
6.285887569,0.1809372902,-0.04230612516,0.03640365601,2024-06-05 16:52:38.285888
6.326369444,0.08374357224,0.1197043657,0.08752441406,2024-06-05 16:52:38.326369
6.366851371,-0.166118145,0.12261796,-0.004925727844,2024-06-05 16:52:38.366851
6.407334131,-0.2742958069,0.01006454229,-0.2262835503,2024-06-05 16:52:38.407334
6.447834392,0.2776412964,-0.1003953218,-0.1534547806,2024-06-05 16:52:38.447834
6.488314704,0.09992647171,-0.05249297619,-0.1567850113,2024-06-05 16:52:38.488315
6.528779444,-0.5366587639,0.1032442451,-0.4090604782,2024-06-05 16:52:38.528779
6.569317152,-0.03954792023,0.09833097458,-0.1513009071,2024-06-05 16:52:38.569317
6.609819965,0.006726741791,-0.02487534285,0.02515506744,2024-06-05 16:52:38.609820
6.650293298,-0.2334861755,0.005024373531,-0.1231150627,2024-06-05 16:52:38.650293
6.690757621,-0.04224729538,0.2579137683,-0.1052384377,2024-06-05 16:52:38.690758
6.731176788,-0.06562709808,0.3346328437,-0.04485559464,2024-06-05 16:52:38.731177
6.771690746,-0.2625589371,0.09091579914,-0.11901474,2024-06-05 16:52:38.771691
6.812219079,-0.04559278488,0.1209928393,-0.1094641685,2024-06-05 16:52:38.812219
6.852673038,-0.1482219696,0.05867385864,-0.0734629631,2024-06-05 16:52:38.852673
6.893159444,-0.1445131302,0.1018585861,-0.09398794174,2024-06-05 16:52:38.893159
6.933642152,-0.06224489212,0.1157836914,-0.07101917267,2024-06-05 16:52:38.933642
6.974088715,-0.01447916031,0.08711346984,-0.1522769928,2024-06-05 16:52:38.974089
7.014623194,-0.07560491562,0.07238432765,0.04810333252,2024-06-05 16:52:39.014623
7.055102517,-0.04484224319,-0.01651465893,-0.1177682877,2024-06-05 16:52:39.055103
7.095587985,-0.0961151123,-0.005378186703,-0.1272649765,2024-06-05 16:52:39.095588
7.136071579,-0.03080511093,0.1627091765,-0.06052160263,2024-06-05 16:52:39.136072
7.17652934,-0.1005821228,0.02121639252,-0.1580271721,2024-06-05 16:52:39.176529
7.217023246,-0.2002196312,0.08112040162,-0.1466245651,2024-06-05 16:52:39.217023
7.257502621,-0.1478362083,-0.08197873831,-0.1292929649,2024-06-05 16:52:39.257503
7.298028767,0.1138148308,-0.1514146924,-0.004590511322,2024-06-05 16:52:39.298029
7.338502725,0.02869319916,-0.01723235846,5.388259888e-05,2024-06-05 16:52:39.338503
7.378986788,-0.2359414101,0.1113951206,-0.05077886581,2024-06-05 16:52:39.378987
7.419493975,0.05732870102,0.1091315746,-0.05373668671,2024-06-05 16:52:39.419494
7.459946423,0.07587957382,0.0844014287,-0.03084468842,2024-06-05 16:52:39.459946
7.500444079,-0.1170401573,0.1504434943,-0.03828287125,2024-06-05 16:52:39.500444
7.54090236,-0.1807579994,0.2170653343,0.02537441254,2024-06-05 16:52:39.540902
7.581387465,0.1522760391,0.04013130069,0.06871128082,2024-06-05 16:52:39.581387
7.621885017,0.3161478043,-0.06329578161,0.1210594177,2024-06-05 16:52:39.621885
7.662379548,0.2359042168,0.08313322067,0.0141620636,2024-06-05 16:52:39.662380
7.702855225,-0.03953027725,0.2500349283,-0.004615783691,2024-06-05 16:52:39.702855
7.74337486,-0.3068599701,0.121712178,-0.0821056366,2024-06-05 16:52:39.743375
7.783835433,-0.007793903351,-0.06280887127,-0.07365226746,2024-06-05 16:52:39.783835
7.824290902,0.1763477325,-0.1760524511,-0.05342483521,2024-06-05 16:52:39.824291
7.864801163,0.1175575256,-0.1353891492,-0.07710552216,2024-06-05 16:52:39.864801
7.905293767,-0.1261425018,0.04427474737,-0.06163597107,2024-06-05 16:52:39.905294
7.945775746,0.005695819855,0.05288544297,-0.07283973694,2024-06-05 16:52:39.945776
7.986241267,0.1467590332,-0.06214940548,0.006655693054,2024-06-05 16:52:39.986241
8.026745173,-0.007131576538,-0.108784616,0.02040576935,2024-06-05 16:52:40.026745
8.06723684,0.05031585693,0.04518073797,0.05076885223,2024-06-05 16:52:40.067237
8.107720121,-0.1078662872,0.10049963,-0.06638908386,2024-06-05 16:52:40.107720
8.14820585,0.03248071671,0.04039570689,0.03662014008,2024-06-05 16:52:40.148206
8.188683975,-0.01171541214,-0.02345687151,0.009181022644,2024-06-05 16:52:40.188684
8.229220329,0.007615566254,0.04008832574,0.01447486877,2024-06-05 16:52:40.229220
8.269631006,-0.04249858856,0.06935986876,0.02262592316,2024-06-05 16:52:40.269631
8.310167673,0.05654811859,0.08222073317,0.04572582245,2024-06-05 16:52:40.310168
8.350632569,0.007803440094,-0.00544655323,-0.001274108887,2024-06-05 16:52:40.350633
8.391096475,-0.002812385559,0.045370996,-0.01971149445,2024-06-05 16:52:40.391096
8.431580642,-0.003887653351,-0.03187993169,0.003746032715,2024-06-05 16:52:40.431581
8.472131423,0.04521799088,-0.007471203804,0.00602722168,2024-06-05 16:52:40.472131
8.512639027,-0.111770153,-0.01772370934,-0.06904220581,2024-06-05 16:52:40.512639
8.553037413,-0.01361608505,0.003066748381,-0.049451828,2024-06-05 16:52:40.553037
8.593529548,-0.01553487778,-0.04520899057,-0.03879261017,2024-06-05 16:52:40.593530
8.634031215,-0.02548122406,0.06885206699,0.006874084473,2024-06-05 16:52:40.634031
8.674515017,-0.1428050995,0.009029358625,-0.01723766327,2024-06-05 16:52:40.674515
8.71497486,-0.002606868744,0.05267967284,0.03388309479,2024-06-05 16:52:40.714975
8.755476735,0.07257461548,0.03332652152,0.05111598969,2024-06-05 16:52:40.755477
8.795988871,-0.04055738449,0.02068266273,-0.004462242126,2024-06-05 16:52:40.795989
8.836469913,-0.0120177269,0.04338887334,-0.0003509521484,2024-06-05 16:52:40.836470
8.876965173,0.01559066772,0.03551004827,0.009662628174,2024-06-05 16:52:40.876965
8.917431267,-0.01649856567,0.00995978713,-0.04196834564,2024-06-05 16:52:40.917431
8.957915538,-0.06831073761,0.0121575892,-0.04215621948,2024-06-05 16:52:40.957916
8.998382413,-0.01669073105,0.02072541416,-0.02545833588,2024-06-05 16:52:40.998382
9.038874704,0.02412557602,-0.02292099595,0.007994651794,2024-06-05 16:52:41.038875
9.079337725,-0.05609512329,0.0465182662,-0.03967761993,2024-06-05 16:52:41.079338
9.119827256,-0.06294965744,0.05160449445,0.03179740906,2024-06-05 16:52:41.119827
9.160310798,0.00764465332,-0.02990151942,0.001163482666,2024-06-05 16:52:41.160311
9.200808038,0.04189014435,0.04816280305,0.002970695496,2024-06-05 16:52:41.200808
9.241298663,-0.06541395187,-0.02598425746,-0.0003261566162,2024-06-05 16:52:41.241299
9.281766579,0.0761141777,0.06812101603,0.02518177032,2024-06-05 16:52:41.281767
9.322288871,-0.02313899994,0.02373033762,-0.06967735291,2024-06-05 16:52:41.322289
9.362785225,0.02282524109,-0.02653467655,-0.007553100586,2024-06-05 16:52:41.362785
9.403253975,0.02158117294,-0.007083714008,0.01319122314,2024-06-05 16:52:41.403254
9.4437571,-0.05237722397,0.0221388489,-0.02083492279,2024-06-05 16:52:41.443757
9.48421986,-0.01140737534,-0.02074693143,-0.01396369934,2024-06-05 16:52:41.484220
9.524698871,-0.02175664902,0.02694545686,0.01003265381,2024-06-05 16:52:41.524699
9.565185121,-0.05158758163,0.01830808818,-0.002775192261,2024-06-05 16:52:41.565185
9.605668975,0.01979494095,0.04166601598,-0.004262924194,2024-06-05 16:52:41.605669
9.646125329,-0.004305362701,0.01621069014,-0.0001525878906,2024-06-05 16:52:41.646125
9.686598558,-0.02271223068,0.002976566553,-0.02476215363,2024-06-05 16:52:41.686599
9.727081058,0.01508569717,0.02808581293,0.003839492798,2024-06-05 16:52:41.727081
9.767568663,0.01662302017,0.0360686481,0.02929973602,2024-06-05 16:52:41.767569
9.808058194,-0.02356433868,-0.03218728304,-0.03429317474,2024-06-05 16:52:41.808058
9.848539444,-0.009107112885,0.003649011254,0.005802154541,2024-06-05 16:52:41.848539
9.889021475,-0.01716709137,-0.01253940165,-0.01546764374,2024-06-05 16:52:41.889021
9.929506683,-0.02174568176,0.02859252691,-0.009160995483,2024-06-05 16:52:41.929507
9.970063194,-0.02502727509,0.02114723623,-0.04230213165,2024-06-05 16:52:41.970063
10.01048424,0.007290840149,0.009522035718,0.01089000702,2024-06-05 16:52:42.010484
10.05100241,-0.01479768753,0.01378421485,-0.008015632629,2024-06-05 16:52:42.051002
10.09144924,-0.02597570419,-0.01749841869,-0.02905750275,2024-06-05 16:52:42.091449
10.13194215,0.04266834259,0.004351690412,-0.02263832092,2024-06-05 16:52:42.131942
10.17242939,-0.1060285568,0.06212225556,-0.036693573,2024-06-05 16:52:42.172429
10.2129947,-0.06125259399,0.02499362826,-0.003561973572,2024-06-05 16:52:42.212995
10.25340929,-0.1181044579,0.03419879079,-0.02666473389,2024-06-05 16:52:42.253409
10.29389382,0.04877853394,-0.05435264111,0.0450220108,2024-06-05 16:52:42.293894
10.33437257,-0.02276325226,-2.507865429e-05,0.02320098877,2024-06-05 16:52:42.334373
10.37484825,-0.04496383667,-0.09306532145,-0.09658527374,2024-06-05 16:52:42.374848
10.41536715,0.08079910278,-0.1021806002,-0.01752567291,2024-06-05 16:52:42.415367
10.4558345,-0.06500148773,-0.01876948774,-0.05399799347,2024-06-05 16:52:42.455834
10.496302,-0.02878808975,-0.02902185917,-0.02716445923,2024-06-05 16:52:42.496302
10.5368333,0.02155542374,-0.06527876854,0.01242828369,2024-06-05 16:52:42.536833
10.57727575,0.07742214203,-0.002970814705,0.003290176392,2024-06-05 16:52:42.577276
10.61779965,-0.1400814056,0.1204653978,-0.01112651825,2024-06-05 16:52:42.617800
10.65824325,0.04882287979,0.1062226817,0.006150245667,2024-06-05 16:52:42.658243
10.69875387,0.04886388779,0.1800961345,0.04692745209,2024-06-05 16:52:42.698754
10.73921877,-0.1302962303,0.1212285683,0.05389881134,2024-06-05 16:52:42.739219
10.77972194,0.06841230392,0.02487840317,0.04385185242,2024-06-05 16:52:42.779722
10.82017054,0.04805612564,-0.2142927498,-0.07918739319,2024-06-05 16:52:42.820171
10.86066309,-0.05937290192,0.009963318706,0.01946640015,2024-06-05 16:52:42.860663
10.90117653,0.04789829254,0.09465193748,0.0288143158,2024-06-05 16:52:42.901177
10.94164705,0.001961231232,0.0532945171,0.03409576416,2024-06-05 16:52:42.941647
10.98214538,0.0364408493,0.01039683446,0.01108551025,2024-06-05 16:52:42.982145
11.02260309,0.1007657051,-0.04652158171,0.011759758,2024-06-05 16:52:43.022603
11.06312236,0.03761100769,-0.01888407767,0.08152389526,2024-06-05 16:52:43.063122
11.10358934,-0.07344961166,0.0434195362,-0.04031944275,2024-06-05 16:52:43.103589
11.14406616,-0.008623600006,0.02672229521,-0.006452560425,2024-06-05 16:52:43.144066
11.1845658,0.02613592148,-0.1003046036,-0.009556770325,2024-06-05 16:52:43.184566
11.2250233,0.02653646469,0.05530873314,0.0466709137,2024-06-05 16:52:43.225023
11.265517,-0.02642440796,0.03913110867,-0.03569793701,2024-06-05 16:52:43.265517
11.30600668,-0.006476402283,0.04953475296,0.0307636261,2024-06-05 16:52:43.306007
11.34648866,0.08230161667,-0.02466821671,0.01971721649,2024-06-05 16:52:43.346489
11.3869671,-0.04097509384,-0.03055177256,0.001255989075,2024-06-05 16:52:43.386967
11.4274597,0.02163124084,-0.04403470457,-0.0285577774,2024-06-05 16:52:43.427460
11.46794439,0.001353740692,-0.01036486775,-0.01907444,2024-06-05 16:52:43.467944
11.50843632,-0.04625988007,0.005854614079,-0.002801895142,2024-06-05 16:52:43.508436
11.548922,-0.005264282227,0.04715204239,0.006739616394,2024-06-05 16:52:43.548922
11.58945304,-0.01499128342,-0.0423447229,-0.05551815033,2024-06-05 16:52:43.589453
11.62989533,-0.03669881821,-0.001890396699,-0.03075408936,2024-06-05 16:52:43.629895
11.67038085,0.03661584854,0.02869570442,0.006693840027,2024-06-05 16:52:43.670381
11.71084955,-0.00900554657,0.01276660617,0.008155822754,2024-06-05 16:52:43.710850
11.75133325,-0.02883577347,0.004704918712,0.01109886169,2024-06-05 16:52:43.751333
11.79181715,0.02737092972,-0.02656600997,-0.02687931061,2024-06-05 16:52:43.791817
11.83230835,-0.003736019135,-0.01507854089,0.01959228516,2024-06-05 16:52:43.832308
11.87281106,-0.03303480148,0.09830649197,0.02334785461,2024-06-05 16:52:43.872811
11.91328226,-0.02290868759,-0.04621642083,0.008037567139,2024-06-05 16:52:43.913282
11.95376648,0.01579904556,-0.04242978245,-0.03504753113,2024-06-05 16:52:43.953766
11.99426325,-0.006840705872,-0.05713406205,-0.04082679749,2024-06-05 16:52:43.994263
12.03475668,-0.002329826355,0.04288262129,-0.0253868103,2024-06-05 16:52:44.034757
12.07524017,-0.04542016983,-0.0222875271,-0.0329656601,2024-06-05 16:52:44.075240
12.11572429,0.04008722305,0.0705640018,0.00933265686,2024-06-05 16:52:44.115724
12.15621496,-0.077023983,0.07719822973,0.02205944061,2024-06-05 16:52:44.156215
12.19670757,-0.1137690544,0.03470955789,-0.001544952393,2024-06-05 16:52:44.196708
12.23718996,0.06651210785,0.07208376378,0.01472663879,2024-06-05 16:52:44.237190
12.27766455,-0.0724067688,-0.04931057617,0.05053901672,2024-06-05 16:52:44.277665
12.31815403,0.03816461563,-0.03475867957,-0.02249717712,2024-06-05 16:52:44.318154
12.35863267,-0.01700353622,-0.05443030223,-0.03412246704,2024-06-05 16:52:44.358633
12.39910512,0.06636667252,-0.04790105671,-0.05899429321,2024-06-05 16:52:44.399105
12.43960653,-0.05727434158,-0.01103304327,-0.05197048187,2024-06-05 16:52:44.439607
12.48009825,-0.08665132523,0.04216569662,-0.01491451263,2024-06-05 16:52:44.480098
12.52056726,0.03129768372,-0.01864405721,0.01355457306,2024-06-05 16:52:44.520567
12.5610458,-0.0253071785,-0.007376652211,0.02047729492,2024-06-05 16:52:44.561046
12.60154627,-0.09349727631,-0.003835327923,-0.006262779236,2024-06-05 16:52:44.601546
12.64203773,0.03610038757,-0.01492846757,-0.02200698853,2024-06-05 16:52:44.642038
12.68251924,-0.05396127701,0.06013726443,-0.04266452789,2024-06-05 16:52:44.682519
12.72299741,-0.05800294876,0.05544260144,-0.05686759949,2024-06-05 16:52:44.722997
12.76347434,0.02273654938,-0.04276019707,-0.04020881653,2024-06-05 16:52:44.763474
12.80397122,-0.02033090591,-0.02775635384,0.01023387909,2024-06-05 16:52:44.803971
12.84445981,0.00536775589,0.05458022282,0.008078575134,2024-06-05 16:52:44.844460
12.88494012,-0.09067296982,-0.01931953058,0.02757358551,2024-06-05 16:52:44.884940
12.92542345,0.08720159531,0.01518441364,0.05010318756,2024-06-05 16:52:44.925423
12.96590502,0.03129386902,0.03221746162,0.01171207428,2024-06-05 16:52:44.965905
13.0063897,0.05228567123,0.03079430014,0.04051780701,2024-06-05 16:52:45.006390
13.04690497,0.09498167038,0.109542802,0.04797649384,2024-06-05 16:52:45.046905
13.08738825,0.02115726471,-0.02752970718,0.04570960999,2024-06-05 16:52:45.087388
13.12786476,0.04023694992,-0.09724141657,-0.008297920227,2024-06-05 16:52:45.127865
13.16832616,-0.02675485611,-0.03051552922,-0.03149700165,2024-06-05 16:52:45.168326
13.20882361,-0.01352596283,-0.001728005707,-0.02487230301,2024-06-05 16:52:45.208824
13.249332,0.01127624512,0.03513921797,-0.04458141327,2024-06-05 16:52:45.249332
13.28979366,-0.006347179413,-0.006965880282,-0.01868581772,2024-06-05 16:52:45.289794
13.33025111,-0.007720947266,-0.05071071535,-0.03312778473,2024-06-05 16:52:45.330251
13.37077038,-0.1338448524,-0.01622684672,-0.05391550064,2024-06-05 16:52:45.370770
13.41125023,-0.03804302216,-0.0346936807,-0.01966667175,2024-06-05 16:52:45.411250
13.45171705,0.01132774353,-0.004570126534,0.01496982574,2024-06-05 16:52:45.451717
13.49222273,-0.06365346909,-0.00973960571,-0.04833316803,2024-06-05 16:52:45.492223
13.5326884,-0.04711866379,-0.007019393146,-0.02338886261,2024-06-05 16:52:45.532688
13.57320163,0.01438856125,-0.006805842742,-0.0256114006,2024-06-05 16:52:45.573202
13.61367153,0.03097486496,-0.02727049589,0.01750040054,2024-06-05 16:52:45.613672
13.65416064,-0.07136964798,-0.06243862212,-0.07733821869,2024-06-05 16:52:45.654161
13.69462455,-0.04993724823,-0.1139681786,-0.04926919937,2024-06-05 16:52:45.694625
13.73512247,-0.01566553116,-0.03787378222,-0.006094932556,2024-06-05 16:52:45.735122
13.77559012,0.05171728134,-0.03648553044,0.0269536972,2024-06-05 16:52:45.775590
13.81610304,-0.04259967804,-0.009600646794,0.03932476044,2024-06-05 16:52:45.816103
13.85658642,0.01346826553,-0.02106079459,0.06272411346,2024-06-05 16:52:45.856586
13.89708064,-0.0559387207,0.1527117938,-0.08246326447,2024-06-05 16:52:45.897081
13.93755382,0.07032060623,0.3115347624,-0.2269001007,2024-06-05 16:52:45.937554
13.97804418,0.09842061996,0.1530329883,0.1812515259,2024-06-05 16:52:45.978044
14.01852981,-0.03771829605,0.009198412299,0.2799882889,2024-06-05 16:52:46.018530
14.05899637,0.1243185997,0.03223732114,-0.04566860199,2024-06-05 16:52:46.058996
14.09948845,0.04406690598,-0.07559958845,0.1068754196,2024-06-05 16:52:46.099488
14.13998595,-0.03313350677,-0.03189252317,0.04551029205,2024-06-05 16:52:46.139986
14.18048168,-0.04716777802,-0.01187738031,-0.09562969208,2024-06-05 16:52:46.180482
14.22096189,0.06889629364,-0.04807530344,-0.04253721237,2024-06-05 16:52:46.220962
14.26145788,-0.0478348732,-0.05897462368,-0.08382606506,2024-06-05 16:52:46.261458
14.30192741,-0.06980800629,-0.03579565883,-0.009697914124,2024-06-05 16:52:46.301927
14.34241991,-0.08578538895,-0.02530210465,-0.03798294067,2024-06-05 16:52:46.342420
14.38290642,0.02418279648,-0.09472234547,-0.02668857574,2024-06-05 16:52:46.382906
14.42339095,-0.03732967377,0.03129854798,0.02776288986,2024-06-05 16:52:46.423391
14.46386366,-0.0360789299,0.04204197228,-0.04289484024,2024-06-05 16:52:46.463864
14.50435215,0.02811861038,0.007696539164,0.01605367661,2024-06-05 16:52:46.504352
14.54482517,-0.02750635147,0.03982761502,-0.01680088043,2024-06-05 16:52:46.544825
14.58533262,0.006484031677,0.02964328229,0.006136894226,2024-06-05 16:52:46.585333
14.62580799,0.0005683898926,0.01362101734,0.04717206955,2024-06-05 16:52:46.625808
14.66629569,-0.003888607025,-0.03559942544,-0.00281047821,2024-06-05 16:52:46.666296
14.70678424,-0.008576393127,-0.04607177526,0.006155014038,2024-06-05 16:52:46.706784
14.74725788,-0.03521680832,-0.003723934293,-0.001204013824,2024-06-05 16:52:46.747258
14.78775215,0.04823112488,-0.1369703263,-0.02414369583,2024-06-05 16:52:46.787752
14.8282347,0.08293056488,0.03020881116,0.04477977753,2024-06-05 16:52:46.828235
14.86871736,-0.05149316788,0.08169074357,0.01393508911,2024-06-05 16:52:46.868717
14.90919913,0.04527139664,0.06263919175,0.03451299667,2024-06-05 16:52:46.909199
14.9496921,0.07734251022,0.04076370597,-0.009409427643,2024-06-05 16:52:46.949692
14.99017262,0.02174377441,0.02651529014,0.03735160828,2024-06-05 16:52:46.990173
15.0306609,-0.002021312714,0.04944591224,-0.05549621582,2024-06-05 16:52:47.030661
15.07115476,0.07238674164,0.05193480849,0.02810573578,2024-06-05 16:52:47.071155
15.1116346,-0.08854722977,0.05225913227,-0.06854772568,2024-06-05 16:52:47.111635
15.15211585,-0.009574890137,0.04849803448,-0.03493499756,2024-06-05 16:52:47.152116
15.19261132,-0.2192254066,0.02648565173,0.02082538605,2024-06-05 16:52:47.192611
15.23307705,-0.1452693939,-0.1136696339,-0.08094406128,2024-06-05 16:52:47.233077
15.27357434,-0.04329538345,-0.1059990376,-0.08188676834,2024-06-05 16:52:47.273574
15.31406554,-0.05745124817,-0.06738173962,-0.06306934357,2024-06-05 16:52:47.314066
15.35454549,0.008438587189,0.07582098991,0.09223175049,2024-06-05 16:52:47.354545
15.39503398,0.009159564972,0.04567185789,0.1548938751,2024-06-05 16:52:47.395034
15.43552002,-0.2681384087,0.01771786809,0.0511713028,2024-06-05 16:52:47.435520
15.47600122,-0.4554619789,0.1209726483,-0.2567653656,2024-06-05 16:52:47.476001
15.51648986,0.3559308052,0.005053304136,-0.08100414276,2024-06-05 16:52:47.516490
15.55698283,0.3120117188,-0.1854525805,0.09140110016,2024-06-05 16:52:47.556983
15.59746382,-0.09542608261,-0.04148040712,-0.1238832474,2024-06-05 16:52:47.597464
15.63794674,-0.3339042664,0.2155226916,-0.156165123,2024-06-05 16:52:47.637947
15.67843895,0.001458644867,0.1556619257,-0.05831718445,2024-06-05 16:52:47.678439
15.71891234,0.1029248238,-0.07480943948,0.0617609024,2024-06-05 16:52:47.718912
15.75939541,0.09635543823,-0.132133767,-0.03120613098,2024-06-05 16:52:47.759395
15.79988166,0.06926631927,-0.06660147756,-0.03046607971,2024-06-05 16:52:47.799882
15.84036864,0.1434774399,-0.0693122223,0.06342601776,2024-06-05 16:52:47.840369
15.88085687,0.1247968674,-0.09559287131,0.03060626984,2024-06-05 16:52:47.880857
15.9213451,0.0690202713,0.1386705488,-0.03147888184,2024-06-05 16:52:47.921345
15.96181802,0.02260112762,0.1478561163,0.1411409378,2024-06-05 16:52:47.961818
16.00230708,-0.01825237274,0.05961086228,0.02122020721,2024-06-05 16:52:48.002307
16.04280052,-0.1113305092,0.01707303151,-0.01076602936,2024-06-05 16:52:48.042801
16.08328531,0.1009354591,0.04117631912,0.0891866684,2024-06-05 16:52:48.083285
16.12377275,0.1326422691,-0.04875157773,0.011967659,2024-06-05 16:52:48.123773
16.16425473,0.05839300156,-0.1357982606,0.006608963013,2024-06-05 16:52:48.164255
16.20474796,0.1130151749,-0.07098637521,0.1335086823,2024-06-05 16:52:48.204748
16.24523525,0.0579252243,-0.1109811962,-0.004631996155,2024-06-05 16:52:48.245235
16.28571223,-0.1003365517,0.03106382489,-0.03634166718,2024-06-05 16:52:48.285712
16.32619812,0.03445005417,0.03008514643,0.02068996429,2024-06-05 16:52:48.326198
16.36668364,0.0356388092,0.07325894386,0.02028751373,2024-06-05 16:52:48.366684
16.40716604,-0.1989417076,-0.02879649401,-0.006471633911,2024-06-05 16:52:48.407166
16.44765031,0.09328889847,0.07313397527,-0.007508277893,2024-06-05 16:52:48.447650
16.48811802,-0.181245327,0.05920049548,-0.06106281281,2024-06-05 16:52:48.488118
16.52861458,-0.09535217285,0.02900536358,0.01905822754,2024-06-05 16:52:48.528615
16.56911395,0.1759476662,-0.01157198846,0.04909229279,2024-06-05 16:52:48.569114
16.60959885,-0.07594537735,0.001137301326,0.02676486969,2024-06-05 16:52:48.609599
16.6500689,0.006925582886,0.04881672561,-0.02145004272,2024-06-05 16:52:48.650069
16.69058223,0.03922128677,-0.002078428864,-0.0269908905,2024-06-05 16:52:48.690582
16.73105598,-0.1378526688,-0.05882811546,-0.05253314972,2024-06-05 16:52:48.731056
16.77152161,-0.04133749008,-0.07184688747,0.01980686188,2024-06-05 16:52:48.771522
16.81202218,0.04617071152,-0.04843653738,-0.08071517944,2024-06-05 16:52:48.812022
16.85251437,-0.2107639313,-0.01826183498,0.01917076111,2024-06-05 16:52:48.852514
16.89301781,-0.05362701416,-0.01804874837,-0.03646945953,2024-06-05 16:52:48.893018
16.93345812,0.02689981461,-0.01373998821,-0.1091108322,2024-06-05 16:52:48.933458
16.97394796,-0.0109705925,0.08753283322,-0.07954406738,2024-06-05 16:52:48.973948
17.01444265,0.04301118851,0.04209595919,0.09415245056,2024-06-05 16:52:49.014443
17.05494786,-0.04066181183,0.05549095571,0.02018070221,2024-06-05 16:52:49.054948
17.0954139,-0.007237434387,0.06389410794,0.004402160645,2024-06-05 16:52:49.095414
17.13589921,0.06600761414,-0.01243619621,0.03435516357,2024-06-05 16:52:49.135899
17.17636994,0.03622913361,-0.04152096808,0.04123210907,2024-06-05 16:52:49.176370
17.21687343,0.06624746323,0.02670545876,0.04201698303,2024-06-05 16:52:49.216873
17.257364,-0.08497047424,0.05789275467,-0.03714752197,2024-06-05 16:52:49.257364
17.29784578,-0.01092910767,0.06192848086,-0.02618789673,2024-06-05 16:52:49.297846
17.33833244,0.03312349319,-0.0148883462,0.0182352066,2024-06-05 16:52:49.338332
17.37881812,0.08465671539,-0.01665662229,0.0450553894,2024-06-05 16:52:49.378818
17.41928322,0.02601099014,-0.04363211989,0.05938053131,2024-06-05 16:52:49.419283
17.45977135,-0.03774118423,-0.01035553217,0.03789043427,2024-06-05 16:52:49.459771
17.50026848,-0.007323741913,0.009954288602,-0.04380607605,2024-06-05 16:52:49.500268
17.5407663,-0.02153921127,0.004199877381,-0.03425693512,2024-06-05 16:52:49.540766
17.58124692,0.02693510056,-0.001497447491,-0.00567150116,2024-06-05 16:52:49.581247
17.62173338,-0.02075958252,-0.01050412655,-0.03861808777,2024-06-05 16:52:49.621733
17.66222156,0.03461933136,-0.04011106491,-0.006178855896,2024-06-05 16:52:49.662222
17.70267734,-0.01629829407,0.01610514522,0.003705024719,2024-06-05 16:52:49.702677
17.74318218,-0.008514404297,0.002790614963,-0.005292892456,2024-06-05 16:52:49.743182
17.7836538,-0.02898216248,-0.01625861228,-0.01521968842,2024-06-05 16:52:49.783654
17.82415036,-0.01646327972,-0.01069544256,0.002184867859,2024-06-05 16:52:49.824150
17.86463343,-0.01482868195,0.01427963376,-0.03225708008,2024-06-05 16:52:49.864633
17.90512604,-0.05316925049,0.02726076543,-0.01508808136,2024-06-05 16:52:49.905126
17.9456002,-0.0006055831909,0.005947694182,-0.008204460144,2024-06-05 16:52:49.945600
17.98607593,0.008687496185,-0.02239352465,0.006392478943,2024-06-05 16:52:49.986076
18.02657921,0.02801465988,-0.02593441308,0.022605896,2024-06-05 16:52:50.026579
18.06706822,-0.04873609543,0.00196544826,-0.00897026062,2024-06-05 16:52:50.067068
18.10755452,0.0237159729,-0.02049672604,-0.011759758,2024-06-05 16:52:50.107555
18.14803921,-0.06971549988,-0.09041212499,-0.01062107086,2024-06-05 16:52:50.148039
18.18852515,-0.1358880997,-0.063706249,-0.03212070465,2024-06-05 16:52:50.188525
18.22901036,-0.08439588547,0.08250530064,-0.1378822327,2024-06-05 16:52:50.229010
18.269489,-0.07274580002,0.1077311337,-0.01787376404,2024-06-05 16:52:50.269489
18.30998781,-0.1301159859,0.1382106841,-0.005604743958,2024-06-05 16:52:50.309988
18.3504701,-0.108253479,0.0565584898,-0.07264518738,2024-06-05 16:52:50.350470
18.39097552,0.1088624001,0.06236186624,-0.08543205261,2024-06-05 16:52:50.390976
18.43144015,0.01741838455,0.1703571677,-0.2282676697,2024-06-05 16:52:50.431440
18.47194223,0.03873825073,0.1043660343,0.08441543579,2024-06-05 16:52:50.471942
18.51240791,0.0232129097,-0.1397176981,0.3619031906,2024-06-05 16:52:50.512408
18.55289166,0.1070055962,-0.1529645473,0.0604095459,2024-06-05 16:52:50.552892
18.59337765,0.1715316772,-0.1634569615,0.1699285507,2024-06-05 16:52:50.593378
18.63385874,0.1595005989,-0.07167631388,0.01049137115,2024-06-05 16:52:50.633859
18.67435109,0.1003694534,0.02499444783,-0.07278156281,2024-06-05 16:52:50.674351
18.71482062,0.004209041595,0.08587779105,0.1178798676,2024-06-05 16:52:50.714821
18.75531869,0.04323673248,0.07965512574,-0.01646518707,2024-06-05 16:52:50.755319
18.79580369,0.04416513443,-0.01157040894,0.0269317627,2024-06-05 16:52:50.795804
18.83628124,-0.01194286346,-0.02174723148,0.1079368591,2024-06-05 16:52:50.836281
18.87678374,0.01100301743,0.002383515239,-0.06224060059,2024-06-05 16:52:50.876784
18.91726609,0.07575941086,0.009631305933,0.02426052094,2024-06-05 16:52:50.917266
18.9577514,-0.1377773285,0.03156428039,-0.04189395905,2024-06-05 16:52:50.957751
18.99823999,-0.01665401459,-0.02698975056,-0.007442474365,2024-06-05 16:52:50.998240
19.03873515,0.0265879631,-0.03064697981,-0.05496883392,2024-06-05 16:52:51.038735
19.07919406,-0.01097679138,-0.05583695322,-0.1072015762,2024-06-05 16:52:51.079194
19.1197027,0.0194849968,-0.000332698226,0.03643226624,2024-06-05 16:52:51.119703
19.16017833,0.03271436691,0.06894317269,0.1279058456,2024-06-05 16:52:51.160178
19.20063885,0.02535152435,0.09461657703,0.1669807434,2024-06-05 16:52:51.200639
19.2411176,-0.0868730545,5.926191807e-05,0.06133270264,2024-06-05 16:52:51.241118
19.28162406,0.04991769791,-0.09275990725,-0.01308727264,2024-06-05 16:52:51.281624
19.32209708,0.04694366455,0.002812191844,-0.03334140778,2024-06-05 16:52:51.322097
19.3625938,-0.1440682411,-0.0916261971,-0.1197137833,2024-06-05 16:52:51.362594
19.40308854,-0.1043782234,0.004336588085,-0.1128578186,2024-06-05 16:52:51.403089
19.44357614,-0.1253213882,-0.0008849278092,-0.1335515976,2024-06-05 16:52:51.443576
19.48405854,-0.2010130882,-0.06967063248,-0.2065000534,2024-06-05 16:52:51.484059
19.52453843,-0.102604866,-0.03681818396,-0.08638858795,2024-06-05 16:52:51.524538
19.56502723,-0.1845259666,0.03149686754,-0.1220626831,2024-06-05 16:52:51.565027
19.60551359,-0.05077266693,-0.03007896245,-0.06735897064,2024-06-05 16:52:51.605514
19.64598255,0.08896398544,0.09186008573,-0.0132484436,2024-06-05 16:52:51.645983
19.68646525,-0.3117113113,0.1854510009,-0.03028106689,2024-06-05 16:52:51.686465
19.72696025,-0.1998214722,-0.09241025895,0.08396339417,2024-06-05 16:52:51.726960
19.76745614,-0.03161525726,-0.3712297082,0.2205200195,2024-06-05 16:52:51.767456
19.80792234,0.0758767128,-0.5986176133,0.08579540253,2024-06-05 16:52:51.807922
19.84841802,0.131005764,-0.3094716966,-0.3096356392,2024-06-05 16:52:51.848418
19.88890968,0.45966959,-0.1629624665,-0.06831073761,2024-06-05 16:52:51.888910
19.92937739,-0.1451177597,-0.0938693583,0.3616886139,2024-06-05 16:52:51.929377
19.96988088,-0.4227552414,0.2605530918,0.2139902115,2024-06-05 16:52:51.969881
20.0103713,0.2453589439,0.374445498,-0.1725177765,2024-06-05 16:52:52.010371
20.05085614,0.3045892715,0.4842499495,-0.1136255264,2024-06-05 16:52:52.050856
20.09134291,-0.2541913986,0.5066376925,0.02161598206,2024-06-05 16:52:52.091343
20.1317938,0.0365114212,0.7459253073,-0.2053356171,2024-06-05 16:52:52.131794
20.17233177,0.2935700417,0.6477879286,-0.2847318649,2024-06-05 16:52:52.172332
20.2127676,0.4514527321,0.1653963625,-0.2221717834,2024-06-05 16:52:52.212768
20.25329192,0.1105003357,0.2542603016,-0.05807781219,2024-06-05 16:52:52.253292
20.29375775,-0.3882799149,0.1933095455,0.1234073639,2024-06-05 16:52:52.293758
20.33424718,-0.1271505356,0.207991004,0.1450223923,2024-06-05 16:52:52.334247
20.37473619,0.08177042007,0.1072913408,-0.2113170624,2024-06-05 16:52:52.374736
20.41522447,0.231066227,0.1406328976,-0.1155853271,2024-06-05 16:52:52.415224
20.45570963,-0.2600955963,-0.2342468053,0.5570220947,2024-06-05 16:52:52.455710
20.49616505,-0.07910966873,-0.5297225714,0.1834945679,2024-06-05 16:52:52.496165
20.5366826,0.1348428726,-0.5556972623,0.1312389374,2024-06-05 16:52:52.536683
20.57716416,0.1341032982,-0.2896643579,-0.001042366028,2024-06-05 16:52:52.577164
20.61765249,0.1939907074,-0.1861719638,0.1088171005,2024-06-05 16:52:52.617652
20.65813624,0.1014056206,-0.03692027926,0.08824634552,2024-06-05 16:52:52.658136
20.6986314,0.2120733261,-0.01099672914,0.1781616211,2024-06-05 16:52:52.698631
20.73909828,0.1890053749,0.03262831271,0.100394249,2024-06-05 16:52:52.739098
20.77957187,-0.04119825363,0.03000003099,0.03216743469,2024-06-05 16:52:52.779572
20.82006947,-0.1393389702,0.04151931405,-0.06066513062,2024-06-05 16:52:52.820069
20.8605313,-0.237534523,0.05392706394,-0.1036500931,2024-06-05 16:52:52.860531
20.90104911,-0.1724481583,0.129702881,0.02372837067,2024-06-05 16:52:52.901049
20.94153833,-0.09813404083,0.0186688453,-0.03451061249,2024-06-05 16:52:52.941538
20.98201692,-0.04482078552,-0.04355356097,0.004853248596,2024-06-05 16:52:52.982017
21.02250104,-0.04110908508,-0.0290338546,-0.01521015167,2024-06-05 16:52:53.022501
21.06299895,0.03555488586,0.01487462223,-0.02734947205,2024-06-05 16:52:53.062999
21.10348609,0.1531710625,-0.03246642649,0.004112243652,2024-06-05 16:52:53.103486
21.143954,0.05745315552,-0.002201572061,0.07077121735,2024-06-05 16:52:53.143954
21.18444478,-0.03272628784,-0.01864476502,-0.03392696381,2024-06-05 16:52:53.184445
21.22492812,-0.02021551132,-0.008986324072,-0.02902793884,2024-06-05 16:52:53.224928
21.26541213,-0.108900547,0.02253106236,-0.01677703857,2024-06-05 16:52:53.265412
21.30589354,-0.03622961044,0.0318941921,0.009858131409,2024-06-05 16:52:53.305894
21.346384,-0.0248374939,0.000481441617,0.03852176666,2024-06-05 16:52:53.346384
21.38687072,-0.03501701355,0.0002247095108,-0.0143404007,2024-06-05 16:52:53.386871
21.42734989,0.007393360138,-0.006978169084,-0.0352563858,2024-06-05 16:52:53.427350
21.4678363,-0.0428609848,0.03782314062,-0.009476661682,2024-06-05 16:52:53.467836
21.50832453,0.02036428452,0.01526768506,-0.02253913879,2024-06-05 16:52:53.508325
21.54881187,-0.006334781647,0.02864964306,0.03237247467,2024-06-05 16:52:53.548812
21.589299,-0.01994895935,0.0002025514841,0.03007221222,2024-06-05 16:52:53.589299
21.62977307,0.03090953827,-0.01640033722,-0.0007543563843,2024-06-05 16:52:53.629773
21.67026109,-0.01429319382,0.03654426336,0.02272129059,2024-06-05 16:52:53.670261
21.71073906,-0.01891756058,0.05778807402,0.01781177521,2024-06-05 16:52:53.710739
21.75122541,0.05059051514,-0.01578652859,-0.04563331604,2024-06-05 16:52:53.751225
21.79169338,-0.07970666885,-0.03893852234,-0.05274200439,2024-06-05 16:52:53.791693
21.83218718,-0.02287006378,0.02898214757,-0.04301357269,2024-06-05 16:52:53.832187
21.87269515,-0.0457777977,0.03201471269,0.005869865417,2024-06-05 16:52:53.872695
21.91319432,0.05993413925,-0.02131956816,0.07313632965,2024-06-05 16:52:53.913194
21.95366098,0.1028141975,-0.02392996848,0.07406806946,2024-06-05 16:52:53.953661
21.99414005,-0.01635456085,0.024860695,-0.006001472473,2024-06-05 16:52:53.994140
22.0346301,0.04312229156,-0.0008910149336,0.001872062683,2024-06-05 16:52:54.034630
22.07511713,0.02558898926,-0.03651979566,-0.01449203491,2024-06-05 16:52:54.075117
22.11560234,-0.04606199265,0.01050548255,-0.05048084259,2024-06-05 16:52:54.115602
22.15608145,0.004075527191,-0.01037815213,-0.0001955032349,2024-06-05 16:52:54.156081
22.19656687,-0.001707077026,-0.03691245615,-0.02443695068,2024-06-05 16:52:54.196567
22.23705624,-0.02729225159,0.03992652893,-0.01247787476,2024-06-05 16:52:54.237056
22.27754775,-0.0635175705,0.1180348545,0.01511192322,2024-06-05 16:52:54.277548
22.31803067,-0.01966524124,0.1276557148,0.03364753723,2024-06-05 16:52:54.318031
22.35851656,0.0395283699,0.03171722591,0.03828525543,2024-06-05 16:52:54.358517
22.39900937,-0.01314878464,-0.07051844895,0.03881931305,2024-06-05 16:52:54.399009
22.43951307,0.0641336441,-0.09347696602,-0.02487564087,2024-06-05 16:52:54.439513
22.47997755,-0.01206064224,-0.04946960509,-0.04401493073,2024-06-05 16:52:54.479978
22.52045416,-0.00321149826,-0.02433866262,-0.08112812042,2024-06-05 16:52:54.520454
22.56092025,-0.05015134811,-0.07079653442,-0.007548332214,2024-06-05 16:52:54.560920
22.60141932,-0.0590057373,-0.05202937126,-0.07604122162,2024-06-05 16:52:54.601419
22.64191645,-0.1395549774,0.01189699769,-0.01608562469,2024-06-05 16:52:54.641916
22.68238676,-0.01054334641,-0.01340837777,0.01426506042,2024-06-05 16:52:54.682387
22.72286598,-0.005905151367,0.006371513009,0.02472686768,2024-06-05 16:52:54.722866
22.76335661,0.07599973679,0.03560708463,0.0140171051,2024-06-05 16:52:54.763357
22.80383088,-0.08142757416,0.1255901456,-0.0143661499,2024-06-05 16:52:54.803831
22.84432213,-0.0373301506,0.1261922121,-0.0206079483,2024-06-05 16:52:54.844322
22.88481791,0.02326393127,-0.007635474205,-0.01721477509,2024-06-05 16:52:54.884818
22.92530546,0.05248785019,-0.01033392549,0.07226467133,2024-06-05 16:52:54.925305
22.96579239,0.04537343979,-0.05061289668,-0.009287834167,2024-06-05 16:52:54.965792
23.00627692,-0.0495672226,0.00391292572,-0.03132247925,2024-06-05 16:52:55.006277
23.04676478,0.03190660477,-0.02726793289,-0.009058952332,2024-06-05 16:52:55.046765
23.08725114,-0.00328207016,-0.04664738476,-0.02206993103,2024-06-05 16:52:55.087251
23.12773739,-0.05575370789,0.01645067334,-0.03893470764,2024-06-05 16:52:55.127737
23.1682252,-0.04353523254,0.04784908891,0.04127979279,2024-06-05 16:52:55.168225
23.20870739,-0.04315423965,-0.02925489843,-0.005979537964,2024-06-05 16:52:55.208707
23.24918947,0.02780485153,-0.004205226898,0.01566410065,2024-06-05 16:52:55.249189
23.28966317,-0.01101970673,0.1408127546,0.07179450989,2024-06-05 16:52:55.289663
23.33016182,0.03266477585,0.05347788334,-0.02494716644,2024-06-05 16:52:55.330162
23.37062359,0.004399299622,-0.02244433761,-0.01101493835,2024-06-05 16:52:55.370624
23.41113421,-0.008916378021,-0.02282607555,-0.09044837952,2024-06-05 16:52:55.411134
23.45159333,-0.1862268448,-0.0783110261,-0.1113176346,2024-06-05 16:52:55.451593
23.49209963,0.09736013412,-0.04512196779,-0.07343769073,2024-06-05 16:52:55.492100
23.5325888,-0.1187558174,-0.02968499064,0.01823711395,2024-06-05 16:52:55.532589
23.57306802,0.03430080414,-0.004768133163,0.01527404785,2024-06-05 16:52:55.573068
23.61355395,-0.03313970566,-0.002910077572,0.002158164978,2024-06-05 16:52:55.613554
23.65405484,0.04668521881,0.07087633014,0.02432727814,2024-06-05 16:52:55.654055
23.69454364,0.06366729736,-0.008633434772,0.005932807922,2024-06-05 16:52:55.694544
23.73500468,0.008619308472,0.03572425246,0.05982494354,2024-06-05 16:52:55.735005
23.77550505,0.02136898041,-0.03220649064,-0.03798389435,2024-06-05 16:52:55.775505
23.81599078,0.001607894897,0.04299229383,0.02656269073,2024-06-05 16:52:55.815991
23.85647781,-0.01696300507,0.01330152154,-0.04681301117,2024-06-05 16:52:55.856478
23.89695359,-0.05289077759,0.04108434916,-0.02078151703,2024-06-05 16:52:55.896954
23.93745187,-0.02604150772,-0.03022792935,0.02465057373,2024-06-05 16:52:55.937452
23.97792176,-0.03136348724,0.006142795086,0.02301692963,2024-06-05 16:52:55.977922
24.01841109,0.01956892014,-0.02003875375,-0.01662158966,2024-06-05 16:52:56.018411
24.05888525,0.05727577209,0.04184785485,-0.0339422226,2024-06-05 16:52:56.058885
24.09939275,-0.1610016823,0.07882672548,-0.07406711578,2024-06-05 16:52:56.099393
24.13986296,-0.03359127045,-0.02259232104,-0.0078125,2024-06-05 16:52:56.139863
24.18035281,0.1073269844,-0.1234391481,0.01508712769,2024-06-05 16:52:56.180353
24.22083228,0.02459144592,-0.09196409583,0.0607624054,2024-06-05 16:52:56.220832
24.26133098,0.02257966995,-0.1258062124,0.08087253571,2024-06-05 16:52:56.261331
24.30179604,0.07036066055,-0.2114231884,0.04130172729,2024-06-05 16:52:56.301796
24.34230468,0.09082555771,-0.09266403317,0.1131343842,2024-06-05 16:52:56.342305
24.38279114,-0.03301763535,0.02090847492,-0.01468372345,2024-06-05 16:52:56.382791
24.42327963,0.007363319397,0.2410439253,-0.01054763794,2024-06-05 16:52:56.423280
24.46374213,0.05744743347,0.1497586071,0.05756759644,2024-06-05 16:52:56.463742
24.50424515,0.003713130951,0.1474280953,-0.1181116104,2024-06-05 16:52:56.504245
24.54471734,-0.02727413177,0.0007692277431,-0.02329540253,2024-06-05 16:52:56.544717
24.5852127,-0.05927562714,0.1028403938,-0.09580898285,2024-06-05 16:52:56.585213
24.62569583,-0.1653046608,0.1700519919,-0.1959657669,2024-06-05 16:52:56.625696
24.66618536,-0.08666801453,-0.01610335708,-0.1662321091,2024-06-05 16:52:56.666185
24.70666906,-0.05092573166,-0.1451504529,-0.01550006866,2024-06-05 16:52:56.706669
24.74716161,-0.1163101196,-0.1151680946,0.02304363251,2024-06-05 16:52:56.747162
24.78765031,-0.02413988113,-0.2329481989,0.1215238571,2024-06-05 16:52:56.787650
24.82812932,-0.01818799973,-0.1238468587,0.1019182205,2024-06-05 16:52:56.828129
24.86860828,0.04592990875,-0.06578430533,0.09312534332,2024-06-05 16:52:56.868608
24.90909234,0.1631450653,-0.01573938131,0.1705522537,2024-06-05 16:52:56.909092
24.94959192,0.0680308342,-0.01570418477,0.007576942444,2024-06-05 16:52:56.949592
24.99007348,-0.03265285492,0.1643814445,-0.09928512573,2024-06-05 16:52:56.990073
25.03054864,-0.03734111786,0.1111126542,-0.09847831726,2024-06-05 16:52:57.030549
25.07102666,0.1087641716,0.1200867891,-0.0116558075,2024-06-05 16:52:57.071027
25.11153093,-0.085501194,0.1457668543,-0.05705738068,2024-06-05 16:52:57.111531
25.15202411,0.03882265091,0.2046090961,-0.09405422211,2024-06-05 16:52:57.152024
25.19250786,-0.09169244766,0.1351011395,-0.06507396698,2024-06-05 16:52:57.192508
25.23298312,0.01393938065,0.08744716644,0.01118469238,2024-06-05 16:52:57.232983
25.27347499,-0.1085662842,0.1232863665,-0.05348110199,2024-06-05 16:52:57.273475
25.31396416,0.03035211563,0.3024078608,-0.1591234207,2024-06-05 16:52:57.313964
25.35444603,0.2551131248,0.3106008172,-0.09849262238,2024-06-05 16:52:57.354446
25.39492994,-0.2772169113,0.3114903569,-0.1798648834,2024-06-05 16:52:57.394930
25.43541036,0.08430719376,0.1374290586,-0.03413295746,2024-06-05 16:52:57.435410
25.475889,0.3368673325,-0.003769725561,0.05279254913,2024-06-05 16:52:57.475889
25.51638015,0.04878950119,-0.04717177153,0.1134386063,2024-06-05 16:52:57.516380
25.55686723,0.06348228455,-0.2637111843,0.3104505539,2024-06-05 16:52:57.556867
25.59734624,-0.04417943954,-0.8407516479,0.8229503632,2024-06-05 16:52:57.597346
25.6378289,0.03916931152,-0.4337152839,-0.1923761368,2024-06-05 16:52:57.637829
25.67831182,-0.02872371674,-0.4675340056,-0.01771354675,2024-06-05 16:52:57.678312
25.71880338,0.1104035378,0.1876761466,-0.01082611084,2024-06-05 16:52:57.718803
25.75929926,-0.1595673561,-0.002060860395,-0.04813861847,2024-06-05 16:52:57.759299
25.79978614,0.2380232811,-0.005010351539,-0.0649433136,2024-06-05 16:52:57.799786
25.84028655,0.001653671265,-0.09158809483,0.008255958557,2024-06-05 16:52:57.840287
25.88079109,-0.02604579926,-0.1907498091,-0.1173763275,2024-06-05 16:52:57.880791
25.92130379,0.001072406769,-0.1243965924,0.06593990326,2024-06-05 16:52:57.921304
25.96175874,0.1444883347,0.084890306,0.1603460312,2024-06-05 16:52:57.961759
26.00226114,-0.08380413055,-0.04749920964,-0.02904987335,2024-06-05 16:52:58.002261
26.04283937,0.09131383896,-0.05768923461,-0.04242229462,2024-06-05 16:52:58.042839
26.08323124,-0.2938113213,0.01245333254,-0.04143714905,2024-06-05 16:52:58.083231
26.12369426,0.05324220657,0.07398703694,0.02974033356,2024-06-05 16:52:58.123694
26.16419973,-0.1629953384,-0.1024786532,-0.06706523895,2024-06-05 16:52:58.164200
26.20469635,0.1209101677,-0.06376491487,0.0117816925,2024-06-05 16:52:58.204696
26.24517817,0.01557588577,-0.01411792636,0.03353118896,2024-06-05 16:52:58.245178
26.28566447,-0.02090549469,0.05611139536,-0.01120758057,2024-06-05 16:52:58.285664
26.32617577,0.02939605713,0.02540692687,0.1606645584,2024-06-05 16:52:58.326176
26.36663687,-0.04451227188,-0.03571367264,-0.08020305634,2024-06-05 16:52:58.366637
26.40710525,-0.07392406464,-0.1212308109,-0.08338356018,2024-06-05 16:52:58.407105
26.44756749,0.00193977356,-0.1032026112,-0.04475975037,2024-06-05 16:52:58.447567
26.48806546,-0.131046772,-0.07851290703,-0.07993125916,2024-06-05 16:52:58.488065
26.52857588,0.08219814301,-0.03825080395,0.05176925659,2024-06-05 16:52:58.528576
26.56904791,0.1105051041,0.02872085571,0.1033668518,2024-06-05 16:52:58.569048
26.60956817,-0.2059006691,0.08994367719,0.0002212524414,2024-06-05 16:52:58.609568
26.65000978,0.1210274696,0.06263461709,0.2003326416,2024-06-05 16:52:58.650010
26.69053234,0.09092140198,0.02649408579,0.01521396637,2024-06-05 16:52:58.690532
26.73100619,0.05404615402,0.03561580181,0.01201915741,2024-06-05 16:52:58.731006
26.77150905,0.08658790588,0.07473409176,-0.02494716644,2024-06-05 16:52:58.771509
26.81196249,-0.1499862671,0.1704899967,-0.1582078934,2024-06-05 16:52:58.811962
26.85246947,-0.04728078842,0.260700196,-0.1007890701,2024-06-05 16:52:58.852469
26.89300478,-0.1355800629,0.004076331854,0.1324968338,2024-06-05 16:52:58.893005
26.93349978,0.06130743027,-0.03685373068,-0.03259086609,2024-06-05 16:52:58.933500
26.97395932,0.07471036911,-0.07420983911,0.06713676453,2024-06-05 16:52:58.973959
27.01444103,0.001353263855,0.008944123983,-0.01990032196,2024-06-05 16:52:59.014441
27.05490442,0.01682710648,-0.01169335842,-0.05754852295,2024-06-05 16:52:59.054904
27.09542333,-0.03837013245,0.01159894466,-0.06455516815,2024-06-05 16:52:59.095423
27.13587671,-0.01288366318,-0.08565095067,-0.03878974915,2024-06-05 16:52:59.135877
27.17633036,0.1001496315,-0.2323335409,0.08575439453,2024-06-05 16:52:59.176330
27.21682692,0.07564592361,-0.22988832,-0.02533054352,2024-06-05 16:52:59.216827
27.25734838,-0.06804227829,0.0430880785,-0.02185535431,2024-06-05 16:52:59.257348
27.29786103,-0.03202962875,0.08428102732,-0.03406906128,2024-06-05 16:52:59.297861
27.33828869,-0.01227474213,0.05250251293,0.03679656982,2024-06-05 16:52:59.338289
27.3787778,-0.0732588768,0.07817739248,0.02938461304,2024-06-05 16:52:59.378778
27.41929077,-0.01817464828,-0.02655285597,-0.0009937286377,2024-06-05 16:52:59.419291
27.45974968,0.03859806061,-0.006568133831,0.01373195648,2024-06-05 16:52:59.459750
27.50023103,0.01470136642,0.01175022125,-0.0203037262,2024-06-05 16:52:59.500231
27.54075088,-0.005298614502,0.07944265008,-0.01127529144,2024-06-05 16:52:59.540751
27.5812414,0.04535579681,0.003450989723,0.02531814575,2024-06-05 16:52:59.581241
27.62172577,0.006529808044,-0.02148881555,-0.02761650085,2024-06-05 16:52:59.621726
27.66219874,-0.04526233673,-0.001136809587,0.004301071167,2024-06-05 16:52:59.662199
27.70266296,0.02566242218,0.03975561261,-0.01221656799,2024-06-05 16:52:59.702663
27.74318567,-0.05587053299,0.06312230229,0.03269100189,2024-06-05 16:52:59.743186
27.78368593,0.01255464554,0.02421224117,-0.01276683807,2024-06-05 16:52:59.783686
27.82417098,0.006893157959,-0.0102596283,0.009926795959,2024-06-05 16:52:59.824171
27.86463494,-0.1101617813,0.0107087791,0.03607082367,2024-06-05 16:52:59.864635
27.90512098,0.02901983261,-0.0389162004,0.02154254913,2024-06-05 16:52:59.905121
27.94561635,-0.09179639816,-0.02628269792,-0.004672050476,2024-06-05 16:52:59.945616
27.98609515,0.07889652252,-0.0635010004,-0.02432155609,2024-06-05 16:52:59.986095
28.02658041,0.1453289986,-0.07323953509,0.01834201813,2024-06-05 16:53:00.026580
28.06709129,0.2042474747,-0.1195403188,0.008791923523,2024-06-05 16:53:00.067091
28.10755822,0.1753530502,-0.1740659624,0.06258773804,2024-06-05 16:53:00.107558
28.14804791,0.02752637863,-0.147639811,0.158987999,2024-06-05 16:53:00.148048
28.18853025,0.08286237717,-0.1314005107,0.2981557846,2024-06-05 16:53:00.188530
28.22901166,0.009126186371,-0.1087391376,0.1170701981,2024-06-05 16:53:00.229012
28.26948614,-0.0615105629,-0.235342294,-0.01233673096,2024-06-05 16:53:00.269486
28.30999452,0.08169269562,-0.1928704083,0.1955041885,2024-06-05 16:53:00.309995
28.35050463,0.252974987,0.3819581568,-0.6126070023,2024-06-05 16:53:00.350505
28.39097327,0.1095485687,0.2427634597,-0.3033800125,2024-06-05 16:53:00.390973
28.43145234,0.1805353165,0.104578808,0.8617610931,2024-06-05 16:53:00.431452
28.47195338,-1.065999508,-1.36275363,2.577921867,2024-06-05 16:53:00.471953
28.51242489,-1.549302578,-0.7189549208,2.847215652,2024-06-05 16:53:00.512425
28.55286978,-0.6053800583,-0.2520141006,2.116276741,2024-06-05 16:53:00.552870
28.59336343,-0.5339269638,0.6040033102,1.064876556,2024-06-05 16:53:00.593363
28.63385379,-1.386694908,0.9209336042,-0.03888130188,2024-06-05 16:53:00.633854
28.67433161,-0.1827192307,1.328181863,-1.096378326,2024-06-05 16:53:00.674332
28.71481926,-0.5055279732,1.115506649,-0.7955780029,2024-06-05 16:53:00.714819
28.75530827,-1.115617514,0.8681843281,-0.4272508621,2024-06-05 16:53:00.755308
28.79579791,-0.5049788952,1.035207033,-0.7158536911,2024-06-05 16:53:00.795798
28.83638885,0.2592499256,0.900939703,-0.469335556,2024-06-05 16:53:00.836389
28.87680426,-0.1598620415,0.6394128799,-0.261182785,2024-06-05 16:53:00.876804
28.91728119,-0.05182123184,0.3621602058,-0.2360930443,2024-06-05 16:53:00.917281
28.95776905,-0.02305102348,0.4775309563,-0.4545311928,2024-06-05 16:53:00.957769
28.99822671,-0.1189174652,0.04914236069,-0.05704832077,2024-06-05 16:53:00.998227
29.03872036,-0.06575250626,0.1009259224,-0.01446914673,2024-06-05 16:53:01.038720
29.0792189,0.05715417862,-0.2712945938,0.09844064713,2024-06-05 16:53:01.079219
29.11970708,-0.02230978012,-0.08457183838,-0.2967700958,2024-06-05 16:53:01.119707
29.16017661,-0.224237442,0.28708601,-0.7718677521,2024-06-05 16:53:01.160177
29.20068582,0.1834481955,0.2367839813,-0.3093385696,2024-06-05 16:53:01.200686
29.24115374,0.1703625917,-0.03463792801,-0.2156891823,2024-06-05 16:53:01.241154
29.28165645,0.03904426098,0.2072257996,-0.2207689285,2024-06-05 16:53:01.281656
29.32214577,0.3607800007,0.6009354591,0.6936264038,2024-06-05 16:53:01.322146
29.36262473,0.01152360439,0.09002304077,0.03270721436,2024-06-05 16:53:01.362625
29.40313447,-0.08448755741,0.6929883957,-0.1123595238,2024-06-05 16:53:01.403134
29.44360484,0.2272101641,0.8233566284,0.1961798668,2024-06-05 16:53:01.443605
29.48408332,-0.1677955389,0.5102329254,0.1511957645,2024-06-05 16:53:01.484083
29.5245678,-0.2166830301,0.843993187,0.06298422813,2024-06-05 16:53:01.524568
29.56506182,-0.1848671436,0.8463850021,0.4412157536,2024-06-05 16:53:01.565062
29.60554562,0.04111015797,0.7446346283,0.4116826057,2024-06-05 16:53:01.605546
29.64602885,-0.02007985115,0.4665718079,0.2090716362,2024-06-05 16:53:01.646029
29.68652353,0.20508039,0.2747783661,-0.07395744324,2024-06-05 16:53:01.686524
29.72701286,0.4072730541,-0.07687950134,0.1545538902,2024-06-05 16:53:01.727013
29.76750603,0.915504694,0.04704856873,0.2622187138,2024-06-05 16:53:01.767506
29.80798499,0.3868049383,-0.05519771576,-0.03754758835,2024-06-05 16:53:01.807985
29.84850036,-0.1455933452,-0.07071685791,-0.2207363844,2024-06-05 16:53:01.848500
29.889024,-0.3121646643,-0.0664806366,-0.1729236841,2024-06-05 16:53:01.889024
29.92945468,-0.3945837617,-0.1924562454,-0.2489874363,2024-06-05 16:53:01.929455
29.9699603,0.1908671856,0.1953725815,0.1280802488,2024-06-05 16:53:01.969960
30.01042697,0.4810286164,-0.1234846115,0.158744812,2024-06-05 16:53:02.010427
30.05092754,0.2784161866,0.06826019287,0.03463888168,2024-06-05 16:53:02.050928
30.09138494,-0.3780866265,-0.01357269287,-0.4939946532,2024-06-05 16:53:02.091385
30.13185244,-0.2205440402,-0.383055687,-0.4332987666,2024-06-05 16:53:02.131852
30.17234333,0.229039222,-0.009787559509,0.2554377317,2024-06-05 16:53:02.172343
30.21283072,0.173704654,0.2501831055,0.5672358274,2024-06-05 16:53:02.212831
30.25332447,-0.2706277072,0.01788806915,-0.3671341538,2024-06-05 16:53:02.253324
30.29384463,-0.2020349205,-0.123213768,0.1979557872,2024-06-05 16:53:02.293845
30.33435473,-0.2520854175,-0.03493022919,0.9140760303,2024-06-05 16:53:02.334355
30.37482254,0.3436898589,-0.01251316071,0.3231742382,2024-06-05 16:53:02.374823
30.41533421,0.34216851,-0.1245393753,0.1167834997,2024-06-05 16:53:02.415334
30.45580374,0.1087284386,-0.03275680542,-0.4882188737,2024-06-05 16:53:02.455804
30.4962839,0.5156862736,-0.07855987549,-0.4969456792,2024-06-05 16:53:02.496284
30.536749,0.8888372183,0.1088409424,0.1528984308,2024-06-05 16:53:02.536749
30.57726098,-0.02387455106,-0.02297973633,0.006438493729,2024-06-05 16:53:02.577261
30.61773593,-0.08050641418,-0.2377948761,0.1367629766,2024-06-05 16:53:02.617736
30.65826025,0.2586649954,-0.0582780838,-0.0005584955215,2024-06-05 16:53:02.658260
30.69868593,0.5353007913,-0.2665929794,-0.1402038932,2024-06-05 16:53:02.698686
30.73925155,-0.01847702265,0.1621217728,-0.7717140317,2024-06-05 16:53:02.739252
30.77969728,-0.9131858349,-0.1624822617,-0.1672800779,2024-06-05 16:53:02.779697
30.82016838,-0.2486855984,-0.2867145538,0.005978167057,2024-06-05 16:53:02.820168
30.86067353,1.344474554,-0.09832286835,-0.2613108158,2024-06-05 16:53:02.860674
30.90112999,0.8581877947,-0.1935110092,0.1756789088,2024-06-05 16:53:02.901130
30.94163015,0.5644151568,-0.0005550384521,0.1351382136,2024-06-05 16:53:02.941630
30.98211848,0.7226098776,0.3451967239,0.3642897606,2024-06-05 16:53:02.982118
31.02261869,1.485846758,-0.2985715866,-0.4780298471,2024-06-05 16:53:03.022619
31.06311806,1.800190091,-1.721194267,0.1554274559,2024-06-05 16:53:03.063118
31.10360239,1.358025789,-0.8139696121,0.007026433945,2024-06-05 16:53:03.103602
31.14409041,1.40203476,0.7080879211,-1.57042551,2024-06-05 16:53:03.144090
31.18456984,0.6842538714,0.7307386398,-1.641275406,2024-06-05 16:53:03.184570
31.22506098,-0.1513445973,0.7748527527,-1.376606584,2024-06-05 16:53:03.225061
31.26562749,-0.3256633282,0.3522176743,-0.8393375874,2024-06-05 16:53:03.265627
31.30600338,-0.4055100381,-0.03783798218,-0.06016111374,2024-06-05 16:53:03.306003
31.34650499,-0.315654248,-0.541226387,1.519185066,2024-06-05 16:53:03.346505
31.38701322,0.1472771317,-0.3640136719,2.874785662,2024-06-05 16:53:03.387013
31.4274639,0.4219209254,-0.2730751038,1.29771924,2024-06-05 16:53:03.427464
31.46795171,0.197091639,-0.09850692749,-0.07941794395,2024-06-05 16:53:03.467952
31.50845385,-0.3264266253,0.8454246521,-1.292262435,2024-06-05 16:53:03.508454
31.54895588,-0.5851946473,1.063082695,-1.938224673,2024-06-05 16:53:03.548956
31.58942119,0.3490370512,0.8336830139,-0.4708878994,2024-06-05 16:53:03.589421
31.63005119,-0.211779058,0.3840360641,0.3579072952,2024-06-05 16:53:03.630051
31.67041275,0.6844241619,-0.6831483841,1.031408668,2024-06-05 16:53:03.670413
31.71091291,1.383368254,-1.506784439,2.195548773,2024-06-05 16:53:03.710913
31.75139822,0.8546634912,0.7759160995,2.686131477,2024-06-05 16:53:03.751398
31.79188249,0.01201814413,0.8903427124,-0.2560710907,2024-06-05 16:53:03.791882
31.83233598,-0.4187408984,-0.03667831421,0.2819854021,2024-06-05 16:53:03.832336
31.87286504,0.7339019179,0.1491689682,0.5365889668,2024-06-05 16:53:03.872865
31.91335734,-0.8261349797,-0.3524112701,-0.2725070119,2024-06-05 16:53:03.913357
31.95385296,-1.492950678,-0.5477609634,-1.90031004,2024-06-05 16:53:03.953853
31.99429187,-0.7968199253,0.04120635986,-2.440592766,2024-06-05 16:53:03.994292
32.03476911,-1.52545774,-0.5551795959,-0.898835659,2024-06-05 16:53:04.034769
32.07527161,-0.8121581078,-0.3500738144,1.532320738,2024-06-05 16:53:04.075272
32.11577385,0.04484334588,0.1365718842,0.3114187419,2024-06-05 16:53:04.115774
32.15626598,-0.4927394092,0.0845823288,-0.6354207397,2024-06-05 16:53:04.156266
32.19669614,-0.6813875437,-0.2456970215,-0.8944990635,2024-06-05 16:53:04.196696
32.2372215,0.4657304287,-0.0517168045,2.830507755,2024-06-05 16:53:04.237221
32.27772671,1.260154724,0.4807128906,0.7242837548,2024-06-05 16:53:04.277727
32.31822494,-0.2805464268,0.587015152,-0.5157638788,2024-06-05 16:53:04.318225
32.3586701,-1.586600065,-0.1951751709,0.5490068793,2024-06-05 16:53:04.358670
32.39919015,-0.3188325465,-0.137465477,1.035791516,2024-06-05 16:53:04.399190
32.43963416,-0.1517518163,-0.2331171036,1.389413834,2024-06-05 16:53:04.439634
32.48014572,-1.005169153,-0.09500408173,0.9762302637,2024-06-05 16:53:04.480146
32.5206264,-1.864427805,-0.7430009842,0.38933599,2024-06-05 16:53:04.520626
32.5611365,-1.976887822,-1.220208168,1.625038743,2024-06-05 16:53:04.561137
32.60161905,-2.278240204,-1.91501236,2.816279411,2024-06-05 16:53:04.601619
32.64210697,-3.659944057,-4.246637344,1.542274117,2024-06-05 16:53:04.642107
32.68258588,-1.456974268,-2.683143616,2.966583729,2024-06-05 16:53:04.682586
32.72307234,2.797532797,0.5272102356,5.956530094,2024-06-05 16:53:04.723072
32.7636153,1.976637602,-0.3541326523,-2.862519026,2024-06-05 16:53:04.763615
32.8040277,-0.3481129408,-1.809989929,-3.461695671,2024-06-05 16:53:04.804028
32.8445277,-0.1735987961,-1.633593559,-5.143616676,2024-06-05 16:53:04.844528
32.88502343,1.005720019,-1.134321213,-3.205690384,2024-06-05 16:53:04.885023
32.92549817,-0.587431848,-0.5673952103,-2.287256241,2024-06-05 16:53:04.925498
32.96598577,0.836728394,1.128874779,-3.247646332,2024-06-05 16:53:04.965986
33.00648947,2.51409626,2.587614536,-3.230769634,2024-06-05 16:53:05.006489
33.04694963,3.507908344,3.297403336,-2.698422909,2024-06-05 16:53:05.046950
33.08746697,2.778537035,2.856497765,-0.8950936794,2024-06-05 16:53:05.087467
33.12795567,-0.242718637,-0.07501220703,1.890851498,2024-06-05 16:53:05.127956
33.16846812,-2.744656086,-1.78312397,1.56490469,2024-06-05 16:53:05.168468
33.20890885,-3.038480759,-0.02112293243,0.1214027405,2024-06-05 16:53:05.208909
33.24941827,-2.386537313,0.5568332672,2.193116665,2024-06-05 16:53:05.249418
33.28990812,0.9297958612,-1.169341087,-0.1124686003,2024-06-05 16:53:05.289908
33.33036869,2.488598108,-8.268060684,0.8570241928,2024-06-05 16:53:05.330369
33.37087723,4.388289452,3.715315342,-0.9173575044,2024-06-05 16:53:05.370877
33.41135379,4.743498325,6.282635212,-2.446020126,2024-06-05 16:53:05.411354
33.45181822,6.631309986,-1.368370056,-4.162814617,2024-06-05 16:53:05.451818
33.49235911,-3.766751766,-5.025867462,-4.175776958,2024-06-05 16:53:05.492359
33.53283593,-3.568133831,-0.770406723,1.951097846,2024-06-05 16:53:05.532836
33.57332192,-1.583542585,-0.3755521774,2.31341815,2024-06-05 16:53:05.573322
33.61380494,3.873591423,1.521821022,0.04153204709,2024-06-05 16:53:05.613805
33.65429223,3.352516174,1.579944611,-0.1952113807,2024-06-05 16:53:05.654292
33.69477671,-1.377142549,-0.576169014,0.9158375263,2024-06-05 16:53:05.694777
33.73523822,-1.084420204,-0.4558095932,0.4697258472,2024-06-05 16:53:05.735238
33.77575463,-2.085474968,0.03138637543,0.9020232558,2024-06-05 16:53:05.775755
33.81624859,-3.344488859,-2.475884438,-0.6280152798,2024-06-05 16:53:05.816249
33.85673082,0.8698787689,-2.404628754,-0.2015939951,2024-06-05 16:53:05.856731
33.8972102,1.942542315,-1.165475845,2.490966082,2024-06-05 16:53:05.897210
33.93767978,0.616396904,0.1575803757,2.723721266,2024-06-05 16:53:05.937680
33.9781715,-0.07289946079,0.8130598068,0.5595672131,2024-06-05 16:53:05.978172
34.01868478,-0.003141760826,0.9472904205,2.498975754,2024-06-05 16:53:06.018685
34.05921978,0.8912734985,-0.977435112,0.374332428,2024-06-05 16:53:06.059220
34.09967025,2.499133587,-2.185448647,-4.584247589,2024-06-05 16:53:06.099670
34.14011754,0.1182194948,-0.9157505035,-2.023161173,2024-06-05 16:53:06.140118
34.18059879,-0.833841145,-0.2537546158,-1.901687622,2024-06-05 16:53:06.180599
34.22109603,-0.5302225351,0.5103330612,-1.881314754,2024-06-05 16:53:06.221096
34.26158697,0.7847695947,2.145346642,-1.649855137,2024-06-05 16:53:06.261587
34.30208015,1.178453445,2.956987858,-1.789552927,2024-06-05 16:53:06.302080
34.34257077,2.48297596,2.592750549,-1.007316828,2024-06-05 16:53:06.342571
34.38307098,0.7210454941,-0.006345748901,1.181353211,2024-06-05 16:53:06.383071
34.42356473,-0.5299695134,-0.4553251266,4.220500469,2024-06-05 16:53:06.423565
34.46407405,-2.215934992,-2.624519348,3.622991085,2024-06-05 16:53:06.464074
34.50451338,-2.669570684,-1.535423279,0.9918906689,2024-06-05 16:53:06.504513
34.54498978,0.4469053745,2.047524452,0.494177103,2024-06-05 16:53:06.544990
34.58547437,3.475173473,-2.573971748,-1.403899312,2024-06-05 16:53:06.585474
34.62598437,1.941177726,-1.596794128,1.10684216,2024-06-05 16:53:06.625984
34.66644562,2.653019905,4.822098255,-4.002676487,2024-06-05 16:53:06.666446
34.7069377,2.33702898,1.58741951,-1.773515582,2024-06-05 16:53:06.706938
34.74741932,-1.713762999,-3.826229095,-4.728541374,2024-06-05 16:53:06.747419
34.78793515,-2.328138351,-0.1240682602,2.814475298,2024-06-05 16:53:06.787935
34.82839306,-0.8772852421,-0.1020040512,-1.148423433,2024-06-05 16:53:06.828393
34.86889999,-1.617842436,-0.4380569458,0.7018059492,2024-06-05 16:53:06.868900
34.90940119,-0.7472200394,-0.2553424835,0.8903612494,2024-06-05 16:53:06.909401
34.94989822,1.60017395,0.7664318085,-0.6594673395,2024-06-05 16:53:06.949898
34.99034905,1.132869482,1.01508522,-1.067013979,2024-06-05 16:53:06.990349
35.03083562,0.09630596638,0.1222143173,1.506150246,2024-06-05 16:53:07.030836
35.07132536,-1.868201375,-0.5803775787,0.7195969224,2024-06-05 16:53:07.071325
35.11181228,-2.054935455,-1.286414146,3.231355667,2024-06-05 16:53:07.111812
35.15229187,-1.849532843,-1.882967949,2.311709404,2024-06-05 16:53:07.152292
35.19283843,-0.4700826406,-1.619721413,2.67514348,2024-06-05 16:53:07.192838
35.23330025,-1.872264147,-3.168431282,2.408586979,2024-06-05 16:53:07.233300
35.27373051,-2.814401388,-2.705563545,4.069359779,2024-06-05 16:53:07.273731
35.31425744,-0.3590595722,-0.7005758286,3.054479361,2024-06-05 16:53:07.314257
35.3547428,3.660354137,-1.699514389,-0.5590077639,2024-06-05 16:53:07.354743
35.3952401,2.868106365,-2.147760391,-5.978915215,2024-06-05 16:53:07.395240
35.43568379,-0.141094178,-1.280743599,-3.896987438,2024-06-05 16:53:07.435684
35.47621879,-1.225307703,-1.179782867,-3.223376274,2024-06-05 16:53:07.476219
35.5166964,0.4563279748,1.551589012,-4.375722408,2024-06-05 16:53:07.516696
35.55719822,1.927027583,3.368485451,-3.641236067,2024-06-05 16:53:07.557198
35.59768265,3.412006378,3.669745445,-3.214778423,2024-06-05 16:53:07.597683
35.63814296,2.638919592,3.721292973,-1.997463226,2024-06-05 16:53:07.638143
35.67867895,0.6643723845,0.4801988602,1.789403677,2024-06-05 16:53:07.678679
35.71912713,-1.625265002,-4.494754791,6.204649925,2024-06-05 16:53:07.719127
35.75964291,-1.50137341,-1.627240181,2.119140625,2024-06-05 16:53:07.759643
35.80012301,0.702641964,2.181495667,1.270771027,2024-06-05 16:53:07.800123
35.8405965,4.944818974,-4.765625,-3.895974636,2024-06-05 16:53:07.840596
35.88109978,0.2451204062,-1.128899574,1.459372282,2024-06-05 16:53:07.881100
35.92156192,2.105835438,5.514135361,-5.329893112,2024-06-05 16:53:07.921562
35.96204723,1.175668716,-0.7579040527,-3.922762871,2024-06-05 16:53:07.962047
36.00255582,-3.520537615,-2.765426636,-5.293602943,2024-06-05 16:53:08.002556
36.04304582,-4.349095345,-1.157431602,7.289111614,2024-06-05 16:53:08.043046
36.08354582,0.08166146278,-0.5261192322,-0.6596271992,2024-06-05 16:53:08.083546
36.12400192,2.328054905,0.7521476746,2.101024866,2024-06-05 16:53:08.124002
36.16450504,1.711953878,1.611873627,-0.7891607285,2024-06-05 16:53:08.164505
36.20497374,-0.3307048082,1.379987717,-2.694189072,2024-06-05 16:53:08.204974
36.24549708,-0.4490988255,-0.8019218445,0.01375222206,2024-06-05 16:53:08.245497
36.28594426,-0.6632194519,-0.861998558,7.357804298,2024-06-05 16:53:08.285944
36.32643744,-4.025086403,-2.212807655,1.698725224,2024-06-05 16:53:08.326437
36.36693812,-3.155299664,-3.230370522,1.237253785,2024-06-05 16:53:08.366938
36.40740364,-1.841063619,-4.653395653,4.39955616,2024-06-05 16:53:08.407404
36.44787369,0.8318225145,-1.475664139,5.208143711,2024-06-05 16:53:08.447874
36.4884151,3.490185738,-0.6175422668,0.1331185102,2024-06-05 16:53:08.488415
36.52893629,6.323304653,-3.656956673,-2.736179113,2024-06-05 16:53:08.528936
36.56937166,2.189707756,-1.308825493,-6.459982872,2024-06-05 16:53:08.569372
36.60986687,-0.8181862831,-1.166823387,-3.830125332,2024-06-05 16:53:08.609867
36.65035197,-0.5032938719,0.2087259293,-3.563884974,2024-06-05 16:53:08.650352
36.69085718,1.259212613,2.92071867,-4.945159435,2024-06-05 16:53:08.690857
36.73131249,1.905718327,3.930591583,-4.365486622,2024-06-05 16:53:08.731312
36.7718153,2.567493677,4.328975677,-3.288635015,2024-06-05 16:53:08.771815
36.81231499,0.9991388917,2.128774643,-1.283019543,2024-06-05 16:53:08.812315
36.85278588,-0.4546013474,-1.627576828,4.202684402,2024-06-05 16:53:08.852786
36.89328025,-1.823146105,-3.371026039,6.175535202,2024-06-05 16:53:08.893280
36.93375557,-0.7127857804,-1.334709167,3.163179636,2024-06-05 16:53:08.933756
36.97426114,3.106155396,-0.1147480011,-0.09216237068,2024-06-05 16:53:08.974261
37.01473155,4.673244476,-4.228924751,-2.710224628,2024-06-05 16:53:09.014732
37.05522056,0.5999177694,1.349711418,-0.09079229832,2024-06-05 16:53:09.055221
37.09572754,1.344003797,5.07481575,-4.985789776,2024-06-05 16:53:09.095728
37.13623463,0.2043473721,-2.414292336,-6.744818211,2024-06-05 16:53:09.136235
37.17672853,-3.051886082,-1.90277195,4.409524441,2024-06-05 16:53:09.176729
37.21717728,-2.782183647,-1.345960617,0.8921774626,2024-06-05 16:53:09.217177
37.25766624,0.9642213583,0.7981271744,0.1140048802,2024-06-05 16:53:09.257666
37.29814697,1.472689867,0.5585365295,2.73475337,2024-06-05 16:53:09.298147
37.33865348,0.6897093058,1.042502403,-0.5869285464,2024-06-05 16:53:09.338653
37.37913619,-0.456882894,0.9982776642,-1.304481864,2024-06-05 16:53:09.379136
37.4196027,0.4197003841,-0.2637624741,0.112303853,2024-06-05 16:53:09.419603
37.46010015,0.05506575108,-0.4597911835,6.14156723,2024-06-05 16:53:09.460100
37.50058244,-2.862466335,-1.613173485,1.645559669,2024-06-05 16:53:09.500582
37.54107921,-3.099817514,-2.418782234,1.404270887,2024-06-05 16:53:09.541079
37.5815615,-1.532092929,-4.095883369,3.098116875,2024-06-05 16:53:09.581561
37.62204202,-1.744032979,-3.150182724,5.216083527,2024-06-05 16:53:09.622042
37.662529,3.252379417,-0.5066661835,3.221783876,2024-06-05 16:53:09.662529
37.7030189,5.862790108,-2.139112473,-0.3675218821,2024-06-05 16:53:09.703019
37.74350744,2.786221981,-2.699376106,-6.868528366,2024-06-05 16:53:09.743507
37.78402067,-1.649280071,-1.399008751,-4.33561945,2024-06-05 16:53:09.784021
37.82447312,-0.9180157185,-0.7893466949,-3.912427664,2024-06-05 16:53:09.824473
37.86499947,0.56328547,1.618571281,-4.654162884,2024-06-05 16:53:09.864999
37.90558296,0.3690200448,2.917693615,-4.528420925,2024-06-05 16:53:09.905583
37.94597208,1.315606356,3.696834564,-3.906326294,2024-06-05 16:53:09.945972
37.9864553,1.826998234,3.314166069,-2.532744169,2024-06-05 16:53:09.986455
38.02693708,0.8297458887,0.1702356339,1.067727089,2024-06-05 16:53:10.026937
38.06742546,0.1937971115,-0.9410734177,4.475764275,2024-06-05 16:53:10.067425
38.10791004,-1.931600332,-1.927787781,3.858495235,2024-06-05 16:53:10.107910
38.14841869,0.816942811,-2.131606102,4.053878784,2024-06-05 16:53:10.148419
38.18889218,4.867655277,-2.749996185,-1.436663747,2024-06-05 16:53:10.188892
38.22938405,3.389240742,-2.211805344,0.4738795757,2024-06-05 16:53:10.229384
38.26988765,1.078715801,4.840519428,-3.824185848,2024-06-05 16:53:10.269888
38.31035291,1.837571621,2.681747913,-4.411887646,2024-06-05 16:53:10.310353
38.35084536,-0.3697814941,-3.279643059,-5.953245163,2024-06-05 16:53:10.350845
38.39134442,-2.506723881,-1.110830307,-0.315081805,2024-06-05 16:53:10.391344
38.43179525,-0.6417319775,-1.012173653,4.226179123,2024-06-05 16:53:10.431795
38.4722964,0.2006171942,0.4442195892,0.4255102575,2024-06-05 16:53:10.472296
38.51283515,1.155219316,0.4962348938,-0.1048312187,2024-06-05 16:53:10.512835
38.5533053,0.8746433854,0.8062725067,0.2696722746,2024-06-05 16:53:10.553305
38.59376015,0.1448209882,0.7712612152,-0.9492887259,2024-06-05 16:53:10.593760
38.63427192,-0.8799689412,0.5921840668,-0.1903429031,2024-06-05 16:53:10.634272
38.67473801,-0.8803354502,-0.3242406845,0.8753967285,2024-06-05 16:53:10.674738
38.71522557,-0.192510128,-0.5287437439,3.701021671,2024-06-05 16:53:10.715226
38.75572416,-2.08410573,-1.440611839,2.985107899,2024-06-05 16:53:10.755724
38.79620598,-1.046527982,-1.523398399,1.155833244,2024-06-05 16:53:10.796206
38.83672051,0.1435838938,-1.989377975,2.778180599,2024-06-05 16:53:10.836721
38.87720812,-1.406217337,-4.097016335,4.981757641,2024-06-05 16:53:10.877208
38.91768687,0.4185779095,-1.295637131,6.270869732,2024-06-05 16:53:10.917687
38.95816124,3.900829792,-0.4495334625,1.416558027,2024-06-05 16:53:10.958161
38.99876202,4.602582932,-3.830682755,-5.23328495,2024-06-05 16:53:10.998762
39.03916056,1.159630775,-1.928011894,-6.279920101,2024-06-05 16:53:11.039161
39.07965155,-0.8837002516,-1.418761253,-2.772157669,2024-06-05 16:53:11.079652
39.12016291,-0.4502407014,0.1966753006,-4.293055534,2024-06-05 16:53:11.120163
39.16062353,0.1144149303,2.437624931,-4.074317932,2024-06-05 16:53:11.160624
39.20108405,0.4021812677,2.500675201,-4.249806881,2024-06-05 16:53:11.201084
39.24158864,1.814698339,3.744050503,-3.565343857,2024-06-05 16:53:11.241589
39.28207223,1.519659758,3.029514313,-2.337777615,2024-06-05 16:53:11.282072
39.32258051,0.2410349846,-0.3005561829,1.714162827,2024-06-05 16:53:11.322581
39.36305119,-2.111353874,-3.471647263,7.288101196,2024-06-05 16:53:11.363051
39.40357223,-3.029835701,-2.120829582,5.294700623,2024-06-05 16:53:11.403572
39.44408004,1.997923136,-2.292922974,1.412856817,2024-06-05 16:53:11.444080
39.48454098,3.234072208,-2.429906845,-2.669861555,2024-06-05 16:53:11.484541
39.52505046,0.7655597925,2.879465103,-1.55273509,2024-06-05 16:53:11.525050
39.56550926,1.486215591,3.003967762,-4.300059319,2024-06-05 16:53:11.565509
39.60599004,0.6874262094,-0.9005088806,-4.278387547,2024-06-05 16:53:11.605990
39.64648598,1.408226252,-0.7720403671,1.196135998,2024-06-05 16:53:11.646486
39.68693786,-1.676026344,-0.9158210754,1.423656583,2024-06-05 16:53:11.686938
39.72744182,-2.158861637,-1.002705574,-1.569934368,2024-06-05 16:53:11.727442
39.76796015,-0.1183996201,0.4926013947,1.127574563,2024-06-05 16:53:11.767960
39.80846682,2.299260855,0.8452653885,0.8534103632,2024-06-05 16:53:11.808467
39.84893624,1.006032825,0.9917535782,-0.0180593133,2024-06-05 16:53:11.848936
39.88941244,-0.6690222025,0.4496965408,-0.7268173695,2024-06-05 16:53:11.889412
39.92990947,-0.7253234386,-0.6959543228,0.8541597128,2024-06-05 16:53:11.929909
39.97037879,-1.676946402,-0.05826187134,4.837477684,2024-06-05 16:53:11.970379
40.0108615,-2.838696957,-0.5936365128,0.9566943645,2024-06-05 16:53:12.010861
40.0513753,-1.150243402,-1.388893127,-0.1433944702,2024-06-05 16:53:12.051375
40.09184265,0.2884653807,-3.731256485,-0.8866193295,2024-06-05 16:53:12.091843
40.13235833,0.9048000574,-2.64012146,4.970168114,2024-06-05 16:53:12.132358
40.17284265,2.342187881,-1.855606079,6.370439529,2024-06-05 16:53:12.172843
40.21332202,2.705177546,1.323460579,1.29587996,2024-06-05 16:53:12.213322
40.25380046,3.854905367,-0.5261611938,-1.912703514,2024-06-05 16:53:12.253800
40.2943128,2.89467907,-2.619282722,-6.625273705,2024-06-05 16:53:12.294313
40.3347752,0.1984081268,-1.575857162,-5.246907711,2024-06-05 16:53:12.334775
40.3752914,-1.19939971,-0.3687753677,-3.51433754,2024-06-05 16:53:12.375291
40.4157226,-0.1176487803,1.696473122,-2.525651455,2024-06-05 16:53:12.415723
40.45626666,0.910071969,3.145859718,-3.339995861,2024-06-05 16:53:12.456267
40.49674572,1.762186289,3.40616703,-2.877112389,2024-06-05 16:53:12.496746
40.5372453,1.295463562,1.523336887,-0.7100219727,2024-06-05 16:53:12.537245
40.57773682,0.01251256466,0.1356706619,0.3855004311,2024-06-05 16:53:12.577737
40.61822218,-0.8767547607,-0.5009775162,4.956606388,2024-06-05 16:53:12.618222
40.65870926,-4.491293907,-3.798445702,6.787294388,2024-06-05 16:53:12.658709
40.69920275,1.379662037,-0.3370876312,2.548873186,2024-06-05 16:53:12.699203
40.73966093,4.00864172,-3.347615242,-1.721430182,2024-06-05 16:53:12.739661
40.780169,1.942396283,0.01045036316,-2.150777578,2024-06-05 16:53:12.780169
40.82066905,0.5667487383,3.293588638,-1.919844151,2024-06-05 16:53:12.820669
40.86112827,0.8125284314,1.182639122,-2.27808404,2024-06-05 16:53:12.861128
40.90164379,2.945219994,0.4969873428,-1.625583887,2024-06-05 16:53:12.901644
40.94208582,0.6210452318,-0.2469348907,1.245774269,2024-06-05 16:53:12.942086
40.98262536,-0.9789867401,-1.008228302,-2.685130358,2024-06-05 16:53:12.982625
41.02311187,-1.35514617,-1.303541183,0.7088479996,2024-06-05 16:53:13.023112
41.06357838,0.2976984978,-0.08473110199,0.7701015472,2024-06-05 16:53:13.063578
41.10409041,1.699262142,1.298986435,-0.1681489944,2024-06-05 16:53:13.104090
41.14457484,0.8697477579,0.6474409103,-0.7383130789,2024-06-05 16:53:13.144575
41.1850789,-0.1116379499,0.1421499252,-0.5370153785,2024-06-05 16:53:13.185079
41.22555036,0.155282259,-0.0001926422119,0.219481945,2024-06-05 16:53:13.225550
41.26603411,-0.2439985871,-0.03113746643,1.447315097,2024-06-05 16:53:13.266034
41.30653176,-1.044220805,-0.2874994278,2.017352104,2024-06-05 16:53:13.306532
41.34700562,-1.052778721,-0.3781385422,1.415374041,2024-06-05 16:53:13.347006
41.38751499,-1.415548801,-0.6793813705,1.612488985,2024-06-05 16:53:13.387515
41.42794437,-0.2833800316,-0.6246356964,1.032136559,2024-06-05 16:53:13.427944
41.46848343,0.08904904127,-1.830235481,0.5627119541,2024-06-05 16:53:13.468483
41.50897275,-1.726600409,-3.462841988,1.834501028,2024-06-05 16:53:13.508973
41.5494628,0.3023055196,-2.362379074,4.735024452,2024-06-05 16:53:13.549463
41.58995812,4.338189125,-0.9209747314,8.496021271,2024-06-05 16:53:13.589958
41.63044608,4.2488451,1.028259277,-0.2225050926,2024-06-05 16:53:13.630446
41.67092603,3.823288679,-2.322926521,-4.900682449,2024-06-05 16:53:13.670926
41.7114264,4.032837391,-2.579903603,-6.911559105,2024-06-05 16:53:13.711426
41.75189666,-1.102184415,-1.906872749,-4.569392204,2024-06-05 16:53:13.751897
41.79240447,-1.483314753,0.5613050461,-1.96628201,2024-06-05 16:53:13.792404
41.83290249,0.2297912538,2.448803902,-3.225126743,2024-06-05 16:53:13.832902
41.87338192,2.158753872,3.26825428,-3.796543837,2024-06-05 16:53:13.873382
41.91385234,1.556402326,3.451790333,-3.104014874,2024-06-05 16:53:13.913852
41.95435874,0.3926831484,1.790498734,-0.6807894707,2024-06-05 16:53:13.954359
41.99480937,-0.1933063865,0.01651477814,2.87873292,2024-06-05 16:53:13.994809
42.0353464,-2.467876196,-2.004909515,5.923893452,2024-06-05 16:53:14.035346
42.07581661,-4.523742676,-3.210565567,6.269154549,2024-06-05 16:53:14.075817
42.11628978,3.178429127,1.604792595,0.1805837154,2024-06-05 16:53:14.116290
42.15679348,5.634635925,-4.213905334,-3.98256278,2024-06-05 16:53:14.156793
42.19724348,0.7484887838,0.2070226669,1.00354743,2024-06-05 16:53:14.197243
42.2377565,2.630329132,4.657547474,-2.776548862,2024-06-05 16:53:14.237757
42.27824046,2.847949505,1.25662899,-2.764048815,2024-06-05 16:53:14.278240
42.31875239,-1.088200808,-2.852326393,-1.159765959,2024-06-05 16:53:14.318752
42.35923124,-3.019083023,-0.4229745865,-0.2285190225,2024-06-05 16:53:14.359231
42.39969187,-1.632987142,-0.7638645172,-2.470867872,2024-06-05 16:53:14.399692
42.44016551,-0.8091232777,-0.2570295334,1.783554554,2024-06-05 16:53:14.440166
42.48066176,1.753224611,0.7403392792,0.6857940555,2024-06-05 16:53:14.480662
42.52119098,1.797017932,1.144223213,0.6234594584,2024-06-05 16:53:14.521191
42.56165546,-0.1326791644,0.5120630264,0.8018802404,2024-06-05 16:53:14.561655
42.60214145,-1.448592901,-0.1627960205,-0.03630959988,2024-06-05 16:53:14.602141
42.64265609,-0.7375870347,-0.4322948456,2.286549091,2024-06-05 16:53:14.642656
42.68311524,-1.183989882,-0.4247331619,4.379258156,2024-06-05 16:53:14.683115
42.72361967,-2.537005424,-1.755000114,-0.2766330242,2024-06-05 16:53:14.723620
42.76411514,-2.068312645,-3.689224243,0.3158086538,2024-06-05 16:53:14.764115
42.80459592,-0.4052265286,-3.579331398,2.759244442,2024-06-05 16:53:14.804596
42.84509155,2.901296377,-1.939818382,8.472686768,2024-06-05 16:53:14.845092
42.88557077,3.853865147,0.4815502167,0.8429039121,2024-06-05 16:53:14.885571
42.92604483,3.873874426,-0.5529680252,0.5591659546,2024-06-05 16:53:14.926045
42.96657134,3.459685802,-2.998885155,-6.347509384,2024-06-05 16:53:14.966571
43.00705061,1.81587255,-1.319773674,-4.505626678,2024-06-05 16:53:15.007051
43.04753446,-2.087635756,-1.047600746,-3.735302687,2024-06-05 16:53:15.047534
43.08802827,-0.8063539267,1.481746674,-3.902425766,2024-06-05 16:53:15.088028
43.12851389,0.3044790328,2.885230064,-4.044317722,2024-06-05 16:53:15.128514
43.16901868,2.462075233,3.789263725,-4.249159336,2024-06-05 16:53:15.169019
43.2094603,2.012350559,3.020088196,-2.527029991,2024-06-05 16:53:15.209460
43.24995785,0.3721382022,0.3326835632,0.4601762295,2024-06-05 16:53:15.249958
43.29045347,-0.7529987097,-1.853798866,6.494810104,2024-06-05 16:53:15.290453
43.3309417,-3.036789179,-3.53481102,6.75123167,2024-06-05 16:53:15.330942
43.37143478,2.949461222,-1.937851906,2.369767189,2024-06-05 16:53:15.371435
43.41191113,5.167010784,-3.396580696,-2.197999716,2024-06-05 16:53:15.411911
43.45239972,1.863351583,3.282885075,-2.693083286,2024-06-05 16:53:15.452400
43.49289207,1.546101093,3.559130669,-4.203843594,2024-06-05 16:53:15.492892
43.53339957,0.6367795467,-0.8841991425,-4.034343719,2024-06-05 16:53:15.533400
43.57390238,-1.304913759,-1.454816818,-3.076022625,2024-06-05 16:53:15.573902
43.61436733,-3.185936451,-1.307919502,1.743334055,2024-06-05 16:53:15.614367
43.6548442,-0.450129807,-0.3920841217,0.07676193863,2024-06-05 16:53:15.654844
43.69533092,0.07812821865,0.5479440689,1.745560646,2024-06-05 16:53:15.695331
43.73584816,1.132756829,1.082994461,0.4047117829,2024-06-05 16:53:15.735848
43.77635045,0.6488908529,0.5099220276,0.06341344118,2024-06-05 16:53:15.776350
43.8168242,-0.9593538046,0.07715034485,0.4658315182,2024-06-05 16:53:15.816824
43.85732446,-0.6697423458,-0.3787918091,1.015392184,2024-06-05 16:53:15.857324
43.89779978,-0.7355747223,0.08833312988,3.011883974,2024-06-05 16:53:15.897800
43.93827649,-1.809594274,-0.345656395,2.845932007,2024-06-05 16:53:15.938276
43.97876186,-2.363485575,-2.417662621,-1.618638754,2024-06-05 16:53:15.978762
44.01925113,0.006992697716,-4.853167534,-0.08448433876,2024-06-05 16:53:16.019251
44.05974545,3.075235367,-1.96114254,7.679547787,2024-06-05 16:53:16.059745
44.10025535,3.117792368,-0.4379529953,2.974716902,2024-06-05 16:53:16.100255
44.14074488,2.853945017,1.050296783,0.965265274,2024-06-05 16:53:16.140745
44.18122899,4.713855743,-2.309048653,-5.345191002,2024-06-05 16:53:16.181229
44.22170149,1.182766557,-1.470871925,-6.265586376,2024-06-05 16:53:16.221701
44.26220728,-0.1267293096,-0.6943912506,-3.386964321,2024-06-05 16:53:16.262207
44.30272702,-0.2134846449,1.129938126,-2.933484554,2024-06-05 16:53:16.302727
44.34320931,0.4281730652,3.00216198,-3.493281126,2024-06-05 16:53:16.343209
44.38370373,1.151789427,3.275077343,-3.05231452,2024-06-05 16:53:16.383704
44.42419936,1.285857439,2.528752804,-0.8356313705,2024-06-05 16:53:16.424199
44.46462618,0.1034744382,1.050741196,-0.3845663071,2024-06-05 16:53:16.464626
44.50512306,-0.2752569914,-0.5168228149,3.910982609,2024-06-05 16:53:16.505123
44.54561952,-3.408629894,-2.660972595,7.033255577,2024-06-05 16:53:16.545620
44.5860928,0.4775118828,-3.843064308,3.892342091,2024-06-05 16:53:16.586093
44.62660186,5.641592026,-4.349504471,0.102669239,2024-06-05 16:53:16.626602
44.66708394,3.381329536,4.790641785,-3.172107935,2024-06-05 16:53:16.667084
44.70756827,2.630438328,4.062429428,-4.786156654,2024-06-05 16:53:16.707568
44.74810431,2.219134092,0.3005161285,-4.513934135,2024-06-05 16:53:16.748104
44.78856509,-0.02985429764,-2.990273476,-1.494715214,2024-06-05 16:53:16.788565
44.82905342,-3.167354822,-1.002836227,2.50732255,2024-06-05 16:53:16.829053
44.8695341,-1.144638896,-0.7514600754,-3.429169655,2024-06-05 16:53:16.869534
44.91002686,-0.3298950195,-0.005805015564,0.5212430954,2024-06-05 16:53:16.910027
44.95051545,2.552969933,0.8186311722,2.657631159,2024-06-05 16:53:16.950515
44.99103832,1.62710762,0.6886463165,1.671881437,2024-06-05 16:53:16.991038
45.03151202,-1.247067332,0.2259197235,-1.733768821,2024-06-05 16:53:17.031512
45.07198326,-1.745085597,-0.5477895737,-0.2667865753,2024-06-05 16:53:17.071983
45.11246707,-1.62780714,-0.2803764343,4.886483192,2024-06-05 16:53:17.112467
45.15304504,-2.389718294,-1.117990494,1.349325657,2024-06-05 16:53:17.153045
45.19353358,-0.8943908215,-2.467710495,-1.931677818,2024-06-05 16:53:17.193534
45.23402212,2.76348114,-3.099467278,0.1087460518,2024-06-05 16:53:17.234022
45.27445905,5.32716465,-0.6635532379,8.609332085,2024-06-05 16:53:17.274459
45.31494764,2.265463352,0.6648159027,1.311164379,2024-06-05 16:53:17.314948
45.35540759,2.548146963,-0.3128767014,-1.903081179,2024-06-05 16:53:17.355408
45.39589623,2.731180191,-1.725624084,-7.707923889,2024-06-05 16:53:17.395896
45.4363703,-1.10170126,-1.67509079,-3.724727392,2024-06-05 16:53:17.436370
45.47688373,-0.4777837992,0.6391563416,-2.89575839,2024-06-05 16:53:17.476884
45.517388,0.190502584,2.404868126,-3.058108807,2024-06-05 16:53:17.517388
45.55786316,0.8813412189,3.066205978,-2.790482759,2024-06-05 16:53:17.557863
45.59834202,1.006674767,2.999207497,-1.966079712,2024-06-05 16:53:17.598342
45.63885097,-0.2004557252,-0.2866630554,0.2891173363,2024-06-05 16:53:17.638851
45.67931681,-1.809694409,-3.177635193,5.376419067,2024-06-05 16:53:17.679317
45.71982425,-1.224561095,-1.476236343,6.96523571,2024-06-05 16:53:17.719824
45.76029702,2.416801691,-2.525380135,-0.3163020611,2024-06-05 16:53:17.760297
45.80082816,2.702243328,0.6087026596,-2.42397213,2024-06-05 16:53:17.800828
45.84127196,1.112977505,2.220458031,-2.237318993,2024-06-05 16:53:17.841272
45.88177264,-0.03185021877,1.150626183,-2.887943029,2024-06-05 16:53:17.881773
45.92225608,1.67027247,-0.6771860123,1.092839479,2024-06-05 16:53:17.922256
45.96274498,0.7557103634,-1.451440811,-0.4299088418,2024-06-05 16:53:17.962745
46.00323394,-1.252455354,-0.6459131241,0.03635361791,2024-06-05 16:53:18.003234
46.04373785,-0.1148381233,-0.184381485,0.07054528594,2024-06-05 16:53:18.043738
46.0842229,1.455838323,0.6672077179,-1.173007131,2024-06-05 16:53:18.084223
46.12469467,0.9744760394,0.355386734,1.023103714,2024-06-05 16:53:18.124695
46.16518811,-0.6377386451,-0.147362709,-1.10583818,2024-06-05 16:53:18.165188
46.20567702,-0.2782467604,0.0105676651,-1.050012469,2024-06-05 16:53:18.205677
46.24616155,0.1473454237,-0.3156576157,0.8772031069,2024-06-05 16:53:18.246162
46.28664483,0.61108917,-0.08215522766,1.461968422,2024-06-05 16:53:18.286645
46.32714629,-0.04610049725,-0.07055473328,-0.893053174,2024-06-05 16:53:18.327146
46.36764592,-2.239337444,-0.955080986,-1.138927698,2024-06-05 16:53:18.367646
46.40811957,-0.497053802,-0.08594512939,-1.393631458,2024-06-05 16:53:18.408120
46.44860576,0.7753403187,0.562669754,-0.01427844167,2024-06-05 16:53:18.448606
46.48910702,0.4516386986,0.3967933655,0.2140888423,2024-06-05 16:53:18.489107
46.52959842,0.09910655022,-0.0015001297,-0.5410796404,2024-06-05 16:53:18.529598
46.57010071,-0.03448402882,-0.02101707458,-0.9028240442,2024-06-05 16:53:18.570101
46.61058665,0.1224547625,-0.0634021759,-0.3204042017,2024-06-05 16:53:18.610587
46.65108144,0.1827112436,0.1020679474,0.2604043484,2024-06-05 16:53:18.651081
46.6915279,-0.6363617182,0.07681941986,-0.07403233647,2024-06-05 16:53:18.691528
46.73203879,-0.2580081224,-0.006704330444,-0.6473602653,2024-06-05 16:53:18.732039
46.77252769,0.4571509361,-0.009181022644,0.01032358408,2024-06-05 16:53:18.772528
46.81302228,0.457342267,0.02968215942,0.5402618647,2024-06-05 16:53:18.813022
46.85351655,0.372825861,0.04245662689,0.5494143963,2024-06-05 16:53:18.853517
46.89402102,0.328892231,0.1069002151,0.05650511384,2024-06-05 16:53:18.894021
46.93451618,0.5409891605,0.1271781921,0.2013949454,2024-06-05 16:53:18.934516
46.97499858,0.5649610758,-0.03531742096,0.1557177305,2024-06-05 16:53:18.974999
47.01548806,0.6193659306,0.1422271729,0.1806409955,2024-06-05 16:53:19.015488
47.05597754,0.7331510782,0.2315483093,-0.09341353178,2024-06-05 16:53:19.055978
47.09646238,0.9080443382,0.1401281357,0.03248077631,2024-06-05 16:53:19.096462
47.13693582,0.9270205498,0.1356840134,0.2652406693,2024-06-05 16:53:19.136936
47.17741842,0.6743382215,0.05251598358,-0.1446355581,2024-06-05 16:53:19.177418
47.21789545,0.04504311085,0.1619062424,-0.266462028,2024-06-05 16:53:19.217895
47.25839837,0.2147244215,-0.03607082367,-0.1860346198,2024-06-05 16:53:19.258398
47.29888957,0.8907037973,-0.2197380066,-0.3558400869,2024-06-05 16:53:19.298890
47.3393755,0.2899734974,0.1522932053,0.3030852675,2024-06-05 16:53:19.339376
47.37988102,-0.08521521091,0.03295898438,-0.5237318873,2024-06-05 16:53:19.379881
47.4203342,-0.07660615444,0.09863948822,0.4141145349,2024-06-05 16:53:19.420334
47.46084019,-0.179948926,0.03613567352,-0.07173883915,2024-06-05 16:53:19.460840
47.50133566,-0.2953505516,-0.08336734772,0.4461054206,2024-06-05 16:53:19.501336
47.54182702,-0.7766096592,0.7647733688,-0.533536613,2024-06-05 16:53:19.541827
47.58233946,-0.5138255358,-0.5763111115,-0.3137797117,2024-06-05 16:53:19.582339
47.62284509,-0.8414241076,0.6661787033,-0.07731956244,2024-06-05 16:53:19.622845
47.66327774,-0.7048486471,-0.8361005783,-0.01496744156,2024-06-05 16:53:19.663278
47.70380899,0.2585952282,0.1602239609,0.5028014779,2024-06-05 16:53:19.703809
47.74428967,-0.6643993855,-0.2697086334,1.009527683,2024-06-05 16:53:19.744290
47.78476149,-0.0193451643,0.4592056274,-0.2353895903,2024-06-05 16:53:19.784761
47.82525264,-0.4799077511,0.2104320526,0.7217009664,2024-06-05 16:53:19.825253
47.865743,-0.4860318899,-0.3884477615,0.8404459953,2024-06-05 16:53:19.865743
47.90625754,-0.2142635584,0.04437351227,-0.3418483734,2024-06-05 16:53:19.906258
47.94674707,-0.0005947351456,0.3706951141,0.4471330047,2024-06-05 16:53:19.946747
47.98721316,0.743925333,0.6275157928,-0.1477168202,2024-06-05 16:53:19.987213
48.02774988,1.185331345,-0.4741439819,-0.3549720049,2024-06-05 16:53:20.027750
48.06818082,0.7656718493,-0.6041021347,0.6032139063,2024-06-05 16:53:20.068181
48.10867077,-0.1355611086,-0.2530488968,-1.017733932,2024-06-05 16:53:20.108671
48.14919655,-0.9478538632,0.5724592209,-0.2782884836,2024-06-05 16:53:20.149197
48.18968608,-1.317161918,-0.3780488968,-0.2919121981,2024-06-05 16:53:20.189686
48.23014894,-0.7421521544,0.06057453156,-0.9216592908,2024-06-05 16:53:20.230149
48.27062884,-0.5312223434,-0.3361711502,1.656142831,2024-06-05 16:53:20.270629
48.31112077,0.3468085527,0.2587585449,0.2341754436,2024-06-05 16:53:20.311121
48.35161655,1.309334993,-0.07678985596,-0.07287031412,2024-06-05 16:53:20.351617
48.3921053,-0.08324956894,0.06075954437,0.294261992,2024-06-05 16:53:20.392105
48.43257894,-0.7059851885,-0.9977378845,-0.2989523411,2024-06-05 16:53:20.432579
48.47307978,0.02694714069,-3.451808929,1.306018829,2024-06-05 16:53:20.473080
48.51357759,-2.117424488,-0.7786769867,0.6453583241,2024-06-05 16:53:20.513578
48.55407092,-1.363661408,-0.9155769348,-0.2766368389,2024-06-05 16:53:20.554071
48.59454634,0.4285694361,5.203585625,-0.9635814428,2024-06-05 16:53:20.594546
48.63503519,2.705102444,4.824149132,-1.873741388,2024-06-05 16:53:20.635035
48.67550165,2.310177326,2.889979839,-3.365521669,2024-06-05 16:53:20.675502
48.71599056,2.36307621,-2.969316483,4.634474277,2024-06-05 16:53:20.715991
48.75651795,-1.215674877,-3.685992241,0.5201114416,2024-06-05 16:53:20.756518
48.7970229,-0.7513052225,-0.07595920563,-1.097597718,2024-06-05 16:53:20.797023
48.83748524,0.007457375526,-0.6310777664,0.123614192,2024-06-05 16:53:20.837485
48.87797759,0.4846316576,0.3568344116,-0.5139704943,2024-06-05 16:53:20.877978
48.91846228,0.5460523367,0.0138053894,-0.007719635963,2024-06-05 16:53:20.918462
48.95895259,0.552918911,0.375878334,-0.1245430708,2024-06-05 16:53:20.958953
48.99944827,0.6615114212,-1.635219574,0.6313209534,2024-06-05 16:53:20.999448
49.03993056,0.8510503769,2.881790638,0.2766312361,2024-06-05 16:53:21.039931
49.08043389,-0.8234990835,-1.407652855,-0.3197995424,2024-06-05 16:53:21.080434
49.12090597,-1.969295502,0.3677692413,-0.03934216499,2024-06-05 16:53:21.120906
49.16142222,-1.075753808,-0.5189790726,0.6970696449,2024-06-05 16:53:21.161422
49.20191139,0.5805079937,0.2608795166,0.07694649696,2024-06-05 16:53:21.201911
49.2423929,1.908501387,-0.2760515213,-0.3862700462,2024-06-05 16:53:21.242393
49.28290102,-0.2540171146,-1.123662949,1.914365768,2024-06-05 16:53:21.282901
49.32339113,1.016431808,-1.198322296,0.344504118,2024-06-05 16:53:21.323391
49.36384254,0.3736312389,0.775390625,-0.6689040661,2024-06-05 16:53:21.363843
49.4043579,-1.649156928,0.4693470001,-0.4649384022,2024-06-05 16:53:21.404358
49.44484702,0.06331825256,0.9068584442,-0.2073526382,2024-06-05 16:53:21.444847
49.48530441,-0.2017018795,0.7254972458,0.3699569702,2024-06-05 16:53:21.485304
49.52579337,1.037954092,1.12928772,-1.313585639,2024-06-05 16:53:21.525793
49.56628254,-0.9099292755,-0.3421859741,0.03623390198,2024-06-05 16:53:21.566283
49.60677816,-0.1819102764,-0.04221725464,0.6573815346,2024-06-05 16:53:21.606778
49.6472828,-0.9275894165,-1.853142738,0.3394569159,2024-06-05 16:53:21.647283
49.68777353,-0.09766840935,-1.735088348,1.507017136,2024-06-05 16:53:21.687774
49.72829441,0.9173700809,-0.5962820053,-0.2485961914,2024-06-05 16:53:21.728294
49.76882702,0.01151013374,-0.3070106506,1.849951744,2024-06-05 16:53:21.768827
49.80925212,-0.4274067879,0.9206962585,-2.099060535,2024-06-05 16:53:21.809252
49.84976264,0.01271104813,2.083480358,-0.7360646725,2024-06-05 16:53:21.849763
49.89024004,-0.09035181999,0.6157598495,-0.496108532,2024-06-05 16:53:21.890240
49.93072222,0.2026329041,-0.1735744476,-0.2736475468,2024-06-05 16:53:21.930722
49.9712128,-0.1239856482,-0.7662858963,1.147304296,2024-06-05 16:53:21.971213
50.01170452,0.2715634108,-0.7877960205,-0.4917166233,2024-06-05 16:53:22.011705
50.05219248,2.154901266,2.238986015,-0.983471632,2024-06-05 16:53:22.052192
50.09267936,-2.48809886,-2.276006699,1.118563414,2024-06-05 16:53:22.092679
50.13317941,-1.532485366,-1.633950233,1.158064604,2024-06-05 16:53:22.133179
50.17368978,-3.279933453,-3.391499519,-0.2773504257,2024-06-05 16:53:22.173690
50.21417243,-1.043102384,-2.804427147,-0.2986941338,2024-06-05 16:53:22.214172
50.25463602,2.694069624,-1.179022789,1.185966969,2024-06-05 16:53:22.254636
50.29510155,0.07223838568,-1.579248428,0.4304358959,2024-06-05 16:53:22.295102
50.33558915,2.071975708,-0.564409256,-1.658489108,2024-06-05 16:53:22.335589
50.37607472,3.659268856,2.18494606,0.6241204739,2024-06-05 16:53:22.376075
50.41658634,0.8828393817,1.221266747,0.789358139,2024-06-05 16:53:22.416586
50.45709134,-0.5929057002,-0.9086475372,-1.460487843,2024-06-05 16:53:22.457091
50.4975703,2.193128586,0.8655414581,0.1672012806,2024-06-05 16:53:22.497570
50.53805602,-0.08825838566,0.5117635727,-0.1776211262,2024-06-05 16:53:22.538056
50.57856806,1.967222929,0.4262714386,2.22179985,2024-06-05 16:53:22.578568
50.61904535,-1.241389751,-4.191386223,-3.040492535,2024-06-05 16:53:22.619045
50.65953134,1.5107373,-1.712703705,-0.9774861932,2024-06-05 16:53:22.659531
50.70001754,1.150895715,-0.8933858871,4.15779829,2024-06-05 16:53:22.700018
50.74051556,2.556832075,-1.378815651,-0.1719296128,2024-06-05 16:53:22.740516
50.78101498,-0.1095299721,-1.106668472,5.375454903,2024-06-05 16:53:22.781015
50.82149702,3.18803215,2.318946838,15.36414814,2024-06-05 16:53:22.821497
50.86201202,-1.048660517,0.7290086746,6.31807375,2024-06-05 16:53:22.862012
50.90248191,-10.94609165,1.144295692,-4.35009861,2024-06-05 16:53:22.902482
50.94295399,-10.98685741,-0.8771810532,1.049058676,2024-06-05 16:53:22.942954
50.98345769,-8.268936157,-2.393997669,-7.56469059,2024-06-05 16:53:22.983458
51.02396754,-1.84216404,-0.7482042313,-5.818339348,2024-06-05 16:53:23.023968
51.06448509,-0.1960110664,-3.441810608,-4.593828201,2024-06-05 16:53:23.064485
51.10493238,0.9065842628,-5.842320442,-5.788186073,2024-06-05 16:53:23.104932
51.14540618,8.557024002,-3.832704067,-7.464548588,2024-06-05 16:53:23.145406
51.18590144,7.824890137,-2.960960865,-7.973448277,2024-06-05 16:53:23.185901
51.22637764,3.351039171,-2.470931768,-6.798165321,2024-06-05 16:53:23.226378
51.2669153,1.011264205,-0.5089949369,-2.442454338,2024-06-05 16:53:23.266915
51.30738082,-1.110796928,-0.1580168307,8.637242317,2024-06-05 16:53:23.307381
51.34787379,0.8749889135,0.08213400841,1.224539757,2024-06-05 16:53:23.347874
51.38837024,-1.028576612,1.523818374,-3.699871063,2024-06-05 16:53:23.388370
51.42882702,-0.5887148976,2.345910549,2.510219574,2024-06-05 16:53:23.428827
51.46931519,-1.618264794,0.1621818542,1.825772285,2024-06-05 16:53:23.469315
51.50985087,3.936058283,0.06904995441,3.103027344,2024-06-05 16:53:23.509851
51.55031649,5.080438614,-3.527467728,1.195135117,2024-06-05 16:53:23.550316
51.59080212,1.412875295,-0.04814577103,-0.5134105682,2024-06-05 16:53:23.590802
51.6313228,1.246429443,0.8211398125,-0.8556251526,2024-06-05 16:53:23.631323
51.67177514,-0.04056206346,0.4834580421,2.341731071,2024-06-05 16:53:23.671775
51.71226759,3.024211884,-0.437727809,1.225404739,2024-06-05 16:53:23.712268
51.75275608,-1.789257407,0.5403518677,-0.9119749069,2024-06-05 16:53:23.752756
51.79331978,-1.633729219,-0.2326123714,2.119291306,2024-06-05 16:53:23.793320
51.83376905,-0.419357121,0.6329238415,0.7942705154,2024-06-05 16:53:23.833769
51.87425613,0.9772968888,0.3759233952,1.196874619,2024-06-05 16:53:23.874256
51.91474649,-1.048541665,1.022065163,-0.9278316498,2024-06-05 16:53:23.914746
51.95523618,0.9449368119,-0.9293484688,1.474994659,2024-06-05 16:53:23.955236
51.99567597,-0.7017549276,-0.2886989117,0.1073360443,2024-06-05 16:53:23.995676
52.03616556,-0.1871922016,-0.1166644096,-0.09325408936,2024-06-05 16:53:24.036166
52.07667254,0.1082684994,-0.05310964584,-0.865354538,2024-06-05 16:53:24.076673
52.11716889,-1.138105273,0.9334583282,-1.19546032,2024-06-05 16:53:24.117169
52.15770321,-0.6063956022,0.01912117004,-0.2912425995,2024-06-05 16:53:24.157703
52.1981928,1.761704922,0.06191015244,0.2734069824,2024-06-05 16:53:24.198193
52.23862431,0.7276195288,0.08602905273,-1.627427101,2024-06-05 16:53:24.238624
52.27914957,-0.2690872848,-0.3089914322,-2.418009758,2024-06-05 16:53:24.279150
52.31962811,0.2205954492,-0.165760994,-1.683255196,2024-06-05 16:53:24.319628
52.36011655,-0.6176851392,-0.4269766808,0.002005577087,2024-06-05 16:53:24.360117
52.4006217,-0.6530786753,-0.5673804283,0.3701791763,2024-06-05 16:53:24.400622
52.44108571,0.05754242837,-0.001226902008,-0.7685017586,2024-06-05 16:53:24.441086
52.48158847,-0.2311642766,0.03931236267,-1.885938644,2024-06-05 16:53:24.481588
52.52207061,0.1823923141,0.2683286667,-1.941202164,2024-06-05 16:53:24.522071
52.56257311,0.9122123718,0.6616969109,-0.1189785004,2024-06-05 16:53:24.562573
52.60306311,0.4807519019,0.1440768242,2.349847794,2024-06-05 16:53:24.603063
52.64358764,-0.05474820733,0.4755756855,0.9116926193,2024-06-05 16:53:24.643588
52.68399962,-0.9016252756,0.08314180374,0.3416547775,2024-06-05 16:53:24.684000
52.72454483,-0.332190603,0.5841445923,-0.6929788589,2024-06-05 16:53:24.724545
52.76500842,-0.4890543222,0.2129004002,0.4406061172,2024-06-05 16:53:24.765008
52.80547556,0.2094532251,0.6128258705,-0.708114624,2024-06-05 16:53:24.805476
52.8459655,0.4244409204,0.7250714302,1.076998711,2024-06-05 16:53:24.845965
52.88651103,-0.003168344498,-0.1847281456,0.6144161224,2024-06-05 16:53:24.886511
52.92698337,-1.130008698,0.2522978783,-0.311747551,2024-06-05 16:53:24.926983
52.9674754,-0.01301491261,0.5171370506,-0.03758144379,2024-06-05 16:53:24.967475
53.00797545,-0.1327701807,0.2916824818,-0.1634120941,2024-06-05 16:53:25.007975
53.04846983,-0.06356209517,0.3293719292,-0.03800964355,2024-06-05 16:53:25.048470
53.08894431,-0.0188562274,0.3686759472,0.224105835,2024-06-05 16:53:25.088944
53.12944004,-0.1274513602,0.2073917389,-0.3262996674,2024-06-05 16:53:25.129440
53.16994217,-1.075053096,-0.6112208366,0.6394586563,2024-06-05 16:53:25.169942
53.21043285,-1.312643886,-0.4847886562,-1.527633667,2024-06-05 16:53:25.210433
53.25096238,-2.116392612,-1.060732841,-0.8515691757,2024-06-05 16:53:25.250962
53.29139311,0.05745363235,0.232763052,-0.08339881897,2024-06-05 16:53:25.291393
53.33189712,1.657734632,0.9789559841,0.3532915115,2024-06-05 16:53:25.331897
53.37237852,1.147282124,0.9906339645,1.443071365,2024-06-05 16:53:25.372379
53.41287092,1.090767384,1.096596003,0.3046712875,2024-06-05 16:53:25.412871
53.45334405,-0.4504561424,-0.01584434509,0.6394147873,2024-06-05 16:53:25.453344
53.49385629,0.5382368565,0.4402699471,-0.08610630035,2024-06-05 16:53:25.493856
53.53436202,0.4970247746,0.4067430496,0.117020607,2024-06-05 16:53:25.534362
53.57482254,-0.2766468525,0.01571202278,-0.2795782089,2024-06-05 16:53:25.574823
53.61528759,0.7856278419,0.6935384274,0.05261993408,2024-06-05 16:53:25.615288
53.65577691,0.5669829845,0.3494241238,0.4666633606,2024-06-05 16:53:25.655777
53.69627316,0.6461365223,0.4924762249,0.351354599,2024-06-05 16:53:25.696273
53.73676743,0.8940460682,0.8504121304,-0.02637672424,2024-06-05 16:53:25.736767
53.77728108,0.7205865383,0.2720079422,0.07876968384,2024-06-05 16:53:25.777281
53.81776009,0.1899950504,0.485055685,0.3578414917,2024-06-05 16:53:25.817760
53.85827832,0.8402037621,0.4408941269,-0.01365566254,2024-06-05 16:53:25.858278
53.89874717,-1.123050213,-0.4102978706,-0.2771635056,2024-06-05 16:53:25.898747
53.93921634,-0.3981413841,-0.1360096931,-0.3028059006,2024-06-05 16:53:25.939216
53.97970488,1.034483194,0.3435468674,-0.9685153961,2024-06-05 16:53:25.979705
54.02021858,0.008704781532,-0.2397191525,-0.3554039001,2024-06-05 16:53:26.020219
54.06073806,0.3495149612,0.002354383469,-0.4339885712,2024-06-05 16:53:26.060738
54.10119936,0.1045325994,-0.09937214851,-0.4950866699,2024-06-05 16:53:26.101199
54.14167983,-0.6764996648,-0.3997514248,1.211157799,2024-06-05 16:53:26.141680
54.18217436,-0.1321316361,0.1364605427,-0.009259223938,2024-06-05 16:53:26.182174
54.22264535,-0.5206902027,-0.0731549263,-1.134804726,2024-06-05 16:53:26.222645
54.26314952,-0.2738093138,0.314054966,-0.0561466217,2024-06-05 16:53:26.263150
54.30363946,-0.3706071377,0.01213216782,0.6202325821,2024-06-05 16:53:26.303639
54.34413582,-0.1052258015,0.1454155445,-0.0563325882,2024-06-05 16:53:26.344136
54.38463514,0.1783527136,0.6426694393,0.3299045563,2024-06-05 16:53:26.384635
54.42512806,0.4184036255,0.3273236752,1.805767059,2024-06-05 16:53:26.425128
54.46558681,-0.3316017389,0.1988005638,-0.5092096329,2024-06-05 16:53:26.465587
54.50606108,0.1562299728,0.1309406757,0.3513793945,2024-06-05 16:53:26.506061
54.5465853,0.3401134014,0.1020212173,1.016791344,2024-06-05 16:53:26.546585
54.58705748,0.1864171624,-0.1701133251,-0.4240131378,2024-06-05 16:53:26.587057
54.62754738,0.5865350962,-0.2339551449,0.2335653305,2024-06-05 16:53:26.627547
54.66806748,1.10606873,0.3414516449,-0.570898056,2024-06-05 16:53:26.668067
54.70854879,0.7265375853,0.538918972,-0.6032218933,2024-06-05 16:53:26.708549
54.74901472,0.8187826872,0.4439692497,0.3940734863,2024-06-05 16:53:26.749015
54.7895128,-0.006827235222,0.8355193138,-1.206011772,2024-06-05 16:53:26.789513
54.83003191,0.5970389247,0.2087869644,-0.5682535172,2024-06-05 16:53:26.830032
54.87048405,-0.64775455,-0.1381387711,-0.2045793533,2024-06-05 16:53:26.870484
54.9110016,-1.355489731,-0.9847948551,0.2147159576,2024-06-05 16:53:26.911002
54.95149144,-1.094427466,-0.06766700745,0.3909101486,2024-06-05 16:53:26.951491
54.99198962,-0.8523212075,0.3391046524,-0.9532079697,2024-06-05 16:53:26.991990
55.03244274,-2.831341505,0.09475564957,-1.359117031,2024-06-05 16:53:27.032443
55.07297717,-1.470695972,-0.5975384712,-0.3841876984,2024-06-05 16:53:27.072977
55.11346774,1.056197524,-0.2217335701,2.24311924,2024-06-05 16:53:27.113468
55.1539705,0.7195106745,0.3266327381,1.631128311,2024-06-05 16:53:27.153970
55.19436868,-0.3130759001,-0.04563450813,-0.1692476273,2024-06-05 16:53:27.194369
55.23485915,0.1525902748,0.2394411564,-1.311165333,2024-06-05 16:53:27.234859
55.27534972,0.2254074812,0.3938715458,-0.707742691,2024-06-05 16:53:27.275350
55.31588259,-0.4497165084,-0.05046248436,-0.07800197601,2024-06-05 16:53:27.315883
55.35637139,-0.111153543,0.1434977055,0.6270589828,2024-06-05 16:53:27.356371
55.39689905,-0.1542502642,0.1218371391,0.6811590195,2024-06-05 16:53:27.396899
55.43731613,-0.07092446089,0.1062655449,0.3712463379,2024-06-05 16:53:27.437316
55.47785946,-0.09883409739,0.1687517166,-0.2549467087,2024-06-05 16:53:27.477859
55.51832863,0.4381991625,0.2836954594,0.2791385651,2024-06-05 16:53:27.518329
55.55883082,0.1502405405,0.1071560383,0.1178321838,2024-06-05 16:53:27.558831
55.59931446,0.05435407162,0.2202758789,-0.480755806,2024-06-05 16:53:27.599314
55.63978868,0.6789965034,0.4449603558,-0.6391544342,2024-06-05 16:53:27.639789
55.68028165,0.4767044783,0.1869924068,-0.6526155472,2024-06-05 16:53:27.680282
55.72078493,0.3518022895,0.2177023888,-0.2072782516,2024-06-05 16:53:27.720785
55.76127623,-0.4566684961,-0.2613091469,0.3241100311,2024-06-05 16:53:27.761276
55.80174233,-0.2238066792,0.03895425797,0.07742404938,2024-06-05 16:53:27.801742
55.84223425,0.1641120315,0.2352843285,0.1547021866,2024-06-05 16:53:27.842234
55.88277212,-0.6729784012,-0.2653837204,0.1877508163,2024-06-05 16:53:27.882772
55.92323103,-0.05755937099,0.1824734211,-0.3783864975,2024-06-05 16:53:27.923231
55.96370821,0.8861495256,0.5198862553,0.3861684799,2024-06-05 16:53:27.963708
56.00420274,-0.6024367213,-0.1846396923,0.334069252,2024-06-05 16:53:28.004203
56.0447028,-0.6295208931,-0.2765738964,0.03773212433,2024-06-05 16:53:28.044703
56.08521337,1.11600852,0.8127093315,-0.5832328796,2024-06-05 16:53:28.085213
56.12570363,0.2226544619,0.4053468704,-0.9977817535,2024-06-05 16:53:28.125704
56.16618431,-0.971924305,-0.517033577,0.1230611801,2024-06-05 16:53:28.166184
56.20666962,1.244396448,0.7150762081,1.269932747,2024-06-05 16:53:28.206670
56.24716816,-1.240828037,-0.404589653,-0.2378568649,2024-06-05 16:53:28.247168
56.28765967,-0.2621176243,0.04181241989,-0.4376630783,2024-06-05 16:53:28.287660
56.32814295,-0.3544131517,0.1707799435,-1.38137722,2024-06-05 16:53:28.328143
56.36863483,0.4896734953,-0.475871563,0.7930679321,2024-06-05 16:53:28.368635
56.409093,1.652187586,-1.103235245,1.582414627,2024-06-05 16:53:28.409093
56.44956681,1.698903084,-0.600826025,-0.1302804947,2024-06-05 16:53:28.449567
56.49007306,-0.1550845206,0.2270817757,-1.278351784,2024-06-05 16:53:28.490073
56.53058399,-0.8506729007,1.106822729,0.1344766617,2024-06-05 16:53:28.530584
56.57104576,-1.020765901,1.138841867,0.2589473724,2024-06-05 16:53:28.571046
56.61154321,-0.436578244,0.06153964996,-0.739780426,2024-06-05 16:53:28.611543
56.6520191,0.04713198543,0.2208416462,0.7304887772,2024-06-05 16:53:28.652019
56.69249436,-0.09840238094,0.4046022892,0.3748283386,2024-06-05 16:53:28.692494
56.73300207,0.2220685184,-0.07303333282,0.7038059235,2024-06-05 16:53:28.733002
56.77353509,0.4228550494,-0.04554390907,1.431539536,2024-06-05 16:53:28.773535
56.8140253,-0.07089030743,-0.2213203907,-0.2556667328,2024-06-05 16:53:28.814025
56.85447884,0.3668049574,-0.341075182,-0.4540815353,2024-06-05 16:53:28.854479
57.06955723,0.0,0.0,0.0,2024-06-05 16:53:29.069557
57.12486728,0.8133633137,1.32487154,-2.276528835,2024-06-05 16:53:29.124867
57.16535682,0.03278398514,0.8032627106,-1.57998991,2024-06-05 16:53:29.165357
57.20587968,0.6347987652,1.003076553,-0.8213357925,2024-06-05 16:53:29.205880
57.2463138,-0.01712155342,1.237872601,-2.047211647,2024-06-05 16:53:29.246314
57.28683437,-1.919326425,-0.1451716423,0.07616424561,2024-06-05 16:53:29.286834
57.32732135,-2.010902882,0.2861866951,1.354579926,2024-06-05 16:53:29.327321
57.36780801,1.001950741,0.2604563236,0.7236013412,2024-06-05 16:53:29.367808
57.40827968,-0.004847094417,1.296872139,0.2430381775,2024-06-05 16:53:29.408280
57.44879077,0.4390758276,-2.66312933,4.383997917,2024-06-05 16:53:29.448791
57.48930083,3.969764233,-2.057829618,4.310362816,2024-06-05 16:53:29.489301
57.52977228,3.728266239,-3.330201149,4.232521057,2024-06-05 16:53:29.529772
57.57025088,-2.504233122,-2.485922337,-7.661857128,2024-06-05 16:53:29.570251
57.61074182,0.03455758095,-0.9262795448,-2.363436699,2024-06-05 16:53:29.610742
57.65123161,-2.058098555,-2.010760784,-1.180100441,2024-06-05 16:53:29.651232
57.69174671,-2.712007523,-1.856020212,-2.320066929,2024-06-05 16:53:29.691747
57.732209,-0.5489113331,-1.655329466,-0.452791214,2024-06-05 16:53:29.732209
57.77267072,-0.3716540337,-1.626764059,-0.4300355911,2024-06-05 16:53:29.772671
57.81318697,-0.5718618631,-0.392329216,-1.674258232,2024-06-05 16:53:29.813187
57.85365416,-0.5333943367,-0.08059740067,-1.01644516,2024-06-05 16:53:29.853654
57.89418067,-0.9928221107,0.2832856178,-1.715891838,2024-06-05 16:53:29.894181
57.93465885,0.1639744043,0.4969520569,-0.3068370819,2024-06-05 16:53:29.934659
57.97515442,-0.5271199942,0.1653037071,-0.4857645035,2024-06-05 16:53:29.975154
58.01560728,-0.4516090155,0.2273845673,-0.5115356445,2024-06-05 16:53:30.015607
58.05609468,-0.3316825628,-0.2997894287,1.549034119,2024-06-05 16:53:30.056095
58.09661046,0.3864023685,0.7164645195,1.637939453,2024-06-05 16:53:30.096610
58.13710004,0.2548179626,0.4796643257,1.716789246,2024-06-05 16:53:30.137100
58.17761989,0.4340200424,0.05429124832,-0.481341362,2024-06-05 16:53:30.177620
58.21808025,0.3978223801,-1.754045963,2.692955017,2024-06-05 16:53:30.218080
58.25857062,-0.5433844328,-2.116224289,2.329547882,2024-06-05 16:53:30.258571
58.29905676,-1.124514818,-1.637931347,-1.124788761,2024-06-05 16:53:30.299057
58.33954562,-0.8443130255,-0.8572378159,-1.326199532,2024-06-05 16:53:30.339546
58.38005301,0.696764946,-0.07811784744,-0.9956927299,2024-06-05 16:53:30.380053
58.4205276,-0.3925179243,-0.8393394947,0.1121711731,2024-06-05 16:53:30.420528
58.46100182,-0.5541973114,-0.7270922661,-0.3294229507,2024-06-05 16:53:30.461002
58.5015052,-0.0791387558,-0.01447582245,-1.70729208,2024-06-05 16:53:30.501505
58.54199812,0.03990530968,-0.1056303978,-1.051656723,2024-06-05 16:53:30.541998
58.58248223,-0.293204546,-0.1115412712,-0.7597098351,2024-06-05 16:53:30.582482
58.62297541,-0.2144823074,-0.1187462807,-0.7484192848,2024-06-05 16:53:30.622975
58.66347421,0.01655733585,1.0057621,-0.4712028503,2024-06-05 16:53:30.663474
58.70395228,-0.04102480412,0.09564638138,0.3879299164,2024-06-05 16:53:30.703952
58.74445124,-0.6498292089,-0.4000587463,2.532805443,2024-06-05 16:53:30.744451
58.78492411,-0.3154233098,1.276072502,0.4567451477,2024-06-05 16:53:30.784924
58.82539984,-0.2593129277,0.4625015259,0.08346557617,2024-06-05 16:53:30.825400
58.86592036,-0.2801678777,-1.276134014,1.031043053,2024-06-05 16:53:30.865920
58.90640088,-1.210894942,-1.500002384,0.5766239166,2024-06-05 16:53:30.906401
58.94687937,-1.738585711,-0.859562397,-0.4431085587,2024-06-05 16:53:30.946879
58.98738077,-2.472986698,-0.6484179497,-1.048009396,2024-06-05 16:53:30.987381
59.02783942,-0.2610616088,-0.1642274857,-1.495639324,2024-06-05 16:53:31.027839
59.06834853,0.6992169619,-0.5879778862,-0.3111057281,2024-06-05 16:53:31.068349
59.1088377,-1.304339767,-1.053395748,-0.3089122772,2024-06-05 16:53:31.108838
59.14938687,-0.9886107445,-0.05525755882,-1.04461956,2024-06-05 16:53:31.149387
59.1898163,-0.0918828845,0.3778409958,-1.065423965,2024-06-05 16:53:31.189816
59.23027541,-0.03300118446,0.5816323757,-1.127355576,2024-06-05 16:53:31.230275
59.2707915,0.2231321931,0.6435165405,0.4392080307,2024-06-05 16:53:31.270792
59.31129103,0.532877028,0.6507327557,0.3768444061,2024-06-05 16:53:31.311291
59.35180916,-0.4340800345,-0.009867191315,0.6880273819,2024-06-05 16:53:31.351809
59.39227322,0.008958995342,1.277576923,1.203629494,2024-06-05 16:53:31.392273
59.43274822,0.4371891022,1.607346535,-1.563267231,2024-06-05 16:53:31.432748
59.47323614,0.7167971134,-1.022890568,2.424937248,2024-06-05 16:53:31.473236
59.51369994,0.9601941109,-1.817468405,3.380403519,2024-06-05 16:53:31.513700
59.55421317,0.02447962761,-1.496596575,0.1636037827,2024-06-05 16:53:31.554213
59.59469978,-0.05424726009,-1.667189598,0.2523078918,2024-06-05 16:53:31.594700
59.63520307,0.4516119957,-0.463603735,-0.4617624283,2024-06-05 16:53:31.635203
59.67568025,1.145714641,-0.3720543385,1.013780594,2024-06-05 16:53:31.675680
59.71617228,-0.4194658995,-0.6671276093,-0.4085235596,2024-06-05 16:53:31.716172
59.75665676,-0.6099821925,-0.2705729008,-1.91265583,2024-06-05 16:53:31.756657
59.79714213,0.0881319046,0.3443567753,-2.030450344,2024-06-05 16:53:31.797142
59.83762119,0.1255340576,0.3083717823,-1.992445469,2024-06-05 16:53:31.837621
59.87812249,-0.1798703074,0.4215409756,-1.213276386,2024-06-05 16:53:31.878122
59.91861218,-0.03176826239,0.925450325,-0.2396316528,2024-06-05 16:53:31.918612
59.9591163,-0.1325660944,0.7581298351,0.364443779,2024-06-05 16:53:31.959116
59.99962515,-1.024591565,0.4476494789,2.264112473,2024-06-05 16:53:31.999625
60.04006869,-1.065378785,1.021755695,-0.5914115906,2024-06-05 16:53:32.040069
60.08056406,-1.101095676,1.084379196,-0.6140356064,2024-06-05 16:53:32.080564
60.12105671,-0.7270741463,-1.656314373,1.442996979,2024-06-05 16:53:32.121057
60.16154801,-1.53683424,-1.126718521,0.9552526474,2024-06-05 16:53:32.161548
60.20201676,-1.5555861,-1.238232613,1.008253098,2024-06-05 16:53:32.202017
60.2425239,-1.531716585,-0.8243570328,-0.07069683075,2024-06-05 16:53:32.242524
60.28303718,-0.1068196893,-1.149849176,1.098105431,2024-06-05 16:53:32.283037
60.32349916,0.3041725159,-0.6457021236,-1.091112614,2024-06-05 16:53:32.323499
60.3639903,-1.301486969,-1.297765255,-0.2591266632,2024-06-05 16:53:32.363990
60.40447911,0.1249548197,0.770898819,-1.096634388,2024-06-05 16:53:32.404479
60.44496859,0.7529809475,-0.02306652069,-0.4031143188,2024-06-05 16:53:32.444969
60.48545333,-1.417863369,-0.2090058327,-2.493145466,2024-06-05 16:53:32.485453
