Time (s),Acceleration x (m/s^2),Acceleration y (m/s^2),Acceleration z (m/s^2),Datetime
0.000465157,-2.072184324,7.591229916,5.703591824,2024-06-05 16:40:25.000465
0.020731511,-3.33439827,7.035496712,5.78285408,2024-06-05 16:40:25.020732
0.060731511,-2.97039032,7.037889481,7.517052174,2024-06-05 16:40:25.060732
0.100731511,-0.8216354847,6.290730953,9.594022751,2024-06-05 16:40:25.100732
0.140731511,-2.594418049,5.107180595,5.538486958,2024-06-05 16:40:25.140732
0.180731511,-2.594418049,5.107180595,5.538486958,2024-06-05 16:40:25.180732
0.220731511,-2.594418049,5.107180595,5.538486958,2024-06-05 16:40:25.220732
0.260731511,-2.594418049,5.107180595,5.538486958,2024-06-05 16:40:25.260732
0.300731511,-2.594418049,5.107180595,5.538486958,2024-06-05 16:40:25.300732
0.340731511,-2.594418049,5.107180595,5.538486958,2024-06-05 16:40:25.340732
0.380731511,-2.594418049,5.107180595,5.538486958,2024-06-05 16:40:25.380732
0.420731511,-2.594418049,5.107180595,5.538486958,2024-06-05 16:40:25.420732
0.460731511,-2.594418049,5.107180595,5.538486958,2024-06-05 16:40:25.460732
0.500731511,-2.594418049,5.107180595,5.538486958,2024-06-05 16:40:25.500732
0.540731511,-2.594418049,5.107180595,5.538486958,2024-06-05 16:40:25.540732
0.580731511,-2.594418049,5.107180595,5.538486958,2024-06-05 16:40:25.580732
0.620731511,-2.594418049,5.107180595,5.538486958,2024-06-05 16:40:25.620732
0.660731511,-2.594418049,5.107180595,5.538486958,2024-06-05 16:40:25.660732
0.700731511,-2.594418049,5.107180595,5.538486958,2024-06-05 16:40:25.700732
0.740731511,-2.594418049,5.107180595,5.538486958,2024-06-05 16:40:25.740732
0.780731511,-2.594418049,5.107180595,5.538486958,2024-06-05 16:40:25.780732
0.820731511,-2.594418049,5.107180595,5.538486958,2024-06-05 16:40:25.820732
0.860731511,-2.594418049,5.107180595,5.538486958,2024-06-05 16:40:25.860732
0.900731511,-2.594418049,5.107180595,5.538486958,2024-06-05 16:40:25.900732
0.940731511,-2.594418049,5.107180595,5.538486958,2024-06-05 16:40:25.940732
0.980731511,-2.594418049,5.107180595,5.538486958,2024-06-05 16:40:25.980732
1.020731511,-2.594418049,5.107180595,5.538486958,2024-06-05 16:40:26.020732
1.060731511,-2.594418049,5.107180595,5.538486958,2024-06-05 16:40:26.060732
1.100731511,-2.594418049,5.107180595,5.538486958,2024-06-05 16:40:26.100732
1.140731511,-2.594418049,5.107180595,5.538486958,2024-06-05 16:40:26.140732
1.180731511,-2.594418049,5.107180595,5.538486958,2024-06-05 16:40:26.180732
1.220731511,-2.594418049,5.107180595,5.538486958,2024-06-05 16:40:26.220732
1.260731511,4.197010994,2.892623425,7.421339512,2024-06-05 16:40:26.260732
1.300731511,0.8718847632,2.11046958,10.0899353,2024-06-05 16:40:26.300732
1.340731511,4.038785458,4.551447868,8.589036942,2024-06-05 16:40:26.340732
1.380731511,4.835296154,3.765704632,10.8744812,2024-06-05 16:40:26.380732
1.420731511,3.067299604,2.011167526,12.8255291,2024-06-05 16:40:26.420732
1.460731511,4.389633179,2.76311183,9.609575272,2024-06-05 16:40:26.460732
1.500731511,5.776872158,4.00887537,7.037889481,2024-06-05 16:40:26.500732
1.540731511,3.345465183,2.936890602,8.305188179,2024-06-05 16:40:26.540732
1.580731511,0.4504488707,4.340580463,6.099005699,2024-06-05 16:40:26.580732
1.620731511,1.431207061,5.571986675,5.266602516,2024-06-05 16:40:26.620732
1.660731511,1.243370414,5.842674732,4.201796532,2024-06-05 16:40:26.660732
1.700731511,0.643071115,6.817451,4.973182678,2024-06-05 16:40:26.700732
1.740731511,0.537786901,6.100202084,7.17457962,2024-06-05 16:40:26.740732
1.780731511,-0.2515454888,6.223432541,8.318348885,2024-06-05 16:40:26.780732
1.820731511,-0.2515454888,6.223432541,8.318348885,2024-06-05 16:40:26.820732
1.860731511,-0.2515454888,6.223432541,8.318348885,2024-06-05 16:40:26.860732
1.900731511,-0.4588237405,6.53958416,6.549155712,2024-06-05 16:40:26.900732
1.940731511,-0.4588237405,6.53958416,6.549155712,2024-06-05 16:40:26.940732
1.980731511,-0.4588237405,6.53958416,6.549155712,2024-06-05 16:40:26.980732
2.020731511,-0.4588237405,6.53958416,6.549155712,2024-06-05 16:40:27.020732
2.060731511,-0.4588237405,6.53958416,6.549155712,2024-06-05 16:40:27.060732
2.100731511,-0.5521438122,3.052942514,11.5079813,2024-06-05 16:40:27.100732
2.140731511,-0.3520440459,4.584947109,8.888439178,2024-06-05 16:40:27.140732
2.180731511,-1.571486235,6.042774677,7.55294466,2024-06-05 16:40:27.180732
2.220731511,-0.1773679852,5.076074123,5.395814896,2024-06-05 16:40:27.220732
2.260731511,0.513858676,4.813760757,6.274878502,2024-06-05 16:40:27.260732
2.300731511,0.6334998012,3.613760471,8.894420624,2024-06-05 16:40:27.300732
2.340731511,0.8778668046,3.603889942,8.908778191,2024-06-05 16:40:27.340732
2.380731511,2.478066921,2.875873804,10.22991467,2024-06-05 16:40:27.380732
2.420731511,2.079362869,2.196611166,11.16790104,2024-06-05 16:40:27.420732
2.460731511,1.324726462,2.382354021,11.09581757,2024-06-05 16:40:27.460732
2.500731511,1.324726462,2.382354021,11.09581757,2024-06-05 16:40:27.500732
2.540731511,1.324726462,2.382354021,11.09581757,2024-06-05 16:40:27.540732
2.580731511,1.324726462,2.382354021,11.09581757,2024-06-05 16:40:27.580732
2.620731511,1.324726462,2.382354021,11.09581757,2024-06-05 16:40:27.620732
2.660731511,1.324726462,2.382354021,11.09581757,2024-06-05 16:40:27.660732
2.700731511,1.324726462,2.382354021,11.09581757,2024-06-05 16:40:27.700732
2.740731511,1.324726462,2.382354021,11.09581757,2024-06-05 16:40:27.740732
2.780731511,1.324726462,2.382354021,11.09581757,2024-06-05 16:40:27.780732
2.820731511,-1.718644857,5.067699432,8.005785942,2024-06-05 16:40:27.820732
2.860731511,-0.8670991063,4.173082829,6.455835342,2024-06-05 16:40:27.860732
2.900731511,-1.131805062,4.522733688,5.754140377,2024-06-05 16:40:27.900732
2.940731511,-0.8276175261,4.697709084,6.104988098,2024-06-05 16:40:27.940732
2.980731511,-1.819442511,4.76949358,5.52293396,2024-06-05 16:40:27.980732
3.020731511,-1.105484009,4.802993298,6.718148708,2024-06-05 16:40:28.020732
3.060731511,-0.1773679852,4.826921463,7.034300327,2024-06-05 16:40:28.060732
3.100731511,-1.021735311,5.267798901,7.039085865,2024-06-05 16:40:28.100732
3.140731511,-3.684348583,6.326622963,10.54247761,2024-06-05 16:40:28.140732
3.180731511,-3.212364435,4.770689964,12.46271801,2024-06-05 16:40:28.180732
3.220731511,-3.212364435,4.770689964,12.46271801,2024-06-05 16:40:28.220732
3.260731511,-3.212364435,4.770689964,12.46271801,2024-06-05 16:40:28.260732
3.300731511,-3.212364435,4.770689964,12.46271801,2024-06-05 16:40:28.300732
3.340731511,-3.212364435,4.770689964,12.46271801,2024-06-05 16:40:28.340732
3.380731511,-3.212364435,4.770689964,12.46271801,2024-06-05 16:40:28.380732
3.420731511,3.55244422,1.244566917,9.035896301,2024-06-05 16:40:28.420732
3.420731511,3.55244422,1.244566917,9.035896301,2024-06-05 16:40:28.420732
3.500731511,-2.793022156,-0.5425725579,4.217350006,2024-06-05 16:40:28.500732
3.540731511,-9.964012146,-3.600300789,-0.6708876491,2024-06-05 16:40:28.540732
3.580731511,-9.964012146,-3.600300789,-0.6708876491,2024-06-05 16:40:28.580732
3.620731511,-9.964012146,-3.600300789,-0.6708876491,2024-06-05 16:40:28.620732
3.660731511,-9.964012146,-3.600300789,-0.6708876491,2024-06-05 16:40:28.660732
3.700731511,-10.41805077,-10.21316528,12.36311626,2024-06-05 16:40:28.700732
3.740731511,-8.133802414,-6.089434624,2.45533514,2024-06-05 16:40:28.740732
3.780731511,-10.60738277,-7.088139057,5.443671703,2024-06-05 16:40:28.780732
3.820731511,-10.60738277,-7.088139057,5.443671703,2024-06-05 16:40:28.820732
3.860731511,-6.249753475,-5.603093147,-0.4444667995,2024-06-05 16:40:28.860732
3.900731511,-8.938688278,-6.734898567,-0.7103692293,2024-06-05 16:40:28.900732
3.940731511,-9.069396019,-5.027021408,-2.506780863,2024-06-05 16:40:28.940732
3.980731511,-8.183154106,-3.015853882,1.680359721,2024-06-05 16:40:28.980732
4.020731511,-8.183154106,-3.015853882,1.680359721,2024-06-05 16:40:29.020732
4.060731511,-8.183154106,-3.015853882,1.680359721,2024-06-05 16:40:29.060732
4.100731511,-8.183154106,-3.015853882,1.680359721,2024-06-05 16:40:29.100732
4.140731511,-8.183154106,-3.015853882,1.680359721,2024-06-05 16:40:29.140732
4.180731511,-8.183154106,-3.015853882,1.680359721,2024-06-05 16:40:29.180732
4.220731511,-8.183154106,-3.015853882,1.680359721,2024-06-05 16:40:29.220732
4.260731511,-10.06361389,-5.359922886,2.063809633,2024-06-05 16:40:29.260732
4.300731511,-10.06361389,-5.359922886,2.063809633,2024-06-05 16:40:29.300732
4.340731511,-10.06361389,-5.359922886,2.063809633,2024-06-05 16:40:29.340732
4.380731511,-10.06361389,-5.359922886,2.063809633,2024-06-05 16:40:29.380732
4.420731511,-10.06361389,-5.359922886,2.063809633,2024-06-05 16:40:29.420732
4.460731511,-3.717848301,-9.379565239,11.02044392,2024-06-05 16:40:29.460732
4.500731511,-7.638188839,-4.76949358,3.726222992,2024-06-05 16:40:29.500732
4.540731511,-7.215257645,-5.443671703,4.150351048,2024-06-05 16:40:29.540732
4.580731511,3.116651535,-4.927420139,-3.486641645,2024-06-05 16:40:29.580732
4.620731511,-10.65523911,-10.09830952,-5.113162994,2024-06-05 16:40:29.620732
4.660731511,-10.65523911,-10.09830952,-5.113162994,2024-06-05 16:40:29.660732
4.700731511,-10.65523911,-10.09830952,-5.113162994,2024-06-05 16:40:29.700732
4.740731511,-11.55942726,-5.268995285,2.300997972,2024-06-05 16:40:29.740732
4.740731511,-11.55942726,-5.268995285,2.300997972,2024-06-05 16:40:29.740732
4.820731511,-7.983054638,-3.233899832,-1.104287624,2024-06-05 16:40:29.820732
4.860731511,-8.544769287,-4.743172646,-0.4265206456,2024-06-05 16:40:29.860732
4.900731511,-9.72323513,-5.865406513,0.1905284971,2024-06-05 16:40:29.900732
4.940731511,-11.14397335,-8.075178146,-6.756433964,2024-06-05 16:40:29.940732
4.980731511,-11.14397335,-8.075178146,-6.756433964,2024-06-05 16:40:29.980732
5.020731511,-11.14397335,-8.075178146,-6.756433964,2024-06-05 16:40:30.020732
5.060731511,-11.14397335,-8.075178146,-6.756433964,2024-06-05 16:40:30.060732
5.100731511,-11.14397335,-8.075178146,-6.756433964,2024-06-05 16:40:30.100732
5.140731511,-3.878167391,-4.286741734,0.9305089116,2024-06-05 16:40:30.140732
5.180731511,-3.878167391,-4.286741734,0.9305089116,2024-06-05 16:40:30.180732
5.220731511,-1.431207061,-1.141376376,4.630411148,2024-06-05 16:40:30.220732
5.260731511,-1.431207061,-1.141376376,4.630411148,2024-06-05 16:40:30.260732
5.300731511,-1.431207061,-1.141376376,4.630411148,2024-06-05 16:40:30.300732
5.340731511,-6.381658077,-2.957229614,2.529512644,2024-06-05 16:40:30.340732
5.380731511,-3.569194078,-6.771986961,1.353440285,2024-06-05 16:40:30.380732
5.420731511,-11.86002541,-17.46311951,5.654539108,2024-06-05 16:40:30.420732
5.460731511,-8.58784008,-15.10110378,10.31635571,2024-06-05 16:40:30.460732
5.500731511,-0.5222335458,-11.28754234,-0.4133601189,2024-06-05 16:40:30.500732
5.540731511,-0.5222335458,-11.28754234,-0.4133601189,2024-06-05 16:40:30.540732
5.580731511,-1.463510156,-5.867799282,-2.002493382,2024-06-05 16:40:30.580732
5.620731511,-1.463510156,-5.867799282,-2.002493382,2024-06-05 16:40:30.620732
5.660731511,-1.463510156,-5.867799282,-2.002493382,2024-06-05 16:40:30.660732
5.700731511,-1.463510156,-5.867799282,-2.002493382,2024-06-05 16:40:30.700732
5.740731511,-1.463510156,-5.867799282,-2.002493382,2024-06-05 16:40:30.740732
5.780731511,-9.065806389,-12.0792675,-0.88504529,2024-06-05 16:40:30.780732
5.820731511,2.167897224,-5.399404526,-6.222236156,2024-06-05 16:40:30.820732
5.860731511,8.071588516,-19.45634079,-4.211368084,2024-06-05 16:40:30.860732
5.900731511,-2.234896421,-16.6283226,-1.571486235,2024-06-05 16:40:30.900732
5.940731511,5.585147381,-7.441678524,10.99651527,2024-06-05 16:40:30.940732
5.980731511,5.585147381,-7.441678524,10.99651527,2024-06-05 16:40:30.980732
6.020731511,5.585147381,-7.441678524,10.99651527,2024-06-05 16:40:31.020732
6.060731511,5.585147381,-7.441678524,10.99651527,2024-06-05 16:40:31.060732
6.100731511,5.585147381,-7.441678524,10.99651527,2024-06-05 16:40:31.100732
6.140731511,4.871188641,-11.01924706,-0.566500783,2024-06-05 16:40:31.140732
6.180731511,6.640381813,-9.600004196,-4.335794449,2024-06-05 16:40:31.180732
6.220731511,7.997411251,-8.400900841,-3.800400496,2024-06-05 16:40:31.220732
6.260731511,4.409972191,-9.907781601,2.976372242,2024-06-05 16:40:31.260732
6.300731511,4.409972191,-9.907781601,2.976372242,2024-06-05 16:40:31.300732
6.340731511,4.409972191,-9.907781601,2.976372242,2024-06-05 16:40:31.340732
6.380731511,4.671088696,-4.185046673,-1.581057549,2024-06-05 16:40:31.380732
6.420731511,4.777868748,-3.753740549,-0.3783650696,2024-06-05 16:40:31.420732
6.460731511,4.429413795,-5.424529076,2.408675194,2024-06-05 16:40:31.460732
6.500731511,4.429413795,-5.424529076,2.408675194,2024-06-05 16:40:31.500732
6.540731511,-3.146561861,-16.60798454,12.53928757,2024-06-05 16:40:31.540732
6.580731511,0.1929213256,-9.101698875,4.250849247,2024-06-05 16:40:31.580732
6.620731511,0.1929213256,-9.101698875,4.250849247,2024-06-05 16:40:31.620732
6.660731511,0.1929213256,-9.101698875,4.250849247,2024-06-05 16:40:31.660732
6.700731511,0.1929213256,-9.101698875,4.250849247,2024-06-05 16:40:31.700732
6.740731511,0.1929213256,-9.101698875,4.250849247,2024-06-05 16:40:31.740732
6.780731511,0.1929213256,-9.101698875,4.250849247,2024-06-05 16:40:31.780732
6.820731511,0.1929213256,-9.101698875,4.250849247,2024-06-05 16:40:31.820732
6.860731511,0.1929213256,-9.101698875,4.250849247,2024-06-05 16:40:31.860732
6.900731511,5.337191105,-8.638090134,2.82682085,2024-06-05 16:40:31.900732
6.940731511,6.219843388,-8.232207298,-0.4205385745,2024-06-05 16:40:31.940732
6.980731511,6.219843388,-8.232207298,-0.4205385745,2024-06-05 16:40:31.980732
7.020731511,2.443371058,-9.904191971,0.01555334684,2024-06-05 16:40:32.020732
7.060731511,1.70548439,-10.34985542,2.626721144,2024-06-05 16:40:32.060732
7.100731511,0.8264211416,-10.51854897,1.661217093,2024-06-05 16:40:32.100732
7.140731511,-0.4600201547,-11.93928814,-1.294816136,2024-06-05 16:40:32.140732
7.180731511,2.427817583,-15.10588932,3.843471289,2024-06-05 16:40:32.180732
7.220731511,2.86032033,-12.09960651,5.543272972,2024-06-05 16:40:32.220732
7.260731511,2.86032033,-12.09960651,5.543272972,2024-06-05 16:40:32.260732
7.300731511,2.86032033,-12.09960651,5.543272972,2024-06-05 16:40:32.300732
7.340731511,2.86032033,-12.09960651,5.543272972,2024-06-05 16:40:32.340732
7.380731511,2.86032033,-12.09960651,5.543272972,2024-06-05 16:40:32.380732
7.420731511,2.86032033,-12.09960651,5.543272972,2024-06-05 16:40:32.420732
7.460731511,1.676770449,-5.098805904,-1.698305845,2024-06-05 16:40:32.460732
7.500731511,3.432803154,-3.444767237,-2.090130568,2024-06-05 16:40:32.500732
7.540731511,3.996911049,-2.926122904,-0.03110669367,2024-06-05 16:40:32.540732
7.580731511,3.974179268,-6.682256222,2.484049082,2024-06-05 16:40:32.580732
7.620731511,1.945065737,-15.78874111,12.98136234,2024-06-05 16:40:32.620732
7.660731511,1.945065737,-15.78874111,12.98136234,2024-06-05 16:40:32.660732
7.700731511,1.945065737,-15.78874111,12.98136234,2024-06-05 16:40:32.700732
7.740731511,1.945065737,-15.78874111,12.98136234,2024-06-05 16:40:32.740732
7.780731511,1.945065737,-15.78874111,12.98136234,2024-06-05 16:40:32.780732
7.820731511,6.21505785,-2.971586704,-7.961519241,2024-06-05 16:40:32.820732
7.860731511,6.76361227,-6.721737862,0.4887340367,2024-06-05 16:40:32.860732
7.900731511,4.163511276,-14.35753441,-5.39701128,2024-06-05 16:40:32.900732
7.940731511,-2.863909483,-11.55942726,6.127719879,2024-06-05 16:40:32.940732
7.980731511,-2.863909483,-11.55942726,6.127719879,2024-06-05 16:40:32.980732
8.020731511,-2.863909483,-11.55942726,6.127719879,2024-06-05 16:40:33.020732
8.060731511,-2.863909483,-11.55942726,6.127719879,2024-06-05 16:40:33.060732
8.100731511,1.849352837,-9.611968994,-2.611167669,2024-06-05 16:40:33.100732
8.140731511,3.426821232,-9.961619377,3.554837227,2024-06-05 16:40:33.140732
8.180731511,0.590429008,-11.70808125,0.3831507266,2024-06-05 16:40:33.180732
8.220731511,-2.541476727,-12.37149143,-0.02991028316,2024-06-05 16:40:33.220732
8.260731511,4.025625229,-13.11536026,3.310470104,2024-06-05 16:40:33.260732
8.300731511,4.025625229,-13.11536026,3.310470104,2024-06-05 16:40:33.300732
8.340731511,4.025625229,-13.11536026,3.310470104,2024-06-05 16:40:33.340732
8.380731511,4.025625229,-13.11536026,3.310470104,2024-06-05 16:40:33.380732
8.420731511,4.025625229,-13.11536026,3.310470104,2024-06-05 16:40:33.420732
8.460731511,4.025625229,-13.11536026,3.310470104,2024-06-05 16:40:33.460732
8.500731511,4.025625229,-13.11536026,3.310470104,2024-06-05 16:40:33.500732
8.540731511,4.025625229,-13.11536026,3.310470104,2024-06-05 16:40:33.540732
8.580731511,3.886841297,-3.291327477,-2.379961252,2024-06-05 16:40:33.580732
8.620731511,4.770689964,-1.663609982,-2.043470621,2024-06-05 16:40:33.620732
8.660731511,4.158725739,-5.021039009,1.808674812,2024-06-05 16:40:33.660732
8.700731511,4.158725739,-5.021039009,1.808674812,2024-06-05 16:40:33.700732
8.740731511,-1.30438745,-18.94965935,14.89053535,2024-06-05 16:40:33.740732
8.780731511,1.687538147,-3.217149973,3.172882795,2024-06-05 16:40:33.780732
8.820731511,9.863513947,-20.33300972,-2.176272154,2024-06-05 16:40:33.820732
8.860731511,9.863513947,-20.33300972,-2.176272154,2024-06-05 16:40:33.860732
8.900731511,9.863513947,-20.33300972,-2.176272154,2024-06-05 16:40:33.900732
8.940731511,9.863513947,-20.33300972,-2.176272154,2024-06-05 16:40:33.940732
8.980731511,9.863513947,-20.33300972,-2.176272154,2024-06-05 16:40:33.980732
9.020731511,-2.507977247,-10.79521942,8.020143509,2024-06-05 16:40:34.020732
9.060731511,2.4158535,-9.101698875,-3.799204111,2024-06-05 16:40:34.060732
9.100731511,2.4158535,-9.101698875,-3.799204111,2024-06-05 16:40:34.100732
9.100731511,5.842674732,-8.201100349,2.027917147,2024-06-05 16:40:34.100732
9.180731511,5.842674732,-8.201100349,2.027917147,2024-06-05 16:40:34.180732
9.220731511,5.842674732,-8.201100349,2.027917147,2024-06-05 16:40:34.220732
9.260731511,5.842674732,-8.201100349,2.027917147,2024-06-05 16:40:34.260732
9.300731511,5.842674732,-8.201100349,2.027917147,2024-06-05 16:40:34.300732
9.340731511,3.36700058,-12.39183044,5.635396481,2024-06-05 16:40:34.340732
9.380731511,3.36700058,-12.39183044,5.635396481,2024-06-05 16:40:34.380732
9.420731511,2.545365095,-13.45783234,-3.294916868,2024-06-05 16:40:34.420732
9.460731511,12.94876003,-14.77179146,-3.567997694,2024-06-05 16:40:34.460732
9.500731511,8.129016876,-12.49143124,-2.111665964,2024-06-05 16:40:34.500732
9.540731511,3.829114437,-8.998807907,1.445564032,2024-06-05 16:40:34.540732
9.580731511,-2.679363251,-9.678967476,-0.8694919348,2024-06-05 16:40:34.580732
9.620731511,1.765604019,-6.685845375,-0.7917252183,2024-06-05 16:40:34.620732
9.660731511,3.763311863,-4.16710043,-3.064906597,2024-06-05 16:40:34.660732
9.700731511,5.315655708,-1.184447169,-2.418246269,2024-06-05 16:40:34.700732
9.740731511,4.604089737,-4.016053677,1.374975681,2024-06-05 16:40:34.740732
9.780731511,4.604089737,-4.016053677,1.374975681,2024-06-05 16:40:34.780732
9.820731511,4.604089737,-4.016053677,1.374975681,2024-06-05 16:40:34.820732
9.860731511,4.604089737,-4.016053677,1.374975681,2024-06-05 16:40:34.860732
9.900731511,9.633503914,-18.73161316,-0.1654038578,2024-06-05 16:40:34.900732
9.940731511,5.455635548,-10.29930687,-1.144965649,2024-06-05 16:40:34.940732
9.980731511,5.455635548,-10.29930687,-1.144965649,2024-06-05 16:40:34.980732
10.02073151,5.455635548,-10.29930687,-1.144965649,2024-06-05 16:40:35.020732
10.06073151,5.455635548,-10.29930687,-1.144965649,2024-06-05 16:40:35.060732
10.10073151,5.455635548,-10.29930687,-1.144965649,2024-06-05 16:40:35.100732
10.14073151,2.221735716,-8.639286041,-2.491227388,2024-06-05 16:40:35.140732
10.14073151,2.221735716,-8.639286041,-2.491227388,2024-06-05 16:40:35.140732
10.22073151,3.567997694,-8.005785942,1.231406331,2024-06-05 16:40:35.220732
10.26073151,4.307080746,-8.365009308,-2.661417007,2024-06-05 16:40:35.260732
10.30073151,4.307080746,-8.365009308,-2.661417007,2024-06-05 16:40:35.300732
10.34073151,1.727019787,-10.48744297,0.3484548032,2024-06-05 16:40:35.340732
10.38073151,-0.8455637097,-11.21695423,-0.590429008,2024-06-05 16:40:35.380732
10.42073151,3.096312523,-10.90319538,2.420639277,2024-06-05 16:40:35.420732
10.46073151,2.651845694,-13.12134171,2.60279274,2024-06-05 16:40:35.460732
10.50073151,0.4719842672,-12.78963661,2.816053152,2024-06-05 16:40:35.500732
10.54073151,0.1184447184,-12.96072388,-2.595614433,2024-06-05 16:40:35.540732
10.58073151,0.1184447184,-12.96072388,-2.595614433,2024-06-05 16:40:35.580732
10.62073151,0.1184447184,-12.96072388,-2.595614433,2024-06-05 16:40:35.620732
10.66073151,0.1184447184,-12.96072388,-2.595614433,2024-06-05 16:40:35.660732
10.70073151,0.1184447184,-12.96072388,-2.595614433,2024-06-05 16:40:35.700732
10.74073151,1.673181176,-4.660321236,-1.186840057,2024-06-05 16:40:35.740732
10.78073151,3.563211918,-2.044667006,-2.568096876,2024-06-05 16:40:35.780732
10.82073151,4.290330887,-2.225325108,0.2862414122,2024-06-05 16:40:35.820732
10.86073151,3.995714664,-9.061020851,4.599304199,2024-06-05 16:40:35.860732
10.90073151,-0.8443672657,-16.48116493,11.72483063,2024-06-05 16:40:35.900732
10.94073151,-0.8443672657,-16.48116493,11.72483063,2024-06-05 16:40:35.940732
10.98073151,-0.8443672657,-16.48116493,11.72483063,2024-06-05 16:40:35.980732
11.02073151,-0.8443672657,-16.48116493,11.72483063,2024-06-05 16:40:36.020732
11.06073151,5.383851051,-11.00728321,-1.303191066,2024-06-05 16:40:36.060732
11.10073151,5.383851051,-11.00728321,-1.303191066,2024-06-05 16:40:36.100732
11.14073151,3.956233025,-5.991029739,-4.277170658,2024-06-05 16:40:36.140732
11.18073151,0.01555334684,-15.51087475,0.9281160831,2024-06-05 16:40:36.180732
11.22073151,0.01555334684,-15.51087475,0.9281160831,2024-06-05 16:40:36.220732
11.26073151,0.01555334684,-15.51087475,0.9281160831,2024-06-05 16:40:36.260732
11.30073151,0.01555334684,-15.51087475,0.9281160831,2024-06-05 16:40:36.300732
11.34073151,0.01555334684,-15.51087475,0.9281160831,2024-06-05 16:40:36.340732
11.38073151,0.01555334684,-15.51087475,0.9281160831,2024-06-05 16:40:36.380732
11.42073151,2.697309256,-9.701699257,0.1220339537,2024-06-05 16:40:36.420732
11.46073151,2.697309256,-9.701699257,0.1220339537,2024-06-05 16:40:36.460732
11.50073151,2.697309256,-9.701699257,0.1220339537,2024-06-05 16:40:36.500732
11.54073151,3.217149973,-9.85992527,0.5054838061,2024-06-05 16:40:36.540732
11.58073151,3.217149973,-9.85992527,0.5054838061,2024-06-05 16:40:36.580732
11.62073151,3.217149973,-9.85992527,0.5054838061,2024-06-05 16:40:36.620732
11.66073151,3.217149973,-9.85992527,0.5054838061,2024-06-05 16:40:36.660732
11.70073151,3.217149973,-9.85992527,0.5054838061,2024-06-05 16:40:36.700732
11.74073151,3.217149973,-9.85992527,0.5054838061,2024-06-05 16:40:36.740732
11.78073151,-0.5198407173,-10.45633602,-2.216950178,2024-06-05 16:40:36.780732
11.82073151,-0.5198407173,-10.45633602,-2.216950178,2024-06-05 16:40:36.820732
11.86073151,5.015057087,-8.393722534,-0.1546361595,2024-06-05 16:40:36.860732
11.90073151,3.731008768,-7.669295788,0.561715126,2024-06-05 16:40:36.900732
11.94073151,2.903391123,-7.575676441,0.03110669367,2024-06-05 16:40:36.940732
11.98073151,2.754737139,-6.836892605,-2.588435888,2024-06-05 16:40:36.980732
12.02073151,2.754737139,-6.836892605,-2.588435888,2024-06-05 16:40:37.020732
12.06073151,2.754737139,-6.836892605,-2.588435888,2024-06-05 16:40:37.060732
12.10073151,7.049853802,-6.333801746,0.2144567221,2024-06-05 16:40:37.100732
12.14073151,4.320241451,-7.078567505,-2.472084999,2024-06-05 16:40:37.140732
12.18073151,1.357029557,-8.734101295,-3.278167009,2024-06-05 16:40:37.180732
12.22073151,2.607578516,-10.10429192,3.842274904,2024-06-05 16:40:37.220732
12.26073151,4.987539768,-8.789136887,-0.04426721856,2024-06-05 16:40:37.260732
12.30073151,3.601497173,-8.898010254,-2.10209465,2024-06-05 16:40:37.300732
12.34073151,3.601497173,-8.898010254,-2.10209465,2024-06-05 16:40:37.340732
12.38073151,3.601497173,-8.898010254,-2.10209465,2024-06-05 16:40:37.380732
12.42073151,3.601497173,-8.898010254,-2.10209465,2024-06-05 16:40:37.420732
12.46073151,3.601497173,-8.898010254,-2.10209465,2024-06-05 16:40:37.460732
12.50073151,3.601497173,-8.898010254,-2.10209465,2024-06-05 16:40:37.500732
12.54073151,3.601497173,-8.898010254,-2.10209465,2024-06-05 16:40:37.540732
12.58073151,3.601497173,-8.898010254,-2.10209465,2024-06-05 16:40:37.580732
12.62073151,3.805186272,-9.172286987,0.4671986103,2024-06-05 16:40:37.620732
12.66073151,3.805186272,-9.172286987,0.4671986103,2024-06-05 16:40:37.660732
12.70073151,5.03300333,-9.393922806,2.375175476,2024-06-05 16:40:37.700732
12.74073151,4.883152962,-10.50538826,4.335794449,2024-06-05 16:40:37.740732
12.78073151,4.883152962,-10.50538826,4.335794449,2024-06-05 16:40:37.780732
12.82073151,2.875873804,-9.766305923,2.142772675,2024-06-05 16:40:37.820732
12.86073151,7.200900555,-9.153144836,0.6071787477,2024-06-05 16:40:37.860732
12.90073151,7.200900555,-9.153144836,0.6071787477,2024-06-05 16:40:37.900732
12.94073151,7.200900555,-9.153144836,0.6071787477,2024-06-05 16:40:37.940732
12.98073151,7.200900555,-9.153144836,0.6071787477,2024-06-05 16:40:37.980732
13.02073151,7.200900555,-9.153144836,0.6071787477,2024-06-05 16:40:38.020732
13.06073151,2.291426897,-7.800900936,2.837588549,2024-06-05 16:40:38.060732
13.10073151,2.291426897,-7.800900936,2.837588549,2024-06-05 16:40:38.100732
13.14073151,1.269691467,-10.16530895,6.084649086,2024-06-05 16:40:38.140732
13.18073151,-2.582453728,-12.49621677,8.484949112,2024-06-05 16:40:38.180732
13.22073151,-2.582453728,-12.49621677,8.484949112,2024-06-05 16:40:38.220732
13.26073151,-2.582453728,-12.49621677,8.484949112,2024-06-05 16:40:38.260732
13.30073151,-2.582453728,-12.49621677,8.484949112,2024-06-05 16:40:38.300732
13.34073151,-2.582453728,-12.49621677,8.484949112,2024-06-05 16:40:38.340732
13.38073151,-2.582453728,-12.49621677,8.484949112,2024-06-05 16:40:38.380732
13.42073151,-2.582453728,-12.49621677,8.484949112,2024-06-05 16:40:38.420732
13.46073151,-2.582453728,-12.49621677,8.484949112,2024-06-05 16:40:38.460732
13.50073151,-2.582453728,-12.49621677,8.484949112,2024-06-05 16:40:38.500732
13.54073151,-2.582453728,-12.49621677,8.484949112,2024-06-05 16:40:38.540732
13.58073151,3.554837227,-8.650053978,-1.223031521,2024-06-05 16:40:38.580732
13.62073151,2.983550787,-9.084949493,-0.9559326172,2024-06-05 16:40:38.620732
13.66073151,2.335694075,-9.634700775,-0.3305086195,2024-06-05 16:40:38.660732
13.70073151,2.49481678,-8.639286041,-2.482852697,2024-06-05 16:40:38.700732
13.74073151,3.637688637,-9.138788223,0.3687937856,2024-06-05 16:40:38.740732
13.78073151,3.896412611,-9.057432175,1.345065475,2024-06-05 16:40:38.780732
13.82073151,3.896412611,-9.057432175,1.345065475,2024-06-05 16:40:38.820732
13.86073151,3.896412611,-9.057432175,1.345065475,2024-06-05 16:40:38.860732
13.90073151,3.896412611,-9.057432175,1.345065475,2024-06-05 16:40:38.900732
13.94073151,3.495016575,-8.675178528,-1.147358418,2024-06-05 16:40:38.940732
13.98073151,1.767996788,-12.63260841,-1.291226864,2024-06-05 16:40:38.980732
14.02073151,4.14646244,-12.48305702,-1.876870275,2024-06-05 16:40:39.020732
14.06073151,4.14646244,-12.48305702,-1.876870275,2024-06-05 16:40:39.060732
14.10073151,4.14646244,-12.48305702,-1.876870275,2024-06-05 16:40:39.100732
14.14073151,4.14646244,-12.48305702,-1.876870275,2024-06-05 16:40:39.140732
14.18073151,4.14646244,-12.48305702,-1.876870275,2024-06-05 16:40:39.180732
14.22073151,4.14646244,-12.48305702,-1.876870275,2024-06-05 16:40:39.220732
14.26073151,4.14646244,-12.48305702,-1.876870275,2024-06-05 16:40:39.260732
14.30073151,4.14646244,-12.48305702,-1.876870275,2024-06-05 16:40:39.300732
14.34073151,2.191825628,-8.047660828,1.04685986,2024-06-05 16:40:39.340732
14.38073151,3.322434187,-6.62243557,0.2670988142,2024-06-05 16:40:39.380732
14.42073151,3.322434187,-6.62243557,0.2670988142,2024-06-05 16:40:39.420732
14.46073151,3.322434187,-6.62243557,0.2670988142,2024-06-05 16:40:39.460732
14.50073151,3.322434187,-6.62243557,0.2670988142,2024-06-05 16:40:39.500732
14.54073151,3.414856911,-9.941280365,3.967000723,2024-06-05 16:40:39.540732
14.58073151,3.778865099,-9.25753212,5.417350292,2024-06-05 16:40:39.580732
14.62073151,0.9966106415,-11.33420277,6.249753475,2024-06-05 16:40:39.620732
14.66073151,0.0239282269,-9.189037323,3.506980658,2024-06-05 16:40:39.660732
14.70073151,0.0239282269,-9.189037323,3.506980658,2024-06-05 16:40:39.700732
14.74073151,0.0239282269,-9.189037323,3.506980658,2024-06-05 16:40:39.740732
14.78073151,6.748058796,-14.35873032,0.07896314561,2024-06-05 16:40:39.780732
14.82073151,6.748058796,-14.35873032,0.07896314561,2024-06-05 16:40:39.820732
14.86073151,6.748058796,-14.35873032,0.07896314561,2024-06-05 16:40:39.860732
14.90073151,3.878167391,-7.074978352,-1.608574986,2024-06-05 16:40:39.900732
14.94073151,3.878167391,-7.074978352,-1.608574986,2024-06-05 16:40:39.940732
14.98073151,3.878167391,-7.074978352,-1.608574986,2024-06-05 16:40:39.980732
15.02073151,3.878167391,-7.074978352,-1.608574986,2024-06-05 16:40:40.020732
15.06073151,3.878167391,-7.074978352,-1.608574986,2024-06-05 16:40:40.060732
15.10073151,3.878167391,-7.074978352,-1.608574986,2024-06-05 16:40:40.100732
15.14073151,3.878167391,-7.074978352,-1.608574986,2024-06-05 16:40:40.140732
15.14073151,3.596711636,-9.139984131,-0.304187566,2024-06-05 16:40:40.140732
15.22073151,2.578864574,-9.318549156,-0.5162515044,2024-06-05 16:40:40.220732
15.26073151,2.347658157,-10.02981567,0.7414759398,2024-06-05 16:40:40.260732
15.30073151,2.347658157,-10.02981567,0.7414759398,2024-06-05 16:40:40.300732
15.34073151,3.512962818,-9.307781219,0.7929216027,2024-06-05 16:40:40.340732
15.38073151,3.522534132,-9.174679756,1.324726462,2024-06-05 16:40:40.380732
15.42073151,3.522534132,-9.174679756,1.324726462,2024-06-05 16:40:40.420732
15.46073151,3.775275946,-8.765208244,2.032702923,2024-06-05 16:40:40.460732
15.50073151,2.89142704,-10.12223816,1.499701619,2024-06-05 16:40:40.500732
15.54073151,2.89142704,-10.12223816,1.499701619,2024-06-05 16:40:40.540732
15.58073151,5.237888813,-11.65663528,-0.3137588799,2024-06-05 16:40:40.580732
15.62073151,3.395714521,-10.53051376,2.675773859,2024-06-05 16:40:40.620732
15.66073151,3.395714521,-10.53051376,2.675773859,2024-06-05 16:40:40.660732
15.70073151,3.395714521,-10.53051376,2.675773859,2024-06-05 16:40:40.700732
15.74073151,3.395714521,-10.53051376,2.675773859,2024-06-05 16:40:40.740732
15.78073151,3.395714521,-10.53051376,2.675773859,2024-06-05 16:40:40.780732
15.82073151,3.395714521,-10.53051376,2.675773859,2024-06-05 16:40:40.820732
15.86073151,3.395714521,-10.53051376,2.675773859,2024-06-05 16:40:40.860732
15.90073151,3.395714521,-10.53051376,2.675773859,2024-06-05 16:40:40.900732
15.94073151,3.395714521,-10.53051376,2.675773859,2024-06-05 16:40:40.940732
15.98073151,3.77647233,-7.103991508,1.397707582,2024-06-05 16:40:40.980732
16.02073151,5.536094189,-7.466803074,2.185843468,2024-06-05 16:40:41.020732
16.06073151,5.621039391,-8.137392044,2.329711914,2024-06-05 16:40:41.060732
16.10073151,6.235396862,-9.573683739,6.295516491,2024-06-05 16:40:41.100732
16.14073151,4.235296249,-9.276674271,6.664309978,2024-06-05 16:40:41.140732
16.18073151,0.3640081584,-8.635697365,2.381157637,2024-06-05 16:40:41.180732
16.22073151,0.06939185411,-7.648956776,3.760919094,2024-06-05 16:40:41.220732
16.26073151,-0.5102694035,-8.409276009,3.343969584,2024-06-05 16:40:41.260732
16.30073151,-0.5102694035,-8.409276009,3.343969584,2024-06-05 16:40:41.300732
16.34073151,3.61615324,-5.723930836,1.77996099,2024-06-05 16:40:41.340732
16.38073151,3.61615324,-5.723930836,1.77996099,2024-06-05 16:40:41.380732
16.42073151,3.61615324,-5.723930836,1.77996099,2024-06-05 16:40:41.420732
16.46073151,3.61615324,-5.723930836,1.77996099,2024-06-05 16:40:41.460732
16.50073151,3.61615324,-5.723930836,1.77996099,2024-06-05 16:40:41.500732
16.54073151,3.61615324,-5.723930836,1.77996099,2024-06-05 16:40:41.540732
16.58073151,3.61615324,-5.723930836,1.77996099,2024-06-05 16:40:41.580732
16.62073151,3.61615324,-5.723930836,1.77996099,2024-06-05 16:40:41.620732
16.66073151,3.61615324,-5.723930836,1.77996099,2024-06-05 16:40:41.660732
16.70073151,3.61615324,-5.723930836,1.77996099,2024-06-05 16:40:41.700732
16.74073151,3.61615324,-5.723930836,1.77996099,2024-06-05 16:40:41.740732
16.78073151,3.61615324,-5.723930836,1.77996099,2024-06-05 16:40:41.780732
16.82073151,2.357229471,-9.547362328,-0.2515454888,2024-06-05 16:40:41.820732
16.86073151,2.250449657,-8.804690361,0.2647060156,2024-06-05 16:40:41.860732
16.90073151,3.089133978,-9.500701904,-0.4899304509,2024-06-05 16:40:41.900732
16.94073151,2.478066921,-9.656235695,0.06939185411,2024-06-05 16:40:41.940732
16.98073151,2.656631231,-9.519845009,-0.2264208496,2024-06-05 16:40:41.980732
17.02073151,2.656631231,-9.519845009,-0.2264208496,2024-06-05 16:40:42.020732
17.06073151,2.656631231,-9.519845009,-0.2264208496,2024-06-05 16:40:42.060732
17.10073151,2.976372242,-9.554540634,-0.2670988142,2024-06-05 16:40:42.100732
17.14073151,2.118844509,-9.818050385,0.5341976285,2024-06-05 16:40:42.140732
17.18073151,2.86032033,-9.546165466,-0.180957213,2024-06-05 16:40:42.180732
17.22073151,3.503391504,-9.292227745,0.1606182158,2024-06-05 16:40:42.220732
17.26073151,1.109073281,-14.06770325,-1.772782445,2024-06-05 16:40:42.260732
17.30073151,5.338387489,-11.68056393,0.1136590764,2024-06-05 16:40:42.300732
17.34073151,5.338387489,-11.68056393,0.1136590764,2024-06-05 16:40:42.340732
17.38073151,5.338387489,-11.68056393,0.1136590764,2024-06-05 16:40:42.380732
17.42073151,5.338387489,-11.68056393,0.1136590764,2024-06-05 16:40:42.420732
17.46073151,5.338387489,-11.68056393,0.1136590764,2024-06-05 16:40:42.460732
17.50073151,5.338387489,-11.68056393,0.1136590764,2024-06-05 16:40:42.500732
17.54073151,5.338387489,-11.68056393,0.1136590764,2024-06-05 16:40:42.540732
17.58073151,0.2718844712,-11.42303658,3.471088409,2024-06-05 16:40:42.580732
17.62073151,0.2718844712,-11.42303658,3.471088409,2024-06-05 16:40:42.620732
17.66073151,2.466102839,-6.829713821,0.566500783,2024-06-05 16:40:42.660732
17.70073151,3.21356082,-5.96590519,0.7079764009,2024-06-05 16:40:42.700732
17.74073151,3.550051451,-5.637789249,1.750050664,2024-06-05 16:40:42.740732
17.78073151,3.013461113,-7.395018578,2.660220623,2024-06-05 16:40:42.780732
17.82073151,1.717448473,-9.218947411,3.473481178,2024-06-05 16:40:42.820732
17.86073151,1.176072359,-9.763913155,4.529912472,2024-06-05 16:40:42.860732
17.90073151,-1.484148264,-11.6769743,4.89631319,2024-06-05 16:40:42.900732
17.94073151,-1.484148264,-11.6769743,4.89631319,2024-06-05 16:40:42.940732
17.98073151,-1.484148264,-11.6769743,4.89631319,2024-06-05 16:40:42.980732
18.02073151,-1.484148264,-11.6769743,4.89631319,2024-06-05 16:40:43.020732
18.06073151,-1.484148264,-11.6769743,4.89631319,2024-06-05 16:40:43.060732
18.10073151,-1.484148264,-11.6769743,4.89631319,2024-06-05 16:40:43.100732
18.14073151,4.277170658,-4.522733688,2.027917147,2024-06-05 16:40:43.140732
18.18073151,4.964807987,-4.254438877,-2.721237659,2024-06-05 16:40:43.180732
18.22073151,4.964807987,-4.254438877,-2.721237659,2024-06-05 16:40:43.220732
18.26073151,4.964807987,-4.254438877,-2.721237659,2024-06-05 16:40:43.260732
18.30073151,4.964807987,-4.254438877,-2.721237659,2024-06-05 16:40:43.300732
18.34073151,4.964807987,-4.254438877,-2.721237659,2024-06-05 16:40:43.340732
18.38073151,4.964807987,-4.254438877,-2.721237659,2024-06-05 16:40:43.380732
18.42073151,4.964807987,-4.254438877,-2.721237659,2024-06-05 16:40:43.420732
18.46073151,3.390928745,-9.450154305,-0.6840481758,2024-06-05 16:40:43.460732
18.50073151,3.279363394,-9.598808289,1.85892415,2024-06-05 16:40:43.500732
18.54073151,3.279363394,-9.598808289,1.85892415,2024-06-05 16:40:43.540732
18.58073151,3.279363394,-9.598808289,1.85892415,2024-06-05 16:40:43.580732
18.62073151,3.279363394,-9.598808289,1.85892415,2024-06-05 16:40:43.620732
18.66073151,1.955833435,-9.438189507,-0.2491526604,2024-06-05 16:40:43.660732
18.70073151,1.955833435,-9.438189507,-0.2491526604,2024-06-05 16:40:43.700732
18.74073151,1.955833435,-9.438189507,-0.2491526604,2024-06-05 16:40:43.740732
18.78073151,0.6696912646,-10.60618591,0.1100698411,2024-06-05 16:40:43.780732
18.82073151,0.152243346,-13.64955807,0.3963112533,2024-06-05 16:40:43.820732
18.86073151,5.193322659,-11.6084795,5.709573746,2024-06-05 16:40:43.860732
18.90073151,5.193322659,-11.6084795,5.709573746,2024-06-05 16:40:43.900732
18.94073151,5.193322659,-11.6084795,5.709573746,2024-06-05 16:40:43.940732
18.98073151,5.193322659,-11.6084795,5.709573746,2024-06-05 16:40:43.980732
19.02073151,5.193322659,-11.6084795,5.709573746,2024-06-05 16:40:44.020732
19.06073151,0.2754737139,-10.44197845,-0.8288139701,2024-06-05 16:40:44.060732
19.10073151,0.2754737139,-10.44197845,-0.8288139701,2024-06-05 16:40:44.100732
19.14073151,0.2754737139,-10.44197845,-0.8288139701,2024-06-05 16:40:44.140732
19.18073151,0.2754737139,-10.44197845,-0.8288139701,2024-06-05 16:40:44.180732
19.22073151,0.2754737139,-10.44197845,-0.8288139701,2024-06-05 16:40:44.220732
19.26073151,0.2754737139,-10.44197845,-0.8288139701,2024-06-05 16:40:44.260732
19.30073151,0.2754737139,-10.44197845,-0.8288139701,2024-06-05 16:40:44.300732
19.34073151,-0.4432703853,-15.2533474,12.42293739,2024-06-05 16:40:44.340732
19.38073151,3.116651535,-7.052246571,5.205286503,2024-06-05 16:40:44.380732
19.42073151,8.008178711,-4.383651257,-1.963011861,2024-06-05 16:40:44.420732
19.46073151,8.008178711,-4.383651257,-1.963011861,2024-06-05 16:40:44.460732
19.50073151,8.008178711,-4.383651257,-1.963011861,2024-06-05 16:40:44.500732
19.54073151,3.978965044,-3.935894251,-4.303491592,2024-06-05 16:40:44.540732
19.58073151,5.030610561,-9.940084457,-0.5389832854,2024-06-05 16:40:44.580732
19.62073151,-0.3137588799,-11.70449162,-5.38624382,2024-06-05 16:40:44.620732
19.66073151,-0.4911268353,-10.88405323,2.945265532,2024-06-05 16:40:44.660732
19.70073151,2.0769701,-11.09222889,-2.676970243,2024-06-05 16:40:44.700732
19.74073151,4.066302776,-8.186743736,-0.195314154,2024-06-05 16:40:44.740732
19.78073151,3.750151396,-7.666903019,0.446859628,2024-06-05 16:40:44.780732
19.82073151,2.704487801,-9.252745628,-1.043270707,2024-06-05 16:40:44.820732
19.86073151,0.3927220106,-10.48504925,2.390728951,2024-06-05 16:40:44.860732
19.90073151,0.3927220106,-10.48504925,2.390728951,2024-06-05 16:40:44.900732
19.94073151,0.3927220106,-10.48504925,2.390728951,2024-06-05 16:40:44.940732
19.98073151,0.3927220106,-10.48504925,2.390728951,2024-06-05 16:40:44.980732
20.02073151,0.3927220106,-10.48504925,2.390728951,2024-06-05 16:40:45.020732
20.06073151,2.984747171,-12.26859951,0.7869395614,2024-06-05 16:40:45.060732
20.10073151,9.778569221,-13.30588818,-4.175475597,2024-06-05 16:40:45.100732
20.14073151,7.108777046,-11.54985619,2.293819666,2024-06-05 16:40:45.140732
20.18073151,0.7354938388,-9.262317657,-0.8730811477,2024-06-05 16:40:45.180732
20.22073151,-1.958226204,-9.445367813,-1.620539188,2024-06-05 16:40:45.220732
20.26073151,0.9690931439,-6.284449577,-0.2240280211,2024-06-05 16:40:45.260732
20.30073151,3.608675718,-3.661616802,-2.898605585,2024-06-05 16:40:45.300732
20.34073151,3.608675718,-3.661616802,-2.898605585,2024-06-05 16:40:45.340732
20.38073151,3.134597778,-4.446163654,5.288137913,2024-06-05 16:40:45.380732
20.42073151,3.571586847,-13.60648727,12.53210926,2024-06-05 16:40:45.420732
20.46073151,3.471088409,-16.12403488,7.788936615,2024-06-05 16:40:45.460732
20.50073151,7.717152119,1.649253011,1.427617788,2024-06-05 16:40:45.500732
20.54073151,9.684949875,-21.08286095,6.727719784,2024-06-05 16:40:45.540732
20.58073151,9.684949875,-21.08286095,6.727719784,2024-06-05 16:40:45.580732
20.62073151,9.684949875,-21.08286095,6.727719784,2024-06-05 16:40:45.620732
20.66073151,9.684949875,-21.08286095,6.727719784,2024-06-05 16:40:45.660732
20.70073151,9.684949875,-21.08286095,6.727719784,2024-06-05 16:40:45.700732
20.74073151,9.684949875,-21.08286095,6.727719784,2024-06-05 16:40:45.740732
20.78073151,9.684949875,-21.08286095,6.727719784,2024-06-05 16:40:45.780732
20.82073151,9.684949875,-21.08286095,6.727719784,2024-06-05 16:40:45.820732
20.86073151,9.684949875,-21.08286095,6.727719784,2024-06-05 16:40:45.860732
20.90073151,9.684949875,-21.08286095,6.727719784,2024-06-05 16:40:45.900732
20.94073151,3.824328899,-9.530612946,3.221935749,2024-06-05 16:40:45.940732
20.98073151,-1.797907114,-13.03639698,2.329711914,2024-06-05 16:40:45.980732
21.02073151,-3.350250721,-12.10558891,0.3209373355,2024-06-05 16:40:46.020732
21.06073151,-3.350250721,-12.10558891,0.3209373355,2024-06-05 16:40:46.060732
21.10073151,-3.350250721,-12.10558891,0.3209373355,2024-06-05 16:40:46.100732
21.14073151,-3.350250721,-12.10558891,0.3209373355,2024-06-05 16:40:46.140732
21.18073151,12.84347534,-15.50249958,-4.369294167,2024-06-05 16:40:46.180732
21.22073151,11.4385891,-8.978468895,5.054538727,2024-06-05 16:40:46.220732
21.26073151,0.675673306,-8.391329765,-4.656732082,2024-06-05 16:40:46.260732
21.30073151,0.675673306,-8.391329765,-4.656732082,2024-06-05 16:40:46.300732
21.34073151,0.9451649189,-5.707180977,-0.8694919348,2024-06-05 16:40:46.340732
21.38073151,3.915555239,-1.206281662,-4.534698009,2024-06-05 16:40:46.380732
21.42073151,3.915555239,-1.206281662,-4.534698009,2024-06-05 16:40:46.420732
21.46073151,3.915555239,-1.206281662,-4.534698009,2024-06-05 16:40:46.460732
21.50073151,3.915555239,-1.206281662,-4.534698009,2024-06-05 16:40:46.500732
21.54073151,3.915555239,-1.206281662,-4.534698009,2024-06-05 16:40:46.540732
21.58073151,3.915555239,-1.206281662,-4.534698009,2024-06-05 16:40:46.580732
21.62073151,3.915555239,-1.206281662,-4.534698009,2024-06-05 16:40:46.620732
21.66073151,3.915555239,-1.206281662,-4.534698009,2024-06-05 16:40:46.660732
21.70073151,3.915555239,-1.206281662,-4.534698009,2024-06-05 16:40:46.700732
21.74073151,8.46102047,-11.64227867,-1.965404749,2024-06-05 16:40:46.740732
21.78073151,-5.37188673,-17.67398643,-3.468695641,2024-06-05 16:40:46.780732
21.82073151,-2.953640461,-9.495617867,-0.4911268353,2024-06-05 16:40:46.820732
21.86073151,3.117847919,-9.427422523,0.4037888348,2024-06-05 16:40:46.860732
21.90073151,5.446064472,-6.262914181,3.538087368,2024-06-05 16:40:46.900732
21.94073151,3.569194078,-7.709973812,-2.466102839,2024-06-05 16:40:46.940732
21.98073151,3.422035456,-9.983155251,0.1749751568,2024-06-05 16:40:46.980732
22.02073151,-0.1941177398,-11.96441269,3.408874989,2024-06-05 16:40:47.020732
22.06073151,-5.313262463,-11.99193001,-0.8659027219,2024-06-05 16:40:47.060732
22.10073151,1.85892415,-12.9511528,3.733401537,2024-06-05 16:40:47.100732
22.14073151,1.85892415,-12.9511528,3.733401537,2024-06-05 16:40:47.140732
22.18073151,1.85892415,-12.9511528,3.733401537,2024-06-05 16:40:47.180732
22.22073151,1.85892415,-12.9511528,3.733401537,2024-06-05 16:40:47.220732
22.26073151,1.85892415,-12.9511528,3.733401537,2024-06-05 16:40:47.260732
22.30073151,1.85892415,-12.9511528,3.733401537,2024-06-05 16:40:47.300732
22.34073151,-4.684548378,-8.792725563,-1.717448473,2024-06-05 16:40:47.340732
22.38073151,1.268495083,-5.540879726,-0.3520440459,2024-06-05 16:40:47.380732
22.42073151,1.268495083,-5.540879726,-0.3520440459,2024-06-05 16:40:47.420732
22.46073151,1.268495083,-5.540879726,-0.3520440459,2024-06-05 16:40:47.460732
22.50073151,1.268495083,-5.540879726,-0.3520440459,2024-06-05 16:40:47.500732
22.54073151,1.268495083,-5.540879726,-0.3520440459,2024-06-05 16:40:47.540732
22.58073151,-1.863709688,-17.79990768,9.291030884,2024-06-05 16:40:47.580732
22.62073151,8.380561829,-8.963812828,2.423032045,2024-06-05 16:40:47.620732
22.66073151,13.42792225,-23.44487572,2.849552631,2024-06-05 16:40:47.660732
22.70073151,13.42792225,-23.44487572,2.849552631,2024-06-05 16:40:47.700732
22.74073151,13.42792225,-23.44487572,2.849552631,2024-06-05 16:40:47.740732
22.78073151,13.42792225,-23.44487572,2.849552631,2024-06-05 16:40:47.780732
22.82073151,-7.047461033,-15.23420429,4.026821613,2024-06-05 16:40:47.820732
22.86073151,-2.845963478,-8.596215248,-1.627717614,2024-06-05 16:40:47.860732
22.90073151,6.458228111,-7.780561924,-1.751247048,2024-06-05 16:40:47.900732
22.94073151,3.693919897,-8.046463966,8.441878319,2024-06-05 16:40:47.940732
22.98073151,3.693919897,-8.046463966,8.441878319,2024-06-05 16:40:47.980732
23.02073151,3.693919897,-8.046463966,8.441878319,2024-06-05 16:40:48.020732
23.06073151,3.693919897,-8.046463966,8.441878319,2024-06-05 16:40:48.060732
23.10073151,3.693919897,-8.046463966,8.441878319,2024-06-05 16:40:48.100732
23.14073151,1.478166223,-11.26720333,1.985743642,2024-06-05 16:40:48.140732
23.18073151,0.641874671,-15.51805305,3.31525588,2024-06-05 16:40:48.180732
23.22073151,0.641874671,-15.51805305,3.31525588,2024-06-05 16:40:48.220732
23.26073151,0.641874671,-15.51805305,3.31525588,2024-06-05 16:40:48.260732
23.30073151,0.641874671,-15.51805305,3.31525588,2024-06-05 16:40:48.300732
23.34073151,0.641874671,-15.51805305,3.31525588,2024-06-05 16:40:48.340732
23.38073151,-2.454138756,-9.950852394,-3.722633839,2024-06-05 16:40:48.380732
23.42073151,1.194018483,-5.098805904,-0.9619147182,2024-06-05 16:40:48.420732
23.46073151,1.194018483,-5.098805904,-0.9619147182,2024-06-05 16:40:48.460732
23.50073151,4.580161572,-3.553640842,-0.4576273263,2024-06-05 16:40:48.500732
23.54073151,4.580161572,-3.553640842,-0.4576273263,2024-06-05 16:40:48.540732
23.58073151,3.03499651,-11.26241779,7.469195843,2024-06-05 16:40:48.580732
23.62073151,-3.015853882,-20.06232262,12.43131161,2024-06-05 16:40:48.620732
23.66073151,-0.7438687682,-4.567001343,3.515355587,2024-06-05 16:40:48.660732
23.70073151,8.786744118,-5.240281582,-8.983254433,2024-06-05 16:40:48.700732
23.74073151,0.3029911816,-26.1278286,21.93081856,2024-06-05 16:40:48.740732
23.78073151,7.951947689,0.9329017401,-6.598507404,2024-06-05 16:40:48.780732
23.82073151,7.951947689,0.9329017401,-6.598507404,2024-06-05 16:40:48.820732
23.86073151,7.951947689,0.9329017401,-6.598507404,2024-06-05 16:40:48.860732
23.90073151,7.951947689,0.9329017401,-6.598507404,2024-06-05 16:40:48.900732
23.94073151,7.951947689,0.9329017401,-6.598507404,2024-06-05 16:40:48.940732
23.98073151,7.951947689,0.9329017401,-6.598507404,2024-06-05 16:40:48.980732
24.02073151,2.154736757,-8.755637169,-0.06580262631,2024-06-05 16:40:49.020732
24.06073151,2.154736757,-8.755637169,-0.06580262631,2024-06-05 16:40:49.060732
24.10073151,2.154736757,-8.755637169,-0.06580262631,2024-06-05 16:40:49.100732
24.14073151,2.154736757,-8.755637169,-0.06580262631,2024-06-05 16:40:49.140732
24.18073151,2.154736757,-8.755637169,-0.06580262631,2024-06-05 16:40:49.180732
24.22073151,-2.933301449,-15.04726505,3.511766434,2024-06-05 16:40:49.220732
24.26073151,2.71286273,-14.01595879,7.396214962,2024-06-05 16:40:49.260732
24.30073151,2.71286273,-14.01595879,7.396214962,2024-06-05 16:40:49.300732
24.34073151,8.088338852,-18.09691811,-2.975175858,2024-06-05 16:40:49.340732
24.38073151,9.223732948,-8.428419113,-2.001296997,2024-06-05 16:40:49.380732
24.42073151,9.223732948,-8.428419113,-2.001296997,2024-06-05 16:40:49.420732
24.46073151,9.223732948,-8.428419113,-2.001296997,2024-06-05 16:40:49.460732
24.50073151,0.1642074585,-5.668895721,-1.4479568,2024-06-05 16:40:49.500732
24.54073151,2.224128723,-3.096312523,-1.834995866,2024-06-05 16:40:49.540732
24.58073151,4.159922123,-0.9894321561,0.1402792335,2024-06-05 16:40:49.580732
24.62073151,2.884248495,-5.127519608,2.818445921,2024-06-05 16:40:49.620732
24.66073151,3.147758245,-10.07557774,7.703991413,2024-06-05 16:40:49.660732
24.70073151,-1.758425593,-20.56661034,15.01017666,2024-06-05 16:40:49.700732
24.74073151,-1.758425593,-20.56661034,15.01017666,2024-06-05 16:40:49.740732
24.78073151,12.19202995,-25.12882614,5.605485916,2024-06-05 16:40:49.780732
24.82073151,12.19202995,-25.12882614,5.605485916,2024-06-05 16:40:49.820732
24.86073151,12.19202995,-25.12882614,5.605485916,2024-06-05 16:40:49.860732
24.90073151,12.19202995,-25.12882614,5.605485916,2024-06-05 16:40:49.900732
24.94073151,12.19202995,-25.12882614,5.605485916,2024-06-05 16:40:49.940732
24.98073151,12.19202995,-25.12882614,5.605485916,2024-06-05 16:40:49.980732
25.02073151,4.794618607,-6.987640381,2.02073884,2024-06-05 16:40:50.020732
25.06073151,0.2934198678,-6.590132713,1.613360643,2024-06-05 16:40:50.060732
25.10073151,0.2934198678,-6.590132713,1.613360643,2024-06-05 16:40:50.100732
25.14073151,0.4289134443,-8.736495018,-0.855134964,2024-06-05 16:40:50.140732
25.18073151,-1.401296735,-11.09581757,4.642374992,2024-06-05 16:40:50.180732
25.22073151,-3.573979616,-13.44706535,0.3293122053,2024-06-05 16:40:50.220732
25.26073151,-3.573979616,-13.44706535,0.3293122053,2024-06-05 16:40:50.260732
25.30073151,-3.573979616,-13.44706535,0.3293122053,2024-06-05 16:40:50.300732
25.34073151,5.918048382,-14.51904964,0.02632104978,2024-06-05 16:40:50.340732
25.38073151,5.918048382,-14.51904964,0.02632104978,2024-06-05 16:40:50.380732
25.42073151,5.031806946,-10.748559,7.181757927,2024-06-05 16:40:50.420732
25.46073151,3.546462297,-8.32791996,-4.903491974,2024-06-05 16:40:50.460732
25.50073151,-10.60857964,-11.28754234,0.8934201598,2024-06-05 16:40:50.500732
25.54073151,-10.60857964,-11.28754234,0.8934201598,2024-06-05 16:40:50.540732
25.58073151,-10.60857964,-11.28754234,0.8934201598,2024-06-05 16:40:50.580732
25.62073151,-10.60857964,-11.28754234,0.8934201598,2024-06-05 16:40:50.620732
25.66073151,-10.60857964,-11.28754234,0.8934201598,2024-06-05 16:40:50.660732
25.70073151,-10.60857964,-11.28754234,0.8934201598,2024-06-05 16:40:50.700732
25.74073151,-10.60857964,-11.28754234,0.8934201598,2024-06-05 16:40:50.740732
25.78073151,-10.60857964,-11.28754234,0.8934201598,2024-06-05 16:40:50.780732
25.82073151,-2.056631088,-15.49053574,-4.241278172,2024-06-05 16:40:50.820732
25.86073151,12.2051897,1.05523479,-5.76849699,2024-06-05 16:40:50.860732
25.90073151,6.734898567,-9.837192535,-0.06101697683,2024-06-05 16:40:50.900732
25.94073151,6.878767014,-18.55065727,-8.5148592,2024-06-05 16:40:50.940732
25.98073151,-0.7654041648,-14.72154236,1.873281002,2024-06-05 16:40:50.980732
26.02073151,-1.4479568,-6.318248272,3.273381472,2024-06-05 16:40:51.020732
26.06073151,-0.2850449979,-9.30179882,-0.674476862,2024-06-05 16:40:51.060732
26.10073151,-2.892623425,-10.89003468,-0.1268195957,2024-06-05 16:40:51.100732
26.14073151,-1.837388635,-7.245167732,0.05982056633,2024-06-05 16:40:51.140732
26.18073151,5.092823982,-3.089133978,-0.176171571,2024-06-05 16:40:51.180732
26.22073151,8.77477932,-7.233203888,1.191625714,2024-06-05 16:40:51.220732
26.26073151,-0.9161519408,-13.33101273,2.352443695,2024-06-05 16:40:51.260732
26.30073151,-0.9161519408,-13.33101273,2.352443695,2024-06-05 16:40:51.300732
26.34073151,-0.9161519408,-13.33101273,2.352443695,2024-06-05 16:40:51.340732
26.38073151,-0.9161519408,-13.33101273,2.352443695,2024-06-05 16:40:51.380732
26.42073151,-0.9161519408,-13.33101273,2.352443695,2024-06-05 16:40:51.420732
26.46073151,-0.9161519408,-13.33101273,2.352443695,2024-06-05 16:40:51.460732
26.50073151,-0.9161519408,-13.33101273,2.352443695,2024-06-05 16:40:51.500732
26.54073151,-0.9161519408,-13.33101273,2.352443695,2024-06-05 16:40:51.540732
26.58073151,-0.9161519408,-13.33101273,2.352443695,2024-06-05 16:40:51.580732
26.58073151,-4.286741734,-9.017950058,0.04307080805,2024-06-05 16:40:51.580732
26.66073151,3.911965847,-1.752443433,-1.775175333,2024-06-05 16:40:51.660732
26.70073151,4.290330887,-1.131805062,-1.855334878,2024-06-05 16:40:51.700732
26.74073151,2.440978289,-5.719145298,5.468796253,2024-06-05 16:40:51.740732
26.78073151,-4.625625134,-22.92144585,18.69213295,2024-06-05 16:40:51.780732
26.82073151,-1.013360381,-10.8119688,2.965604544,2024-06-05 16:40:51.820732
26.86073151,5.339583874,-4.039981842,0.03589234129,2024-06-05 16:40:51.860732
26.90073151,6.495316982,-22.51526451,11.76550865,2024-06-05 16:40:51.900732
26.94073151,7.871489048,0.06699903309,-4.696512699,2024-06-05 16:40:51.940732
26.98073151,7.871489048,0.06699903309,-4.696512699,2024-06-05 16:40:51.980732
27.02073151,7.871489048,0.06699903309,-4.696512699,2024-06-05 16:40:52.020732
27.06073151,-7.269095898,-11.58215904,10.6480608,2024-06-05 16:40:52.060732
27.10073151,3.376571894,-7.77936554,-0.5282155871,2024-06-05 16:40:52.100732
27.14073151,5.310869694,-7.878667831,2.050648928,2024-06-05 16:40:52.140732
27.18073151,2.977568626,-7.167401314,1.545165181,2024-06-05 16:40:52.180732
27.22073151,2.977568626,-7.167401314,1.545165181,2024-06-05 16:40:52.220732
27.26073151,2.977568626,-7.167401314,1.545165181,2024-06-05 16:40:52.260732
27.30073151,2.977568626,-7.167401314,1.545165181,2024-06-05 16:40:52.300732
27.34073151,2.977568626,-7.167401314,1.545165181,2024-06-05 16:40:52.340732
27.38073151,2.977568626,-7.167401314,1.545165181,2024-06-05 16:40:52.380732
27.42073151,2.977568626,-7.167401314,1.545165181,2024-06-05 16:40:52.420732
27.46073151,-0.8192426562,-14.40658665,-4.975575447,2024-06-05 16:40:52.460732
27.50073151,11.64078331,-17.72543144,-4.49521637,2024-06-05 16:40:52.500732
27.54073151,11.64078331,-17.72543144,-4.49521637,2024-06-05 16:40:52.540732
27.58073151,5.536094189,-8.693124771,1.576271892,2024-06-05 16:40:52.580732
27.62073151,5.536094189,-8.693124771,1.576271892,2024-06-05 16:40:52.620732
27.66073151,-0.7917252183,-5.841478348,0.4971089065,2024-06-05 16:40:52.660732
27.70073151,4.057928085,-1.734198213,-2.623131752,2024-06-05 16:40:52.700732
27.74073151,4.057928085,-1.734198213,-2.623131752,2024-06-05 16:40:52.740732
27.78073151,3.305684566,-4.425824642,1.595414519,2024-06-05 16:40:52.780732
27.82073151,3.305684566,-4.425824642,1.595414519,2024-06-05 16:40:52.820732
27.86073151,3.305684566,-4.425824642,1.595414519,2024-06-05 16:40:52.860732
27.90073151,3.305684566,-4.425824642,1.595414519,2024-06-05 16:40:52.900732
27.94073151,3.305684566,-4.425824642,1.595414519,2024-06-05 16:40:52.940732
27.98073151,3.305684566,-4.425824642,1.595414519,2024-06-05 16:40:52.980732
28.02073151,6.894320011,-5.760122299,-0.4049852192,2024-06-05 16:40:53.020732
28.06073151,3.662813187,-20.55225372,-8.418847084,2024-06-05 16:40:53.060732
28.10073151,-4.503591537,-11.55344486,14.27587891,2024-06-05 16:40:53.100732
28.14073151,-4.503591537,-11.55344486,14.27587891,2024-06-05 16:40:53.140732
28.18073151,-4.503591537,-11.55344486,14.27587891,2024-06-05 16:40:53.180732
28.22073151,-4.503591537,-11.55344486,14.27587891,2024-06-05 16:40:53.220732
28.26073151,-4.503591537,-11.55344486,14.27587891,2024-06-05 16:40:53.260732
28.30073151,-4.503591537,-11.55344486,14.27587891,2024-06-05 16:40:53.300732
28.34073151,-3.950251102,-12.75015545,-1.880459547,2024-06-05 16:40:53.340732
28.38073151,-3.950251102,-12.75015545,-1.880459547,2024-06-05 16:40:53.380732
28.42073151,-1.904387712,-17.34228134,3.570390463,2024-06-05 16:40:53.420732
28.46073151,3.913162231,-12.60748386,5.25942421,2024-06-05 16:40:53.460732
28.50073151,8.32791996,-15.84497261,-3.192025423,2024-06-05 16:40:53.500732
28.54073151,8.32791996,-15.84497261,-3.192025423,2024-06-05 16:40:53.540732
28.58073151,4.637589455,-9.256335258,-2.741576433,2024-06-05 16:40:53.580732
28.62073151,4.637589455,-9.256335258,-2.741576433,2024-06-05 16:40:53.620732
28.66073151,4.637589455,-9.256335258,-2.741576433,2024-06-05 16:40:53.660732
28.70073151,4.637589455,-9.256335258,-2.741576433,2024-06-05 16:40:53.700732
28.74073151,4.967200756,0.04905286431,-2.314158678,2024-06-05 16:40:53.740732
28.78073151,2.412264347,-4.93579483,3.170490026,2024-06-05 16:40:53.780732
28.82073151,-1.980958104,-21.14507484,16.85235023,2024-06-05 16:40:53.820732
28.86073151,-1.687538147,-14.09522057,3.916751623,2024-06-05 16:40:53.860732
28.90073151,-1.687538147,-14.09522057,3.916751623,2024-06-05 16:40:53.900732
28.94073151,-1.687538147,-14.09522057,3.916751623,2024-06-05 16:40:53.940732
28.98073151,-1.687538147,-14.09522057,3.916751623,2024-06-05 16:40:53.980732
29.02073151,6.295516491,-7.350451946,-0.4695914388,2024-06-05 16:40:54.020732
29.06073151,6.295516491,-7.350451946,-0.4695914388,2024-06-05 16:40:54.060732
29.10073151,-4.272384644,-11.23370457,11.65184975,2024-06-05 16:40:54.100732
29.14073151,-2.074577332,-8.735298157,-5.053342342,2024-06-05 16:40:54.140732
29.18073151,-2.074577332,-8.735298157,-5.053342342,2024-06-05 16:40:54.180732
29.22073151,-2.074577332,-8.735298157,-5.053342342,2024-06-05 16:40:54.220732
29.26073151,-2.074577332,-8.735298157,-5.053342342,2024-06-05 16:40:54.260732
29.30073151,-2.074577332,-8.735298157,-5.053342342,2024-06-05 16:40:54.300732
29.34073151,-2.14157629,-11.34018517,4.502394676,2024-06-05 16:40:54.340732
29.38073151,-4.49521637,-12.34636688,-1.064806104,2024-06-05 16:40:54.380732
29.42073151,0.02033899166,-13.20269775,3.962215185,2024-06-05 16:40:54.420732
29.46073151,0.02033899166,-13.20269775,3.962215185,2024-06-05 16:40:54.460732
29.50073151,0.02033899166,-13.20269775,3.962215185,2024-06-05 16:40:54.500732
29.54073151,8.446663857,-17.77448463,-2.643470764,2024-06-05 16:40:54.540732
29.58073151,8.741280556,-13.93819237,0.6948158741,2024-06-05 16:40:54.580732
29.58073151,8.446663857,-17.77448463,-2.643470764,2024-06-05 16:40:54.580732
29.66073151,-7.628617764,-9.064610481,-6.544369698,2024-06-05 16:40:54.660732
29.70073151,-0.7941179872,-6.13609457,-2.730808735,2024-06-05 16:40:54.700732
29.74073151,-0.7941179872,-6.13609457,-2.730808735,2024-06-05 16:40:54.740732
29.78073151,-0.7941179872,-6.13609457,-2.730808735,2024-06-05 16:40:54.780732
29.82073151,-0.7941179872,-6.13609457,-2.730808735,2024-06-05 16:40:54.820732
29.86073151,-0.7941179872,-6.13609457,-2.730808735,2024-06-05 16:40:54.860732
29.90073151,-1.104287624,-13.41715431,3.540480137,2024-06-05 16:40:54.900732
29.94073151,13.11296749,-7.475177765,-4.389633179,2024-06-05 16:40:54.940732
29.98073151,-0.6406782866,-18.50519371,6.867999077,2024-06-05 16:40:54.980732
30.02073151,9.463314056,-0.5018945336,-5.845067501,2024-06-05 16:40:55.020732
30.06073151,5.200500965,-8.899206161,-4.655535698,2024-06-05 16:40:55.060732
30.10073151,-3.605086327,-20.46581268,-5.391029358,2024-06-05 16:40:55.100732
30.14073151,-5.916851997,-9.203393936,5.221138954,2024-06-05 16:40:55.140732
30.18073151,3.87218523,-8.705388069,-1.994118571,2024-06-05 16:40:55.180732
30.22073151,4.138087749,-7.907680511,2.77746892,2024-06-05 16:40:55.220732
30.26073151,3.478266716,-5.159822941,0.1594218016,2024-06-05 16:40:55.260732
30.30073151,3.478266716,-5.159822941,0.1594218016,2024-06-05 16:40:55.300732
30.34073151,3.478266716,-5.159822941,0.1594218016,2024-06-05 16:40:55.340732
30.38073151,3.478266716,-5.159822941,0.1594218016,2024-06-05 16:40:55.380732
30.42073151,3.478266716,-5.159822941,0.1594218016,2024-06-05 16:40:55.420732
30.46073151,3.478266716,-5.159822941,0.1594218016,2024-06-05 16:40:55.460732
30.50073151,-1.196411371,-14.00758362,-2.929712296,2024-06-05 16:40:55.500732
30.54073151,-1.196411371,-14.00758362,-2.929712296,2024-06-05 16:40:55.540732
30.58073151,-1.196411371,-14.00758362,-2.929712296,2024-06-05 16:40:55.580732
30.62073151,-1.196411371,-14.00758362,-2.929712296,2024-06-05 16:40:55.620732
30.66073151,-1.196411371,-14.00758362,-2.929712296,2024-06-05 16:40:55.660732
30.70073151,-1.196411371,-14.00758362,-2.929712296,2024-06-05 16:40:55.700732
30.74073151,-1.196411371,-14.00758362,-2.929712296,2024-06-05 16:40:55.740732
30.78073151,5.446064472,1.299601793,-2.766701221,2024-06-05 16:40:55.780732
30.82073151,1.520040631,-11.29711437,10.71864891,2024-06-05 16:40:55.820732
30.86073151,1.520040631,-11.29711437,10.71864891,2024-06-05 16:40:55.860732
30.90073151,0.009571290575,-11.95125198,2.310569286,2024-06-05 16:40:55.900732
30.94073151,12.21954727,-12.13908863,0.7546364665,2024-06-05 16:40:55.940732
30.98073151,-0.371186614,-12.00269794,-0.152243346,2024-06-05 16:40:55.980732
31.02073151,-0.371186614,-12.00269794,-0.152243346,2024-06-05 16:40:56.020732
31.06073151,5.031806946,-8.529216766,-2.478066921,2024-06-05 16:40:56.060732
31.10073151,-3.944268942,-20.12453651,-11.3389883,2024-06-05 16:40:56.100732
31.14073151,-5.986244202,-10.35224819,13.26760292,2024-06-05 16:40:56.140732
31.18073151,-5.986244202,-10.35224819,13.26760292,2024-06-05 16:40:56.180732
31.22073151,-5.986244202,-10.35224819,13.26760292,2024-06-05 16:40:56.220732
31.26073151,-5.986244202,-10.35224819,13.26760292,2024-06-05 16:40:56.260732
31.30073151,-5.986244202,-10.35224819,13.26760292,2024-06-05 16:40:56.300732
31.34073151,-1.143769264,-9.857531548,3.055335522,2024-06-05 16:40:56.340732
31.38073151,-4.311866283,-12.8889389,-0.7175477147,2024-06-05 16:40:56.380732
31.42073151,-4.311866283,-12.8889389,-0.7175477147,2024-06-05 16:40:56.420732
31.46073151,-4.311866283,-12.8889389,-0.7175477147,2024-06-05 16:40:56.460732
31.50073151,-4.311866283,-12.8889389,-0.7175477147,2024-06-05 16:40:56.500732
31.54073151,-4.311866283,-12.8889389,-0.7175477147,2024-06-05 16:40:56.540732
31.58073151,-4.311866283,-12.8889389,-0.7175477147,2024-06-05 16:40:56.580732
31.62073151,5.253442287,-9.622735977,4.225724697,2024-06-05 16:40:56.620732
31.66073151,-0.6490531564,-7.956733704,-3.859024763,2024-06-05 16:40:56.660732
31.70073151,-8.455039024,-8.027321815,1.94865489,2024-06-05 16:40:56.700732
31.74073151,-8.455039024,-8.027321815,1.94865489,2024-06-05 16:40:56.740732
31.78073151,4.974379063,-1.523629785,-3.419642687,2024-06-05 16:40:56.780732
31.82073151,5.258227825,-2.598007202,0.6155536175,2024-06-05 16:40:56.820732
31.86073151,2.497209549,-12.46750355,8.233403206,2024-06-05 16:40:56.860732
31.90073151,-6.032006741,-21.41935158,15.86411476,2024-06-05 16:40:56.900732
31.94073151,-6.032006741,-21.41935158,15.86411476,2024-06-05 16:40:56.940732
31.98073151,-6.032006741,-21.41935158,15.86411476,2024-06-05 16:40:56.980732
32.02073151,8.059624672,1.643270969,-13.21825123,2024-06-05 16:40:57.020732
32.06073151,6.510870457,-2.76909399,-3.017050266,2024-06-05 16:40:57.060732
32.10073151,6.510870457,-2.76909399,-3.017050266,2024-06-05 16:40:57.100732
32.14073151,6.510870457,-2.76909399,-3.017050266,2024-06-05 16:40:57.140732
32.18073151,6.510870457,-2.76909399,-3.017050266,2024-06-05 16:40:57.180732
32.22073151,6.510870457,-2.76909399,-3.017050266,2024-06-05 16:40:57.220732
32.26073151,6.510870457,-2.76909399,-3.017050266,2024-06-05 16:40:57.260732
32.30073151,6.510870457,-2.76909399,-3.017050266,2024-06-05 16:40:57.300732
32.34073151,1.534397483,-10.55324554,-0.371186614,2024-06-05 16:40:57.340732
32.38073151,1.534397483,-10.55324554,-0.371186614,2024-06-05 16:40:57.380732
32.42073151,1.534397483,-10.55324554,-0.371186614,2024-06-05 16:40:57.420732
32.46073151,-0.1642074585,-12.59073353,2.566900492,2024-06-05 16:40:57.460732
32.50073151,-0.3568296731,-14.65932846,5.818746567,2024-06-05 16:40:57.500732
32.54073151,-1.246959686,-12.92363548,8.216653824,2024-06-05 16:40:57.540732
32.58073151,-2.829213619,-14.02672672,-5.520540714,2024-06-05 16:40:57.580732
32.62073151,7.345666409,-14.98624802,-4.057928085,2024-06-05 16:40:57.620732
32.66073151,6.319444656,-13.29990673,7.658527851,2024-06-05 16:40:57.660732
32.70073151,6.319444656,-13.29990673,7.658527851,2024-06-05 16:40:57.700732
32.74073151,6.319444656,-13.29990673,7.658527851,2024-06-05 16:40:57.740732
32.78073151,6.319444656,-13.29990673,7.658527851,2024-06-05 16:40:57.780732
32.82073151,4.915455818,-1.101894855,-4.625625134,2024-06-05 16:40:57.820732
32.86073151,5.776872158,-3.504587889,0.09451649338,2024-06-05 16:40:57.860732
32.90073151,1.941476464,-13.58854103,11.38834,2024-06-05 16:40:57.900732
32.94073151,1.941476464,-13.58854103,11.38834,2024-06-05 16:40:57.940732
32.98073151,1.941476464,-13.58854103,11.38834,2024-06-05 16:40:57.980732
33.02073151,1.941476464,-13.58854103,11.38834,2024-06-05 16:40:58.020732
33.06073151,1.941476464,-13.58854103,11.38834,2024-06-05 16:40:58.060732
33.10073151,1.941476464,-13.58854103,11.38834,2024-06-05 16:40:58.100732
33.14073151,1.941476464,-13.58854103,11.38834,2024-06-05 16:40:58.140732
33.18073151,1.941476464,-13.58854103,11.38834,2024-06-05 16:40:58.180732
33.22073151,1.941476464,-13.58854103,11.38834,2024-06-05 16:40:58.220732
33.26073151,4.825725079,-8.265707016,-0.3544368446,2024-06-05 16:40:58.260732
33.30073151,4.825725079,-8.265707016,-0.3544368446,2024-06-05 16:40:58.300732
33.34073151,-0.3173480928,-9.858728409,-1.555932879,2024-06-05 16:40:58.340732
33.38073151,0.5593222976,-10.56999493,5.671288967,2024-06-05 16:40:58.380732
33.42073151,-3.10947299,-12.67328644,-0.1857428551,2024-06-05 16:40:58.420732
33.46073151,-5.964708805,-12.59671593,0.641874671,2024-06-05 16:40:58.460732
33.50073151,-0.8910273314,-14.03270817,4.602893353,2024-06-05 16:40:58.500732
33.54073151,1.394118309,-12.3547411,10.68395329,2024-06-05 16:40:58.540732
33.58073151,1.394118309,-12.3547411,10.68395329,2024-06-05 16:40:58.580732
33.62073151,1.394118309,-12.3547411,10.68395329,2024-06-05 16:40:58.620732
33.66073151,1.394118309,-12.3547411,10.68395329,2024-06-05 16:40:58.660732
33.70073151,1.394118309,-12.3547411,10.68395329,2024-06-05 16:40:58.700732
33.74073151,1.394118309,-12.3547411,10.68395329,2024-06-05 16:40:58.740732
33.78073151,2.335694075,-3.577569008,-2.822035313,2024-06-05 16:40:58.780732
33.82073151,3.678366661,-1.106680512,-4.176671982,2024-06-05 16:40:58.820732
33.86073151,5.473581791,-1.803889155,-0.6912266612,2024-06-05 16:40:58.860732
33.90073151,5.473581791,-1.803889155,-0.6912266612,2024-06-05 16:40:58.900732
33.94073151,5.473581791,-1.803889155,-0.6912266612,2024-06-05 16:40:58.940732
33.98073151,5.473581791,-1.803889155,-0.6912266612,2024-06-05 16:40:58.980732
34.02073151,10.60259724,-20.71616173,-3.387339592,2024-06-05 16:40:59.020732
34.06073151,2.411067963,-8.545966148,-9.500701904,2024-06-05 16:40:59.060732
34.10073151,10.4718895,-0.2491526604,-5.690431118,2024-06-05 16:40:59.100732
34.14073151,6.521637917,-8.656036377,-0.04067798331,2024-06-05 16:40:59.140732
34.18073151,4.252045631,-14.9216423,-1.885245085,2024-06-05 16:40:59.180732
34.22073151,4.252045631,-14.9216423,-1.885245085,2024-06-05 16:40:59.220732
34.26073151,4.252045631,-14.9216423,-1.885245085,2024-06-05 16:40:59.260732
34.30073151,4.252045631,-14.9216423,-1.885245085,2024-06-05 16:40:59.300732
34.34073151,4.855635166,-7.345666409,5.672485352,2024-06-05 16:40:59.340732
34.38073151,-1.671984792,-9.917352676,-1.006181955,2024-06-05 16:40:59.380732
34.42073151,-1.214656591,-10.70309544,2.284248352,2024-06-05 16:40:59.420732
34.46073151,-3.630510092,-12.37508011,0.5593222976,2024-06-05 16:40:59.460732
34.50073151,-2.645863533,-12.24108219,2.352443695,2024-06-05 16:40:59.500732
34.54073151,-2.310569286,-17.70987892,2.287837505,2024-06-05 16:40:59.540732
34.58073151,-2.310569286,-17.70987892,2.287837505,2024-06-05 16:40:59.580732
34.62073151,-2.310569286,-17.70987892,2.287837505,2024-06-05 16:40:59.620732
34.66073151,12.09003544,-16.3337059,-3.239881754,2024-06-05 16:40:59.660732
34.70073151,6.958926678,-8.530412674,3.211168051,2024-06-05 16:40:59.700732
34.74073151,-1.037288666,-7.132705212,-7.051050186,2024-06-05 16:40:59.740732
34.78073151,-1.037288666,-7.132705212,-7.051050186,2024-06-05 16:40:59.780732
34.82073151,-1.037288666,-7.132705212,-7.051050186,2024-06-05 16:40:59.820732
34.86073151,-1.037288666,-7.132705212,-7.051050186,2024-06-05 16:40:59.860732
34.90073151,-1.037288666,-7.132705212,-7.051050186,2024-06-05 16:40:59.900732
34.94073151,1.024128079,-16.42702675,17.14696693,2024-06-05 16:40:59.940732
34.98073151,-0.07417750359,-16.78654861,6.823432922,2024-06-05 16:40:59.980732
35.02073151,6.142076492,-3.111865759,4.689334393,2024-06-05 16:41:00.020732
35.06073151,1.392921925,-24.18964195,13.5849514,2024-06-05 16:41:00.060732
35.10073151,1.392921925,-24.18964195,13.5849514,2024-06-05 16:41:00.100732
35.14073151,1.392921925,-24.18964195,13.5849514,2024-06-05 16:41:00.140732
35.18073151,0.4695914388,-20.03121567,-5.167001247,2024-06-05 16:41:00.180732
35.22073151,-9.25394249,-12.44596767,5.20169735,2024-06-05 16:41:00.220732
35.26073151,-2.490031004,-7.237989426,-1.382154226,2024-06-05 16:41:00.260732
35.30073151,-2.490031004,-7.237989426,-1.382154226,2024-06-05 16:41:00.300732
35.34073151,3.450749397,-7.190133095,6.457031727,2024-06-05 16:41:00.340732
35.38073151,3.450749397,-7.190133095,6.457031727,2024-06-05 16:41:00.380732
35.42073151,3.450749397,-7.190133095,6.457031727,2024-06-05 16:41:00.420732
35.46073151,3.450749397,-7.190133095,6.457031727,2024-06-05 16:41:00.460732
35.50073151,3.450749397,-7.190133095,6.457031727,2024-06-05 16:41:00.500732
35.54073151,3.450749397,-7.190133095,6.457031727,2024-06-05 16:41:00.540732
35.58073151,3.450749397,-7.190133095,6.457031727,2024-06-05 16:41:00.580732
35.62073151,3.450749397,-7.190133095,6.457031727,2024-06-05 16:41:00.620732
35.66073151,3.450749397,-7.190133095,6.457031727,2024-06-05 16:41:00.660732
35.70073151,3.450749397,-7.190133095,6.457031727,2024-06-05 16:41:00.700732
35.74073151,-2.269592285,-6.115755558,-5.691627979,2024-06-05 16:41:00.740732
35.78073151,-2.269592285,-6.115755558,-5.691627979,2024-06-05 16:41:00.780732
35.82073151,-1.40010035,-6.181558132,-1.220638633,2024-06-05 16:41:00.820732
35.82073151,-1.40010035,-6.181558132,-1.220638633,2024-06-05 16:41:00.820732
35.90073151,6.143272877,-0.779761076,-3.879363775,2024-06-05 16:41:00.900732
35.94073151,6.143272877,-0.779761076,-3.879363775,2024-06-05 16:41:00.940732
35.98073151,-8.467002869,-30.55694389,25.56132698,2024-06-05 16:41:00.980732
36.02073151,-8.467002869,-30.55694389,25.56132698,2024-06-05 16:41:01.020732
36.06073151,11.60608673,-17.19960976,-1.514058471,2024-06-05 16:41:01.060732
36.10073151,2.379961252,-7.85593605,-8.701798439,2024-06-05 16:41:01.100732
36.14073151,8.550751686,-0.8180462122,-4.543072701,2024-06-05 16:41:01.140732
36.18073151,6.07148838,-8.511270523,-1.493719578,2024-06-05 16:41:01.180732
36.22073151,-5.077270508,-23.13680077,-9.809675217,2024-06-05 16:41:01.220732
36.26073151,-5.077270508,-23.13680077,-9.809675217,2024-06-05 16:41:01.260732
36.30073151,-5.077270508,-23.13680077,-9.809675217,2024-06-05 16:41:01.300732
36.34073151,-5.077270508,-23.13680077,-9.809675217,2024-06-05 16:41:01.340732
36.38073151,-5.077270508,-23.13680077,-9.809675217,2024-06-05 16:41:01.380732
36.42073151,1.282852054,-10.14377308,-3.473481178,2024-06-05 16:41:01.420732
36.46073151,-0.01076770201,-11.88275719,11.84806156,2024-06-05 16:41:01.460732
36.50073151,-0.01076770201,-11.88275719,11.84806156,2024-06-05 16:41:01.500732
36.54073151,-0.01076770201,-11.88275719,11.84806156,2024-06-05 16:41:01.540732
36.58073151,-2.145165443,-16.07737541,3.274577856,2024-06-05 16:41:01.580732
36.62073151,-3.704687595,-13.00050449,-0.05024927482,2024-06-05 16:41:01.620732
36.62073151,-2.145165443,-16.07737541,3.274577856,2024-06-05 16:41:01.620732
36.70073151,11.690135,-18.11247063,2.575275421,2024-06-05 16:41:01.700732
36.74073151,6.914659023,-8.107481003,0.06340979785,2024-06-05 16:41:01.740732
36.78073151,6.914659023,-8.107481003,0.06340979785,2024-06-05 16:41:01.780732
36.82073151,6.914659023,-8.107481003,0.06340979785,2024-06-05 16:41:01.820732
36.86073151,6.914659023,-8.107481003,0.06340979785,2024-06-05 16:41:01.860732
36.90073151,6.914659023,-8.107481003,0.06340979785,2024-06-05 16:41:01.900732
36.94073151,6.914659023,-8.107481003,0.06340979785,2024-06-05 16:41:01.940732
36.98073151,-3.579961777,-27.4079895,28.74707222,2024-06-05 16:41:01.980732
37.02073151,-0.2467598319,-7.907680511,1.621735573,2024-06-05 16:41:02.020732
37.06073151,-0.2467598319,-7.907680511,1.621735573,2024-06-05 16:41:02.060732
37.10073151,-0.2467598319,-7.907680511,1.621735573,2024-06-05 16:41:02.100732
37.14073151,-0.2467598319,-7.907680511,1.621735573,2024-06-05 16:41:02.140732
37.18073151,-0.2467598319,-7.907680511,1.621735573,2024-06-05 16:41:02.180732
37.22073151,-0.2467598319,-7.907680511,1.621735573,2024-06-05 16:41:02.220732
37.26073151,-0.2467598319,-7.907680511,1.621735573,2024-06-05 16:41:02.260732
37.30073151,-0.2467598319,-7.907680511,1.621735573,2024-06-05 16:41:02.300732
37.34073151,-0.2467598319,-7.907680511,1.621735573,2024-06-05 16:41:02.340732
37.38073151,2.103291035,-5.599503994,1.36899364,2024-06-05 16:41:02.380732
37.42073151,-0.6696912646,-12.00748348,0.009571290575,2024-06-05 16:41:02.420732
37.46073151,-2.011167526,-11.06830025,7.147062302,2024-06-05 16:41:02.460732
37.50073151,-2.19780755,-12.16182041,-0.913759172,2024-06-05 16:41:02.500732
37.54073151,-5.799603939,-12.25185013,-0.2587239444,2024-06-05 16:41:02.540732
37.58073151,0.7582256794,-12.7310133,6.627221584,2024-06-05 16:41:02.580732
37.62073151,-2.509173632,-13.37169075,8.586644173,2024-06-05 16:41:02.620732
37.66073151,-2.509173632,-13.37169075,8.586644173,2024-06-05 16:41:02.660732
37.70073151,-2.509173632,-13.37169075,8.586644173,2024-06-05 16:41:02.700732
37.74073151,-2.509173632,-13.37169075,8.586644173,2024-06-05 16:41:02.740732
37.78073151,1.066002488,-6.356533527,-1.887637973,2024-06-05 16:41:02.780732
37.82073151,-8.621339798,-8.30279541,-3.486641645,2024-06-05 16:41:02.820732
37.86073151,-1.105484009,-5.320441246,-3.282952785,2024-06-05 16:41:02.860732
37.90073151,3.279363394,-0.9463613629,-5.084448814,2024-06-05 16:41:02.900732
37.94073151,3.279363394,-0.9463613629,-5.084448814,2024-06-05 16:41:02.940732
37.98073151,3.279363394,-0.9463613629,-5.084448814,2024-06-05 16:41:02.980732
38.02073151,3.279363394,-0.9463613629,-5.084448814,2024-06-05 16:41:03.020732
38.06073151,3.279363394,-0.9463613629,-5.084448814,2024-06-05 16:41:03.060732
38.10073151,3.279363394,-0.9463613629,-5.084448814,2024-06-05 16:41:03.100732
38.14073151,3.279363394,-0.9463613629,-5.084448814,2024-06-05 16:41:03.140732
38.18073151,3.279363394,-0.9463613629,-5.084448814,2024-06-05 16:41:03.180732
38.22073151,5.358726501,-13.65314674,-3.863810301,2024-06-05 16:41:03.220732
38.26073151,-11.6961174,-19.27897263,-17.92074585,2024-06-05 16:41:03.260732
38.30073151,-11.6961174,-19.27897263,-17.92074585,2024-06-05 16:41:03.300732
38.34073151,3.509373426,-7.750651836,-2.944069147,2024-06-05 16:41:03.340732
38.38073151,5.117948532,-7.153044224,2.836392164,2024-06-05 16:41:03.380732
38.42073151,1.081555843,-8.216653824,0.294616282,2024-06-05 16:41:03.420732
38.46073151,-0.3687937856,-11.07667542,4.09860611,2024-06-05 16:41:03.460732
38.50073151,-5.134698391,-12.87936783,0.3424727321,2024-06-05 16:41:03.500732
38.54073151,-5.134698391,-12.87936783,0.3424727321,2024-06-05 16:41:03.540732
38.58073151,-0.5389832854,-14.30100346,5.925227165,2024-06-05 16:41:03.580732
38.62073151,-0.5389832854,-14.30100346,5.925227165,2024-06-05 16:41:03.620732
38.66073151,-0.5389832854,-14.30100346,5.925227165,2024-06-05 16:41:03.660732
38.70073151,-0.5389832854,-14.30100346,5.925227165,2024-06-05 16:41:03.700732
38.74073151,-0.5389832854,-14.30100346,5.925227165,2024-06-05 16:41:03.740732
38.78073151,-1.579861164,-6.478567123,-5.441278458,2024-06-05 16:41:03.780732
38.82073151,-7.464410305,-7.434499741,-0.7977072597,2024-06-05 16:41:03.820732
38.86073151,-7.464410305,-7.434499741,-0.7977072597,2024-06-05 16:41:03.860732
38.90073151,4.517948151,-0.5784648657,-5.221138954,2024-06-05 16:41:03.900732
38.94073151,4.517948151,-0.5784648657,-5.221138954,2024-06-05 16:41:03.940732
38.98073151,4.517948151,-0.5784648657,-5.221138954,2024-06-05 16:41:03.980732
39.02073151,2.304587364,-13.28435326,5.064109802,2024-06-05 16:41:04.020732
39.06073151,5.851049423,-1.766800404,0.01076770201,2024-06-05 16:41:04.060732
39.10073151,11.86361504,-18.80698776,0.4085744619,2024-06-05 16:41:04.100732
39.14073151,3.35862565,-6.21505785,-15.89402485,2024-06-05 16:41:04.140732
39.18073151,8.657232285,-1.736590981,-3.489034414,2024-06-05 16:41:04.180732
39.22073151,5.341976643,-9.247960091,-1.910369754,2024-06-05 16:41:04.220732
39.26073151,-3.297309637,-20.96172523,-9.30179882,2024-06-05 16:41:04.260732
39.30073151,-3.297309637,-20.96172523,-9.30179882,2024-06-05 16:41:04.300732
39.34073151,-3.297309637,-20.96172523,-9.30179882,2024-06-05 16:41:04.340732
39.38073151,-3.297309637,-20.96172523,-9.30179882,2024-06-05 16:41:04.380732
39.42073151,-3.297309637,-20.96172523,-9.30179882,2024-06-05 16:41:04.420732
39.46073151,-0.5222335458,-11.05992508,0.9918249846,2024-06-05 16:41:04.460732
39.50073151,-2.219342947,-12.39781189,3.302095175,2024-06-05 16:41:04.500732
39.54073151,-7.099205494,-12.97029495,-2.057827473,2024-06-05 16:41:04.540732
39.58073151,-7.099205494,-12.97029495,-2.057827473,2024-06-05 16:41:04.580732
39.62073151,-7.099205494,-12.97029495,-2.057827473,2024-06-05 16:41:04.620732
39.66073151,-7.099205494,-12.97029495,-2.057827473,2024-06-05 16:41:04.660732
39.70073151,7.092027187,-15.30120373,-2.572882652,2024-06-05 16:41:04.700732
39.74073151,7.092027187,-15.30120373,-2.572882652,2024-06-05 16:41:04.740732
39.78073151,7.092027187,-15.30120373,-2.572882652,2024-06-05 16:41:04.780732
39.82073151,7.092027187,-15.30120373,-2.572882652,2024-06-05 16:41:04.820732
39.86073151,7.092027187,-15.30120373,-2.572882652,2024-06-05 16:41:04.860732
39.90073151,3.257827997,-1.281655669,-4.285545349,2024-06-05 16:41:04.900732
39.94073151,4.880760193,-0.4612165689,-1.608574986,2024-06-05 16:41:04.940732
39.98073151,4.880760193,-0.4612165689,-1.608574986,2024-06-05 16:41:04.980732
40.02073151,4.880760193,-0.4612165689,-1.608574986,2024-06-05 16:41:05.020732
40.06073151,3.257827997,-0.1196411327,-0.456430912,2024-06-05 16:41:05.060732
40.10073151,3.102294445,-27.31945419,19.48385811,2024-06-05 16:41:05.100732
40.14073151,8.101499557,3.075674295,-16.19372559,2024-06-05 16:41:05.140732
40.18073151,6.233004093,-4.39800787,-2.279462576,2024-06-05 16:41:05.180732
40.22073151,5.597111225,-13.53230953,-3.270988464,2024-06-05 16:41:05.220732
40.26073151,5.597111225,-13.53230953,-3.270988464,2024-06-05 16:41:05.260732
40.30073151,5.597111225,-13.53230953,-3.270988464,2024-06-05 16:41:05.300732
40.34073151,5.597111225,-13.53230953,-3.270988464,2024-06-05 16:41:05.340732
40.38073151,5.597111225,-13.53230953,-3.270988464,2024-06-05 16:41:05.380732
40.42073151,1.016949654,-8.865707397,0.6780661345,2024-06-05 16:41:05.420732
40.46073151,-2.002493382,-10.57268715,0.590429008,2024-06-05 16:41:05.460732
40.50073151,-4.017250061,-12.5368948,1.486541033,2024-06-05 16:41:05.500732
40.54073151,-4.017250061,-12.5368948,1.486541033,2024-06-05 16:41:05.540732
40.58073151,-4.017250061,-12.5368948,1.486541033,2024-06-05 16:41:05.580732
40.62073151,-4.017250061,-12.5368948,1.486541033,2024-06-05 16:41:05.620732
40.66073151,-4.017250061,-12.5368948,1.486541033,2024-06-05 16:41:05.660732
40.70073151,9.977172852,-16.73629951,-4.478466511,2024-06-05 16:41:05.700732
40.74073151,7.106384277,-12.52253819,8.887242317,2024-06-05 16:41:05.740732
40.78073151,7.106384277,-12.52253819,8.887242317,2024-06-05 16:41:05.780732
40.82073151,7.106384277,-12.52253819,8.887242317,2024-06-05 16:41:05.820732
40.86073151,7.106384277,-12.52253819,8.887242317,2024-06-05 16:41:05.860732
40.90073151,7.106384277,-12.52253819,8.887242317,2024-06-05 16:41:05.900732
40.94073151,7.106384277,-12.52253819,8.887242317,2024-06-05 16:41:05.940732
40.98073151,3.565604925,-3.878167391,1.53080833,2024-06-05 16:41:05.980732
41.02073151,-4.062713623,-25.27359009,26.35873604,2024-06-05 16:41:06.020732
41.06073151,-4.062713623,-25.27359009,26.35873604,2024-06-05 16:41:06.060732
41.10073151,-4.062713623,-25.27359009,26.35873604,2024-06-05 16:41:06.100732
41.14073151,-4.062713623,-25.27359009,26.35873604,2024-06-05 16:41:06.140732
41.18073151,-4.062713623,-25.27359009,26.35873604,2024-06-05 16:41:06.180732
41.22073151,-4.062713623,-25.27359009,26.35873604,2024-06-05 16:41:06.220732
41.26073151,-4.062713623,-25.27359009,26.35873604,2024-06-05 16:41:06.260732
41.30073151,-4.062713623,-25.27359009,26.35873604,2024-06-05 16:41:06.300732
41.30073151,-5.140680313,-11.2887392,16.75663757,2024-06-05 16:41:06.300732
41.38073151,-5.140680313,-11.2887392,16.75663757,2024-06-05 16:41:06.380732
41.42073151,-5.140680313,-11.2887392,16.75663757,2024-06-05 16:41:06.420732
41.46073151,-5.140680313,-11.2887392,16.75663757,2024-06-05 16:41:06.460732
41.50073151,-2.100898266,-10.4599247,8.658429146,2024-06-05 16:41:06.500732
41.54073151,-2.100898266,-10.4599247,8.658429146,2024-06-05 16:41:06.540732
41.58073151,0.5389832854,-12.12951756,6.369693756,2024-06-05 16:41:06.580732
41.62073151,-2.333301067,-15.32752419,3.642474174,2024-06-05 16:41:06.620732
41.66073151,0.1244267747,-12.41456223,0.4779663086,2024-06-05 16:41:06.660732
41.70073151,5.83310318,-16.22722626,-2.877070189,2024-06-05 16:41:06.700732
41.74073151,9.741181374,-18.07538223,0.05623133108,2024-06-05 16:41:06.740732
41.78073151,3.304488182,-8.155337334,-0.456430912,2024-06-05 16:41:06.780732
41.82073151,-5.866602898,-9.373583794,-4.973182678,2024-06-05 16:41:06.820732
41.86073151,-1.094716311,-5.343173027,-0.1112662554,2024-06-05 16:41:06.860732
41.90073151,4.201796532,-1.419242978,-4.386044025,2024-06-05 16:41:06.900732
41.94073151,5.727519989,0.7486543655,-3.579961777,2024-06-05 16:41:06.940732
41.98073151,5.727519989,0.7486543655,-3.579961777,2024-06-05 16:41:06.980732
42.02073151,5.727519989,0.7486543655,-3.579961777,2024-06-05 16:41:07.020732
42.06073151,5.727519989,0.7486543655,-3.579961777,2024-06-05 16:41:07.060732
42.10073151,5.727519989,0.7486543655,-3.579961777,2024-06-05 16:41:07.100732
42.14073151,5.727519989,0.7486543655,-3.579961777,2024-06-05 16:41:07.140732
42.18073151,5.727519989,0.7486543655,-3.579961777,2024-06-05 16:41:07.180732
42.22073151,5.727519989,0.7486543655,-3.579961777,2024-06-05 16:41:07.220732
42.26073151,5.727519989,0.7486543655,-3.579961777,2024-06-05 16:41:07.260732
42.30073151,5.727519989,0.7486543655,-3.579961777,2024-06-05 16:41:07.300732
42.34073151,-0.1486541033,-7.718348503,0.1100698411,2024-06-05 16:41:07.340732
42.38073151,3.229114056,-8.708976746,1.398903966,2024-06-05 16:41:07.380732
42.42073151,4.182653904,-7.621140003,2.542972326,2024-06-05 16:41:07.420732
42.46073151,0.779761076,-7.327720165,-1.106680512,2024-06-05 16:41:07.460732
42.50073151,0.157028988,-10.82871914,0.5784648657,2024-06-05 16:41:07.500732
42.54073151,-2.527119875,-11.07787132,7.117151737,2024-06-05 16:41:07.540732
42.58073151,-5.884549141,-12.45673561,-1.965404749,2024-06-05 16:41:07.580732
42.62073151,-5.884549141,-12.45673561,-1.965404749,2024-06-05 16:41:07.620732
42.66073151,-5.884549141,-12.45673561,-1.965404749,2024-06-05 16:41:07.660732
42.70073151,-5.884549141,-12.45673561,-1.965404749,2024-06-05 16:41:07.700732
42.74073151,-5.884549141,-12.45673561,-1.965404749,2024-06-05 16:41:07.740732
42.78073151,-5.884549141,-12.45673561,-1.965404749,2024-06-05 16:41:07.780732
42.82073151,-0.8659027219,-6.645167351,-3.227917671,2024-06-05 16:41:07.820732
42.86073151,-0.8659027219,-6.645167351,-3.227917671,2024-06-05 16:41:07.860732
42.90073151,0.1342971772,-4.240081787,-2.367997169,2024-06-05 16:41:07.900732
42.94073151,0.1342971772,-4.240081787,-2.367997169,2024-06-05 16:41:07.940732
42.98073151,0.1342971772,-4.240081787,-2.367997169,2024-06-05 16:41:07.980732
43.02073151,0.1342971772,-4.240081787,-2.367997169,2024-06-05 16:41:08.020732
43.06073151,0.1342971772,-4.240081787,-2.367997169,2024-06-05 16:41:08.060732
43.10073151,0.1342971772,-4.240081787,-2.367997169,2024-06-05 16:41:08.100732
43.14073151,0.1342971772,-4.240081787,-2.367997169,2024-06-05 16:41:08.140732
43.18073151,2.651845694,-5.843871117,-12.27099228,2024-06-05 16:41:08.180732
43.22073151,7.684848785,-1.49132669,-4.024428368,2024-06-05 16:41:08.220732
43.26073151,7.684848785,-1.49132669,-4.024428368,2024-06-05 16:41:08.260732
43.30073151,7.684848785,-1.49132669,-4.024428368,2024-06-05 16:41:08.300732
43.34073151,7.684848785,-1.49132669,-4.024428368,2024-06-05 16:41:08.340732
43.38073151,-3.157329559,-7.217650414,-0.9329017401,2024-06-05 16:41:08.380732
43.42073151,2.999104023,-8.766405106,1.415653706,2024-06-05 16:41:08.420732
43.46073151,3.873381615,-6.274878502,0.9678967595,2024-06-05 16:41:08.460732
43.50073151,3.873381615,-6.274878502,0.9678967595,2024-06-05 16:41:08.500732
43.54073151,3.873381615,-6.274878502,0.9678967595,2024-06-05 16:41:08.540732
43.58073151,3.873381615,-6.274878502,0.9678967595,2024-06-05 16:41:08.580732
43.62073151,3.873381615,-6.274878502,0.9678967595,2024-06-05 16:41:08.620732
43.66073151,3.873381615,-6.274878502,0.9678967595,2024-06-05 16:41:08.660732
43.70073151,3.873381615,-6.274878502,0.9678967595,2024-06-05 16:41:08.700732
43.74073151,3.009871721,-15.2042942,-3.562015533,2024-06-05 16:41:08.740732
43.78073151,8.906385422,-17.88604927,-0.485144794,2024-06-05 16:41:08.780732
43.82073151,8.906385422,-17.88604927,-0.485144794,2024-06-05 16:41:08.820732
43.86073151,8.906385422,-17.88604927,-0.485144794,2024-06-05 16:41:08.860732
43.90073151,8.906385422,-17.88604927,-0.485144794,2024-06-05 16:41:08.900732
43.94073151,8.906385422,-17.88604927,-0.485144794,2024-06-05 16:41:08.940732
43.98073151,5.908477306,-0.3843471408,-2.988336325,2024-06-05 16:41:08.980732
44.02073151,4.464109898,-3.310470104,1.455135226,2024-06-05 16:41:09.020732
44.06073151,3.435195923,-9.808479309,7.918448448,2024-06-05 16:41:09.060732
44.10073151,-10.34387302,-27.50998306,15.08555031,2024-06-05 16:41:09.100732
44.14073151,1.624128342,-1.459920883,0.88504529,2024-06-05 16:41:09.140732
44.18073151,2.940479994,-28.03341293,12.63978672,2024-06-05 16:41:09.180732
44.22073151,7.447660446,0.4217349887,-15.72772408,2024-06-05 16:41:09.220732
44.26073151,7.312166691,-2.28903389,-1.904387712,2024-06-05 16:41:09.260732
44.30073151,7.432106972,-11.29113197,-1.607378602,2024-06-05 16:41:09.300732
44.34073151,7.432106972,-11.29113197,-1.607378602,2024-06-05 16:41:09.340732
44.38073151,7.432106972,-11.29113197,-1.607378602,2024-06-05 16:41:09.380732
44.42073151,7.432106972,-11.29113197,-1.607378602,2024-06-05 16:41:09.420732
44.46073151,7.432106972,-11.29113197,-1.607378602,2024-06-05 16:41:09.460732
44.50073151,7.432106972,-11.29113197,-1.607378602,2024-06-05 16:41:09.500732
44.50073151,3.629313707,-6.963712215,-4.14646244,2024-06-05 16:41:09.500732
44.58073151,-4.468895435,-13.00170135,-0.8874381185,2024-06-05 16:41:09.580732
44.62073151,-4.468895435,-13.00170135,-0.8874381185,2024-06-05 16:41:09.620732
44.66073151,-4.468895435,-13.00170135,-0.8874381185,2024-06-05 16:41:09.660732
44.70073151,-4.468895435,-13.00170135,-0.8874381185,2024-06-05 16:41:09.700732
44.74073151,-4.468895435,-13.00170135,-0.8874381185,2024-06-05 16:41:09.740732
44.78073151,11.39192963,-18.82971954,-2.688934565,2024-06-05 16:41:09.780732
44.82073151,7.441678524,-9.664610863,3.529712439,2024-06-05 16:41:09.820732
44.86073151,-3.619742393,-7.334898949,-4.635196686,2024-06-05 16:41:09.860732
44.90073151,-7.477570534,-7.334898949,0.6155536175,2024-06-05 16:41:09.900732
44.94073151,1.789532185,-3.658027649,-3.342773199,2024-06-05 16:41:09.940732
44.98073151,4.122534275,-0.1677966863,-4.634000301,2024-06-05 16:41:09.980732
45.02073151,4.122534275,-0.1677966863,-4.634000301,2024-06-05 16:41:10.020732
45.06073151,4.122534275,-0.1677966863,-4.634000301,2024-06-05 16:41:10.060732
45.10073151,4.122534275,-0.1677966863,-4.634000301,2024-06-05 16:41:10.100732
45.14073151,4.122534275,-0.1677966863,-4.634000301,2024-06-05 16:41:10.140732
45.18073151,4.122534275,-0.1677966863,-4.634000301,2024-06-05 16:41:10.180732
45.22073151,4.122534275,-0.1677966863,-4.634000301,2024-06-05 16:41:10.220732
45.26073151,4.122534275,-0.1677966863,-4.634000301,2024-06-05 16:41:10.260732
45.30073151,4.122534275,-0.1677966863,-4.634000301,2024-06-05 16:41:10.300732
45.34073151,4.122534275,-0.1677966863,-4.634000301,2024-06-05 16:41:10.340732
45.38073151,4.122534275,-0.1677966863,-4.634000301,2024-06-05 16:41:10.380732
45.42073151,4.122534275,-0.1677966863,-4.634000301,2024-06-05 16:41:10.420732
45.46073151,4.122534275,-0.1677966863,-4.634000301,2024-06-05 16:41:10.460732
45.50073151,4.122534275,-0.1677966863,-4.634000301,2024-06-05 16:41:10.500732
45.54073151,4.122534275,-0.1677966863,-4.634000301,2024-06-05 16:41:10.540732
45.58073151,4.122534275,-0.1677966863,-4.634000301,2024-06-05 16:41:10.580732
45.62073151,-2.754737139,-12.7381916,3.063710213,2024-06-05 16:41:10.620732
45.66073151,0.4983053207,-15.14327717,4.608875751,2024-06-05 16:41:10.660732
45.70073151,-1.87567389,-14.67488194,7.076174736,2024-06-05 16:41:10.700732
45.74073151,-1.329512119,-12.90449238,-3.327219963,2024-06-05 16:41:10.740732
45.78073151,-1.329512119,-12.90449238,-3.327219963,2024-06-05 16:41:10.780732
45.82073151,4.741976261,-14.99701595,3.983750582,2024-06-05 16:41:10.820732
45.86073151,1.359422326,-7.5924263,-1.648056626,2024-06-05 16:41:10.860732
45.90073151,-5.489434242,-7.350451946,-0.2742772996,2024-06-05 16:41:10.900732
45.94073151,-1.008574724,-5.684449196,-1.445564032,2024-06-05 16:41:10.940732
45.98073151,-1.008574724,-5.684449196,-1.445564032,2024-06-05 16:41:10.980732
46.02073151,-1.008574724,-5.684449196,-1.445564032,2024-06-05 16:41:11.020732
46.06073151,-1.008574724,-5.684449196,-1.445564032,2024-06-05 16:41:11.060732
46.10073151,-12.304492,-29.04079056,20.31506348,2024-06-05 16:41:11.100732
46.14073151,-12.304492,-29.04079056,20.31506348,2024-06-05 16:41:11.140732
46.18073151,14.46521091,-12.59073353,-9.543772697,2024-06-05 16:41:11.180732
46.22073151,-1.403689623,-20.00130463,-2.025524378,2024-06-05 16:41:11.220732
46.26073151,-1.403689623,-20.00130463,-2.025524378,2024-06-05 16:41:11.260732
46.30073151,-1.403689623,-20.00130463,-2.025524378,2024-06-05 16:41:11.300732
46.34073151,-1.403689623,-20.00130463,-2.025524378,2024-06-05 16:41:11.340732
46.38073151,-1.403689623,-20.00130463,-2.025524378,2024-06-05 16:41:11.380732
46.42073151,2.938086987,-7.788936615,-0.9305089116,2024-06-05 16:41:11.420732
46.46073151,5.988636971,-6.919445038,2.837588549,2024-06-05 16:41:11.460732
46.50073151,2.960819006,-6.816254616,-3.703491211,2024-06-05 16:41:11.500732
46.54073151,2.960819006,-6.816254616,-3.703491211,2024-06-05 16:41:11.540732
46.58073151,-3.567997694,-11.68654537,-2.04586339,2024-06-05 16:41:11.580732
46.62073151,-5.695217133,-12.48544979,0.0143569354,2024-06-05 16:41:11.620732
46.66073151,1.268495083,-13.74527073,8.663214684,2024-06-05 16:41:11.660732
46.70073151,1.268495083,-13.74527073,8.663214684,2024-06-05 16:41:11.700732
46.74073151,1.268495083,-13.74527073,8.663214684,2024-06-05 16:41:11.740732
46.78073151,10.79521942,-20.23969078,-1.869691849,2024-06-05 16:41:11.780732
46.82073151,8.238189697,-11.56780243,3.316452265,2024-06-05 16:41:11.820732
46.86073151,-3.524926901,-7.233203888,-3.675973892,2024-06-05 16:41:11.860732
46.90073151,-5.963512421,-6.429514408,0.9786644578,2024-06-05 16:41:11.900732
46.94073151,-5.963512421,-6.429514408,0.9786644578,2024-06-05 16:41:11.940732
46.98073151,-5.963512421,-6.429514408,0.9786644578,2024-06-05 16:41:11.980732
47.02073151,-5.963512421,-6.429514408,0.9786644578,2024-06-05 16:41:12.020732
47.06073151,-5.963512421,-6.429514408,0.9786644578,2024-06-05 16:41:12.060732
47.10073151,-5.963512421,-6.429514408,0.9786644578,2024-06-05 16:41:12.100732
47.14073151,-5.963512421,-6.429514408,0.9786644578,2024-06-05 16:41:12.140732
47.18073151,11.76431274,-22.72493553,0.9954141974,2024-06-05 16:41:12.180732
47.22073151,11.76431274,-22.72493553,0.9954141974,2024-06-05 16:41:12.220732
47.26073151,11.76431274,-22.72493553,0.9954141974,2024-06-05 16:41:12.260732
47.30073151,11.76431274,-22.72493553,0.9954141974,2024-06-05 16:41:12.300732
47.34073151,4.710869789,-15.09871101,-3.079562664,2024-06-05 16:41:12.340732
47.38073151,-10.12223816,-16.01037598,-11.0060873,2024-06-05 16:41:12.380732
47.42073151,-4.540679932,-8.693124771,4.854438782,2024-06-05 16:41:12.420732
47.46073151,4.714458942,-8.903991699,-0.7881359458,2024-06-05 16:41:12.460732
47.50073151,2.941676378,-6.879963398,2.760719061,2024-06-05 16:41:12.500732
47.54073151,-0.1869392693,-9.093324661,0.003589233849,2024-06-05 16:41:12.540732
47.58073151,-0.1869392693,-9.093324661,0.003589233849,2024-06-05 16:41:12.580732
47.62073151,-0.1869392693,-9.093324661,0.003589233849,2024-06-05 16:41:12.620732
47.66073151,-2.421835661,-12.24347496,1.56191504,2024-06-05 16:41:12.660732
47.66073151,-2.421835661,-12.24347496,1.56191504,2024-06-05 16:41:12.660732
47.74073151,-1.947458506,-12.32483101,7.530212879,2024-06-05 16:41:12.740732
47.78073151,1.861316919,-14.3129673,-2.558525562,2024-06-05 16:41:12.780732
47.82073151,8.95543766,-15.01256943,-4.087838173,2024-06-05 16:41:12.820732
47.86073151,8.95543766,-15.01256943,-4.087838173,2024-06-05 16:41:12.860732
47.90073151,8.95543766,-15.01256943,-4.087838173,2024-06-05 16:41:12.900732
47.94073151,8.95543766,-15.01256943,-4.087838173,2024-06-05 16:41:12.940732
47.98073151,8.95543766,-15.01256943,-4.087838173,2024-06-05 16:41:12.980732
48.02073151,3.844667673,-1.185643673,-4.767100811,2024-06-05 16:41:13.020732
48.06073151,6.681059837,-1.22542429,-0.494716078,2024-06-05 16:41:13.060732
48.10073151,3.722633839,-10.50419235,8.094321251,2024-06-05 16:41:13.100732
48.14073151,-10.92233849,-25.93610382,14.61865044,2024-06-05 16:41:13.140732
48.18073151,-0.01794617064,-2.258824587,0.5688936114,2024-06-05 16:41:13.180732
48.22073151,-0.01794617064,-2.258824587,0.5688936114,2024-06-05 16:41:13.220732
48.26073151,3.435195923,-4.853242397,-14.31416416,2024-06-05 16:41:13.260732
48.30073151,3.435195923,-4.853242397,-14.31416416,2024-06-05 16:41:13.300732
48.34073151,7.677670479,-8.210671425,-0.4193421602,2024-06-05 16:41:13.340732
48.38073151,-3.747758389,-22.40758705,-11.47687435,2024-06-05 16:41:13.380732
48.42073151,-3.747758389,-22.40758705,-11.47687435,2024-06-05 16:41:13.420732
48.46073151,-3.747758389,-22.40758705,-11.47687435,2024-06-05 16:41:13.460732
48.50073151,-3.747758389,-22.40758705,-11.47687435,2024-06-05 16:41:13.500732
48.54073151,-3.747758389,-22.40758705,-11.47687435,2024-06-05 16:41:13.540732
48.58073151,-3.747758389,-22.40758705,-11.47687435,2024-06-05 16:41:13.580732
48.62073151,-3.747758389,-22.40758705,-11.47687435,2024-06-05 16:41:13.620732
48.66073151,-7.543373585,-12.73699474,-5.401797295,2024-06-05 16:41:13.660732
48.70073151,-7.543373585,-12.73699474,-5.401797295,2024-06-05 16:41:13.700732
48.74073151,-7.543373585,-12.73699474,-5.401797295,2024-06-05 16:41:13.740732
48.78073151,-7.543373585,-12.73699474,-5.401797295,2024-06-05 16:41:13.780732
48.82073151,-7.543373585,-12.73699474,-5.401797295,2024-06-05 16:41:13.820732
48.86073151,-7.543373585,-12.73699474,-5.401797295,2024-06-05 16:41:13.860732
48.90073151,-7.543373585,-12.73699474,-5.401797295,2024-06-05 16:41:13.900732
48.94073151,-8.817850113,-8.846564293,-6.291927338,2024-06-05 16:41:13.940732
48.98073151,-8.817850113,-8.846564293,-6.291927338,2024-06-05 16:41:13.980732
49.02073151,1.303191066,-3.119044304,-3.347857952,2024-06-05 16:41:14.020732
49.06073151,5.108377457,-0.5485545993,-4.49521637,2024-06-05 16:41:14.060732
49.10073151,4.022035599,-1.808674812,0.8012964725,2024-06-05 16:41:14.100732
49.14073151,-1.027717352,-21.20010948,21.60988045,2024-06-05 16:41:14.140732
49.18073151,-1.325922847,-13.40399456,5.359922886,2024-06-05 16:41:14.180732
49.22073151,-1.325922847,-13.40399456,5.359922886,2024-06-05 16:41:14.220732
49.26073151,-1.325922847,-13.40399456,5.359922886,2024-06-05 16:41:14.260732
49.30073151,-1.325922847,-13.40399456,5.359922886,2024-06-05 16:41:14.300732
49.34073151,5.58395052,-7.718348503,-2.635095835,2024-06-05 16:41:14.340732
49.38073151,-1.898405671,-22.95135689,-7.198507786,2024-06-05 16:41:14.380732
49.42073151,-1.898405671,-22.95135689,-7.198507786,2024-06-05 16:41:14.420732
49.46073151,-1.898405671,-22.95135689,-7.198507786,2024-06-05 16:41:14.460732
49.50073151,-1.898405671,-22.95135689,-7.198507786,2024-06-05 16:41:14.500732
49.54073151,-1.898405671,-22.95135689,-7.198507786,2024-06-05 16:41:14.540732
49.58073151,-1.898405671,-22.95135689,-7.198507786,2024-06-05 16:41:14.580732
49.62073151,-0.8443672657,-9.967601776,3.503391504,2024-06-05 16:41:14.620732
49.66073151,-0.8443672657,-9.967601776,3.503391504,2024-06-05 16:41:14.660732
49.70073151,-0.8443672657,-9.967601776,3.503391504,2024-06-05 16:41:14.700732
49.74073151,0.4145565331,-14.21366596,4.359723091,2024-06-05 16:41:14.740732
49.78073151,-3.913162231,-13.37408352,4.329812527,2024-06-05 16:41:14.780732
49.82073151,0.9053842425,-15.94098473,-3.345465183,2024-06-05 16:41:14.820732
49.86073151,11.06710339,-18.50160408,-1.166501045,2024-06-05 16:41:14.860732
49.90073151,6.648756981,-9.07059288,1.019342422,2024-06-05 16:41:14.900732
49.94073151,-2.818445921,-6.132505417,-6.795915604,2024-06-05 16:41:14.940732
49.98073151,-7.611568928,-6.151648045,3.365804195,2024-06-05 16:41:14.980732
50.02073151,-7.611568928,-6.151648045,3.365804195,2024-06-05 16:41:15.020732
50.06073151,5.233103275,-0.485144794,-4.249652863,2024-06-05 16:41:15.060732
50.10073151,3.607479334,-2.54656148,0.04546362907,2024-06-05 16:41:15.100732
50.14073151,-2.14157629,-23.14756775,24.14657211,2024-06-05 16:41:15.140732
50.18073151,-2.14157629,-23.14756775,24.14657211,2024-06-05 16:41:15.180732
50.22073151,-2.14157629,-23.14756775,24.14657211,2024-06-05 16:41:15.220732
50.26073151,-2.14157629,-23.14756775,24.14657211,2024-06-05 16:41:15.260732
50.30073151,-2.14157629,-23.14756775,24.14657211,2024-06-05 16:41:15.300732
50.34073151,-2.14157629,-23.14756775,24.14657211,2024-06-05 16:41:15.340732
50.38073151,-2.14157629,-23.14756775,24.14657211,2024-06-05 16:41:15.380732
50.42073151,-2.14157629,-23.14756775,24.14657211,2024-06-05 16:41:15.420732
50.46073151,-2.14157629,-23.14756775,24.14657211,2024-06-05 16:41:15.460732
50.50073151,-2.14157629,-23.14756775,24.14657211,2024-06-05 16:41:15.500732
50.54073151,-2.14157629,-23.14756775,24.14657211,2024-06-05 16:41:15.540732
50.58073151,0.8623134494,-11.50080299,0.06939185411,2024-06-05 16:41:15.580732
50.62073151,-1.215852976,-9.558130264,6.034399509,2024-06-05 16:41:15.620732
50.66073151,-3.793222189,-12.0912323,-0.01076770201,2024-06-05 16:41:15.660732
50.70073151,-3.793222189,-12.0912323,-0.01076770201,2024-06-05 16:41:15.700732
50.74073151,-3.793222189,-12.0912323,-0.01076770201,2024-06-05 16:41:15.740732
50.78073151,-2.01475668,-14.0494585,8.815457344,2024-06-05 16:41:15.780732
50.82073151,0.2575275302,-15.68943882,-4.183850288,2024-06-05 16:41:15.820732
50.86073151,10.49103165,-19.00349808,-2.065006018,2024-06-05 16:41:15.860732
50.90073151,9.442975044,-10.83470058,3.92392993,2024-06-05 16:41:15.900732
50.94073151,-1.104287624,-5.950351715,-5.071288586,2024-06-05 16:41:15.940732
50.98073151,-1.104287624,-5.950351715,-5.071288586,2024-06-05 16:41:15.980732
51.02073151,-1.104287624,-5.950351715,-5.071288586,2024-06-05 16:41:16.020732
51.06073151,-1.104287624,-5.950351715,-5.071288586,2024-06-05 16:41:16.060732
51.10073151,-1.104287624,-5.950351715,-5.071288586,2024-06-05 16:41:16.100732
51.14073151,2.462513685,-12.64576817,13.25683594,2024-06-05 16:41:16.140732
51.18073151,-4.035196304,-20.93420792,11.54148102,2024-06-05 16:41:16.180732
51.22073151,-4.035196304,-20.93420792,11.54148102,2024-06-05 16:41:16.220732
51.26073151,-4.035196304,-20.93420792,11.54148102,2024-06-05 16:41:16.260732
51.30073151,-4.035196304,-20.93420792,11.54148102,2024-06-05 16:41:16.300732
51.34073151,-4.035196304,-20.93420792,11.54148102,2024-06-05 16:41:16.340732
51.38073151,-4.035196304,-20.93420792,11.54148102,2024-06-05 16:41:16.380732
51.42073151,-10.86969566,-19.07408714,-14.29621792,2024-06-05 16:41:16.420732
51.46073151,-2.637488842,-8.438288689,11.40987587,2024-06-05 16:41:16.460732
51.50073151,4.623232365,-7.273881912,-2.996711254,2024-06-05 16:41:16.500732
51.54073151,4.623232365,-7.273881912,-2.996711254,2024-06-05 16:41:16.540732
51.58073151,0.643071115,-8.98803997,0.2491526604,2024-06-05 16:41:16.580732
51.62073151,-2.86630249,-10.95344448,2.539083958,2024-06-05 16:41:16.620732
51.66073151,-4.628017902,-12.79920864,0.7462615371,2024-06-05 16:41:16.660732
51.70073151,-2.761915445,-12.45912838,0.7498508096,2024-06-05 16:41:16.700732
51.74073151,1.909173369,-13.89990711,5.156233788,2024-06-05 16:41:16.740732
51.78073151,-3.764508247,-13.71296787,4.177868366,2024-06-05 16:41:16.780732
51.82073151,2.89980197,-15.87966824,-3.192025423,2024-06-05 16:41:16.820732
51.86073151,2.89980197,-15.87966824,-3.192025423,2024-06-05 16:41:16.860732
51.90073151,2.89980197,-15.87966824,-3.192025423,2024-06-05 16:41:16.900732
51.94073151,2.89980197,-15.87966824,-3.192025423,2024-06-05 16:41:16.940732
51.98073151,2.89980197,-15.87966824,-3.192025423,2024-06-05 16:41:16.980732
52.02073151,2.788236618,-3.16570425,-2.857927561,2024-06-05 16:41:17.020732
52.06073151,5.42572546,-1.104287624,-3.435195923,2024-06-05 16:41:17.060732
52.10073151,5.42572546,-1.104287624,-3.435195923,2024-06-05 16:41:17.100732
52.14073151,5.42572546,-1.104287624,-3.435195923,2024-06-05 16:41:17.140732
52.18073151,5.42572546,-1.104287624,-3.435195923,2024-06-05 16:41:17.180732
52.22073151,1.997707844,-1.141376376,-5.658128262,2024-06-05 16:41:17.220732
52.26073151,3.050549746,-30.1378994,25.53949356,2024-06-05 16:41:17.260732
52.30073151,3.050549746,-30.1378994,25.53949356,2024-06-05 16:41:17.300732
52.34073151,3.050549746,-30.1378994,25.53949356,2024-06-05 16:41:17.340732
52.38073151,6.289534092,-7.422535896,-1.144965649,2024-06-05 16:41:17.380732
52.42073151,-1.85294199,-19.67917252,-11.1188488,2024-06-05 16:41:17.420732
52.46073151,-5.456831932,-9.203393936,13.8233366,2024-06-05 16:41:17.460732
52.46073151,-5.456831932,-9.203393936,13.8233366,2024-06-05 16:41:17.460732
52.54073151,6.670292377,-7.067800045,3.310470104,2024-06-05 16:41:17.540732
52.58073151,1.213460207,-8.142177582,-2.072184324,2024-06-05 16:41:17.580732
52.62073151,1.213460207,-8.142177582,-2.072184324,2024-06-05 16:41:17.620732
52.66073151,1.213460207,-8.142177582,-2.072184324,2024-06-05 16:41:17.660732
52.70073151,1.213460207,-8.142177582,-2.072184324,2024-06-05 16:41:17.700732
52.74073151,1.213460207,-8.142177582,-2.072184324,2024-06-05 16:41:17.740732
52.78073151,-3.876971006,-15.21506214,6.149255276,2024-06-05 16:41:17.780732
52.82073151,-3.876971006,-15.21506214,6.149255276,2024-06-05 16:41:17.820732
52.86073151,-3.876971006,-15.21506214,6.149255276,2024-06-05 16:41:17.860732
52.90073151,-3.876971006,-15.21506214,6.149255276,2024-06-05 16:41:17.900732
52.94073151,-3.876971006,-15.21506214,6.149255276,2024-06-05 16:41:17.940732
52.98073151,-3.876971006,-15.21506214,6.149255276,2024-06-05 16:41:17.980732
53.02073151,1.316351533,-3.806382656,-2.644667149,2024-06-05 16:41:18.020732
53.06073151,2.889034271,-1.99651134,-3.576372623,2024-06-05 16:41:18.060732
53.10073151,4.722833633,-2.051845312,-2.23130703,2024-06-05 16:41:18.100732
53.14073151,1.965404749,-7.943572998,6.193522453,2024-06-05 16:41:18.140732
53.18073151,-7.744669437,-26.42723083,21.88176537,2024-06-05 16:41:18.180732
53.22073151,-7.744669437,-26.42723083,21.88176537,2024-06-05 16:41:18.220732
53.26073151,9.816853523,-13.52991676,-9.201001167,2024-06-05 16:41:18.260732
53.30073151,9.816853523,-13.52991676,-9.201001167,2024-06-05 16:41:18.300732
53.34073151,9.288638115,0.9379864931,-6.817451,2024-06-05 16:41:18.340732
53.38073151,6.043971062,-4.547858715,-0.5581258535,2024-06-05 16:41:18.380732
53.42073151,-3.64127779,-22.82064819,-7.521838188,2024-06-05 16:41:18.420732
53.46073151,-6.818647385,-9.408279419,8.038089752,2024-06-05 16:41:18.460732
53.50073151,-6.818647385,-9.408279419,8.038089752,2024-06-05 16:41:18.500732
53.54073151,-6.818647385,-9.408279419,8.038089752,2024-06-05 16:41:18.540732
53.58073151,-6.818647385,-9.408279419,8.038089752,2024-06-05 16:41:18.580732
53.62073151,-6.818647385,-9.408279419,8.038089752,2024-06-05 16:41:18.620732
53.66073151,-3.742972851,-12.35713387,3.500998735,2024-06-05 16:41:18.660732
53.70073151,-3.857828379,-12.62542915,0.3903291821,2024-06-05 16:41:18.700732
53.74073151,2.481656075,-12.92602825,10.40010452,2024-06-05 16:41:18.740732
53.78073151,2.481656075,-12.92602825,10.40010452,2024-06-05 16:41:18.780732
53.82073151,2.481656075,-12.92602825,10.40010452,2024-06-05 16:41:18.820732
53.86073151,12.0852499,-19.78924179,-1.751247048,2024-06-05 16:41:18.860732
53.90073151,7.215257645,-10.1772728,2.700898647,2024-06-05 16:41:18.900732
53.94073151,3.096312523,-7.842775345,-2.342872381,2024-06-05 16:41:18.940732
53.98073151,-4.92502737,-7.441678524,-2.371586323,2024-06-05 16:41:18.980732
54.02073151,-0.4277170599,-4.377668858,-0.7474579811,2024-06-05 16:41:19.020732
54.06073151,-0.4277170599,-4.377668858,-0.7474579811,2024-06-05 16:41:19.060732
54.10073151,-0.4277170599,-4.377668858,-0.7474579811,2024-06-05 16:41:19.100732
54.14073151,-0.4277170599,-4.377668858,-0.7474579811,2024-06-05 16:41:19.140732
54.18073151,-0.4277170599,-4.377668858,-0.7474579811,2024-06-05 16:41:19.180732
54.22073151,0.7642077208,-0.4863412082,-2.782254457,2024-06-05 16:41:19.220732
54.26073151,12.95713425,-25.13959312,0.2036890239,2024-06-05 16:41:19.260732
54.30073151,12.95713425,-25.13959312,0.2036890239,2024-06-05 16:41:19.300732
54.34073151,8.136195183,-0.007178467698,-3.032603502,2024-06-05 16:41:19.340732
54.38073151,8.136195183,-0.007178467698,-3.032603502,2024-06-05 16:41:19.380732
54.42073151,8.136195183,-0.007178467698,-3.032603502,2024-06-05 16:41:19.420732
54.46073151,8.136195183,-0.007178467698,-3.032603502,2024-06-05 16:41:19.460732
54.50073151,8.136195183,-0.007178467698,-3.032603502,2024-06-05 16:41:19.500732
54.54073151,8.136195183,-0.007178467698,-3.032603502,2024-06-05 16:41:19.540732
54.58073151,8.136195183,-0.007178467698,-3.032603502,2024-06-05 16:41:19.580732
54.62073151,-0.4169493318,-10.46231747,-2.100898266,2024-06-05 16:41:19.620732
54.66073151,-0.4169493318,-10.46231747,-2.100898266,2024-06-05 16:41:19.660732
54.70073151,-3.49382019,-12.55723381,-0.9978070259,2024-06-05 16:41:19.700732
54.74073151,2.86630249,-11.32104206,9.069396019,2024-06-05 16:41:19.740732
54.78073151,-3.968197346,-15.3035965,3.778865099,2024-06-05 16:41:19.780732
54.82073151,-2.26241374,-14.81007671,-3.867399693,2024-06-05 16:41:19.820732
54.86073151,12.44477177,-20.32583237,-4.630411148,2024-06-05 16:41:19.860732
54.90073151,8.095517159,-11.90190029,2.849552631,2024-06-05 16:41:19.900732
54.94073151,8.095517159,-11.90190029,2.849552631,2024-06-05 16:41:19.940732
54.98073151,8.095517159,-11.90190029,2.849552631,2024-06-05 16:41:19.980732
55.02073151,8.095517159,-11.90190029,2.849552631,2024-06-05 16:41:20.020732
55.06073151,3.111865759,0.5078766346,-5.172983646,2024-06-05 16:41:20.060732
55.10073151,4.279563427,-0.09930214286,-2.693720102,2024-06-05 16:41:20.100732
55.14073151,0.03948157281,-15.99003696,14.83639812,2024-06-05 16:41:20.140732
55.18073151,-1.528415442,-17.76610947,11.51755238,2024-06-05 16:41:20.180732
55.22073151,-1.528415442,-17.76610947,11.51755238,2024-06-05 16:41:20.220732
55.26073151,-1.528415442,-17.76610947,11.51755238,2024-06-05 16:41:20.260732
55.30073151,-1.528415442,-17.76610947,11.51755238,2024-06-05 16:41:20.300732
55.34073151,-1.528415442,-17.76610947,11.51755238,2024-06-05 16:41:20.340732
55.38073151,-1.528415442,-17.76610947,11.51755238,2024-06-05 16:41:20.380732
55.42073151,-1.528415442,-17.76610947,11.51755238,2024-06-05 16:41:20.420732
55.46073151,-1.528415442,-17.76610947,11.51755238,2024-06-05 16:41:20.460732
55.50073151,3.55244422,-7.233203888,-2.709273338,2024-06-05 16:41:20.500732
55.54073151,3.55244422,-7.233203888,-2.709273338,2024-06-05 16:41:20.540732
55.58073151,4.67587471,-6.859624386,6.066702843,2024-06-05 16:41:20.580732
55.62073151,4.67587471,-6.859624386,6.066702843,2024-06-05 16:41:20.620732
55.66073151,-0.8994022012,-11.51515961,3.510569811,2024-06-05 16:41:20.660732
55.70073151,-6.48933506,-13.49252892,0.3221337497,2024-06-05 16:41:20.700732
55.74073151,-6.48933506,-13.49252892,0.3221337497,2024-06-05 16:41:20.740732
55.78073151,-6.48933506,-13.49252892,0.3221337497,2024-06-05 16:41:20.780732
55.82073151,-0.8300103545,-12.97029495,3.981357813,2024-06-05 16:41:20.820732
55.86073151,-0.8300103545,-12.97029495,3.981357813,2024-06-05 16:41:20.860732
55.90073151,-0.8300103545,-12.97029495,3.981357813,2024-06-05 16:41:20.900732
55.94073151,-0.8300103545,-12.97029495,3.981357813,2024-06-05 16:41:20.940732
55.98073151,-0.8300103545,-12.97029495,3.981357813,2024-06-05 16:41:20.980732
56.02073151,-0.8300103545,-12.97029495,3.981357813,2024-06-05 16:41:21.020732
56.06073151,-0.8300103545,-12.97029495,3.981357813,2024-06-05 16:41:21.060732
56.10073151,-0.8300103545,-12.97029495,3.981357813,2024-06-05 16:41:21.100732
56.14073151,-0.8300103545,-12.97029495,3.981357813,2024-06-05 16:41:21.140732
56.18073151,-0.8300103545,-12.97029495,3.981357813,2024-06-05 16:41:21.180732
56.22073151,-0.8300103545,-12.97029495,3.981357813,2024-06-05 16:41:21.220732
56.26073151,-0.8300103545,-12.97029495,3.981357813,2024-06-05 16:41:21.260732
56.30073151,-0.8300103545,-12.97029495,3.981357813,2024-06-05 16:41:21.300732
56.34073151,11.25284672,0.4683950245,-3.1405797,2024-06-05 16:41:21.340732
56.38073151,8.694320679,-12.95234871,-1.718644857,2024-06-05 16:41:21.380732
56.42073151,-6.198307991,-23.37638092,-14.13230991,2024-06-05 16:41:21.420732
56.46073151,-3.813561201,-9.78096199,23.27229309,2024-06-05 16:41:21.460732
56.50073151,1.027717352,-7.531409264,-4.812564373,2024-06-05 16:41:21.500732
56.54073151,1.027717352,-7.531409264,-4.812564373,2024-06-05 16:41:21.540732
56.58073151,4.478466511,-4.284348965,1.371386528,2024-06-05 16:41:21.580732
56.62073151,4.478466511,-4.284348965,1.371386528,2024-06-05 16:41:21.620732
56.66073151,4.478466511,-4.284348965,1.371386528,2024-06-05 16:41:21.660732
56.70073151,4.478466511,-4.284348965,1.371386528,2024-06-05 16:41:21.700732
56.74073151,0.7845467329,-13.20628738,5.816353798,2024-06-05 16:41:21.740732
56.78073151,-5.217250824,-16.00798416,3.975375652,2024-06-05 16:41:21.780732
56.82073151,1.220638633,-13.14287758,1.299601793,2024-06-05 16:41:21.820732
56.86073151,7.467999458,-16.92533112,-2.923730135,2024-06-05 16:41:21.860732
56.90073151,7.467999458,-16.92533112,-2.923730135,2024-06-05 16:41:21.900732
56.94073151,7.467999458,-16.92533112,-2.923730135,2024-06-05 16:41:21.940732
56.98073151,7.467999458,-16.92533112,-2.923730135,2024-06-05 16:41:21.980732
57.02073151,-0.1414756328,-3.921537161,-1.166501045,2024-06-05 16:41:22.020732
57.06073151,-0.1414756328,-3.921537161,-1.166501045,2024-06-05 16:41:22.060732
57.10073151,6.248557091,1.380957723,-2.54656148,2024-06-05 16:41:22.100732
57.14073151,6.248557091,1.380957723,-2.54656148,2024-06-05 16:41:22.140732
57.18073151,-6.827321053,-31.63251686,20.62762642,2024-06-05 16:41:22.180732
57.22073151,1.719841242,-1.98813653,0.2491526604,2024-06-05 16:41:22.220732
57.26073151,3.058924675,-0.1749751568,2.976372242,2024-06-05 16:41:22.260732
57.30073151,3.058924675,-0.1749751568,2.976372242,2024-06-05 16:41:22.300732
57.34073151,3.058924675,-0.1749751568,2.976372242,2024-06-05 16:41:22.340732
57.38073151,7.283452988,-3.853042603,-1.310369492,2024-06-05 16:41:22.380732
57.42073151,8.09671402,-13.72493172,-3.26141715,2024-06-05 16:41:22.420732
57.46073151,-13.16082382,-20.05514336,-17.58305931,2024-06-05 16:41:22.460732
57.50073151,-5.542076111,-8.344670296,12.42533016,2024-06-05 16:41:22.500732
57.54073151,3.433999538,-8.553144455,-2.847159863,2024-06-05 16:41:22.540732
57.58073151,6.807879448,-7.035496712,6.303891182,2024-06-05 16:41:22.580732
57.62073151,6.807879448,-7.035496712,6.303891182,2024-06-05 16:41:22.620732
57.66073151,6.807879448,-7.035496712,6.303891182,2024-06-05 16:41:22.660732
57.70073151,6.807879448,-7.035496712,6.303891182,2024-06-05 16:41:22.700732
57.74073151,6.807879448,-7.035496712,6.303891182,2024-06-05 16:41:22.740732
57.78073151,-2.171486616,-14.41855145,4.32263422,2024-06-05 16:41:22.780732
57.82073151,-2.171486616,-14.41855145,4.32263422,2024-06-05 16:41:22.820732
57.86073151,-2.171486616,-14.41855145,4.32263422,2024-06-05 16:41:22.860732
57.90073151,-2.171486616,-14.41855145,4.32263422,2024-06-05 16:41:22.900732
57.94073151,-2.171486616,-14.41855145,4.32263422,2024-06-05 16:41:22.940732
57.98073151,-4.76949358,-7.308577538,-5.781657696,2024-06-05 16:41:22.980732
58.02073151,-7.733901978,-7.568498135,-1.179661512,2024-06-05 16:41:23.020732
58.06073151,0.7247261405,-4.604089737,-3.359822035,2024-06-05 16:41:23.060732
58.10073151,4.441378117,0.3963112533,-5.841478348,2024-06-05 16:41:23.100732
58.14073151,4.017250061,-1.313958764,-0.371186614,2024-06-05 16:41:23.140732
58.18073151,0.9257232547,-21.87697983,23.16820526,2024-06-05 16:41:23.180732
58.22073151,-0.9403793216,-13.12134171,3.783650875,2024-06-05 16:41:23.220732
58.26073151,2.111665964,0.9643075466,2.965604544,2024-06-05 16:41:23.260732
58.30073151,12.94277763,-26.1912384,9.381958008,2024-06-05 16:41:23.300732
58.34073151,6.372086525,-4.128516197,-15.26172161,2024-06-05 16:41:23.340732
58.38073151,6.372086525,-4.128516197,-15.26172161,2024-06-05 16:41:23.380732
58.42073151,6.372086525,-4.128516197,-15.26172161,2024-06-05 16:41:23.420732
58.46073151,6.372086525,-4.128516197,-15.26172161,2024-06-05 16:41:23.460732
58.50073151,6.372086525,-4.128516197,-15.26172161,2024-06-05 16:41:23.500732
58.54073151,6.372086525,-4.128516197,-15.26172161,2024-06-05 16:41:23.540732
58.58073151,5.091627598,-7.409375191,4.98275423,2024-06-05 16:41:23.580732
58.62073151,0.752243638,-7.824829102,-3.617349625,2024-06-05 16:41:23.620732
58.66073151,-0.7366902828,-11.53190994,6.415157318,2024-06-05 16:41:23.660732
58.70073151,-5.175376415,-13.03759289,-1.527219057,2024-06-05 16:41:23.700732
58.74073151,-5.175376415,-13.03759289,-1.527219057,2024-06-05 16:41:23.740732
58.78073151,-5.175376415,-13.03759289,-1.527219057,2024-06-05 16:41:23.780732
58.82073151,-3.981357813,-12.69601822,7.082156658,2024-06-05 16:41:23.820732
58.86073151,1.655235052,-14.78495216,-2.54656148,2024-06-05 16:41:23.860732
58.90073151,6.253343105,-16.25593948,-2.370389938,2024-06-05 16:41:23.900732
58.94073151,7.800900936,-15.99242973,3.172882795,2024-06-05 16:41:23.940732
58.98073151,7.800900936,-15.99242973,3.172882795,2024-06-05 16:41:23.980732
59.02073151,7.800900936,-15.99242973,3.172882795,2024-06-05 16:41:24.020732
59.06073151,-3.77647233,-6.107380867,-1.224227905,2024-06-05 16:41:24.060732
59.10073151,-3.77647233,-6.107380867,-1.224227905,2024-06-05 16:41:24.100732
59.14073151,5.239085197,0.02512463741,-4.812564373,2024-06-05 16:41:24.140732
59.18073151,2.823231697,-4.556233406,2.741576433,2024-06-05 16:41:24.180732
59.22073151,2.823231697,-4.556233406,2.741576433,2024-06-05 16:41:24.220732
59.26073151,2.823231697,-4.556233406,2.741576433,2024-06-05 16:41:24.260732
59.30073151,2.823231697,-4.556233406,2.741576433,2024-06-05 16:41:24.300732
59.34073151,2.823231697,-4.556233406,2.741576433,2024-06-05 16:41:24.340732
59.38073151,2.823231697,-4.556233406,2.741576433,2024-06-05 16:41:24.380732
59.42073151,5.479563713,-3.577569008,-1.849352837,2024-06-05 16:41:24.420732
59.46073151,4.564608097,-16.09651756,-2.811267614,2024-06-05 16:41:24.460732
59.50073151,4.564608097,-16.09651756,-2.811267614,2024-06-05 16:41:24.500732
59.54073151,4.564608097,-16.09651756,-2.811267614,2024-06-05 16:41:24.540732
59.58073151,4.564608097,-16.09651756,-2.811267614,2024-06-05 16:41:24.580732
59.62073151,4.564608097,-16.09651756,-2.811267614,2024-06-05 16:41:24.620732
59.66073151,2.091326952,-7.27866745,-4.448556423,2024-06-05 16:41:24.660732
59.70073151,0.2539383173,-10.84457111,9.632308006,2024-06-05 16:41:24.700732
59.74073151,0.2539383173,-10.84457111,9.632308006,2024-06-05 16:41:24.740732
59.78073151,-4.946562767,-12.81356525,1.168893814,2024-06-05 16:41:24.780732
59.82073151,-3.019443035,-15.97448444,2.566900492,2024-06-05 16:41:24.820732
59.86073151,-2.816053152,-12.71785259,6.847660065,2024-06-05 16:41:24.860732
59.90073151,3.170490026,-14.98385525,-2.342872381,2024-06-05 16:41:24.900732
59.94073151,9.918548584,-18.30389595,-1.028913736,2024-06-05 16:41:24.940732
59.98073151,8.227421761,-8.731708527,-0.152243346,2024-06-05 16:41:24.980732
60.02073151,8.227421761,-8.731708527,-0.152243346,2024-06-05 16:41:25.020732
60.06073151,8.227421761,-8.731708527,-0.152243346,2024-06-05 16:41:25.060732
60.10073151,8.227421761,-8.731708527,-0.152243346,2024-06-05 16:41:25.100732
60.14073151,8.227421761,-8.731708527,-0.152243346,2024-06-05 16:41:25.140732
60.18073151,8.227421761,-8.731708527,-0.152243346,2024-06-05 16:41:25.180732
60.22073151,8.227421761,-8.731708527,-0.152243346,2024-06-05 16:41:25.220732
60.26073151,8.227421761,-8.731708527,-0.152243346,2024-06-05 16:41:25.260732
60.30073151,4.140480518,-1.20867455,2.4158535,2024-06-05 16:41:25.300732
60.34073151,4.140480518,-1.20867455,2.4158535,2024-06-05 16:41:25.340732
60.38073151,4.140480518,-1.20867455,2.4158535,2024-06-05 16:41:25.380732
60.42073151,4.140480518,-1.20867455,2.4158535,2024-06-05 16:41:25.420732
60.46073151,4.302295208,-16.18385506,-4.158725739,2024-06-05 16:41:25.460732
60.50073151,-10.12223816,-15.41994762,-3.129812002,2024-06-05 16:41:25.500732
60.54073151,-4.773082733,-9.724431038,19.75574112,2024-06-05 16:41:25.540732
60.58073151,2.621935368,-6.213861465,-5.677270889,2024-06-05 16:41:25.580732
60.62073151,3.73699069,-8.939884186,1.16769743,2024-06-05 16:41:25.620732
60.66073151,2.510370016,-5.497808933,1.607378602,2024-06-05 16:41:25.660732
60.70073151,2.510370016,-5.497808933,1.607378602,2024-06-05 16:41:25.700732
60.74073151,-2.682952404,-10.97139072,8.8034935,2024-06-05 16:41:25.740732
60.78073151,-2.682952404,-10.97139072,8.8034935,2024-06-05 16:41:25.780732
60.82073151,1.037288666,-12.90209961,7.534998417,2024-06-05 16:41:25.820732
60.86073151,-1.756032705,-15.44148254,5.152644634,2024-06-05 16:41:25.860732
60.90073151,-3.631706476,-11.79541969,-1.313958764,2024-06-05 16:41:25.900732
60.94073151,-3.631706476,-11.79541969,-1.313958764,2024-06-05 16:41:25.940732
60.98073151,-3.631706476,-11.79541969,-1.313958764,2024-06-05 16:41:25.980732
61.02073151,-3.631706476,-11.79541969,-1.313958764,2024-06-05 16:41:26.020732
61.06073151,-3.631706476,-11.79541969,-1.313958764,2024-06-05 16:41:26.060732
61.10073151,-3.631706476,-11.79541969,-1.313958764,2024-06-05 16:41:26.100732
61.14073151,-3.631706476,-11.79541969,-1.313958764,2024-06-05 16:41:26.140732
61.18073151,-3.631706476,-11.79541969,-1.313958764,2024-06-05 16:41:26.180732
61.22073151,-3.631706476,-11.79541969,-1.313958764,2024-06-05 16:41:26.220732
61.26073151,-3.631706476,-11.79541969,-1.313958764,2024-06-05 16:41:26.260732
61.30073151,-3.631706476,-11.79541969,-1.313958764,2024-06-05 16:41:26.300732
61.34073151,-3.631706476,-11.79541969,-1.313958764,2024-06-05 16:41:26.340732
61.38073151,-3.631706476,-11.79541969,-1.313958764,2024-06-05 16:41:26.380732
61.42073151,-3.631706476,-11.79541969,-1.313958764,2024-06-05 16:41:26.420732
61.46073151,-3.631706476,-11.79541969,-1.313958764,2024-06-05 16:41:26.460732
61.50073151,-3.631706476,-11.79541969,-1.313958764,2024-06-05 16:41:26.500732
