Time (s),Gyroscope x (rad/s),Gyroscope y (rad/s),Gyroscope z (rad/s),Datetime
0.001231511,-0.009720250964,0.07896039635,0.5576494932,2024-06-05 16:40:25.001232
0.041666459,-0.1876141727,-0.4726971686,0.4734960794,2024-06-05 16:40:25.041666
0.082144584,-0.164179042,-0.3631113172,0.4468652606,2024-06-05 16:40:25.082145
0.122668907,0.1808233112,-0.09893351793,0.3488638103,2024-06-05 16:40:25.122669
0.207746719,-0.8042509556,-1.178014517,0.1695052087,2024-06-05 16:40:25.207747
0.248206146,-0.1812227666,-0.3647091687,0.2789579034,2024-06-05 16:40:25.248206
0.288744011,0.5515244007,0.05472634733,0.3933372796,2024-06-05 16:40:25.288744
0.329201407,0.2644441128,-0.5246272683,-0.1556571722,2024-06-05 16:40:25.329201
0.369677188,-0.9717588425,-1.129812717,-0.3603150845,2024-06-05 16:40:25.369677
0.410194323,-1.065232992,-1.101317763,0.05019910634,2024-06-05 16:40:25.410194
0.450663646,-0.3793561161,-0.5240946412,0.2438052148,2024-06-05 16:40:25.450664
0.491179792,-0.6380745769,-0.0621829778,0.3965329826,2024-06-05 16:40:25.491180
0.531675313,-1.402512431,-0.3018604219,0.8348763585,2024-06-05 16:40:25.531675
0.572176042,-2.193048477,0.06963960826,0.8577789068,2024-06-05 16:40:25.572176
0.612659219,-3.091572523,-0.6330147386,1.430208445,2024-06-05 16:40:25.612659
0.65315625,-3.272662163,-1.561764717,2.635786057,2024-06-05 16:40:25.653156
0.693649375,-1.729672074,-1.938457847,3.951082468,2024-06-05 16:40:25.693649
0.734141875,-0.2723001838,-1.772814035,3.534576416,2024-06-05 16:40:25.734142
0.774631667,1.001718521,0.4774906933,1.493057251,2024-06-05 16:40:25.774632
0.815131511,2.273873091,0.409848392,0.09280842543,2024-06-05 16:40:25.815132
0.855652396,3.038843393,1.879337311,0.3138442934,2024-06-05 16:40:25.855652
0.896125417,1.7427212,-0.09307473898,0.6532541513,2024-06-05 16:40:25.896125
0.936637813,-0.1854836941,0.08215609938,0.0544600375,2024-06-05 16:40:25.936638
0.977078907,-1.07362175,0.3597824574,-0.2150439173,2024-06-05 16:40:25.977079
1.017649948,-1.176683068,-0.5925358534,-0.01424749196,2024-06-05 16:40:26.017650
1.058158438,-0.3298227787,-0.6095796227,0.6031882167,2024-06-05 16:40:26.058158
1.098628229,0.1367492825,0.301194638,0.8636376858,2024-06-05 16:40:26.098628
1.139128438,0.1757634431,-0.5145075321,0.6593792439,2024-06-05 16:40:26.139128
1.179670417,1.232075095,-0.6607108116,0.004660394508,2024-06-05 16:40:26.179670
1.220086927,1.485733747,-0.5853455663,-0.5150401592,2024-06-05 16:40:26.220087
1.260573177,0.4061200917,-0.2632457018,-0.6841459274,2024-06-05 16:40:26.260573
1.301067917,0.59599787,0.3454017937,0.02489982173,2024-06-05 16:40:26.301068
1.341570938,0.8400694132,-0.5808182955,-0.24753353,2024-06-05 16:40:26.341571
1.382073854,0.6279548407,-0.5600462556,-0.2993304729,2024-06-05 16:40:26.382074
1.422566667,1.019294858,0.1090532318,0.1420754492,2024-06-05 16:40:26.422567
1.463054375,1.387466073,0.4932028949,-0.177760765,2024-06-05 16:40:26.463054
1.503549063,1.319690585,0.6026555896,-1.101317763,2024-06-05 16:40:26.503549
1.544069427,1.551778197,0.5680354834,-1.391061187,2024-06-05 16:40:26.544069
1.584526979,1.59278965,-0.3914731443,-0.6865426898,2024-06-05 16:40:26.584527
1.625025157,0.9907998443,0.004127778113,-0.3424724042,2024-06-05 16:40:26.625025
1.665526302,-0.01957365684,0.7350108027,-0.3150426745,2024-06-05 16:40:26.665526
1.706047032,-0.5954652429,0.4998605847,-0.2862813771,2024-06-05 16:40:26.706047
1.746479479,-0.941666007,1.143927097,-0.227560401,2024-06-05 16:40:26.746479
1.787006198,-0.9025186896,1.435002089,-0.2467346042,2024-06-05 16:40:26.787006
1.827514011,-0.2326202542,1.110105991,0.08961272985,2024-06-05 16:40:26.827514
1.868000469,0.1762960702,1.099720001,0.7493914366,2024-06-05 16:40:26.868000
1.908487448,-0.4953333437,1.037936449,0.8117075562,2024-06-05 16:40:26.908487
1.948978854,-1.32448411,-0.1183740199,1.170557976,2024-06-05 16:40:26.948979
1.989481198,-1.82367897,-0.5174369216,2.1796,2024-06-05 16:40:26.989481
2.029990261,-1.417691946,0.2527265251,2.433924198,2024-06-05 16:40:27.029990
2.070460677,1.570419788,0.6990591884,0.3343500197,2024-06-05 16:40:27.070461
2.110958177,0.8251561522,1.369223952,0.6087806821,2024-06-05 16:40:27.110958
2.151479792,0.8648360372,1.103181958,0.7485924959,2024-06-05 16:40:27.151480
2.191964532,0.0573894307,0.6308842301,1.111703873,2024-06-05 16:40:27.191965
2.23245375,-0.9672315717,0.6687000394,1.460833907,2024-06-05 16:40:27.232454
2.27294724,-1.246722102,1.12928021,1.739259243,2024-06-05 16:40:27.272947
2.313424011,-1.192661524,1.028082967,1.482937574,2024-06-05 16:40:27.313424
2.353916771,-0.6476616859,0.6958634853,1.040333152,2024-06-05 16:40:27.353917
2.394413802,-0.7131735086,0.5374100804,0.4383433759,2024-06-05 16:40:27.394414
2.434934896,-0.3157084286,0.3975982368,0.0731016174,2024-06-05 16:40:27.434935
2.475401615,0.04833494872,0.4881430268,-0.339276731,2024-06-05 16:40:27.475402
2.515894323,0.5145075321,1.141796589,-0.5765573978,2024-06-05 16:40:27.515894
2.556377396,-0.08322133124,0.5430025458,-0.1444722265,2024-06-05 16:40:27.556377
2.596894011,-0.07603100687,0.07896039635,0.000932078925,2024-06-05 16:40:27.596894
2.637420261,0.5142412186,-0.342605561,-0.1836195439,2024-06-05 16:40:27.637420
2.677873334,0.629552722,0.000133154128,-0.6817491055,2024-06-05 16:40:27.677873
2.71843099,0.5390079021,-0.2137123793,-0.8705616593,2024-06-05 16:40:27.718431
2.75882349,0.3113143444,-0.4034570158,-0.5461982489,2024-06-05 16:40:27.758823
2.799356094,0.8384715319,-1.124486566,-0.04966649041,2024-06-05 16:40:27.799356
2.839882136,1.111703873,-0.8362079263,-0.1066564545,2024-06-05 16:40:27.839882
2.880340834,1.172422051,-0.5549864173,-0.2070546746,2024-06-05 16:40:27.880341
2.920798073,0.8102428913,-0.4982627332,-0.0685743764,2024-06-05 16:40:27.920798
2.961320104,0.3536573648,-0.3165073693,0.05792204663,2024-06-05 16:40:27.961320
3.001868386,-0.2975994647,0.1681736708,0.5733616948,2024-06-05 16:40:28.001868
3.042334271,-0.2462019771,0.1796249151,0.4151745737,2024-06-05 16:40:28.042334
3.082814896,-0.433683008,0.5728290677,0.4548544884,2024-06-05 16:40:28.082815
3.123296511,-1.290929317,1.292260766,0.4961322844,2024-06-05 16:40:28.123297
3.163790417,-1.025553107,0.33474949,0.7973269224,2024-06-05 16:40:28.163790
3.204341407,-0.1489994675,-0.2001306564,0.9195623994,2024-06-05 16:40:28.204341
3.244784271,-0.4868114889,0.07869409025,0.5342143774,2024-06-05 16:40:28.244784
3.285290313,-1.383071899,-0.4817516208,0.703320086,2024-06-05 16:40:28.285290
3.325777188,-1.735530853,0.5528559685,0.108254306,2024-06-05 16:40:28.325777
3.366255521,-2.003703356,0.3579182923,0.2928059399,2024-06-05 16:40:28.366256
3.406865313,-1.915821552,0.9934629202,0.3576519787,2024-06-05 16:40:28.406865
3.447292813,-1.6073035,4.795279503,-1.425681233,2024-06-05 16:40:28.447293
3.487768021,-1.310636044,6.902443886,-2.245378017,2024-06-05 16:40:28.487768
3.528260834,-2.274272442,6.253317356,-2.424869776,2024-06-05 16:40:28.528261
3.56876349,-3.793960571,2.993038416,-1.064034581,2024-06-05 16:40:28.568763
3.609265782,-2.01142621,1.467092156,-0.5448666811,2024-06-05 16:40:28.609266
3.649745,-1.912625909,2.166018248,-1.158307791,2024-06-05 16:40:28.649745
3.690223907,-0.9752208591,0.7781527042,-0.8191642165,2024-06-05 16:40:28.690224
3.730732813,0.1765623689,-0.2022611201,-1.096524239,2024-06-05 16:40:28.730733
3.771224584,-0.0126496423,-0.1873478591,-0.7275541425,2024-06-05 16:40:28.771225
3.811700625,1.176416755,0.4412727654,-0.3717663288,2024-06-05 16:40:28.811701
3.852193177,1.1396662,0.9175651073,-0.5645735264,2024-06-05 16:40:28.852193
3.892699896,0.9681636691,1.025952578,-0.6513900161,2024-06-05 16:40:28.892700
3.933197917,0.1667089611,0.3312874734,-0.3730978668,2024-06-05 16:40:28.933198
3.973689948,-0.8133054376,0.04620448127,-0.4391423166,2024-06-05 16:40:28.973690
4.01417,-0.5464645624,0.1183740199,0.02676397935,2024-06-05 16:40:29.014170
4.054676667,-0.2635120153,0.482816875,0.07576470077,2024-06-05 16:40:29.054677
4.095174948,-0.01584534161,0.9055812359,-0.4340824485,2024-06-05 16:40:29.095175
4.135638646,0.04540555924,0.4348813891,-0.08828118443,2024-06-05 16:40:29.135639
4.176129844,-0.5070509315,0.4010602236,0.1364829838,2024-06-05 16:40:29.176130
4.216653334,-0.7746906877,0.3091838956,0.5049204826,2024-06-05 16:40:29.216653
4.257144323,-1.290130377,-0.06457975507,0.8564473391,2024-06-05 16:40:29.257144
4.297659167,-0.4057206213,0.08668334037,0.8292838931,2024-06-05 16:40:29.297659
4.338114011,1.089866519,0.7696308494,0.559779942,2024-06-05 16:40:29.338114
4.378601719,-0.5014584661,0.3568530679,0.859110415,2024-06-05 16:40:29.378602
4.419091719,-1.75017786,-0.2941374779,0.8798824549,2024-06-05 16:40:29.419092
4.459600052,-1.400648236,-0.4742949903,-0.1266295761,2024-06-05 16:40:29.459600
4.500109011,-0.6151720881,-0.2110492885,-0.6995918155,2024-06-05 16:40:29.500109
4.540608698,-0.2547238469,0.2075872868,-1.258972287,2024-06-05 16:40:29.540609
4.58108724,-0.5768237114,-0.1229012609,-2.705958128,2024-06-05 16:40:29.581087
4.621569844,-0.8303491473,-0.9304810166,-1.513429761,2024-06-05 16:40:29.621570
4.662068698,0.0323564522,1.226216316,-0.2267614752,2024-06-05 16:40:29.662069
4.702608073,-0.4966649115,1.11516583,0.07709623873,2024-06-05 16:40:29.702608
4.743082761,-0.4283568263,1.020892739,0.334882617,2024-06-05 16:40:29.743083
4.783557813,-0.09706936032,0.5874760151,0.3853480518,2024-06-05 16:40:29.783558
4.824051198,0.2045247406,0.5898727775,0.1287600398,2024-06-05 16:40:29.824051
4.864534844,0.5555190444,0.6881405115,-0.09866721183,2024-06-05 16:40:29.864535
4.905023073,0.4729634523,0.7453967929,-0.1151783243,2024-06-05 16:40:29.905023
4.945517448,-0.1484668553,-0.06165036187,-0.04220985994,2024-06-05 16:40:29.945517
4.986011823,-0.204924196,-0.9075785279,0.2773600519,2024-06-05 16:40:29.986012
5.026480938,-0.000133154128,-0.8135717511,0.1503310055,2024-06-05 16:40:30.026481
5.06700474,0.697461307,-1.772814035,-0.7179670334,2024-06-05 16:40:30.067005
5.107508802,1.262434244,-1.413431048,0.3292901516,2024-06-05 16:40:30.107509
5.148007865,1.431406856,-1.965354919,-0.2368811965,2024-06-05 16:40:30.148008
5.188499167,1.098654747,-1.895848513,-1.152715325,2024-06-05 16:40:30.188499
5.228989896,0.6074491143,-0.6457974911,-1.668687582,2024-06-05 16:40:30.228990
5.269484167,0.1675078869,-0.2842840552,-1.669486403,2024-06-05 16:40:30.269484
5.30997849,-0.7760222554,-0.9256874919,-0.8864070177,2024-06-05 16:40:30.309978
5.350440104,-1.374283791,-0.6322157979,-1.130079031,2024-06-05 16:40:30.350440
5.390958334,-1.410501719,-0.5027899742,-1.967219114,2024-06-05 16:40:30.390958
5.431443021,0.01185071748,-1.409170151,-0.8425993323,2024-06-05 16:40:30.431443
5.472039688,0.3770924807,0.4894745648,0.1463363916,2024-06-05 16:40:30.472040
5.512428229,-0.7027874589,1.368691325,-1.299717426,2024-06-05 16:40:30.512428
5.552970365,0.3914731443,-0.2251636237,-0.5989272594,2024-06-05 16:40:30.552970
5.593429896,0.4111799598,-0.1183740199,-0.008388710208,2024-06-05 16:40:30.593430
5.633917188,-0.8902685046,-1.653774261,0.06884068251,2024-06-05 16:40:30.633917
5.674402761,-0.9885362387,-0.2043915838,-1.675611496,2024-06-05 16:40:30.674403
5.714935521,-1.522617459,1.604773521,-2.804492235,2024-06-05 16:40:30.714936
5.755419792,-1.934463143,3.700752735,-4.351743221,2024-06-05 16:40:30.755420
5.795932761,1.19239521,-2.214353085,-1.543256402,2024-06-05 16:40:30.795933
5.836387917,-1.70783484,-1.591324925,-2.64270997,2024-06-05 16:40:30.836388
5.876869636,-2.482125998,-0.489208281,-3.842961311,2024-06-05 16:40:30.876870
5.917374115,-0.6591129303,-1.81249404,0.01451379992,2024-06-05 16:40:30.917374
5.957938907,0.08375394344,-1.793852448,-0.6772218943,2024-06-05 16:40:30.957939
5.998343854,-0.04407401755,1.093594909,-0.4676373005,2024-06-05 16:40:30.998344
6.038816354,0.7575138211,-0.3620460629,0.2709686458,2024-06-05 16:40:31.038816
6.079344792,1.844717264,-0.5509917736,0.6745588183,2024-06-05 16:40:31.079345
6.119845886,3.295431614,0.2407426685,0.7741581202,2024-06-05 16:40:31.119846
6.160331667,3.006620169,1.04246366,0.5256925225,2024-06-05 16:40:31.160332
6.200812032,1.706236959,0.4726971686,0.2086525112,2024-06-05 16:40:31.200812
6.241357865,1.942985058,-0.9693620801,-0.05872096866,2024-06-05 16:40:31.241358
6.281800157,0.9974575639,-0.6231613159,0.4306204617,2024-06-05 16:40:31.281800
6.322293073,1.134073734,-0.7003906965,1.062436819,2024-06-05 16:40:31.322293
6.362796979,0.7025212049,-1.360169411,0.9057143927,2024-06-05 16:40:31.362797
6.403293698,-0.2027937323,-1.283472657,0.5363448262,2024-06-05 16:40:31.403294
6.443810209,-0.8625724316,-1.283206344,-0.0171768833,2024-06-05 16:40:31.443810
6.484275209,-0.9198287129,-1.340462565,-0.5387415886,2024-06-05 16:40:31.484275
6.524778021,0.1560566425,-0.4703003764,-0.0171768833,2024-06-05 16:40:31.524778
6.565257969,0.6170362234,-0.8724258542,0.7286193967,2024-06-05 16:40:31.565258
6.6057475,-0.3950682878,-0.9861394763,-0.2408758104,2024-06-05 16:40:31.605747
6.646243802,-0.1972012669,-0.5608451962,-0.1750976741,2024-06-05 16:40:31.646244
6.686770782,-0.7153039575,-0.5680354834,0.1636464298,2024-06-05 16:40:31.686771
6.727297084,-1.342060447,-0.351660043,-0.2118482143,2024-06-05 16:40:31.727297
6.767723646,-0.7312824726,-0.5177032351,-0.7925333977,2024-06-05 16:40:31.767724
6.808217448,-1.037536979,-2.600899696,-0.687607944,2024-06-05 16:40:31.808217
6.848711198,-1.232341409,-0.4460663199,0.3284912407,2024-06-05 16:40:31.848711
6.889221094,-1.401979804,-0.2496639937,0.4252942801,2024-06-05 16:40:31.889221
6.929714375,-0.910774231,1.148720622,0.2102503628,2024-06-05 16:40:31.929714
6.970208542,-1.054314375,0.5981283188,-0.2115819156,2024-06-05 16:40:31.970209
7.010691563,-1.155378342,-0.07283531129,-0.4354139864,2024-06-05 16:40:32.010692
7.051189219,-0.7131735086,-0.2078536004,-0.48468104,2024-06-05 16:40:32.051189
7.091698282,-0.1697715074,0.01051917579,-0.4197018147,2024-06-05 16:40:32.091698
7.132174167,-0.07443315536,0.02569874749,-0.0621829778,2024-06-05 16:40:32.132174
7.172659271,0.5294207931,-0.02703028731,0.418902874,2024-06-05 16:40:32.172659
7.213152969,2.206496954,0.1998643428,0.7067821026,2024-06-05 16:40:32.213153
7.253657865,3.134714365,1.306907773,0.5091813803,2024-06-05 16:40:32.253658
7.294173438,2.50982213,1.866288304,0.537676394,2024-06-05 16:40:32.294173
7.33464099,1.684399724,1.74937892,0.5459319353,2024-06-05 16:40:32.334641
7.3751475,1.465494275,0.9876041412,0.5840139985,2024-06-05 16:40:32.375147
7.415641459,1.325815678,-0.079493016,0.8407351375,2024-06-05 16:40:32.415641
7.456131927,0.9551145434,-0.6828143597,0.9489894509,2024-06-05 16:40:32.456132
7.496633854,0.2290250957,-1.081877232,0.8186315894,2024-06-05 16:40:32.496634
7.537095417,-0.6596455574,-1.068561912,0.3226324618,2024-06-05 16:40:32.537095
7.577584063,-1.202514887,-1.539661169,-0.2573869228,2024-06-05 16:40:32.577584
7.61807599,-1.063368917,-1.064300895,-0.3826849759,2024-06-05 16:40:32.618076
7.658589427,0.9157009125,0.1942718774,0.7813484073,2024-06-05 16:40:32.658589
7.699087084,0.2809551954,-0.7192986012,0.1924077123,2024-06-05 16:40:32.699087
7.739580677,-0.6441996694,-0.2664414048,-0.5435351729,2024-06-05 16:40:32.739581
7.780103073,0.002529928461,0.4223648906,0.1894783229,2024-06-05 16:40:32.780103
7.820599375,-2.326868296,0.4844147265,-0.499594301,2024-06-05 16:40:32.820599
7.861081459,-2.485055447,2.649367571,-1.234471917,2024-06-05 16:40:32.861081
7.901572396,-1.888658166,-1.06323576,-1.062170506,2024-06-05 16:40:32.901572
7.942041407,-1.398517847,0.3097164929,0.003595161485,2024-06-05 16:40:32.942041
7.982535834,-1.86149466,1.230743647,0.5834813714,2024-06-05 16:40:32.982536
8.023046563,-1.776808739,1.354310632,0.1809564531,2024-06-05 16:40:33.023047
8.063529688,-1.159373045,1.442325473,-0.2225005478,2024-06-05 16:40:33.063530
8.104006146,-1.495986581,0.8523195982,-0.3395430148,2024-06-05 16:40:33.104006
8.144494375,-0.9544488192,0.800788939,-0.5613778234,2024-06-05 16:40:33.144494
8.18500875,-0.3703016341,0.5760247707,-0.6497921348,2024-06-05 16:40:33.185009
8.225520573,-0.235283345,0.5214315653,0.1742987484,2024-06-05 16:40:33.225521
8.265996927,0.6026555896,0.6705641747,0.4790885448,2024-06-05 16:40:33.265997
8.30647974,2.182262897,0.9756202698,0.8724258542,2024-06-05 16:40:33.306480
8.346970573,3.107817411,1.28294003,0.9019860625,2024-06-05 16:40:33.346971
8.387467761,2.420608997,2.656957388,0.5640408993,2024-06-05 16:40:33.387468
8.427946823,1.574947,1.51635921,0.5469971299,2024-06-05 16:40:33.427947
8.468462188,1.945381761,0.3925383687,0.3077192008,2024-06-05 16:40:33.468462
8.508993334,1.313032866,-0.4945344329,0.6516563296,2024-06-05 16:40:33.508993
8.549500104,1.060572624,-0.9459269047,1.114100575,2024-06-05 16:40:33.549500
8.589956615,0.4718982279,-1.176949382,0.7624405622,2024-06-05 16:40:33.589957
8.630410729,-0.6426018476,-1.552177668,0.149265781,2024-06-05 16:40:33.630411
8.670941198,-1.469888449,-2.040453911,-0.3869459033,2024-06-05 16:40:33.670941
8.711393073,-0.6002588272,-0.7366086245,-0.2070546746,2024-06-05 16:40:33.711393
8.751885677,1.125818133,-0.2669740319,1.103448272,2024-06-05 16:40:33.751886
8.792412865,-0.1287600398,-0.8399362564,-0.05818835273,2024-06-05 16:40:33.792413
8.832861042,-0.4932028949,0.3326190114,-0.2793573737,2024-06-05 16:40:33.832861
8.873368229,-0.409715265,0.7344781756,0.1724345982,2024-06-05 16:40:33.873368
8.91385849,-2.493044853,-0.1282274276,-0.7693645358,2024-06-05 16:40:33.913858
8.954357136,-1.999974966,1.771748781,-1.555772781,2024-06-05 16:40:33.954357
8.994877761,-1.761096478,-2.10277009,-1.14259553,2024-06-05 16:40:33.994878
9.035308854,-0.9821448326,-0.351660043,0.08135717362,2024-06-05 16:40:34.035309
9.075852917,-1.803972125,0.6945319176,0.5307523608,2024-06-05 16:40:34.075853
9.116328177,-1.625146151,1.533669233,0.1202381775,2024-06-05 16:40:34.116328
9.156850104,-0.9619054198,0.9974575639,-0.2908086181,2024-06-05 16:40:34.156850
9.197314844,-1.428344369,0.321167767,-0.4340824485,2024-06-05 16:40:34.197315
9.237810209,-0.4878767133,0.7392717004,-0.697461307,2024-06-05 16:40:34.237810
9.278279427,-0.1255643368,0.2383458912,-0.3722989559,2024-06-05 16:40:34.278279
9.318830677,0.0573894307,0.3722989559,0.2707023323,2024-06-05 16:40:34.318831
9.35926625,1.209705234,0.6109111309,0.4149082601,2024-06-05 16:40:34.359266
9.399816094,3.054289341,0.5850792527,0.9163666964,2024-06-05 16:40:34.399816
9.440280209,3.310344696,0.1356840581,1.068295598,2024-06-05 16:40:34.440280
9.480795782,1.745650649,3.165872574,0.5944000483,2024-06-05 16:40:34.480796
9.521255261,1.446852803,0.8717600703,0.6684337258,2024-06-05 16:40:34.521255
9.561766667,1.557104349,-0.367105931,0.6042534113,2024-06-05 16:40:34.561767
9.602232396,1.255244017,-1.122356176,1.037670135,2024-06-05 16:40:34.602232
9.642749584,1.360169411,-1.561764717,0.8953283429,2024-06-05 16:40:34.642750
9.683225417,0.3174394369,-1.35937047,0.5946663618,2024-06-05 16:40:34.683225
9.723728177,-0.9222254753,-1.683068156,-0.01078548469,2024-06-05 16:40:34.723728
9.764211667,-1.378811002,-1.628741264,-0.5882749557,2024-06-05 16:40:34.764212
9.804732709,0.3784240186,0.1545919478,0.2304897904,2024-06-05 16:40:34.804733
9.845243282,0.5043878555,-0.7746906877,0.5754921436,2024-06-05 16:40:34.845243
9.885725625,-0.6862763762,-1.142329216,-0.3344831765,2024-06-05 16:40:34.885726
9.926210834,0.4798874855,0.9034507871,0.2155765295,2024-06-05 16:40:34.926211
9.966710209,-1.140198827,-0.6396724582,0.0355521515,2024-06-05 16:40:34.966710
10.00718615,-2.0633564,0.6087806821,-0.8866733313,2024-06-05 16:40:35.007186
10.04763969,-1.97574091,-0.342605561,-1.710231662,2024-06-05 16:40:35.047640
10.08818099,-1.132475853,-1.272287726,-0.2211690098,2024-06-05 16:40:35.088181
10.12871651,-1.646983385,-0.8404688835,0.546730876,2024-06-05 16:40:35.128717
10.16913016,-1.745650649,-0.2408758104,0.2938711643,2024-06-05 16:40:35.169130
10.20964885,-0.9802806973,0.1511299312,0.02037258074,2024-06-05 16:40:35.209649
10.25013552,-0.9216928482,0.1189066395,-0.09760197252,2024-06-05 16:40:35.250136
10.29065229,-0.8647028804,-0.1199718714,-0.4543218911,2024-06-05 16:40:35.290652
10.33115068,-0.4243622124,0.2593842447,-0.504121542,2024-06-05 16:40:35.331151
10.37161677,0.03954677656,0.04380770773,-0.3533910513,2024-06-05 16:40:35.371617
10.41211245,0.2745638192,0.1671084315,0.2246310115,2024-06-05 16:40:35.412112
10.45261969,1.223819613,0.7227606177,0.273365438,2024-06-05 16:40:35.452620
10.49310583,2.62073946,0.02197043039,0.7022548914,2024-06-05 16:40:35.493106
10.53360729,3.146432161,-1.188400626,0.8631050587,2024-06-05 16:40:35.533607
10.5740999,2.857221365,-0.3463338912,0.6252917647,2024-06-05 16:40:35.574100
10.61461422,1.406640172,2.012225151,0.01797580719,2024-06-05 16:40:35.614614
10.65509292,0.9079779983,1.44658649,0.5214315653,2024-06-05 16:40:35.655093
10.69556932,0.8320801258,-0.21264714,0.6039870977,2024-06-05 16:40:35.695569
10.73604016,0.9801475406,-0.5422036052,0.8037183285,2024-06-05 16:40:35.736040
10.776565,0.288944453,-1.054447532,0.4420717061,2024-06-05 16:40:35.776565
10.81705026,-0.4812190235,-1.411034346,-0.1423417628,2024-06-05 16:40:35.817050
10.85753464,-0.4579170346,-1.855103254,-0.8481917977,2024-06-05 16:40:35.857535
10.89803391,0.2652430236,-1.514894485,-0.2493976802,2024-06-05 16:40:35.898034
10.93851703,0.5014584661,-0.5600462556,0.5840139985,2024-06-05 16:40:35.938517
10.97901859,0.2122476846,0.1814890802,0.3986634612,2024-06-05 16:40:35.979019
11.01948135,-0.6750914454,-0.8609746099,0.1769618392,2024-06-05 16:40:36.019481
11.05997771,0.0952052027,0.1865489334,-0.1849510819,2024-06-05 16:40:36.059978
11.10047755,-0.5142412186,-0.6484606266,-0.4982627332,2024-06-05 16:40:36.100478
11.14098755,-1.277347565,-0.7142387629,-0.6428681016,2024-06-05 16:40:36.140988
11.1814927,-1.719286084,-0.1375482082,0.05019910634,2024-06-05 16:40:36.181493
11.22196307,-1.210770488,-0.3135779798,0.5033226013,2024-06-05 16:40:36.221963
11.26244713,-1.272820354,0.03182383627,0.209451437,2024-06-05 16:40:36.262447
11.30294635,-0.7770875096,-0.06431344151,-0.133819893,2024-06-05 16:40:36.302946
11.3434564,-0.8580452204,0.6015903354,-0.1511299312,2024-06-05 16:40:36.343456
11.38394974,-0.9318125844,0.4436695576,-0.21264714,2024-06-05 16:40:36.383950
11.42444182,-0.758179605,-0.2086525112,-0.3384777904,2024-06-05 16:40:36.424442
11.46492927,-0.3244965971,-0.1713693589,-0.2525933683,2024-06-05 16:40:36.464929
11.50540927,-0.2392779738,0.03874785081,-0.1545919478,2024-06-05 16:40:36.505409
11.5458975,-0.1189066395,0.6338136196,0.003595161485,2024-06-05 16:40:36.545898
11.58639396,0.4061200917,0.727820456,0.1210371032,2024-06-05 16:40:36.586394
11.626895,1.427412271,1.065099835,0.2451367527,2024-06-05 16:40:36.626895
11.66739166,2.020880222,1.005979419,0.1207707971,2024-06-05 16:40:36.667392
11.70788651,1.638594747,1.773346663,-0.04513924941,2024-06-05 16:40:36.707887
11.74835458,1.450581074,1.098654747,-0.1636464298,2024-06-05 16:40:36.748355
11.78883354,0.8722926974,0.7696308494,0.159651801,2024-06-05 16:40:36.788834
11.82934354,0.3243634701,0.7675004005,0.4641752839,2024-06-05 16:40:36.829344
11.86985406,-0.07230269164,-0.3452686667,0.4612458944,2024-06-05 16:40:36.869854
11.91038505,-0.3071865737,-1.158041477,0.1543256342,2024-06-05 16:40:36.910385
11.9508364,-0.7296846509,-1.103714585,0.03608476743,2024-06-05 16:40:36.950836
11.9913402,-1.420621395,-1.487731099,-0.001198387123,2024-06-05 16:40:36.991340
12.03184062,-0.8822792768,-2.33166194,-0.1375482082,2024-06-05 16:40:37.031841
12.07233823,0.3616466224,-0.440207541,-0.2416747361,2024-06-05 16:40:37.072338
12.11281281,-0.8199630976,0.3201025128,-0.159651801,2024-06-05 16:40:37.112813
12.15328614,0.146070078,-0.9555140138,-0.4407401681,2024-06-05 16:40:37.153286
12.19380125,-0.5765573978,-0.8202294111,-0.2286256403,2024-06-05 16:40:37.193801
12.23429463,-0.7467283607,0.1295589656,0.09893351793,2024-06-05 16:40:37.234295
12.27476625,-0.2813546658,0.009453942999,-0.1189066395,2024-06-05 16:40:37.274766
12.3152889,-0.2994636297,-0.7848104239,-0.1511299312,2024-06-05 16:40:37.315289
12.35577666,-0.1932066381,-0.5496602654,-0.06963960826,2024-06-05 16:40:37.355777
12.39630099,0.03475322574,0.33474949,-0.0731016174,2024-06-05 16:40:37.396301
12.43674244,-0.08375394344,-0.084020257,-0.04114462435,2024-06-05 16:40:37.436742
12.47725781,0.03182383627,-0.167374745,-0.07762885839,2024-06-05 16:40:37.477258
12.51772968,0.1151783243,-0.3173062801,-0.08055824786,2024-06-05 16:40:37.517730
12.55821297,0.1794917583,-0.4282236695,-0.01957365684,2024-06-05 16:40:37.558213
12.59868234,0.278025806,-0.3625786901,0.03022598661,2024-06-05 16:40:37.598682
12.63924791,0.4186365902,-0.2232994735,0.1053249165,2024-06-05 16:40:37.639248
12.67971093,0.4798874855,0.213978678,0.1993317306,2024-06-05 16:40:37.679711
12.72017635,0.7254236937,0.6647053957,0.208119899,2024-06-05 16:40:37.720176
12.76072515,1.530207276,1.12262249,0.2328865677,2024-06-05 16:40:37.760725
12.80118396,2.257095575,0.6932004094,0.522763133,2024-06-05 16:40:37.801184
12.84167562,2.095180273,1.187601686,0.5936011076,2024-06-05 16:40:37.841676
12.8821539,1.286934614,0.8143706322,0.03741630912,2024-06-05 16:40:37.882154
12.92263739,0.2548570037,0.5310186744,-0.2142449915,2024-06-05 16:40:37.922637
12.96317692,-0.3836170435,0.4495283365,-0.06884068251,2024-06-05 16:40:37.963177
13.00366187,-1.060173154,0.2958684862,-0.1268958896,2024-06-05 16:40:38.003662
13.04415026,-1.478410244,0.2580527067,-0.2804225981,2024-06-05 16:40:38.044150
13.08461755,-1.271488786,-0.3801550269,-0.4423380196,2024-06-05 16:40:38.084618
13.12511312,-0.9848079085,-0.5645735264,-0.6471290588,2024-06-05 16:40:38.125113
13.16564463,-0.1436733007,-0.1063901484,-0.1015966013,2024-06-05 16:40:38.165645
13.20609026,0.03368799388,0.1644453406,0.1830869317,2024-06-05 16:40:38.206090
13.24661364,-0.1420754492,-0.7398043275,0.03475322574,2024-06-05 16:40:38.246614
13.28709661,-0.3226324618,0.0171768833,-0.06457975507,2024-06-05 16:40:38.287097
13.32756323,-0.6553846002,-0.4561860561,-0.01877473295,2024-06-05 16:40:38.327563
13.36806015,-0.4488625526,-0.6857437491,0.1087869257,2024-06-05 16:40:38.368060
13.40861713,-0.2579195499,-0.4740287066,-0.01691057347,2024-06-05 16:40:38.408617
13.44901187,-0.1282274276,-1.001185894,-0.22303316,2024-06-05 16:40:38.449012
13.489595,-0.343937099,-0.1221023351,0.04726971686,2024-06-05 16:40:38.489595
13.53006135,-0.6665695906,0.3677717149,0.3555215299,2024-06-05 16:40:38.530061
13.57052953,-0.593334794,0.4423380196,0.3189041317,2024-06-05 16:40:38.570530
13.61102739,-0.6527215242,0.4069190025,0.21264714,2024-06-05 16:40:38.611027
13.65151146,-0.6426018476,0.8760210276,0.1500647068,2024-06-05 16:40:38.651511
13.69202239,-0.6388735175,0.4985290468,0.04114462435,2024-06-05 16:40:38.692022
13.73252067,-0.8511211872,0.1300915778,0.02596505545,2024-06-05 16:40:38.732521
13.77300604,-0.788538754,0.590139091,-0.07283531129,2024-06-05 16:40:38.773006
13.81351067,-0.6151720881,0.2110492885,-0.2041252851,2024-06-05 16:40:38.813511
13.85398698,-0.5555190444,0.2833519876,-0.1276948154,2024-06-05 16:40:38.853987
13.89448515,-0.4657731354,0.6993255019,0.03901416063,2024-06-05 16:40:38.894485
13.9349714,-0.2485987544,0.3949351311,-0.05898727849,2024-06-05 16:40:38.934971
13.97544505,0.1468690038,0.06750914454,-0.01691057347,2024-06-05 16:40:38.975445
14.01594093,0.1348851323,0.01957365684,0.3509942889,2024-06-05 16:40:39.015941
14.05644494,0.2053236663,1.061904192,0.1516625583,2024-06-05 16:40:39.056445
14.09692739,1.371487498,1.52301693,-0.1197055578,2024-06-05 16:40:39.096927
14.13741521,2.332194567,0.9660332203,-0.1276948154,2024-06-05 16:40:39.137415
14.17791849,2.607956648,0.6865426898,0.03368799388,2024-06-05 16:40:39.177918
14.21844239,1.958164573,0.8507217169,0.084020257,2024-06-05 16:40:39.218442
14.25893468,1.296255469,0.5107792616,0.1061238423,2024-06-05 16:40:39.258935
14.2993864,0.7993242145,0.2386122048,0.3138442934,2024-06-05 16:40:39.299386
14.33989255,0.2354165018,-0.02303566411,0.5275566578,2024-06-05 16:40:39.339893
14.38037515,-0.1633801162,-0.5736280084,0.6077154279,2024-06-05 16:40:39.380375
14.42086994,-0.3170399666,-0.8620398045,0.3627118468,2024-06-05 16:40:39.420870
14.46142151,-0.4913387299,-0.908111155,0.02543243766,2024-06-05 16:40:39.461422
14.50189614,-0.2206363827,-0.9813459516,-0.1993317306,2024-06-05 16:40:39.501896
14.54236593,0.1399449855,-0.6961297989,-0.08934641629,2024-06-05 16:40:39.542366
14.58285244,0.3336842358,-0.1527277827,0.004394086078,2024-06-05 16:40:39.582852
14.6233364,0.5965304971,-0.09760197252,0.4340824485,2024-06-05 16:40:39.623336
14.66382432,0.4186365902,-0.5970631242,0.5390079021,2024-06-05 16:40:39.663824
14.70433021,-0.08748225868,-1.299451113,0.1671084315,2024-06-05 16:40:39.704330
14.74483015,-0.4419385493,-1.766955256,-0.09919982404,2024-06-05 16:40:39.744830
14.7853426,-0.5398068428,-1.958164573,-0.1274285018,2024-06-05 16:40:39.785343
14.8258376,0.4173050225,-0.9946613312,0.1303578913,2024-06-05 16:40:39.825838
14.86629604,-0.2997299433,-0.9861394763,-0.2030600458,2024-06-05 16:40:39.866296
14.90677109,-0.2483324558,-1.937658906,-0.2328865677,2024-06-05 16:40:39.906771
14.94728588,0.1877473146,-1.503709555,-0.01398118306,2024-06-05 16:40:39.947286
14.98777682,0.6553846002,-1.754438758,0.1543256342,2024-06-05 16:40:39.987777
15.02826312,0.2886781394,-1.965354919,0.1956034154,2024-06-05 16:40:40.028263
15.06874609,-0.05951989442,-1.089600205,0.2097177505,2024-06-05 16:40:40.068746
15.10922698,-0.1886793971,-0.4665720761,0.2776263654,2024-06-05 16:40:40.109227
15.14978333,-0.1862826198,-0.3567199111,0.2075872868,2024-06-05 16:40:40.149783
15.1902251,-0.2070546746,-0.4119788706,0.02356828004,2024-06-05 16:40:40.190225
15.23071578,-0.2342181057,-0.5552527308,-0.07816147059,2024-06-05 16:40:40.230716
15.27121442,-0.2105166763,-0.4676373005,0.09813459218,2024-06-05 16:40:40.271214
15.31170682,-0.2973331809,-0.3173062801,0.24753353,2024-06-05 16:40:40.311707
15.35217901,-0.4392754734,-0.0003994623839,0.3039908707,2024-06-05 16:40:40.352179
15.39268541,-0.4889419675,0.005193010904,0.3252955377,2024-06-05 16:40:40.392685
15.4331925,-0.5182358623,0.1601844132,0.2451367527,2024-06-05 16:40:40.433193
15.47366265,-0.4536561072,0.2774932086,0.0166442655,2024-06-05 16:40:40.473663
15.51423687,-0.07816147059,0.2134460658,-0.09627043456,2024-06-05 16:40:40.514237
15.55467515,0.3824186623,-0.0243672058,0.1103847697,2024-06-05 16:40:40.554675
15.59514531,0.8200962543,-0.08828118443,-0.05499265343,2024-06-05 16:40:40.595145
15.63564687,1.578409076,0.1825543046,-0.1727008969,2024-06-05 16:40:40.635647
15.67615119,2.368412495,0.08615072072,-0.2336854935,2024-06-05 16:40:40.676151
15.71666724,2.647636652,0.1458037645,-0.06165036187,2024-06-05 16:40:40.716667
15.75710776,2.350836039,0.08162347972,0.06511236727,2024-06-05 16:40:40.757108
15.7976038,1.35937047,0.004926702939,0.268838197,2024-06-05 16:40:40.797604
15.83808104,0.6982602477,-0.5043878555,0.5147738457,2024-06-05 16:40:40.838081
15.87863125,0.2250304818,-0.9155677557,0.7565817833,2024-06-05 16:40:40.878631
15.91905744,-0.151928857,-1.170824289,1.005979419,2024-06-05 16:40:40.919057
15.95961687,-0.239810586,-1.106111288,0.9481905699,2024-06-05 16:40:40.959617
16.00008427,-0.3103822768,-1.23393929,0.7579132915,2024-06-05 16:40:41.000084
16.04058656,-0.2691044807,-0.984541595,0.3991960883,2024-06-05 16:40:41.040587
16.08106536,-0.1575213373,-0.5185021758,0.06910699606,2024-06-05 16:40:41.081065
16.12153781,0.8179658055,0.3291569948,-0.1676410437,2024-06-05 16:40:41.121538
16.16204515,0.8424661756,0.2697702646,-0.1154446304,2024-06-05 16:40:41.162045
16.20252151,0.1707035899,0.3571193814,0.2246310115,2024-06-05 16:40:41.202522
16.24305286,0.316107899,-0.06591129303,0.07682993263,2024-06-05 16:40:41.243053
16.28352338,-0.1910761744,-0.8521864414,0.2099840641,2024-06-05 16:40:41.283523
16.32403057,-0.6034545302,-1.554308176,0.07177007198,2024-06-05 16:40:41.324031
16.3645213,-0.8702954054,-1.500780225,-0.3062545061,2024-06-05 16:40:41.364521
16.40502416,-1.584134698,-0.7467283607,-0.3264939189,2024-06-05 16:40:41.405024
16.4454926,-0.4352808297,0.3794892728,-0.6087806821,2024-06-05 16:40:41.445493
16.48606838,0.2897433937,-0.8953283429,-0.2302234918,2024-06-05 16:40:41.486068
16.52647604,-0.3591166735,-0.7997236848,-0.03368799388,2024-06-05 16:40:41.526476
16.56701291,-0.6971949935,-0.7765548825,0.2890776098,2024-06-05 16:40:41.567013
16.6074364,-0.4288894534,0.01371487509,0.1902772486,2024-06-05 16:40:41.607436
16.64796557,-0.4398080707,0.2719007432,0.1300915778,2024-06-05 16:40:41.647966
16.68841838,-0.4552539587,-0.5374100804,-0.03475322574,2024-06-05 16:40:41.688418
16.72896927,-0.4499278069,-0.2259625494,0.1066564545,2024-06-05 16:40:41.728969
16.76942468,-0.6657706499,0.2431394309,0.227560401,2024-06-05 16:40:41.769425
16.80994812,-0.5107792616,0.04460663348,0.1418091506,2024-06-05 16:40:41.809948
16.85044838,-0.4328840673,0.04354140162,0.1697715074,2024-06-05 16:40:41.850448
16.89093547,-0.4625774324,0.1671084315,0.1412765235,2024-06-05 16:40:41.890935
16.9314263,-0.4517919421,-0.01291595027,0.09360735118,2024-06-05 16:40:41.931426
16.97189885,-0.4857462645,-0.01797580719,0.09866721183,2024-06-05 16:40:41.971899
17.01240505,-0.5190348029,-0.1420754492,0.02223674022,2024-06-05 16:40:42.012405
17.05286927,-0.5328828096,-0.02703028731,-0.07603100687,2024-06-05 16:40:42.052869
17.09336713,-0.5256925225,-0.1197055578,-0.1852173954,2024-06-05 16:40:42.093367
17.13385656,-0.5693670511,-0.05685681105,-0.1660431921,2024-06-05 16:40:42.133857
17.17435901,-0.5547201037,0.2386122048,-0.07283531129,2024-06-05 16:40:42.174359
17.2148402,-0.3505948186,0.2113156021,-0.1503310055,2024-06-05 16:40:42.214840
17.25534505,0.2460688353,0.09334104508,-0.1809564531,2024-06-05 16:40:42.255345
17.29581781,0.1736329794,0.1055912226,0.2640446424,2024-06-05 16:40:42.295818
17.3363151,0.6881405115,1.122356176,0.1199718714,2024-06-05 16:40:42.336315
17.37681546,1.604773521,1.583735228,-0.09467258304,2024-06-05 16:40:42.376815
17.41729687,2.24484539,1.245656848,-0.07496577501,2024-06-05 16:40:42.417297
17.45778651,2.254698753,1.790390372,0.2957353294,2024-06-05 16:40:42.457787
17.49830432,1.574414372,1.695850968,0.614639461,2024-06-05 16:40:42.498304
17.53881239,0.3997286856,1.4428581,0.8330122232,2024-06-05 16:40:42.538812
17.57928656,0.04220985994,0.3246297538,1.097589493,2024-06-05 16:40:42.579287
17.61974432,0.05659050494,-0.3758940995,0.9764192104,2024-06-05 16:40:42.619744
17.66023828,0.1802906841,-1.343125701,0.813039124,2024-06-05 16:40:42.660238
17.70073375,0.1133141592,-1.646317601,0.4790885448,2024-06-05 16:40:42.700734
17.74122729,-0.1892120093,-1.102383018,0.06431344151,2024-06-05 16:40:42.741227
17.78177302,-0.2198374718,-0.7467283607,-0.1814890802,2024-06-05 16:40:42.781773
17.82224166,0.004127778113,-0.8644366264,-0.2862813771,2024-06-05 16:40:42.822242
17.86272468,0.08694964647,-0.510512948,-0.2900096774,2024-06-05 16:40:42.862725
17.90320755,0.2588516176,-0.8785509467,0.09866721183,2024-06-05 16:40:42.903208
17.94371265,0.559779942,-0.9363398552,0.4316856861,2024-06-05 16:40:42.943713
17.98419625,0.3304885328,-1.319956899,0.1849510819,2024-06-05 16:40:42.984196
18.02467479,-0.2797568142,-1.774145603,-0.1937392503,2024-06-05 16:40:43.024675
18.06519119,-0.9621717334,-1.691323757,-0.3629781604,2024-06-05 16:40:43.065191
18.10567052,-0.2083862126,-0.4109136462,0.177760765,2024-06-05 16:40:43.105671
18.1461563,-0.3165073693,-0.3748288751,0.08854749799,2024-06-05 16:40:43.146156
18.18665187,-1.013036609,-0.2464682907,-0.3965329826,2024-06-05 16:40:43.186652
18.22714776,-0.7206301689,0.3054555655,-0.8095771074,2024-06-05 16:40:43.227148
18.26764682,-0.5334154367,-1.089600205,-0.2286256403,2024-06-05 16:40:43.267647
18.30814682,-0.8527190089,-0.359382987,0.02250304818,2024-06-05 16:40:43.308147
18.34867385,-0.8947957158,0.427957356,0.2209026963,2024-06-05 16:40:43.348674
18.38918984,-0.8234251142,0.6636402011,0.4428706169,2024-06-05 16:40:43.389190
18.42962588,-1.084540367,0.9681636691,0.3912068307,2024-06-05 16:40:43.429626
18.47006963,-1.156177282,1.112769008,0.2999962568,2024-06-05 16:40:43.470070
18.51060067,-0.7523208261,1.247521043,0.2177069932,2024-06-05 16:40:43.510601
18.55108239,-0.4134435654,0.3746957183,0.01877473295,2024-06-05 16:40:43.551082
18.59157765,-1.10105145,0.7051842809,0.1657768935,2024-06-05 16:40:43.591578
18.63213526,-1.118361473,0.5336817503,0.01904104091,2024-06-05 16:40:43.632135
18.6725488,-0.74592942,0.4047885537,-0.06697652489,2024-06-05 16:40:43.672549
18.71305646,-0.6716294289,0.5264914036,-0.03928046674,2024-06-05 16:40:43.713056
18.7535264,-0.4171718955,0.7216953635,-0.07416684926,2024-06-05 16:40:43.753526
18.79407057,-0.1553908736,0.3933372796,0.1521951705,2024-06-05 16:40:43.794071
18.83452838,0.7406032681,0.1402112991,0.6726946831,2024-06-05 16:40:43.834528
18.87501067,2.238986731,1.182808161,0.4955996573,2024-06-05 16:40:43.875011
18.91553323,3.017538786,2.245644331,0.1402112991,2024-06-05 16:40:43.915533
18.95599588,2.337786913,2.349770784,0.02303566411,2024-06-05 16:40:43.955996
18.99654114,1.841521621,2.116751194,-0.05472634733,2024-06-05 16:40:43.996541
19.03699281,1.707568526,1.297853231,-0.1295589656,2024-06-05 16:40:44.036993
19.07748646,1.421553493,0.7858756781,0.2568543255,2024-06-05 16:40:44.077486
19.11800974,0.9268859029,0.6215634942,0.5906717181,2024-06-05 16:40:44.118010
19.15843286,0.641802907,-0.3226324618,0.2840177417,2024-06-05 16:40:44.158433
19.1989264,-0.2446041405,-0.7115756869,-0.0731016174,2024-06-05 16:40:44.198926
19.23943885,-1.264564753,-0.6447322965,-0.2732322812,2024-06-05 16:40:44.239439
19.27996812,-1.459502339,-0.7224943042,-0.4854799509,2024-06-05 16:40:44.279968
19.32042812,-0.252060771,0.3374125659,-0.1101184636,2024-06-05 16:40:44.320428
19.36092885,0.3174394369,-0.4332835376,0.4303541481,2024-06-05 16:40:44.360929
19.40145317,-0.9701609612,-0.2027937323,-0.2123808414,2024-06-05 16:40:44.401453
19.44193562,-2.537251949,-0.1854836941,-0.5648398399,2024-06-05 16:40:44.441936
19.48241198,-1.218227148,2.208094835,0.008655018173,2024-06-05 16:40:44.482412
19.52288588,-1.664826035,0.02969337068,-0.3019935489,2024-06-05 16:40:44.522886
19.56337796,-1.301048994,0.9540493488,-0.77042979,2024-06-05 16:40:44.563378
19.60388,-1.548183084,-0.2922733128,-0.296667397,2024-06-05 16:40:44.603880
19.64438494,-1.644852996,1.035007,0.5059856772,2024-06-05 16:40:44.644385
19.68485609,-1.68413341,1.740324497,0.6609770656,2024-06-05 16:40:44.684856
19.72536765,-1.999442339,2.362287283,0.7938649058,2024-06-05 16:40:44.725368
19.7658313,-1.770151019,1.70783484,0.3250292242,2024-06-05 16:40:44.765831
19.80628932,-1.231542587,1.512630939,-0.1713693589,2024-06-05 16:40:44.806289
19.84682609,-1.001319051,1.043262601,-0.3901416063,2024-06-05 16:40:44.846826
19.8873813,-0.4798874855,0.7943975329,-0.307053417,2024-06-05 16:40:44.887381
19.92783448,-0.4565854967,0.9489894509,0.03635107726,2024-06-05 16:40:44.927834
19.96829323,0.2189053893,1.038469076,0.2288919389,2024-06-05 16:40:44.968293
20.00877869,1.597316861,0.8525858521,1.041398406,2024-06-05 16:40:45.008779
20.04927422,3.156285524,1.246455789,1.163633943,2024-06-05 16:40:45.049274
20.08979062,2.900363207,1.782933831,0.7749570012,2024-06-05 16:40:45.089791
20.13027406,1.726476431,2.003703356,0.5283555984,2024-06-05 16:40:45.130274
20.1707727,2.052038193,0.8069140315,0.3189041317,2024-06-05 16:40:45.170773
20.21124885,1.875342727,-0.256588012,0.507317245,2024-06-05 16:40:45.211249
20.25174396,1.69372046,-1.195058346,1.026751518,2024-06-05 16:40:45.251744
20.29223187,1.59651804,-1.886527658,0.8021204472,2024-06-05 16:40:45.292232
20.33273817,0.4684362113,-2.231263638,0.2392779738,2024-06-05 16:40:45.332738
20.37321604,-0.611443758,-2.373738527,-0.2222342342,2024-06-05 16:40:45.373216
20.41372156,-0.2874797583,-2.305031061,-0.6814828515,2024-06-05 16:40:45.413722
20.45422541,1.21609664,-1.175884128,0.3512606025,2024-06-05 16:40:45.454225
20.49469119,0.5858781338,-1.027284145,0.4937354922,2024-06-05 16:40:45.494691
20.53519672,-0.9270190597,-0.08535179496,-0.3304885328,2024-06-05 16:40:45.535197
20.57570218,-0.2387453467,1.554707646,-0.02276935615,2024-06-05 16:40:45.575702
20.61618968,-2.257228851,1.703307629,-0.4181039631,2024-06-05 16:40:45.616190
20.65669276,-3.051892519,3.188508749,-1.520620108,2024-06-05 16:40:45.656693
20.69717786,-2.92805934,-0.5776225924,-0.8689638376,2024-06-05 16:40:45.697178
20.73765073,-2.81927228,1.038469076,0.2856155932,2024-06-05 16:40:45.737651
20.77816286,-2.328466177,1.09812212,0.6953308582,2024-06-05 16:40:45.778163
20.81864896,-2.242315531,2.263487101,0.4958659708,2024-06-05 16:40:45.818649
20.85917687,-1.526878357,1.616224766,-0.0006657706108,2024-06-05 16:40:45.859177
20.89962922,-1.396653652,1.615958452,-0.1745650619,2024-06-05 16:40:45.899629
20.9401125,-0.8692301512,0.6545857191,-0.4793548584,2024-06-05 16:40:45.940113
20.98064078,-0.1761629134,0.413044095,-0.5728290677,2024-06-05 16:40:45.980641
21.02112588,-0.2904091477,0.2500634491,0.3063876629,2024-06-05 16:40:46.021126
21.06162541,0.8070471883,0.4697677493,0.6212971807,2024-06-05 16:40:46.061625
21.10211026,2.666278362,0.8768199086,1.250716686,2024-06-05 16:40:46.102110
21.14256958,3.469863415,0.8954614997,1.354843259,2024-06-05 16:40:46.142570
21.18308437,2.540181398,2.081332207,0.7169018388,2024-06-05 16:40:46.183084
21.22358547,1.532870293,2.543643236,0.1913424879,2024-06-05 16:40:46.223585
21.26407765,1.411966324,0.4900071919,0.02037258074,2024-06-05 16:40:46.264078
21.30458573,0.9425980449,0.02543243766,1.093861103,2024-06-05 16:40:46.304586
21.34503323,1.564028382,-1.620752096,0.929415822,2024-06-05 16:40:46.345033
21.38552838,0.6689663529,-1.97281158,0.414375633,2024-06-05 16:40:46.385528
21.42603265,-1.02794981,-2.096112251,-0.1889457107,2024-06-05 16:40:46.426033
21.46651682,-1.769618392,-1.269091964,-0.5371437669,2024-06-05 16:40:46.466517
21.50699291,0.6263570189,-0.2525933683,0.2267614752,2024-06-05 16:40:46.506993
21.54748791,0.863504529,-1.235537171,0.5712311864,2024-06-05 16:40:46.547488
21.58798593,-0.6063839197,-0.4191691875,-0.4713656008,2024-06-05 16:40:46.587986
21.62853463,0.2940043211,1.710497975,0.2587184608,2024-06-05 16:40:46.628535
21.66904786,-1.644852996,-0.1367492825,-0.04460663348,2024-06-05 16:40:46.669048
21.70956416,-2.309824705,1.528343081,-1.129812717,2024-06-05 16:40:46.709564
21.74995687,-1.856168509,0.918630302,-2.183860779,2024-06-05 16:40:46.749957
21.79045479,-2.044981003,-1.823945284,-0.323830843,2024-06-05 16:40:46.790455
21.83091432,-1.792254567,0.672960937,0.5555190444,2024-06-05 16:40:46.830914
21.87144984,-1.84365201,0.7086462975,0.5789541602,2024-06-05 16:40:46.871450
21.9119239,-1.15378046,1.179878712,0.133819893,2024-06-05 16:40:46.911924
21.95239823,-1.223286986,0.3746957183,-0.3981308341,2024-06-05 16:40:46.952398
21.99292911,-1.185737491,0.2950695455,-0.6452649236,2024-06-05 16:40:46.992929
22.03339005,-0.05552527308,0.650857389,-0.6833469868,2024-06-05 16:40:47.033390
22.07388677,-0.1497983932,0.1205044836,-0.01557903271,2024-06-05 16:40:47.073887
22.11439354,0.5382089615,0.2998631001,0.4612458944,2024-06-05 16:40:47.114394
22.15485885,2.385722399,0.4356803,0.8961272836,2024-06-05 16:40:47.154859
22.19536281,3.477053642,0.5637745857,1.188134313,2024-06-05 16:40:47.195363
22.23587666,2.718208313,1.348718166,0.4798874855,2024-06-05 16:40:47.235877
22.27634333,1.252314568,2.613948584,0.5730953813,2024-06-05 16:40:47.276343
22.31685203,1.769618392,0.03794892505,0.156456098,2024-06-05 16:40:47.316852
22.3573463,1.025952578,-0.01637795754,0.7690982223,2024-06-05 16:40:47.357346
22.39783812,1.208107352,-1.049654007,0.9620385766,2024-06-05 16:40:47.397838
22.43828177,0.5033226013,-1.345788717,0.874556303,2024-06-05 16:40:47.438282
22.47886661,-1.025286794,-1.426480174,0.2715012729,2024-06-05 16:40:47.478867
22.51934963,-1.687861681,-1.647382855,-0.6077154279,2024-06-05 16:40:47.519350
22.55980192,-0.2414084375,-0.6492595077,-0.146070078,2024-06-05 16:40:47.559802
22.60025427,1.154046774,-0.908111155,0.9022523761,2024-06-05 16:40:47.600254
22.64078515,0.1541924775,-0.6745588183,-0.1295589656,2024-06-05 16:40:47.640785
22.68127416,0.778285861,0.8794830441,0.1793586165,2024-06-05 16:40:47.681274
22.72177479,-1.59984684,-0.1905435622,-0.5824161768,2024-06-05 16:40:47.721775
22.76223703,-2.13685751,0.9692289233,-1.925142407,2024-06-05 16:40:47.762237
22.80276015,-1.806368947,-0.226228863,-1.773080349,2024-06-05 16:40:47.802760
22.84324187,-1.375349045,-0.3079854846,0.1561897993,2024-06-05 16:40:47.843242
22.88372224,-2.385456085,0.6455312371,0.6652380228,2024-06-05 16:40:47.883722
22.92420026,-1.538063288,0.331553787,0.0685743764,2024-06-05 16:40:47.924200
22.96470156,-1.24139595,1.271222472,0.03581846133,2024-06-05 16:40:47.964702
23.00522109,-1.346055031,0.5019910336,-0.308917582,2024-06-05 16:40:48.005221
23.04566953,-0.9147688746,0.1881467849,-0.4689688385,2024-06-05 16:40:48.045670
23.08620385,-0.3117138147,-0.1300915778,-0.3765598834,2024-06-05 16:40:48.086204
23.1266789,0.0432750918,-0.1916087866,-0.1934729517,2024-06-05 16:40:48.126679
23.1671914,0.8829450011,-0.2105166763,0.617302537,2024-06-05 16:40:48.167191
23.20765114,2.439516783,0.5685681105,1.12928021,2024-06-05 16:40:48.207651
23.24814031,3.36041069,0.8427324891,0.9448617101,2024-06-05 16:40:48.248140
23.28864317,2.171610594,1.040066838,-0.0467370972,2024-06-05 16:40:48.288643
23.32909854,2.522604942,0.3422061205,-0.1900109351,2024-06-05 16:40:48.329099
23.36962807,2.391314983,-0.7070484161,-0.04567186534,2024-06-05 16:40:48.369628
23.41010593,1.837526917,-0.8809477091,0.7712287307,2024-06-05 16:40:48.410106
23.45061224,0.547529757,-0.233951807,1.335935354,2024-06-05 16:40:48.450612
23.49109755,-0.9137036204,-0.2019948065,1.139399886,2024-06-05 16:40:48.491098
23.53158927,-1.754438758,-0.1995980442,0.5776225924,2024-06-05 16:40:48.531589
23.57209057,-1.060972095,-0.5094476938,-0.3435376585,2024-06-05 16:40:48.572091
23.61257869,0.1901440918,0.3565867543,0.1793586165,2024-06-05 16:40:48.612579
23.65306078,0.6090469956,-0.8282186985,0.5744268894,2024-06-05 16:40:48.653061
23.69355922,-1.190797329,0.04167724028,-0.05232957378,2024-06-05 16:40:48.693559
23.73407093,-0.2768274248,0.8026530743,-0.2838846147,2024-06-05 16:40:48.734071
23.77458411,-0.6793523431,-0.4897408783,0.2864145339,2024-06-05 16:40:48.774584
23.81508833,-1.355908513,0.7651036382,-0.5406057835,2024-06-05 16:40:48.815088
23.85555911,-1.368158698,3.086778879,-1.758433461,2024-06-05 16:40:48.855559
23.89602083,-2.308226824,-1.235270858,-0.7166355252,2024-06-05 16:40:48.896021
23.93649916,-2.394244432,1.340462565,-0.5725627542,2024-06-05 16:40:48.936499
23.97699224,-0.8085118532,0.6109111309,-0.08987903595,2024-06-05 16:40:48.976992
24.01748781,-0.6849448085,0.1838858575,-0.1098521575,2024-06-05 16:40:49.017488
24.0579826,-0.7145050764,0.1508636326,-0.297998935,2024-06-05 16:40:49.057983
24.09848875,-1.081611037,-0.3463338912,-0.3459344208,2024-06-05 16:40:49.098489
24.13899146,-1.105046153,0.5744268894,-0.4061200917,2024-06-05 16:40:49.138991
24.17947474,-0.02276935615,0.3342168629,-0.3802881837,2024-06-05 16:40:49.179475
24.21995937,0.3986634612,0.5792204738,0.2057231218,2024-06-05 16:40:49.219959
24.26043578,1.542191148,0.9599081278,1.3074404,2024-06-05 16:40:49.260436
24.30093948,3.538304567,0.2189053893,1.008642554,2024-06-05 16:40:49.300939
24.34143593,3.233914375,0.779484272,0.9001219273,2024-06-05 16:40:49.341436
24.38193239,1.546984673,0.2426068187,0.1391460598,2024-06-05 16:40:49.381932
24.42243203,1.419689298,0.237813279,0.3467333615,2024-06-05 16:40:49.422432
24.46290724,0.7366086245,-0.2286256403,1.211835742,2024-06-05 16:40:49.462907
24.50340796,0.7926664948,-1.277347565,1.245656848,2024-06-05 16:40:49.503408
24.54390875,0.6045197248,-1.834863901,0.8077129126,2024-06-05 16:40:49.543909
24.58440979,-0.06564498693,-1.498649716,0.1572550237,2024-06-05 16:40:49.584410
24.62488869,-0.8716269135,-1.152449012,-0.1367492825,2024-06-05 16:40:49.624889
24.66536125,-0.513176024,-0.8026530743,-0.2640446424,2024-06-05 16:40:49.665361
24.70585166,1.102383018,-0.7656362653,0.6761566401,2024-06-05 16:40:49.705852
24.74633797,-0.1178414002,-0.0464707911,0.64499861,2024-06-05 16:40:49.746338
24.78682713,0.7118419409,0.4756265581,-0.1452711523,2024-06-05 16:40:49.786827
24.82733427,-0.1649779677,-0.2512618303,-0.9870715737,2024-06-05 16:40:49.827334
24.86785229,-1.527410984,0.2647103965,-2.131930828,2024-06-05 16:40:49.867852
24.90832047,-2.550301075,0.09946613014,0.2374138087,2024-06-05 16:40:49.908320
24.94883119,-2.229266405,0.1692388952,1.099453688,2024-06-05 16:40:49.948831
24.98934229,-2.558556557,1.12555182,0.1476679295,2024-06-05 16:40:49.989342
25.02983505,-1.844450951,0.6055849791,-0.3462007344,2024-06-05 16:40:50.029835
25.07028396,-1.296521783,0.4633763731,-0.2589847744,2024-06-05 16:40:50.070284
25.1108064,-1.280010581,0.8914669156,-0.6053186655,2024-06-05 16:40:50.110806
25.15131083,-1.123953938,0.04753602296,-0.8103760481,2024-06-05 16:40:50.151311
25.19179078,-0.5371437669,0.4862788618,-0.5544537902,2024-06-05 16:40:50.191791
25.23229994,-0.06777545065,0.1769618392,-0.05605788901,2024-06-05 16:40:50.232300
25.27273755,1.127416015,0.1061238423,0.3906742036,2024-06-05 16:40:50.272738
25.31325651,2.986647129,0.5730953813,1.213699818,2024-06-05 16:40:50.313257
25.35373625,3.458145857,0.8669665456,1.159639359,2024-06-05 16:40:50.353736
25.39423843,2.26934576,0.5616441369,0.4327509105,2024-06-05 16:40:50.394238
25.43472297,2.053369761,1.709432721,0.1098521575,2024-06-05 16:40:50.434723
25.47522057,1.21316731,-0.1647116542,-0.208119899,2024-06-05 16:40:50.475221
25.5157139,0.006790860556,0.2758953571,1.329543948,2024-06-05 16:40:50.515714
25.55620593,0.687607944,-1.093594909,0.8822792768,2024-06-05 16:40:50.556206
25.59669416,0.211981371,-2.38146162,0.2683055699,2024-06-05 16:40:50.596694
25.63718099,-1.180677652,-2.339651108,-0.3395430148,2024-06-05 16:40:50.637181
25.67765515,-0.6013240218,-1.086937189,-0.3805544972,2024-06-05 16:40:50.677655
25.71815765,0.8347432017,-0.02862813696,1.024887323,2024-06-05 16:40:50.718158
25.75874854,0.1669752747,-0.4913387299,0.5107792616,2024-06-05 16:40:50.758749
25.79913213,-0.2837514579,-0.4327509105,-0.1500647068,2024-06-05 16:40:50.799132
25.83961526,0.3970656097,0.2769605815,0.782679975,2024-06-05 16:40:50.839615
25.88012666,-1.678674102,0.4231638312,-0.565638721,2024-06-05 16:40:50.880127
25.92074031,-1.543655753,3.077724457,-1.293858647,2024-06-05 16:40:50.920740
25.96109562,-2.674666882,-0.04833494872,-0.8018541336,2024-06-05 16:40:50.961096
26.00161343,-0.9605738521,1.100518823,-0.5419372916,2024-06-05 16:40:51.001613
26.04210604,-0.4395417869,-0.3420729637,-0.3677717149,2024-06-05 16:40:51.042106
26.0825801,-0.3119801283,-0.2225005478,-0.08162347972,2024-06-05 16:40:51.082580
26.12306885,-1.111437559,1.309837103,0.693466723,2024-06-05 16:40:51.123069
26.16354609,-1.613694906,1.942718744,0.816234827,2024-06-05 16:40:51.163546
26.20407463,-1.156443596,-1.119160414,-0.705716908,2024-06-05 16:40:51.204075
26.24452906,-1.011172414,-0.5493939519,-1.64179039,2024-06-05 16:40:51.244529
26.28502776,-0.5842803121,-0.1924077123,-0.9612396359,2024-06-05 16:40:51.285028
26.32557791,-0.08934641629,-0.1359503716,-0.1234338731,2024-06-05 16:40:51.325578
26.36601765,1.386400819,0.4924039543,0.1527277827,2024-06-05 16:40:51.366018
26.40653573,3.254153728,0.9244890809,1.01716435,2024-06-05 16:40:51.406536
26.44700734,3.610740423,0.8688306808,1.289065123,2024-06-05 16:40:51.447007
26.48752255,1.795183897,0.1439396143,0.6196992993,2024-06-05 16:40:51.487523
26.52797406,1.962958097,0.6404713392,0.238479048,2024-06-05 16:40:51.527974
26.56846744,0.7575138211,-0.0683080703,1.024354696,2024-06-05 16:40:51.568467
26.60894692,0.3248960674,-0.3133116663,1.558169603,2024-06-05 16:40:51.608947
26.64945297,0.3707011044,-0.9725577235,1.169759035,2024-06-05 16:40:51.649453
26.6899725,-0.3431381881,-1.668154955,0.4697677493,2024-06-05 16:40:51.689972
26.73047099,-1.522883773,-1.968550682,-0.3917394578,2024-06-05 16:40:51.730471
26.77096692,-0.3367467821,-0.3894758224,-0.327026546,2024-06-05 16:40:51.770967
26.81144708,1.394656301,-1.268559337,0.8998556137,2024-06-05 16:40:51.811447
26.85193104,-0.2456693649,0.1588528752,0.3856143653,2024-06-05 16:40:51.851931
26.89241802,0.07576470077,0.3677717149,-0.650857389,2024-06-05 16:40:51.892418
26.93292364,-0.4198349714,-0.1351514459,-0.2153102309,2024-06-05 16:40:51.932924
26.97343369,-1.31782639,0.3544562757,-1.485067964,2024-06-05 16:40:51.973434
27.01389146,-1.521818519,-0.9856068492,-2.046578884,2024-06-05 16:40:52.013891
27.05440146,-2.673867941,-0.6181014776,-0.4029243886,2024-06-05 16:40:52.054401
27.09486005,-1.791189313,0.7741581202,0.901719749,2024-06-05 16:40:52.094860
27.13536177,-2.174939632,1.245390534,0.3653749228,2024-06-05 16:40:52.135362
27.17587151,-1.305043578,0.9665657878,-0.3083849549,2024-06-05 16:40:52.175872
27.2163501,-1.315163374,0.3584509194,-0.6095796227,2024-06-05 16:40:52.216350
27.25683692,-0.9906666875,-0.03981308267,-0.6569824815,2024-06-05 16:40:52.256837
27.29732828,-0.5382089615,0.455653429,-0.5800193548,2024-06-05 16:40:52.297328
27.33783453,-0.1668421179,0.1237001866,-0.4255605936,2024-06-05 16:40:52.337835
27.37831703,0.6244928837,0.3488638103,-0.1545919478,2024-06-05 16:40:52.378317
27.41881312,2.255764008,0.7416685224,0.6013240218,2024-06-05 16:40:52.418813
27.45933203,3.661871672,0.2572537661,1.576544881,2024-06-05 16:40:52.459332
27.49983427,2.473337889,1.562696815,1.62394774,2024-06-05 16:40:52.499834
27.54033135,1.035805941,2.218480825,0.9073122144,2024-06-05 16:40:52.540331
27.58076156,1.490260959,0.8552489877,0.3226324618,2024-06-05 16:40:52.580762
27.62125546,0.8315475583,-1.062703133,1.084806681,2024-06-05 16:40:52.621255
27.66175562,0.9900009632,-1.218227148,1.323418856,2024-06-05 16:40:52.661756
27.70225729,0.5185021758,-1.699312925,0.7483261824,2024-06-05 16:40:52.702257
27.74274468,-0.8543168902,-1.92381084,-0.01930734888,2024-06-05 16:40:52.742745
27.7832188,-1.907299757,-1.409702778,-0.779484272,2024-06-05 16:40:52.783219
27.82370218,0.1842853129,0.164179042,0.141542837,2024-06-05 16:40:52.823702
27.86421229,0.9918650985,-0.8740236759,0.9347419739,2024-06-05 16:40:52.864212
27.90470739,-0.3346163332,0.4990616739,-0.4567186534,2024-06-05 16:40:52.904707
27.94519911,0.7440652847,0.749125123,0.2083862126,2024-06-05 16:40:52.945199
27.98572255,-1.652043223,-0.2075872868,-0.2616478503,2024-06-05 16:40:52.985723
28.02615036,-1.650445461,2.250704288,-1.741655946,2024-06-05 16:40:53.026150
28.06666333,-2.011958838,-2.929657221,-2.065220594,2024-06-05 16:40:53.066663
28.10717432,-2.357227564,0.1657768935,-0.0957378149,2024-06-05 16:40:53.107174
28.14765307,-1.889989734,0.3446028829,0.9471253157,2024-06-05 16:40:53.147653
28.18814276,-2.055633545,1.168427467,0.3287575543,2024-06-05 16:40:53.188143
28.22863796,-1.213699818,0.7097114921,-0.528621912,2024-06-05 16:40:53.228638
28.26912635,-1.253646135,0.7970606089,-0.6543194056,2024-06-05 16:40:53.269126
28.30963052,-0.4790885448,0.906912744,-0.7552502155,2024-06-05 16:40:53.309631
28.35010224,-0.007589785382,0.1045259908,-0.3920057416,2024-06-05 16:40:53.350102
28.39060786,0.6055849791,0.03395430371,0.490539819,2024-06-05 16:40:53.390608
28.43109593,2.150039673,0.1969349533,1.560033798,2024-06-05 16:40:53.431096
28.47158416,3.513804197,0.5507254601,1.549248338,2024-06-05 16:40:53.471584
28.51209119,2.79597044,1.442325473,1.242727518,2024-06-05 16:40:53.512091
28.55256823,1.639127374,2.512218952,0.4974638224,2024-06-05 16:40:53.552568
28.59304583,1.606105089,1.072023869,-0.0576557368,2024-06-05 16:40:53.593046
28.63356781,0.7011896372,-0.4010602236,1.039268017,2024-06-05 16:40:53.633568
28.6740364,1.08107841,-1.279744267,1.508769393,2024-06-05 16:40:53.674036
28.71453312,0.3781577349,-2.48452282,0.7272878289,2024-06-05 16:40:53.714533
28.7550613,-1.018895388,-1.605172992,-0.1668421179,2024-06-05 16:40:53.755061
28.79556547,-1.78799367,-1.042729974,-0.816234827,2024-06-05 16:40:53.795565
28.83600953,0.2500634491,-0.1202381775,0.2459356785,2024-06-05 16:40:53.836010
28.87651911,0.8837439418,-1.148720622,0.904915452,2024-06-05 16:40:53.876519
28.91703989,-0.2105166763,0.3046566546,-0.2817541361,2024-06-05 16:40:53.917040
28.95747396,0.235949114,0.7480598688,0.1266295761,2024-06-05 16:40:53.957474
28.99797057,-1.596118569,-0.008388710208,-0.7467283607,2024-06-05 16:40:53.997971
29.03845989,-1.295989156,1.75310719,-1.879603624,2024-06-05 16:40:54.038460
29.07896078,-1.767754197,-3.159214735,-1.667089701,2024-06-05 16:40:54.078961
29.1194526,-2.144047737,0.09307473898,0.01531272475,2024-06-05 16:40:54.119453
29.15994547,-1.761629105,0.2575200796,0.8513875008,2024-06-05 16:40:54.159945
29.20043864,-2.014355659,1.094127417,0.4039896131,2024-06-05 16:40:54.200439
29.2409276,-1.060705781,1.20198226,-0.2868140042,2024-06-05 16:40:54.240928
29.28141635,-1.359903097,0.6649717093,-0.6865426898,2024-06-05 16:40:54.281416
29.32190802,-0.7219616771,0.8978582621,-0.7632394433,2024-06-05 16:40:54.321908
29.36238364,-0.1910761744,0.3339505494,-0.5240946412,2024-06-05 16:40:54.362384
29.40289911,0.01504641678,0.1921414137,0.1367492825,2024-06-05 16:40:54.402899
29.44339203,1.402911901,0.1125152409,0.5792204738,2024-06-05 16:40:54.443392
29.48390172,3.342834473,0.4955996573,1.496785522,2024-06-05 16:40:54.483902
29.52438911,3.204087734,0.9907998443,1.809830904,2024-06-05 16:40:54.524389
29.56489989,1.656171083,2.31381917,0.9254211783,2024-06-05 16:40:54.564900
29.60539265,1.51635921,1.549647689,0.3311543167,2024-06-05 16:40:54.605393
29.64583458,1.018495917,-0.7379401922,0.4593817294,2024-06-05 16:40:54.645835
29.6863313,1.097589493,-1.015566587,1.70037818,2024-06-05 16:40:54.686331
29.72685505,1.012104511,-2.607557297,1.195058346,2024-06-05 16:40:54.726855
29.76730786,-0.3239639997,-2.423538208,0.3890763521,2024-06-05 16:40:54.767308
29.8078438,-1.678940415,-1.620752096,-0.5326164961,2024-06-05 16:40:54.807844
29.84830718,-1.27628231,-0.3026593328,-0.736874938,2024-06-05 16:40:54.848307
29.88882744,1.491326213,-1.1670959,1.049654007,2024-06-05 16:40:54.888827
29.92926838,-0.1812227666,0.06111774594,0.1354177445,2024-06-05 16:40:54.929268
29.96980187,0.5941337347,0.8119738698,-0.3778914213,2024-06-05 16:40:54.969802
30.01027442,-0.4443353117,-0.8018541336,-0.2659088075,2024-06-05 16:40:55.010274
30.05077088,-1.609433889,0.1681736708,-1.478942871,2024-06-05 16:40:55.050771
30.09128203,-2.51940918,-0.5619103909,-1.827673554,2024-06-05 16:40:55.091282
30.13175854,-2.12354207,-0.09413997084,-0.1239664927,2024-06-05 16:40:55.131759
30.17225401,-1.776542425,0.1953371018,0.8207620382,2024-06-05 16:40:55.172254
30.21274531,-2.16428709,0.9915987849,0.4276910722,2024-06-05 16:40:55.212745
30.25321734,-1.450714231,1.185737491,-0.304390341,2024-06-05 16:40:55.253217
30.29370489,-1.457638264,0.2785584331,-0.7904028893,2024-06-05 16:40:55.293705
30.33420609,-0.562443018,1.368691325,-0.7110430598,2024-06-05 16:40:55.334206
30.37471864,-0.2326202542,0.4673709869,-0.4865451753,2024-06-05 16:40:55.374719
30.41519932,0.09121058136,0.3930709958,0.2786915898,2024-06-05 16:40:55.415199
30.45568307,2.033929348,0.2601831555,0.6239602566,2024-06-05 16:40:55.455683
30.49617578,3.817528963,0.1482005417,1.667089701,2024-06-05 16:40:55.496176
30.53666312,3.203288794,1.127682328,1.863625169,2024-06-05 16:40:55.536663
30.57716208,1.447119117,2.62113905,0.8423330188,2024-06-05 16:40:55.577162
30.61765463,1.923278213,0.6005251408,0.177760765,2024-06-05 16:40:55.617655
30.65814698,0.7788184881,-1.087203503,0.7587122321,2024-06-05 16:40:55.658147
30.69864953,1.020892739,-1.172155738,1.518889189,2024-06-05 16:40:55.698650
30.73917083,0.6644390821,-2.483191252,0.8489907384,2024-06-05 16:40:55.739171
30.77961229,-0.9736229777,-2.330064058,-0.01850842312,2024-06-05 16:40:55.779612
30.82009,-1.761895418,-1.330076575,-1.054713845,2024-06-05 16:40:55.820090
30.86059307,0.7302172184,-0.6212971807,0.3149095178,2024-06-05 16:40:55.860593
30.90110099,0.854450047,-1.202514887,0.8742899895,2024-06-05 16:40:55.901101
30.94158666,-0.02143781446,0.3262276053,-0.3456681073,2024-06-05 16:40:55.941587
30.98207807,0.06005251035,1.359903097,0.1711030602,2024-06-05 16:40:55.982078
31.02257,-1.316761136,0.02809552103,-1.135671616,2024-06-05 16:40:56.022570
31.06306687,-1.089067578,0.4476641715,-2.286655903,2024-06-05 16:40:56.063067
31.10356177,-2.501034021,-2.767608643,-1.17162323,2024-06-05 16:40:56.103562
31.14403953,-1.815955997,0.568834424,0.7153039575,2024-06-05 16:40:56.144040
31.18453135,-1.919283628,-0.3492632806,0.7784190178,2024-06-05 16:40:56.184531
31.2250251,-1.964023352,0.5240946412,0.2099840641,2024-06-05 16:40:56.225025
31.26550437,-1.367626071,0.4649742246,-0.4655068219,2024-06-05 16:40:56.265504
31.30601239,-1.100252509,0.4585828185,-0.6668358445,2024-06-05 16:40:56.306012
31.34650927,-0.4857462645,0.6700315475,-0.7443315983,2024-06-05 16:40:56.346509
31.38699166,-0.2424736619,0.04247616604,-0.34513551,2024-06-05 16:40:56.386992
31.42750062,0.04087831825,-0.03288906813,0.05872096866,2024-06-05 16:40:56.427501
31.46801057,1.358837843,0.03262276202,0.6894720793,2024-06-05 16:40:56.468011
31.50845114,3.238974094,0.2252967805,1.450447917,2024-06-05 16:40:56.508451
31.54892968,3.462406874,0.6420692205,1.436067224,2024-06-05 16:40:56.548930
31.58944885,2.037125111,1.300250053,0.7070484161,2024-06-05 16:40:56.589449
31.6299126,1.940588236,0.9122389555,0.1175750941,2024-06-05 16:40:56.629913
31.67045114,1.380275726,-0.5198337436,0.2009295821,2024-06-05 16:40:56.670451
31.71092088,0.7520545125,-0.8782846332,1.429675817,2024-06-05 16:40:56.710921
31.75142901,0.6196992993,-1.703307629,1.295190215,2024-06-05 16:40:56.751429
31.79190849,-0.3532578945,-2.197309494,0.568834424,2024-06-05 16:40:56.791908
31.83240885,-1.506639004,-1.786928415,-0.4713656008,2024-06-05 16:40:56.832409
31.87291593,-0.9323452115,-0.3074528873,-0.4412727654,2024-06-05 16:40:56.872916
31.91338396,1.317293763,-0.9366061091,1.152449012,2024-06-05 16:40:56.913384
31.95390307,-0.1444722265,-0.2310224175,0.2504629195,2024-06-05 16:40:56.953903
31.99438354,0.6537867785,0.6676347852,0.01744319126,2024-06-05 16:40:56.994384
32.03482843,-1.103448272,0.06537867337,-0.2107829899,2024-06-05 16:40:57.034828
32.07533552,-1.719552398,0.5424699187,-1.573082924,2024-06-05 16:40:57.075336
32.11584328,-2.109161377,-0.9813459516,-1.777873874,2024-06-05 16:40:57.115843
32.1564038,-2.559888124,-0.3021267056,-0.01637795754,2024-06-05 16:40:57.156404
32.19684453,-1.915022612,1.025952578,0.9227581024,2024-06-05 16:40:57.196845
32.23730625,-2.356428623,0.6825480461,0.4444684684,2024-06-05 16:40:57.237306
32.27780807,-1.071757555,1.058442116,-0.03874785081,2024-06-05 16:40:57.277808
32.31834088,-1.237135053,1.771748781,-0.2517944574,2024-06-05 16:40:57.318341
32.35875578,-1.207841039,0.8021204472,-0.581084609,2024-06-05 16:40:57.358756
32.39929552,-0.4515256584,0.6383408904,-0.6066502333,2024-06-05 16:40:57.399296
32.43977354,-0.1276948154,0.007856093347,-0.2232994735,2024-06-05 16:40:57.439774
32.48024146,0.3608476818,0.2865476906,0.1727008969,2024-06-05 16:40:57.480241
32.52075718,2.167882442,0.3826849759,0.5440677404,2024-06-05 16:40:57.520757
32.56125109,3.815132141,-0.1681736708,1.189998388,2024-06-05 16:40:57.561251
32.60173453,3.097431421,-0.3633776009,1.065366149,2024-06-05 16:40:57.601735
32.64224656,1.712362051,3.011680126,0.6955971718,2024-06-05 16:40:57.642247
32.68273994,2.209160089,1.06696403,-0.1207707971,2024-06-05 16:40:57.682740
32.72324677,1.042729974,-1.947512269,0.2155765295,2024-06-05 16:40:57.723247
32.76372333,1.23393929,-1.140997767,1.232874036,2024-06-05 16:40:57.763723
32.80421823,0.6324821115,-1.612496495,0.8119738698,2024-06-05 16:40:57.804218
32.8446802,-0.9147688746,-2.022078514,0.04300878197,2024-06-05 16:40:57.844680
32.88520041,-1.623281956,-1.448850036,-0.6399387121,2024-06-05 16:40:57.885200
32.9256701,1.086404562,-0.8138380051,0.5419372916,2024-06-05 16:40:57.925670
32.96615573,0.6141068339,-0.4575175941,0.5898727775,2024-06-05 16:40:57.966156
33.00666911,0.01291595027,0.7331466079,-0.3595161438,2024-06-05 16:40:58.006669
33.04710672,-0.3916063011,1.466825843,-0.009187635034,2024-06-05 16:40:58.047107
33.08763744,-2.152835846,1.954968929,-1.329011321,2024-06-05 16:40:58.087637
33.12814948,-1.444589138,0.5653724074,-1.968284369,2024-06-05 16:40:58.128149
33.16862276,-2.874398232,-3.540435076,-0.52622509,2024-06-05 16:40:58.168623
33.20911448,-1.77094996,2.049641609,0.7712287307,2024-06-05 16:40:58.209114
33.24960474,-2.324738026,0.9892020226,0.5350132585,2024-06-05 16:40:58.249605
33.29012546,-1.80956459,1.340196252,-0.0171768833,2024-06-05 16:40:58.290125
33.33059109,-1.257374406,0.5153064728,-0.5978620052,2024-06-05 16:40:58.330591
33.37107463,-1.170557976,0.6615096927,-0.5134423375,2024-06-05 16:40:58.371075
33.41156489,-0.171901986,0.7528534532,-0.7661688328,2024-06-05 16:40:58.411565
33.45209031,-0.03954677656,0.2030600458,-0.2222342342,2024-06-05 16:40:58.452090
33.49258448,0.762839973,0.05525896326,0.3818860352,2024-06-05 16:40:58.492584
33.53304302,2.512751579,0.3896089792,1.0914644,2024-06-05 16:40:58.533043
33.57353755,3.748421907,-0.3500621915,1.473616719,2024-06-05 16:40:58.573538
33.61403885,2.488251209,0.8103760481,1.201449752,2024-06-05 16:40:58.614039
33.65450593,1.716356754,1.713427305,0.8625724316,2024-06-05 16:40:58.654506
33.69501302,2.04218483,-1.993317246,0.1183740199,2024-06-05 16:40:58.695013
33.73551203,1.364163995,-1.104513526,0.8279523849,2024-06-05 16:40:58.735512
33.77599265,1.067230344,-1.866820931,1.114899516,2024-06-05 16:40:58.775993
33.81648271,0.1733666807,-1.545786262,0.9161003828,2024-06-05 16:40:58.816483
33.85698588,-1.269358277,-1.494655132,0.3376788795,2024-06-05 16:40:58.856986
33.89747172,-2.049774647,-0.7970606089,-0.487344116,2024-06-05 16:40:58.897472
33.93795796,1.007843614,-0.2912080884,0.3419398069,2024-06-05 16:40:58.937958
33.9784525,0.672162056,-0.9150351882,0.6308842301,2024-06-05 16:40:58.978453
34.01895427,-1.168693781,0.2724333405,-0.06511236727,2024-06-05 16:40:59.018954
34.05941604,0.5187684894,2.119680643,0.3515268862,2024-06-05 16:40:59.059416
34.09993369,-1.945648074,0.3533910513,-0.07762885839,2024-06-05 16:40:59.099934
34.14043614,-2.6954391,2.861748457,-1.855369568,2024-06-05 16:40:59.140436
34.18090567,-0.9025186896,0.8029193878,-2.242981195,2024-06-05 16:40:59.180906
34.22139036,-3.448958158,-3.62165904,-0.418902874,2024-06-05 16:40:59.221390
34.26188416,-1.628874421,2.77732873,0.9492557645,2024-06-05 16:40:59.261884
34.30238359,-2.078802347,2.209426403,0.818897903,2024-06-05 16:40:59.302384
34.34286015,-1.372952223,2.236057281,-0.1242327988,2024-06-05 16:40:59.342860
34.3833714,-0.8314144015,1.064034581,-0.5347470045,2024-06-05 16:40:59.383371
34.42386437,-0.6287537813,0.9031844735,-0.437011838,2024-06-05 16:40:59.423864
34.46434083,-0.1780270636,0.5216978788,-0.2344844192,2024-06-05 16:40:59.464341
34.50485406,0.0954715088,0.5840139985,0.244337827,2024-06-05 16:40:59.504854
34.54535807,1.70863378,-0.04886756465,0.8833444715,2024-06-05 16:40:59.545358
34.5858289,3.553217888,-0.1873478591,1.326348305,2024-06-05 16:40:59.585829
34.62631437,3.213941097,0.8071803451,1.069360852,2024-06-05 16:40:59.626314
34.666795,2.118615389,1.463363886,0.4942681193,2024-06-05 16:40:59.666795
34.70729281,2.383325815,1.326081991,-0.01957365684,2024-06-05 16:40:59.707293
34.74780291,1.416759968,-0.4173050225,0.2174406946,2024-06-05 16:40:59.747803
34.78830073,1.233140349,-0.8921326399,1.140198827,2024-06-05 16:40:59.788301
34.82875062,1.005713105,-1.979202986,0.9270190597,2024-06-05 16:40:59.828751
34.86928057,-0.4552539587,-2.326601982,0.3970656097,2024-06-05 16:40:59.869281
34.90974875,-1.789857745,-1.835929155,-0.6077154279,2024-06-05 16:40:59.909749
34.95029296,0.1402112991,-0.6521888971,-0.3778914213,2024-06-05 16:40:59.950293
34.99072291,1.401846647,-1.619420528,0.8250229955,2024-06-05 16:40:59.990723
35.03122099,-0.356187284,0.3560541272,-0.09919982404,2024-06-05 16:41:00.031221
35.07174557,0.3027924895,1.719818711,-0.02516612969,2024-06-05 16:41:00.071746
35.11219437,-1.680138826,1.06696403,-0.6580476761,2024-06-05 16:41:00.112194
35.15272359,-2.430994987,2.47493577,-2.133794785,2024-06-05 16:41:00.152724
35.19319922,-1.646717072,-2.056432247,-1.748313665,2024-06-05 16:41:00.193199
35.23367448,-3.305950642,0.006524552125,0.4780233204,2024-06-05 16:41:00.233674
35.27427463,-1.593988061,0.6939992905,1.197188735,2024-06-05 16:41:00.274275
35.3147014,-2.291981936,0.7453967929,0.423430115,2024-06-05 16:41:00.314701
35.3551764,-1.22728157,1.289065123,-0.2001306564,2024-06-05 16:41:00.355176
35.39564224,-0.9379376769,0.7946638465,-0.7512555718,2024-06-05 16:41:00.395642
35.43617343,-0.6319494843,0.7113093734,-0.7195649147,2024-06-05 16:41:00.436173
35.47662166,-0.02090519853,0.002529928461,-0.5549864173,2024-06-05 16:41:00.476622
35.51716411,0.03608476743,0.2189053893,0.4101147056,2024-06-05 16:41:00.517164
35.55763104,1.703307629,-0.1865489334,0.7256900072,2024-06-05 16:41:00.557631
35.59809281,3.505016088,-0.2834851444,1.409702778,2024-06-05 16:41:00.598093
35.63859593,3.218202114,0.302526176,1.469355822,2024-06-05 16:41:00.638596
35.67911583,2.148974419,1.380408883,0.6181014776,2024-06-05 16:41:00.679116
35.71959817,2.19291544,0.7081136703,0.209451437,2024-06-05 16:41:00.719598
35.76005927,1.215564013,-0.5193011165,0.414375633,2024-06-05 16:41:00.760059
35.80058864,0.9705604315,-1.292260766,1.127682328,2024-06-05 16:41:00.800589
35.84109646,0.8943963051,-2.475468397,0.976685524,2024-06-05 16:41:00.841096
35.8815377,-0.4355471432,-2.42593503,0.4404738545,2024-06-05 16:41:00.881538
35.92204255,-1.571085572,-2.007165432,-0.481485337,2024-06-05 16:41:00.922043
35.96254911,0.2987978756,-0.8018541336,-0.2312887162,2024-06-05 16:41:00.962549
36.00303979,1.264564753,-1.725144863,0.8694964647,2024-06-05 16:41:01.003040
36.04353146,-0.481485337,-0.1021292135,0.1774944514,2024-06-05 16:41:01.043531
36.08400396,0.3957340717,1.8748101,0.0845528692,2024-06-05 16:41:01.084004
36.12452281,-1.514361858,0.684412241,-0.4420717061,2024-06-05 16:41:01.124523
36.16499036,-2.315150738,2.323939085,-1.954702616,2024-06-05 16:41:01.164990
36.20548869,-1.15085113,-0.3018604219,-2.329531431,2024-06-05 16:41:01.205489
36.24595901,-3.892760992,-1.850043416,0.1412765235,2024-06-05 16:41:01.245959
36.28646599,-1.284804225,1.76722157,0.8939968348,2024-06-05 16:41:01.286466
36.32696896,-1.839923739,0.164179042,0.3765598834,2024-06-05 16:41:01.326969
36.36742182,-1.491725683,1.541658521,-0.01451379992,2024-06-05 16:41:01.367422
36.40792635,-1.381207824,0.5848129392,-0.5696333647,2024-06-05 16:41:01.407926
36.44844916,-1.236069798,0.2367480397,-0.6612433791,2024-06-05 16:41:01.448449
36.48894104,0.003595161485,0.687607944,-0.7216953635,2024-06-05 16:41:01.488941
36.52937036,-0.1910761744,0.2900096774,0.2115819156,2024-06-05 16:41:01.529370
36.56992015,1.440461397,0.15512456,0.4844147265,2024-06-05 16:41:01.569920
36.61039937,3.372128248,-0.4191691875,1.359104156,2024-06-05 16:41:01.610399
36.65089036,3.467200279,-0.6308842301,1.790922999,2024-06-05 16:41:01.650890
36.69138359,2.129534006,1.886793971,0.7382065058,2024-06-05 16:41:01.691384
36.73187026,1.829804063,1.857500076,0.5635082722,2024-06-05 16:41:01.731870
36.7723814,1.493989348,-1.21316731,0.3303554058,2024-06-05 16:41:01.772381
36.81286672,1.169759035,-1.532204509,1.42914331,2024-06-05 16:41:01.812867
36.85333896,1.285603046,-2.823000669,0.9147688746,2024-06-05 16:41:01.853339
36.89385807,-0.2792242169,-2.299438715,0.4766917825,2024-06-05 16:41:01.893858
36.93432984,-1.684666038,-2.021279573,-0.2716344297,2024-06-05 16:41:01.934330
36.97481156,-0.4504604042,-0.8047835231,-0.4636426866,2024-06-05 16:41:01.974812
37.0152914,1.621550918,-1.627143502,0.9694951773,2024-06-05 16:41:02.015291
37.05577942,-0.369769007,0.4420717061,0.2840177417,2024-06-05 16:41:02.055779
37.09631234,-0.3937367499,1.67294848,-0.6117100716,2024-06-05 16:41:02.096312
37.13678927,-0.4456668794,0.5928021669,0.1407439113,2024-06-05 16:41:02.136789
37.17727203,-2.281995535,1.094127417,-1.287200928,2024-06-05 16:41:02.177272
37.21777739,-1.417159438,-0.2435389012,-2.336455584,2024-06-05 16:41:02.217777
37.25826567,-3.305418015,-1.508503079,-0.3667064607,2024-06-05 16:41:02.258266
37.29875166,-1.724612236,1.172155738,1.261635303,2024-06-05 16:41:02.298752
37.33924437,-2.054834604,0.4157072008,0.6127753258,2024-06-05 16:41:02.339244
37.37973099,-1.668288112,1.590126634,-0.1948044896,2024-06-05 16:41:02.379731
37.4202539,-1.345256209,0.4375444651,-0.7773538232,2024-06-05 16:41:02.420254
37.46075307,-0.5938674212,1.106643915,-0.5517907143,2024-06-05 16:41:02.460753
37.50123099,-0.08082455397,0.3973319232,-0.6492595077,2024-06-05 16:41:02.501231
37.54171833,-0.03661738336,0.2354165018,0.1170424819,2024-06-05 16:41:02.541718
37.58221135,1.261369109,0.01371487509,0.3696358502,2024-06-05 16:41:02.582211
37.62269922,3.235512257,-0.1354177445,1.178014517,2024-06-05 16:41:02.622699
37.66319385,3.366003275,-0.6990591884,1.571485043,2024-06-05 16:41:02.663194
37.70367234,2.089587688,1.833532333,0.8141043186,2024-06-05 16:41:02.703672
37.74414812,1.698514104,1.280809522,0.6279548407,2024-06-05 16:41:02.744148
37.78469192,1.539528012,-0.5150401592,0.1221023351,2024-06-05 16:41:02.784692
37.82514031,0.8283518553,-1.497584462,1.060039997,2024-06-05 16:41:02.825140
37.86561437,1.169759035,-2.597970247,1.089333892,2024-06-05 16:41:02.865614
37.90612698,0.07682993263,-2.649101257,0.7850767374,2024-06-05 16:41:02.906127
37.9466339,-1.374283791,-2.298906088,-0.0544600375,2024-06-05 16:41:02.946634
37.98712547,-0.9581770897,-0.672162056,-0.4862788618,2024-06-05 16:41:02.987125
38.02761562,1.546185732,-1.355375886,1.15005219,2024-06-05 16:41:03.027616
38.06810203,-0.2496639937,0.009187635034,0.3157084286,2024-06-05 16:41:03.068102
38.10860062,0.8134385943,1.890788674,-0.04780233279,2024-06-05 16:41:03.108601
38.14905562,-1.372419596,0.8800156116,-0.2750964165,2024-06-05 16:41:03.149056
38.18957182,-2.22074461,2.39770627,-1.954169989,2024-06-05 16:41:03.189572
38.23004922,-1.157242537,0.2814878225,-2.665878773,2024-06-05 16:41:03.230049
38.27055963,-4.113397121,-2.032997131,-0.1892120093,2024-06-05 16:41:03.270560
38.3110502,-1.531671882,2.114620686,0.8135717511,2024-06-05 16:41:03.311050
38.35152859,-1.888125539,0.1386134475,0.6732272506,2024-06-05 16:41:03.351529
38.39201047,-1.740590811,1.360435724,-0.08508548886,2024-06-05 16:41:03.392010
38.43250052,-1.260836482,0.8374063373,-0.617302537,2024-06-05 16:41:03.432501
38.47302526,-0.7552502155,0.881613493,-0.7009233236,2024-06-05 16:41:03.473025
38.51347869,0.04007939249,0.1250317246,-0.540872097,2024-06-05 16:41:03.513479
38.55397812,0.1026618332,-0.02356828004,0.3319532275,2024-06-05 16:41:03.553978
38.59448088,1.778939128,-0.1852173954,0.8173000216,2024-06-05 16:41:03.594481
38.63496234,3.52072835,-0.5701659918,1.518090248,2024-06-05 16:41:03.634962
38.6755001,3.406481981,0.1319557428,1.472285151,2024-06-05 16:41:03.675500
38.71594406,2.038722754,1.21316731,0.5608451962,2024-06-05 16:41:03.715944
38.75644338,2.026472569,1.003582716,0.1703041345,2024-06-05 16:41:03.756443
38.79694989,1.299451113,-0.3218335211,0.1676410437,2024-06-05 16:41:03.796950
38.83740505,0.8022536039,-1.093062282,1.137802005,2024-06-05 16:41:03.837405
38.87791312,0.915967226,-2.048443079,0.9593755007,2024-06-05 16:41:03.877913
38.91843562,-0.4049217105,-2.192782164,0.417571336,2024-06-05 16:41:03.918436
38.95886375,-1.892919064,-2.109694004,-0.5989272594,2024-06-05 16:41:03.958864
38.99937625,0.4942681193,-0.6090469956,-0.1319557428,2024-06-05 16:41:03.999376
39.03986099,1.230477333,-1.433404207,0.929415822,2024-06-05 16:41:04.039861
39.08038901,-0.9432638288,0.851254344,-0.06404713541,2024-06-05 16:41:04.080389
39.12090849,0.5246272683,1.985594392,0.1559234858,2024-06-05 16:41:04.120908
39.16137646,-1.773346663,0.5288882256,-0.5137086511,2024-06-05 16:41:04.161376
39.20186354,-2.18585825,1.720351338,-1.814091802,2024-06-05 16:41:04.201864
39.24239651,-1.309837103,-0.138347134,-2.250704288,2024-06-05 16:41:04.242397
39.2828676,-3.726584673,-1.036871195,-0.1575213373,2024-06-05 16:41:04.282868
39.32335864,-1.661097765,1.504907966,0.859110415,2024-06-05 16:41:04.323359
39.36381265,-2.087324142,0.8015878797,0.4276910722,2024-06-05 16:41:04.363813
39.40430567,-1.436067224,1.404110312,-0.1647116542,2024-06-05 16:41:04.404306
39.44477984,-1.246722102,0.9388697743,-0.6577813625,2024-06-05 16:41:04.444780
39.4853076,-0.5118444562,0.9367392659,-0.6806839108,2024-06-05 16:41:04.485308
39.52578099,-0.1814890802,0.3126458824,-0.3299559355,2024-06-05 16:41:04.525781
39.5662726,0.237813279,0.4529903531,0.4173050225,2024-06-05 16:41:04.566273
39.6067413,1.856434822,-0.2448704392,1.175085187,2024-06-05 16:41:04.606741
39.64723817,3.648822546,-0.2629793882,1.428610682,2024-06-05 16:41:04.647238
39.68776625,3.209147692,0.6801512837,1.255244017,2024-06-05 16:41:04.687766
39.72829338,1.925408721,1.137003064,0.6271559596,2024-06-05 16:41:04.728293
39.76878489,1.925941348,1.364163995,0.08295502514,2024-06-05 16:41:04.768785
39.80925734,1.509967804,-1.252580881,0.5033226013,2024-06-05 16:41:04.809257
39.84971849,1.010240316,-0.9350082874,1.260570168,2024-06-05 16:41:04.849718
39.89020224,0.7504566908,-2.036192894,0.6977276206,2024-06-05 16:41:04.890202
39.93069005,-0.5459319353,-2.169879675,-0.03901416063,2024-06-05 16:41:04.930690
39.97116953,-1.849777102,-1.778406501,-0.874556303,2024-06-05 16:41:04.971170
40.01166218,0.7051842809,-0.1109173894,0.1713693589,2024-06-05 16:41:05.011662
40.05216364,1.053648591,-1.208373666,1.038469076,2024-06-05 16:41:05.052164
40.09266937,-0.256588012,0.9460600615,-0.2432725877,2024-06-05 16:41:05.092669
40.13314942,0.1483336985,1.493456721,0.5049204826,2024-06-05 16:41:05.133149
40.17363864,-2.140851974,0.5123770833,-1.053648591,2024-06-05 16:41:05.173639
40.21412546,-1.801575303,1.524614811,-2.576133013,2024-06-05 16:41:05.214125
40.25462317,-2.323140144,-2.891575098,-1.964822292,2024-06-05 16:41:05.254623
40.29513994,-2.596106052,1.353245378,0.706515789,2024-06-05 16:41:05.295140
40.3356213,-1.917419434,0.009453942999,0.8580452204,2024-06-05 16:41:05.335621
40.37609672,-1.952305794,1.111703873,0.2659088075,2024-06-05 16:41:05.376097
40.41659166,-1.132475853,0.7507229447,-0.6151720881,2024-06-05 16:41:05.416592
40.45708041,-1.085605621,0.8339443207,-0.7882724404,2024-06-05 16:41:05.457080
40.49758427,-0.3074528873,0.4423380196,-0.7339455485,2024-06-05 16:41:05.497584
40.53807729,-0.1945381761,-0.1825543046,-0.2740311921,2024-06-05 16:41:05.538077
40.57857656,0.4663057625,-0.1263632625,0.2816209793,2024-06-05 16:41:05.578577
40.61907932,2.076272249,-0.3444697261,1.360435724,2024-06-05 16:41:05.619079
40.65953536,3.575321436,0.09653674066,1.518622875,2024-06-05 16:41:05.659535
40.70002323,3.093703032,1.107975483,1.145258665,2024-06-05 16:41:05.700023
40.74050724,1.839124799,0.4639089704,0.6569824815,2024-06-05 16:41:05.740507
40.78104713,1.893451691,1.141264081,0.04141093418,2024-06-05 16:41:05.781047
40.82157078,0.8262213469,-0.3500621915,0.9577776194,2024-06-05 16:41:05.821571
40.86201625,1.135405302,-1.585998774,1.293059707,2024-06-05 16:41:05.862016
40.90249776,0.4889419675,-2.423271894,0.874556303,2024-06-05 16:41:05.902498
40.94298567,-0.9762860537,-2.102503777,0.2312887162,2024-06-05 16:41:05.942986
40.98348672,-2.070812941,-0.9581770897,-0.6415365934,2024-06-05 16:41:05.983487
41.02397203,0.9639027119,-0.3906742036,0.4628437459,2024-06-05 16:41:06.023972
41.0644651,0.8411346078,-0.9552477002,0.7866745591,2024-06-05 16:41:06.064465
41.10495323,0.4066527188,1.636730552,-0.08055824786,2024-06-05 16:41:06.104953
41.14545099,-0.5770899653,0.8320801258,0.2235657871,2024-06-05 16:41:06.145451
41.1859402,-2.322607517,1.304510951,-1.64179039,2024-06-05 16:41:06.185940
41.22641328,-1.831401825,1.829804063,-2.799698591,2024-06-05 16:41:06.226413
41.26689562,-2.361754656,-3.217003822,-1.314364433,2024-06-05 16:41:06.266896
41.3074026,-2.768673897,1.477211952,0.2800231278,2024-06-05 16:41:06.307403
41.34789948,-1.61768949,1.328478694,1.01423502,2024-06-05 16:41:06.347899
41.38837328,-1.845516205,1.384669781,0.2821536064,2024-06-05 16:41:06.388373
41.42885703,-1.199851871,0.7898702621,-0.4894745648,2024-06-05 16:41:06.428857
41.46935963,-1.183607101,0.8212946653,-0.6410039663,2024-06-05 16:41:06.469360
41.50983255,-0.09360735118,0.8274197578,-0.705716908,2024-06-05 16:41:06.509833
41.55032427,-0.1508636326,0.04913387448,-0.03288906813,2024-06-05 16:41:06.550324
41.59086625,0.9660332203,0.2229000032,0.4809527099,2024-06-05 16:41:06.590866
41.63131744,2.754159927,-0.1926740259,1.355375886,2024-06-05 16:41:06.631317
41.67185416,3.558544159,-0.007589785382,1.581871033,2024-06-05 16:41:06.671854
41.71233146,2.916075468,0.8611077666,0.8274197578,2024-06-05 16:41:06.712331
41.75282708,1.618621588,0.8258218765,0.6500584483,2024-06-05 16:41:06.752827
41.79325031,2.042717457,-0.003595161485,-0.09174319357,2024-06-05 16:41:06.793250
41.83379911,0.6846785545,-0.4740287066,0.9489894509,2024-06-05 16:41:06.833799
41.87433369,0.8885374665,-1.31782639,1.263233185,2024-06-05 16:41:06.874334
41.91475713,0.313444823,-2.382526875,0.7286193967,2024-06-05 16:41:06.914757
41.95526281,-1.16789484,-2.102503777,-0.09413997084,2024-06-05 16:41:06.955263
41.9957438,-1.678407788,-1.220357537,-1.01050663,2024-06-05 16:41:06.995744
42.03619896,1.451912642,-0.9701609612,0.6125090122,2024-06-05 16:41:07.036199
42.07673802,0.5706986189,-0.6119763851,0.684412241,2024-06-05 16:41:07.076738
42.11721541,-1.145258665,0.851254344,-0.3810871243,2024-06-05 16:41:07.117215
42.15773843,0.700124383,1.632469654,0.1929403245,2024-06-05 16:41:07.157738
42.19822187,-1.495187759,-0.1884130985,-0.1572550237,2024-06-05 16:41:07.198222
42.23871297,-1.920082569,1.470554233,-1.699312925,2024-06-05 16:41:07.238713
42.27920411,-1.591058731,-1.192128897,-1.803173184,2024-06-05 16:41:07.279204
42.31967052,-2.935249567,-0.4567186534,0.1601844132,2024-06-05 16:41:07.319671
42.36017187,-1.619287372,1.228879452,0.5765573978,2024-06-05 16:41:07.360172
42.40068807,-1.717155576,0.5488613248,0.3005288541,2024-06-05 16:41:07.400688
42.44116369,-1.252580881,1.074953318,-0.3824186623,2024-06-05 16:41:07.441164
42.48163583,-1.620885253,0.5461982489,-0.6178351641,2024-06-05 16:41:07.481636
42.52212854,-0.52622509,0.3081186414,-0.7406032681,2024-06-05 16:41:07.522129
42.56264911,-0.03315537795,0.1412765235,-0.3217003644,2024-06-05 16:41:07.562649
42.60309927,0.3949351311,0.2070546746,0.4798874855,2024-06-05 16:41:07.603099
42.64368328,2.517544985,-0.3928046823,0.8298165202,2024-06-05 16:41:07.643683
42.68410369,3.909937859,-0.6250254512,1.473350406,2024-06-05 16:41:07.684104
42.72462411,3.299692392,1.023023129,0.9535167217,2024-06-05 16:41:07.724624
42.76508609,1.605572462,2.932852745,0.8263545036,2024-06-05 16:41:07.765086
42.80561849,2.010760546,0.208119899,0.2065220475,2024-06-05 16:41:07.805618
42.84608604,1.121557236,-1.046724558,0.7635057569,2024-06-05 16:41:07.846086
42.88655276,1.148187995,-2.319145441,1.204911709,2024-06-05 16:41:07.886553
42.9270614,0.4945344329,-2.185059309,0.8455287218,2024-06-05 16:41:07.927061
42.96753463,-0.8817466497,-1.750976801,0.084020257,2024-06-05 16:41:07.967535
43.00804994,-2.040986538,-1.367626071,-0.84020257,2024-06-05 16:41:08.008050
43.04850864,0.2503297627,-0.9267527461,-0.1692388952,2024-06-05 16:41:08.048509
43.08903088,0.8709611297,-1.088002324,1.020626426,2024-06-05 16:41:08.089031
43.12951328,-0.685211122,0.8419335485,0.1093195379,2024-06-05 16:41:08.129513
43.17001708,0.6569824815,1.54831624,0.2587184608,2024-06-05 16:41:08.170017
43.21051963,-1.290929317,0.07975932211,-0.2950695455,2024-06-05 16:41:08.210520
43.25098291,-2.094780684,1.741123319,-1.64179039,2024-06-05 16:41:08.250983
43.29149531,-1.326880932,0.7083799839,-2.439516783,2024-06-05 16:41:08.291495
43.33199968,-3.494496822,-2.798766613,-0.7158365846,2024-06-05 16:41:08.332000
43.37247172,-1.884663582,2.292248249,0.6801512837,2024-06-05 16:41:08.372472
43.41296593,-1.905435562,0.7134398222,0.7339455485,2024-06-05 16:41:08.412966
43.45343458,-1.485067964,1.649513364,0.1593854874,2024-06-05 16:41:08.453435
43.49393802,-1.292793393,0.7331466079,-0.4993279874,2024-06-05 16:41:08.493938
43.53443208,-0.8407351375,0.8579120636,-0.6484606266,2024-06-05 16:41:08.534432
43.57492531,0.07416684926,0.5496602654,-0.5430025458,2024-06-05 16:41:08.574925
43.61539786,-0.1665758193,0.02489982173,0.2664414048,2024-06-05 16:41:08.615398
43.65591093,1.50597322,-0.2728328109,0.5917369723,2024-06-05 16:41:08.655911
43.69640651,3.336975574,-0.2680392563,1.340995193,2024-06-05 16:41:08.696407
43.73688448,3.532978535,-0.09254211932,1.232075095,2024-06-05 16:41:08.736884
43.77739948,2.116218567,1.435534596,0.491871357,2024-06-05 16:41:08.777399
43.81787661,1.98066771,1.183873296,0.5070509315,2024-06-05 16:41:08.817877
43.85835333,1.596784353,-0.9147688746,0.2715012729,2024-06-05 16:41:08.858353
43.8988727,0.9077116847,-1.229678392,1.203047514,2024-06-05 16:41:08.898873
43.93936364,0.9146357179,-2.093981743,1.289331436,2024-06-05 16:41:08.939364
43.97984328,-0.2009295821,-2.235258341,0.6439333558,2024-06-05 16:41:08.979843
44.02032651,-1.583868384,-1.654839516,-0.3310211599,2024-06-05 16:41:09.020327
44.06082239,-1.005846262,-0.522763133,-0.8306154609,2024-06-05 16:41:09.060822
44.10132411,1.514228702,-1.57534647,1.016099095,2024-06-05 16:41:09.101324
44.14180396,-0.4809527099,0.235949114,0.2752295732,2024-06-05 16:41:09.141804
44.18229989,0.6447322965,1.972278953,0.2222342342,2024-06-05 16:41:09.182300
44.22280687,-1.079746842,0.07256899774,0.3157084286,2024-06-05 16:41:09.222807
44.26328119,-2.130199671,1.703573942,-1.420355082,2024-06-05 16:41:09.263281
44.30376312,-1.130079031,0.59599787,-2.768806934,2024-06-05 16:41:09.303763
44.34424005,-3.352820873,-2.932053804,-0.8927984238,2024-06-05 16:41:09.344240
44.38474229,-1.833798647,2.109827042,0.9187634587,2024-06-05 16:41:09.384742
44.42526963,-1.912359595,0.2057231218,0.8905348182,2024-06-05 16:41:09.425270
44.46574489,-1.394523144,2.062157869,0.02250304818,2024-06-05 16:41:09.465745
44.50621364,-1.390794873,0.3845491111,-0.834610045,2024-06-05 16:41:09.506214
44.54670968,-0.7483261824,1.092263341,-0.7299509048,2024-06-05 16:41:09.546710
44.5872113,-0.15512456,0.3408745527,-0.451126188,2024-06-05 16:41:09.587211
44.62768896,0.02916075476,0.3893426657,0.3509942889,2024-06-05 16:41:09.627689
44.66816114,1.806102633,-0.008921326138,0.7422010899,2024-06-05 16:41:09.668161
44.70867531,3.639235497,-0.1937392503,1.546851516,2024-06-05 16:41:09.708675
44.74919244,3.344964743,0.6742925048,1.38094151,2024-06-05 16:41:09.749192
44.78965515,1.986260176,1.480673909,0.5491276383,2024-06-05 16:41:09.789655
44.83015354,2.227002859,0.4748276174,0.01158440951,2024-06-05 16:41:09.830154
44.8706551,1.341261506,-0.7744244337,0.2025274336,2024-06-05 16:41:09.870655
44.91111698,0.7929328084,-0.9246222377,1.254977703,2024-06-05 16:41:09.911117
44.95160979,0.6242265701,-2.054568291,1.044061542,2024-06-05 16:41:09.951610
44.99213963,-0.6351451874,-2.284259081,0.5288882256,2024-06-05 16:41:09.992140
45.03259484,-2.017018795,-2.03885603,-0.4338161349,2024-06-05 16:41:10.032595
45.07309916,-0.217174381,-0.2182396203,-0.1833532304,2024-06-05 16:41:10.073099
45.11357932,1.520087481,-1.75310719,1.031811357,2024-06-05 16:41:10.113579
45.15406765,-1.022357345,0.6782871485,0.1937392503,2024-06-05 16:41:10.154068
45.19455896,0.216508612,2.190252304,-0.2589847744,2024-06-05 16:41:10.194559
45.23507073,-1.283206344,0.1303578913,0.03422060981,2024-06-05 16:41:10.235071
45.2755626,-2.292514563,1.812227726,-1.21982491,2024-06-05 16:41:10.275563
45.31604198,-1.469622135,-0.447930485,-2.249106407,2024-06-05 16:41:10.316042
45.35654203,-2.810750484,-1.647116542,-0.7358096838,2024-06-05 16:41:10.356542
45.39704317,-1.627809167,1.512098312,0.8503222466,2024-06-05 16:41:10.397043
45.43754672,-1.91422379,0.6700315475,0.6987928748,2024-06-05 16:41:10.437547
45.47807317,-1.463763356,1.875342727,-0.127961114,2024-06-05 16:41:10.478073
45.51854442,-1.172688365,0.6671021581,-0.758179605,2024-06-05 16:41:10.518544
45.55897744,-0.4448679388,1.159905553,-0.6561835408,2024-06-05 16:41:10.558977
45.59946864,-0.1340862066,0.03661738336,-0.3414071798,2024-06-05 16:41:10.599469
45.63999729,0.1784265339,0.4745613039,0.3411408663,2024-06-05 16:41:10.639997
45.68045922,2.162023544,-0.06404713541,0.6505910754,2024-06-05 16:41:10.680459
45.72094349,3.687703609,-0.3623123765,1.570419788,2024-06-05 16:41:10.720943
45.76143958,3.14696455,0.7392717004,1.160171866,2024-06-05 16:41:10.761440
45.80197474,1.680937767,2.313020468,0.6268896461,2024-06-05 16:41:10.801975
45.84245494,1.802906871,0.8525858521,0.3784240186,2024-06-05 16:41:10.842455
45.88291963,1.1396662,-0.8628387451,0.6585803032,2024-06-05 16:41:10.882920
45.92342599,1.10850811,-1.792520881,1.211569428,2024-06-05 16:41:10.923426
45.96389468,0.6892057657,-2.316748619,0.9844084978,2024-06-05 16:41:10.963895
46.00439198,-0.8753552437,-2.218480825,0.1444722265,2024-06-05 16:41:11.004392
46.04488942,-2.016486168,-1.621550918,-1.014767647,2024-06-05 16:41:11.044889
46.08539677,0.7166355252,-0.4774906933,0.1615159512,2024-06-05 16:41:11.085397
46.12586187,1.016099095,-1.365495563,0.8921326399,2024-06-05 16:41:11.125862
46.1663714,-1.462431788,0.7097114921,0.08029194176,2024-06-05 16:41:11.166371
46.20687677,0.4564523399,1.977605104,-0.5781552196,2024-06-05 16:41:11.206877
46.24733187,-0.9951939583,-0.8516538143,-0.01957365684,2024-06-05 16:41:11.247332
46.28783422,-1.860962033,0.02383458801,-1.096524239,2024-06-05 16:41:11.287834
46.32832781,-1.700644493,-1.440061927,-1.837260604,2024-06-05 16:41:11.328328
46.36882724,-2.754559517,0.208119899,0.3443365693,2024-06-05 16:41:11.368827
46.40930833,-1.899044156,0.7480598688,0.8138380051,2024-06-05 16:41:11.409308
46.44978755,-1.789058805,0.8318138123,0.4929365814,2024-06-05 16:41:11.449788
46.49028276,-1.433670521,1.924343467,-0.5706986189,2024-06-05 16:41:11.490283
46.53080781,-1.306375146,0.1958697289,-0.8362079263,2024-06-05 16:41:11.530808
46.57128614,-0.1244991124,1.284804225,-0.555785358,2024-06-05 16:41:11.571286
46.61180166,-0.2227668613,0.01078548469,-0.1207707971,2024-06-05 16:41:11.611802
46.65226146,0.6460638046,0.3459344208,0.333551079,2024-06-05 16:41:11.652261
46.69273942,2.779459238,0.1178414002,0.8386046886,2024-06-05 16:41:11.692739
46.73324041,3.720992088,-0.6825480461,1.717954516,2024-06-05 16:41:11.733240
46.77374708,2.826862097,1.703840256,0.9577776194,2024-06-05 16:41:11.773747
46.81421619,1.877473235,1.757101893,0.6388735175,2024-06-05 16:41:11.814216
46.85469974,1.949909091,-0.4732297659,-0.04806863889,2024-06-05 16:41:11.854700
46.89520494,0.678819716,-0.8404688835,1.048056126,2024-06-05 16:41:11.895205
46.93569552,1.286135674,-2.315949678,1.046724558,2024-06-05 16:41:11.935696
46.97618333,0.4945344329,-2.688781261,0.7129071951,2024-06-05 16:41:11.976183
47.01667239,-1.063901424,-2.120346308,0.1705704331,2024-06-05 16:41:12.016672
47.05714906,-2.199706078,-0.7784190178,-0.6215634942,2024-06-05 16:41:12.057149
47.09764437,1.281342149,-1.193460464,0.5981283188,2024-06-05 16:41:12.097644
47.1381375,0.681216538,-1.228346825,0.8878717422,2024-06-05 16:41:12.138137
47.1786201,-1.328478694,0.9015865922,-0.2432725877,2024-06-05 16:41:12.178620
47.21912271,0.5965304971,1.89265275,0.03395430371,2024-06-05 16:41:12.219123
47.25965713,-1.755770326,0.4074516296,-0.3235645294,2024-06-05 16:41:12.259657
47.30016192,-2.023676395,2.331928253,-1.663627625,2024-06-05 16:41:12.300162
47.34064307,-1.038069606,-0.4335498512,-2.350303411,2024-06-05 16:41:12.340643
47.38112786,-3.438305855,-1.851641297,-0.2025274336,2024-06-05 16:41:12.381128
47.42163786,-1.474149346,1.991186857,0.8689638376,2024-06-05 16:41:12.421638
47.46211869,-1.946713328,1.100785136,0.4018591642,2024-06-05 16:41:12.462119
47.50259286,-1.286934614,1.298385859,-0.3752283454,2024-06-05 16:41:12.502593
47.54308182,-1.0109061,0.7645710111,-0.7227606177,2024-06-05 16:41:12.543082
47.58355625,-0.388410598,0.6537867785,-0.6338136196,2024-06-05 16:41:12.583556
47.6240851,-0.1961360276,0.1713693589,-0.3230319023,2024-06-05 16:41:12.624085
47.66455448,-0.07762885839,0.2945369184,0.1615159512,2024-06-05 16:41:12.664554
47.70504026,1.36642766,-0.4111799598,0.6415365934,2024-06-05 16:41:12.705040
47.74551838,3.366003275,-0.5435351729,1.11596477,2024-06-05 16:41:12.745518
47.78602114,3.263208151,0.2862813771,1.106643915,2024-06-05 16:41:12.786021
47.82652541,1.894783258,0.9207608104,0.4162397981,2024-06-05 16:41:12.826525
47.86700114,1.826075673,2.027404785,0.5113118291,2024-06-05 16:41:12.867001
47.90748656,1.135405302,-0.6660369635,0.4442021847,2024-06-05 16:41:12.907487
47.94797302,0.7884055972,-1.472817779,1.333804846,2024-06-05 16:41:12.947973
47.98846396,0.9090432525,-2.436587334,1.489062667,2024-06-05 16:41:12.988464
48.02895578,-0.2864145339,-2.713547945,0.9852073789,2024-06-05 16:41:13.028956
48.06943875,-1.399316788,-2.047377825,-0.1671084315,2024-06-05 16:41:13.069439
48.10994422,-0.7951964736,-0.724624753,-0.6378082633,2024-06-05 16:41:13.109944
48.15045401,1.459635496,-1.604906678,1.098654747,2024-06-05 16:41:13.150454
48.19095458,-0.2589847744,-0.3497959077,0.5962641835,2024-06-05 16:41:13.190955
48.2314088,0.1055912226,1.671350598,-0.1420754492,2024-06-05 16:41:13.231409
48.27189406,-0.3854812086,-0.04913387448,0.7392717004,2024-06-05 16:41:13.271894
48.31238484,-2.160825253,1.109307051,-0.7757559419,2024-06-05 16:41:13.312385
48.35290369,-1.299184799,1.956300497,-2.584654808,2024-06-05 16:41:13.352904
48.39342948,-2.314884424,-3.843760252,-1.463230729,2024-06-05 16:41:13.393429
48.43388489,-2.577198029,1.119693041,0.4673709869,2024-06-05 16:41:13.433885
48.47437406,-1.805570006,1.266162634,0.9198287129,2024-06-05 16:41:13.474374
48.51486338,-1.705704331,1.596251726,0.2390116602,2024-06-05 16:41:13.514863
48.55535979,-1.231808782,1.109040737,-0.5834813714,2024-06-05 16:41:13.555360
48.59585166,-1.195058346,0.8122401834,-0.5736280084,2024-06-05 16:41:13.595852
48.63633385,-0.01904104091,0.9628375173,-0.5941337347,2024-06-05 16:41:13.636334
48.67685234,-0.5587147474,0.09094426781,0.2592510879,2024-06-05 16:41:13.676852
48.71729922,0.9465926886,0.2953358591,0.4223648906,2024-06-05 16:41:13.717299
48.75780489,2.949896574,-0.2089188248,1.334071159,2024-06-05 16:41:13.757805
48.79831505,3.693029642,-0.5107792616,1.470953703,2024-06-05 16:41:13.798315
48.83878453,2.589315176,1.834597588,0.523029387,2024-06-05 16:41:13.838785
48.87928546,1.950441718,1.138068318,0.5643072128,2024-06-05 16:41:13.879285
48.91978849,2.453364849,-0.3095833361,-0.4340824485,2024-06-05 16:41:13.919788
48.96029088,0.9545819163,-0.8734911084,0.8425993323,2024-06-05 16:41:13.960291
49.00075255,1.08773613,-1.589727163,1.120491982,2024-06-05 16:41:14.000753
49.04125396,0.2452699095,-2.466413975,0.6415365934,2024-06-05 16:41:14.041254
49.08173864,-1.25551033,-2.020480633,-0.1601844132,2024-06-05 16:41:14.081739
49.12224646,-1.372685909,-0.7888050675,-0.7848104239,2024-06-05 16:41:14.122246
49.16272604,1.538462758,-1.560433269,0.9102416039,2024-06-05 16:41:14.162726
49.20323114,0.1504641622,-0.51956743,0.5752258301,2024-06-05 16:41:14.203231
49.24372698,0.2703028917,1.587729812,0.1109173894,2024-06-05 16:41:14.243727
49.28420968,-0.8391373158,0.6750914454,-0.1226349548,2024-06-05 16:41:14.284210
49.32468203,-2.209825993,1.948044896,-1.779205441,2024-06-05 16:41:14.324682
49.36515093,-1.284271598,0.4529903531,-2.542045355,2024-06-05 16:41:14.365151
49.40566802,-3.908473015,-2.520740747,-0.06724283099,2024-06-05 16:41:14.405668
49.44620187,-1.827140927,2.333792448,0.8407351375,2024-06-05 16:41:14.446202
49.48665203,-2.011159897,0.01398118306,0.6868090034,2024-06-05 16:41:14.486652
49.52718776,-1.881201506,1.817021251,-0.0006657706108,2024-06-05 16:41:14.527188
49.56763453,-0.8913337588,0.9383371472,-0.6908035874,2024-06-05 16:41:14.567635
49.60811359,-0.8444634676,0.6239602566,-0.6505910754,2024-06-05 16:41:14.608114
49.64859125,-0.1591191888,0.510512948,-0.6732272506,2024-06-05 16:41:14.648591
49.68910067,-0.3721657991,0.24234052,0.08721595258,2024-06-05 16:41:14.689101
49.72958396,0.8845428824,0.3869459033,0.1697715074,2024-06-05 16:41:14.729584
49.77009146,2.87533021,0.239144817,1.034740686,2024-06-05 16:41:14.770091
49.81057875,3.520195723,-0.5925358534,1.698780417,2024-06-05 16:41:14.810579
49.8510526,2.429929733,1.295456529,0.880415082,2024-06-05 16:41:14.851053
49.89156234,1.752574682,1.901440978,0.5581821203,2024-06-05 16:41:14.891562
49.93206833,1.740590811,-0.482816875,0.08215609938,2024-06-05 16:41:14.932068
49.97256578,0.7163692117,-1.194525719,1.238200188,2024-06-05 16:41:14.972566
50.01306015,1.181210279,-1.687861681,1.351381302,2024-06-05 16:41:15.013060
50.05354343,0.2463351339,-2.649367571,0.7358096838,2024-06-05 16:41:15.053543
50.09404156,-1.453377366,-2.59743762,-0.07469946891,2024-06-05 16:41:15.094042
50.13450515,-1.315429688,-0.4857462645,-0.5035889149,2024-06-05 16:41:15.134505
50.17499796,1.692389011,-1.608768225,0.9849410653,2024-06-05 16:41:15.174998
50.21548385,0.001997311832,-0.1378145218,0.4822842479,2024-06-05 16:41:15.215484
50.25598765,0.7344781756,1.781069636,0.1434070021,2024-06-05 16:41:15.255988
50.29650849,-0.9874709845,-0.1050586104,0.2994636297,2024-06-05 16:41:15.296508
50.33698479,-2.044714689,2.037524462,-1.74644959,2024-06-05 16:41:15.336985
50.37746146,-1.210237861,-0.02676397935,-2.859351635,2024-06-05 16:41:15.377461
50.41794546,-3.58597374,-2.008230448,-0.5304860473,2024-06-05 16:41:15.417945
50.4584225,-1.809298277,1.827939868,0.8551158309,2024-06-05 16:41:15.458422
50.49890901,-2.218347788,0.3842828274,0.4386096895,2024-06-05 16:41:15.498909
50.53940244,-1.637130022,1.281342149,0.03954677656,2024-06-05 16:41:15.539402
50.57989151,-1.396653652,0.8093107939,-0.6761566401,2024-06-05 16:41:15.579892
50.62039609,-0.6521888971,1.187069058,-0.6708304882,2024-06-05 16:41:15.620396
50.66090031,0.004394086078,0.4383433759,-0.5728290677,2024-06-05 16:41:15.660900
50.70138437,-0.2459356785,0.2215684652,0.4316856861,2024-06-05 16:41:15.701384
50.74188963,1.426347017,0.1466026902,0.6354115009,2024-06-05 16:41:15.741890
50.782385,3.466933966,-0.2392779738,1.379609942,2024-06-05 16:41:15.782385
50.82287536,3.465602398,-0.1679073572,1.577610135,2024-06-05 16:41:15.822875
50.86335307,2.235258341,1.666823387,0.6772218943,2024-06-05 16:41:15.863353
50.90388041,2.127403498,1.272820354,0.1263632625,2024-06-05 16:41:15.903880
50.94435317,1.675078988,-1.028615594,-0.1436733007,2024-06-05 16:41:15.944353
50.98484333,0.8824124336,-0.9187634587,1.209172606,2024-06-05 16:41:15.984843
51.02531234,0.9476579428,-1.762694359,0.9910661578,2024-06-05 16:41:16.025312
51.06580468,-0.2083862126,-2.25230217,0.5938674212,2024-06-05 16:41:16.065805
51.10629166,-1.8473804,-1.849510789,-0.2462019771,2024-06-05 16:41:16.106292
51.14677942,-0.962970674,-0.01557903271,-0.4817516208,2024-06-05 16:41:16.146779
51.18727083,1.372552752,-1.737395048,0.7957290411,2024-06-05 16:41:16.187271
51.2277614,-0.6199656129,0.2628462613,0.09600412846,2024-06-05 16:41:16.227761
51.26824854,0.4718982279,1.987724781,0.02276935615,2024-06-05 16:41:16.268249
51.30873765,-1.028216124,0.02410089783,-0.1229012609,2024-06-05 16:41:16.308738
51.34921422,-2.243913412,1.536332369,-1.561099052,2024-06-05 16:41:16.349214
51.38975687,-1.192927837,-0.1066564545,-2.372939825,2024-06-05 16:41:16.389757
51.43022432,-3.889831543,-2.005301237,-0.0904116556,2024-06-05 16:41:16.430224
51.47070265,-1.59239018,2.15430069,0.8886706233,2024-06-05 16:41:16.470703
51.51123213,-1.976273537,0.5754921436,0.5432688594,2024-06-05 16:41:16.511232
51.55169328,-1.595053315,1.480940223,-0.2102503628,2024-06-05 16:41:16.551693
51.59226984,-1.115698457,0.8672328591,-0.8133054376,2024-06-05 16:41:16.592270
51.63266682,-0.758179605,0.305721879,-0.6761566401,2024-06-05 16:41:16.632667
51.6731588,-0.01078548469,-0.176429227,-0.3925383687,2024-06-05 16:41:16.673159
51.71368239,0.02143781446,0.3331516385,0.3952014446,2024-06-05 16:41:16.713682
51.7541452,2.03179884,-0.1580539495,0.623693943,2024-06-05 16:41:16.754145
51.79465218,3.706345081,-0.2182396203,1.526612043,2024-06-05 16:41:16.794652
51.83511656,3.413938761,0.9886693954,1.342060447,2024-06-05 16:41:16.835117
51.87565364,1.851907611,1.313032866,0.678819716,2024-06-05 16:41:16.875654
51.9161439,2.17134428,0.9053149223,-0.3592498302,2024-06-05 16:41:16.916144
51.95660375,1.219026089,-0.9147688746,0.5824161768,2024-06-05 16:41:16.956604
51.99709093,0.9609733224,-1.130611658,1.179346085,2024-06-05 16:41:16.997091
52.03758958,0.6524552107,-1.685997605,0.810642302,2024-06-05 16:41:17.037590
52.07809317,-0.8330122232,-1.552177668,0.1972012669,2024-06-05 16:41:17.078093
52.11861172,-2.140585661,-1.064567208,-0.7312824726,2024-06-05 16:41:17.118612
52.15903724,0.7083799839,0.3299559355,0.1814890802,2024-06-05 16:41:17.159037
52.19958291,1.039800644,-1.159106731,0.5528559685,2024-06-05 16:41:17.199583
52.24002666,-1.486665845,0.9394024014,-0.1005313694,2024-06-05 16:41:17.240027
52.2805651,0.6889394522,1.353778005,-0.3142437339,2024-06-05 16:41:17.280565
52.32105599,-1.191063643,-1.008376241,-0.1031944528,2024-06-05 16:41:17.321056
52.3615201,-1.852440238,0.5659050345,-1.146856546,2024-06-05 16:41:17.361520
52.40203166,-1.70490551,-0.9730903506,-1.710764289,2024-06-05 16:41:17.402032
52.44251541,-3.054289341,-0.7781527042,0.0949388966,2024-06-05 16:41:17.442515
52.48301651,-1.600113153,1.38094151,0.8407351375,2024-06-05 16:41:17.483017
52.52350521,-1.77467823,0.7323477268,0.482816875,2024-06-05 16:41:17.523505
52.56399838,-1.300250053,1.201715946,-0.4543218911,2024-06-05 16:41:17.563998
52.60447302,-1.07029283,0.447930485,-0.7286193967,2024-06-05 16:41:17.604473
52.64497776,-0.1391460598,0.5326164961,-0.6897383928,2024-06-05 16:41:17.644978
52.68547609,-0.2805557549,-0.2861482203,-0.1351514459,2024-06-05 16:41:17.685476
52.72594411,0.4577838778,0.3030588031,0.3507279754,2024-06-05 16:41:17.725944
52.76643177,2.427799225,-0.5358121991,0.7648373246,2024-06-05 16:41:17.766432
52.8069638,3.828181267,-0.583747685,1.473616719,2024-06-05 16:41:17.806964
52.8474888,3.049495935,1.614627004,0.9609733224,2024-06-05 16:41:17.847489
52.88789646,1.952572107,1.966952801,0.4977301359,2024-06-05 16:41:17.887896
52.92842109,2.303965807,-0.3886769116,-0.3754946291,2024-06-05 16:41:17.928421
52.96886901,0.9010539651,-0.7680330276,0.5355458856,2024-06-05 16:41:17.968869
53.00934328,0.8184984326,-1.097323179,0.9639027119,2024-06-05 16:41:18.009343
53.04986797,0.2657756507,-1.701709747,0.6577813625,2024-06-05 16:41:18.049868
53.09036937,-1.052982807,-1.490926743,0.2225005478,2024-06-05 16:41:18.090369
53.13085583,-2.063090086,-1.082143545,-0.6473953724,2024-06-05 16:41:18.130856
53.17136989,0.5781552196,0.01371487509,0.09227581322,2024-06-05 16:41:18.171370
53.2118602,0.9295489788,-1.625012994,0.6119763851,2024-06-05 16:41:18.211860
53.25234323,-1.438464046,0.6015903354,0.2664414048,2024-06-05 16:41:18.252343
53.29281942,0.3765598834,2.23073101,-0.1354177445,2024-06-05 16:41:18.292819
53.33330791,-1.026618361,-1.449648976,0.24753353,2024-06-05 16:41:18.333308
53.37382125,-1.809298277,-0.1069227681,-1.105312467,2024-06-05 16:41:18.373821
53.41431765,-1.647249699,0.1396786869,-2.19504571,2024-06-05 16:41:18.414318
53.45478244,-3.082251787,0.1660431921,0.1159772426,2024-06-05 16:41:18.454782
53.49528463,-1.877739549,1.412365794,0.7280867696,2024-06-05 16:41:18.495285
53.5357714,-1.865489364,0.666303277,0.2403431982,2024-06-05 16:41:18.535771
53.5762689,-1.18200922,1.410501719,-0.4481967986,2024-06-05 16:41:18.576269
53.6167414,-1.484002709,0.6263570189,-0.5786878467,2024-06-05 16:41:18.616741
53.65724416,-0.3127790391,0.4340824485,-0.5946663618,2024-06-05 16:41:18.657244
53.69774276,-0.09307473898,-0.02276935615,-0.109585844,2024-06-05 16:41:18.697743
53.73823672,0.8765535951,0.2428731322,0.3754946291,2024-06-05 16:41:18.738237
53.77870427,3.024462938,-0.2102503628,0.9684299827,2024-06-05 16:41:18.778704
53.81922161,3.84469223,-0.3844159544,1.690258503,2024-06-05 16:41:18.819222
53.85968875,2.597304344,1.771482468,0.5520570278,2024-06-05 16:41:18.859689
53.90019724,2.115952253,1.393458009,0.5091813803,2024-06-05 16:41:18.900197
53.94070489,1.990521073,-0.1716356725,-0.1857500076,2024-06-05 16:41:18.940705
53.98118104,0.6660369635,-0.5669702888,0.7422010899,2024-06-05 16:41:18.981181
54.02165963,0.7644378543,-1.281874776,1.060306311,2024-06-05 16:41:19.021660
54.06214786,-0.1644453406,-1.700644493,0.6511237025,2024-06-05 16:41:19.062148
54.10265349,-1.497051835,-1.956833124,-0.1545919478,2024-06-05 16:41:19.102653
54.14315291,-1.283738971,-0.3423392773,-0.6439333558,2024-06-05 16:41:19.143153
54.18363963,1.730471015,-1.513296723,0.9963923693,2024-06-05 16:41:19.183640
54.22413625,-0.2472672164,-0.08162347972,0.4716319144,2024-06-05 16:41:19.224136
54.26461234,-0.05525896326,1.613561749,-0.3035914004,2024-06-05 16:41:19.264612
54.30509833,-0.3836170435,-0.0685743764,0.440207541,2024-06-05 16:41:19.305098
54.3455988,-2.08785677,0.3685706258,-0.7624405622,2024-06-05 16:41:19.345599
54.38609922,-1.485334277,1.385202408,-2.495441437,2024-06-05 16:41:19.386099
54.42659494,-3.132850409,-3.850684166,-1.497983932,2024-06-05 16:41:19.426595
54.46707349,-2.082796812,1.933930516,0.7145050764,2024-06-05 16:41:19.467073
54.50756896,-1.891587496,0.4284899831,1.022490501,2024-06-05 16:41:19.507569
54.54805213,-1.658434629,1.379609942,0.2129134536,2024-06-05 16:41:19.548052
54.5885513,-0.8583115339,0.9223586321,-0.6061176062,2024-06-05 16:41:19.588551
54.62901369,-1.07655108,-0.08375394344,-0.6886731386,2024-06-05 16:41:19.629014
54.66948515,-0.02489982173,0.2556559145,-0.4340824485,2024-06-05 16:41:19.669485
54.71004484,-0.0736342296,0.2684387267,0.3308880031,2024-06-05 16:41:19.710045
54.75049599,1.670019031,0.239144817,0.3520595133,2024-06-05 16:41:19.750496
54.79103515,3.448558807,-0.3748288751,1.315429688,2024-06-05 16:41:19.791035
54.83148307,3.934171915,-0.4236964285,1.677475691,2024-06-05 16:41:19.831483
54.87196562,2.012092113,2.8375144,0.4407401681,2024-06-05 16:41:19.871966
54.91249031,2.103169441,0.8475260139,0.3430050313,2024-06-05 16:41:19.912490
54.95295922,1.75976491,-1.2027812,-0.1258306503,2024-06-05 16:41:19.952959
54.99349599,0.8342106342,-1.106111288,1.058175802,2024-06-05 16:41:19.993496
55.03392515,1.078148961,-1.728873253,0.7097114921,2024-06-05 16:41:20.033925
55.07448692,-0.3327521682,-1.548183084,0.334882617,2024-06-05 16:41:20.074487
55.11492166,-1.908897638,-1.371354342,-0.327026546,2024-06-05 16:41:20.114922
55.1554088,-0.4603138268,-0.383883357,-0.5616441369,2024-06-05 16:41:20.155409
55.1959463,1.468956351,-1.900642037,0.7107767463,2024-06-05 16:41:20.195946
55.23639328,-0.6444659829,0.2067883611,0.2683055699,2024-06-05 16:41:20.236393
55.27689968,-0.1623148769,0.9330109954,-0.2621804774,2024-06-05 16:41:20.276900
55.31739224,-0.4477973282,0.5283555984,0.1868152469,2024-06-05 16:41:20.317392
55.35789406,-2.015953541,0.2298240215,-0.8705616593,2024-06-05 16:41:20.357894
55.39834198,-1.262966871,0.875754714,-2.39770627,2024-06-05 16:41:20.398342
55.43887265,-3.509010792,-2.851096153,-0.7528534532,2024-06-05 16:41:20.438873
55.47934911,-2.369211435,2.056032896,0.9662995338,2024-06-05 16:41:20.479349
55.51982692,-1.888125539,0.254058063,0.8963935971,2024-06-05 16:41:20.519827
55.56031599,-1.731003642,1.174818873,0.09067796171,2024-06-05 16:41:20.560316
55.60081724,-0.8399362564,1.322353601,-0.4979964495,2024-06-05 16:41:20.600817
55.6413329,-1.023955226,0.2953358591,-0.6902710199,2024-06-05 16:41:20.641333
55.68179149,-0.2158428431,0.1647116542,-0.6977276206,2024-06-05 16:41:20.681791
55.72227659,-0.07682993263,0.1226349548,0.1836195439,2024-06-05 16:41:20.722277
55.76281113,1.435934067,-0.1516625583,0.3252955377,2024-06-05 16:41:20.762811
55.8033081,3.323660135,-0.2166417688,1.374283791,2024-06-05 16:41:20.803308
55.84378139,3.834572554,0.4703003764,1.270689845,2024-06-05 16:41:20.843781
55.88425795,1.790124059,1.859364271,0.6460638046,2024-06-05 16:41:20.884258
55.92475118,1.756569266,1.057909489,0.6782871485,2024-06-05 16:41:20.924751
55.96522842,1.423151374,-0.5451329947,0.6007914543,2024-06-05 16:41:20.965228
56.00572446,1.086670876,-2.025007963,1.394789457,2024-06-05 16:41:21.005724
56.04622566,1.001452208,-2.576133013,1.09439373,2024-06-05 16:41:21.046226
56.08670659,-0.3375457227,-2.246709585,0.4426043332,2024-06-05 16:41:21.086707
56.12722253,-1.7427212,-1.475480914,-0.5456656218,2024-06-05 16:41:21.127223
56.1677168,-0.02143781446,-0.4287562966,-0.2801562846,2024-06-05 16:41:21.167717
56.20817409,1.409835935,-1.838059545,1.098654747,2024-06-05 16:41:21.208174
56.2486992,-0.2070546746,0.2535254657,-0.001198387123,2024-06-05 16:41:21.248699
56.28918821,1.292260766,1.473217249,0.8628387451,2024-06-05 16:41:21.289188
56.32965404,-1.881734133,0.1577876359,-0.2296908647,2024-06-05 16:41:21.329654
56.37015779,-1.85483706,2.389450788,-2.541779041,2024-06-05 16:41:21.370158
56.41064701,-1.490127802,-1.507437825,-2.63605237,2024-06-05 16:41:21.410647
56.45113133,-3.962800026,-0.7906692028,0.1649779677,2024-06-05 16:41:21.451131
56.49163331,-1.815955997,1.892919064,0.9937292337,2024-06-05 16:41:21.491633
56.53212222,-1.899843097,0.5872097015,0.7448641658,2024-06-05 16:41:21.532122
56.57263133,-1.460833907,1.665225506,0.002529928461,2024-06-05 16:41:21.572631
56.61309597,-1.361500978,0.8898690343,-0.687607944,2024-06-05 16:41:21.613096
56.65358086,-0.7355434299,0.7741581202,-0.7424674034,2024-06-05 16:41:21.653581
56.69409128,-0.112781547,0.4127778113,-0.4260932207,2024-06-05 16:41:21.694091
56.73457779,0.07256899774,0.4037233293,0.2848166823,2024-06-05 16:41:21.734578
56.77503378,1.806901574,-0.3553883731,0.6388735175,2024-06-05 16:41:21.775034
56.8155167,3.583044529,-0.507317245,1.444322824,2024-06-05 16:41:21.815517
56.85602409,3.429118156,0.3480648994,1.148187995,2024-06-05 16:41:21.856024
56.89653331,1.919816256,0.9894683361,0.4338161349,2024-06-05 16:41:21.896533
56.93703503,2.214220047,0.8424661756,-0.2549901605,2024-06-05 16:41:21.937035
56.97751946,1.196922421,-1.370821714,0.248865068,2024-06-05 16:41:21.977519
57.01798014,0.9388697743,-1.601444721,1.163900256,2024-06-05 16:41:22.017980
57.05845118,1.082143545,-2.399570465,0.9001219273,2024-06-05 16:41:22.058451
57.09894644,-0.4216991365,-2.137922764,0.5826824903,2024-06-05 16:41:22.098946
57.13947847,-1.852440238,-1.272287726,-0.1929403245,2024-06-05 16:41:22.139478
57.1799767,0.5893401504,-0.3745625615,0.3173062801,2024-06-05 16:41:22.179977
57.22045112,1.281342149,-1.794917703,0.9822779894,2024-06-05 16:41:22.220451
57.26095664,-1.074953318,0.5099803209,0.08615072072,2024-06-05 16:41:22.260957
57.30146394,0.946326375,1.862826228,-0.000932078925,2024-06-05 16:41:22.301464
57.34197138,-1.773080349,0.5845466256,-0.02383458801,2024-06-05 16:41:22.341971
57.38242904,-2.283060789,3.064409018,-1.790390372,2024-06-05 16:41:22.382429
57.42292071,-0.9102416039,-0.01131810062,-2.9147439,2024-06-05 16:41:22.422921
57.46340383,-4.215659618,-2.897700071,-0.2105166763,2024-06-05 16:41:22.463404
57.50389185,-1.571618199,2.494109869,0.9243559837,2024-06-05 16:41:22.503892
57.5443855,-2.123808384,0.9077116847,0.9511199594,2024-06-05 16:41:22.544385
57.58487185,-1.106643915,1.771216154,-0.121836029,2024-06-05 16:41:22.584872
57.62536566,-1.062037349,0.8334116936,-0.6527215242,2024-06-05 16:41:22.625366
57.66586816,-0.4131772518,0.7746906877,-0.709178865,2024-06-05 16:41:22.665868
57.70637055,-0.1881467849,0.3906742036,-0.2310224175,2024-06-05 16:41:22.706371
57.74684435,0.3110480309,0.5549864173,0.1700378209,2024-06-05 16:41:22.746844
57.78734503,1.799977541,0.07043853402,0.6255580783,2024-06-05 16:41:22.787345
57.82788654,3.460542679,-0.5936011076,1.591724396,2024-06-05 16:41:22.827887
57.868403,3.095300913,0.5419372916,1.523682714,2024-06-05 16:41:22.868403
57.90881503,1.786928415,0.8738905191,0.4087831676,2024-06-05 16:41:22.908815
57.94933826,2.09784317,0.8186315894,-0.1561897993,2024-06-05 16:41:22.949338
57.98982409,1.097056866,-0.9981233478,0.3053224087,2024-06-05 16:41:22.989824
58.03027722,0.8912006021,-1.262434244,1.202248573,2024-06-05 16:41:23.030277
58.07076977,0.8698959351,-2.09451437,1.144726038,2024-06-05 16:41:23.070770
58.11127706,-0.4886756539,-2.556958675,0.7086462975,2024-06-05 16:41:23.111277
58.15175659,-1.818352818,-1.842320561,-0.1881467849,2024-06-05 16:41:23.151757
58.1922504,0.5049204826,-0.5965304971,0.07523208112,2024-06-05 16:41:23.192250
58.23272498,1.389596462,-2.190917969,0.9219591618,2024-06-05 16:41:23.232725
58.27324514,-0.8298165202,0.330222249,0.2965342402,2024-06-05 16:41:23.273245
58.31369274,-0.03102491237,2.163355112,-0.3374125659,2024-06-05 16:41:23.313693
58.35419139,-0.9451280236,0.4335498512,0.1663095057,2024-06-05 16:41:23.354191
58.39472253,-2.248973131,2.082397461,-0.9407339096,2024-06-05 16:41:23.394723
58.43519602,-1.38094151,1.143128157,-2.426467657,2024-06-05 16:41:23.435196
58.47568175,-3.471860647,-3.0468328,-0.7864083052,2024-06-05 16:41:23.475682
58.51616836,-1.705438018,2.461620331,0.5983946323,2024-06-05 16:41:23.516168
58.55667737,-1.955235243,0.5861444473,0.648194313,2024-06-05 16:41:23.556677
58.59716118,-1.272820354,2.303965807,-0.1327546686,2024-06-05 16:41:23.597161
58.63765665,-1.429409623,1.198786616,-0.6018566489,2024-06-05 16:41:23.637657
58.67814685,-0.6199656129,0.9828106165,-0.6908035874,2024-06-05 16:41:23.678147
58.71863816,-0.1410102248,0.4636426866,-0.5166380405,2024-06-05 16:41:23.718638
58.75912946,-0.1101184636,0.2940043211,0.3034582436,2024-06-05 16:41:23.759129
58.79962472,1.438330889,0.0171768833,0.6692326665,2024-06-05 16:41:23.799625
58.84010758,3.354285717,-0.2280930281,1.607702971,2024-06-05 16:41:23.840108
58.88062123,3.211544514,0.2014621943,1.35191381,2024-06-05 16:41:23.880621
58.92111659,2.343912125,0.8754884005,0.5760247707,2024-06-05 16:41:23.921117
58.96162191,1.919816256,0.4018591642,0.2619141638,2024-06-05 16:41:23.961622
59.00207691,1.803173184,-0.4559197426,0.1396786869,2024-06-05 16:41:24.002077
59.04255196,1.10557878,-1.6588341,1.142861843,2024-06-05 16:41:24.042552
59.08307368,1.051251888,-2.118215799,1.084540367,2024-06-05 16:41:24.083074
59.12356388,-0.3473991156,-2.275204659,0.7608426809,2024-06-05 16:41:24.123564
59.16403618,-1.6555053,-1.986127019,-0.2014621943,2024-06-05 16:41:24.164036
59.20454842,-0.5059856772,-0.6085143685,-0.4133104086,2024-06-05 16:41:24.204548
59.24502602,1.535799742,-1.897446275,0.9665657878,2024-06-05 16:41:24.245026
59.28552868,-0.1380808353,-0.002796236658,0.413044095,2024-06-05 16:41:24.285529
59.32600243,-0.09973244369,1.161769748,-0.3970656097,2024-06-05 16:41:24.326002
59.36648956,-0.3436708152,0.7768211961,0.2137123793,2024-06-05 16:41:24.366490
59.40700399,-2.0151546,0.797593236,-0.9300816059,2024-06-05 16:41:24.407004
59.4475017,-1.368691325,1.019561172,-2.442179918,2024-06-05 16:41:24.447502
59.48799274,-2.787581682,-3.042838097,-1.178014517,2024-06-05 16:41:24.487993
59.5284418,-2.156564236,2.397173882,0.8764204979,2024-06-05 16:41:24.528442
59.56894982,-2.034595013,0.4236964285,0.7363423109,2024-06-05 16:41:24.568950
59.6094242,-1.386533976,1.300516367,0.07070484012,2024-06-05 16:41:24.609424
59.64992076,-1.440061927,1.168960094,-0.4817516208,2024-06-05 16:41:24.649921
59.69040842,-1.461366534,0.07629731297,-0.8388710022,2024-06-05 16:41:24.690408
59.73092597,-0.2086525112,1.077083707,-0.7003906965,2024-06-05 16:41:24.730926
59.77140368,-0.2683055699,0.5009258389,0.0464707911,2024-06-05 16:41:24.771404
59.81190279,0.7615084648,0.1258306503,0.4886756539,2024-06-05 16:41:24.811903
59.85238441,2.632989645,-0.5035889149,1.41582787,2024-06-05 16:41:24.852384
59.8928617,3.3500247,-0.1250317246,1.689459562,2024-06-05 16:41:24.892862
59.9333593,2.729393244,0.6218297482,0.8971925378,2024-06-05 16:41:24.933359
59.97386748,1.963490725,1.132475853,0.547529757,2024-06-05 16:41:24.973867
60.01434935,2.119946957,-0.4700340629,-0.3126458824,2024-06-05 16:41:25.014349
60.05481514,0.8597761989,-1.269890904,0.8923989534,2024-06-05 16:41:25.054815
60.09532206,0.9966586232,-1.748579979,1.253912449,2024-06-05 16:41:25.095322
60.1358193,0.2681724131,-2.637383699,0.9001219273,2024-06-05 16:41:25.135819
60.1763181,-1.081611037,-2.22860074,0.06697652489,2024-06-05 16:41:25.176318
60.21682545,-1.747248411,-0.8284850121,-0.7038527131,2024-06-05 16:41:25.216825
60.25728654,1.509168863,-1.156709909,0.7898702621,2024-06-05 16:41:25.257287
60.29778638,0.6372756362,-0.5845466256,0.7105104327,2024-06-05 16:41:25.297786
60.33828274,-0.1961360276,1.159106731,-0.1921414137,2024-06-05 16:41:25.338283
60.37880003,-0.3015941083,1.166296959,0.138347134,2024-06-05 16:41:25.378800
60.41928482,-2.136058569,1.330076575,-1.158574104,2024-06-05 16:41:25.419285
60.45977446,-1.562031031,1.713693619,-2.375336409,2024-06-05 16:41:25.459774
60.50026305,-3.115007639,-2.84710145,-0.9969249368,2024-06-05 16:41:25.500263
60.54075336,-1.957365632,2.346042633,0.7153039575,2024-06-05 16:41:25.540753
60.58123394,-1.905968189,0.6013240218,0.6604444981,2024-06-05 16:41:25.581234
60.62172857,-1.876674294,1.178547144,0.2235657871,2024-06-05 16:41:25.621729
60.66220894,-1.280809522,1.666024446,-0.3930709958,2024-06-05 16:41:25.662209
60.70268878,-1.358837843,0.7443315983,-0.6774882078,2024-06-05 16:41:25.702689
60.74320368,-0.03102491237,0.9452611804,-0.7105104327,2024-06-05 16:41:25.743204
60.78368441,-0.2906754613,-0.01744319126,0.04194355011,2024-06-05 16:41:25.783684
60.8241781,0.6884068251,0.3288906813,0.3794892728,2024-06-05 16:41:25.824178
60.86466086,2.713414907,-0.159651801,0.9227581024,2024-06-05 16:41:25.864661
60.90514092,3.659741163,-0.7414022088,1.711829424,2024-06-05 16:41:25.905141
60.94562774,2.709420204,1.322353601,0.8460613489,2024-06-05 16:41:25.945628
60.98612524,1.722481847,1.42541492,0.6354115009,2024-06-05 16:41:25.986125
61.02662019,2.12021327,-0.1774944514,-0.07576470077,2024-06-05 16:41:26.026620
61.06710816,1.047789812,-1.472018838,0.5083824396,2024-06-05 16:41:26.067108
61.10759519,1.04912138,-1.639127374,1.196656108,2024-06-05 16:41:26.107595
61.1480793,0.5003932118,-2.427266598,0.9145025611,2024-06-05 16:41:26.148079
61.18857659,-0.986938417,-2.360955954,0.1354177445,2024-06-05 16:41:26.188577
61.22909206,-1.675478339,-0.8292838931,-0.657248795,2024-06-05 16:41:26.229092
61.26958685,1.309837103,-1.270956159,0.6378082633,2024-06-05 16:41:26.269587
61.31007597,0.5792204738,-0.7161028981,0.7222279906,2024-06-05 16:41:26.310076
61.35055102,-0.9525846243,0.6362104416,-0.4119788706,2024-06-05 16:41:26.350551
61.39103727,0.1882799417,1.92753911,0.04274247587,2024-06-05 16:41:26.391037
61.4315293,-1.861760974,0.2828193605,-0.6833469868,2024-06-05 16:41:26.431529
61.47202258,-1.981599689,1.655638456,-1.977871418,2024-06-05 16:41:26.472023
61.51251435,-2.064687967,-2.574801445,-1.598382115,2024-06-05 16:41:26.512514
61.55301743,-2.616345406,1.154579401,0.7597774267,2024-06-05 16:41:26.553017
61.59349264,-1.902506232,0.8165011406,1.052317023,2024-06-05 16:41:26.593493
61.63398086,-2.107297182,1.411833167,0.2592510879,2024-06-05 16:41:26.633981
61.67446305,-0.8175663352,1.094660044,-0.422098577,2024-06-05 16:41:26.674463
61.7149954,-1.063368917,0.9694951773,-0.6380745769,2024-06-05 16:41:26.714995
61.75548399,-0.4979964495,0.6122426987,-0.7363423109,2024-06-05 16:41:26.755484
61.79596659,-0.2962679267,0.3683043122,-0.2477998286,2024-06-05 16:41:26.795967
61.83644644,0.06111774594,0.5049204826,0.3416734934,2024-06-05 16:41:26.836446
61.87694253,1.644187212,-0.2683055699,0.8290175796,2024-06-05 16:41:26.876943
61.9174193,3.418465853,-0.4023917615,1.538063288,2024-06-05 16:41:26.917419
61.95792357,3.302621841,0.5395405293,1.333804846,2024-06-05 16:41:26.957924
61.99843836,1.994781971,0.7102441192,0.489208281,2024-06-05 16:41:26.998438
62.03893534,2.4794631,0.7714950442,-0.2209026963,2024-06-05 16:41:27.038935
62.07940055,1.283472657,-0.9741556048,0.2336854935,2024-06-05 16:41:27.079401
62.1198855,0.994794488,-0.9344756603,1.336734295,2024-06-05 16:41:27.119886
62.16037519,1.051784515,-2.457093239,1.020360112,2024-06-05 16:41:27.160375
