Time (s),Linear Acceleration x (m/s^2),Linear Acceleration y (m/s^2),Linear Acceleration z (m/s^2),Datetime
0.082144584,0.0,0.0,0.0,2024-06-05 16:40:25.082145
0.122668907,0.2751163244,-0.6811208725,0.04534626007,2024-06-05 16:40:25.122669
0.207746719,-0.9081765413,-0.2182021141,-2.490414143,2024-06-05 16:40:25.207747
0.248206146,-0.6353478432,-0.247127533,2.557373047,2024-06-05 16:40:25.248206
0.288744011,0.6769274473,-1.13202095,0.0617389679,2024-06-05 16:40:25.288744
0.329201407,1.605063677,-0.81173563,-3.003171921,2024-06-05 16:40:25.329201
0.369677188,-0.4738082886,-0.8175396919,-2.60276556,2024-06-05 16:40:25.369677
0.410194323,-1.150741339,-0.4201960564,0.9534349442,2024-06-05 16:40:25.410194
0.450663646,-0.1267862916,0.781621933,0.6509838104,2024-06-05 16:40:25.450664
0.491179792,-1.36136508,0.6367034912,-2.090973854,2024-06-05 16:40:25.491180
0.531675313,-0.7107202411,1.454864979,-1.806290627,2024-06-05 16:40:25.531675
0.572176042,-0.987118125,1.105980635,-0.5722250938,2024-06-05 16:40:25.572176
0.612659219,-0.9405201674,0.2385349274,-1.508892059,2024-06-05 16:40:25.612659
0.65315625,-2.339381695,-0.7300159335,2.256728172,2024-06-05 16:40:25.653156
0.693649375,-0.73759377,-1.482523441,6.336129189,2024-06-05 16:40:25.693649
0.734141875,3.409636259,-1.157673955,1.90388298,2024-06-05 16:40:25.734142
0.774631667,5.692624092,-0.403632462,6.936396599,2024-06-05 16:40:25.774632
0.815131511,0.2745513916,-1.640976429,1.542218208,2024-06-05 16:40:25.815132
0.855652396,-1.364630103,-2.637945652,-1.422661781,2024-06-05 16:40:25.855652
0.896125417,-2.528203964,-0.2875063419,-7.782153606,2024-06-05 16:40:25.896125
0.936637813,-0.0910525322,1.07686615,-4.471028328,2024-06-05 16:40:25.936638
0.977078907,-1.076689124,-0.5444513559,-2.986330986,2024-06-05 16:40:25.977079
1.017649948,-1.993684411,-1.604519248,-1.654501438,2024-06-05 16:40:26.017650
1.058158438,-1.33348906,-1.871821165,2.089476585,2024-06-05 16:40:26.058158
1.098628229,0.06613624096,-0.1299027205,0.3392734528,2024-06-05 16:40:26.098628
1.139128438,0.298037529,0.7502707243,0.3029575348,2024-06-05 16:40:26.139128
1.179670417,1.429051638,0.4163792133,2.484275818,2024-06-05 16:40:26.179670
1.220086927,1.548151255,0.5233011246,-0.3515882492,2024-06-05 16:40:26.220087
1.260573177,0.3254306316,-0.08588385582,-0.2998075485,2024-06-05 16:40:26.260573
1.301067917,-1.170850277,0.11089921,0.6526288986,2024-06-05 16:40:26.301068
1.341570938,1.658079147,1.68322587,-0.1385593414,2024-06-05 16:40:26.341571
1.382073854,1.27199173,-0.3188769817,3.210313797,2024-06-05 16:40:26.382074
1.422566667,0.722369194,-1.33709383,3.624530792,2024-06-05 16:40:26.422567
1.463054375,1.927399158,-0.7411875725,-0.1299304962,2024-06-05 16:40:26.463054
1.503549063,3.221480131,-1.031205893,-0.6209015846,2024-06-05 16:40:26.503549
1.544069427,0.6048874855,-1.902033091,-0.473649025,2024-06-05 16:40:26.544069
1.584526979,-1.677979827,-1.271359921,-1.672819614,2024-06-05 16:40:26.584527
1.625025157,-0.2607775927,-0.3256044388,-2.463795662,2024-06-05 16:40:26.625025
1.665526302,-0.6625145674,0.110970974,-3.327899933,2024-06-05 16:40:26.665526
1.706047032,-0.6208100319,0.8105950356,-1.895794868,2024-06-05 16:40:26.706047
1.746479479,-0.7964323163,0.3329958916,-0.3951311111,2024-06-05 16:40:26.746479
1.787006198,-0.7935278416,0.6011562347,0.6493930817,2024-06-05 16:40:26.787006
1.827514011,-1.925905108,-0.5157823563,1.811365128,2024-06-05 16:40:26.827514
1.868000469,-0.651874125,-0.4039154053,1.704083443,2024-06-05 16:40:26.868000
1.908487448,-0.4033115804,1.39828968,-1.988866806,2024-06-05 16:40:26.908487
1.948978854,-1.663711786,-0.6137075424,-1.670701027,2024-06-05 16:40:26.948979
1.989481198,-2.145307064,-2.553774357,0.9287824631,2024-06-05 16:40:26.989481
2.029990261,-0.01418972015,-1.654872656,-0.5921449661,2024-06-05 16:40:27.029990
2.070460677,4.335879326,1.43778038,5.438866615,2024-06-05 16:40:27.070461
2.110958177,-0.7576355934,-1.338571072,2.020516396,2024-06-05 16:40:27.110958
2.151479792,-0.4964390099,0.5617423058,-0.2215156555,2024-06-05 16:40:27.151480
2.191964532,-1.041243315,1.128500462,-2.07730484,2024-06-05 16:40:27.191965
2.23245375,0.2309700847,0.7455639839,-3.038624763,2024-06-05 16:40:27.232454
2.27294724,0.9406259656,0.5881381035,-1.85362339,2024-06-05 16:40:27.272947
2.313424011,1.171522617,0.3328187466,-0.1975946426,2024-06-05 16:40:27.313424
2.353916771,1.552045584,-0.1749475002,-0.5236387253,2024-06-05 16:40:27.353917
2.394413802,2.845990896,-0.4897007942,1.242191315,2024-06-05 16:40:27.394414
2.434934896,2.483059406,-0.7813653946,1.835913658,2024-06-05 16:40:27.434935
2.475401615,2.245710135,-0.2947514057,1.920844078,2024-06-05 16:40:27.475402
2.515894323,1.384701967,-0.4412751198,3.112059593,2024-06-05 16:40:27.515894
2.556377396,-2.609828472,0.2742664814,3.435286522,2024-06-05 16:40:27.556377
2.596894011,-0.8494796753,0.2706875801,1.606661797,2024-06-05 16:40:27.596894
2.637420261,0.3244993687,-0.324411869,-0.3523101807,2024-06-05 16:40:27.637420
2.677873334,0.6145792007,-1.18244338,0.06346607208,2024-06-05 16:40:27.677873
2.71843099,-1.037590027,-1.335760117,0.5944547653,2024-06-05 16:40:27.718431
2.75882349,-2.299396276,0.2483017445,0.5394935608,2024-06-05 16:40:27.758823
2.799356094,-1.179589987,0.386909008,-0.2448129654,2024-06-05 16:40:27.799356
2.839882136,-0.5212234855,0.569870472,-0.9698696136,2024-06-05 16:40:27.839882
2.880340834,-0.2837195396,-0.3426718712,-2.50727272,2024-06-05 16:40:27.880341
2.920798073,-0.3919187784,-0.1461672783,-2.413666725,2024-06-05 16:40:27.920798
2.961320104,-0.9949038029,-0.4168148041,-2.683466911,2024-06-05 16:40:27.961320
3.001868386,-1.309900522,-0.19242239,-2.207918644,2024-06-05 16:40:28.001868
3.042334271,-0.0003036260605,-0.02080202103,-1.162590504,2024-06-05 16:40:28.042334
3.082814896,-0.009631723166,0.2591986656,-1.565635204,2024-06-05 16:40:28.082815
3.123296511,-2.251663208,1.845493793,0.7625522614,2024-06-05 16:40:28.123297
3.163790417,-2.509000063,1.180892944,3.61557579,2024-06-05 16:40:28.163790
3.204341407,-0.5040777922,-1.013593674,0.2691936493,2024-06-05 16:40:28.204341
3.244784271,-0.362842977,-0.2719974518,-3.124174118,2024-06-05 16:40:28.244784
3.285290313,-2.008567333,0.005485534668,-2.945580482,2024-06-05 16:40:28.285290
3.325777188,0.7877217531,-1.878003001,-1.811462402,2024-06-05 16:40:28.325777
3.366255521,-0.5802976489,-1.491854906,-2.689229965,2024-06-05 16:40:28.366256
3.406865313,2.176815748,-1.025766253,-1.495641708,2024-06-05 16:40:28.406865
3.447292813,4.200606346,0.6812804937,1.832324982,2024-06-05 16:40:28.447293
3.487768021,2.55284071,0.3034886718,-2.149814129,2024-06-05 16:40:28.487768
3.528260834,-0.791431427,-1.418682456,-5.854661465,2024-06-05 16:40:28.528261
3.56876349,-5.361254215,-0.6156949997,-1.801386118,2024-06-05 16:40:28.568763
3.609265782,-0.3367443085,-2.837334871,7.691841125,2024-06-05 16:40:28.609266
3.649745,-1.975511551,-1.705754757,3.229008198,2024-06-05 16:40:28.649745
3.690223907,-3.13120842,-4.630330563,8.584528923,2024-06-05 16:40:28.690224
3.730732813,-0.5868225098,-2.841860294,1.217183113,2024-06-05 16:40:28.730733
3.771224584,-3.275456429,-1.451379776,1.139139175,2024-06-05 16:40:28.771225
3.811700625,0.9304814339,-1.450361729,0.6062786579,2024-06-05 16:40:28.811701
3.852193177,1.336857796,-0.3662986755,-3.778107643,2024-06-05 16:40:28.852193
3.892699896,-0.279607296,-1.506884098,-3.328694582,2024-06-05 16:40:28.892700
3.933197917,-2.119665623,-0.252325058,-5.463254929,2024-06-05 16:40:28.933198
3.973689948,-0.41720438,2.304338932,-2.222418785,2024-06-05 16:40:28.973690
4.01417,-0.870141983,2.465317249,0.9888558388,2024-06-05 16:40:29.014170
4.054676667,1.579145908,4.350727081,0.9018173218,2024-06-05 16:40:29.054677
4.095174948,1.436126709,3.800374031,1.026560783,2024-06-05 16:40:29.095175
4.135638646,-1.129677773,2.389050484,-1.027983069,2024-06-05 16:40:29.135639
4.176129844,-2.320356846,1.069367409,-0.809992075,2024-06-05 16:40:29.176130
4.216653334,-2.237037182,-0.7824373245,-0.7825018764,2024-06-05 16:40:29.216653
4.257144323,-2.114315033,-0.3459672928,-0.1921651363,2024-06-05 16:40:29.257144
4.297659167,-2.89171505,-0.7345709801,7.916619778,2024-06-05 16:40:29.297659
4.338114011,-0.7153739929,0.2196917534,1.604137778,2024-06-05 16:40:29.338114
4.378601719,-0.8095445633,-2.141273499,-9.132482529,2024-06-05 16:40:29.378602
4.419091719,3.467813492,-0.3054943085,-3.586994648,2024-06-05 16:40:29.419092
4.459600052,6.244732857,-2.446290493,5.037015915,2024-06-05 16:40:29.459600
4.500109011,1.046403885,-0.755440712,0.4843675494,2024-06-05 16:40:29.500109
4.540608698,3.516141415,-0.5034627914,1.310854197,2024-06-05 16:40:29.540609
4.58108724,7.732935905,-0.7264914513,-5.702596664,2024-06-05 16:40:29.581087
4.621569844,-5.496536255,-2.65607357,-1.597916245,2024-06-05 16:40:29.621570
4.662068698,-5.696979523,0.1349582672,2.877801657,2024-06-05 16:40:29.662069
4.702608073,-0.6290683746,0.586889267,-0.1556612551,2024-06-05 16:40:29.702608
4.743082761,-3.765402317,1.481061935,2.187661886,2024-06-05 16:40:29.743083
4.783557813,-0.1419401169,2.687055111,1.039960623,2024-06-05 16:40:29.783558
4.824051198,-0.288087368,2.981200218,0.08140236139,2024-06-05 16:40:29.824051
4.864534844,-1.863704205,1.062530994,1.440357208,2024-06-05 16:40:29.864535
4.905023073,-2.793070316,-0.3385372162,-0.2339739799,2024-06-05 16:40:29.905023
4.945517448,-2.824992657,-1.136368275,-4.993540287,2024-06-05 16:40:29.945517
4.986011823,1.34276104,-0.5543241501,0.5686848164,2024-06-05 16:40:29.986012
5.026480938,3.462833881,-0.3290719986,0.4591490626,2024-06-05 16:40:30.026481
5.06700474,3.30306673,0.7707381248,-0.7260398269,2024-06-05 16:40:30.067005
5.107508802,-8.446576118,-2.805520535,0.449570179,2024-06-05 16:40:30.107509
5.148007865,4.092946053,2.529032707,-2.042718172,2024-06-05 16:40:30.148008
5.188499167,1.382165432,1.854279995,-1.620728493,2024-06-05 16:40:30.188499
5.228989896,6.826395988,6.593554497,1.114297867,2024-06-05 16:40:30.228990
5.269484167,-0.9175376892,-0.01490974426,-2.471690178,2024-06-05 16:40:30.269484
5.30997849,0.7780470848,1.053282261,-1.687435389,2024-06-05 16:40:30.309978
5.350440104,-0.03568649292,2.747000694,0.5788757801,2024-06-05 16:40:30.350440
5.390958334,0.07026576996,0.2266321182,0.3188147545,2024-06-05 16:40:30.390958
5.431443021,-8.431991577,-6.992604256,1.978474379,2024-06-05 16:40:30.431443
5.472039688,-2.731086731,-4.829514503,1.79839921,2024-06-05 16:40:30.472040
5.512428229,2.90169692,-3.410851479,-1.732100129,2024-06-05 16:40:30.512428
5.552970365,-0.3461401463,1.395742416,0.3109478951,2024-06-05 16:40:30.552970
5.593429896,2.493058205,2.571956635,-5.800398827,2024-06-05 16:40:30.593430
5.633917188,4.31794405,2.529117584,-4.363547325,2024-06-05 16:40:30.633917
5.674402761,2.96776247,2.80850029,1.71852088,2024-06-05 16:40:30.674403
5.714935521,1.939252377,1.803509712,-1.987760067,2024-06-05 16:40:30.714936
5.755419792,1.765684128,4.562693596,1.404243231,2024-06-05 16:40:30.755420
5.795932761,-3.46437645,2.155986309,-3.726742506,2024-06-05 16:40:30.795933
5.836387917,2.265692234,2.48726511,-6.593764305,2024-06-05 16:40:30.836388
5.876869636,-0.2933483124,-21.00567245,-0.4628911018,2024-06-05 16:40:30.876870
5.917374115,-1.864837408,-1.750494003,0.9683628678,2024-06-05 16:40:30.917374
5.957938907,0.4322443008,-0.4304141998,9.116798401,2024-06-05 16:40:30.957939
5.998343854,-3.309769154,-3.193299294,0.6461937428,2024-06-05 16:40:30.998344
6.038816354,-2.679917812,-4.871304512,2.31339407,2024-06-05 16:40:31.038816
6.079344792,-2.482506752,-2.782776833,2.734326363,2024-06-05 16:40:31.079345
6.119845886,-0.8764253855,-2.557866096,3.563647985,2024-06-05 16:40:31.119846
6.160331667,3.381896973,-0.9302759171,-4.298994064,2024-06-05 16:40:31.160332
6.200812032,5.433746338,0.7619838715,-6.317837715,2024-06-05 16:40:31.200812
6.241357865,1.498246431,-0.2657232285,0.3939981461,2024-06-05 16:40:31.241358
6.281800157,-7.032408714,-3.586483955,-3.770299911,2024-06-05 16:40:31.281800
6.322293073,-1.832644105,0.7098207474,-3.462868452,2024-06-05 16:40:31.322293
6.362796979,2.181746483,4.120850086,-5.513070107,2024-06-05 16:40:31.362797
6.403293698,2.763768435,5.132095337,-4.242490292,2024-06-05 16:40:31.403294
6.443810209,2.15933466,4.194969177,-1.603045225,2024-06-05 16:40:31.443810
6.484275209,1.555187464,-0.1467666626,2.733149052,2024-06-05 16:40:31.484275
6.524778021,-3.096645832,-6.443463326,7.938591957,2024-06-05 16:40:31.524778
6.565257969,-3.053212643,-2.456110954,2.375626802,2024-06-05 16:40:31.565258
6.6057475,3.353625298,-0.9906272888,-3.449636221,2024-06-05 16:40:31.605747
6.646243802,3.54610157,-5.325773239,1.721645832,2024-06-05 16:40:31.646244
6.686770782,-0.7253675461,4.699042797,-6.674746513,2024-06-05 16:40:31.686771
6.727297084,2.183522701,5.13393259,-2.626377583,2024-06-05 16:40:31.727297
6.767723646,4.157324791,-0.2498884201,-0.8072639108,2024-06-05 16:40:31.767724
6.808217448,-3.051968098,-2.361160278,-2.948399067,2024-06-05 16:40:31.808217
6.848711198,-3.50125885,-0.8021202087,-0.4820223451,2024-06-05 16:40:31.848711
6.889221094,1.537837744,0.5383996964,1.762800813,2024-06-05 16:40:31.889221
6.929714375,2.943413019,0.9800949097,2.436411858,2024-06-05 16:40:31.929714
6.970208542,0.1556429863,1.375563145,-2.431000233,2024-06-05 16:40:31.970209
7.010691563,-1.145082951,-0.5786914825,0.7565171123,2024-06-05 16:40:32.010692
7.051189219,-1.811893702,-1.572750092,3.932805061,2024-06-05 16:40:32.051189
7.091698282,-2.756409168,-1.568468094,3.702595472,2024-06-05 16:40:32.091698
7.132174167,-4.940437317,-2.851676941,0.352440238,2024-06-05 16:40:32.132174
7.172659271,-0.8765730858,-5.629141808,5.106396675,2024-06-05 16:40:32.172659
7.213152969,-1.074772358,-3.588871002,6.038732529,2024-06-05 16:40:32.213153
7.253657865,3.122433186,-2.090771675,1.907625914,2024-06-05 16:40:32.253658
7.294173438,7.230296135,-1.913586617,-4.847621918,2024-06-05 16:40:32.294173
7.33464099,2.61551404,-0.9532251358,-3.384672165,2024-06-05 16:40:32.334641
7.3751475,-0.1700313091,-0.8060340881,-2.909568548,2024-06-05 16:40:32.375147
7.415641459,-1.302192926,0.6347036362,-4.114949226,2024-06-05 16:40:32.415641
7.456131927,0.3253593445,3.382121086,-4.952788353,2024-06-05 16:40:32.456132
7.496633854,1.479654312,4.940988064,-5.922781944,2024-06-05 16:40:32.496634
7.537095417,2.362977505,6.061918259,-4.21165514,2024-06-05 16:40:32.537095
7.577584063,2.001813412,3.284155846,-0.8986904621,2024-06-05 16:40:32.577584
7.61807599,1.009108067,-4.19440937,6.492718697,2024-06-05 16:40:32.618076
7.658589427,-1.852058887,-7.450606346,10.92768478,2024-06-05 16:40:32.658589
7.699087084,2.153204918,3.446788788,-0.3037045002,2024-06-05 16:40:32.699087
7.739580677,6.522292137,-6.613922119,-2.882143974,2024-06-05 16:40:32.739581
7.780103073,1.229488611,3.141858101,-3.196703196,2024-06-05 16:40:32.780103
7.820599375,4.012400627,5.356986046,-7.961284161,2024-06-05 16:40:32.820599
7.861081459,4.339952469,1.17693615,-0.7760785818,2024-06-05 16:40:32.861081
7.901572396,-2.505164385,-4.963430405,-3.386911631,2024-06-05 16:40:32.901572
7.942041407,-5.267859459,-1.559621811,2.738101006,2024-06-05 16:40:32.942041
7.982535834,-0.2471385002,0.4999485016,-1.432296038,2024-06-05 16:40:32.982536
8.023046563,2.097492456,1.613894463,2.097531319,2024-06-05 16:40:33.023047
8.063529688,-0.06389021873,2.224700928,1.364054561,2024-06-05 16:40:33.063530
8.104006146,-0.3821530342,-1.222388268,0.2434450388,2024-06-05 16:40:33.104006
8.144494375,-0.4225668907,-1.102622986,5.486732483,2024-06-05 16:40:33.144494
8.18500875,-4.477754593,-3.331296921,2.436004877,2024-06-05 16:40:33.185009
8.225520573,-3.821674824,-3.207172394,3.095352173,2024-06-05 16:40:33.225521
8.265996927,-0.6023406982,-5.005795479,4.399762154,2024-06-05 16:40:33.265997
8.30647974,-1.744948626,-2.721982002,7.05786562,2024-06-05 16:40:33.306480
8.346970573,1.39665556,-2.349154472,-0.3500640988,2024-06-05 16:40:33.346971
8.387467761,8.854834557,-4.619874001,-4.275403023,2024-06-05 16:40:33.387468
8.427946823,3.072317123,-0.04683303833,-0.4114229679,2024-06-05 16:40:33.427947
8.468462188,-1.808811784,-0.7619390488,-3.973099709,2024-06-05 16:40:33.468462
8.508993334,-2.251399517,0.8342456818,-4.925134659,2024-06-05 16:40:33.508993
8.549500104,-0.7623910308,2.725190163,-5.337450981,2024-06-05 16:40:33.549500
8.589956615,2.745316267,6.142061234,-6.489704609,2024-06-05 16:40:33.589957
8.630410729,2.448920727,6.745738983,-4.938300133,2024-06-05 16:40:33.630411
8.670941198,2.06078887,2.63004303,0.17152071,2024-06-05 16:40:33.670941
8.711393073,-0.07230973244,-8.068921089,11.3645401,2024-06-05 16:40:33.711393
8.751885677,-1.338298917,-5.144841194,6.152288914,2024-06-05 16:40:33.751886
8.792412865,2.287741423,4.743893623,-3.068539858,2024-06-05 16:40:33.792413
8.832861042,4.525536537,-10.23659611,1.608098507,2024-06-05 16:40:33.832861
8.873368229,3.137984276,6.468397141,-8.498083115,2024-06-05 16:40:33.873368
8.91385849,3.688619137,5.18975544,-5.838588238,2024-06-05 16:40:33.913858
8.954357136,4.04843092,0.5717439651,-1.441332936,2024-06-05 16:40:33.954357
8.994877761,-3.377183199,-5.690393448,-2.58133173,2024-06-05 16:40:33.994878
9.035308854,-4.869467735,-0.8670883179,2.724805832,2024-06-05 16:40:34.035309
9.075852917,0.640311718,0.3599691391,-0.9793178439,2024-06-05 16:40:34.075853
9.116328177,2.175869942,1.651439667,3.394672871,2024-06-05 16:40:34.116328
9.156850104,-0.9149961472,2.13246727,-0.02803730965,2024-06-05 16:40:34.156850
9.197314844,0.06075525284,-2.023133278,-0.1704121828,2024-06-05 16:40:34.197315
9.237810209,-2.031995296,-2.191111565,7.785318851,2024-06-05 16:40:34.237810
9.278279427,-5.816879272,-3.244005203,0.6496648788,2024-06-05 16:40:34.278279
9.318830677,-2.515253544,-2.340371132,4.936551094,2024-06-05 16:40:34.318831
9.35926625,-0.8743491173,-3.811348915,6.553865433,2024-06-05 16:40:34.359266
9.399816094,-2.837947607,-2.938281059,4.428332806,2024-06-05 16:40:34.399816
9.440280209,2.845656633,-4.681284904,-3.854552746,2024-06-05 16:40:34.440280
9.480795782,7.897324562,-4.324608803,-5.068582535,2024-06-05 16:40:34.480796
9.521255261,3.679340124,-0.1185703278,-1.298748732,2024-06-05 16:40:34.521255
9.561766667,-4.104712963,-0.4791002274,-3.763560057,2024-06-05 16:40:34.561767
9.602232396,-1.517645121,1.467629433,-4.722687721,2024-06-05 16:40:34.602232
9.642749584,1.477199793,3.970371246,-6.528337479,2024-06-05 16:40:34.642750
9.683225417,3.126325607,6.956353188,-6.608503342,2024-06-05 16:40:34.683225
9.723728177,2.683915854,5.806285381,-3.237700462,2024-06-05 16:40:34.723728
9.764211667,1.857551575,-1.068431854,4.016143799,2024-06-05 16:40:34.764212
9.804732709,-1.910383582,-7.093447685,11.7207756,2024-06-05 16:40:34.804733
9.845243282,-3.158745289,-0.430639267,0.08809995651,2024-06-05 16:40:34.845243
9.885725625,3.997470856,-3.282697678,-2.708531618,2024-06-05 16:40:34.885726
9.926210834,3.406384468,-5.861937523,1.875326633,2024-06-05 16:40:34.926211
9.966710209,4.259108543,8.422790527,-11.16239929,2024-06-05 16:40:34.966710
10.00718615,4.223794937,4.615427971,-3.324210882,2024-06-05 16:40:35.007186
10.04763969,0.2572844028,-3.628073692,-1.532692313,2024-06-05 16:40:35.047640
10.08818099,-8.845205307,-4.368629456,2.092060089,2024-06-05 16:40:35.088181
10.12871651,-2.361666441,0.5533266068,-2.147711515,2024-06-05 16:40:35.128717
10.16913016,2.368020296,1.377857208,2.6065588,2024-06-05 16:40:35.169130
10.20964885,1.081204891,1.018669128,4.12312603,2024-06-05 16:40:35.209649
10.25013552,0.3691701889,0.608956337,-0.4929796457,2024-06-05 16:40:35.250136
10.29065229,1.885144949,-0.4740171432,2.267365217,2024-06-05 16:40:35.290652
10.33115068,-1.549385309,-1.484619141,2.595792055,2024-06-05 16:40:35.331151
10.37161677,-4.109545708,-2.61058712,0.9232064486,2024-06-05 16:40:35.371617
10.41211245,-1.660049915,-1.943558693,2.863198519,2024-06-05 16:40:35.412112
10.45261969,-0.2674906254,-3.104652405,5.77393198,2024-06-05 16:40:35.452620
10.49310583,-2.652088642,-3.879508972,2.595307827,2024-06-05 16:40:35.493106
10.53360729,-2.843136311,-3.381768227,-2.887208223,2024-06-05 16:40:35.533607
10.5740999,1.045574665,-2.3527174,-2.555407286,2024-06-05 16:40:35.574100
10.61461422,6.958171844,-3.393964767,-5.678082466,2024-06-05 16:40:35.614614
10.65509292,5.419754982,0.03732967377,-0.4644906521,2024-06-05 16:40:35.655093
10.69556932,-1.463522196,1.111036301,-4.884725571,2024-06-05 16:40:35.695569
10.73604016,-2.169230938,3.375948906,-3.909746408,2024-06-05 16:40:35.736040
10.776565,1.521605611,6.737607956,-5.737206459,2024-06-05 16:40:35.776565
10.81705026,1.539147139,6.786901474,-3.765708447,2024-06-05 16:40:35.817050
10.85753464,1.771504641,1.779805183,1.017437458,2024-06-05 16:40:35.857535
10.89803442,-2.516173363,-7.120376587,7.534342766,2024-06-05 16:40:35.898034
10.93851703,-1.406349182,-2.578798294,3.799556494,2024-06-05 16:40:35.938517
10.97901859,-0.3839328289,1.602102757,0.2700269222,2024-06-05 16:40:35.979019
11.01948135,4.839981556,-2.222952843,-6.009355545,2024-06-05 16:40:36.019481
11.05997771,4.20991993,-4.009752274,2.67078495,2024-06-05 16:40:36.059978
11.10047755,1.326633453,4.705553055,-8.107301712,2024-06-05 16:40:36.100478
11.14098755,0.07501888275,0.282075882,-6.586105347,2024-06-05 16:40:36.140988
11.1814927,-3.740852356,-5.051095009,2.303930521,2024-06-05 16:40:36.181493
11.22196307,0.7916128635,-0.233042717,-1.028540373,2024-06-05 16:40:36.221963
11.26244713,2.583520889,1.953930855,0.4602066576,2024-06-05 16:40:36.262447
11.30294635,1.161551476,1.824384689,1.687670588,2024-06-05 16:40:36.302946
11.3434564,-1.028995275,0.6633749008,-0.3378261328,2024-06-05 16:40:36.343456
11.38394974,-0.7870993614,0.03083133698,-0.3340848088,2024-06-05 16:40:36.383950
11.42444182,-0.9079971313,-0.746843338,1.800303221,2024-06-05 16:40:36.424442
11.46492927,-1.517158389,-0.650718689,2.708201885,2024-06-05 16:40:36.464929
11.50540927,-0.4371292591,-0.6984481812,1.343849897,2024-06-05 16:40:36.505409
11.5458975,0.1065382957,-0.8033208847,1.600814819,2024-06-05 16:40:36.545898
11.58639396,1.009661674,-1.548016548,2.270734787,2024-06-05 16:40:36.586394
11.626895,0.5004639626,-3.153688431,4.897182941,2024-06-05 16:40:36.626895
11.66739166,2.137506485,-0.9113941193,0.08126652241,2024-06-05 16:40:36.667392
11.70788651,1.938667774,1.235383034,-3.987888336,2024-06-05 16:40:36.707887
11.74835458,0.2777724266,0.6991701126,-5.065670013,2024-06-05 16:40:36.748355
11.78883354,-3.2641716,-1.895899773,-3.749548912,2024-06-05 16:40:36.788834
11.82934354,0.1013936996,-0.5051841736,-1.808536291,2024-06-05 16:40:36.829344
11.86985406,2.117223501,0.872045517,-3.251572371,2024-06-05 16:40:36.869854
11.91038505,0.2420861721,1.2221241,-1.824125409,2024-06-05 16:40:36.910385
11.9508364,0.02452254295,1.925805092,-2.21137619,2024-06-05 16:40:36.950836
11.9913402,0.1158227921,1.192565918,-3.035833836,2024-06-05 16:40:36.991340
12.03184062,1.846590042,-2.409032822,1.67602396,2024-06-05 16:40:37.031841
12.07233823,4.250533581,-1.604166985,7.29928875,2024-06-05 16:40:37.072338
12.11281281,1.952009678,1.095211983,-0.6901178956,2024-06-05 16:40:37.112813
12.15328614,0.02416181564,2.019552231,-2.854957104,2024-06-05 16:40:37.153286
12.19380125,-2.802819252,-0.05856895447,-2.244866848,2024-06-05 16:40:37.193801
12.23429463,0.06316423416,-0.6800003052,3.645710468,2024-06-05 16:40:37.234295
12.27476625,0.9364643097,0.2139177322,-0.4945238233,2024-06-05 16:40:37.274766
12.3152889,0.323564291,-0.004599571228,-0.9085100293,2024-06-05 16:40:37.315289
12.35577666,0.5688011646,-0.07358169556,2.628825903,2024-06-05 16:40:37.355777
12.39630099,-0.3696379662,-0.2741498947,0.4035749137,2024-06-05 16:40:37.396301
12.43674244,0.3706269264,0.1252555847,-0.3624347448,2024-06-05 16:40:37.436742
12.47725781,-0.0007996559143,-0.2056159973,0.5936201811,2024-06-05 16:40:37.477258
12.51772968,-0.2999415398,-0.01580238342,-0.06184375286,2024-06-05 16:40:37.517730
12.55821297,-0.6157274246,-0.4392766953,0.427166909,2024-06-05 16:40:37.558213
12.59868234,-0.04439997673,-0.1637630463,0.7542955279,2024-06-05 16:40:37.598682
12.63924791,0.1483016014,-0.1306629181,1.048251867,2024-06-05 16:40:37.639248
12.67971093,1.026870728,-0.01421546936,1.721364379,2024-06-05 16:40:37.679711
12.72017635,1.215523481,-0.4757900238,2.688628674,2024-06-05 16:40:37.720176
12.76072515,1.11822629,-1.395806313,3.344112635,2024-06-05 16:40:37.760725
12.80118396,0.2248821259,-0.4981842041,0.5178303719,2024-06-05 16:40:37.801184
12.84167562,2.780890942,-1.180440903,-1.336910486,2024-06-05 16:40:37.841676
12.8821539,2.359930992,1.757642269,-5.14911747,2024-06-05 16:40:37.882154
12.92263739,-0.2532441616,0.2769775391,-3.052029133,2024-06-05 16:40:37.922637
12.96317692,-1.433745384,0.6832790375,-2.279324293,2024-06-05 16:40:37.963177
13.00366187,-0.7785861492,2.543453217,-2.410225868,2024-06-05 16:40:38.003662
13.04415026,-0.671192646,1.531953335,-0.2717020512,2024-06-05 16:40:38.044150
13.08461755,-0.1607310772,1.773154736,1.578050137,2024-06-05 16:40:38.084618
13.12511312,-1.505035996,-0.2695608139,3.640691757,2024-06-05 16:40:38.125113
13.16564463,-5.452013969,-3.312609673,6.899792671,2024-06-05 16:40:38.165645
13.20609026,-0.435646534,-1.880617142,1.705152273,2024-06-05 16:40:38.206090
13.24661364,3.143947601,-3.545911789,-0.3955401182,2024-06-05 16:40:38.246614
13.28709661,0.4814612865,1.41758728,-0.8820527196,2024-06-05 16:40:38.287097
13.32756323,-1.076133013,2.528214455,-1.380949736,2024-06-05 16:40:38.327563
13.36806015,0.9994237423,1.364480019,-0.402979672,2024-06-05 16:40:38.368060
13.40861713,3.970368624,1.012508392,1.988962293,2024-06-05 16:40:38.408617
13.44901187,-0.1802310944,-0.499540329,0.3436661661,2024-06-05 16:40:38.449012
13.489595,-0.7210469246,-1.11773777,-0.6059883237,2024-06-05 16:40:38.489595
13.53006135,-0.3189296722,-0.5461015701,-0.5848487616,2024-06-05 16:40:38.530061
13.57052953,0.3228559494,0.5519275665,-1.010920405,2024-06-05 16:40:38.570530
13.61102739,-0.190977335,0.2789506912,-0.9719936252,2024-06-05 16:40:38.611027
13.65151146,-0.7053210735,-0.2711391449,0.1557919085,2024-06-05 16:40:38.651511
13.69202239,-0.4852850437,0.4703226089,-1.336042643,2024-06-05 16:40:38.692022
13.73252067,-0.02212381363,0.1458539963,0.6313345432,2024-06-05 16:40:38.732521
13.77300604,0.6916582584,0.00121307373,2.641070366,2024-06-05 16:40:38.773006
13.81351067,-0.7074158192,-0.5852575302,1.928394079,2024-06-05 16:40:38.813511
13.85398698,-2.106110573,-0.8900756836,2.028173447,2024-06-05 16:40:38.853987
13.89448515,-0.6044595242,-0.5479240417,2.409842491,2024-06-05 16:40:38.894485
13.9349714,0.07421994209,0.4007759094,0.6087614894,2024-06-05 16:40:38.934971
13.97544505,-1.06265974,-2.625278473,0.5105637312,2024-06-05 16:40:38.975445
14.01594093,-0.6180620193,-3.964258194,-1.21591258,2024-06-05 16:40:39.015941
14.05644494,2.530077696,-0.8178167343,3.827746868,2024-06-05 16:40:39.056445
14.09692739,1.093434095,0.1833839417,5.443778038,2024-06-05 16:40:39.096927
14.13741521,-1.582251072,1.732953072,0.9647420645,2024-06-05 16:40:39.137415
14.17791849,-0.6695551872,-0.1625413895,-1.394125462,2024-06-05 16:40:39.177918
14.21844239,0.9867355824,-2.267129898,-5.438619614,2024-06-05 16:40:39.218442
14.25893468,1.020890713,-1.75879097,-3.881016016,2024-06-05 16:40:39.258935
14.2993864,-0.5083482265,-1.131988525,-1.939530134,2024-06-05 16:40:39.299386
14.33989255,-0.8649022579,0.4154081345,-2.101728916,2024-06-05 16:40:39.339893
14.38037515,0.2342579365,1.868499756,-2.710270166,2024-06-05 16:40:39.380375
14.42086994,1.218464375,2.890654564,-2.278855801,2024-06-05 16:40:39.420870
14.46142151,0.9468026161,2.490543842,-0.6923388243,2024-06-05 16:40:39.461422
14.50189614,0.8366177082,0.010597229,1.479383707,2024-06-05 16:40:39.501896
14.54236593,0.5788664818,-0.8452510834,2.22930932,2024-06-05 16:40:39.542366
14.58285244,-0.2436635494,-0.5462341309,2.672029734,2024-06-05 16:40:39.582852
14.6233364,-2.483637333,-2.426055908,3.085515738,2024-06-05 16:40:39.623336
14.66382432,-2.762154102,0.8826875687,0.1463859081,2024-06-05 16:40:39.663824
14.70433021,-1.789515018,2.895709991,-1.812025785,2024-06-05 16:40:39.704330
14.74483015,0.1063685417,1.193459511,-1.400902748,2024-06-05 16:40:39.744830
14.7853426,4.282957077,-6.471748352,0.1362541914,2024-06-05 16:40:39.785343
14.8258376,1.240334034,-0.8926458359,3.351294518,2024-06-05 16:40:39.825838
14.86629604,2.521094322,5.494739532,-2.443940639,2024-06-05 16:40:39.866296
14.90677109,-0.341811657,-0.1218137741,-3.127314806,2024-06-05 16:40:39.906771
14.94728588,-2.044229984,-1.661588669,2.509082317,2024-06-05 16:40:39.947286
14.98777682,-1.660072565,-0.06901168823,-2.921619892,2024-06-05 16:40:39.987777
15.02826312,0.7904224396,0.5264978409,-2.09087491,2024-06-05 16:40:40.028263
15.06874609,1.03985405,-0.2813043594,0.08111208677,2024-06-05 16:40:40.068746
15.10922698,-0.5068869591,-0.2945718765,-0.9110411406,2024-06-05 16:40:40.109227
15.14978333,-0.2893638611,-0.1989679337,-0.6908599138,2024-06-05 16:40:40.149783
15.1902251,0.2320952415,0.8015613556,-1.253181458,2024-06-05 16:40:40.190225
15.23071578,-1.290994406,-0.5060119629,-0.3184556365,2024-06-05 16:40:40.230716
15.27121442,-1.026790619,-0.945681572,0.6103255153,2024-06-05 16:40:40.271214
15.31170682,-0.08781671524,-0.4757003784,0.7836940289,2024-06-05 16:40:40.311707
15.35217901,-0.1272349358,-0.3284111023,1.514856815,2024-06-05 16:40:40.352179
15.39268541,0.06810116768,0.03147506714,2.036467075,2024-06-05 16:40:40.392685
15.4331925,-0.05328559875,0.07392787933,2.760106087,2024-06-05 16:40:40.433193
15.47366265,0.4553341866,0.2080879211,2.713316202,2024-06-05 16:40:40.473663
15.51423687,-0.7104492188,-1.568786621,1.804318786,2024-06-05 16:40:40.514237
15.55467515,-0.9411268234,-2.89799881,-0.1224034429,2024-06-05 16:40:40.554675
15.59514531,1.491259813,-2.211675644,1.165495515,2024-06-05 16:40:40.595145
15.63564687,0.1802563667,-0.5863361359,2.676020145,2024-06-05 16:40:40.635647
15.67615119,-0.9408137798,0.7495794296,1.361870527,2024-06-05 16:40:40.676151
15.71666724,-0.9690315723,0.3627138138,-1.259025216,2024-06-05 16:40:40.716667
15.75710776,-0.288264513,-2.142015457,-4.077312469,2024-06-05 16:40:40.757108
15.7976038,-0.1763100624,-1.395920753,-3.692230701,2024-06-05 16:40:40.797604
15.83808104,-0.6448938847,-0.5026092529,-2.247266293,2024-06-05 16:40:40.838081
15.87863125,-1.417905092,0.5108737946,-1.972685933,2024-06-05 16:40:40.878631
15.91905744,-1.151504636,0.5276699066,-2.072704077,2024-06-05 16:40:40.919057
15.95961687,0.1694920063,1.546998024,-1.380247116,2024-06-05 16:40:40.959617
16.00008427,1.525590897,1.749393463,-1.43307209,2024-06-05 16:40:41.000084
16.04058656,3.144074678,1.287248611,-0.377150774,2024-06-05 16:40:41.040587
16.08106536,3.618371725,-0.1296844482,1.983030081,2024-06-05 16:40:41.081065
16.12153781,2.930313349,-0.2963228226,5.770720482,2024-06-05 16:40:41.121538
16.16204515,-1.602181554,-0.08343696594,-0.09776878357,2024-06-05 16:40:41.162045
16.20252151,-2.698731422,1.050066471,0.004810571671,2024-06-05 16:40:41.202522
16.24305286,-2.504184008,0.4900064468,0.1712739468,2024-06-05 16:40:41.243053
16.28352338,-2.170105457,1.619487762,-3.166764259,2024-06-05 16:40:41.283523
16.32403057,0.3256275654,2.899059296,-1.502120733,2024-06-05 16:40:41.324031
16.3645213,1.110055208,2.356611729,-1.130888343,2024-06-05 16:40:41.364521
16.40502416,3.119616747,-2.244199753,1.510602236,2024-06-05 16:40:41.405024
16.4454926,6.319152832,-8.775363922,6.755680561,2024-06-05 16:40:41.445493
16.48606838,-1.499263525,2.567210197,-1.744612932,2024-06-05 16:40:41.486068
16.52647604,-1.964101553,2.308973312,-2.950519323,2024-06-05 16:40:41.526476
16.56701291,-0.4005141258,-0.6657915115,-2.20253849,2024-06-05 16:40:41.567013
16.6074364,0.2541992664,-0.2935590744,0.5412735939,2024-06-05 16:40:41.607436
16.64796557,1.227286577,0.7761631012,-1.931512594,2024-06-05 16:40:41.647966
16.68841838,1.075094223,0.07726383209,-0.7195324898,2024-06-05 16:40:41.688418
16.72896927,-1.07875967,-0.7384204865,-0.2681753039,2024-06-05 16:40:41.728969
16.76942468,-0.7494060993,-0.4930324554,-0.5474332571,2024-06-05 16:40:41.769425
16.80994812,-0.5705440044,-0.1162099838,-0.1388743669,2024-06-05 16:40:41.809948
16.85044838,-0.9181888103,0.09810829163,0.5631639361,2024-06-05 16:40:41.850448
16.89093547,-0.1010839939,0.06141662598,-0.07344272733,2024-06-05 16:40:41.890935
16.9314263,-0.2242634296,-0.2788724899,0.630974412,2024-06-05 16:40:41.931426
16.97189885,-0.3222651482,-0.1913385391,0.6017058492,2024-06-05 16:40:41.971899
17.01240505,0.01157188416,0.2376642227,1.108967423,2024-06-05 16:40:42.012405
17.05286927,0.3157336712,0.5174789429,1.536275625,2024-06-05 16:40:42.052869
17.09336713,-0.024279356,-0.2777261734,1.285740137,2024-06-05 16:40:42.093367
17.13385656,-0.7019827366,-0.6478214264,1.744308591,2024-06-05 16:40:42.133857
17.17435901,-0.553904295,-0.4666566849,1.684183955,2024-06-05 16:40:42.174359
17.2148402,0.1886873245,-0.1169033051,2.045564413,2024-06-05 16:40:42.214840
17.25534505,-1.354845285,-3.732973099,0.7882626057,2024-06-05 16:40:42.255345
17.29581781,0.4522666931,-3.798045158,-0.2654205561,2024-06-05 16:40:42.295818
17.3363151,2.450564146,-0.1098194122,4.235495567,2024-06-05 16:40:42.336315
17.37681546,1.755589247,1.359137535,3.82245779,2024-06-05 16:40:42.376815
17.41729687,-0.7061879635,1.899695873,-0.2760926783,2024-06-05 16:40:42.417297
17.45778651,-1.958347678,-0.8679599762,-1.701292515,2024-06-05 16:40:42.457787
17.49830432,-0.01400971413,-2.215959549,-5.846915245,2024-06-05 16:40:42.498304
17.53881239,1.152983189,-2.263753891,-4.091001034,2024-06-05 16:40:42.538812
17.57928656,-1.025779247,-2.509326935,-0.7053871155,2024-06-05 16:40:42.579287
17.61974432,-0.3024688959,0.413980484,-1.576708674,2024-06-05 16:40:42.619744
17.66023828,0.7177962065,2.373384476,-2.05408144,2024-06-05 16:40:42.660238
17.70073375,1.902914286,3.590445518,-1.638798475,2024-06-05 16:40:42.700734
17.74122729,1.866061449,3.374025345,-0.4492146969,2024-06-05 16:40:42.741227
17.78177302,1.279438734,1.215633392,0.6871380806,2024-06-05 16:40:42.781773
17.82224166,-0.2458111048,0.1128845215,1.425829887,2024-06-05 16:40:42.822242
17.86272468,-1.310759783,-0.9248304367,1.807482719,2024-06-05 16:40:42.862725
17.90320755,-3.797466516,-2.482627869,2.308626175,2024-06-05 16:40:42.903208
17.94371265,-1.872879386,-1.469107628,2.333781719,2024-06-05 16:40:42.943713
17.98419625,0.2841107845,2.428841591,0.5576770306,2024-06-05 16:40:42.984196
18.02467479,0.2128338814,2.7762537,-1.600297689,2024-06-05 16:40:43.024675
18.06519119,3.912354708,-4.693730354,-3.312942982,2024-06-05 16:40:43.065191
18.10567052,2.100944996,-3.874836922,7.562290192,2024-06-05 16:40:43.105671
18.1461563,2.246781826,6.050871372,-3.395360947,2024-06-05 16:40:43.146156
18.18665187,2.668543816,3.957139015,-2.655529976,2024-06-05 16:40:43.186652
18.22714776,1.195505142,-1.58840847,-0.6624345779,2024-06-05 16:40:43.227148
18.26764682,-1.71254468,-1.544402122,-1.532811761,2024-06-05 16:40:43.267647
18.30814682,0.7092206478,0.5957117081,-1.472182274,2024-06-05 16:40:43.308147
18.34867385,-0.09535527229,-0.8854112625,1.270804524,2024-06-05 16:40:43.348674
18.38918984,0.4750323296,-0.4361658096,-0.5338153839,2024-06-05 16:40:43.389190
18.42962588,0.04896974564,0.4688920975,-1.281505108,2024-06-05 16:40:43.429626
18.47006963,0.8477249146,0.1766958237,0.9473689795,2024-06-05 16:40:43.470070
18.51060067,0.6820731163,-0.05023479462,2.428297043,2024-06-05 16:40:43.510601
18.55108239,-0.1743130684,1.01570034,-0.0496224165,2024-06-05 16:40:43.551082
18.59157765,-1.226942778,-0.3400249481,-1.24763906,2024-06-05 16:40:43.591578
18.63213526,0.4778525829,-0.05388641357,3.524603367,2024-06-05 16:40:43.632135
18.6725488,-0.5944886208,-0.3850593567,1.09706831,2024-06-05 16:40:43.672549
18.71305646,-0.3606936932,-0.6608552933,3.389878035,2024-06-05 16:40:43.713056
18.7535264,-1.875171781,-0.8928632736,1.660031557,2024-06-05 16:40:43.753526
18.79407057,-1.908651829,-2.220751762,3.219023705,2024-06-05 16:40:43.794071
18.83452838,-1.767418861,-4.457964897,3.534486771,2024-06-05 16:40:43.834528
18.87501067,4.117721081,-1.576712608,7.348447323,2024-06-05 16:40:43.875011
18.91553323,6.533277035,-0.3427286148,1.689618349,2024-06-05 16:40:43.915533
18.95599588,6.649447441,-2.1301651,-6.079852104,2024-06-05 16:40:43.955996
18.99654114,1.407636881,-2.244324684,-3.161282539,2024-06-05 16:40:43.996541
19.03699281,0.7264258862,-1.214354515,-2.544406414,2024-06-05 16:40:44.036993
19.07748646,-1.353546858,-0.5640563965,-4.139724255,2024-06-05 16:40:44.077486
19.11800974,-0.8890479803,1.871973515,-4.116564751,2024-06-05 16:40:44.118010
19.15843286,0.8577684164,5.04275322,-5.025277138,2024-06-05 16:40:44.158433
19.1989264,0.5993782282,6.818022251,-4.812441826,2024-06-05 16:40:44.198926
19.23943885,0.02286624908,4.329299927,-1.607679486,2024-06-05 16:40:44.239439
19.27996812,-0.09051060677,-1.018428802,4.073378086,2024-06-05 16:40:44.279968
19.32042812,-2.37795496,-5.477859497,8.952310562,2024-06-05 16:40:44.320428
19.36092885,0.06885528564,-1.014507294,2.812356949,2024-06-05 16:40:44.360929
19.40145317,3.483306408,5.916193962,-2.568019867,2024-06-05 16:40:44.401453
19.44193562,8.621703148,-9.326142311,-5.022769928,2024-06-05 16:40:44.441936
19.48241198,-0.003053426743,-0.09421825409,7.404406548,2024-06-05 16:40:44.482412
19.52288588,1.769417048,6.457949162,-6.977980137,2024-06-05 16:40:44.522886
19.56337796,2.155838251,1.149744987,-0.5061256289,2024-06-05 16:40:44.563378
19.60388,-1.373220921,-2.850625992,-4.680090427,2024-06-05 16:40:44.603880
19.64438494,-4.505606651,-1.685637474,2.745438576,2024-06-05 16:40:44.644385
19.68485609,-0.7768366337,-1.464751244,-0.7058447599,2024-06-05 16:40:44.684856
19.72536765,1.456614494,0.1132478714,1.340930462,2024-06-05 16:40:44.725368
19.7658313,1.044183016,2.046766281,1.591689825,2024-06-05 16:40:44.765831
19.80628932,0.08253002167,0.1475934982,2.865875721,2024-06-05 16:40:44.806289
19.84682609,-1.742270112,-1.096991539,3.745827198,2024-06-05 16:40:44.846826
19.8873813,-3.324265242,-2.088959694,3.044343233,2024-06-05 16:40:44.887381
19.92783448,-1.895283937,-2.5577631,3.390673876,2024-06-05 16:40:44.927834
19.96829323,-0.8150105476,-4.119516373,5.131998062,2024-06-05 16:40:44.968293
20.00877869,-3.172540665,-4.977268219,5.922375202,2024-06-05 16:40:45.008779
20.04927422,0.2851893902,-2.839001656,3.911260843,2024-06-05 16:40:45.049274
20.08979062,5.7514081,-3.044239044,-3.191490173,2024-06-05 16:40:45.089791
20.13027406,7.551883698,-4.040732384,-2.446923256,2024-06-05 16:40:45.130274
20.1707727,0.08846545219,0.2704782486,-1.415223002,2024-06-05 16:40:45.170773
20.21124885,-3.001046419,-0.09921836853,-5.563549995,2024-06-05 16:40:45.211249
20.25174396,-1.429579735,2.023649693,-4.304121017,2024-06-05 16:40:45.251744
20.29223187,1.504071593,4.447084427,-6.140165806,2024-06-05 16:40:45.292232
20.33273817,2.019685984,7.397995472,-7.16138792,2024-06-05 16:40:45.332738
20.37321604,0.719161272,5.252350807,-0.513453722,2024-06-05 16:40:45.373216
20.41372156,1.258378506,-1.86712265,7.283546448,2024-06-05 16:40:45.413722
20.45422541,0.1750552654,-9.255386353,8.196599007,2024-06-05 16:40:45.454225
20.49469119,3.624003172,6.492497444,-1.505357504,2024-06-05 16:40:45.494691
20.53519672,8.660813332,-6.239289284,-1.141610146,2024-06-05 16:40:45.535197
20.57570218,2.391141653,0.01575946808,-7.135567665,2024-06-05 16:40:45.575702
20.61618968,2.049578905,6.822324276,-9.23978138,2024-06-05 16:40:45.616190
20.65669276,3.44828701,-1.356811523,-6.196115494,2024-06-05 16:40:45.656693
20.69717786,-4.207668304,-7.670180321,-9.703144073,2024-06-05 16:40:45.697178
20.73765073,-5.3127985,-1.141008377,9.30038166,2024-06-05 16:40:45.737651
20.77816286,-1.548486233,-1.478878021,-1.945415497,2024-06-05 16:40:45.778163
20.81864896,1.412891388,2.709616661,2.595373392,2024-06-05 16:40:45.818649
20.85917687,-0.4186487198,1.500870228,3.500798702,2024-06-05 16:40:45.859177
20.89962922,-1.942599654,-1.302105904,1.884563446,2024-06-05 16:40:45.899629
20.9401125,0.07352757454,-0.469452858,4.255493641,2024-06-05 16:40:45.940113
20.98064078,-7.987031937,-4.729112625,1.937236071,2024-06-05 16:40:45.980641
21.02112588,-4.359591007,-3.21531105,3.870861053,2024-06-05 16:40:46.021126
21.06162541,-0.009460449219,-4.653619766,6.091489792,2024-06-05 16:40:46.061625
21.10211026,-0.9460644722,-3.76756382,7.241291523,2024-06-05 16:40:46.102110
21.14256958,3.063577414,-3.683145523,-1.132873058,2024-06-05 16:40:46.142570
21.18308437,12.24809361,-6.115262985,-5.80953598,2024-06-05 16:40:46.183084
21.22358547,7.978424072,1.47514534,0.4754772186,2024-06-05 16:40:46.223585
21.26407765,-3.833074808,0.2113456726,-6.719281197,2024-06-05 16:40:46.264078
21.30458573,-5.536344528,0.3852386475,-3.67429328,2024-06-05 16:40:46.304586
21.34503323,0.7227734327,4.308287621,-6.082974434,2024-06-05 16:40:46.345033
21.38552838,3.293657303,8.319465637,-8.323509216,2024-06-05 16:40:46.385528
21.42603265,2.333552361,7.533012867,-4.185235977,2024-06-05 16:40:46.426033
21.46651682,1.217133045,-0.7324209213,4.917562485,2024-06-05 16:40:46.466517
21.50699291,-1.127961636,-11.40786934,13.2368145,2024-06-05 16:40:46.506993
21.54748791,-0.7153748274,0.526134491,-0.3807229996,2024-06-05 16:40:46.547488
21.58798593,8.558818817,-4.16724968,-1.969550848,2024-06-05 16:40:46.587986
21.62853463,1.007557631,-2.523333549,-2.187476635,2024-06-05 16:40:46.628535
21.66904786,4.123236656,8.918673515,-10.01277637,2024-06-05 16:40:46.669048
21.70956416,4.940346718,3.751488686,-2.745129347,2024-06-05 16:40:46.709564
21.74995687,2.363582373,-5.22637558,-5.834474087,2024-06-05 16:40:46.749957
21.79045479,-8.915406227,-5.767687798,3.037922859,2024-06-05 16:40:46.790455
21.83091432,-4.194730282,-0.2801294327,-1.672813296,2024-06-05 16:40:46.830914
21.87144984,1.382199764,0.9348869324,3.095103741,2024-06-05 16:40:46.871450
21.9119239,2.224157572,3.063047886,2.751645565,2024-06-05 16:40:46.911924
21.95239823,0.216698885,0.7924852371,-1.151729107,2024-06-05 16:40:46.952398
21.99292911,-0.06445646286,-1.173071861,6.258550644,2024-06-05 16:40:46.992929
22.03339005,-5.244446278,-3.319959641,2.12720108,2024-06-05 16:40:47.033390
22.07388677,-6.838600636,-2.953864098,2.356347561,2024-06-05 16:40:47.073887
22.11439354,-1.116527796,-4.739297867,5.439400196,2024-06-05 16:40:47.114394
22.15485885,-2.592713356,-4.801919937,7.558917522,2024-06-05 16:40:47.154859
22.19536281,1.383440018,-2.756073952,-0.2327834368,2024-06-05 16:40:47.195363
22.23587666,8.953087807,-5.824647903,-5.627766132,2024-06-05 16:40:47.235877
22.27634333,5.499483585,-1.018727303,-0.6657075882,2024-06-05 16:40:47.276343
22.31685203,-0.8235067129,0.6761159897,-5.077478886,2024-06-05 16:40:47.316852
22.3573463,-4.480613708,0.9638433456,-5.001085758,2024-06-05 16:40:47.357346
22.39783812,0.9909306765,4.290017128,-4.94580555,2024-06-05 16:40:47.397838
22.43828177,2.316411972,6.295958519,-7.247654438,2024-06-05 16:40:47.438282
22.47886661,3.235393524,7.726763725,-5.032554626,2024-06-05 16:40:47.478867
22.51934963,1.672318935,2.94451189,0.9724566936,2024-06-05 16:40:47.519350
22.55980192,-3.579598427,-10.60362053,13.06759357,2024-06-05 16:40:47.559802
22.60025427,-2.057063103,-4.423069,3.344241858,2024-06-05 16:40:47.600254
22.64078515,8.968112946,-6.973445892,-0.4167847633,2024-06-05 16:40:47.640785
22.68127416,2.944138288,1.912872314,-6.298902512,2024-06-05 16:40:47.681274
22.72177479,7.232150078,10.655303,-8.856368065,2024-06-05 16:40:47.721775
22.76223703,5.050177574,-2.519489288,-4.85530138,2024-06-05 16:40:47.762237
22.80276015,-6.230625629,-8.021802902,-0.3508356214,2024-06-05 16:40:47.802760
22.84324187,-7.958045006,-0.04215335846,-0.541991055,2024-06-05 16:40:47.843242
22.88372224,1.288069487,1.030425072,-2.88630867,2024-06-05 16:40:47.883722
22.92420026,2.209504843,1.292514801,7.96633625,2024-06-05 16:40:47.924200
22.96470156,-0.4659650326,1.348567009,0.652130425,2024-06-05 16:40:47.964702
23.00522109,-1.498191118,-0.4274616241,-0.02850544453,2024-06-05 16:40:48.005221
23.04566953,-2.565028429,-0.9043426514,5.460319519,2024-06-05 16:40:48.045670
23.08620385,-4.347582817,-2.892167091,2.268927574,2024-06-05 16:40:48.086204
23.1266789,-1.992519855,-2.403541565,3.608910084,2024-06-05 16:40:48.126679
23.1671914,-3.356812716,-6.41928196,2.98220396,2024-06-05 16:40:48.167191
23.20765114,1.703117609,-3.388664246,7.420376301,2024-06-05 16:40:48.207651
23.24814031,6.289516449,-2.570819855,-0.3997078538,2024-06-05 16:40:48.248140
23.28864317,7.262535095,-1.584852219,-4.476739883,2024-06-05 16:40:48.288643
23.32909854,-1.705143809,-1.751128197,-0.9052115679,2024-06-05 16:40:48.329099
23.36962807,-3.873702765,-1.131203651,-6.742712975,2024-06-05 16:40:48.369628
23.41010593,-2.501299143,2.532004833,-5.419080734,2024-06-05 16:40:48.410106
23.45061224,0.6143467426,4.895495415,-5.913559914,2024-06-05 16:40:48.450612
23.49109755,2.868477345,5.126552582,-4.957716942,2024-06-05 16:40:48.491098
23.53158927,2.824701071,4.741148949,-0.2562572956,2024-06-05 16:40:48.531589
23.57209057,2.199329615,0.2297487259,3.167162895,2024-06-05 16:40:48.572091
23.61257869,-3.251877308,-8.515425682,10.20146561,2024-06-05 16:40:48.612579
23.65306078,-2.589051485,0.01988315582,1.751352787,2024-06-05 16:40:48.653061
23.69355922,3.196228504,6.044015408,-8.315044403,2024-06-05 16:40:48.693559
23.73407093,5.233198643,-16.16382408,9.596338272,2024-06-05 16:40:48.734071
23.77458411,6.348045349,7.851705551,-12.84279919,2024-06-05 16:40:48.774584
23.81508833,3.459518194,8.403607368,-2.06019783,2024-06-05 16:40:48.815088
23.85555911,5.282885075,-5.31061554,-4.929471016,2024-06-05 16:40:48.855559
23.89602083,-4.40627718,-4.20012188,-8.945588112,2024-06-05 16:40:48.896021
23.93649916,-3.958237171,0.9796533585,7.159943104,2024-06-05 16:40:48.936499
23.97699224,-2.62542367,-0.3331928253,1.900983691,2024-06-05 16:40:48.976992
24.01748781,-1.259538531,0.7576570511,0.7129434943,2024-06-05 16:40:49.017488
24.0579826,-1.325385213,1.486092091,-0.3133897781,2024-06-05 16:40:49.057983
24.09848875,-1.470265031,0.7144002914,-0.04794847965,2024-06-05 16:40:49.098489
24.13899146,-1.415260077,-2.161340714,6.709665298,2024-06-05 16:40:49.138991
24.17947474,-3.107809305,-2.185130119,3.607556343,2024-06-05 16:40:49.179475
24.21995937,-5.711333275,-4.729847908,4.296803951,2024-06-05 16:40:49.219959
24.26043578,-2.872763157,-6.346096039,5.620652199,2024-06-05 16:40:49.260436
24.30093948,2.962231159,-4.141610146,5.507843494,2024-06-05 16:40:49.300939
24.34143593,7.773434639,-6.795636177,-8.562404633,2024-06-05 16:40:49.341436
24.38193239,5.156785965,0.9548120499,-0.7085368633,2024-06-05 16:40:49.381932
24.42243203,-3.825939655,-1.373400688,-3.080772877,2024-06-05 16:40:49.422432
24.46290724,-3.183441162,2.090257645,-4.201544762,2024-06-05 16:40:49.462907
24.50340796,-0.3636679053,4.029368401,-5.295199394,2024-06-05 16:40:49.503408
24.54390875,1.942043424,6.6292696,-5.010208607,2024-06-05 16:40:49.543909
24.58440979,2.742910385,7.517087936,-2.645355225,2024-06-05 16:40:49.584410
24.62488869,0.7378721237,2.261380196,0.130718708,2024-06-05 16:40:49.624889
24.66536125,1.979728103,-2.835127831,7.191971779,2024-06-05 16:40:49.665361
24.70585166,-4.819669247,-9.388260841,7.088690758,2024-06-05 16:40:49.705852
24.74633797,3.197757721,5.619329453,-1.879970551,2024-06-05 16:40:49.746338
24.78682713,6.478068829,-14.0899725,4.465362549,2024-06-05 16:40:49.786827
24.82733427,8.375803947,12.59982872,-12.64131165,2024-06-05 16:40:49.827334
24.86785229,-0.3403310776,-1.615905762,-9.896700859,2024-06-05 16:40:49.867852
24.90832047,-10.31711006,-12.56635284,-2.826567173,2024-06-05 16:40:49.908320
24.94883119,1.755257726,1.722546577,2.361081839,2024-06-05 16:40:49.948831
24.98934229,3.920411587,3.510257721,1.165961027,2024-06-05 16:40:49.989342
25.02983505,1.167778254,2.365348816,2.300504446,2024-06-05 16:40:50.029835
25.07028396,-1.404338121,2.383368969,2.778449774,2024-06-05 16:40:50.070284
25.1108064,-1.259467006,0.6913547516,1.102980375,2024-06-05 16:40:50.110806
25.15131083,-3.087957859,-0.6427145004,2.626345396,2024-06-05 16:40:50.151311
25.19179078,-4.028367043,-2.156909943,5.132609367,2024-06-05 16:40:50.191791
25.23229994,-4.970308304,-3.664684296,2.991821766,2024-06-05 16:40:50.232300
25.27273755,-3.821033478,-5.251255989,6.288204193,2024-06-05 16:40:50.272738
25.31325651,-0.8393903971,-4.658780098,6.315736771,2024-06-05 16:40:50.313257
25.35373625,6.509410858,-5.517053604,-3.858011246,2024-06-05 16:40:50.353736
25.39423843,7.223540306,-4.861063957,-3.551182508,2024-06-05 16:40:50.394238
25.43472297,4.471526146,-0.1614999771,1.570219755,2024-06-05 16:40:50.434723
25.47522057,-1.314912438,0.1697998047,-10.60965157,2024-06-05 16:40:50.475221
25.5157139,-7.44280386,0.6812849045,-1.487811685,2024-06-05 16:40:50.515714
25.55620593,3.080402851,6.213713646,-5.806807518,2024-06-05 16:40:50.556206
25.59669416,1.541567206,7.732910633,-7.082608223,2024-06-05 16:40:50.596694
25.63718099,2.187127352,6.928458214,-3.688159943,2024-06-05 16:40:50.637181
25.67765515,1.089244723,-6.485516548,11.92873764,2024-06-05 16:40:50.677655
25.71815765,-0.3399320841,-7.386281013,7.188491821,2024-06-05 16:40:50.718158
25.75874854,-0.7628070712,7.254711628,-0.3164753914,2024-06-05 16:40:50.758749
25.79913213,4.370762348,-14.2529707,1.245916605,2024-06-05 16:40:50.799132
25.83961526,2.55946064,3.240134239,-11.11329365,2024-06-05 16:40:50.839615
25.88012666,7.780548096,9.108970642,-6.256651402,2024-06-05 16:40:50.880127
25.92074031,5.092096329,-4.729897499,-6.267230034,2024-06-05 16:40:50.920740
25.96109562,-1.895270586,-7.503342628,-4.991378784,2024-06-05 16:40:50.961096
26.00161343,-4.122019291,1.66237402,6.090999603,2024-06-05 16:40:51.001613
26.04210604,-2.55005002,0.6233596802,-0.6762860417,2024-06-05 16:40:51.042106
26.0825801,-4.228365898,-0.6784620285,-0.1749358922,2024-06-05 16:40:51.082580
26.12306885,-4.525244713,0.9261608124,-0.6157241464,2024-06-05 16:40:51.123069
26.16354609,1.492415071,5.859127045,0.9541605711,2024-06-05 16:40:51.163546
26.20407463,6.723630905,4.042961121,0.6460053325,2024-06-05 16:40:51.204075
26.24452906,-1.225971937,-3.181948662,4.093122005,2024-06-05 16:40:51.244529
26.28502776,-6.573066235,-4.219743729,4.503778458,2024-06-05 16:40:51.285028
26.32557791,-4.851401806,-3.833952904,5.998512745,2024-06-05 16:40:51.325578
26.36601765,-3.614093304,-2.488742828,8.768939972,2024-06-05 16:40:51.366018
26.40653573,-3.684027195,-3.673307419,5.385951042,2024-06-05 16:40:51.406536
26.44700734,5.111837387,-8.500082016,-6.477530479,2024-06-05 16:40:51.447007
26.48752255,5.923212528,-6.353933334,-4.727243423,2024-06-05 16:40:51.487523
26.52797406,2.970218182,0.1969652176,1.343347788,2024-06-05 16:40:51.527974
26.56846744,-5.83397007,-0.2421560287,-6.666316509,2024-06-05 16:40:51.568467
26.60894692,-0.4091803133,3.575620174,-5.274050236,2024-06-05 16:40:51.608947
26.64945297,3.572153807,6.546138763,-5.381613255,2024-06-05 16:40:51.649453
26.6899725,3.771485567,7.831340313,-5.25378418,2024-06-05 16:40:51.689972
26.73047099,2.224108219,5.123224258,-0.05847263336,2024-06-05 16:40:51.730471
26.77096692,-3.414381504,-8.876541138,12.014081,2024-06-05 16:40:51.770967
26.81144708,-3.125645638,-6.624471664,3.686683893,2024-06-05 16:40:51.811447
26.85193104,2.127381802,6.02418232,-1.469523787,2024-06-05 16:40:51.851931
26.89241802,8.555339813,-11.83601284,1.987733364,2024-06-05 16:40:51.892418
26.93292364,4.792107582,5.860564232,-10.3120718,2024-06-05 16:40:51.932924
26.97343369,5.789665222,5.121816635,-4.521842957,2024-06-05 16:40:51.973434
27.01389146,-0.4886984825,-5.443368912,-9.595718384,2024-06-05 16:40:52.013891
27.05440146,-9.039640427,-4.714053154,4.135715961,2024-06-05 16:40:52.054401
27.09486005,-2.038016796,1.575180054,0.9729907513,2024-06-05 16:40:52.094860
27.13536177,3.51198554,1.415317535,1.422673702,2024-06-05 16:40:52.135362
27.17587151,1.013476133,2.638642788,5.019745827,2024-06-05 16:40:52.175872
27.2163501,-2.477528334,-0.1251039505,0.3178377151,2024-06-05 16:40:52.216350
27.25683692,-2.323859453,-0.2845077515,3.801035643,2024-06-05 16:40:52.256837
27.29732828,-2.41224122,-2.776376724,3.880581856,2024-06-05 16:40:52.297328
27.33783453,-3.870667934,-3.653727531,2.917063713,2024-06-05 16:40:52.337835
27.37831703,-2.020430803,-3.55500412,7.53417778,2024-06-05 16:40:52.378317
27.41881312,-3.536991596,-3.788161278,7.514984608,2024-06-05 16:40:52.418813
27.45933203,-3.503735781,-2.87426281,-1.423779964,2024-06-05 16:40:52.459332
27.49983427,7.464050293,-7.802425385,-6.161273479,2024-06-05 16:40:52.499834
27.54033135,6.961781025,-3.922404289,1.297032595,2024-06-05 16:40:52.540331
27.58076156,2.639052629,1.387789726,-4.62892437,2024-06-05 16:40:52.580762
27.62125546,-7.062923431,0.5648002625,-6.024394035,2024-06-05 16:40:52.621255
27.66175562,1.504753709,4.812185764,-4.344743252,2024-06-05 16:40:52.661756
27.70225729,4.117166042,7.921598911,-6.585425377,2024-06-05 16:40:52.702257
27.74274468,4.416378021,8.509180069,-6.475028038,2024-06-05 16:40:52.742745
27.7832188,1.841065884,2.101261616,2.694794655,2024-06-05 16:40:52.783219
27.82370218,-5.185469151,-13.5474968,15.72225094,2024-06-05 16:40:52.823702
27.86421229,-2.163442612,-0.3863668442,0.1154689789,2024-06-05 16:40:52.864212
27.90470739,9.78239727,-6.510307312,0.1109559536,2024-06-05 16:40:52.904707
27.94519911,1.313119411,-0.6107053757,-7.76807785,2024-06-05 16:40:52.945199
27.98572255,6.138593674,9.516960144,-6.555890083,2024-06-05 16:40:52.985723
28.02615036,6.530229092,0.3619375229,-2.811931133,2024-06-05 16:40:53.026150
28.06666333,-2.456942797,-9.795825005,-12.26707458,2024-06-05 16:40:53.066663
28.10717432,-8.04964447,-1.343643188,12.54208183,2024-06-05 16:40:53.107174
28.14765307,-1.372475624,1.491556168,-2.958372831,2024-06-05 16:40:53.147653
28.18814276,4.473495483,2.61865139,3.295343637,2024-06-05 16:40:53.188143
28.22863796,0.8486740589,2.256011963,3.502095938,2024-06-05 16:40:53.228638
28.26912635,-2.550130129,-1.296971321,2.772821426,2024-06-05 16:40:53.269126
28.30963052,-3.274098635,-1.70611763,6.16820097,2024-06-05 16:40:53.309631
28.35010224,-6.97560215,-3.333003044,0.9461904764,2024-06-05 16:40:53.350102
28.39060786,-5.15409708,-5.784817696,4.634610653,2024-06-05 16:40:53.390608
28.43109593,-2.361609221,-5.922492027,6.769430161,2024-06-05 16:40:53.431096
28.47158416,3.749968052,-3.536212921,1.576421261,2024-06-05 16:40:53.471584
28.51209119,8.793704987,-6.049300194,-4.959005356,2024-06-05 16:40:53.512091
28.55256823,8.474822998,-0.8778591156,1.285222292,2024-06-05 16:40:53.552568
28.59304583,2.071555853,1.081870079,-7.252548695,2024-06-05 16:40:53.593046
28.63356781,-10.03840065,0.3896389008,-5.267872334,2024-06-05 16:40:53.633568
28.6740364,0.9793335795,4.438617706,-6.106702805,2024-06-05 16:40:53.674036
28.71453312,5.441836357,7.558351517,-7.701301575,2024-06-05 16:40:53.714533
28.7550613,4.275164604,8.216442108,-4.109264374,2024-06-05 16:40:53.755061
28.79556547,1.331013918,0.9591970444,3.34790349,2024-06-05 16:40:53.795565
28.83600953,-5.102537632,-13.09893131,14.32283974,2024-06-05 16:40:53.836010
28.87651911,-1.320957899,-0.3349075317,0.9111881256,2024-06-05 16:40:53.876519
28.91703989,5.376319408,-7.325087547,0.8611831665,2024-06-05 16:40:53.917040
28.95747396,4.350680351,3.361133099,-7.5436759,2024-06-05 16:40:53.957474
28.99797057,6.853436947,7.890012741,-6.41236496,2024-06-05 16:40:53.997971
29.03845989,5.190059662,-0.6491413116,-3.003421068,2024-06-05 16:40:54.038460
29.07896078,-3.107567072,-7.78040123,-11.36711216,2024-06-05 16:40:54.078961
29.1194526,-6.841404915,-1.008104324,10.21784401,2024-06-05 16:40:54.119453
29.15994547,-1.173577309,1.206721306,-4.064092636,2024-06-05 16:40:54.159945
29.20043864,3.67206192,0.9607048035,4.203512192,2024-06-05 16:40:54.200439
29.2409276,1.975713968,3.417050362,3.532187939,2024-06-05 16:40:54.240928
29.28141635,-1.298927665,-0.7581415176,0.5128985643,2024-06-05 16:40:54.281416
29.32190802,-3.379243135,-1.522428513,7.20503521,2024-06-05 16:40:54.321908
29.36238364,-6.535117626,-3.119641304,1.549996614,2024-06-05 16:40:54.362384
29.40289911,-4.121777534,-3.46658802,4.765515804,2024-06-05 16:40:54.402899
29.44339203,-3.982933521,-5.465675354,6.662627697,2024-06-05 16:40:54.443392
29.48390172,-2.684169769,-2.659695625,5.372319698,2024-06-05 16:40:54.483902
29.52438911,5.086091042,-6.680813789,-4.286891937,2024-06-05 16:40:54.524389
29.56489989,9.473845482,-6.358265877,-3.426860809,2024-06-05 16:40:54.564900
29.60539265,4.863631248,0.3689546585,-0.09581255913,2024-06-05 16:40:54.605393
29.64583458,-4.399164677,1.539619446,-8.876533508,2024-06-05 16:40:54.645835
29.6863313,-5.902233124,1.371487617,-2.646548986,2024-06-05 16:40:54.686331
29.72685505,4.290443897,6.577617645,-7.803936958,2024-06-05 16:40:54.726855
29.76730786,5.703288555,9.53946209,-7.049562931,2024-06-05 16:40:54.767308
29.8078438,3.137559891,6.479692459,-1.663609862,2024-06-05 16:40:54.807844
29.84830718,-1.473181367,-6.906990051,11.21971798,2024-06-05 16:40:54.848307
29.88882744,-6.102311134,-11.51692009,7.70538187,2024-06-05 16:40:54.888827
29.92926838,6.903048992,4.507447243,-3.285680294,2024-06-05 16:40:54.929268
29.96980187,2.289855957,-11.03063393,3.366849899,2024-06-05 16:40:54.969802
30.01027442,7.380465031,8.572576523,-12.4217577,2024-06-05 16:40:55.010274
30.05077088,4.827937126,3.002711296,-6.549845695,2024-06-05 16:40:55.050771
30.09128203,-1.59333086,-8.376349449,-6.88939333,2024-06-05 16:40:55.091282
30.13175854,-8.452854156,-1.702404976,5.729688168,2024-06-05 16:40:55.131759
30.17225401,-0.5382157564,1.230280876,-1.330511928,2024-06-05 16:40:55.172254
30.21274531,2.935294628,1.232428551,2.154249191,2024-06-05 16:40:55.212745
30.25321734,2.063210964,4.333364487,3.377639294,2024-06-05 16:40:55.253217
30.29370489,-0.8553193808,-0.8537559509,1.757876396,2024-06-05 16:40:55.293705
30.33420609,-3.618115425,-0.8974494934,7.017474174,2024-06-05 16:40:55.334206
30.37471864,-6.42964077,-3.281013489,1.603314757,2024-06-05 16:40:55.374719
30.41519932,-3.481378555,-3.791071892,7.116071224,2024-06-05 16:40:55.415199
30.45568307,-4.531690121,-5.925922394,7.559287071,2024-06-05 16:40:55.455683
30.49617578,-2.834919453,-3.137576103,1.791866779,2024-06-05 16:40:55.496176
30.53666312,6.325565815,-8.993489265,-4.793918133,2024-06-05 16:40:55.536663
30.57716208,9.386130333,-5.507810593,-0.9368003607,2024-06-05 16:40:55.577162
30.61765463,4.42484951,0.3221988678,-3.34314394,2024-06-05 16:40:55.617655
30.65814698,-7.802623272,1.298763275,-7.708584785,2024-06-05 16:40:55.658147
30.69864953,-1.111361146,3.790261745,-4.601021767,2024-06-05 16:40:55.698650
30.73917083,5.09873867,8.441057205,-8.407905579,2024-06-05 16:40:55.739171
30.77961229,5.328482628,10.51266956,-7.425104141,2024-06-05 16:40:55.779612
30.82009,2.143079042,2.094390869,4.040325165,2024-06-05 16:40:55.820090
30.86059307,-7.942018509,-16.03245544,14.44273949,2024-06-05 16:40:55.860593
30.90110099,0.5898987055,0.9891719818,-0.2602145672,2024-06-05 16:40:55.901101
30.94158666,7.897511959,-8.711882591,2.106796503,2024-06-05 16:40:55.941587
30.98207807,4.327004433,3.273141384,-9.425285339,2024-06-05 16:40:55.982078
31.02257,6.818344593,7.099030972,-5.967926979,2024-06-05 16:40:56.022570
31.06306687,2.106573582,-3.190950394,-5.35352993,2024-06-05 16:40:56.063067
31.10356177,-7.85057497,-7.049497604,-6.145454884,2024-06-05 16:40:56.103562
31.14403953,-6.263302326,-0.1017179489,5.878130913,2024-06-05 16:40:56.144040
31.18453135,2.721035004,1.967795372,-2.185513973,2024-06-05 16:40:56.184531
31.2250251,3.155870199,1.850784302,4.089990139,2024-06-05 16:40:56.225025
31.26550437,1.983274221,2.267665386,1.422052741,2024-06-05 16:40:56.265504
31.30601239,-1.698971391,-0.7476491928,5.216352463,2024-06-05 16:40:56.306012
31.34650927,-4.148959637,-1.512904167,3.197097063,2024-06-05 16:40:56.346509
31.38699166,-6.365285873,-3.319532394,1.379956961,2024-06-05 16:40:56.386992
31.42750062,-1.922381639,-3.274048805,4.461342335,2024-06-05 16:40:56.427501
31.46801057,-4.738316536,-5.838284492,6.310347557,2024-06-05 16:40:56.468011
31.50845114,-1.433549643,-2.766143799,5.4000144,2024-06-05 16:40:56.508451
31.54892968,4.742250443,-5.56065464,-3.230895519,2024-06-05 16:40:56.548930
31.58944885,8.373997688,-4.0291996,-4.580313206,2024-06-05 16:40:56.589449
31.6299126,3.53296876,0.1359930038,0.4876198769,2024-06-05 16:40:56.629913
31.67045114,-4.150147438,0.9666395187,-10.32057667,2024-06-05 16:40:56.670451
31.71092088,-5.064480305,2.168439865,-2.659770966,2024-06-05 16:40:56.710921
31.75142901,2.938454151,5.488910675,-7.157569885,2024-06-05 16:40:56.751429
31.79190849,5.076021671,7.638434887,-6.511685371,2024-06-05 16:40:56.791908
31.83240885,4.128005505,5.033689499,-0.9506659508,2024-06-05 16:40:56.832409
31.87291593,-1.397617459,-8.604118347,12.35028267,2024-06-05 16:40:56.872916
31.91338396,-3.68164587,-6.537370682,6.212424755,2024-06-05 16:40:56.913384
31.95390307,4.833058834,1.215517044,-1.582476258,2024-06-05 16:40:56.953903
31.99438354,2.062367201,-8.693444252,2.180830002,2024-06-05 16:40:56.994384
32.03482843,8.19780159,9.743037224,-12.24621487,2024-06-05 16:40:57.034828
32.07533552,5.420115471,3.043928623,-5.361408234,2024-06-05 16:40:57.075336
32.11584328,-1.530714154,-8.979755402,-8.265169144,2024-06-05 16:40:57.115843
32.1564038,-6.74358654,-0.5638837814,6.505788803,2024-06-05 16:40:57.156404
32.19684453,-1.551848054,0.7011489868,-1.128548861,2024-06-05 16:40:57.196845
32.23730625,3.211493015,0.822678566,0.01957118511,2024-06-05 16:40:57.237306
32.27780807,1.66640985,2.298599243,9.058242798,2024-06-05 16:40:57.277808
32.31834088,-1.164032459,0.773516655,-1.081372857,2024-06-05 16:40:57.318341
32.35875578,-0.9155571461,-1.614361763,4.067874908,2024-06-05 16:40:57.358756
32.39929552,-5.383986473,-2.541770935,4.032203674,2024-06-05 16:40:57.399296
32.43977354,-4.819934368,-3.036988258,2.872249842,2024-06-05 16:40:57.439774
32.48024146,-0.7591705322,-3.155301094,7.138065338,2024-06-05 16:40:57.480241
32.52075718,-2.510305882,-4.163256645,8.197537422,2024-06-05 16:40:57.520757
32.56125109,-3.639590979,-3.310862541,-1.251639605,2024-06-05 16:40:57.561251
32.60173453,3.357290983,-5.450100899,-5.996682644,2024-06-05 16:40:57.601735
32.64224656,7.089911461,-5.742756844,2.987158537,2024-06-05 16:40:57.642247
32.68273994,5.491123199,2.511138439,-4.941067696,2024-06-05 16:40:57.682740
32.72324677,-7.553525925,1.562637329,-9.373894691,2024-06-05 16:40:57.723247
32.76372333,-3.467440367,3.204763889,-3.062786579,2024-06-05 16:40:57.763723
32.80421823,3.834437132,7.192468166,-8.140798569,2024-06-05 16:40:57.804218
32.8446802,5.237065792,6.829767227,-5.325594902,2024-06-05 16:40:57.844680
32.88520041,1.654849768,-0.855175972,4.537348747,2024-06-05 16:40:57.885200
32.9256701,-4.554839611,-12.6915369,15.13883972,2024-06-05 16:40:57.925670
32.96615573,1.628058553,3.530432224,-0.116271019,2024-06-05 16:40:57.966156
33.00666911,7.95117712,-10.07766533,1.484016418,2024-06-05 16:40:58.006669
33.04710672,4.789027214,6.804839134,-11.9768343,2024-06-05 16:40:58.047107
33.08763744,5.292963028,4.530698299,-7.783215523,2024-06-05 16:40:58.087637
33.12814948,1.176056981,-5.202262878,-5.93786335,2024-06-05 16:40:58.128149
33.16862276,-6.663322926,-3.43933773,-4.26665163,2024-06-05 16:40:58.168623
33.20911448,-4.549766541,-0.6574497223,7.288630962,2024-06-05 16:40:58.209114
33.24960474,3.290878773,1.412775993,-1.438659906,2024-06-05 16:40:58.249605
33.29012546,1.267956853,2.296426773,4.908811092,2024-06-05 16:40:58.290125
33.33059109,-1.225165367,1.328328133,0.8295810223,2024-06-05 16:40:58.330591
33.37107463,-2.190845966,-1.86882019,5.629337311,2024-06-05 16:40:58.371075
33.41156489,-3.455905914,-2.58991909,4.676224232,2024-06-05 16:40:58.411565
33.45209031,-8.712471008,-3.519493103,1.724888921,2024-06-05 16:40:58.452090
33.49258448,-2.871376991,-4.06540966,6.230318069,2024-06-05 16:40:58.492584
33.53304302,-2.059153557,-4.500854492,8.671247482,2024-06-05 16:40:58.533043
33.57353755,-0.9963617325,-3.158167839,-3.340045452,2024-06-05 16:40:58.573538
33.61403885,6.996049404,-6.666622162,-6.285822392,2024-06-05 16:40:58.614039
33.65450593,7.697306633,-4.536015511,2.165673494,2024-06-05 16:40:58.654506
33.69501302,-0.5055594444,1.396858215,-6.085660458,2024-06-05 16:40:58.695013
33.73551203,-5.702482224,1.742989063,-4.553421974,2024-06-05 16:40:58.735512
33.77599265,0.8466560841,4.579532623,-6.076144695,2024-06-05 16:40:58.775993
33.81648271,3.545969486,7.250831604,-8.008666039,2024-06-05 16:40:58.816483
33.85698588,5.032855511,7.884167194,-5.317110538,2024-06-05 16:40:58.856986
33.89747172,2.746036053,1.686690807,2.293292999,2024-06-05 16:40:58.897472
33.93795796,-3.666529179,-13.73408318,16.14778328,2024-06-05 16:40:58.937958
33.9784525,0.1082192659,2.906466007,-1.766713619,2024-06-05 16:40:58.978453
34.01895427,6.928064823,-3.251787186,-3.912896156,2024-06-05 16:40:59.018954
34.05941604,1.212802887,-9.030491829,2.124151945,2024-06-05 16:40:59.059416
34.09993369,9.92891407,9.531457901,-11.42407322,2024-06-05 16:40:59.099934
34.14043614,6.03339529,3.593143463,-1.735179186,2024-06-05 16:40:59.140436
34.18090567,0.1448072195,-7.325016975,-5.689640999,2024-06-05 16:40:59.180906
34.22139036,-8.751146317,-3.367281914,-3.276542902,2024-06-05 16:40:59.221390
34.26188416,-4.725771904,1.017240524,8.313584328,2024-06-05 16:40:59.261884
34.30238359,2.488601446,0.9817028046,0.2847522497,2024-06-05 16:40:59.302384
34.34286015,2.157422543,1.96697998,6.512996197,2024-06-05 16:40:59.342860
34.3833714,-3.312174559,-0.8685302734,1.192269325,2024-06-05 16:40:59.383371
34.42386437,-3.53875494,-1.947038651,5.729784012,2024-06-05 16:40:59.423864
34.46434083,-6.477215767,-2.980793953,2.159526825,2024-06-05 16:40:59.464341
34.50485406,-2.717661381,-3.891373634,6.443113327,2024-06-05 16:40:59.504854
34.54535807,-3.243491888,-6.543064117,6.562500477,2024-06-05 16:40:59.545358
34.5858289,-0.7654367089,-3.186475754,3.161937952,2024-06-05 16:40:59.585829
34.62631437,5.351256371,-5.337974548,-3.753422499,2024-06-05 16:40:59.626314
34.666795,9.495487213,-4.757242203,-0.4113050699,2024-06-05 16:40:59.666795
34.70729281,4.562712193,1.44340992,-2.364617348,2024-06-05 16:40:59.707293
34.74780291,-4.960678577,1.443461418,-9.599401474,2024-06-05 16:40:59.747803
34.78830073,-4.216487408,2.028646469,-3.001601219,2024-06-05 16:40:59.788301
34.82875062,1.75752306,6.25826931,-7.963012695,2024-06-05 16:40:59.828751
34.86928057,4.720718384,8.005373955,-7.75422287,2024-06-05 16:40:59.869281
34.90974875,3.658429146,5.798225403,-0.2219440937,2024-06-05 16:40:59.909749
34.95029296,-4.574392319,-13.76286125,18.46530724,2024-06-05 16:40:59.950293
34.99072291,-0.09936243296,-1.225291252,0.9137268066,2024-06-05 16:40:59.990723
35.03122099,8.893705368,-0.9502401352,-1.977264404,2024-06-05 16:41:00.031221
35.07174557,2.749404669,-6.14235878,-3.981124878,2024-06-05 16:41:00.071746
35.11219437,6.984285355,8.109814644,-9.059604645,2024-06-05 16:41:00.112194
35.15272359,4.293715477,1.752412319,-5.157130241,2024-06-05 16:41:00.152724
35.19319922,-6.449318886,-11.27770138,-11.98912239,2024-06-05 16:41:00.193199
35.23367448,-8.422386169,-1.067466736,11.94938087,2024-06-05 16:41:00.233674
35.27427463,-0.3927446604,2.558842182,-2.48400116,2024-06-05 16:41:00.274275
35.3147014,4.350474358,1.805167198,1.528004527,2024-06-05 16:41:00.314701
35.3551764,1.714922667,2.31257534,6.159588814,2024-06-05 16:41:00.355176
35.39564224,-1.987893343,-0.6215419769,1.01616931,2024-06-05 16:41:00.395642
35.43617343,-2.609138489,-1.895251274,5.593643188,2024-06-05 16:41:00.436173
35.47662166,-8.516147614,-3.666675568,1.191705465,2024-06-05 16:41:00.476622
35.51716411,-4.498546124,-3.336504936,5.349042416,2024-06-05 16:41:00.517164
35.55763104,-3.581423759,-5.509395599,7.351256847,2024-06-05 16:41:00.557631
35.59809281,-1.842108965,-3.182284355,3.194814205,2024-06-05 16:41:00.598093
35.63859593,3.476009846,-6.120186806,-4.506277084,2024-06-05 16:41:00.638596
35.67911583,9.309509277,-6.85214138,-0.6049575806,2024-06-05 16:41:00.679116
35.71959817,4.087192059,0.7094564438,-2.667863607,2024-06-05 16:41:00.719598
35.76005927,-4.649062157,2.534031868,-7.70207262,2024-06-05 16:41:00.760059
35.80058864,-3.478196144,2.559718609,-4.679677963,2024-06-05 16:41:00.800589
35.84109646,2.421476126,5.431694984,-7.93320179,2024-06-05 16:41:00.841096
35.8815377,5.285211563,7.961532116,-8.237101555,2024-06-05 16:41:00.881538
35.92204255,3.61718297,5.675002098,-1.219431162,2024-06-05 16:41:00.922043
35.96254911,-4.514152527,-13.91455173,18.33057404,2024-06-05 16:41:00.962549
36.00303979,0.1860410571,-0.681427002,0.1365697384,2024-06-05 16:41:01.003040
36.04353146,7.044624805,-0.7960529327,-2.647991896,2024-06-05 16:41:01.043531
36.08400396,1.631248116,-8.000997543,0.2045812607,2024-06-05 16:41:01.084004
36.12452281,8.283885956,9.168088913,-10.14325714,2024-06-05 16:41:01.124523
36.16499036,4.573953629,3.429140091,-4.650839806,2024-06-05 16:41:01.164990
36.20548869,-2.620645046,-9.484794617,-8.14398098,2024-06-05 16:41:01.205489
36.24595901,-8.566884995,-3.163633347,4.039563179,2024-06-05 16:41:01.245959
36.28646599,-3.261513472,1.894104004,1.982243776,2024-06-05 16:41:01.286466
36.32696896,3.861948013,1.498755455,0.7084149122,2024-06-05 16:41:01.326969
36.36742182,0.715113759,1.674755096,3.385122776,2024-06-05 16:41:01.367422
36.40792635,0.001041769981,1.236440659,-0.9886989594,2024-06-05 16:41:01.407926
36.44844916,-1.093619347,-2.35227108,8.637163162,2024-06-05 16:41:01.448449
36.48894104,-5.599434853,-3.146987915,1.98539567,2024-06-05 16:41:01.488941
36.52937036,-8.010787964,-3.493692398,4.521773338,2024-06-05 16:41:01.529370
36.56992015,-2.413246632,-5.465108871,7.347711086,2024-06-05 16:41:01.569920
36.61039937,-4.86213398,-3.589623451,4.003598213,2024-06-05 16:41:01.610399
36.65089036,0.03475183249,-5.568493843,-4.164234638,2024-06-05 16:41:01.650890
36.69138359,9.707039833,-8.031648636,-2.349610329,2024-06-05 16:41:01.691384
36.73187026,7.551502228,-0.5301456451,-0.4517784119,2024-06-05 16:41:01.731870
36.7723814,-3.643831253,2.697455406,-9.135651588,2024-06-05 16:41:01.772381
36.81286672,-5.887775421,2.298300743,-3.797403574,2024-06-05 16:41:01.812867
36.85333896,2.700120687,6.264270782,-8.428092003,2024-06-05 16:41:01.853339
36.89385807,5.514868736,8.352946281,-8.285260201,2024-06-05 16:41:01.893858
36.93432984,3.569375277,5.367668152,-2.018847704,2024-06-05 16:41:01.934330
36.97481156,-0.7281085253,-10.89010334,16.75768661,2024-06-05 16:41:01.974812
37.0152914,-3.87868166,-6.136540413,2.386164188,2024-06-05 16:41:02.015291
37.05577942,4.726773739,7.402999401,-4.424674988,2024-06-05 16:41:02.055779
37.09631234,5.782198906,-12.48571968,6.012392044,2024-06-05 16:41:02.096312
37.13678927,4.505675793,4.226412773,-13.68672752,2024-06-05 16:41:02.136789
37.17727203,6.194104671,5.981452465,-5.844590187,2024-06-05 16:41:02.177272
37.21777739,0.48848176,-5.193663597,-6.531780243,2024-06-05 16:41:02.217777
37.25826567,-11.88875961,-6.651497841,0.9989315867,2024-06-05 16:41:02.258266
37.29875166,-1.98599565,1.839802742,2.352549791,2024-06-05 16:41:02.298752
37.33924437,5.304932594,1.780807495,0.3970040083,2024-06-05 16:41:02.339244
37.37973099,2.057125568,3.534713745,4.098629951,2024-06-05 16:41:02.379731
37.4202539,-1.036606312,-0.8943939209,0.9151186943,2024-06-05 16:41:02.420254
37.46075307,-3.419664383,-1.670855522,8.154416084,2024-06-05 16:41:02.460753
37.50123099,-6.206585407,-3.157000542,1.518980026,2024-06-05 16:41:02.501231
37.54171833,-5.328260899,-3.185621262,3.674822092,2024-06-05 16:41:02.541718
37.58221135,-2.804450512,-4.55486393,7.304872036,2024-06-05 16:41:02.582211
37.62269922,-3.981965542,-2.728904724,5.496105194,2024-06-05 16:41:02.622699
37.66319385,0.03244155645,-4.827350616,-4.815645218,2024-06-05 16:41:02.663194
37.70367234,8.290204048,-8.3198843,-2.384887457,2024-06-05 16:41:02.703672
37.74414812,6.798048019,-1.16515255,-0.2447474003,2024-06-05 16:41:02.744148
37.78469192,-1.525668502,2.802295685,-6.824342728,2024-06-05 16:41:02.784692
37.82514031,-5.897751808,2.114135742,-4.069834709,2024-06-05 16:41:02.825140
37.86561437,0.3895025849,5.084794998,-7.644076347,2024-06-05 16:41:02.865614
37.90612698,4.21331501,8.635166168,-8.350767136,2024-06-05 16:41:02.906127
37.9466339,3.810382366,7.219644547,-3.207473516,2024-06-05 16:41:02.946634
37.98712547,0.6040425301,-9.214844704,13.04575443,2024-06-05 16:41:02.987125
38.02761562,-3.151177168,-8.278914452,6.698207855,2024-06-05 16:41:03.027616
38.06810203,8.125349045,0.7965917587,-2.940807819,2024-06-05 16:41:03.068102
38.10860062,2.255124569,-9.024373055,2.505696058,2024-06-05 16:41:03.108601
38.14905562,8.891624451,11.17838955,-13.44221878,2024-06-05 16:41:03.149056
38.18957182,5.777918816,2.967679024,-4.313317299,2024-06-05 16:41:03.189572
38.23004922,-0.3879643679,-8.755392075,-7.707209587,2024-06-05 16:41:03.230049
38.27055963,-10.10065269,-5.57539463,0.02702916414,2024-06-05 16:41:03.270560
38.3110502,-4.391898155,2.155753136,4.704807758,2024-06-05 16:41:03.311050
38.35152859,2.953750372,1.607103348,-0.03702533245,2024-06-05 16:41:03.351529
38.39201047,2.735699415,2.898070335,4.404874325,2024-06-05 16:41:03.392010
38.43250052,-1.046262383,-0.3281774521,1.725758791,2024-06-05 16:41:03.432501
38.47302526,-3.436471939,-1.7862463,8.879043579,2024-06-05 16:41:03.473025
38.51347869,-8.231201172,-3.580307961,0.6082911491,2024-06-05 16:41:03.513479
38.55397812,-5.363079071,-3.248675346,5.773088455,2024-06-05 16:41:03.553978
38.59448088,-2.805015087,-5.374538422,6.762626171,2024-06-05 16:41:03.594481
38.63496234,-2.233785152,-2.809480667,2.99109149,2024-06-05 16:41:03.634962
38.6755001,2.911861181,-6.313994408,-3.920743465,2024-06-05 16:41:03.675500
38.71594406,10.5967741,-8.41934967,-1.978591204,2024-06-05 16:41:03.715944
38.75644338,6.565374851,1.075894356,-0.6298856735,2024-06-05 16:41:03.756443
38.79694989,-3.99974823,2.049995899,-8.485383987,2024-06-05 16:41:03.796950
38.83740505,-4.193891048,3.15518856,-3.763240814,2024-06-05 16:41:03.837405
38.87791312,2.625637531,6.645363331,-7.519618034,2024-06-05 16:41:03.877913
38.91843562,5.417787075,8.878142357,-8.14683342,2024-06-05 16:41:03.918436
38.95886375,4.111204147,6.092957973,-1.301847219,2024-06-05 16:41:03.958864
38.99937625,-6.370252609,-17.13829803,20.07252312,2024-06-05 16:41:03.999376
39.03986099,1.971623421,1.839606285,-1.353931427,2024-06-05 16:41:04.039861
39.08038901,8.558893204,-0.9979848862,-3.057541132,2024-06-05 16:41:04.080389
39.12090849,1.055694818,-9.016619682,-1.931509972,2024-06-05 16:41:04.120908
39.16137646,8.412605286,9.151252747,-8.849988937,2024-06-05 16:41:04.161376
39.20186354,4.193071842,2.377210617,-3.703050613,2024-06-05 16:41:04.201864
39.24239651,-1.383743405,-8.373894691,-7.5319767,2024-06-05 16:41:04.242397
39.2828676,-9.582445145,-3.042140007,4.879142284,2024-06-05 16:41:04.282868
39.32335864,-1.700755119,2.513049126,0.5678735375,2024-06-05 16:41:04.323359
39.36381265,2.78767395,1.408576965,1.503284931,2024-06-05 16:41:04.363813
39.40430567,2.037181616,2.865546703,4.192458153,2024-06-05 16:41:04.404306
39.44477984,-1.325245738,-0.5423526764,2.343877554,2024-06-05 16:41:04.444780
39.4853076,-3.88162899,-2.160775185,6.640163422,2024-06-05 16:41:04.485308
39.52578099,-8.300261497,-3.879542351,0.7841899395,2024-06-05 16:41:04.525781
39.5662726,-2.658769131,-4.126046181,6.855503559,2024-06-05 16:41:04.566273
39.6067413,-4.429182053,-6.141969681,5.979423523,2024-06-05 16:41:04.606741
39.64723817,0.2909939885,-2.439305305,2.407528639,2024-06-05 16:41:04.647238
39.68776625,4.101133823,-5.271448135,-4.056368828,2024-06-05 16:41:04.687766
39.72829338,9.394445419,-6.733011246,-1.96374929,2024-06-05 16:41:04.728293
39.76878489,4.37981081,1.147808075,-1.227458239,2024-06-05 16:41:04.768785
39.80925734,-6.136981964,0.5026340485,-8.805031776,2024-06-05 16:41:04.809257
39.84971849,-2.061322689,4.311593533,-3.516357422,2024-06-05 16:41:04.849718
39.89020224,3.082005024,7.630626202,-7.428408623,2024-06-05 16:41:04.890202
39.93069005,4.859792709,8.841462135,-6.08569622,2024-06-05 16:41:04.930690
39.97116953,2.212968588,4.273539543,0.4222095013,2024-06-05 16:41:04.971170
40.01166218,-6.675713062,-18.2497406,19.54845619,2024-06-05 16:41:05.011662
40.05216364,1.238775969,3.884397984,-2.274089813,2024-06-05 16:41:05.052164
40.09266937,8.110980034,-9.934163094,2.893591404,2024-06-05 16:41:05.092669
40.13314942,3.587255955,4.191487789,-13.19210052,2024-06-05 16:41:05.133149
40.17363864,8.59115696,7.097834587,-6.231180191,2024-06-05 16:41:05.173639
40.21412546,4.329375267,-2.036672592,-4.195211411,2024-06-05 16:41:05.214125
40.25462317,-8.102590561,-10.59328175,-9.994270325,2024-06-05 16:41:05.254623
40.29513994,-8.396306038,-0.7006778717,11.03617668,2024-06-05 16:41:05.295140
40.3356213,2.022197962,2.802480221,-0.9990400076,2024-06-05 16:41:05.335621
40.37609672,3.850419998,2.827341557,3.394337177,2024-06-05 16:41:05.376097
40.41659166,1.169974804,1.891321182,3.584213018,2024-06-05 16:41:05.416592
40.45708041,-3.618200779,-1.199507713,2.172163963,2024-06-05 16:41:05.457080
40.49758427,-4.774569988,-2.339385986,6.251384258,2024-06-05 16:41:05.497584
40.53807729,-7.660593987,-3.211370468,1.139318824,2024-06-05 16:41:05.538077
40.57857656,-2.900929928,-4.073177338,5.819349766,2024-06-05 16:41:05.578577
40.61907932,-3.953356743,-5.689326286,5.722197533,2024-06-05 16:41:05.619079
40.65953536,1.437258363,-3.134248734,1.810690403,2024-06-05 16:41:05.659535
40.70002323,6.885956764,-6.386874199,-5.301590443,2024-06-05 16:41:05.700023
40.74050724,8.862756729,-4.829259872,0.5004637241,2024-06-05 16:41:05.740507
40.78104713,2.060795546,1.87274456,-4.455245972,2024-06-05 16:41:05.781047
40.82157078,-7.174100876,1.345819473,-7.613825321,2024-06-05 16:41:05.821571
40.86201625,-0.1549699605,4.672067642,-4.646080971,2024-06-05 16:41:05.862016
40.90249776,3.083155632,7.639113426,-8.3748703,2024-06-05 16:41:05.902498
40.94298567,5.372984886,7.9164505,-5.089552879,2024-06-05 16:41:05.942986
40.98348672,2.987155199,2.233137608,2.950866461,2024-06-05 16:41:05.983487
41.02397203,-6.908243656,-16.9066124,18.72582245,2024-06-05 16:41:06.023972
41.0644651,0.789873004,3.484314919,-2.409871578,2024-06-05 16:41:06.064465
41.10495323,7.835662842,-13.5720129,5.297645569,2024-06-05 16:41:06.104953
41.14545099,7.497592449,10.39209652,-16.44073486,2024-06-05 16:41:06.145451
41.1859402,7.887646198,5.078653812,-5.851541042,2024-06-05 16:41:06.185940
41.22641328,3.543693066,-5.685074806,-4.515515327,2024-06-05 16:41:06.226413
41.26689562,-6.396573544,-6.597707748,-10.39755726,2024-06-05 16:41:06.266896
41.3074026,-7.445576191,-1.062797546,14.06475067,2024-06-05 16:41:06.307403
41.34789948,-0.5120407343,2.260961533,-1.676380396,2024-06-05 16:41:06.347899
41.38837328,3.291759253,2.013585567,2.447544336,2024-06-05 16:41:06.388373
41.42885703,0.1198747158,1.542833805,3.566492558,2024-06-05 16:41:06.428857
41.46935963,-1.571681023,-1.504188538,3.66233778,2024-06-05 16:41:06.469360
41.50983255,-5.618582726,-2.10513401,6.548482895,2024-06-05 16:41:06.509833
41.55032427,-8.033233643,-3.308810234,1.920753837,2024-06-05 16:41:06.550324
41.59086625,-1.325981379,-3.575022697,7.50054884,2024-06-05 16:41:06.590866
41.63131744,-4.006696701,-4.138838768,6.291245461,2024-06-05 16:41:06.631317
41.67185416,-0.2108983994,-4.165009499,-1.834103107,2024-06-05 16:41:06.671854
41.71233146,7.417639732,-7.550107002,-5.575859547,2024-06-05 16:41:06.712331
41.75282708,8.552602768,-4.85963726,1.265626907,2024-06-05 16:41:06.752827
41.79325031,0.1576847732,1.181066513,-4.899471283,2024-06-05 16:41:06.793250
41.83379911,-6.195316792,0.735004425,-6.683757782,2024-06-05 16:41:06.833799
41.87433369,1.072803259,4.925331116,-5.068506718,2024-06-05 16:41:06.874334
41.91475713,5.036886215,8.438142776,-8.134170532,2024-06-05 16:41:06.914757
41.95526281,5.331910133,9.118407249,-5.639910221,2024-06-05 16:41:06.955263
41.9957438,1.450153351,0.1170606613,6.199768066,2024-06-05 16:41:06.995744
42.03619896,-7.184712887,-15.68236065,14.70273113,2024-06-05 16:41:07.036199
42.07673802,1.301357508,6.657018661,-2.474030018,2024-06-05 16:41:07.076738
42.11721541,8.523999214,-6.393211365,-2.176745892,2024-06-05 16:41:07.117215
42.15773843,-0.312754631,-5.731544495,-3.018227577,2024-06-05 16:41:07.157738
42.19822187,5.86878109,8.43164444,-8.233531952,2024-06-05 16:41:07.198222
42.23871297,5.565671921,2.132585526,-3.520607471,2024-06-05 16:41:07.238713
42.27920411,-2.255189419,-8.125655174,-8.782209396,2024-06-05 16:41:07.279204
42.31967052,-7.437075615,-1.757278442,8.843852997,2024-06-05 16:41:07.319671
42.36017187,-0.04852437973,1.517479897,-1.242415309,2024-06-05 16:41:07.360172
42.40068807,2.553316116,1.519248962,3.233132362,2024-06-05 16:41:07.400688
42.44116369,0.6869032383,2.458950996,1.71150589,2024-06-05 16:41:07.441164
42.48163583,-1.522294998,-0.4123563766,1.517767429,2024-06-05 16:41:07.481636
42.52212854,-3.266768932,-1.534938812,9.586699486,2024-06-05 16:41:07.522129
42.56264911,-7.352767467,-3.175773621,0.7635396719,2024-06-05 16:41:07.562649
42.60309927,-2.640072107,-3.275435448,7.912500381,2024-06-05 16:41:07.603099
42.64368328,-2.931733131,-5.633663177,7.036664486,2024-06-05 16:41:07.643683
42.68410369,-2.44759059,-3.691124916,0.1415089369,2024-06-05 16:41:07.684104
42.72462411,4.765129089,-7.055220604,-4.76027298,2024-06-05 16:41:07.724624
42.76508609,8.114011765,-7.4894104,-1.414112568,2024-06-05 16:41:07.765086
42.80561849,2.915177107,2.037687302,-3.681278467,2024-06-05 16:41:07.805618
42.84608604,-5.552140713,1.659188747,-5.848103046,2024-06-05 16:41:07.846086
42.88655276,-0.9528179169,3.776219845,-5.88103199,2024-06-05 16:41:07.886553
42.9270614,4.639379501,7.743278027,-8.69851017,2024-06-05 16:41:07.927061
42.96753463,5.51092577,8.704227448,-6.846824646,2024-06-05 16:41:07.967535
43.00804994,3.480695009,3.870994568,-0.4633853436,2024-06-05 16:41:08.008050
43.04850864,-6.001463413,-15.80193806,17.6779232,2024-06-05 16:41:08.048509
43.08903088,-1.86212182,0.9091329575,0.301930666,2024-06-05 16:41:08.089031
43.12951328,7.638341427,-3.174813271,-0.9834120274,2024-06-05 16:41:08.129513
43.17001708,0.1627325416,-5.929310799,-0.6179494858,2024-06-05 16:41:08.170017
43.21051963,7.726405144,8.445378304,-9.480750084,2024-06-05 16:41:08.210520
43.25098291,6.32496357,2.932183266,-3.824435711,2024-06-05 16:41:08.250983
43.29149531,1.281372666,-7.067698479,-5.083026409,2024-06-05 16:41:08.291495
43.33199968,-8.182182312,-4.349469185,-3.850144386,2024-06-05 16:41:08.332000
43.37247172,-6.002394199,0.8004016876,7.05113554,2024-06-05 16:41:08.372472
43.41296593,1.007570982,1.299365997,0.7192345262,2024-06-05 16:41:08.412966
43.45343458,3.083351612,2.590254784,3.509827614,2024-06-05 16:41:08.453435
43.49393802,-0.4395462275,0.6130256653,1.83137989,2024-06-05 16:41:08.493938
43.53443208,-1.932439685,-1.702254295,6.942170143,2024-06-05 16:41:08.534432
43.57492531,-7.659004211,-3.408456802,2.545868397,2024-06-05 16:41:08.574925
43.61539786,-5.254915237,-3.318194389,4.325097084,2024-06-05 16:41:08.615398
43.65591093,-2.319341183,-6.005543709,5.937708855,2024-06-05 16:41:08.655911
43.69640651,-2.57351017,-2.957893372,6.756169319,2024-06-05 16:41:08.696407
43.73688448,0.9305527806,-4.826963425,-4.685037613,2024-06-05 16:41:08.736884
43.77739948,8.240797043,-7.702747345,-4.4129076,2024-06-05 16:41:08.777399
43.81787661,4.760090828,-0.5631074905,0.8980281353,2024-06-05 16:41:08.817877
43.85835333,-2.766770363,1.696571827,-9.130172729,2024-06-05 16:41:08.858353
43.8988727,-4.743871689,2.312549591,-3.984437227,2024-06-05 16:41:08.898873
43.93936364,1.661380529,5.896535397,-6.848662376,2024-06-05 16:41:08.939364
43.97984328,5.616780758,8.549396515,-7.537876129,2024-06-05 16:41:08.979843
44.02032651,4.792591572,7.196946144,-2.959172249,2024-06-05 16:41:09.020327
44.06082239,-0.02960002422,-8.022192001,14.17207623,2024-06-05 16:41:09.060822
44.10132411,-6.83098793,-8.767954826,6.266436577,2024-06-05 16:41:09.101324
44.14180396,5.617489815,2.879034519,-6.056035519,2024-06-05 16:41:09.141804
44.18229989,1.143140793,-13.00487041,5.724235535,2024-06-05 16:41:09.182300
44.22280687,9.216046333,9.875231743,-13.74771023,2024-06-05 16:41:09.222807
44.26328119,6.522091389,5.243630409,-3.103591204,2024-06-05 16:41:09.263281
44.30376312,2.902117729,-6.27695179,-5.106157303,2024-06-05 16:41:09.303763
44.34424005,-10.42133427,-6.561256409,-2.86609745,2024-06-05 16:41:09.344240
44.38474229,-5.858491421,1.593990326,5.317199707,2024-06-05 16:41:09.384742
44.42526963,2.450918913,1.623412132,1.406390786,2024-06-05 16:41:09.425270
44.46574489,4.529918671,3.377398014,3.858155489,2024-06-05 16:41:09.465745
44.50621364,0.8781124353,0.4461975098,-0.366130352,2024-06-05 16:41:09.506214
44.54670968,-4.398054123,-1.587630272,8.299453735,2024-06-05 16:41:09.546710
44.5872113,-7.390432358,-3.655295372,0.9844640493,2024-06-05 16:41:09.587211
44.62768896,-4.940829754,-3.539495468,5.91806078,2024-06-05 16:41:09.627689
44.66816114,-2.927132845,-5.635552406,7.508546352,2024-06-05 16:41:09.668161
44.70867531,-2.384712219,-2.886416435,2.70569396,2024-06-05 16:41:09.708675
44.74919244,4.313834667,-6.220668793,-3.764769077,2024-06-05 16:41:09.749192
44.78965515,9.693119049,-7.579506874,-1.957197785,2024-06-05 16:41:09.789655
44.83015354,4.492351532,0.7351198196,-1.312289834,2024-06-05 16:41:09.830154
44.8706551,-5.427753925,1.477821827,-8.205758095,2024-06-05 16:41:09.870655
44.91111698,-3.989681244,3.147958755,-4.029131889,2024-06-05 16:41:09.911117
44.95160979,2.616502523,6.428732872,-7.914758682,2024-06-05 16:41:09.951610
44.99213963,4.907437801,8.978590012,-7.584013462,2024-06-05 16:41:09.992140
45.03259484,3.64159894,5.361389637,-1.267518878,2024-06-05 16:41:10.032595
45.07309916,-4.669873714,-14.9729805,18.93297005,2024-06-05 16:41:10.073099
45.11357932,-1.189144969,-0.9919185638,1.306767702,2024-06-05 16:41:10.113579
45.15406765,7.491130352,2.984054565,-8.684398651,2024-06-05 16:41:10.154068
45.19455896,2.718397617,-11.18107224,5.383209229,2024-06-05 16:41:10.194559
45.23507073,5.881342888,6.782392979,-12.2491312,2024-06-05 16:41:10.235071
45.2755626,6.28518486,4.130644798,-2.633992672,2024-06-05 16:41:10.275563
45.31604198,2.395926237,-7.025494576,-5.734498978,2024-06-05 16:41:10.316042
45.35654203,-9.844060898,-3.184879303,3.450614929,2024-06-05 16:41:10.356542
45.39704317,-4.184084892,2.449771881,0.8364704251,2024-06-05 16:41:10.397043
45.43754672,2.599540234,1.215023994,1.549497485,2024-06-05 16:41:10.437547
45.47807317,2.816944122,3.467292786,3.750677109,2024-06-05 16:41:10.478073
45.51854442,-0.5728670955,-1.14782238,3.073557615,2024-06-05 16:41:10.518544
45.55897744,-4.443979263,-1.904517174,6.323189259,2024-06-05 16:41:10.558977
45.59946864,-7.743657112,-3.587044716,0.4333335161,2024-06-05 16:41:10.599469
45.63999729,-2.112644672,-3.56038475,7.946801186,2024-06-05 16:41:10.639997
45.68045922,-2.210537434,-5.253364563,7.163802147,2024-06-05 16:41:10.680459
45.72094349,-3.715754509,-2.753038406,0.4218432903,2024-06-05 16:41:10.720943
45.76143958,4.337858677,-5.828431129,-4.020365238,2024-06-05 16:41:10.761440
45.80197474,7.234963894,-7.014110565,-0.9003646374,2024-06-05 16:41:10.801975
45.84245494,3.761884928,1.194853783,-2.335433483,2024-06-05 16:41:10.842455
45.88291963,-4.436946869,1.871061325,-6.33231163,2024-06-05 16:41:10.882920
45.92342599,-2.356127262,3.154306412,-4.962333202,2024-06-05 16:41:10.923426
45.96389468,3.408168316,7.172888756,-8.013355255,2024-06-05 16:41:10.963895
46.00439198,6.133207321,8.690805435,-7.062274933,2024-06-05 16:41:11.004392
46.04488942,3.525552273,3.66476059,0.6111299992,2024-06-05 16:41:11.044889
46.08539677,-9.407666206,-16.83378792,18.53201103,2024-06-05 16:41:11.085397
46.12586187,-0.8521502614,4.264046669,-1.735293031,2024-06-05 16:41:11.125862
46.1663714,8.24653244,3.015717506,-10.08854389,2024-06-05 16:41:11.166371
46.20687677,2.038704872,-14.93853474,8.060487747,2024-06-05 16:41:11.206877
46.24733187,5.337880135,6.616369247,-12.23300934,2024-06-05 16:41:11.247332
46.28783422,4.38550806,5.968530178,-3.646506786,2024-06-05 16:41:11.287834
46.32832781,-1.347819805,-8.906942368,-6.049019814,2024-06-05 16:41:11.328328
46.36882724,-8.756081581,-1.847474098,4.775034904,2024-06-05 16:41:11.368827
46.40930833,1.061320305,2.175973892,0.2560324669,2024-06-05 16:41:11.409308
46.44978755,4.307907104,2.383172989,3.525840044,2024-06-05 16:41:11.449788
46.49028276,2.682796478,3.626480579,0.5524171591,2024-06-05 16:41:11.490283
46.53080781,-2.896384716,-2.00487709,6.223630428,2024-06-05 16:41:11.530808
46.57128614,-5.276383877,-1.80397892,4.358150482,2024-06-05 16:41:11.571286
46.61180166,-7.675435066,-3.007572174,1.225422621,2024-06-05 16:41:11.611802
46.65226146,-1.040780783,-3.89741993,9.26709938,2024-06-05 16:41:11.652261
46.69273942,-3.907386303,-5.28098774,7.769967556,2024-06-05 16:41:11.692739
46.73324041,-2.422062159,-3.786113739,-3.237611532,2024-06-05 16:41:11.733240
46.77374708,7.973735332,-9.023245811,-3.73567152,2024-06-05 16:41:11.773747
46.81421619,7.984753609,-4.959911346,0.4521310329,2024-06-05 16:41:11.814216
46.85469974,-0.1868928224,1.514389038,-6.362267971,2024-06-05 16:41:11.854700
46.89520494,-7.158531666,2.050762177,-5.528390884,2024-06-05 16:41:11.895205
46.93569552,0.2599242032,5.109969616,-6.308330536,2024-06-05 16:41:11.935696
46.97618333,3.480104685,8.201553345,-8.885419846,2024-06-05 16:41:11.976183
47.01667239,4.90457201,8.500149727,-6.237463951,2024-06-05 16:41:12.016672
47.05714906,3.4844203,1.033034325,3.456302166,2024-06-05 16:41:12.057149
47.09764437,-6.478426456,-17.67599869,16.92473221,2024-06-05 16:41:12.097644
47.1381375,-0.2894759178,5.776197433,-2.524002552,2024-06-05 16:41:12.138137
47.1786201,9.110908508,-3.863652229,-3.209860563,2024-06-05 16:41:12.178620
47.21912271,1.177959323,-7.780702591,-0.4522118568,2024-06-05 16:41:12.219123
47.25965713,8.241739273,8.368465424,-9.30599308,2024-06-05 16:41:12.259657
47.30016192,5.322822571,3.605235577,-2.528147697,2024-06-05 16:41:12.300162
47.34064307,-0.8019026518,-8.111346245,-9.041130066,2024-06-05 16:41:12.340643
47.38112786,-8.776834488,-3.169576645,5.326190948,2024-06-05 16:41:12.381128
47.42163786,-3.335536957,1.731595993,0.4235517979,2024-06-05 16:41:12.421638
47.46211869,3.964134693,1.258698463,2.582983494,2024-06-05 16:41:12.462119
47.50259286,0.1478686333,2.976640701,3.421142578,2024-06-05 16:41:12.502593
47.54308182,-2.646357298,-0.5755367279,2.525905132,2024-06-05 16:41:12.543082
47.58355625,-3.419594288,-1.678404808,5.690965176,2024-06-05 16:41:12.583556
47.6240851,-7.226969719,-2.936796188,-0.06426000595,2024-06-05 16:41:12.624085
47.66455448,-3.155571222,-3.609770775,5.447575569,2024-06-05 16:41:12.664554
47.70504026,-4.337753296,-7.075801849,5.91450119,2024-06-05 16:41:12.705040
47.74551838,-1.572879195,-2.228872299,5.206740379,2024-06-05 16:41:12.745518
47.78602114,3.038644791,-4.892379761,-3.66991806,2024-06-05 16:41:12.786021
47.82652541,6.65588665,-4.446108818,-3.830262184,2024-06-05 16:41:12.826525
47.86700114,3.929085493,-0.4357852936,1.463430643,2024-06-05 16:41:12.867001
47.90748656,-1.424380422,1.642719269,-11.30062675,2024-06-05 16:41:12.907487
47.94797302,-6.114441872,2.160021782,-1.638862371,2024-06-05 16:41:12.947973
47.98846396,0.7456609011,4.193762779,-7.834554672,2024-06-05 16:41:12.988464
48.02895578,5.239301205,8.41423893,-7.311320305,2024-06-05 16:41:13.028956
48.06943875,5.714820385,6.936772823,-1.956197739,2024-06-05 16:41:13.069439
48.10994422,0.4202690423,-7.447533607,12.68637657,2024-06-05 16:41:13.109944
48.15045401,-6.705515862,-8.724470139,6.011610508,2024-06-05 16:41:13.150454
48.19095458,2.992709398,5.914356232,-3.975503683,2024-06-05 16:41:13.190955
48.2314088,3.304579973,-15.8349762,7.064334869,2024-06-05 16:41:13.231409
48.27189406,7.229859829,7.75879097,-15.0663929,2024-06-05 16:41:13.271894
48.31238484,8.659453392,7.161369324,-3.841155767,2024-06-05 16:41:13.312385
48.35290369,6.519381523,-2.234153748,-2.97381258,2024-06-05 16:41:13.352904
48.39342948,-7.996029854,-9.423157692,-12.87151623,2024-06-05 16:41:13.393429
48.43388489,-5.570662498,0.1967153549,13.40730572,2024-06-05 16:41:13.433885
48.47437406,0.2311311364,1.731600761,-1.230588675,2024-06-05 16:41:13.474374
48.51486338,4.398656845,2.597454548,3.910096645,2024-06-05 16:41:13.514863
48.55535979,-0.3247981071,2.677007675,0.987496376,2024-06-05 16:41:13.555360
48.59585166,-2.44639349,-1.985773087,6.581237316,2024-06-05 16:41:13.595852
48.63633385,-5.997019291,-3.002308846,3.50669241,2024-06-05 16:41:13.636334
48.67685234,-6.652608871,-3.610004425,1.957149982,2024-06-05 16:41:13.676852
48.71729922,-0.8852086067,-5.398783684,7.741585732,2024-06-05 16:41:13.717299
48.75780489,-4.259906769,-4.310538292,7.33868742,2024-06-05 16:41:13.757805
48.79831505,0.5638903379,-4.061377525,-2.460469246,2024-06-05 16:41:13.798315
48.83878453,8.995343208,-8.2813797,-3.864011526,2024-06-05 16:41:13.838785
48.87928546,7.965126514,-1.96164608,1.651326895,2024-06-05 16:41:13.879285
48.91978849,0.03078745306,2.342083454,-6.509643555,2024-06-05 16:41:13.919788
48.96029088,-8.489255905,1.222866058,-5.796615601,2024-06-05 16:41:13.960291
49.00075255,0.3901952505,5.079290867,-6.721100807,2024-06-05 16:41:14.000753
49.04125396,4.28874445,8.001815796,-8.656093597,2024-06-05 16:41:14.041254
49.08173864,4.42155838,8.109008789,-4.028290272,2024-06-05 16:41:14.081739
49.12224646,-0.01797157526,-4.668587685,10.89074707,2024-06-05 16:41:14.122246
49.16272604,-5.787903309,-12.2680397,9.697156906,2024-06-05 16:41:14.162726
49.20323114,5.179659367,4.977090836,-2.609920979,2024-06-05 16:41:14.203231
49.24372698,3.939071655,-12.50763798,4.240350723,2024-06-05 16:41:14.243727
49.28420968,9.531689644,9.268673897,-14.11343193,2024-06-05 16:41:14.284210
49.32468203,5.695163727,4.633940697,-6.151006699,2024-06-05 16:41:14.324682
49.36515093,0.159879446,-8.501626015,-6.993580341,2024-06-05 16:41:14.365151
49.40566802,-10.39838409,-5.345246315,-3.883657455,2024-06-05 16:41:14.405668
49.44620187,-3.569112778,2.285695076,7.763729572,2024-06-05 16:41:14.446202
49.48665203,3.737825155,1.710988998,-0.9206809998,2024-06-05 16:41:14.486652
49.52718776,2.480683804,2.236726761,5.567414284,2024-06-05 16:41:14.527188
49.56763453,-0.4415677786,0.14544487,2.501221657,2024-06-05 16:41:14.567635
49.60811359,-3.052942514,-0.7506923676,4.01174593,2024-06-05 16:41:14.608114
49.64859125,-6.390113831,-3.168885231,2.951798916,2024-06-05 16:41:14.648591
49.68910067,-4.956933498,-3.218963623,3.14701438,2024-06-05 16:41:14.689101
49.72958396,-0.4653300047,-3.44838047,7.514854431,2024-06-05 16:41:14.729584
49.77009146,-4.390207291,-4.797784805,6.851878643,2024-06-05 16:41:14.770091
49.81057875,-2.115211248,-4.646149635,-4.448870182,2024-06-05 16:41:14.810579
49.8510526,8.267879486,-8.414447784,-3.0380373,2024-06-05 16:41:14.851053
49.89156234,7.433580399,-1.447393417,0.9741461277,2024-06-05 16:41:14.891562
49.93206833,-0.4500726461,3.827624321,-7.26581192,2024-06-05 16:41:14.932068
49.97256578,-7.902923584,2.581381321,-3.840927124,2024-06-05 16:41:14.972566
50.01306015,1.306219101,3.94795084,-6.857572079,2024-06-05 16:41:15.013060
50.05354343,4.99571228,7.830852032,-8.15259552,2024-06-05 16:41:15.053543
50.09404156,4.187958241,7.7489748,-4.360964775,2024-06-05 16:41:15.094042
50.13450515,0.5735035539,-6.280741692,13.54686069,2024-06-05 16:41:15.134505
50.17499796,-6.0419631,-10.6102438,7.679059029,2024-06-05 16:41:15.174998
50.21548385,5.00067997,4.190635204,-5.076758385,2024-06-05 16:41:15.215484
50.25598765,3.179207802,-13.35233688,6.271372795,2024-06-05 16:41:15.255988
50.29650849,10.44864082,10.32105541,-14.82358074,2024-06-05 16:41:15.296508
50.33698479,7.892066956,4.69857502,-4.490455151,2024-06-05 16:41:15.336985
50.37746146,1.501979947,-9.171676636,-8.14707756,2024-06-05 16:41:15.377461
50.41794546,-10.17064953,-5.331670761,2.245680332,2024-06-05 16:41:15.417945
50.4584225,-3.496253014,2.24406147,1.108060598,2024-06-05 16:41:15.458422
50.49890901,2.137497902,1.210664749,1.487869382,2024-06-05 16:41:15.498909
50.53940244,1.801629543,2.687012672,3.696445227,2024-06-05 16:41:15.539402
50.57989151,0.2183867693,0.6046934128,2.031776905,2024-06-05 16:41:15.579892
50.62039609,-2.790530205,-0.7662448883,8.250307083,2024-06-05 16:41:15.620396
50.66090031,-7.792654991,-3.133340836,0.4048464298,2024-06-05 16:41:15.660900
50.70138437,-5.886383057,-3.334788322,4.365866184,2024-06-05 16:41:15.701384
50.74188963,-1.611483812,-5.038049698,8.069214821,2024-06-05 16:41:15.741890
50.782385,-2.935155392,-3.675421715,5.295888901,2024-06-05 16:41:15.782385
50.82287536,2.246668577,-6.586760521,-4.657571793,2024-06-05 16:41:15.822875
50.86335307,10.85687065,-8.655415535,-1.16365993,2024-06-05 16:41:15.863353
50.90388041,7.487810612,0.5641784668,-0.8117456436,2024-06-05 16:41:15.903880
50.94435317,-4.35347414,2.231755257,-8.645130157,2024-06-05 16:41:15.944353
50.98484333,-5.973864079,2.843695164,-3.854948997,2024-06-05 16:41:15.984843
51.02531234,2.0436759,5.720908642,-7.998347282,2024-06-05 16:41:16.025312
51.06580468,5.275307178,8.265828133,-8.563563347,2024-06-05 16:41:16.065805
51.10629166,3.686487675,7.634828091,-3.046043634,2024-06-05 16:41:16.106292
51.14677942,-1.967421174,-12.03767204,17.55053902,2024-06-05 16:41:16.146779
51.18727083,-2.646448612,-5.039469719,3.13636899,2024-06-05 16:41:16.187271
51.2277614,6.620265961,3.163347721,-3.664711952,2024-06-05 16:41:16.227761
51.26824854,2.021245003,-12.11049843,5.925520897,2024-06-05 16:41:16.268249
51.30873765,8.223408699,9.163222313,-14.12262249,2024-06-05 16:41:16.308738
51.34921422,4.809236526,5.0874753,-4.044642448,2024-06-05 16:41:16.349214
51.38975687,-0.353189826,-8.630518913,-7.513123512,2024-06-05 16:41:16.389757
51.43022432,-9.540416718,-4.981135368,1.074250698,2024-06-05 16:41:16.430224
51.47070265,-2.219627619,2.35727787,4.913498402,2024-06-05 16:41:16.470703
51.51123213,4.017387867,2.252234936,-0.01270842552,2024-06-05 16:41:16.511232
51.55169328,2.126927853,2.766366005,5.53798914,2024-06-05 16:41:16.551693
51.59226984,-1.812205315,-0.7068061829,2.311622143,2024-06-05 16:41:16.592270
51.63266682,-5.270763397,-1.67924118,7.057499886,2024-06-05 16:41:16.632667
51.6731588,-7.098626137,-3.702645302,1.443888187,2024-06-05 16:41:16.673159
51.71368239,-2.154665947,-2.854235649,6.098931313,2024-06-05 16:41:16.713682
51.7541452,-2.212907314,-5.561887741,6.883241177,2024-06-05 16:41:16.754145
51.79465218,-2.466798067,-3.937772751,1.088247538,2024-06-05 16:41:16.794652
51.83511656,5.682673454,-6.819969177,-4.557672977,2024-06-05 16:41:16.835117
51.87565364,11.25263596,-6.439273834,-1.494288802,2024-06-05 16:41:16.875654
51.9161439,2.922040224,1.876068592,-1.81649375,2024-06-05 16:41:16.916144
51.95660375,-7.433391571,1.063616753,-8.520898819,2024-06-05 16:41:16.956604
51.99709093,-1.18728745,4.399560452,-4.170149803,2024-06-05 16:41:16.997091
52.03758958,3.565966845,6.35451889,-7.099578381,2024-06-05 16:41:17.037590
52.07809317,5.225960732,7.955360413,-6.063893318,2024-06-05 16:41:17.078093
52.11861172,2.836235285,3.72724247,0.3916716576,2024-06-05 16:41:17.118612
52.15903724,-7.529637814,-15.3469553,19.50594902,2024-06-05 16:41:17.159037
52.19958291,-1.182611108,4.725244522,-2.829989433,2024-06-05 16:41:17.199583
52.24002666,7.235101223,-0.4097156525,-7.927803993,2024-06-05 16:41:17.240027
52.2805651,1.934392333,-12.56485176,3.96592927,2024-06-05 16:41:17.280565
52.32105599,5.012268066,8.207803726,-9.820899963,2024-06-05 16:41:17.321056
52.3615201,4.485518456,4.340312004,-3.115953922,2024-06-05 16:41:17.361520
52.40203166,-0.5192531347,-8.479976654,-7.884569645,2024-06-05 16:41:17.402032
52.44251541,-8.54586792,-2.160968781,6.475925922,2024-06-05 16:41:17.442515
52.48301651,-0.5732602477,3.312682629,0.7764033079,2024-06-05 16:41:17.483017
52.52350521,4.632588387,2.489551544,3.23799181,2024-06-05 16:41:17.523505
52.56399838,1.305565953,2.203351974,1.452442408,2024-06-05 16:41:17.563998
52.60447302,-2.090214968,-0.8206176758,5.937231064,2024-06-05 16:41:17.604473
52.64497776,-4.142813683,-1.817290306,4.041790485,2024-06-05 16:41:17.644978
52.68547609,-7.34819603,-2.730015755,0.269759655,2024-06-05 16:41:17.685476
52.72594411,-0.9243485928,-3.051564217,9.162569046,2024-06-05 16:41:17.725944
52.76643177,-3.94878912,-6.321587563,5.668930054,2024-06-05 16:41:17.766432
52.8069638,-1.565058231,-3.587058067,0.6240327358,2024-06-05 16:41:17.806964
52.8474888,7.96526289,-6.826108932,-4.817556381,2024-06-05 16:41:17.847489
52.88789646,8.296895981,-5.26593399,0.1000406742,2024-06-05 16:41:17.887896
52.92842109,1.495866537,1.350019455,-5.30217886,2024-06-05 16:41:17.928421
52.96886901,-6.998551846,0.7299537659,-6.430653572,2024-06-05 16:41:17.968869
53.00934328,0.2303471118,4.620886803,-5.204090118,2024-06-05 16:41:18.009343
53.04986797,2.653322458,6.570467949,-7.179421425,2024-06-05 16:41:18.049868
53.09036937,4.397387981,7.459745407,-6.138786316,2024-06-05 16:41:18.090369
53.13085583,2.166588783,3.809314728,0.7819187641,2024-06-05 16:41:18.130856
53.17136989,-6.205550194,-14.75906086,19.16352081,2024-06-05 16:41:18.171370
53.2118602,-2.303890705,3.569428444,-2.253651381,2024-06-05 16:41:18.211860
53.25234323,4.617570877,2.007123947,-8.56076622,2024-06-05 16:41:18.252343
53.29281942,4.390271187,-15.7278223,10.49453735,2024-06-05 16:41:18.292819
53.33330791,7.602968693,8.385741234,-14.26367283,2024-06-05 16:41:18.333308
53.37382125,5.094444752,6.726437092,-2.209587336,2024-06-05 16:41:18.373821
53.41431765,-0.6872205734,-8.943397522,-5.654743195,2024-06-05 16:41:18.414318
53.45478244,-10.52815151,-3.1353302,2.494171381,2024-06-05 16:41:18.454782
53.49528463,0.08771944046,2.971206665,2.27488184,2024-06-05 16:41:18.495285
53.5357714,3.903216124,1.2898283,3.212580919,2024-06-05 16:41:18.535771
53.5762689,0.3485176563,2.836796284,3.04816103,2024-06-05 16:41:18.576269
53.6167414,-2.786726713,-1.106009483,1.730315685,2024-06-05 16:41:18.616741
53.65724416,-4.68461895,-1.796105385,8.701889038,2024-06-05 16:41:18.657244
53.69774276,-6.242712498,-3.644900322,1.627451539,2024-06-05 16:41:18.697743
53.73823672,-0.323708415,-3.152680397,10.22666931,2024-06-05 16:41:18.738237
53.77870427,-4.485560417,-5.573857307,4.746826172,2024-06-05 16:41:18.778704
53.81922161,-1.833026648,-4.61992836,-2.884438038,2024-06-05 16:41:18.819222
53.85968875,9.414240837,-8.767936707,-4.516784668,2024-06-05 16:41:18.859689
53.90019724,6.572359085,-3.252409935,0.8335213661,2024-06-05 16:41:18.900197
53.94070489,-0.4210472107,1.431018353,-7.302729607,2024-06-05 16:41:18.940705
53.98118104,-5.185890675,2.187565327,-5.91866684,2024-06-05 16:41:18.981181
54.02165963,0.8856447339,5.609158516,-5.757458687,2024-06-05 16:41:19.021660
54.06214786,3.119363308,8.420898438,-7.933189392,2024-06-05 16:41:19.062148
54.10265349,4.621334076,7.993572235,-4.927736759,2024-06-05 16:41:19.102653
54.14315291,-2.035905361,-6.146474838,11.88134766,2024-06-05 16:41:19.143153
54.18363963,-5.172680378,-10.51581383,9.74838829,2024-06-05 16:41:19.183640
54.22413625,2.727272511,7.775739193,-6.641545296,2024-06-05 16:41:19.224136
54.26461234,3.247192383,-18.08995628,9.454735756,2024-06-05 16:41:19.264612
54.30509833,6.419135094,7.474017143,-17.30720329,2024-06-05 16:41:19.305098
54.3455988,6.684042454,8.082747459,-3.961688995,2024-06-05 16:41:19.345599
54.38609922,6.160534859,-2.664738655,-3.603601933,2024-06-05 16:41:19.386099
54.42659494,-8.003252029,-9.299794197,-7.536953926,2024-06-05 16:41:19.426595
54.46707349,-7.72368145,0.1527051926,10.80389023,2024-06-05 16:41:19.467073
54.50756896,1.658661604,2.564311028,0.09519195557,2024-06-05 16:41:19.507569
54.54805213,4.850725651,2.90941906,5.329536915,2024-06-05 16:41:19.548052
54.5885513,-0.05091023445,1.315538406,1.790160179,2024-06-05 16:41:19.588551
54.62901369,-2.919741631,-1.685587883,3.086936235,2024-06-05 16:41:19.629014
54.66948515,-6.211614609,-3.397787094,5.546257973,2024-06-05 16:41:19.669485
54.71004484,-3.572089195,-3.016945839,4.420313358,2024-06-05 16:41:19.710045
54.75049599,-0.1055338383,-3.444592476,9.913856506,2024-06-05 16:41:19.750496
54.79103515,-5.057670593,-4.930481911,2.86925292,2024-06-05 16:41:19.791035
54.83148307,-0.3066505492,-6.204352379,-4.918750286,2024-06-05 16:41:19.831483
54.87196562,11.32882118,-10.88851643,-2.427483559,2024-06-05 16:41:19.871966
54.91249031,6.569022655,-0.5288734436,-1.709897876,2024-06-05 16:41:19.912490
54.95295922,-3.885057449,2.146440506,-7.491393089,2024-06-05 16:41:19.952959
54.99349599,-4.879518032,2.806306839,-4.816585541,2024-06-05 16:41:19.993496
55.03392515,3.29537797,8.378253937,-7.792883396,2024-06-05 16:41:20.033925
55.07448692,3.662169695,9.80567646,-8.612355232,2024-06-05 16:41:20.074487
55.11492166,3.438457966,7.420622826,-3.49630928,2024-06-05 16:41:20.114922
55.1554088,-5.675223351,-15.48637867,17.80220604,2024-06-05 16:41:20.155409
55.1959463,-0.7663524151,-2.832853317,2.674083471,2024-06-05 16:41:20.195946
55.23639328,2.859056234,6.379559994,-3.516901731,2024-06-05 16:41:20.236393
55.27689968,3.044698,-16.38258743,8.107313156,2024-06-05 16:41:20.276900
55.31739224,6.345539093,6.590679169,-14.82093239,2024-06-05 16:41:20.317392
55.35789406,5.255460739,7.123876095,-4.725076675,2024-06-05 16:41:20.357894
55.39834198,3.358525991,-2.311692238,-4.140308857,2024-06-05 16:41:20.398342
55.43887265,-11.33399963,-8.959982872,-8.613986015,2024-06-05 16:41:20.438873
55.47934911,-4.517241955,1.668354988,10.54286766,2024-06-05 16:41:20.479349
55.51982692,3.253402948,1.740145683,-0.3860976696,2024-06-05 16:41:20.519827
55.56031599,4.229631424,2.132135391,6.109026909,2024-06-05 16:41:20.560316
55.60081724,-1.022129297,0.5387191772,2.51461792,2024-06-05 16:41:20.600817
55.6413329,-2.036235809,-1.448521614,3.338632107,2024-06-05 16:41:20.641333
55.68179149,-7.320502281,-3.899720192,4.729489326,2024-06-05 16:41:20.681791
55.72227659,-4.557757378,-3.629799843,4.037691593,2024-06-05 16:41:20.722277
55.76281113,-1.880063772,-4.766294479,6.258032799,2024-06-05 16:41:20.762811
55.8033081,-3.640540123,-4.116690636,5.631519318,2024-06-05 16:41:20.803308
55.84378139,1.97274971,-5.547575951,-3.658860445,2024-06-05 16:41:20.843781
55.88425795,8.931064606,-7.995030403,-8.788367271,2024-06-05 16:41:20.884258
55.92475118,3.843251228,0.3510913849,5.147757053,2024-06-05 16:41:20.924751
55.96522842,-3.287988663,1.630012989,-10.68226147,2024-06-05 16:41:20.965228
56.00572446,-4.393511772,3.781029224,-3.990927935,2024-06-05 16:41:21.005724
56.04622566,2.211780787,7.551258564,-7.40431118,2024-06-05 16:41:21.046226
56.08670659,5.14723587,9.60568428,-7.289755821,2024-06-05 16:41:21.086707
56.12722253,4.753946304,6.068916321,-1.257651567,2024-06-05 16:41:21.127223
56.1677168,-4.026900768,-15.76379013,17.15948296,2024-06-05 16:41:21.167717
56.20817409,-2.719158411,-2.198185921,1.153902531,2024-06-05 16:41:21.208174
56.2486992,6.99271965,-8.604157448,1.478505611,2024-06-05 16:41:21.248699
56.28918821,0.3881462514,-0.411854744,-7.544306755,2024-06-05 16:41:21.289188
56.32965404,11.3797617,12.65299797,-8.728595734,2024-06-05 16:41:21.329654
56.37015779,7.91262722,-0.3394632339,-3.584630489,2024-06-05 16:41:21.370158
56.41064701,-2.936967611,-11.50111485,-11.22156715,2024-06-05 16:41:21.410647
56.45113133,-9.545342445,-3.666296005,8.993122101,2024-06-05 16:41:21.451131
56.49163331,-3.047790766,1.910324097,-0.4817163944,2024-06-05 16:41:21.491633
56.53212222,2.436553717,1.562911034,2.293896198,2024-06-05 16:41:21.532122
56.57263133,3.584803581,4.135771751,3.758348465,2024-06-05 16:41:21.572631
56.61309597,0.5948235989,-0.0523891449,0.5568629503,2024-06-05 16:41:21.613096
56.65358086,-4.470714092,-1.493681908,8.494210243,2024-06-05 16:41:21.653581
56.69409128,-8.200976372,-3.924305916,1.360756636,2024-06-05 16:41:21.694091
56.73457779,-3.338191509,-3.657945633,6.120834827,2024-06-05 16:41:21.734578
56.77503378,-4.79679966,-5.516181946,5.965564251,2024-06-05 16:41:21.775034
56.8155167,-2.146011829,-3.153118134,3.726197481,2024-06-05 16:41:21.815517
56.85602409,4.611613274,-6.418394089,-4.231298447,2024-06-05 16:41:21.856024
56.89653331,8.701275826,-6.829687119,-2.410984039,2024-06-05 16:41:21.896533
56.93703503,3.876580477,0.4052991867,-0.698633194,2024-06-05 16:41:21.937035
56.97751946,-6.954543591,0.09798622131,-9.844587326,2024-06-05 16:41:21.977519
57.01798014,-3.679755449,3.698723316,-3.698642969,2024-06-05 16:41:22.017980
57.05845118,2.126060486,8.017537117,-8.567911148,2024-06-05 16:41:22.058451
57.09894644,4.928207874,10.67363167,-7.637693405,2024-06-05 16:41:22.098946
57.13947847,3.473442078,4.832558632,-0.029722929,2024-06-05 16:41:22.139478
57.1799767,-3.287073612,-19.98934937,19.30221558,2024-06-05 16:41:22.179977
57.22045112,0.3930931687,2.997254372,-1.975549817,2024-06-05 16:41:22.220451
57.26095664,6.80116272,0.3819417953,-4.068737984,2024-06-05 16:41:22.260957
57.30146394,1.773445368,-12.88986015,1.485763311,2024-06-05 16:41:22.301464
57.34197138,8.994631767,12.0862112,-11.95479488,2024-06-05 16:41:22.341971
57.38242904,6.80474472,3.492096901,-2.668910503,2024-06-05 16:41:22.382429
57.42292071,1.316510558,-8.299363136,-8.288953781,2024-06-05 16:41:22.422921
57.46340383,-11.47391605,-5.945280075,-0.0803629756,2024-06-05 16:41:22.463404
57.50389185,-6.057514191,2.535108566,5.46501255,2024-06-05 16:41:22.503892
57.5443855,3.668789387,0.8694877625,2.204227924,2024-06-05 16:41:22.544385
57.58487185,3.031491518,2.533127308,4.961312771,2024-06-05 16:41:22.584872
57.62536566,-0.9667938948,-0.200097084,1.103734612,2024-06-05 16:41:22.625366
57.66586816,-4.673646927,-1.930503845,6.704007149,2024-06-05 16:41:22.665868
57.70637055,-8.035909653,-3.307959557,1.264082432,2024-06-05 16:41:22.706371
57.74684435,-1.911483288,-2.837414742,6.030649662,2024-06-05 16:41:22.746844
57.78734503,-4.34951067,-4.971441269,7.381208897,2024-06-05 16:41:22.787345
57.82788654,-3.467844486,-2.58996582,1.056019306,2024-06-05 16:41:22.827887
57.868403,5.179090023,-6.87992382,-3.704247952,2024-06-05 16:41:22.868403
57.90881503,9.590581894,-6.891856194,-0.02546525002,2024-06-05 16:41:22.908815
57.94933826,4.576665878,1.971257687,-1.765867233,2024-06-05 16:41:22.949338
57.98982409,-5.758222103,1.835214138,-7.821833134,2024-06-05 16:41:22.989824
58.03027722,-4.742646217,2.662410259,-4.299574852,2024-06-05 16:41:23.030277
58.07076977,2.101993084,5.859973431,-8.054546356,2024-06-05 16:41:23.070770
58.11127706,5.265696526,9.252099991,-8.133888245,2024-06-05 16:41:23.111277
58.15175659,3.501629114,5.751814842,0.461785078,2024-06-05 16:41:23.151757
58.1922504,-3.94135952,-17.03239822,19.20644569,2024-06-05 16:41:23.192250
58.23272498,-0.02609042823,0.7281351089,-1.449121475,2024-06-05 16:41:23.232725
58.27324514,5.204225063,6.59791708,-4.863315582,2024-06-05 16:41:23.273245
58.31369274,4.695701599,-17.18749237,5.840459824,2024-06-05 16:41:23.313693
58.35419139,7.45042038,7.5053792,-13.94030952,2024-06-05 16:41:23.354191
58.39472253,6.171882153,5.746124744,-4.240349293,2024-06-05 16:41:23.394723
58.43519602,3.769433975,-5.653230667,-5.412493706,2024-06-05 16:41:23.435196
58.47568175,-9.171169281,-6.297842026,-5.42120266,2024-06-05 16:41:23.475682
58.51616836,-5.142960072,2.264689445,8.812606812,2024-06-05 16:41:23.516168
58.55667737,2.871706247,2.016123295,0.4033558369,2024-06-05 16:41:23.556677
58.59716118,1.79375124,2.994039059,4.335509777,2024-06-05 16:41:23.597161
58.63765665,-1.43185854,-0.4144935608,-0.2424035072,2024-06-05 16:41:23.637657
58.67814685,-3.204857588,-1.88561058,8.32790184,2024-06-05 16:41:23.678147
58.71863816,-8.587110519,-3.393316269,-0.209155798,2024-06-05 16:41:23.718638
58.75912946,-4.306279182,-3.53549099,6.212294579,2024-06-05 16:41:23.759129
58.79962472,-2.669414997,-5.839435577,6.603122234,2024-06-05 16:41:23.799625
58.84010758,-3.64195776,-2.75932312,4.110929489,2024-06-05 16:41:23.840108
58.88062123,3.574854136,-5.616827965,-3.334191084,2024-06-05 16:41:23.880621
58.92111659,8.595955849,-7.242611885,-0.887925446,2024-06-05 16:41:23.921117
58.96162191,5.170441151,0.9497032166,-1.812506914,2024-06-05 16:41:23.961622
59.00207691,-3.496158838,0.9510250092,-5.952635765,2024-06-05 16:41:24.002077
59.04255196,-5.211634159,2.238292694,-5.825895309,2024-06-05 16:41:24.042552
59.08307368,1.413702607,6.061982155,-7.516501427,2024-06-05 16:41:24.083074
59.12356388,4.631319046,8.61920929,-8.983395576,2024-06-05 16:41:24.123564
59.16403618,4.016140938,5.903514862,-2.125047445,2024-06-05 16:41:24.164036
59.20454842,-1.504945993,-9.97648716,15.94247341,2024-06-05 16:41:24.204548
59.24502602,-3.581499338,-6.73233223,3.125034094,2024-06-05 16:41:24.245026
59.28552868,3.134802103,6.941091061,-2.358491898,2024-06-05 16:41:24.285529
59.32600243,4.610332489,-15.24551487,5.985293865,2024-06-05 16:41:24.326002
59.36648956,5.358726501,6.303367615,-14.81562042,2024-06-05 16:41:24.366490
59.40700399,6.08170557,7.200780869,-5.330790997,2024-06-05 16:41:24.407004
59.4475017,4.213040352,-2.672577858,-3.780562878,2024-06-05 16:41:24.447502
59.48799274,-8.83053875,-9.14995575,-7.840539455,2024-06-05 16:41:24.487993
59.5284418,-5.59412384,1.044688225,10.17357254,2024-06-05 16:41:24.528442
59.56894982,2.562002182,2.057452202,-0.6583454609,2024-06-05 16:41:24.568950
59.6094242,2.749605656,1.961702824,4.691812515,2024-06-05 16:41:24.609424
59.64992076,0.3608738184,3.063279152,-1.728332877,2024-06-05 16:41:24.649921
59.69040842,-0.1876620054,-1.368204117,6.658824921,2024-06-05 16:41:24.690408
59.73092597,-5.681920528,-2.734329224,3.795830488,2024-06-05 16:41:24.730926
59.77140368,-8.307565689,-3.303839684,2.617016554,2024-06-05 16:41:24.771404
59.81190279,-3.994762897,-5.215542793,6.106493473,2024-06-05 16:41:24.811903
59.85238441,-4.67727375,-4.669136047,6.663342953,2024-06-05 16:41:24.852384
59.8928617,1.782322884,-3.903407097,-1.768147945,2024-06-05 16:41:24.892862
59.9333593,8.137904167,-7.32952404,-3.016542673,2024-06-05 16:41:24.933359
59.97386748,8.680766106,-2.642558098,-0.02866911888,2024-06-05 16:41:24.973867
60.01434935,-0.1676411927,1.721801281,-5.052362919,2024-06-05 16:41:25.014349
60.05481514,-8.232460976,0.3736400604,-5.470405579,2024-06-05 16:41:25.054815
60.09532206,-0.2778388262,5.048093796,-7.052557945,2024-06-05 16:41:25.095322
60.1358193,4.131458759,7.843183517,-8.415426254,2024-06-05 16:41:25.135819
60.1763181,5.367763042,8.078336716,-4.497867107,2024-06-05 16:41:25.176318
60.21682545,2.497268915,-1.474535942,6.353473663,2024-06-05 16:41:25.216825
60.25728654,-5.363796711,-14.86791229,14.57111835,2024-06-05 16:41:25.257287
60.29778638,2.215658665,5.806220055,-1.606415153,2024-06-05 16:41:25.297786
60.33828274,7.320063591,-9.585894585,2.810169697,2024-06-05 16:41:25.338283
60.37880003,4.685251236,3.577074528,-12.63558102,2024-06-05 16:41:25.378800
60.41928482,6.874474049,6.006466389,-6.42259264,2024-06-05 16:41:25.419285
60.45977446,4.121232986,-2.977581978,-4.560632706,2024-06-05 16:41:25.459774
60.50026305,-8.967199326,-8.676093102,-8.284285545,2024-06-05 16:41:25.500263
60.54075336,-5.228656292,0.8560647964,10.87125492,2024-06-05 16:41:25.540753
60.58123394,2.240144253,2.449616432,-3.109302521,2024-06-05 16:41:25.581234
60.62172857,2.370167017,1.323597908,4.035969734,2024-06-05 16:41:25.621729
60.66220894,0.7567492723,2.779558182,2.052938938,2024-06-05 16:41:25.662209
60.70268878,-2.014826059,-1.967291832,3.758161783,2024-06-05 16:41:25.702689
60.74320368,-5.918495178,-2.757206917,6.916208744,2024-06-05 16:41:25.743204
60.78368441,-8.893889427,-3.877567291,0.08605360985,2024-06-05 16:41:25.783684
60.8241781,0.6493821144,-3.673598289,9.385151863,2024-06-05 16:41:25.824178
60.86466086,-4.035634041,-3.975803375,6.898636818,2024-06-05 16:41:25.864661
60.90514092,-2.776040554,-3.237514496,-2.873679876,2024-06-05 16:41:25.905141
60.94562774,7.339577198,-7.351127625,-4.384960175,2024-06-05 16:41:25.945628
60.98612524,7.488883972,-4.54149437,1.862596512,2024-06-05 16:41:25.986125
61.02662019,1.561589003,2.09703207,-5.520617485,2024-06-05 16:41:26.026620
61.06710816,-6.543333054,1.342262268,-5.85830307,2024-06-05 16:41:26.067108
61.10759519,-1.506839037,3.757894039,-5.876272202,2024-06-05 16:41:26.107595
61.1480793,3.912593603,7.35985136,-8.394273758,2024-06-05 16:41:26.148079
61.18857659,5.389790535,8.278209686,-5.705802441,2024-06-05 16:41:26.188577
61.22909206,2.206975222,-1.05092907,6.185248375,2024-06-05 16:41:26.229092
61.26958685,-5.369849682,-14.23809433,13.70895958,2024-06-05 16:41:26.269587
61.31007597,1.274885058,5.74245739,-1.758109331,2024-06-05 16:41:26.310076
61.35055102,8.917941093,-5.908500671,-1.161014318,2024-06-05 16:41:26.350551
61.39103727,2.343706846,-3.386749268,-5.343261719,2024-06-05 16:41:26.391037
61.4315293,6.338910103,7.746665955,-7.636660576,2024-06-05 16:41:26.431529
61.47202258,4.243327618,1.760817528,-3.639602184,2024-06-05 16:41:26.472023
61.51251435,-7.775924206,-9.842036247,-10.14836121,2024-06-05 16:41:26.512514
61.55301743,-7.512192249,-0.006066322327,11.20059204,2024-06-05 16:41:26.553017
61.59349264,1.959840178,2.321629047,-2.982564449,2024-06-05 16:41:26.593493
61.63398086,4.468873978,1.185070038,4.877133846,2024-06-05 16:41:26.633981
61.67446305,0.3258568048,2.160558701,3.685898304,2024-06-05 16:41:26.674463
61.7149954,-2.446421385,-1.277906418,0.6112531424,2024-06-05 16:41:26.714995
61.75548399,-3.138550758,-1.841418266,6.049131393,2024-06-05 16:41:26.755484
61.79596659,-8.076260567,-3.041304588,1.048250794,2024-06-05 16:41:26.795967
61.83644644,-2.410794258,-3.519104004,6.07513237,2024-06-05 16:41:26.836446
61.87694253,-4.645867348,-5.443292618,6.600405693,2024-06-05 16:41:26.876943
61.9174193,-1.397637486,-2.615495682,2.738436222,2024-06-05 16:41:26.917419
61.95792357,4.720488071,-6.029876709,-3.349600792,2024-06-05 16:41:26.957924
61.99843836,9.790719032,-5.885164261,-1.052155256,2024-06-05 16:41:26.998438
62.03893534,4.455140591,1.537592888,-1.12702775,2024-06-05 16:41:27.038935
62.07940055,-6.271416187,0.5088443756,-10.55416298,2024-06-05 16:41:27.079401
62.1198855,-3.560539484,2.404761314,-2.601575136,2024-06-05 16:41:27.119886
62.16037519,2.241914511,5.839619637,-8.044615746,2024-06-05 16:41:27.160375
62.20088883,5.166688919,8.533205032,-7.506912231,2024-06-05 16:41:27.200889
62.24137133,2.836284399,4.574086189,0.418204546,2024-06-05 16:41:27.241371
62.2818618,-3.26415062,-15.1352911,18.24114037,2024-06-05 16:41:27.281862
62.32234909,-0.8927631378,0.7460575104,-0.6463201046,2024-06-05 16:41:27.322349
62.36283727,6.09461832,5.185130119,-5.387447357,2024-06-05 16:41:27.362837
62.40332784,3.245571375,-12.75803947,4.835508347,2024-06-05 16:41:27.403328
62.44381571,7.267979622,6.745746613,-12.69822407,2024-06-05 16:41:27.443816
62.48434894,4.694665909,4.81343317,-4.780076981,2024-06-05 16:41:27.484349
62.52484441,-0.2622455359,-6.986060143,-7.326339722,2024-06-05 16:41:27.524844
