"Time (s)","Gyroscope x (rad/s)","Gyroscope y (rad/s)","Gyroscope z (rad/s)"
4.102803000E-2,-2.866808474E-1,1.593854874E-1,4.274247587E-2
8.151360300E-2,-1.982664913E-1,7.523208112E-2,2.942706272E-2
1.219991750E-1,-2.616478503E-1,3.062545061E-1,-3.062544856E-3
1.624846960E-1,1.318225823E-2,2.418078929E-1,-2.203700840E-1
2.380447480E-1,3.049229458E-2,5.142412186E-1,-3.978645205E-1
2.784932900E-1,-6.644391268E-2,6.495258212E-1,-2.683055699E-1
3.189794880E-1,-2.579195499E-1,9.101084471E-1,7.949301600E-2
3.594867280E-1,-3.455349505E-1,2.132197142E0,3.173062801E-1
3.999722480E-1,-3.513937294E-1,1.679606199E0,3.375457227E-1
4.404793840E-1,-7.214290500E-1,-6.540530920E-1,-3.243634701E-1
4.809391230E-1,-1.116497397E0,-2.496639937E-1,-5.816172361E-1
5.214246960E-1,-5.193010904E-3,-1.588528752E-1,-5.632419512E-2
5.619194360E-1,3.288906813E-1,3.222329915E-1,5.629756451E-1
6.024659460E-1,8.881380409E-2,3.901416063E-1,2.579195499E-1
6.429260500E-1,1.874810159E-1,-3.386109471E-1,-1.463363916E-1
6.834287070E-1,3.672390878E-1,-7.211627364E-1,1.191729456E-1
7.238592800E-1,2.215684652E-1,-1.916087866E-1,2.139786780E-1
7.643446440E-1,6.937330216E-2,1.106510833E-1,1.511299312E-1
8.048780820E-1,1.250317246E-1,1.221023351E-1,3.944025338E-1
8.452925610E-1,2.143781446E-2,1.756303012E-1,3.778914213E-1
8.857957900E-1,-1.599181145E-1,4.833494872E-2,2.824199200E-1
9.262748530E-1,-2.496639937E-1,8.801487833E-2,2.075872868E-1
9.668124050E-1,-1.511299312E-1,2.244978547E-1,1.870815456E-1
1.007249540E0,-1.850842312E-2,4.726971686E-2,1.484668553E-1
1.047792300E0,-6.857437640E-2,2.099840641E-1,2.009295821E-1
1.088279957E0,-3.953346014E-1,5.461982489E-1,3.411408663E-1
1.128762092E0,-4.742949903E-1,7.893376946E-1,2.440715134E-1
1.169252040E0,-1.031944528E-1,8.117075562E-1,3.422061205E-1
1.209752405E0,-3.718994856E-1,8.619066477E-1,6.908035874E-1
1.250199540E0,-1.611164957E-2,1.076817393E0,7.259563208E-1
1.290676728E0,6.535204649E-1,9.098421335E-1,5.645735264E-1
1.331144748E0,1.095991611E0,3.097164929E-1,5.904054046E-1
1.371642665E0,1.031811357E0,1.002650559E-1,3.643096983E-1
1.412109280E0,2.913412452E-1,-4.665720761E-1,1.886793971E-1
1.452582040E0,-5.563179255E-1,-9.187635034E-3,2.569874749E-2
1.493111259E0,-2.078536004E-1,5.416709781E-1,-2.078536004E-1
1.533640321E0,4.013265371E-1,4.276910722E-1,1.451379992E-2
1.574124748E0,5.786878467E-1,4.007939249E-2,6.271559745E-2
1.614600998E0,7.842778414E-2,3.749620318E-1,1.744319126E-2
1.655083082E0,-2.288919389E-1,9.686962962E-1,6.524552125E-3
1.695565478E0,1.768286824E-1,4.101147056E-1,-1.090532318E-1
1.736046936E0,6.892057657E-1,-8.939968348E-1,3.661738634E-1
1.776530009E0,2.918738425E-1,-2.842840552E-1,5.126433820E-2
1.817024800E0,9.014534205E-2,-4.146419466E-1,4.519250989E-1
1.857510217E0,3.384777904E-1,-5.933347940E-1,8.734911084E-1
1.897996728E0,1.520620137E-1,-4.548544884E-1,8.191642165E-1
1.938483186E0,-1.424749196E-2,-6.338136196E-1,7.885387540E-1
1.978963394E0,-2.701697350E-1,-6.479279995E-1,5.145075321E-1
2.019438342E0,-2.765611112E-1,-7.062494755E-1,5.805519819E-1
2.059922353E0,-2.637783289E-1,-8.239577413E-1,4.069190025E-1
2.100390009E0,-8.508548886E-2,-9.800143838E-1,2.765611112E-1
2.140851675E0,-3.688369319E-2,-7.888050675E-1,-1.183740199E-1
2.181356467E0,-9.467258304E-2,-6.916025281E-1,-2.708354890E-1
2.221875894E0,-1.234338731E-1,-6.351451874E-1,-1.420754492E-1
2.262361467E0,-1.149120107E-1,1.371487509E-2,-1.197055578E-1
2.302859436E0,2.532591522E-1,2.436720580E-2,-3.475322574E-2
2.343333186E0,8.109086752E-2,-2.185059190E-1,-6.058513001E-2
2.383823238E0,-1.424749196E-2,-1.436733007E-1,-6.191666797E-2
2.424312925E0,-1.375482082E-1,-2.187722325E-1,1.990654171E-1
2.464777873E0,-4.419385493E-1,-2.435389012E-1,1.801575422E-1
2.505277925E0,-2.571206093E-1,-5.773562789E-1,3.002625704E-1
2.545772873E0,2.079867423E-1,-6.726946831E-1,2.914743721E-1
2.586257613E0,2.503297627E-1,-1.687062830E-1,2.037258074E-2
2.626742717E0,2.926727831E-1,5.174369216E-1,1.769618392E-1
2.667214280E0,1.095858440E-1,7.531197667E-1,1.340862066E-1
2.707693238E0,-1.673747450E-1,8.864070177E-1,7.230269164E-2
2.748182717E0,-3.178389072E-1,1.333538532E0,-1.953371018E-1
2.788684175E0,-7.528534532E-1,8.890700936E-1,-2.022611201E-1
2.829173498E0,-8.188979030E-1,1.663095057E-1,3.382114768E-1
2.869659696E0,-7.517881989E-1,1.966952801E0,-8.077129126E-1
2.910131519E0,-1.285603046E0,3.158416033E0,-2.061492205E0
2.950609905E0,-1.221689105E0,3.610474110E0,-2.294911385E0
2.991084384E0,-9.754871130E-1,2.788779974E0,-2.026339531E0
3.031586675E0,-7.981258631E-1,2.047511101E0,-1.606105089E0
3.072060165E0,-5.123770833E-1,1.890256047E0,-1.698780417E0
3.112520894E0,-9.959928989E-1,6.287537813E-1,-1.555506468E0
3.153067300E0,-1.699046731E0,8.395367861E-1,-1.462165475E0
3.193553030E0,-1.261635303E0,6.183677912E-1,-1.270689845E0
3.233994280E0,-1.312766552E0,4.985290468E-1,-6.790860295E-1
3.274526155E0,-6.564498693E-2,1.731802583E0,-1.475480914E0
3.315011050E0,-6.351451576E-2,1.694253087E0,-1.778939128E0
3.355496936E0,-9.238233566E-1,1.025153637E0,-1.145258665E0
3.395979019E0,-1.848445654E0,2.998631001E-1,-3.123795986E-1
3.436466363E0,-1.405974388E0,9.404675961E-1,-2.884118557E-1
3.476951415E0,-1.209172606E0,1.066165090E0,2.358159572E-1
3.517434280E0,-7.749570012E-1,2.644441128E-1,8.500559330E-1
3.557921780E0,5.557853580E-1,6.987928748E-1,6.647053957E-1
3.598409071E0,1.930734813E-1,6.902710199E-1,2.821536064E-1
3.638894436E0,3.904078901E-1,3.209014535E-1,3.159747422E-1
3.679359853E0,9.041165560E-2,1.439396143E-1,9.893351793E-2
3.719819488E0,-2.816209793E-1,3.083849549E-1,1.505973190E-1
3.760314905E0,-3.966661394E-1,-6.431344151E-1,2.099840641E-1
3.800800998E0,-1.170424819E-1,3.097164929E-1,-8.388710208E-3
3.841292509E0,-7.869409025E-2,1.074553803E-1,-1.886793971E-1
3.881817405E0,2.748301327E-1,4.394086078E-3,-4.434032440E-1
3.922303290E0,3.520595133E-1,-3.311543167E-1,-5.046541616E-2
3.962719280E0,2.037258074E-2,-7.331466079E-1,-2.889444493E-2
4.003280113E0,-1.362166703E-1,-3.508611321E-1,2.885449827E-1
4.043742925E0,-8.375394344E-2,2.567211688E-1,-1.824211515E-2
4.084238603E0,7.975932211E-2,5.664376616E-1,3.635107726E-2
4.124730686E0,1.733666807E-1,1.521951705E-1,9.334104508E-2
4.165181728E0,4.591154456E-1,-4.050548673E-1,-1.764292270E-1
4.205717665E0,9.372718930E-1,-1.012903452E0,-1.063502073E0
4.246165321E0,8.600425124E-1,3.107817471E-1,-2.342580557E0
4.286670165E0,3.989297748E-1,6.572487950E-1,-1.351647496E0
4.327155894E0,1.941387206E-1,-9.192960858E-1,-8.766867518E-1
4.367644384E0,2.258294076E-1,-1.109839678E0,-5.760247707E-1
4.408129123E0,-3.075860441E-2,-8.790835738E-1,2.198374718E-1
4.448542092E0,-1.945381761E-1,-7.528534532E-1,-3.137111366E-1
4.489102769E0,-2.664414048E-1,-7.573806643E-1,-7.930659652E-1
4.529589019E0,8.267539740E-1,-1.017696977E0,-1.522484303E0
4.570051884E0,5.850792527E-1,6.995918155E-1,-2.036725521E0
4.610540790E0,5.195674300E-1,6.825480461E-1,-8.780183196E-1
4.651024436E0,2.415415943E-1,3.627118468E-1,-5.656387210E-1
4.691481259E0,5.901390910E-1,4.037233293E-1,-4.697677493E-1
4.731966988E0,7.758890986E-1,3.872122169E-1,-6.625749469E-1
4.772452717E0,-2.912080884E-1,1.463363916E-1,-7.030537724E-1
4.812980842E0,-3.399424851E-1,1.116763711E0,-1.237001866E-1
4.853478967E0,-3.981308267E-2,1.091997027E0,-2.369477749E0
4.893958238E0,-7.736254483E-2,4.125114977E-1,-1.360435724E0
4.934439644E0,-3.822855055E-1,3.017272651E-1,-1.181742907E0
4.974930217E0,-9.406007528E-1,2.207029581E0,-9.175651073E-1
5.015423707E0,-9.698946476E-1,5.515244007E-1,-1.868685007E0
5.055906936E0,-9.810796380E-1,7.717612982E-1,-1.023289442E0
5.096394228E0,-4.022586346E-1,3.182383776E-1,3.213009238E-1
5.136878915E0,4.415390790E-1,2.121145278E-1,-2.296908647E-1
5.177375530E0,3.217003644E-1,1.742987484E-1,-3.033251166E-1
5.217859332E0,2.039921284E-1,7.962616682E-1,-1.809564531E-1
5.258328915E0,3.501953557E-2,1.175085187E0,-8.388710208E-3
5.298823134E0,2.050573528E-1,1.354576945E0,2.565880120E-1
5.339311363E0,3.081186414E-1,1.567224145E0,6.396724582E-1
5.379791311E0,3.454017937E-1,1.545386791E0,6.700315475E-1
5.420230842E0,5.014584661E-1,1.563762069E0,7.927996516E-1
5.460700373E0,4.109136462E-1,1.137802005E0,5.664376616E-1
5.501212353E0,3.475322723E-1,7.283530831E-1,6.226286888E-1
5.541699175E0,2.250304818E-1,2.460688353E-1,3.978645205E-1
5.582194123E0,6.457975507E-2,1.264964230E-2,2.525933683E-1
5.622713134E0,-4.940018058E-2,-1.319557428E-1,2.629793882E-1
5.663187978E0,-5.392742157E-2,-1.109173894E-1,1.681736708E-1
5.703668446E0,-8.348763734E-2,-2.147776037E-1,1.197055578E-1
5.744156675E0,-1.957365684E-2,-9.413997084E-2,-9.320789250E-4
5.784655217E0,9.187635034E-3,-6.191666797E-2,-3.315537795E-2
5.825098134E0,-2.995967865E-2,1.930734888E-2,-1.797580719E-2
5.865606363E0,-1.584534161E-2,-1.478010789E-2,-9.999874979E-2
5.906115894E0,1.744319126E-2,-3.635107726E-2,-1.207707971E-1
5.946601988E0,-5.206326395E-2,-4.700340703E-2,-3.874785081E-2
5.987079384E0,-1.997311832E-3,-4.141093418E-2,-1.343525201E-1
6.027549644E0,-2.170412242E-2,-1.657768935E-1,-1.500647068E-1
6.068035738E0,-6.724283099E-2,-2.014621943E-1,-8.774857223E-2
6.108521832E0,-9.600412846E-2,-2.272941023E-1,-1.782933772E-1
6.149007978E0,-8.588441461E-2,-7.177007198E-2,-1.703041345E-1
6.189544488E0,3.741630912E-2,-5.232957378E-2,-2.323539555E-1
6.229986832E0,1.029281393E-1,-7.070484012E-2,-5.925358832E-2
6.270471728E0,1.781602204E-1,1.051917579E-2,-9.280842543E-2
6.310938863E0,1.106510833E-1,2.097177505E-1,-1.215697154E-1
6.351464228E0,8.215609938E-2,1.953371018E-1,-3.448691964E-2
6.391923394E0,1.741656065E-1,-2.703028731E-2,-5.366111174E-2
6.432405634E0,4.860125855E-2,3.182383627E-2,1.211702544E-2
6.472911884E0,2.756290510E-2,2.995967865E-2,-5.073172227E-2
6.513417040E0,-3.595161485E-3,2.516612969E-2,-6.671021879E-2
6.553883446E0,-3.288906813E-2,-1.744319126E-2,-4.540555924E-2
6.594385686E0,3.328853287E-3,-4.061200842E-2,-1.504641678E-2
6.634873394E0,8.481918275E-2,4.274247587E-2,6.990591437E-2
6.675285842E0,3.475322574E-2,-2.969337068E-2,8.109086752E-2
6.715864384E0,-3.475322574E-2,-3.074528873E-1,1.252980381E-1
6.756350738E0,-4.966649041E-2,-3.860138059E-1,1.098521575E-1
6.796812092E0,-1.111836955E-1,-4.548544884E-1,5.179695413E-2
6.837298394E0,-1.697715074E-1,-3.274259865E-1,-6.431344151E-2
6.877784696E0,-2.198374718E-1,-1.175750941E-1,-2.844172120E-1
6.918271050E0,-2.310224175E-1,2.218347788E-1,-3.837502003E-1
6.958717405E0,-2.243647128E-1,2.099840641E-1,-2.211690098E-1
6.999243446E0,-1.463363916E-1,-6.244928762E-2,1.731003635E-3
7.039733342E0,8.388710208E-3,-2.214353085E-1,1.703041345E-1
7.080194592E0,1.109173894E-1,-3.143768907E-1,2.688381970E-1
7.120699228E0,1.343525201E-1,-3.497959077E-1,2.406095117E-1
7.161183655E0,1.472684592E-1,-3.729647100E-1,2.254299372E-1
7.201618603E0,1.018629074E-1,-2.720338702E-1,1.937392503E-1
7.242127248E0,-3.595161485E-3,-1.665758193E-1,2.185059190E-1
7.282613394E0,-2.197043039E-2,-1.165098622E-1,1.764292270E-1
7.323099540E0,-1.015966013E-1,8.934641629E-2,5.765573680E-2
7.363607665E0,-1.311568171E-1,1.431406885E-1,6.431344151E-2
7.404111832E0,-1.335535944E-1,8.402025700E-2,1.018629074E-1
7.444525530E0,-1.026618332E-1,6.271559745E-2,9.467258304E-2
7.485081050E0,-7.070484012E-2,6.111774594E-2,5.206326395E-2
7.525563290E0,-3.262276202E-2,9.147688746E-2,-3.555215150E-2
7.566050425E0,2.569874749E-2,9.147688746E-2,-3.794892505E-2
7.606536207E0,3.501953557E-2,7.922670245E-2,-2.197043039E-2
7.647024748E0,9.334104508E-2,3.022598661E-2,2.303566411E-2
7.687485165E0,1.512630880E-1,-3.075860441E-2,1.797580719E-2
7.727971623E0,1.359503716E-1,5.725627299E-3,-2.250304818E-2
7.768458134E0,9.280842543E-2,5.312849581E-2,-3.794892505E-2
7.808947300E0,6.857437640E-2,7.603100687E-2,-4.007939249E-2
7.849459800E0,5.419373140E-2,6.644391268E-2,-2.463351376E-2
7.889946259E0,1.185071748E-2,5.991935730E-3,2.143781446E-2
7.930413811E0,-2.010627277E-2,-6.404713541E-2,5.019910634E-2
7.970900269E0,-4.127778113E-3,-1.213034093E-1,9.200949967E-2
8.011354175E0,-1.691057347E-2,-1.596518010E-1,9.840089828E-2
8.051840686E0,3.608476743E-2,-1.942718774E-1,6.005251035E-2
8.092327144E0,3.928046674E-2,-1.932066381E-1,4.567186534E-2
8.132805321E0,-4.926702939E-3,-1.343525201E-1,3.981308267E-2
8.173347561E0,-4.753602296E-2,-7.390054315E-2,2.170412242E-2
8.213833134E0,-8.508548886E-2,-3.994623839E-4,3.049229458E-2
8.254318707E0,-1.458037645E-1,4.647079110E-2,3.861469682E-3
8.294804280E0,-1.957365684E-2,-7.603100687E-2,-8.921326138E-3
8.335289853E0,-4.127778113E-3,-1.716356725E-1,6.218297780E-2
8.375761259E0,-3.209014609E-2,-1.692388952E-1,1.308905035E-1
8.416228967E0,-7.150376588E-2,-1.415428370E-1,8.268871158E-2
8.456671571E0,-1.338198930E-1,-9.760197252E-2,9.493889660E-2
8.497235582E0,-1.758965999E-1,-1.133141592E-1,1.292926520E-1
8.537721780E0,-1.921414137E-1,-1.287600398E-1,1.633801162E-1
8.578209332E0,-2.118482143E-1,-1.559234858E-1,1.553908736E-1
8.618693603E0,-2.462019771E-1,-1.639127284E-1,1.599181145E-1
8.659183030E0,-3.045234978E-1,-1.316894293E-1,1.556571722E-1
8.699642196E0,-3.628450036E-1,-1.268958896E-1,1.772281379E-1
8.740132457E0,-3.665733039E-1,-1.612496525E-1,1.926740259E-1
8.780618707E0,-3.396761715E-1,-2.419410497E-1,2.121145278E-1
8.821092665E0,-2.746969759E-1,-2.680392563E-1,2.264951766E-1
8.861584384E0,-2.067883611E-1,-2.270277888E-1,2.113156021E-1
8.902015113E0,-2.065220475E-1,-1.884130985E-1,1.966686398E-1
8.942545009E0,-2.054568231E-1,-7.017222792E-2,1.450048387E-1
8.983065061E0,-1.529940963E-1,-5.818835273E-2,1.002650559E-1
9.023491311E0,-5.659050494E-2,-1.146457046E-1,8.987903595E-2
9.064041311E0,1.464695437E-3,-1.466026902E-1,9.360735118E-2
9.104460686E0,9.187635034E-3,-1.463363916E-1,1.005313694E-1
9.145017717E0,-3.182383627E-2,-1.423417628E-1,8.588441461E-2
9.185498759E0,-7.363422960E-2,-1.476679295E-1,9.014534205E-2
9.225977300E0,-1.013302878E-1,-1.175750941E-1,7.629731297E-2
9.266463655E0,-1.103847697E-1,-7.283531129E-2,5.978620425E-2
9.306950061E0,-9.387365729E-2,-3.262276202E-2,4.407401755E-2
9.347436415E0,-5.286218971E-2,5.991935730E-3,1.770949923E-2
9.387922821E0,-2.436720580E-2,5.312849581E-2,-7.589785382E-3
9.428357092E0,2.090519853E-2,6.857437640E-2,-3.528584540E-2
9.468895269E0,6.138405204E-2,6.165036187E-2,-4.620448127E-2
9.509381675E0,8.082455397E-2,4.034570232E-2,-5.685681105E-2
9.549868342E0,8.428656310E-2,2.223674022E-2,-6.138405204E-2
9.590342925E0,7.469946891E-2,2.063889056E-2,-5.339480564E-2
9.630809175E0,6.750914454E-2,1.557903271E-2,-4.753602296E-2
9.671299957E0,6.378082931E-2,1.797580719E-2,-4.460663348E-2
9.711786311E0,5.765573680E-2,2.995967865E-2,-4.434032366E-2
9.752229592E0,5.046541616E-2,4.434032366E-2,-4.434032366E-2
9.792769800E0,4.673709720E-2,4.647079110E-2,-4.087831825E-2
9.833271155E0,4.407401755E-2,4.061200842E-2,-3.768261895E-2
9.873759436E0,3.608476743E-2,3.022598661E-2,-3.235645220E-2
9.914212509E0,2.596505545E-2,2.250304818E-2,-2.596505545E-2
9.954691884E0,1.797580719E-2,1.504641678E-2,-1.930734888E-2
9.995179228E0,1.131810062E-2,1.238333434E-2,-1.478010789E-2
1.003571251E1,3.062544856E-3,1.158440951E-2,-1.078548469E-2
1.007620001E1,-2.263620263E-3,1.078548469E-2,-9.187635034E-3
1.011668657E1,3.994623839E-4,1.557903271E-2,-3.994623839E-4
1.015717360E1,2.836182900E-2,2.756290510E-2,4.380770773E-2
1.019765709E1,4.620448127E-2,3.075860441E-2,3.395430371E-2
1.023809162E1,4.593817517E-2,2.543243766E-2,1.238333434E-2
1.027862121E1,5.339480564E-2,5.126433820E-2,1.198387123E-3
1.031911735E1,6.564498693E-2,8.322133124E-2,6.524552125E-3
1.035960491E1,6.804175675E-2,9.174319357E-2,-7.057168987E-3
1.040007662E1,7.896039635E-2,1.340862066E-1,-1.664426550E-2
1.044054954E1,9.200949967E-2,2.399437428E-1,-2.303566411E-2
1.048103058E1,7.576470077E-2,3.310211599E-1,-2.436720580E-2
1.052151938E1,1.501978636E-1,4.085168540E-1,-5.818835273E-2
1.056203063E1,2.481992990E-1,4.516588151E-1,-1.002650559E-1
1.060251209E1,2.961347699E-1,3.994623721E-1,-4.061200842E-2
1.064298834E1,3.406082690E-1,3.294233084E-1,-5.153064802E-2
1.068348011E1,3.858806491E-1,2.276935577E-1,-7.416684926E-2
1.072393683E1,4.138430357E-1,1.210371032E-1,-6.298190355E-2
1.076441912E1,4.332835376E-1,1.482005417E-1,-6.351451576E-2
1.080490475E1,4.415390790E-1,1.836195439E-1,-4.886756465E-2
1.084540621E1,4.884093404E-1,1.484668553E-1,-3.595161485E-3
1.088591866E1,5.102466345E-1,1.042596847E-1,7.856093347E-3
1.092639725E1,4.450010955E-1,1.103847697E-1,-5.872096866E-2
1.096688975E1,3.062545061E-1,1.106510833E-1,-1.378145218E-1
1.100738392E1,1.667089611E-1,8.535179496E-2,-1.772281379E-1
1.104787256E1,1.565892547E-1,-7.057168987E-3,-2.065220475E-1
1.108836261E1,1.372819096E-1,-7.896039635E-2,-2.485987544E-1
1.112884850E1,1.370155960E-1,-1.221023351E-1,-2.693707943E-1
1.116933121E1,1.589860320E-1,-1.782933772E-1,-3.017272651E-1
1.120980725E1,1.619154215E-1,-1.516625583E-1,-2.645772398E-1
1.125028292E1,9.986559860E-3,-3.635107726E-2,-1.822880059E-1
1.129076673E1,-1.226349548E-1,-6.537867337E-2,-6.750914454E-2
1.133122996E1,-1.940055639E-1,-2.499302924E-1,3.994623839E-4
1.137177272E1,-2.893439233E-1,-3.756277859E-1,1.340862066E-1
1.141224709E1,-4.230306745E-1,-5.161054134E-1,2.555227578E-1
1.145271074E1,-4.501941204E-1,-4.921376705E-1,3.130453527E-1
1.149319475E1,-4.155740440E-1,-4.010602236E-1,3.087844253E-1
1.153370126E1,-4.230306745E-1,-3.284912407E-1,3.306216896E-1
1.157419855E1,-4.557865858E-1,-2.760285139E-1,3.130453527E-1
1.161465100E1,-5.067846179E-1,-3.117138147E-1,3.295564651E-1
1.165512058E1,-5.334154367E-1,-2.640446424E-1,3.414071798E-1
1.169567084E1,-5.232957006E-1,-1.841521561E-1,3.300890923E-1
1.173613011E1,-4.673709869E-1,-1.580539495E-1,3.183715343E-1
1.177662569E1,-3.950682878E-1,-1.721682847E-1,2.898765504E-1
1.181711501E1,-3.226324618E-1,-2.115819156E-1,2.547238469E-1
1.185759740E1,-2.275604010E-1,-2.075872868E-1,1.761629134E-1
1.189804938E1,-1.343525201E-1,-2.254299372E-1,1.322220564E-1
1.193850642E1,-8.109086752E-2,-2.286256403E-1,8.268871158E-2
1.197906116E1,-5.179695413E-2,-1.892120093E-1,4.513924941E-2
1.201951079E1,-1.584534161E-2,-1.516625583E-1,4.407401755E-2
1.206000720E1,4.007939249E-2,-1.266295761E-1,3.954677656E-2
1.210050418E1,8.774857223E-2,-9.094426781E-2,1.717688330E-2
1.214096162E1,1.146457046E-1,-2.037258074E-2,1.850842312E-2
1.218145376E1,1.378145218E-1,3.235645220E-2,5.392742157E-2
1.222195678E1,9.520520270E-2,1.018629074E-1,7.603100687E-2
1.226244011E1,1.002650559E-1,1.649779677E-1,4.487293959E-2
1.230293574E1,1.167761683E-1,2.354165018E-1,4.940018058E-2
1.234342808E1,9.121058136E-2,2.703028917E-1,1.398118306E-2
1.238385522E1,1.061238423E-1,2.386122048E-1,-2.756290510E-2
1.242434147E1,1.399449855E-1,2.067883611E-1,-6.085143611E-2
1.246483006E1,1.866820902E-1,1.527277827E-1,-1.303578913E-1
1.250531626E1,2.346175760E-1,1.127815470E-1,-1.876141727E-1
1.254585490E1,2.609820962E-1,1.050586104E-1,-2.129134536E-1
1.258631803E1,2.724333405E-1,1.125152409E-1,-2.174406946E-1
1.262683798E1,2.737648785E-1,1.173087880E-1,-2.248973250E-1
1.266725829E1,2.750964165E-1,1.013302878E-1,-2.411421239E-1
1.270784954E1,2.484655976E-1,5.099803209E-2,-2.643109560E-1
1.274828923E1,2.045247406E-1,1.997311832E-3,-2.998631001E-1
1.278874918E1,1.728340536E-1,1.957365684E-2,-2.948032320E-1
1.282926688E1,1.600512564E-1,9.786828607E-2,-2.267614752E-1
1.286975756E1,1.707035899E-1,1.426080763E-1,-1.545919478E-1
1.291023438E1,1.882799417E-1,1.375482082E-1,-1.138467789E-1
1.295065678E1,1.818885356E-1,1.031944528E-1,-1.191729456E-1
1.299117829E1,1.478010863E-1,9.866721183E-2,-1.551245600E-1
1.303165558E1,1.159772426E-1,9.760197252E-2,-1.657768935E-1
1.307214397E1,8.854749799E-2,9.254211932E-2,-1.434070021E-1
1.311265303E1,7.576470077E-2,7.230269164E-2,-9.493889660E-2
1.315315022E1,7.310161740E-2,4.247616604E-2,-4.726971686E-2
1.319364813E1,4.913387448E-2,-3.062544856E-3,-2.037258074E-2
1.323413438E1,2.596505545E-2,-7.589785382E-3,-6.524552125E-3
1.327459782E1,-1.731003635E-3,-2.330197208E-2,1.331541280E-4
1.331506147E1,-1.584534161E-2,-3.075860441E-2,1.291595027E-2
1.335556032E1,-3.129122034E-2,-3.075860441E-2,3.022598661E-2
1.339606892E1,-3.608476743E-2,-3.475322574E-2,2.969337068E-2
1.343656449E1,-3.395430371E-2,-4.300878197E-2,1.850842312E-2
1.347700569E1,-4.061200842E-2,-4.327509180E-2,7.856093347E-3
1.351753298E1,-5.499265343E-2,-3.182383627E-2,9.986559860E-3
1.355802657E1,-6.271559745E-2,-2.170412242E-2,2.143781446E-2
1.359851058E1,-6.191666797E-2,-3.395430371E-2,3.661738336E-2
1.363897272E1,-6.111774594E-2,-4.780233279E-2,4.780233279E-2
1.367951574E1,-6.884068251E-2,-5.446003750E-2,5.685681105E-2
1.371997980E1,-8.162347972E-2,-5.659050494E-2,6.564498693E-2
1.376041386E1,-8.428656310E-2,-6.324820966E-2,7.203638554E-2
1.380089100E1,-8.908011019E-2,-7.390054315E-2,7.656362653E-2
1.384138293E1,-9.786828607E-2,-8.242240548E-2,8.402025700E-2
1.388186511E1,-1.127815470E-1,-8.215609938E-2,8.774857223E-2
1.392235475E1,-1.263632625E-1,-7.523208112E-2,9.360735118E-2
1.396284360E1,-1.351514459E-1,-8.242240548E-2,1.010639817E-1
1.400335954E1,-1.431406885E-1,-8.481918275E-2,1.018629074E-1
1.404385438E1,-1.556571722E-1,-7.842778414E-2,1.002650559E-1
1.408432808E1,-1.601844132E-1,-8.641702682E-2,1.146457046E-1
1.412478933E1,-1.521951705E-1,-9.041165560E-2,1.181077138E-1
1.416526402E1,-1.370155960E-1,-9.680305421E-2,1.186403260E-1
1.420573725E1,-1.271621883E-1,-8.748225868E-2,1.045259908E-1
1.424626631E1,-1.231675670E-1,-7.177007198E-2,8.535179496E-2
1.428677746E1,-1.191729456E-1,-6.031882018E-2,6.005251035E-2
1.432726584E1,-1.119826213E-1,-5.206326395E-2,4.860125855E-2
1.436775334E1,-9.946613014E-2,-4.300878197E-2,5.951989442E-2
1.440824032E1,-8.295502514E-2,-4.780233279E-2,6.484606117E-2
1.444872647E1,-6.484606117E-2,-5.765573680E-2,6.830807030E-2
1.448919491E1,-3.954677656E-2,-7.523208112E-2,6.724283099E-2
1.452967548E1,-2.809552103E-2,-6.564498693E-2,5.579157919E-2
1.457018334E1,-2.410089783E-2,-4.620448127E-2,3.768261895E-2
1.461064813E1,-2.143781446E-2,-2.569874749E-2,1.877473295E-2
1.465111501E1,-1.744319126E-2,-1.238333434E-2,2.263620263E-3
1.469159095E1,-1.424749196E-2,1.331541280E-4,-8.388710208E-3
1.473210933E1,-6.790860556E-3,1.051917579E-2,-2.143781446E-2
1.477256735E1,5.991935730E-3,4.127778113E-3,-2.170412242E-2
1.481311787E1,1.211702544E-2,-7.057168987E-3,-1.637795754E-2
1.485360381E1,8.655018173E-3,-1.051917579E-2,-3.994623839E-4
1.489408980E1,-4.394086078E-3,-6.258244161E-3,1.131810062E-2
1.493451267E1,-1.025286783E-2,-5.193010904E-3,1.451379992E-2
1.497505480E1,-8.655018173E-3,-1.025286783E-2,1.291595027E-2
1.501554043E1,-5.193010904E-3,-1.025286783E-2,6.790860556E-3
1.505602350E1,1.331541280E-4,-1.078548469E-2,2.529928461E-3
1.509651126E1,7.856093347E-3,-8.655018173E-3,-3.861469682E-3
1.513699621E1,1.025286783E-2,-2.796236658E-3,-2.263620263E-3
1.517747944E1,1.025286783E-2,1.611164957E-2,4.127778113E-3
1.521796027E1,1.797580719E-2,3.155753016E-2,8.388710208E-3
1.525844673E1,3.315537795E-2,3.661738336E-2,1.731003635E-3
1.529893319E1,4.194355011E-2,4.540555924E-2,-1.291595027E-2
1.533941970E1,3.581846133E-2,4.833494872E-2,-3.155753016E-2
1.537990616E1,1.344856713E-2,6.165036187E-2,-3.448691964E-2
1.542035329E1,1.291595027E-2,7.656362653E-2,-1.797580719E-2
1.546086011E1,4.007939249E-2,8.348763734E-2,2.489982173E-2
1.550134657E1,5.472634733E-2,6.910699606E-2,4.194355011E-2
1.554183168E1,4.966649041E-2,2.995967865E-2,9.720250964E-3
1.558231761E1,3.475322574E-2,6.790860556E-3,-1.797580719E-2
1.562280350E1,2.649767138E-2,7.057168987E-3,-3.022598661E-2
1.566329621E1,1.691057347E-2,8.388710208E-3,-1.957365684E-2
1.570380366E1,3.328853287E-3,6.657706108E-4,-6.790860556E-3
1.574428954E1,-1.331541280E-4,-2.330197208E-2,-1.504641678E-2
1.578477923E1,1.331541280E-4,-2.063889056E-2,-2.942706272E-2
1.582526506E1,-4.394086078E-3,-8.921326138E-3,-3.422060981E-2
1.586575095E1,-9.453942999E-3,2.796236658E-3,-2.543243766E-2
1.590623688E1,-9.453942999E-3,3.595161485E-3,-9.187635034E-3
1.594664709E1,-1.198387123E-3,-5.725627299E-3,9.320789250E-4
1.598721355E1,3.994623839E-4,-7.323476952E-3,4.660394508E-3
1.602769923E1,-3.062544856E-3,-5.193010904E-3,1.331541280E-4
1.606818834E1,-6.790860556E-3,3.595161485E-3,-1.997311832E-3
1.610867152E1,-5.459319334E-3,1.158440951E-2,-7.856093347E-3
1.614915803E1,-5.459319334E-3,1.451379992E-2,-1.398118306E-2
1.618964339E1,-3.328853287E-3,6.524552125E-3,-1.478010789E-2
1.623010699E1,1.331541280E-4,4.127778113E-3,-1.211702544E-2
1.627060616E1,-3.994623839E-4,-1.997311832E-3,-2.796236658E-3
1.631108032E1,-2.529928461E-3,-1.051917579E-2,2.529928461E-3
1.635154162E1,-1.997311832E-3,-1.371487509E-2,6.524552125E-3
1.639202808E1,2.529928461E-3,-1.584534161E-2,8.921326138E-3
1.643248183E1,2.263620263E-3,-8.921326138E-3,5.725627299E-3
1.647304543E1,-1.731003635E-3,6.657706108E-4,-3.994623839E-4
1.651354579E1,-5.991935730E-3,9.187635034E-3,-8.388710208E-3
1.655402136E1,-1.105179265E-2,1.611164957E-2,-1.158440951E-2
1.659451230E1,-9.986559860E-3,1.478010789E-2,-8.122402243E-3
1.663496089E1,-7.323476952E-3,7.589785382E-3,-1.997311832E-3
1.667547964E1,-6.524552125E-3,3.328853287E-3,3.062544856E-3
1.671596621E1,-1.997311832E-3,1.464695437E-3,3.861469682E-3
1.675645282E1,5.991935730E-3,1.997311832E-3,6.657706108E-4
1.679694329E1,1.611164957E-2,-9.187635034E-3,-4.926702939E-3
1.683742985E1,1.717688330E-2,-1.318225823E-2,-5.459319334E-3
1.687790985E1,1.371487509E-2,-1.051917579E-2,-6.790860556E-3
1.691839642E1,4.926702939E-3,-1.198387123E-3,-4.926702939E-3
1.695887475E1,-1.051917579E-2,8.388710208E-3,-3.994623839E-4
1.699937230E1,-1.904104091E-2,8.921326138E-3,6.258244161E-3
1.703984944E1,-1.770949923E-2,5.991935730E-3,7.057168987E-3
1.708032266E1,-6.790860556E-3,-3.328853287E-3,2.796236658E-3
1.712078996E1,4.394086078E-3,-1.238333434E-2,3.994623839E-4
1.716128584E1,3.861469682E-3,-4.926702939E-3,6.657706108E-4
1.720175147E1,1.331541280E-4,4.660394508E-3,-4.660394508E-3
1.724227438E1,-1.198387123E-3,5.193010904E-3,-7.856093347E-3
1.728276095E1,-8.655018173E-3,7.589785382E-3,-9.986559860E-3
1.732324751E1,-9.453942999E-3,6.258244161E-3,-8.122402243E-3
1.736374256E1,-2.796236658E-3,-1.731003635E-3,-4.660394508E-3
1.740424194E1,-6.524552125E-3,3.062544856E-3,-4.127778113E-3
1.744466730E1,-3.861469682E-3,9.187635034E-3,-1.025286783E-2
1.748517912E1,-2.796236658E-3,1.264964230E-2,-1.131810062E-2
1.752569678E1,-1.025286783E-2,1.930734888E-2,-7.589785382E-3
1.756617876E1,-8.655018173E-3,1.983996481E-2,-6.258244161E-3
1.760666839E1,-5.193010904E-3,2.223674022E-2,9.320789250E-4
1.764716074E1,2.676397935E-2,3.022598661E-2,3.315537795E-2
1.768762657E1,4.487293959E-2,4.460663348E-2,5.419373140E-2
1.772811303E1,5.339480564E-2,4.061200842E-2,3.022598661E-2
1.776859954E1,5.472634733E-2,4.327509180E-2,7.856093347E-3
1.780907938E1,6.218297780E-2,4.487293959E-2,-6.258244161E-3
1.784955657E1,6.378082931E-2,7.816147059E-2,-4.926702939E-3
1.789004298E1,6.537867337E-2,7.869409025E-2,-1.611164957E-2
1.793055839E1,7.816147059E-2,8.508548886E-2,-2.410089783E-2
1.797105517E1,9.627043456E-2,7.150376588E-2,-5.259587988E-2
1.801146433E1,1.135804728E-1,7.975932211E-2,-7.390054315E-2
1.805202558E1,1.221023351E-1,7.523208112E-2,-8.987903595E-2
1.809250954E1,1.221023351E-1,6.884068251E-2,-9.840089828E-2
1.813299350E1,1.221023351E-1,6.591129303E-2,-9.973244369E-2
1.817348506E1,1.175750941E-1,5.845466256E-2,-1.079879999E-1
1.821395584E1,1.226349548E-1,6.218297780E-2,-1.119826213E-1
1.825444220E1,1.388797611E-1,6.457975507E-2,-1.015966013E-1
1.829494459E1,1.472684592E-1,6.511236727E-2,-9.706936032E-2
1.833542782E1,1.383471340E-1,5.366111174E-2,-1.071890742E-1
1.837588371E1,1.258306503E-1,5.099803209E-2,-1.239664927E-1
1.841638199E1,1.085206121E-1,3.555215150E-2,-1.284937263E-1
1.845688355E1,7.682993263E-2,2.170412242E-2,-1.268958896E-1
1.849735589E1,4.061200842E-2,-5.459319334E-3,-1.154446304E-1
1.853782016E1,-9.320789250E-4,-2.250304818E-2,-8.162347972E-2
1.857832824E1,-3.635107726E-2,-1.238333434E-2,-4.061200842E-2
1.861878652E1,-6.271559745E-2,-1.451379992E-2,-1.078548469E-2
1.865925235E1,-7.842778414E-2,-2.303566411E-2,7.856093347E-3
1.869981142E1,-8.029194176E-2,-5.366111174E-2,1.770949923E-2
1.874029720E1,-7.336792350E-2,-7.390054315E-2,1.478010789E-2
1.878078230E1,-7.150376588E-2,-7.390054315E-2,1.371487509E-2
1.882127303E1,-7.336792350E-2,-6.218297780E-2,2.703028731E-2
1.886175506E1,-7.336792350E-2,-6.111774594E-2,5.126433820E-2
1.890224084E1,-7.123745978E-2,-5.605788901E-2,5.446003750E-2
1.894272579E1,-6.990591437E-2,-5.712312087E-2,5.738943070E-2
1.898321480E1,-7.576470077E-2,-5.019910634E-2,5.898727849E-2
1.902369235E1,-9.227581322E-2,-4.087831825E-2,6.085143611E-2
1.906418876E1,-1.058575287E-1,-4.913387448E-2,7.123745978E-2
1.910467230E1,-1.037270650E-1,-5.552527308E-2,7.603100687E-2
1.914516397E1,-9.440627694E-2,-6.750914454E-2,7.523208112E-2
1.918564876E1,-8.242240548E-2,-6.804175675E-2,7.443315536E-2
1.922611480E1,-6.697652489E-2,-6.111774594E-2,7.310161740E-2
1.926658610E1,-5.419373140E-2,-7.017222792E-2,6.271559745E-2
1.930707303E1,-4.886756465E-2,-6.324820966E-2,5.179695413E-2
1.934759938E1,-4.487293959E-2,-5.259587988E-2,4.726971686E-2
1.938804798E1,-4.141093418E-2,-3.928046674E-2,4.540555924E-2
1.942855350E1,-4.220985994E-2,-2.756290510E-2,3.821523488E-2
1.946902152E1,-3.741630912E-2,-1.717688330E-2,2.596505545E-2
1.950952063E1,-3.635107726E-2,-1.105179265E-2,1.691057347E-2
1.955001824E1,-3.395430371E-2,-5.459319334E-3,1.744319126E-2
1.959050866E1,-3.315537795E-2,1.464695437E-3,1.744319126E-2
1.963095313E1,-2.969337068E-2,1.264964230E-2,1.398118306E-2
1.967147433E1,-1.025286783E-2,1.158440951E-2,4.394086078E-3
1.971197194E1,5.193010904E-3,4.926702939E-3,-1.264964230E-2
1.975244490E1,1.637795754E-2,2.529928461E-3,-1.983996481E-2
1.979294496E1,2.063889056E-2,-1.464695437E-3,-1.744319126E-2
1.983343464E1,1.904104091E-2,-1.025286783E-2,-7.589785382E-3
1.987391787E1,9.453942999E-3,-1.531272475E-2,1.198387123E-3
1.991440532E1,-7.589785382E-3,-1.238333434E-2,5.725627299E-3
1.995487933E1,-1.957365684E-2,-7.323476952E-3,1.531272475E-2
1.999535647E1,-2.436720580E-2,-2.529928461E-3,1.637795754E-2
2.003586516E1,-1.664426550E-2,4.660394508E-3,8.122402243E-3
2.007634324E1,-8.388710208E-3,1.105179265E-2,-5.193010904E-3
2.011680824E1,9.320789250E-4,1.717688330E-2,-1.478010789E-2
2.015730089E1,5.193010904E-3,1.531272475E-2,-1.983996481E-2
2.019782277E1,3.062544856E-3,8.388710208E-3,-1.557903271E-2
2.023830298E1,3.328853287E-3,-3.861469682E-3,-4.926702939E-3
2.027876902E1,-1.997311832E-3,-1.424749196E-2,6.790860556E-3
2.031924782E1,-6.258244161E-3,-1.850842312E-2,1.318225823E-2
2.035974334E1,-5.459319334E-3,-1.557903271E-2,1.025286783E-2
2.040023454E1,-8.122402243E-3,-8.388710208E-3,7.589785382E-3
2.044072188E1,-5.725627299E-3,1.997311832E-3,3.994623839E-4
2.048120225E1,-9.986559860E-3,1.424749196E-2,-4.926702939E-3
2.052168261E1,-1.078548469E-2,2.197043039E-2,-4.660394508E-3
2.056217006E1,-9.187635034E-3,2.330197208E-2,-5.991935730E-3
2.060266886E1,-4.926702939E-3,1.264964230E-2,-3.062544856E-3
2.064311553E1,1.464695437E-3,-9.320789250E-4,1.464695437E-3
2.068367001E1,1.731003635E-3,-1.344856713E-2,5.725627299E-3
2.072412923E1,-3.861469682E-3,-1.451379992E-2,1.025286783E-2
2.076461657E1,-8.122402243E-3,-1.398118306E-2,1.051917579E-2
2.080510991E1,-5.193010904E-3,-1.158440951E-2,8.388710208E-3
2.084555636E1,-3.328853287E-3,-5.459319334E-3,3.328853287E-3
2.088606183E1,-9.320789250E-4,3.861469682E-3,-6.524552125E-3
2.092655532E1,6.657706108E-4,7.856093347E-3,-1.078548469E-2
2.096706027E1,1.997311832E-3,4.394086078E-3,-8.921326138E-3
2.100755225E1,6.657706108E-4,1.731003635E-3,-5.991935730E-3
2.104804069E1,3.994623839E-4,-5.725627299E-3,-9.320789250E-4
2.108843876E1,-9.320789250E-4,-1.051917579E-2,3.062544856E-3
2.112899220E1,-2.263620263E-3,-1.185071748E-2,5.193010904E-3
2.116947355E1,-1.464695437E-3,-1.238333434E-2,5.991935730E-3
2.120996584E1,-4.660394508E-3,-5.991935730E-3,4.127778113E-3
2.125044975E1,-1.424749196E-2,1.997311832E-3,5.193010904E-3
2.129095006E1,-2.676397935E-2,1.291595027E-2,1.371487509E-2
2.133143699E1,-4.167724028E-2,3.368799388E-2,1.264964230E-2
2.137192017E1,-3.422060981E-2,3.768261895E-2,1.238333434E-2
2.141240423E1,-3.555215150E-2,3.928046674E-2,7.323476952E-3
2.145287339E1,-2.063889056E-2,5.019910634E-2,-2.117150649E-2
2.149336532E1,1.731003635E-3,2.942706272E-2,-3.129122034E-2
2.153386501E1,1.264964230E-2,5.725627299E-3,-1.930734888E-2
2.157435246E1,-3.062544856E-3,8.921326138E-3,-1.504641678E-2
2.161484256E1,2.703028731E-2,-3.661738336E-2,6.258244161E-3
2.165526162E1,-1.264964230E-2,-2.596505545E-2,1.344856713E-2
2.169583694E1,-4.394086078E-3,-1.983996481E-2,1.131810062E-2
2.173626392E1,-8.122402243E-3,-2.250304818E-2,1.850842312E-2
2.177678589E1,-2.543243766E-2,5.193010904E-3,1.717688330E-2
2.181725616E1,-2.276935615E-2,1.344856713E-2,4.660394508E-3
2.185773704E1,-2.010627277E-2,1.584534161E-2,6.657706108E-4
2.189824881E1,-2.090519853E-2,1.584534161E-2,4.926702939E-3
2.193868402E1,-3.595161485E-3,1.877473295E-2,1.504641678E-2
2.197921105E1,6.644391268E-2,5.286218971E-2,9.307473898E-2
2.201970001E1,1.375482082E-1,9.254211932E-2,1.695052087E-1
2.206020605E1,1.565892547E-1,1.378145218E-1,1.082543060E-1
2.210066767E1,1.324883550E-1,2.242315561E-1,2.649767138E-2
2.214113464E1,1.231675670E-1,2.836183012E-1,-1.691057347E-2
2.218163178E1,1.173087880E-1,2.868140042E-1,-3.155753016E-2
2.222214371E1,1.013302878E-1,1.900109351E-1,-4.247616604E-2
2.226261704E1,1.026618332E-1,4.620448127E-2,-3.155753016E-2
2.230311683E1,1.383471340E-1,-3.874785081E-2,-2.916075476E-2
2.234360204E1,1.613828093E-1,-6.657706108E-4,-6.830807030E-2
2.238408886E1,2.013290375E-1,3.262276202E-2,-1.181077138E-1
2.242457292E1,2.026605755E-1,6.431344151E-2,-1.537930220E-1
2.246506339E1,1.845516264E-1,1.077216864E-1,-1.676410437E-1
2.250553392E1,1.973344237E-1,1.327546686E-1,-1.737661362E-1
2.254603423E1,1.933397949E-1,1.442059278E-1,-1.894783229E-1
2.258650110E1,1.954702586E-1,1.404775977E-1,-2.038589716E-1
2.262699772E1,1.890788674E-1,1.199718714E-1,-2.158428431E-1
2.266749230E1,1.925408691E-1,8.295502514E-2,-2.075872868E-1
2.270801954E1,1.965354979E-1,4.141093418E-2,-1.932066381E-1
2.274846350E1,2.055899799E-1,2.862813696E-2,-1.806901544E-1
2.278891126E1,2.127802968E-1,3.262276202E-2,-1.727008969E-1
2.282940402E1,2.061225921E-1,6.138405204E-2,-1.561897993E-1
2.286991037E1,1.824211627E-1,7.549838722E-2,-1.330209672E-1
2.291042798E1,1.415428370E-1,6.564498693E-2,-1.135804728E-1
2.295090548E1,1.194392517E-1,6.244928762E-2,-1.031944528E-1
2.299136527E1,9.493889660E-2,4.940018058E-2,-1.090532318E-1
2.303186183E1,6.085143611E-2,4.780233279E-2,-9.919982404E-2
2.307236397E1,2.516612969E-2,1.371487509E-2,-8.881380409E-2
2.311284720E1,-2.223674022E-2,-3.368799388E-2,-5.978620425E-2
2.315333694E1,-7.256899774E-2,-8.215609938E-2,-1.318225823E-2
2.319382595E1,-1.039933711E-1,-1.026618332E-1,4.540555924E-2
2.323429522E1,-1.260969639E-1,-1.247654185E-1,8.029194176E-2
2.327478470E1,-1.455374658E-1,-1.452711523E-1,1.042596847E-1
2.331527990E1,-1.543256342E-1,-1.434070021E-1,1.087869257E-1
2.335575662E1,-1.727008969E-1,-1.415428370E-1,1.114500016E-1
2.339622501E1,-2.097177505E-1,-1.338198930E-1,1.282274276E-1
2.343671652E1,-2.459356785E-1,-1.404775977E-1,1.500647068E-1
2.347721636E1,-2.770937383E-1,-1.489994675E-1,1.727008969E-1
2.351770063E1,-3.055887222E-1,-1.585865617E-1,1.905435622E-1
2.355818261E1,-3.220998347E-1,-1.769618392E-1,2.099840641E-1
2.359864813E1,-3.255618513E-1,-2.027937323E-1,2.334191799E-1
2.363913251E1,-3.186378181E-1,-2.248973250E-1,2.549901605E-1
2.367968741E1,-3.111811876E-1,-2.416747361E-1,2.661750913E-1
2.372017136E1,-3.055887222E-1,-2.432725877E-1,2.661750913E-1
2.376059558E1,-3.119801283E-1,-2.291582525E-1,2.664414048E-1
2.380109855E1,-3.111811876E-1,-2.089188248E-1,2.605826259E-1
2.384161105E1,-3.053224087E-1,-1.982664913E-1,2.488650680E-1
2.388209668E1,-2.904091477E-1,-1.961360276E-1,2.398105860E-1
2.392257991E1,-2.781589627E-1,-1.857500076E-1,2.299571782E-1
2.396306569E1,-2.616478503E-1,-1.772281379E-1,2.203700840E-1
2.400354714E1,-2.509955168E-1,-1.615159512E-1,1.990654171E-1
2.404403985E1,-2.382127345E-1,-1.479342431E-1,1.801575422E-1
2.408452683E1,-2.225005478E-1,-1.338198930E-1,1.612496525E-1
2.412501235E1,-2.083862126E-1,-1.125152409E-1,1.407439113E-1
2.416549975E1,-1.284937263E-1,-1.359503716E-1,1.095858440E-1
2.420598824E1,-9.760197252E-2,-1.308905035E-1,9.307473898E-2
2.424647392E1,-4.061200842E-2,-9.786828607E-2,5.312849581E-2
2.428693188E1,2.756290510E-2,-4.886756465E-2,6.790860556E-3
2.432744553E1,2.596505545E-2,7.323476952E-3,-6.258244161E-3
2.436791902E1,3.475322574E-2,5.552527308E-2,-2.463351376E-2
2.440841147E1,5.046541616E-2,8.908011019E-2,-3.794892505E-2
2.444885636E1,6.324820966E-2,1.039933711E-1,-4.434032366E-2
2.448940063E1,5.632419512E-2,1.103847697E-1,-4.700340703E-2
2.452986964E1,6.564498693E-2,7.203638554E-2,-5.179695413E-2
2.457031803E1,7.256899774E-2,3.741630912E-2,-5.312849581E-2
2.461084006E1,7.443315536E-2,2.596505545E-2,-5.872096866E-2
2.465127866E1,7.469946891E-2,2.010627277E-2,-5.712312087E-2
2.469183688E1,4.487293959E-2,4.780233279E-2,-5.366111174E-2
2.473229918E1,3.448691964E-2,5.499265343E-2,-5.126433820E-2
2.477280464E1,3.475322574E-2,5.046541616E-2,-4.833494872E-2
2.481329042E1,3.501953557E-2,4.087831825E-2,-3.928046674E-2
2.485377423E1,2.729659714E-2,2.596505545E-2,-2.516612969E-2
2.489425761E1,2.276935615E-2,1.318225823E-2,-9.453942999E-3
2.493474652E1,1.877473295E-2,-3.861469682E-3,3.328853287E-3
2.497520089E1,8.921326138E-3,-7.323476952E-3,1.078548469E-2
2.501571990E1,-3.994623839E-4,-9.720250964E-3,1.371487509E-2
2.505620678E1,-4.127778113E-3,-7.589785382E-3,9.720250964E-3
2.509667532E1,-7.589785382E-3,-3.328853287E-3,9.320789250E-4
2.513719584E1,-7.856093347E-3,1.997311832E-3,-9.986559860E-3
2.517767110E1,2.263620263E-3,4.394086078E-3,-2.516612969E-2
2.521816152E1,7.589785382E-3,5.193010904E-3,-3.129122034E-2
2.525863662E1,1.105179265E-2,3.861469682E-3,-2.543243766E-2
2.529911464E1,7.856093347E-3,5.193010904E-3,-1.398118306E-2
2.533961136E1,1.331541280E-4,5.459319334E-3,-1.331541280E-4
2.538008803E1,-3.595161485E-3,4.127778113E-3,1.025286783E-2
2.542056975E1,-9.187635034E-3,-4.127778113E-3,2.037258074E-2
2.546106803E1,-7.856093347E-3,-5.459319334E-3,2.063889056E-2
2.550155267E1,-9.187635034E-3,-3.595161485E-3,1.451379992E-2
2.554204970E1,3.994623839E-4,-1.105179265E-2,1.051917579E-2
2.558253350E1,-4.926702939E-3,-4.660394508E-3,3.994623839E-4
2.562301824E1,-1.264964230E-2,1.344856713E-2,-1.025286783E-2
2.566343892E1,-4.660394508E-3,3.528584540E-2,3.994623839E-4
2.570400480E1,1.025286783E-2,5.525896326E-2,2.489982173E-2
2.574448277E1,3.155753016E-2,4.220985994E-2,6.657706108E-4
2.578497152E1,3.182383627E-2,2.516612969E-2,-1.637795754E-2
2.582545334E1,2.010627277E-2,1.158440951E-2,-1.717688330E-2
2.586590063E1,1.478010789E-2,1.131810062E-2,4.660394508E-3
2.590640548E1,1.211702544E-2,7.057168987E-3,3.928046674E-2
2.594691173E1,1.664426550E-2,-4.660394508E-3,4.407401755E-2
2.598739751E1,2.010627277E-2,-9.986559860E-3,1.904104091E-2
2.602786772E1,1.611164957E-2,2.529928461E-3,-1.025286783E-2
2.606837136E1,1.877473295E-2,2.729659714E-2,-2.276935615E-2
2.610885834E1,2.836182900E-2,3.608476743E-2,-2.037258074E-2
2.614935308E1,4.087831825E-2,4.327509180E-2,-2.649767138E-2
2.618985501E1,4.886756465E-2,4.700340703E-2,-3.075860441E-2
2.623032105E1,5.685681105E-2,5.046541616E-2,-2.383458801E-2
2.627078897E1,6.537867337E-2,4.860125855E-2,-1.850842312E-2
2.631126548E1,6.830807030E-2,5.738943070E-2,-1.957365684E-2
2.635176553E1,7.629731297E-2,4.487293959E-2,-2.756290510E-2
2.639227074E1,7.816147059E-2,4.833494872E-2,-3.235645220E-2
2.643275652E1,7.496577501E-2,4.620448127E-2,-4.780233279E-2
2.647321303E1,6.963960826E-2,4.300878197E-2,-6.271559745E-2
2.651372142E1,6.484606117E-2,3.661738336E-2,-7.549838722E-2
2.655422011E1,6.617759913E-2,3.501953557E-2,-6.990591437E-2
2.659470787E1,6.165036187E-2,3.448691964E-2,-5.712312087E-2
2.663517011E1,4.913387448E-2,4.327509180E-2,-6.644391268E-2
2.667565839E1,4.087831825E-2,4.833494872E-2,-8.162347972E-2
2.671617089E1,3.342168778E-2,3.928046674E-2,-9.254211932E-2
2.675662287E1,2.010627277E-2,2.703028731E-2,-9.493889660E-2
2.679713647E1,1.318225823E-2,6.524552125E-3,-7.762885839E-2
2.683762058E1,9.986559860E-3,-7.589785382E-3,-4.886756465E-2
2.687808938E1,9.187635034E-3,-1.424749196E-2,-1.717688330E-2
2.691856792E1,7.589785382E-3,-1.238333434E-2,3.328853287E-3
2.695905110E1,4.660394508E-3,-1.344856713E-2,8.655018173E-3
2.699954819E1,2.263620263E-3,-2.010627277E-2,5.459319334E-3
2.704004074E1,-2.529928461E-3,-2.117150649E-2,1.051917579E-2
2.708053220E1,-9.187635034E-3,-1.211702544E-2,1.504641678E-2
2.712100756E1,-1.531272475E-2,6.657706108E-4,1.105179265E-2
2.716146079E1,-8.921326138E-3,3.328853287E-3,1.331541280E-4
2.720196735E1,-3.994623839E-4,3.994623839E-4,-7.323476952E-3
2.724248168E1,2.529928461E-3,3.062544856E-3,-5.725627299E-3
2.728297605E1,-3.994623839E-4,1.731003635E-3,-3.861469682E-3
2.732346579E1,-3.328853287E-3,-2.796236658E-3,4.127778113E-3
2.736395084E1,-6.790860556E-3,-9.720250964E-3,7.589785382E-3
2.740443584E1,-8.122402243E-3,-7.856093347E-3,5.459319334E-3
2.744492194E1,-4.660394508E-3,-3.328853287E-3,1.464695437E-3
2.748540386E1,-1.997311832E-3,3.062544856E-3,-4.660394508E-3
2.752589266E1,-6.657706108E-4,1.424749196E-2,-9.453942999E-3
2.756637110E1,-2.529928461E-3,1.957365684E-2,-8.921326138E-3
2.760682256E1,-1.997311832E-3,1.264964230E-2,-5.459319334E-3
2.764733688E1,-6.657706108E-4,-1.731003635E-3,1.198387123E-3
2.768787433E1,1.198387123E-3,-1.824211515E-2,5.991935730E-3
2.772829032E1,-6.657706108E-4,-2.356828004E-2,7.323476952E-3
2.776878855E1,-3.328853287E-3,-2.117150649E-2,7.057168987E-3
2.780925709E1,-6.524552125E-3,-1.158440951E-2,3.861469682E-3
2.784976235E1,-3.994623839E-4,-6.790860556E-3,-9.320789250E-4
2.789027402E1,6.790860556E-3,-2.529928461E-3,-9.187635034E-3
2.793069558E1,1.131810062E-2,-1.731003635E-3,-1.371487509E-2
2.797121496E1,7.856093347E-3,-1.331541280E-4,-1.664426550E-2
2.801169725E1,3.328853287E-3,6.657706108E-4,-1.371487509E-2
2.805221501E1,-9.320789250E-4,-3.328853287E-3,-7.323476952E-3
2.809271662E1,-1.997311832E-3,-5.991935730E-3,-4.127778113E-3
2.813316772E1,-3.595161485E-3,-5.991935730E-3,-3.595161485E-3
2.817368996E1,-3.328853287E-3,-2.263620263E-3,-4.926702939E-3
2.821416511E1,-2.263620263E-3,-2.263620263E-3,-3.062544856E-3
2.825465032E1,-1.198387123E-3,3.595161485E-3,-6.790860556E-3
2.829514902E1,1.731003635E-3,3.328853287E-3,-9.453942999E-3
2.833564016E1,5.193010904E-3,-1.731003635E-3,-5.725627299E-3
2.837612563E1,2.263620263E-3,-2.263620263E-3,-3.595161485E-3
2.841659011E1,-3.328853287E-3,3.595161485E-3,-3.062544856E-3
2.845705444E1,-9.453942999E-3,1.264964230E-2,-3.595161485E-3
2.849755662E1,-1.051917579E-2,1.451379992E-2,-2.529928461E-3
2.853802907E1,-5.991935730E-3,9.720250964E-3,-2.529928461E-3
2.857856480E1,-5.193010904E-3,6.258244161E-3,-3.994623839E-4
2.861898897E1,-3.595161485E-3,-2.796236658E-3,5.725627299E-3
2.865945912E1,-3.861469682E-3,-8.921326138E-3,8.921326138E-3
2.870004261E1,-1.398118306E-2,-6.524552125E-3,1.264964230E-2
2.874050303E1,-2.143781446E-2,6.790860556E-3,3.595161485E-3
2.878096116E1,-1.797580719E-2,1.051917579E-2,-9.320789250E-4
2.882147964E1,-7.057168987E-3,1.211702544E-2,-4.660394508E-3
2.886196178E1,5.459319334E-3,1.105179265E-2,-9.187635034E-3
2.890245095E1,1.051917579E-2,9.187635034E-3,-1.185071748E-2
2.894293860E1,1.331541280E-4,1.904104091E-2,-1.105179265E-2
2.898342350E1,-9.320789250E-4,1.211702544E-2,-3.595161485E-3
2.902389787E1,-1.464695437E-3,3.062544856E-3,4.127778113E-3
2.906439631E1,-1.198387123E-3,-7.856093347E-3,8.655018173E-3
2.910488142E1,-1.198387123E-3,-1.664426550E-2,8.921326138E-3
2.914536938E1,4.926702939E-3,-1.904104091E-2,1.824211515E-2
2.918586022E1,3.288906813E-2,2.596505545E-2,4.966649041E-2
2.922634626E1,1.258306503E-1,1.569887102E-1,8.375394344E-2
2.926679485E1,2.133129090E-1,3.901416063E-1,9.014534205E-2
2.930728938E1,2.812215090E-1,6.753577590E-1,1.468690038E-1
2.934773116E1,2.370143533E-1,6.897383928E-1,1.191729456E-1
2.938829042E1,2.796236575E-1,5.832150578E-1,-4.780233279E-2
2.942878235E1,2.892107666E-1,4.133104086E-1,-1.987991184E-1
2.946926772E1,2.660419345E-1,2.932053804E-1,-1.945381761E-1
2.950975308E1,2.793573737E-1,1.521951705E-1,-1.756303012E-1
2.955023397E1,2.977326214E-1,1.508636326E-1,-1.455374658E-1
2.959073485E1,3.209014535E-1,1.489994675E-1,-1.266295761E-1
2.963119069E1,3.549889028E-1,1.511299312E-1,-1.633801162E-1
2.967168662E1,3.917394578E-1,1.633801162E-1,-2.272941023E-1
2.971220714E1,4.298215210E-1,2.009295821E-1,-2.897433937E-1
2.975266225E1,4.633763731E-1,2.500634491E-1,-3.376788795E-1
2.979314704E1,4.838820994E-1,2.676397860E-1,-3.725652397E-1
2.983362428E1,5.003932118E-1,2.556559145E-1,-3.944025338E-1
2.987413537E1,5.123770833E-1,2.508623898E-1,-4.135767221E-1
2.991462116E1,5.163717270E-1,2.396774292E-1,-4.290226102E-1
2.995510787E1,5.118444562E-1,2.244978547E-1,-4.205007255E-1
2.999559522E1,4.742949903E-1,1.982664913E-1,-3.952014446E-1
3.003607610E1,4.050548673E-1,1.524614692E-1,-3.640433848E-1
3.007654699E1,3.275591433E-1,1.058575287E-1,-3.400756419E-1
3.011704079E1,2.844172120E-1,8.348763734E-2,-3.070534170E-1
3.015751589E1,2.703028917E-1,5.712312087E-2,-2.979989350E-1
3.019798345E1,2.862813771E-1,2.756290510E-2,-2.675066292E-1
3.023852277E1,2.655093372E-1,-1.105179265E-2,-2.174406946E-1
3.027899964E1,1.848179251E-1,-1.344856713E-2,-1.466026902E-1
3.031947235E1,6.111774594E-2,3.262276202E-2,-7.283531129E-2
3.035996600E1,-3.794892505E-2,5.712312087E-2,-8.655018173E-3
3.040047230E1,-7.256899774E-2,1.983996481E-2,5.685681105E-2
3.044096600E1,-8.268871158E-2,-3.821523488E-2,9.121058136E-2
3.048142991E1,-8.455286920E-2,-8.668334037E-2,1.087869257E-1
3.052192194E1,-1.170424819E-1,-1.106510833E-1,1.527277827E-1
3.056241142E1,-1.910761744E-1,-1.652442664E-1,2.081198990E-1
3.060289574E1,-2.552564740E-1,-2.067883611E-1,2.206363827E-1
3.064335970E1,-3.111811876E-1,-2.360822707E-1,2.419410497E-1
3.068389491E1,-3.766930401E-1,-2.406095117E-1,2.669740319E-1
3.072435595E1,-4.374113083E-1,-2.256962508E-1,2.928059399E-1
3.076483928E1,-4.695014656E-1,-2.270277888E-1,3.194367588E-1
3.080532876E1,-4.655068219E-1,-2.339518070E-1,3.419398069E-1
3.084581292E1,-4.676373005E-1,-2.531259954E-1,3.512606025E-1
3.088628610E1,-5.054530501E-1,-3.031919599E-1,3.565867543E-1
3.092675173E1,-5.709648728E-1,-3.599156141E-1,3.699021637E-1
3.096726511E1,-6.332810521E-1,-3.986634612E-1,4.045222402E-1
3.100772678E1,-6.556509137E-1,-4.367455542E-1,4.231638312E-1
3.104824610E1,-6.268896461E-1,-4.631100595E-1,4.314193726E-1
3.108873319E1,-5.850792527E-1,-4.617785215E-1,4.109136462E-1
3.112917938E1,-5.461982489E-1,-4.631100595E-1,3.768261969E-1
3.116969043E1,-5.027899742E-1,-3.946688473E-1,3.378120363E-1
3.121019423E1,-4.886756539E-1,-3.782908916E-1,3.157084286E-1
3.125067892E1,-4.587159753E-1,-3.087844253E-1,2.808220685E-1
3.129113938E1,-4.209001958E-1,-2.789579034E-1,2.858819067E-1
3.133158881E1,-3.854812086E-1,-2.491313666E-1,2.757622004E-1
3.137214720E1,-3.391435742E-1,-2.177069932E-1,2.536586225E-1
3.141263355E1,-2.877460718E-1,-2.150439173E-1,2.222342342E-1
3.145310058E1,-2.762948275E-1,-1.756303012E-1,1.913424879E-1
3.149358725E1,-2.789579034E-1,-1.173087880E-1,1.740324497E-1
3.153409438E1,-2.371474952E-1,-7.762885839E-2,1.471353173E-1
3.157457928E1,-1.948044896E-1,-8.801487833E-2,1.324883550E-1
3.161506303E1,-1.521951705E-1,-8.268871158E-2,9.706936032E-2
3.165548412E1,-7.177007198E-2,-4.513924941E-2,4.540555924E-2
3.169608079E1,-3.129122034E-2,-4.034570232E-2,3.422060981E-2
3.173649095E1,-1.051917579E-2,-2.197043039E-2,1.185071748E-2
3.177694011E1,6.657706108E-4,1.318225823E-2,-1.344856713E-2
3.181751095E1,8.921326138E-3,4.913387448E-2,-3.209014609E-2
3.185795751E1,4.926702939E-3,7.017222792E-2,-5.206326395E-2
3.189841225E1,9.187635034E-3,7.203638554E-2,-5.153064802E-2
3.193893313E1,1.478010789E-2,6.271559745E-2,-4.726971686E-2
3.197943563E1,8.388710208E-3,6.884068251E-2,-4.780233279E-2
3.201988563E1,1.584534161E-2,3.235645220E-2,-4.460663348E-2
3.206043204E1,2.623136342E-2,-1.051917579E-2,-3.049229458E-2
3.210091298E1,3.555215150E-2,-5.179695413E-2,-1.211702544E-2
3.214136089E1,3.129122034E-2,-7.070484012E-2,8.655018173E-3
3.218187996E1,2.596505545E-2,-7.709623873E-2,2.223674022E-2
3.222234907E1,1.983996481E-2,-7.283531129E-2,2.010627277E-2
3.226284292E1,8.122402243E-3,-4.940018058E-2,1.797580719E-2
3.230334048E1,-1.464695437E-3,-2.489982173E-2,1.424749196E-2
3.234382751E1,-1.331541280E-4,-2.529928461E-3,3.861469682E-3
3.238431850E1,-3.328853287E-3,1.051917579E-2,-3.861469682E-3
3.242480444E1,-5.193010904E-3,2.436720580E-2,-5.991935730E-3
3.246528845E1,-3.062544856E-3,3.049229458E-2,-9.453942999E-3
3.250576282E1,2.796236658E-3,2.942706272E-2,-3.595161485E-3
3.254626251E1,1.238333434E-2,2.836182900E-2,2.303566411E-2
3.258673860E1,3.555215150E-2,2.356828004E-2,5.472634733E-2
3.262723688E1,6.298190355E-2,3.528584540E-2,4.753602296E-2
3.266772975E1,7.017222792E-2,4.194355011E-2,1.451379992E-2
3.270824501E1,5.206326395E-2,5.765573680E-2,-1.770949923E-2
3.274871975E1,2.969337068E-2,5.845466256E-2,-4.061200842E-2
3.278916756E1,1.531272475E-2,3.635107726E-2,-3.661738336E-2
3.282963105E1,1.238333434E-2,2.383458801E-2,-1.318225823E-2
3.287014371E1,1.611164957E-2,6.657706108E-4,3.328853287E-3
3.291065704E1,1.744319126E-2,-1.185071748E-2,-3.994623839E-4
3.295112496E1,1.371487509E-2,-1.318225823E-2,-7.589785382E-3
3.299158485E1,9.453942999E-3,-5.991935730E-3,-8.122402243E-3
3.303207970E1,1.105179265E-2,3.328853287E-3,-2.796236658E-3
3.307259506E1,1.078548469E-2,6.258244161E-3,-2.796236658E-3
3.311308069E1,7.057168987E-3,4.660394508E-3,-5.725627299E-3
3.315356813E1,3.595161485E-3,5.991935730E-3,-5.193010904E-3
3.319405194E1,-1.731003635E-3,5.459319334E-3,-2.529928461E-3
3.323454225E1,-3.062544856E-3,4.394086078E-3,-6.657706108E-4
3.327501918E1,-1.731003635E-3,3.062544856E-3,-1.464695437E-3
3.331551277E1,-6.657706108E-4,3.062544856E-3,-3.328853287E-3
3.335599319E1,-1.198387123E-3,2.263620263E-3,-2.263620263E-3
3.339646220E1,1.464695437E-3,-1.331541280E-4,-3.062544856E-3
3.343695022E1,3.062544856E-3,-1.731003635E-3,-3.328853287E-3
3.347740918E1,1.198387123E-3,-6.258244161E-3,-1.997311832E-3
3.351794079E1,2.529928461E-3,-1.331541280E-4,-3.328853287E-3
3.355844371E1,-9.320789250E-4,6.657706108E-4,-3.595161485E-3
3.359892303E1,-2.263620263E-3,1.997311832E-3,3.994623839E-4
3.363936287E1,-3.062544856E-3,1.997311832E-3,9.320789250E-4
3.367993699E1,-3.062544856E-3,-6.657706108E-4,9.320789250E-4
3.372039220E1,-2.263620263E-3,1.731003635E-3,1.198387123E-3
3.376084918E1,-2.529928461E-3,9.320789250E-4,1.464695437E-3
3.380134381E1,-1.997311832E-3,-1.331541280E-4,9.320789250E-4
3.384183694E1,1.025286783E-2,9.453942999E-3,1.318225823E-2
3.388232767E1,2.703028731E-2,2.836182900E-2,3.901416063E-2
3.392281798E1,3.315537795E-2,3.928046674E-2,2.037258074E-2
3.396330584E1,2.969337068E-2,3.528584540E-2,-6.790860556E-3
3.400378803E1,2.436720580E-2,3.528584540E-2,-3.022598661E-2
3.404427980E1,1.451379992E-2,2.090519853E-2,-3.209014609E-2
3.408476616E1,1.185071748E-2,1.211702544E-2,-2.303566411E-2
3.412525293E1,1.291595027E-2,3.062544856E-3,-1.664426550E-2
3.416573616E1,1.637795754E-2,-7.057168987E-3,-2.276935615E-2
3.420622496E1,2.117150649E-2,-1.131810062E-2,-3.022598661E-2
3.424669720E1,2.569874749E-2,-1.478010789E-2,-3.022598661E-2
3.428720136E1,3.049229458E-2,-1.025286783E-2,-2.356828004E-2
3.432765433E1,3.049229458E-2,-1.997311832E-3,-9.720250964E-3
3.436816636E1,2.916075476E-2,3.595161485E-3,-1.344856713E-2
3.440861110E1,2.756290510E-2,1.078548469E-2,-2.197043039E-2
3.444907220E1,2.090519853E-2,1.531272475E-2,-2.623136342E-2
3.448964980E1,1.744319126E-2,1.717688330E-2,-2.489982173E-2
3.453011740E1,1.451379992E-2,1.371487509E-2,-2.037258074E-2
3.457060449E1,1.131810062E-2,1.051917579E-2,-1.957365684E-2
3.461109792E1,6.524552125E-3,8.122402243E-3,-1.691057347E-2
3.465151475E1,4.660394508E-3,3.595161485E-3,-1.291595027E-2
3.469209819E1,4.926702939E-3,-9.320789250E-4,-8.122402243E-3
3.473253985E1,3.595161485E-3,-1.997311832E-3,-6.790860556E-3
3.477304241E1,1.198387123E-3,-1.464695437E-3,-5.725627299E-3
3.481352839E1,-3.994623839E-4,-3.062544856E-3,-5.459319334E-3
3.485401470E1,-1.198387123E-3,-2.263620263E-3,-4.660394508E-3
3.489447402E1,-1.731003635E-3,-2.796236658E-3,6.657706108E-4
3.493498016E1,-1.557903271E-2,-1.957365684E-2,7.057168987E-3
3.497547907E1,-4.673709720E-2,-7.070484012E-2,6.790860556E-3
3.501596298E1,-7.097115368E-2,-1.159772426E-1,1.637795754E-2
3.505642892E1,-9.041165560E-2,-1.292926520E-1,3.475322574E-2
3.509690402E1,-7.097115368E-2,-9.600412846E-2,4.487293959E-2
3.513740048E1,-1.051917579E-2,-2.463351376E-2,4.567186534E-2
3.517785923E1,5.472634733E-2,3.688369319E-2,2.410089783E-2
3.521837881E1,9.334104508E-2,5.552527308E-2,-2.330197208E-2
3.525885761E1,6.830807030E-2,4.300878197E-2,-4.620448127E-2
3.529937735E1,1.371487509E-2,9.320789250E-4,-3.954677656E-2
3.533985230E1,-4.660394508E-3,-4.300878197E-2,-8.122402243E-3
3.538035319E1,-1.464695437E-3,-4.434032366E-2,1.611164957E-2
3.542084907E1,-8.921326138E-3,-2.942706272E-2,2.063889056E-2
3.546133386E1,-2.596505545E-2,-8.921326138E-3,1.557903271E-2
3.550178860E1,-3.688369319E-2,4.127778113E-3,8.122402243E-3
3.554229782E1,-2.063889056E-2,1.717688330E-2,-4.660394508E-3
3.558278433E1,-2.796236658E-3,2.463351376E-2,-1.051917579E-2
3.562326610E1,1.731003635E-3,2.383458801E-2,-9.986559860E-3
3.566368621E1,3.595161485E-3,1.478010789E-2,-1.158440951E-2
3.570421782E1,3.994623839E-4,9.986559860E-3,-8.388710208E-3
3.574467912E1,-3.595161485E-3,2.529928461E-3,1.997311832E-3
3.578517725E1,-7.323476952E-3,-1.078548469E-2,1.025286783E-2
3.582569839E1,-4.660394508E-3,-1.744319126E-2,1.078548469E-2
3.586618741E1,-2.796236658E-3,-1.504641678E-2,7.856093347E-3
3.590670616E1,-1.997311832E-3,-1.078548469E-2,6.524552125E-3
3.594709907E1,-6.657706108E-4,-3.328853287E-3,1.331541280E-4
3.598770558E1,-1.198387123E-3,4.660394508E-3,-4.394086078E-3
3.602807714E1,6.657706108E-4,1.264964230E-2,-5.725627299E-3
3.606856970E1,-2.796236658E-3,1.344856713E-2,-8.122402243E-3
3.610906275E1,-1.997311832E-3,5.991935730E-3,-4.926702939E-3
3.614954410E1,-2.263620263E-3,2.529928461E-3,-2.529928461E-3
3.619004270E1,-4.127778113E-3,-4.127778113E-3,6.657706108E-4
3.623052499E1,-5.725627299E-3,-4.394086078E-3,3.062544856E-3
3.627100504E1,-3.595161485E-3,-6.258244161E-3,2.263620263E-3
3.631149712E1,-3.994623839E-4,-5.193010904E-3,9.320789250E-4
3.635199686E1,1.331541280E-4,-3.062544856E-3,-3.062544856E-3
3.639250202E1,1.198387123E-3,3.595161485E-3,-4.394086078E-3
3.643300426E1,1.464695437E-3,4.660394508E-3,-3.062544856E-3
3.647344134E1,-9.320789250E-4,2.796236658E-3,-4.926702939E-3
3.651398129E1,-2.529928461E-3,-1.331541280E-4,-3.062544856E-3
3.655444020E1,-3.595161485E-3,-6.657706108E-4,-1.464695437E-3
3.659494530E1,-3.328853287E-3,-1.464695437E-3,6.657706108E-4
3.663541717E1,-3.861469682E-3,-1.464695437E-3,9.320789250E-4
3.667588624E1,-9.320789250E-4,1.331541280E-4,-1.331541280E-4
3.671637363E1,-9.320789250E-4,3.994623839E-4,-2.263620263E-3
3.675685462E1,-1.198387123E-3,2.529928461E-3,-1.464695437E-3
3.679736009E1,6.657706108E-4,2.263620263E-3,-3.861469682E-3
3.683787931E1,-1.464695437E-3,2.796236658E-3,-2.529928461E-3
3.687833118E1,-1.464695437E-3,6.657706108E-4,1.331541280E-4
3.691881686E1,-9.320789250E-4,-6.657706108E-4,-1.464695437E-3
3.695928342E1,1.331541280E-4,-2.529928461E-3,-1.331541280E-4
3.699980572E1,3.994623839E-4,-1.198387123E-3,-2.263620263E-3
3.704028587E1,-3.994623839E-4,9.320789250E-4,-4.660394508E-3
3.708075228E1,-1.464695437E-3,1.198387123E-3,-3.595161485E-3
3.712125504E1,-3.994623839E-4,-1.331541280E-4,-2.263620263E-3
3.716175618E1,3.994623839E-4,-1.997311832E-3,-2.263620263E-3
3.720224504E1,1.331541280E-4,-3.994623839E-4,-2.529928461E-3
3.724270290E1,-6.657706108E-4,1.331541280E-4,-2.796236658E-3
3.728318931E1,-1.198387123E-3,1.198387123E-3,-6.657706108E-4
3.732368457E1,-2.263620263E-3,1.997311832E-3,-2.529928461E-3
3.736417467E1,-2.263620263E-3,3.062544856E-3,-3.062544856E-3
3.740467004E1,-3.994623839E-4,1.997311832E-3,-2.796236658E-3
3.744507592E1,-1.198387123E-3,6.657706108E-4,-9.320789250E-4
3.748560181E1,-1.464695437E-3,3.994623839E-4,-1.198387123E-3
3.752614087E1,-1.198387123E-3,-1.198387123E-3,-1.198387123E-3
3.756660160E1,-1.731003635E-3,-9.320789250E-4,-1.198387123E-3
3.760706546E1,-3.994623839E-4,-2.796236658E-3,-2.263620263E-3
3.764756931E1,-1.997311832E-3,-1.198387123E-3,-9.320789250E-4
3.768803462E1,-3.328853287E-3,6.657706108E-4,6.657706108E-4
3.772859431E1,-3.994623839E-4,3.595161485E-3,-3.062544856E-3
3.776905931E1,-3.994623839E-4,2.796236658E-3,-3.861469682E-3
3.780951405E1,1.331541280E-4,1.997311832E-3,-4.394086078E-3
3.784999452E1,-3.994623839E-4,-3.994623839E-4,-3.595161485E-3
3.789051118E1,-3.861469682E-3,-1.198387123E-3,-2.263620263E-3
3.793096744E1,-4.926702939E-3,9.320789250E-4,-1.464695437E-3
3.797154577E1,-9.320789250E-4,-1.731003635E-3,-1.464695437E-3
3.801196863E1,-1.331541280E-4,-1.198387123E-3,9.320789250E-4
3.805245009E1,-6.657706108E-4,-3.328853287E-3,4.127778113E-3
3.809292613E1,-1.331541280E-4,-5.193010904E-3,5.193010904E-3
3.813342103E1,-2.529928461E-3,-5.459319334E-3,6.258244161E-3
3.817389535E1,-4.926702939E-3,-3.861469682E-3,4.660394508E-3
3.821438176E1,-5.991935730E-3,-2.263620263E-3,3.595161485E-3
3.825485566E1,-4.660394508E-3,-6.657706108E-4,1.198387123E-3
3.829536822E1,-3.062544856E-3,1.464695437E-3,-4.926702939E-3
3.833584634E1,-1.997311832E-3,6.524552125E-3,-6.258244161E-3
3.837638670E1,-1.198387123E-3,5.991935730E-3,-7.589785382E-3
3.841687613E1,9.320789250E-4,1.464695437E-3,-6.258244161E-3
3.845728874E1,-3.328853287E-3,-5.991935730E-3,-4.127778113E-3
3.849779431E1,-5.725627299E-3,-4.127778113E-3,-1.198387123E-3
3.853828744E1,-4.127778113E-3,-3.595161485E-3,4.127778113E-3
3.857878171E1,-3.062544856E-3,-8.388710208E-3,2.796236658E-3
3.861928530E1,-3.595161485E-3,-8.388710208E-3,-2.529928461E-3
3.865976431E1,-4.394086078E-3,-2.529928461E-3,-4.127778113E-3
3.870024634E1,-7.323476952E-3,1.731003635E-3,-6.657706108E-4
3.874074681E1,-4.394086078E-3,2.796236658E-3,-6.657706108E-4
3.878119999E1,-4.926702939E-3,-2.796236658E-3,-4.127778113E-3
3.882168290E1,-5.725627299E-3,-3.328853287E-3,-3.861469682E-3
3.886216420E1,-6.524552125E-3,-9.453942999E-3,-3.595161485E-3
3.890266936E1,-1.078548469E-2,-1.131810062E-2,-2.796236658E-3
3.894316155E1,-1.504641678E-2,-1.211702544E-2,-2.796236658E-3
3.898364723E1,-1.797580719E-2,-1.557903271E-2,-6.524552125E-3
3.902416978E1,-1.611164957E-2,-1.211702544E-2,-4.127778113E-3
3.906461947E1,-1.504641678E-2,-8.122402243E-3,-4.660394508E-3
3.910510384E1,-1.451379992E-2,-5.193010904E-3,-6.258244161E-3
3.914560691E1,-1.291595027E-2,-2.796236658E-3,-3.861469682E-3
3.918607129E1,-4.394086078E-3,-6.258244161E-3,1.198387123E-3
3.922654040E1,5.991935730E-3,-4.127778113E-3,5.991935730E-3
3.926702780E1,7.323476952E-3,-1.198387123E-3,8.122402243E-3
3.930755040E1,1.105179265E-2,6.258244161E-3,1.158440951E-2
3.934798650E1,1.770949923E-2,1.797580719E-2,1.824211515E-2
3.938849629E1,1.850842312E-2,2.330197208E-2,1.451379992E-2
3.942898405E1,1.371487509E-2,2.356828004E-2,1.731003635E-3
3.946945139E1,5.459319334E-3,1.930734888E-2,-1.211702544E-2
3.950998728E1,-3.994623839E-4,1.451379992E-2,-1.584534161E-2
3.955046619E1,-5.459319334E-3,7.856093347E-3,-2.529928461E-3
3.959094801E1,-7.589785382E-3,1.731003635E-3,8.921326138E-3
3.963143728E1,-3.861469682E-3,-1.238333434E-2,6.524552125E-3
3.967194342E1,-6.657706108E-4,-1.424749196E-2,3.994623839E-4
3.971240910E1,1.731003635E-3,-9.720250964E-3,-1.331541280E-4
3.975290025E1,1.731003635E-3,-6.657706108E-4,-2.796236658E-3
3.979340197E1,1.464695437E-3,5.725627299E-3,-7.323476952E-3
3.983389020E1,1.464695437E-3,7.057168987E-3,-7.856093347E-3
3.987435686E1,-6.657706108E-4,6.790860556E-3,-5.193010904E-3
3.991484525E1,-3.861469682E-3,5.193010904E-3,-4.394086078E-3
3.995533863E1,-3.861469682E-3,-1.464695437E-3,-2.263620263E-3
3.999583837E1,-9.320789250E-4,-1.025286783E-2,4.127778113E-3
4.003635150E1,1.331541280E-4,-1.185071748E-2,7.589785382E-3
4.007681691E1,1.331541280E-4,-9.453942999E-3,4.926702939E-3
4.011728014E1,-9.320789250E-4,-7.323476952E-3,3.062544856E-3
4.015778202E1,-2.263620263E-3,2.263620263E-3,-6.657706108E-4
4.019822400E1,-1.464695437E-3,3.062544856E-3,-3.595161485E-3
4.023871264E1,3.994623839E-4,3.861469682E-3,-5.725627299E-3
4.027923061E1,9.320789250E-4,4.127778113E-3,-6.790860556E-3
4.031974858E1,-3.328853287E-3,4.660394508E-3,-4.660394508E-3
4.036024285E1,-5.991935730E-3,5.725627299E-3,-1.731003635E-3
4.040070671E1,-6.258244161E-3,2.796236658E-3,3.994623839E-4
4.044118165E1,-4.394086078E-3,1.997311832E-3,-1.331541280E-4
4.048164894E1,1.464695437E-3,-3.861469682E-3,-3.994623839E-4
4.052219207E1,2.796236658E-3,-6.790860556E-3,-3.994623839E-4
4.056270681E1,1.198387123E-3,-7.589785382E-3,-3.994623839E-4
4.060316494E1,-1.198387123E-3,-3.328853287E-3,-1.198387123E-3
4.064363264E1,-1.731003635E-3,-1.464695437E-3,1.997311832E-3
4.068413447E1,-2.263620263E-3,-1.464695437E-3,1.331541280E-4
4.072460811E1,-3.861469682E-3,-1.464695437E-3,-1.997311832E-3
4.076506452E1,-1.997311832E-3,9.320789250E-4,-3.328853287E-3
4.080556827E1,-1.731003635E-3,1.731003635E-3,-2.796236658E-3
4.084609879E1,3.994623839E-4,6.657706108E-4,-4.660394508E-3
4.088659697E1,1.997311832E-3,-1.331541280E-4,-4.127778113E-3
4.092703603E1,-1.997311832E-3,1.331541280E-4,1.331541280E-4
4.096749488E1,-1.997311832E-3,2.796236658E-3,-1.331541280E-4
4.100798629E1,-2.529928461E-3,1.331541280E-4,-1.331541280E-4
4.104847655E1,-1.997311832E-3,-1.331541280E-4,-1.331541280E-4
4.108895525E1,-3.328853287E-3,2.796236658E-3,-2.796236658E-3
4.112946546E1,-3.328853287E-3,9.320789250E-4,-2.529928461E-3
4.116994530E1,-6.657706108E-4,9.320789250E-4,-2.529928461E-3
4.121043186E1,2.263620263E-3,-2.529928461E-3,-1.198387123E-3
4.125088889E1,6.657706108E-4,-6.657706108E-4,-2.263620263E-3
4.129140941E1,-9.320789250E-4,-3.062544856E-3,-9.320789250E-4
4.133188108E1,-1.997311832E-3,-3.994623839E-4,-2.263620263E-3
4.137237504E1,-9.320789250E-4,-2.263620263E-3,-2.263620263E-3
4.141291285E1,-1.331541280E-4,-6.657706108E-4,-4.127778113E-3
4.145332061E1,1.731003635E-3,-3.994623839E-4,-4.926702939E-3
4.149383066E1,-6.657706108E-4,9.320789250E-4,-5.193010904E-3
4.153432978E1,-1.997311832E-3,2.529928461E-3,-3.062544856E-3
4.157484983E1,-1.198387123E-3,2.796236658E-3,-3.062544856E-3
4.161535108E1,-1.198387123E-3,3.595161485E-3,-5.193010904E-3
4.165579749E1,5.459319334E-3,1.451379992E-2,-3.861469682E-3
4.169627598E1,1.904104091E-2,6.617759913E-2,-3.595161485E-3
4.173682082E1,2.649767138E-2,1.708367467E-1,1.877473295E-2
4.177730639E1,-2.197043039E-2,2.527265251E-1,5.845466256E-2
4.181772884E1,-1.005313694E-1,1.197055578E-1,4.540555924E-2
4.185825280E1,-1.042596847E-1,1.146457046E-1,3.422060981E-2
4.189876197E1,-6.271559745E-2,6.750914454E-2,2.356828004E-2
4.193916978E1,-7.496577501E-2,6.244928762E-2,1.079879999E-1
4.197965535E1,-6.524552125E-3,1.242327988E-1,1.487331539E-1
4.202019384E1,-9.320789250E-4,1.495320797E-1,2.038589716E-1
4.206067004E1,-4.460663348E-2,1.793586165E-1,3.061213493E-1
4.210114035E1,-8.615072072E-2,1.367492825E-1,2.901428342E-1
4.214162337E1,-8.801487833E-2,4.167724028E-2,2.376801223E-1
4.218212020E1,3.501953557E-2,6.777545065E-2,1.316894293E-1
4.222260577E1,1.832200736E-1,5.073172227E-2,9.320789250E-4
4.226306780E1,1.629806459E-1,6.524552125E-3,-8.388710208E-3
4.230355520E1,1.466026902E-1,9.999874979E-2,5.872096866E-2
4.234407988E1,1.541924775E-1,1.902772486E-1,-2.063889056E-2
4.238454270E1,1.619154215E-1,8.774857223E-2,-7.017222792E-2
4.242506400E1,2.077204436E-1,-1.242327988E-1,-2.150439173E-1
4.246550082E1,2.551233172E-1,-1.644453406E-1,-3.139774203E-1
4.250600420E1,3.115806580E-1,-2.969337068E-2,-1.258306503E-1
4.254651686E1,2.474003732E-1,1.644453406E-1,2.062557489E-1
4.258700681E1,3.174394369E-1,4.050548673E-1,2.147776037E-1
4.262745478E1,2.356828004E-1,3.190372884E-1,1.617822647E-1
4.266791941E1,2.844172120E-1,1.940055639E-1,1.415428370E-1
4.270846014E1,4.053211510E-1,1.790923029E-1,7.256899774E-2
4.274896660E1,5.211652517E-1,1.572550237E-1,1.404775977E-1
4.278943233E1,5.208989382E-1,1.026618332E-1,1.671084315E-1
4.282991920E1,5.139749050E-1,4.993279651E-2,1.649779677E-1
4.287039707E1,3.999949992E-1,1.015966013E-1,1.676410437E-1
4.291088728E1,2.484655976E-1,4.540555924E-2,7.816147059E-2
4.295136936E1,1.319557428E-1,5.472634733E-2,2.889444493E-2
4.299186014E1,6.031882018E-2,5.366111174E-2,4.434032366E-2
4.303236030E1,3.528584540E-2,6.591129303E-2,9.813459218E-2
4.307285176E1,5.872096866E-2,3.155753016E-2,4.886756465E-2
4.311333061E1,4.993279651E-2,3.661738336E-2,6.564498693E-2
4.315381816E1,6.005251035E-2,5.193010904E-3,6.031882018E-2
4.319430129E1,2.356828004E-2,-3.528584540E-2,5.978620425E-2
4.323478738E1,-3.209014609E-2,-7.629731297E-2,4.540555924E-2
4.327526827E1,-8.828118443E-2,-8.135717362E-2,4.274247587E-2
4.331574723E1,-9.999874979E-2,-1.143793985E-1,-3.182383627E-2
4.335625723E1,-1.135804728E-1,-1.817553788E-1,-2.296908647E-1
4.339676311E1,-1.607170254E-1,-3.681711555E-1,-5.256925225E-1
4.343721926E1,-1.647116542E-1,-5.792204738E-1,-7.030537724E-1
4.347768223E1,-1.300915778E-1,-4.796211720E-1,-5.928021669E-1
4.351816853E1,1.744319126E-2,-1.601844132E-1,-3.291569948E-1
4.355867353E1,1.380808353E-1,2.354165018E-1,1.194392517E-1
4.359916572E1,7.789516449E-2,4.378107786E-1,4.790885448E-1
4.363966853E1,-7.682993263E-2,1.673747450E-1,3.685706258E-1
4.368015874E1,-1.356840581E-1,-1.071890742E-1,7.310161740E-2
4.372064874E1,-3.395430371E-2,-1.229012609E-1,4.860125855E-2
4.376114082E1,-1.997311832E-3,1.221023351E-1,3.231650591E-1
4.380164494E1,-7.443315536E-2,1.093195379E-1,2.115819156E-1
4.384209488E1,-9.094426781E-2,-7.443315536E-2,-2.649767138E-2
4.388258296E1,-1.617822647E-1,-2.656424940E-1,-2.046578974E-1
4.392308608E1,-1.942718774E-1,-3.761604130E-1,-3.818860352E-1
4.396357514E1,-1.371487509E-2,4.513924941E-2,7.603100687E-2
4.400407587E1,-6.564498693E-2,4.500609636E-1,6.495258212E-1
4.404453467E1,-1.420754492E-1,1.500647068E-1,2.922733128E-1
4.408501994E1,-1.814890802E-1,-1.756303012E-1,-1.037270650E-1
4.412549249E1,-2.403431982E-1,-4.426043332E-1,-3.477985859E-1
4.416600457E1,-2.043915838E-1,-3.687037826E-1,-3.126458824E-1
4.420650962E1,1.824211515E-2,2.689713240E-1,3.925383687E-1
4.424696566E1,-6.750914454E-2,3.371462524E-1,4.631100595E-1
4.428748790E1,-3.182383627E-2,2.623136342E-2,-1.637795754E-2
4.432795212E1,-7.922670245E-2,-3.468665183E-1,-4.125114977E-1
4.436841494E1,-4.434032366E-2,-4.748276174E-1,-6.226286888E-1
4.440896733E1,7.922670245E-2,6.910699606E-2,3.155753016E-2
4.444935644E1,3.595161485E-3,5.208989382E-1,6.753577590E-1
4.448990108E1,5.725627299E-3,2.753627300E-1,3.364804685E-1
4.453038170E1,2.263620263E-3,-1.135804728E-1,-1.679073572E-1
4.457091618E1,3.328853287E-3,-4.194355011E-1,-5.419372916E-1
4.461135681E1,6.271559745E-2,-2.730991244E-1,-4.665720761E-1
4.465186139E1,7.736254483E-2,3.557878435E-1,4.029243886E-1
4.469233405E1,-2.862813696E-2,4.231638312E-1,5.416709781E-1
4.473282441E1,2.489982173E-2,4.460663348E-2,7.123745978E-2
4.477331046E1,2.356828004E-2,-3.141105771E-1,-3.818860352E-1
4.481382915E1,4.487293959E-2,-4.556534290E-1,-6.170362234E-1
4.485426483E1,6.617759913E-2,2.729659714E-2,-2.463351376E-2
4.489475181E1,-7.842778414E-2,4.210333526E-1,5.635082722E-1
4.493525879E1,-5.046541616E-2,2.199706137E-1,3.162410557E-1
4.497574577E1,-1.584534161E-2,-1.378145218E-1,-1.497983932E-1
4.501626244E1,-1.318225823E-2,-3.860138059E-1,-4.862788618E-1
4.505676170E1,-1.478010789E-2,-2.041252851E-1,-3.536573648E-1
4.509717733E1,-2.170412242E-2,3.432713449E-1,4.971975088E-1
4.513767150E1,-1.039933711E-1,3.619129062E-1,6.204982400E-1
4.517812978E1,-2.276935615E-2,-1.797580719E-2,1.178414002E-1
4.521861681E1,1.291595027E-2,-3.553883731E-1,-3.147763610E-1
4.525913233E1,-1.744319126E-2,-4.764254689E-1,-5.025236607E-1
4.529963186E1,-3.129122034E-2,-2.543243766E-2,-3.315537795E-2
4.534009363E1,-1.226349548E-1,4.005276263E-1,6.162372828E-1
4.538059124E1,-1.362166703E-1,2.118482143E-1,3.810871243E-1
4.542110920E1,-8.029194176E-2,-1.324883550E-1,-1.133141592E-1
4.546154967E1,-9.706936032E-2,-4.202344418E-1,-4.718982279E-1
4.550212535E1,-1.146457046E-1,-3.543231487E-1,-4.641752839E-1
4.554255285E1,-8.828118443E-2,2.161091566E-1,3.667064607E-1
4.558307217E1,-1.343525201E-1,3.786903322E-1,6.322157979E-1
4.562354837E1,-5.046541616E-2,8.188978583E-2,1.908098608E-1
4.566402238E1,-6.644391268E-2,-2.717675865E-1,-2.677729428E-1
4.570454869E1,-8.801487833E-2,-4.790885448E-1,-5.509917736E-1
4.574498822E1,-9.893351793E-2,-1.380808353E-1,-1.428743750E-1
4.578548009E1,-1.026618332E-1,2.841508985E-1,5.432688594E-1
4.582598212E1,-6.258244161E-3,2.388785034E-1,3.991960883E-1
4.586649223E1,4.127778113E-3,-5.312849581E-2,-3.395430371E-2
4.590698546E1,-4.993279651E-2,-3.087844253E-1,-3.462007344E-1
4.594747197E1,-9.174319357E-2,-3.521926701E-1,-4.212996662E-1
4.598789785E1,-4.460663348E-2,5.286218971E-2,7.283531129E-2
4.602839889E1,2.489982173E-2,3.339505494E-1,4.276910722E-1
4.606890587E1,6.830807030E-2,2.174406946E-1,2.038589716E-1
4.610937613E1,1.198387123E-3,-8.375394344E-2,-1.170424819E-1
4.614986556E1,-2.756290510E-2,-2.217016220E-1,-2.828193605E-1
4.619035551E1,3.928046674E-2,5.525896326E-2,9.600412846E-2
4.623084020E1,7.057168987E-3,3.573856652E-1,4.918713570E-1
4.627132171E1,1.051917579E-2,1.905435622E-1,2.573869228E-1
4.631181483E1,9.320789250E-4,-9.254211932E-2,-9.946613014E-2
4.635230895E1,-4.380770773E-2,-2.872134447E-1,-3.118469715E-1
4.639278728E1,-1.398118306E-2,-1.561897993E-1,-1.303578913E-1
4.643325994E1,2.410089783E-2,1.937392503E-1,2.842840552E-1
4.647372869E1,7.816147059E-2,2.105166763E-1,1.596518010E-1
4.651424884E1,1.202381775E-1,2.223674022E-2,-1.276948154E-1
4.655474280E1,3.528584540E-2,-1.500647068E-1,-3.206351399E-1
4.659525926E1,4.647079110E-2,-2.379464209E-1,-4.724308550E-1
4.663572238E1,1.404775977E-1,1.511299312E-1,6.644391268E-2
4.667617217E1,7.629731297E-2,4.300878346E-1,4.985290468E-1
4.671666394E1,8.721595258E-2,1.876141727E-1,1.444722265E-1
4.675714978E1,4.141093418E-2,-1.186403260E-1,-2.137123793E-1
4.679761926E1,-4.926702939E-3,-3.532578945E-1,-4.756265581E-1
4.683809275E1,6.884068251E-2,-2.659088075E-1,-4.559197426E-1
4.687857994E1,1.463363916E-1,2.442046702E-1,1.868152469E-1
4.691909155E1,9.467258304E-2,4.231638312E-1,4.053211510E-1
4.695959098E1,8.774857223E-2,9.467258304E-2,7.762885839E-2
4.700010941E1,9.720250964E-3,-2.174406946E-1,-2.414084375E-1
4.704060405E1,-2.090519853E-2,-3.489969671E-1,-4.146419466E-1
4.708107155E1,6.790860556E-3,-6.244928762E-2,-8.082455397E-2
4.712154863E1,-6.085143611E-2,3.043903410E-1,4.375444651E-1
4.716203811E1,-6.990591437E-2,2.046578974E-1,3.403419554E-1
4.720252728E1,-8.375394344E-2,-1.141130850E-1,-1.185071748E-2
4.724298900E1,-9.254211932E-2,-3.388772607E-1,-2.969337106E-1
4.728348040E1,-9.014534205E-2,-3.071865737E-1,-3.118469715E-1
4.732399270E1,-6.910699606E-2,1.061238423E-1,1.932066381E-1
4.736447124E1,-8.987903595E-2,2.804225981E-1,4.324845970E-1
4.740498316E1,-5.552527308E-2,7.922670245E-2,1.703041345E-1
4.744539197E1,-8.854749799E-2,-1.756303012E-1,-1.420754492E-1
4.748595697E1,-1.226349548E-1,-3.093170524E-1,-3.235645294E-1
4.752646790E1,-1.047922969E-1,-1.194392517E-1,-9.946613014E-2
4.756690618E1,-5.925358832E-2,2.129134536E-1,3.398093283E-1
4.760734775E1,-1.105179265E-2,2.137123793E-1,2.877460718E-1
4.764782275E1,-3.062544856E-3,-1.584534161E-2,-1.185071748E-2
4.768835770E1,-3.715000302E-2,-2.078536004E-1,-2.358159572E-1
4.772886181E1,-5.339480564E-2,-2.280930281E-1,-2.833519876E-1
4.776935905E1,-1.824211515E-2,8.428656310E-2,1.244991124E-1
4.780980717E1,-2.143781446E-2,2.505960763E-1,3.571193814E-1
4.785034139E1,3.595161485E-3,1.023955271E-1,1.404775977E-1
4.789081176E1,-1.731003635E-3,-1.290263534E-1,-1.442059278E-1
4.793130655E1,-1.664426550E-2,-2.446041405E-1,-3.134448230E-1
4.797178592E1,1.078548469E-2,-5.193010904E-3,-2.276935615E-2
4.801225238E1,-1.797580719E-2,2.508623898E-1,3.364804685E-1
4.805276837E1,5.991935730E-3,1.356840581E-1,1.817553788E-1
4.809324358E1,8.388710208E-3,-1.191729456E-1,-1.431406885E-1
4.813372280E1,4.926702939E-3,-2.544575334E-1,-3.400756419E-1
4.817422697E1,2.410089783E-2,-2.543243766E-2,-8.774857223E-2
4.821471405E1,-3.315537795E-2,2.785584331E-1,3.507279754E-1
4.825517280E1,1.185071748E-2,2.022611201E-1,2.592510879E-1
4.829567264E1,3.262276202E-2,-6.138405204E-2,-5.392742157E-2
4.833620134E1,9.720250964E-3,-2.209026963E-1,-2.862813771E-1
4.837669176E1,5.193010904E-3,-1.782933772E-1,-2.860150635E-1
4.841711869E1,1.051917579E-2,1.596518010E-1,1.564560980E-1
4.845758744E1,-8.655018173E-3,2.639114857E-1,2.994636297E-1
4.849805301E1,2.623136342E-2,2.916075476E-2,6.058513001E-2
4.853854004E1,-8.921326138E-3,-1.585865617E-1,-1.854836941E-1
4.857910655E1,-3.475322574E-2,-2.576532364E-1,-3.272928596E-1
4.861958233E1,-1.451379992E-2,5.193010904E-3,-4.194355011E-2
4.866006665E1,-1.664426550E-2,3.094501793E-1,3.659075499E-1
4.870056217E1,4.780233279E-2,2.118482143E-1,2.379464209E-1
4.874104296E1,4.141093418E-2,-5.818835273E-2,-7.629731297E-2
4.878151660E1,1.584534161E-2,-2.358159572E-1,-3.073197305E-1
4.882204785E1,3.928046674E-2,-1.687062830E-1,-2.675066292E-1
4.886250030E1,3.635107726E-2,2.086525112E-1,2.448704392E-1
4.890296238E1,1.691057347E-2,2.876129150E-1,3.308880031E-1
4.894353546E1,4.380770773E-2,1.983996481E-2,3.794892505E-2
4.898402259E1,8.921326138E-3,-1.889457107E-1,-2.470009029E-1
4.902445223E1,1.930734888E-2,-2.472672164E-1,-3.579182923E-1
4.906491994E1,5.419373140E-2,9.227581322E-2,6.804175675E-2
4.910542686E1,1.198387123E-3,3.145100474E-1,3.464670479E-1
4.914591462E1,3.581846133E-2,1.093195379E-1,1.279611140E-1
4.918642384E1,-5.725627299E-3,-1.420754492E-1,-1.761629134E-1
4.922691082E1,-1.850842312E-2,-2.552564740E-1,-3.475322723E-1
4.926734436E1,3.715000302E-2,2.916075476E-2,1.331541280E-4
4.930783129E1,-1.983996481E-2,3.073197305E-1,3.848154247E-1
4.934831827E1,2.703028731E-2,1.442059278E-1,1.825543046E-1
4.938882160E1,1.584534161E-2,-1.298252791E-1,-1.561897993E-1
4.942930358E1,-5.991935730E-3,-2.595174015E-1,-3.065207899E-1
4.946977337E1,1.158440951E-2,-6.111774594E-2,-8.029194176E-2
4.951029994E1,-2.489982173E-2,2.177069932E-1,2.688381970E-1
4.955080087E1,1.464695437E-3,1.519288570E-1,1.881467849E-1
4.959129775E1,5.991935730E-3,-8.668334037E-2,-8.109086752E-2
4.963174259E1,1.691057347E-2,-1.916087866E-1,-2.485987544E-1
4.967224759E1,5.765573680E-2,7.949301600E-2,8.402025700E-2
4.971275749E1,-2.862813696E-2,2.964010835E-1,3.967992961E-1
4.975324957E1,-1.611164957E-2,1.159772426E-1,1.561897993E-1
4.979370900E1,6.657706108E-4,-1.258306503E-1,-1.647116542E-1
4.983420592E1,3.595161485E-3,-2.619141638E-1,-3.568530679E-1
4.987468275E1,4.434032366E-2,-5.286218971E-2,-1.585865617E-1
4.991517717E1,-3.209014609E-2,2.468677461E-1,2.944037914E-1
4.995565217E1,-3.155753016E-2,1.388797611E-1,2.118482143E-1
4.999614051E1,9.320789250E-4,-1.109173894E-1,-9.786828607E-2
5.003662822E1,3.994623839E-4,-2.789579034E-1,-3.347494900E-1
5.007711020E1,2.276935615E-2,-1.290263534E-1,-2.105166763E-1
5.011759712E1,-2.010627277E-2,2.537917793E-1,3.356815577E-1
5.015808447E1,-2.489982173E-2,2.182396203E-1,3.055887222E-1
5.019857150E1,8.921326138E-3,-5.685681105E-2,-3.954677656E-2
5.023905858E1,-6.258244161E-3,-2.571206093E-1,-3.259612918E-1
5.027955665E1,-5.459319334E-3,-2.267614752E-1,-3.597824574E-1
5.032004244E1,-7.323476952E-3,2.001306564E-1,2.142449915E-1
5.036053561E1,-4.407401755E-2,3.041240275E-1,3.853480518E-1
5.040103415E1,2.223674022E-2,3.395430371E-2,5.525896326E-2
5.044152457E1,8.122402243E-3,-2.163754553E-1,-2.726996541E-1
5.048195796E1,5.193010904E-3,-2.864145339E-1,-3.997286856E-1
5.052246822E1,1.637795754E-2,9.946613014E-2,1.223686412E-1
5.056298749E1,-4.593817517E-2,3.043903410E-1,4.055874646E-1
5.060348009E1,2.303566411E-2,8.082455397E-2,1.314231306E-1
5.064395467E1,1.158440951E-2,-1.825543046E-1,-2.091851383E-1
5.068441754E1,-5.459319334E-3,-3.274259865E-1,-4.274247587E-1
5.072489296E1,1.238333434E-2,-9.187635034E-3,-4.593817517E-2
5.076539598E1,-5.845466256E-2,3.139774203E-1,4.263595045E-1
5.080589962E1,1.731003635E-3,1.732335240E-1,2.406095117E-1
5.084638556E1,1.185071748E-2,-1.173087880E-1,-1.343525201E-1
5.088687040E1,-1.464695437E-3,-2.946700752E-1,-3.933372796E-1
5.092735816E1,1.637795754E-2,-6.085143611E-2,-1.314231306E-1
5.096784592E1,-3.901416063E-2,2.636451721E-1,3.268933892E-1
5.100833369E1,4.127778113E-3,1.966686398E-1,2.280930281E-1
5.104882144E1,1.637795754E-2,-8.428656310E-2,-8.774857223E-2
5.108929197E1,3.994623839E-4,-2.794905007E-1,-3.419398069E-1
5.112976754E1,9.187635034E-3,-1.540593207E-1,-2.360822707E-1
5.117027566E1,-2.090519853E-2,2.268946320E-1,3.053224087E-1
5.121076264E1,-1.637795754E-2,2.572537661E-1,3.316869438E-1
5.125122025E1,9.720250964E-3,-2.676397935E-2,1.464695437E-3
5.129172624E1,-9.320789250E-4,-2.496639937E-1,-3.027924895E-1
5.133222681E1,-9.986559860E-3,-2.749632597E-1,-3.896089792E-1
5.137272478E1,-3.861469682E-3,1.039933711E-1,8.135717362E-2
5.141320920E1,-2.543243766E-2,3.214340508E-1,3.816197217E-1
5.145365233E1,2.836182900E-2,1.021292135E-1,1.580539495E-1
5.149416822E1,9.986559860E-3,-1.410102248E-1,-1.548582464E-1
5.153464863E1,-1.025286783E-2,-2.691044807E-1,-3.384777904E-1
5.157511749E1,1.331541280E-4,-2.596505545E-2,-7.070484012E-2
5.161564900E1,-2.942706272E-2,2.479329854E-1,3.071865737E-1
5.165610275E1,1.824211515E-2,1.553908736E-1,2.081198990E-1
5.169658863E1,1.797580719E-2,-8.668334037E-2,-7.949301600E-2
5.173710749E1,-2.796236658E-3,-2.451367527E-1,-2.950695455E-1
5.177753540E1,-1.318225823E-2,-1.375482082E-1,-2.334191799E-1
5.181802176E1,-2.250304818E-2,2.051905096E-1,2.504629195E-1
5.185850905E1,-5.459319334E-3,2.442046702E-1,3.162410557E-1
5.189904426E1,2.410089783E-2,-2.796236658E-3,3.315537795E-2
5.193953587E1,7.057168987E-3,-1.980001926E-1,-2.302234918E-1
5.197998363E1,-1.637795754E-2,-2.504629195E-1,-3.477985859E-1
5.202055066E1,-1.478010789E-2,4.513924941E-2,-1.198387123E-3
5.206097848E1,-2.889444493E-2,2.697702646E-1,3.300890923E-1
5.210146759E1,2.729659714E-2,1.229012609E-1,1.830869317E-1
5.214194051E1,1.824211515E-2,-1.071890742E-1,-9.999874979E-2
5.218245478E1,-6.524552125E-3,-2.456693649E-1,-2.961347699E-1
5.222294145E1,-1.983996481E-2,-9.973244369E-2,-1.769618392E-1
5.226341165E1,-1.584534161E-2,2.247641683E-1,2.664414048E-1
5.230391061E1,1.824211515E-2,2.372806519E-1,2.842840552E-1
5.234439868E1,2.543243766E-2,-9.187635034E-3,1.078548469E-2
5.238487587E1,6.657706108E-4,-1.956034154E-1,-2.310224175E-1
5.242540483E1,-1.584534161E-2,-2.392779738E-1,-3.251623809E-1
5.246578926E1,2.263620263E-3,6.431344151E-2,3.794892505E-2
5.250640874E1,-1.051917579E-2,2.852161527E-1,3.560541272E-1
5.254687947E1,3.848154470E-2,1.165098622E-1,1.828206182E-1
5.258726087E1,1.424749196E-2,-1.087869257E-1,-1.114500016E-1
5.262774770E1,-1.078548469E-2,-2.536586225E-1,-3.145100474E-1
5.266830134E1,-2.063889056E-2,-1.149120107E-1,-2.150439173E-1
5.270877061E1,-2.676397935E-2,2.009295821E-1,2.288919389E-1
5.274926790E1,5.459319334E-3,2.306229472E-1,2.965342402E-1
5.278975764E1,2.037258074E-2,-5.725627299E-3,4.007939249E-2
5.283026103E1,4.394086078E-3,-1.857500076E-1,-2.030600458E-1
5.287073749E1,-2.037258074E-2,-2.446041405E-1,-3.217003644E-1
5.291121124E1,-1.691057347E-2,-2.796236658E-3,-8.588441461E-2
5.295168915E1,-2.063889056E-2,2.876129150E-1,3.776251078E-1
5.299219410E1,1.637795754E-2,1.881467849E-1,2.936048508E-1
5.303270900E1,2.916075476E-2,-6.910699606E-2,-2.862813696E-2
5.307318066E1,4.926702939E-3,-2.315550297E-1,-2.701697350E-1
5.311366389E1,-1.983996481E-2,-1.841521561E-1,-2.950695455E-1
5.315414368E1,-1.904104091E-2,1.468690038E-1,1.314231306E-1
5.319463108E1,-1.211702544E-2,2.705691755E-1,3.322195411E-1
5.323511879E1,3.368799388E-2,4.966649041E-2,1.023955271E-1
5.327560822E1,1.930734888E-2,-1.572550237E-1,-1.719019860E-1
5.331610202E1,-1.264964230E-2,-2.659088075E-1,-3.384777904E-1
5.335660957E1,-2.330197208E-2,-5.765573680E-2,-1.463363916E-1
5.339709285E1,-3.315537795E-2,2.503297627E-1,3.114475012E-1
5.343752301E1,1.131810062E-2,1.857500076E-1,2.659088075E-1
5.347800155E1,2.276935615E-2,-9.174319357E-2,-8.535179496E-2
5.351850598E1,7.856093347E-3,-2.616478503E-1,-3.259612918E-1
5.355901863E1,-2.516612969E-2,-1.737661362E-1,-2.664414048E-1
5.359949025E1,-3.262276202E-2,1.535267085E-1,1.564560980E-1
5.363999447E1,-1.238333434E-2,2.764279842E-1,3.603150845E-1
5.368047488E1,2.995967865E-2,5.499265343E-2,1.332872808E-1
5.372098020E1,2.170412242E-2,-1.468690038E-1,-1.458037645E-1
5.376147384E1,-8.122402243E-3,-2.278267145E-1,-2.985315621E-1
5.380195827E1,-1.185071748E-2,-1.158440951E-2,-7.816147059E-2
5.384243582E1,-2.489982173E-2,2.370143533E-1,2.800231278E-1
5.388289822E1,1.611164957E-2,1.601844132E-1,2.163754553E-1
5.392337561E1,2.090519853E-2,-6.644391268E-2,-4.327509180E-2
5.396386264E1,6.657706108E-4,-2.033263594E-1,-2.451367527E-1
5.400439275E1,-2.410089783E-2,-1.804238409E-1,-2.825530469E-1
5.404488994E1,-4.167724028E-2,4.806863889E-2,9.320789250E-4
5.408534728E1,-2.436720580E-2,1.487331539E-1,1.956034154E-1
5.412581947E1,2.197043039E-2,1.398118306E-2,4.540555924E-2
5.416634837E1,2.463351376E-2,-9.733566642E-2,-1.127815470E-1
5.420685712E1,1.637795754E-2,-4.940018058E-2,-5.898727849E-2
5.424727254E1,9.453942999E-3,8.615072072E-2,7.789516449E-2
5.428774436E1,1.025286783E-2,1.255643368E-1,1.029281393E-1
5.432824165E1,8.655018173E-3,2.489982173E-2,3.315537795E-2
5.436872061E1,-9.720250964E-3,-6.537867337E-2,-6.750914454E-2
5.440923061E1,-3.928046674E-2,-1.276948154E-1,-1.556571722E-1
5.444968134E1,-4.220985994E-2,-1.383471340E-1,-1.908098608E-1
5.449021686E1,-4.327509180E-2,-8.801487833E-2,-1.178414002E-1
5.453072811E1,-4.061200842E-2,-8.295502514E-2,-1.205044836E-1
5.457120134E1,-2.117150649E-2,-9.493889660E-2,-1.415428370E-1
5.461171853E1,-1.691057347E-2,-7.070484012E-2,-1.218360290E-1
5.465217431E1,-2.942706272E-2,-1.904104091E-2,-8.721595258E-2
5.469264884E1,-2.942706272E-2,-4.394086078E-3,-7.097115368E-2
5.473313874E1,-8.122402243E-3,-4.114462435E-2,-7.896039635E-2
5.477362066E1,7.323476952E-3,-5.073172227E-2,-6.031882018E-2
5.481414270E1,2.796236658E-3,-4.513924941E-2,-3.528584540E-2
5.485462296E1,-5.193010904E-3,-3.315537795E-2,-1.904104091E-2
5.489510952E1,-1.105179265E-2,-1.557903271E-2,1.105179265E-2
5.493557436E1,-6.790860556E-3,2.796236658E-3,3.368799388E-2
5.497606113E1,-1.051917579E-2,-5.459319334E-3,2.796236658E-3
5.501659499E1,-1.398118306E-2,-1.957365684E-2,-2.756290510E-2
5.505701592E1,-7.589785382E-3,-1.131810062E-2,-1.717688330E-2
5.509750223E1,-5.459319334E-3,4.926702939E-3,-8.388710208E-3
5.513798868E1,-2.529928461E-3,8.655018173E-3,6.258244161E-3
5.517847504E1,3.861469682E-3,3.182383627E-2,5.552527308E-2
5.521896145E1,4.647079110E-2,1.292926520E-1,2.206363827E-1
5.525945806E1,6.404713541E-2,2.244978547E-1,3.917394578E-1
5.529996874E1,5.366111174E-2,1.394123733E-1,2.587184608E-1
5.534043650E1,2.756290510E-2,1.584534161E-2,4.354140162E-2
5.538094744E1,4.926702939E-3,-7.230269164E-2,-1.178414002E-1
5.542144280E1,-3.595161485E-3,-4.487293959E-2,-1.239664927E-1
5.546187660E1,1.997311832E-3,4.993279651E-2,-1.584534161E-2
5.550240504E1,1.398118306E-2,9.227581322E-2,5.579157919E-2
5.554287827E1,1.371487509E-2,3.794892505E-2,2.756290510E-2
5.558342983E1,1.198387123E-3,-2.809552103E-2,-2.782921307E-2
5.562388363E1,-4.926702939E-3,-4.593817517E-2,-3.022598661E-2
5.566435332E1,-2.796236658E-3,-1.078548469E-2,2.529928461E-3
5.570482020E1,4.127778113E-3,1.504641678E-2,2.276935615E-2
5.574530915E1,6.790860556E-3,1.997311832E-3,4.394086078E-3
5.578580421E1,3.595161485E-3,-1.957365684E-2,-1.983996481E-2
5.582632165E1,-1.198387123E-3,-1.185071748E-2,-1.664426550E-2
5.586682697E1,-6.790860556E-3,8.122402243E-3,3.062544856E-3
5.590731478E1,-7.856093347E-3,9.986559860E-3,5.459319334E-3
5.594780259E1,-1.997311832E-3,1.464695437E-3,-6.258244161E-3
5.598820577E1,-1.997311832E-3,-1.198387123E-3,-4.926702939E-3
5.602870337E1,-1.464695437E-3,6.790860556E-3,3.595161485E-3
5.606921994E1,-5.725627299E-3,6.524552125E-3,4.127778113E-3
5.610972077E1,-3.861469682E-3,-2.529928461E-3,-1.464695437E-3
5.615019259E1,-6.657706108E-4,-3.328853287E-3,-3.861469682E-3
5.619067025E1,3.994623839E-4,3.994623839E-4,-6.657706108E-4
5.623115723E1,1.198387123E-3,-1.331541280E-4,9.320789250E-4
5.627164910E1,1.331541280E-4,-2.529928461E-3,-1.331541280E-4
5.631214108E1,1.331541280E-4,-1.997311832E-3,-1.331541280E-4
5.635262613E1,-2.796236658E-3,-1.198387123E-3,9.320789250E-4
5.639313837E1,-4.127778113E-3,-3.994623839E-4,-1.464695437E-3
5.643359306E1,-3.328853287E-3,-1.731003635E-3,-4.127778113E-3
5.647405717E1,-1.731003635E-3,-9.320789250E-4,-2.529928461E-3
5.651459009E1,-1.331541280E-4,-1.464695437E-3,-1.464695437E-3
5.655508644E1,-6.657706108E-4,-9.320789250E-4,-3.994623839E-4
5.659560592E1,-2.796236658E-3,9.320789250E-4,-1.997311832E-3
5.663606822E1,-3.861469682E-3,1.198387123E-3,-1.731003635E-3
5.667653879E1,-3.595161485E-3,1.731003635E-3,-1.997311832E-3
5.671697858E1,-3.328853287E-3,-3.994623839E-4,-1.198387123E-3
5.675746561E1,-2.529928461E-3,6.657706108E-4,-6.657706108E-4
5.679794863E1,-2.529928461E-3,6.657706108E-4,-1.331541280E-4
5.683842764E1,3.994623839E-4,-1.198387123E-3,-1.198387123E-3
5.687895816E1,-1.198387123E-3,-1.198387123E-3,1.331541280E-4
5.691945967E1,-2.796236658E-3,-1.731003635E-3,3.994623839E-4
5.695994301E1,-4.127778113E-3,-1.331541280E-4,3.994623839E-4
5.700046259E1,-1.464695437E-3,-2.263620263E-3,3.994623839E-4
5.704093879E1,6.657706108E-4,-2.263620263E-3,-1.731003635E-3
5.708140025E1,-3.062544856E-3,-3.994623839E-4,-1.997311832E-3
5.712189936E1,4.926702939E-3,2.330197208E-2,2.623136342E-2
5.716237853E1,2.729659714E-2,1.303578913E-1,1.892120093E-1
5.720285728E1,3.262276202E-2,1.825543046E-1,2.549901605E-1
5.724334514E1,3.102491237E-2,1.002650559E-1,1.527277827E-1
5.728383280E1,2.090519853E-2,1.078548469E-2,3.741630912E-2
5.732431181E1,8.655018173E-3,-1.158440951E-2,5.193010904E-3
5.736480379E1,-1.078548469E-2,-9.320789250E-4,3.062544856E-3
5.740531587E1,-1.185071748E-2,-1.051917579E-2,-2.623136342E-2
5.744581358E1,-1.264964230E-2,-3.422060981E-2,-4.886756465E-2
5.748629098E1,-2.995967865E-2,-4.780233279E-2,-7.629731297E-2
5.752677936E1,-8.162347972E-2,-1.957365684E-2,-8.535179496E-2
5.756721848E1,-1.058575287E-1,-4.274247587E-2,-6.378082931E-2
5.760768837E1,-9.014534205E-2,-8.535179496E-2,-5.579157919E-2
5.764817592E1,-1.291595027E-2,-6.537867337E-2,-2.942706272E-2
5.768871853E1,-5.193010904E-3,-3.901416063E-2,7.057168987E-3
5.772920129E1,1.997311832E-3,-1.131810062E-2,1.531272475E-2
5.776968624E1,1.557903271E-2,1.105179265E-2,3.475322574E-2
5.781019030E1,2.543243766E-2,6.005251035E-2,8.801487833E-2
5.785068337E1,2.463351376E-2,8.828118443E-2,1.324883550E-1
5.789114577E1,3.062544856E-3,6.138405204E-2,9.653674066E-2
5.793161608E1,1.731003635E-3,-1.731003635E-3,1.318225823E-2
5.797210384E1,1.717688330E-2,-4.540555924E-2,-5.712312087E-2
5.801262681E1,1.717688330E-2,-4.087831825E-2,-9.467258304E-2
5.805311426E1,8.122402243E-3,-2.676397935E-2,-9.680305421E-2
5.809360494E1,-7.589785382E-3,-1.211702544E-2,-8.961272985E-2
5.813408353E1,-9.453942999E-3,-4.660394508E-3,-8.188978583E-2
5.817457238E1,1.691057347E-2,-5.459319334E-3,-6.511236727E-2
5.821506014E1,3.235645220E-2,1.051917579E-2,4.660394508E-3
5.825552014E1,3.315537795E-2,6.431344151E-2,1.316894293E-1
5.829602420E1,3.342168778E-2,7.310161740E-2,1.551245600E-1
5.833655066E1,1.797580719E-2,1.983996481E-2,8.268871158E-2
5.837699556E1,-1.331541280E-4,-2.463351376E-2,2.796236658E-3
5.841745499E1,-1.584534161E-2,-4.220985994E-2,-4.061200842E-2
5.845794275E1,-2.223674022E-2,-2.489982173E-2,-6.511236727E-2
5.849843051E1,-1.904104091E-2,-1.131810062E-2,-7.203638554E-2
5.853891827E1,-6.790860556E-3,-1.904104091E-2,-8.615072072E-2
5.857944665E1,-1.464695437E-3,-2.862813696E-2,-7.922670245E-2
5.861992926E1,-4.926702939E-3,-2.197043039E-2,-4.886756465E-2
5.866043004E1,-5.193010904E-3,-1.451379992E-2,-1.850842312E-2
5.870088931E1,2.529928461E-3,-5.193010904E-3,2.529928461E-3
5.874139191E1,1.611164957E-2,3.395430371E-2,7.416684926E-2
5.878186395E1,2.090519853E-2,7.390054315E-2,1.420754492E-1
5.882239796E1,2.489982173E-2,4.513924941E-2,8.322133124E-2
5.886284665E1,2.117150649E-2,1.997311832E-3,7.589785382E-3
5.890334634E1,-4.394086078E-3,-2.170412242E-2,-3.049229458E-2
5.894381561E1,-2.916075476E-2,-2.729659714E-2,-5.019910634E-2
5.898430301E1,-3.235645220E-2,-2.569874749E-2,-5.925358832E-2
5.902482863E1,-2.543243766E-2,-3.368799388E-2,-6.724283099E-2
5.906526952E1,-1.131810062E-2,-3.528584540E-2,-6.378082931E-2
5.910577941E1,-1.731003635E-3,-2.436720580E-2,-4.220985994E-2
5.914629124E1,6.258244161E-3,-1.051917579E-2,-2.063889056E-2
5.918679806E1,1.025286783E-2,1.025286783E-2,1.331541280E-4
5.922728671E1,2.836182900E-2,7.443315536E-2,1.037270650E-1
5.926777509E1,3.528584540E-2,1.332872808E-1,1.956034154E-1
5.930815535E1,2.862813696E-2,8.295502514E-2,1.234338731E-1
5.934868103E1,8.388710208E-3,-3.328853287E-3,2.356828004E-2
5.938916296E1,-9.187635034E-3,-4.034570232E-2,-1.850842312E-2
5.942966494E1,-2.143781446E-2,-4.167724028E-2,-4.434032366E-2
5.947012744E1,-2.276935615E-2,-3.209014609E-2,-5.765573680E-2
5.951065176E1,-2.703028731E-2,-4.993279651E-2,-8.641702682E-2
5.955112202E1,-1.770949923E-2,-7.363422960E-2,-1.258306503E-1
5.959163014E1,-1.158440951E-2,-5.765573680E-2,-1.205044836E-1
5.963213723E1,-6.258244161E-3,-1.078548469E-2,-6.218297780E-2
5.967259494E1,8.388710208E-3,4.647079110E-2,2.516612969E-2
5.971307650E1,3.661738336E-2,1.242327988E-1,1.695052087E-1
5.975356170E1,4.087831825E-2,1.591191888E-1,2.533923090E-1
5.979405249E1,1.478010789E-2,8.694964647E-2,1.862826198E-1
5.983456754E1,-5.459319334E-3,-3.155753016E-2,3.262276202E-2
5.987505202E1,-1.398118306E-2,-8.055824786E-2,-5.206326395E-2
5.991552004E1,-2.543243766E-2,-7.603100687E-2,-9.387365729E-2
5.995602582E1,-2.543243766E-2,-7.363422960E-2,-1.399449855E-1
5.999652952E1,-2.569874749E-2,-8.774857223E-2,-1.790923029E-1
6.003696384E1,-2.569874749E-2,-7.629731297E-2,-1.556571722E-1
6.007741181E1,-1.877473295E-2,-8.655018173E-3,-6.191666797E-2
6.011791790E1,3.595161485E-3,4.647079110E-2,1.983996481E-2
6.015844290E1,2.223674022E-2,5.845466256E-2,6.378082931E-2
6.019893035E1,2.463351376E-2,7.656362653E-2,1.319557428E-1
6.023941124E1,2.516612969E-2,9.493889660E-2,1.913424879E-1
6.027990780E1,2.463351376E-2,6.990591437E-2,1.527277827E-1
6.032040582E1,1.424749196E-2,5.991935730E-3,4.940018058E-2
6.036087754E1,-8.122402243E-3,-4.513924941E-2,-2.463351376E-2
6.040138244E1,-2.756290510E-2,-6.857437640E-2,-7.922670245E-2
6.044180483E1,-4.194355011E-2,-7.869409025E-2,-1.207707971E-1
6.048231994E1,-4.194355011E-2,-9.307473898E-2,-1.660431921E-1
6.052282514E1,-2.223674022E-2,-6.218297780E-2,-1.553908736E-1
6.056335572E1,-4.926702939E-3,7.589785382E-3,-7.123745978E-2
6.060382973E1,1.185071748E-2,4.966649041E-2,1.051917579E-2
6.064429712E1,8.921326138E-3,2.836182900E-2,3.075860441E-2
6.068477139E1,6.657706108E-4,-2.383458801E-2,-1.331541280E-4
6.072525098E1,-2.796236658E-3,-3.661738336E-2,-1.344856713E-2
6.076574650E1,9.986559860E-3,2.463351376E-2,6.617759913E-2
6.080624655E1,2.170412242E-2,9.307473898E-2,1.545919478E-1
6.084676092E1,3.874785081E-2,8.588441461E-2,1.351514459E-1
6.088720884E1,2.942706272E-2,4.647079110E-2,6.963960826E-2
6.092767077E1,-3.861469682E-3,-1.331541280E-4,1.344856713E-2
6.096815822E1,-2.623136342E-2,-2.463351376E-2,-1.531272475E-2
6.100867921E1,-2.463351376E-2,-3.741630912E-2,-5.339480564E-2
6.104916639E1,-1.930734888E-2,-4.780233279E-2,-8.854749799E-2
6.108965936E1,-1.131810062E-2,-6.244928762E-2,-1.210371032E-1
6.113014473E1,-7.323476952E-3,-5.419373140E-2,-1.151783243E-1
6.117062499E1,-1.105179265E-2,-2.063889056E-2,-6.511236727E-2
6.121111233E1,-8.921326138E-3,9.986559860E-3,-5.991935730E-3
6.125159905E1,-1.198387123E-3,2.383458801E-2,3.475322574E-2
6.129212702E1,9.187635034E-3,4.167724028E-2,8.828118443E-2
6.133258306E1,1.637795754E-2,6.351451576E-2,1.306242049E-1
6.137305540E1,2.569874749E-2,5.765573680E-2,1.103847697E-1
6.141357170E1,2.117150649E-2,2.596505545E-2,5.978620425E-2
6.145398733E1,1.478010789E-2,6.258244161E-3,1.983996481E-2
6.149451358E1,-1.997311832E-3,-1.198387123E-3,4.127778113E-3
6.153500488E1,-1.611164957E-2,-1.531272475E-2,-2.330197208E-2
6.157555770E1,-2.143781446E-2,-3.129122034E-2,-5.366111174E-2
6.161599551E1,-2.436720580E-2,-4.940018058E-2,-8.854749799E-2
6.165651113E1,-2.543243766E-2,-6.910699606E-2,-1.205044836E-1
6.169692650E1,-2.223674022E-2,-5.925358832E-2,-1.077216864E-1
6.173741332E1,-1.318225823E-2,-2.596505545E-2,-5.925358832E-2
6.177790014E1,1.331541280E-4,5.193010904E-3,-8.388710208E-3
6.181838697E1,4.926702939E-3,7.856093347E-3,1.211702544E-2
6.185890129E1,1.997311832E-3,-1.664426550E-2,-5.991935730E-3
6.189940061E1,-6.657706108E-4,-2.276935615E-2,-1.691057347E-2
6.193987566E1,3.328853287E-3,6.258244161E-3,9.187635034E-3
6.198036254E1,2.143781446E-2,7.230269164E-2,9.733566642E-2
6.202089092E1,3.848154470E-2,1.015966013E-1,1.375482082E-1
6.206134811E1,3.635107726E-2,5.153064802E-2,6.537867337E-2
6.210188181E1,-3.595161485E-3,-1.371487509E-2,-5.991935730E-3
6.214231546E1,-2.995967865E-2,-4.940018058E-2,-4.167724028E-2
6.218280368E1,-2.596505545E-2,-5.312849581E-2,-6.857437640E-2
6.222329124E1,-2.623136342E-2,-4.354140162E-2,-6.591129303E-2
6.226374889E1,-3.448691964E-2,-4.220985994E-2,-4.513924941E-2
6.230426327E1,-3.475322574E-2,-4.460663348E-2,-2.489982173E-2
6.234475796E1,-3.102491237E-2,-3.981308267E-2,-1.131810062E-2
6.238524004E1,-1.850842312E-2,-3.608476743E-2,-9.720250964E-3
6.242575270E1,9.720250964E-3,-1.424749196E-2,-2.303566411E-2
6.246617368E1,4.114462435E-2,2.197043039E-2,-2.889444493E-2
6.250674754E1,4.354140162E-2,6.671021879E-2,1.731003635E-3
6.254717759E1,1.850842312E-2,1.106510833E-1,8.801487833E-2
6.258766499E1,-6.524552125E-3,8.322133124E-2,1.311568171E-1
6.262817577E1,1.211702544E-2,2.383458801E-2,6.191666797E-2
6.266865410E1,2.889444493E-2,-4.394086078E-3,3.994623839E-4
6.270912952E1,3.661738336E-2,7.856093347E-3,-1.211702544E-2
6.274962832E1,3.022598661E-2,2.276935615E-2,-7.589785382E-3
6.279012176E1,2.037258074E-2,6.524552125E-3,-2.170412242E-2
6.283061587E1,1.504641678E-2,-1.877473295E-2,-5.179695413E-2
6.287108905E1,1.158440951E-2,-2.649767138E-2,-8.641702682E-2
6.291158389E1,3.861469682E-3,-2.516612969E-2,-1.063901484E-1
6.295208421E1,-5.725627299E-3,-2.250304818E-2,-9.334104508E-2
6.299256353E1,-8.655018173E-3,-2.250304818E-2,-6.431344151E-2
6.303303592E1,-1.318225823E-2,-1.744319126E-2,-2.729659714E-2
6.307352395E1,-1.185071748E-2,-2.836182900E-2,-1.051917579E-2
6.311401118E1,-5.991935730E-3,-3.848154470E-2,-1.797580719E-2
6.315450415E1,-6.657706108E-4,-3.475322574E-2,-1.983996481E-2
6.319499410E1,5.193010904E-3,-2.143781446E-2,-1.478010789E-2
6.323548014E1,3.595161485E-3,8.655018173E-3,1.398118306E-2
6.327597499E1,-7.057168987E-3,4.380770773E-2,7.097115368E-2
6.331649572E1,-1.238333434E-2,6.031882018E-2,1.282274276E-1
6.335697936E1,-4.127778113E-3,4.780233279E-2,1.173087880E-1
6.339741170E1,6.524552125E-3,7.856093347E-3,4.407401755E-2
6.343789931E1,1.198387123E-3,-2.356828004E-2,-1.770949923E-2
6.347836181E1,-1.025286783E-2,-3.155753016E-2,-5.046541616E-2
6.351887863E1,-1.770949923E-2,-2.782921307E-2,-6.671021879E-2
6.355938504E1,-5.991935730E-3,-2.649767138E-2,-7.629731297E-2
6.359987837E1,1.691057347E-2,-7.856093347E-3,-7.682993263E-2
6.364035822E1,2.676397935E-2,3.315537795E-2,-2.995967865E-2
6.368084853E1,1.850842312E-2,9.440627694E-2,8.987903595E-2
6.372132634E1,7.589785382E-3,9.227581322E-2,1.359503716E-1
6.376181712E1,1.211702544E-2,4.753602296E-2,1.029281393E-1
6.380232035E1,1.051917579E-2,2.410089783E-2,7.975932211E-2
6.384279619E1,8.122402243E-3,3.155753016E-2,8.162347972E-2
6.388327592E1,6.790860556E-3,3.155753016E-2,6.750914454E-2
6.392375572E1,1.318225823E-2,1.877473295E-2,3.768261895E-2
6.396423926E1,3.861469682E-3,1.238333434E-2,2.143781446E-2
6.400475723E1,-3.328853287E-3,4.394086078E-3,-3.328853287E-3
6.404523962E1,-1.078548469E-2,-9.986559860E-3,-3.315537795E-2
6.408570103E1,-1.371487509E-2,-2.543243766E-2,-5.392742157E-2
6.412622259E1,-1.664426550E-2,-5.419373140E-2,-1.157109365E-1
6.416674051E1,-1.611164957E-2,-9.254211932E-2,-1.804238409E-1
6.420723322E1,-2.117150649E-2,-8.615072072E-2,-1.719019860E-1
6.424772165E1,-2.543243766E-2,-3.741630912E-2,-8.668334037E-2
6.428821004E1,-1.983996481E-2,9.986559860E-3,8.655018173E-3
6.432869837E1,-4.926702939E-3,1.371487509E-2,4.061200842E-2
6.436913410E1,6.258244161E-3,-1.957365684E-2,1.731003635E-3
6.440963290E1,1.211702544E-2,-1.904104091E-2,-1.504641678E-2
6.445006978E1,1.424749196E-2,4.300878197E-2,6.351451576E-2
6.449058129E1,1.478010789E-2,1.026618332E-1,1.564560980E-1
6.453107374E1,1.877473295E-2,6.484606117E-2,1.117163152E-1
6.457159994E1,1.584534161E-2,-9.320789250E-4,1.478010789E-2
6.461207629E1,-1.198387123E-3,-2.463351376E-2,-2.942706272E-2
6.465255275E1,-1.451379992E-2,-2.250304818E-2,-4.753602296E-2
6.469303358E1,-1.131810062E-2,-1.531272475E-2,-5.499265343E-2
6.473349650E1,-1.078548469E-2,-2.596505545E-2,-6.910699606E-2
6.477398223E1,-1.158440951E-2,-3.981308267E-2,-7.949301600E-2
6.481450191E1,-1.877473295E-2,-3.581846133E-2,-6.404713541E-2
6.485503170E1,-1.611164957E-2,-2.170412242E-2,-3.182383627E-2
6.489547025E1,-9.720250964E-3,-3.595161485E-3,-1.731003635E-3
6.493595697E1,9.320789250E-4,-3.328853287E-3,3.861469682E-3
6.497648796E1,1.997311832E-3,-1.051917579E-2,-8.921326138E-3
6.501697191E1,1.731003635E-3,-1.025286783E-2,-1.211702544E-2
6.505745936E1,2.263620263E-3,-1.198387123E-3,-9.720250964E-3
6.509784306E1,3.595161485E-3,5.193010904E-3,-6.790860556E-3
6.513836035E1,4.127778113E-3,1.025286783E-2,-1.158440951E-2
6.517887108E1,-4.127778113E-3,3.595161485E-3,-1.717688330E-2
6.521935827E1,-7.323476952E-3,-6.258244161E-3,-2.143781446E-2
6.525981868E1,-7.323476952E-3,-1.584534161E-2,-2.090519853E-2
6.530033978E1,-1.291595027E-2,-2.516612969E-2,-1.584534161E-2
6.534083244E1,-1.904104091E-2,-3.129122034E-2,-7.589785382E-3
6.538132837E1,-1.824211515E-2,-3.262276202E-2,-3.062544856E-3
6.542182618E1,-7.323476952E-3,-3.209014609E-2,-1.025286783E-2
6.546223775E1,6.657706108E-4,-2.809552103E-2,-2.356828004E-2
6.550276931E1,6.657706108E-4,-2.223674022E-2,-3.688369319E-2
6.554325572E1,-1.464695437E-3,-8.921326138E-3,-4.220985994E-2
6.558379160E1,-3.328853287E-3,-1.051917579E-2,-5.712312087E-2
6.562425415E1,-4.660394508E-3,-1.691057347E-2,-7.097115368E-2
6.566474207E1,-1.824211515E-2,-5.525896326E-2,-1.103847697E-1
6.570520124E1,-3.741630912E-2,-1.015966013E-1,-1.652442664E-1
6.574568681E1,-3.581846133E-2,-8.082455397E-2,-1.013302878E-1
6.578623952E1,-1.930734888E-2,-3.794892505E-2,-4.007939249E-2
6.582670051E1,-1.264964230E-2,-3.688369319E-2,-4.513924941E-2
6.586713473E1,-1.744319126E-2,-5.579157919E-2,-4.753602296E-2
6.590762191E1,-1.211702544E-2,-3.954677656E-2,-1.025286783E-2
6.594810910E1,4.926702939E-3,4.926702939E-3,2.170412242E-2
6.598861520E1,9.720250964E-3,1.371487509E-2,3.235645220E-2
6.602913728E1,2.263620263E-3,-5.991935730E-3,-8.122402243E-3
6.606961499E1,-2.796236658E-3,-5.193010904E-3,-1.398118306E-2
6.611009681E1,1.464695437E-3,9.453942999E-3,-6.657706108E-4
6.615058702E1,-4.926702939E-3,8.921326138E-3,-3.861469682E-3
6.619107212E1,-4.926702939E-3,-4.660394508E-3,-2.263620263E-3
6.623155421E1,-1.331541280E-4,-4.926702939E-3,6.790860556E-3
6.627203228E1,-2.263620263E-3,3.062544856E-3,8.122402243E-3
6.631252405E1,9.320789250E-4,8.388710208E-3,2.010627277E-2
6.635301384E1,1.344856713E-2,4.993279651E-2,8.135717362E-2
6.639350920E1,3.581846133E-2,1.300915778E-1,2.169080675E-1
6.643396629E1,4.434032366E-2,1.466026902E-1,2.517944574E-1
6.647443415E1,4.567186534E-2,7.975932211E-2,1.340862066E-1
6.651496129E1,2.862813696E-2,-5.725627299E-3,-2.170412242E-2
6.655544431E1,2.796236658E-3,-2.676397935E-2,-9.360735118E-2
6.659593670E1,-1.797580719E-2,1.504641678E-2,-4.540555924E-2
6.663645759E1,-1.185071748E-2,4.913387448E-2,2.276935615E-2
6.667692181E1,2.796236658E-3,2.995967865E-2,3.395430371E-2
6.671738655E1,2.263620263E-3,-1.797580719E-2,6.657706108E-4
6.675786332E1,-7.589785382E-3,-4.913387448E-2,-2.995967865E-2
6.679832967E1,-1.531272475E-2,-3.501953557E-2,-2.250304818E-2
6.683885436E1,-1.344856713E-2,-8.122402243E-3,5.193010904E-3
6.687935837E1,-5.459319334E-3,1.131810062E-2,2.276935615E-2
6.691983733E1,2.796236658E-3,3.861469682E-3,7.589785382E-3
6.696032098E1,4.660394508E-3,-6.657706108E-4,-1.185071748E-2
6.700083316E1,1.997311832E-3,2.263620263E-3,-1.691057347E-2
6.704130238E1,1.198387123E-3,1.105179265E-2,-3.328853287E-3
6.708177197E1,-3.994623839E-4,1.238333434E-2,6.657706108E-4
6.712226311E1,-1.331541280E-4,3.994623839E-4,-8.655018173E-3
6.716276619E1,-3.328853287E-3,-1.264964230E-2,-1.371487509E-2
6.720326014E1,-6.258244161E-3,-1.824211515E-2,-8.921326138E-3
6.724371920E1,-5.991935730E-3,-1.797580719E-2,-5.991935730E-3
6.728422556E1,-1.051917579E-2,-1.930734888E-2,-1.291595027E-2
6.732470520E1,-1.584534161E-2,-1.744319126E-2,-1.504641678E-2
6.736519436E1,-1.504641678E-2,-1.078548469E-2,-8.122402243E-3
6.740569540E1,-7.057168987E-3,1.464695437E-3,-1.731003635E-3
6.744613592E1,1.198387123E-3,1.078548469E-2,1.464695437E-3
6.748669374E1,4.926702939E-3,1.904104091E-2,1.504641678E-2
6.752714129E1,1.051917579E-2,2.543243766E-2,3.182383627E-2
6.756759134E1,1.051917579E-2,2.303566411E-2,3.288906813E-2
6.760807894E1,1.318225823E-2,7.589785382E-3,1.344856713E-2
6.764856660E1,9.453942999E-3,1.731003635E-3,-8.388710208E-3
6.768907108E1,-4.127778113E-3,5.991935730E-3,-9.187635034E-3
6.772957947E1,-1.051917579E-2,1.051917579E-2,3.595161485E-3
6.777008348E1,-1.051917579E-2,2.529928461E-3,4.127778113E-3
6.781053910E1,-4.926702939E-3,-7.856093347E-3,-5.193010904E-3
6.785105009E1,-3.328853287E-3,-9.720250964E-3,-5.991935730E-3
6.789154467E1,1.997311832E-3,-5.991935730E-3,-1.198387123E-3
6.793202342E1,3.062544856E-3,-3.994623839E-4,-1.997311832E-3
6.797247197E1,4.926702939E-3,-5.193010904E-3,-8.122402243E-3
6.801299233E1,3.861469682E-3,-4.394086078E-3,-5.991935730E-3
6.805349806E1,1.997311832E-3,-1.331541280E-4,-4.127778113E-3
6.809397374E1,-1.198387123E-3,1.997311832E-3,-8.388710208E-3
6.813443301E1,-5.193010904E-3,1.464695437E-3,-2.796236658E-3
6.817493358E1,-5.725627299E-3,-3.994623839E-4,-2.529928461E-3
6.821542092E1,-4.926702939E-3,-1.997311832E-3,-4.660394508E-3
6.825592202E1,-3.062544856E-3,-5.459319334E-3,-6.524552125E-3
6.829646535E1,-3.062544856E-3,-3.861469682E-3,-5.193010904E-3
6.833690473E1,-1.997311832E-3,-9.320789250E-4,-7.856093347E-3
6.837734608E1,-1.731003635E-3,-3.595161485E-3,-1.478010789E-2
6.841784212E1,-4.926702939E-3,-8.655018173E-3,-1.611164957E-2
6.845833160E1,-7.589785382E-3,-9.986559860E-3,-1.904104091E-2
6.849883957E1,-1.185071748E-2,-1.531272475E-2,-2.703028731E-2
6.853935228E1,-1.797580719E-2,-2.596505545E-2,-4.194355011E-2
6.857982358E1,-2.489982173E-2,-4.141093418E-2,-5.738943070E-2
6.862031087E1,-2.489982173E-2,-5.392742157E-2,-7.256899774E-2
6.866078113E1,-2.836182900E-2,-5.153064802E-2,-5.579157919E-2
6.870128155E1,-2.756290510E-2,-5.978620425E-2,-6.457975507E-2
6.874178420E1,-2.862813696E-2,-7.682993263E-2,-9.627043456E-2
6.878225655E1,-2.463351376E-2,-7.310161740E-2,-9.174319357E-2
6.882275754E1,-1.238333434E-2,-2.463351376E-2,-3.288906813E-2
6.886326275E1,-5.193010904E-3,-9.187635034E-3,-2.596505545E-2
6.890371712E1,-6.524552125E-3,-1.744319126E-2,-3.315537795E-2
6.894423087E1,-4.926702939E-3,-8.921326138E-3,-1.105179265E-2
6.898471822E1,-5.991935730E-3,4.926702939E-3,-3.595161485E-3
6.902519353E1,-7.323476952E-3,-1.731003635E-3,-1.611164957E-2
6.906569139E1,-4.660394508E-3,-1.797580719E-2,-2.410089783E-2
6.910613644E1,-6.258244161E-3,-1.238333434E-2,-2.250304818E-2
6.914668337E1,-8.388710208E-3,-5.459319334E-3,-1.318225823E-2
6.918722900E1,-6.524552125E-3,-8.388710208E-3,-7.057168987E-3
6.922771634E1,-6.524552125E-3,-1.185071748E-2,-1.264964230E-2
6.926807431E1,-4.926702939E-3,-9.187635034E-3,-4.394086078E-3
6.930857842E1,-3.595161485E-3,-6.524552125E-3,-4.127778113E-3
6.934909842E1,-7.057168987E-3,-1.464695437E-3,-5.991935730E-3
6.938957983E1,-4.127778113E-3,-1.198387123E-3,3.595161485E-3
6.943005915E1,1.331541280E-4,6.657706108E-4,9.320789250E-4
6.947055863E1,-4.394086078E-3,-1.198387123E-3,-2.529928461E-3
6.951104587E1,-5.193010904E-3,-5.991935730E-3,-6.258244161E-3
6.955154926E1,-4.660394508E-3,-1.731003635E-3,-6.524552125E-3
6.959205176E1,-1.731003635E-3,-1.331541280E-4,-3.595161485E-3
6.963250806E1,-9.320789250E-4,-5.725627299E-3,-7.057168987E-3
6.967298728E1,-1.731003635E-3,-5.991935730E-3,-3.328853287E-3
6.971347306E1,-3.328853287E-3,-2.796236658E-3,-2.263620263E-3
6.975396467E1,-5.193010904E-3,-1.731003635E-3,-1.464695437E-3
6.979446155E1,-4.660394508E-3,-1.198387123E-3,-1.731003635E-3
6.983494874E1,-3.328853287E-3,1.464695437E-3,2.796236658E-3
6.987542457E1,-1.464695437E-3,-2.263620263E-3,-4.127778113E-3
6.991591238E1,1.464695437E-3,1.331541280E-4,1.464695437E-3
6.995641181E1,-9.320789250E-4,3.861469682E-3,4.394086078E-3
6.999689790E1,4.660394508E-3,1.398118306E-2,1.637795754E-2
7.003736561E1,3.821523488E-2,9.413997084E-2,1.263632625E-1
7.007789348E1,8.029194176E-2,2.199706137E-1,3.223661482E-1
7.011834051E1,7.523208112E-2,2.001306564E-1,3.007951677E-1
7.015883520E1,6.298190355E-2,6.298190355E-2,9.680305421E-2
7.019933098E1,2.143781446E-2,-1.664426550E-2,-1.930734888E-2
7.023979796E1,-9.453942999E-3,2.436720580E-2,4.593817517E-2
7.028029691E1,-2.796236658E-3,1.077216864E-1,1.367492825E-1
7.032078145E1,1.957365684E-2,1.412765235E-1,1.945381761E-1
7.036126191E1,2.809552103E-2,9.094426781E-2,1.644453406E-1
7.040178546E1,2.862813696E-2,4.593817517E-2,9.999874979E-2
7.044221592E1,2.782921307E-2,7.256899774E-2,1.039933711E-1
7.048273384E1,1.504641678E-2,9.973244369E-2,1.335535944E-1
7.052322467E1,1.105179265E-2,7.816147059E-2,1.111836955E-1
7.056373775E1,1.744319126E-2,4.487293959E-2,6.324820966E-2
7.060421926E1,1.611164957E-2,2.862813696E-2,4.380770773E-2
7.064469280E1,5.725627299E-3,1.611164957E-2,2.836182900E-2
7.068516275E1,-3.861469682E-3,8.388710208E-3,1.824211515E-2
7.072565311E1,-1.398118306E-2,-2.037258074E-2,-1.557903271E-2
7.076618587E1,-2.356828004E-2,-5.632419512E-2,-6.351451576E-2
7.080666811E1,-5.765573680E-2,-1.023955271E-1,-1.191729456E-1
7.084710790E1,-9.121058136E-2,-2.147776037E-1,-2.782921195E-1
7.088758483E1,-8.641702682E-2,-2.858819067E-1,-4.127778113E-1
7.092805520E1,-5.552527308E-2,-1.753639877E-1,-3.248960674E-1
7.096858426E1,6.258244161E-3,4.114462435E-2,-4.540555924E-2
7.100909337E1,7.097115368E-2,1.788259894E-1,1.319557428E-1
7.104953811E1,6.404713541E-2,1.037270650E-1,1.007976755E-1
7.109004191E1,6.790860556E-3,-3.368799388E-2,-2.543243766E-2
7.113052853E1,-2.969337068E-2,-1.007976755E-1,-9.680305421E-2
7.117102306E1,-3.022598661E-2,-5.845466256E-2,-5.898727849E-2
7.121151030E1,-8.921326138E-3,2.756290510E-2,1.850842312E-2
7.125197301E1,1.291595027E-2,3.874785081E-2,4.593817517E-2
7.129254467E1,1.557903271E-2,-1.131810062E-2,5.725627299E-3
7.133296280E1,1.331541280E-4,-4.247616604E-2,-3.422060981E-2
7.137344098E1,-9.453942999E-3,-2.356828004E-2,-2.010627277E-2
7.141396582E1,-9.720250964E-3,1.930734888E-2,1.185071748E-2
7.145438108E1,-1.198387123E-3,2.782921307E-2,1.983996481E-2
7.149489499E1,2.263620263E-3,4.926702939E-3,-3.328853287E-3
7.153540926E1,1.464695437E-3,-9.453942999E-3,-1.637795754E-2
7.157587941E1,-2.529928461E-3,-3.062544856E-3,-4.660394508E-3
7.161641634E1,-8.921326138E-3,5.991935730E-3,8.921326138E-3
7.165688749E1,-6.790860556E-3,-1.331541280E-4,6.258244161E-3
7.169734030E1,-6.790860556E-3,-7.856093347E-3,-1.331541280E-4
7.173781639E1,3.994623839E-4,-3.328853287E-3,-1.331541280E-4
7.177830420E1,1.331541280E-4,2.529928461E-3,2.796236658E-3
7.181879941E1,-1.464695437E-3,-1.997311832E-3,1.198387123E-3
7.185930342E1,9.320789250E-4,-3.062544856E-3,-4.660394508E-3
7.189980504E1,-2.796236658E-3,9.320789250E-4,-2.263620263E-3
7.194031030E1,-5.991935730E-3,4.127778113E-3,1.997311832E-3
7.198079816E1,-5.459319334E-3,2.263620263E-3,1.997311832E-3
7.202130670E1,-4.394086078E-3,-9.320789250E-4,1.731003635E-3
7.206176447E1,-4.926702939E-3,2.263620263E-3,2.263620263E-3
7.210222941E1,-4.127778113E-3,-1.331541280E-4,1.731003635E-3
7.214270723E1,-2.529928461E-3,-2.796236658E-3,-1.198387123E-3
7.218321608E1,-1.464695437E-3,-3.861469682E-3,-2.263620263E-3
7.222366686E1,-3.994623839E-4,-1.198387123E-3,-3.994623839E-4
7.226415707E1,-6.657706108E-4,-1.331541280E-4,3.994623839E-4
7.230465488E1,-1.731003635E-3,-1.464695437E-3,-6.657706108E-4
7.234516759E1,-4.127778113E-3,-6.657706108E-4,-3.994623839E-4
7.238564936E1,-4.660394508E-3,6.657706108E-4,-1.331541280E-4
7.242613639E1,-4.926702939E-3,1.331541280E-4,-9.320789250E-4
7.246663290E1,-4.926702939E-3,1.331541280E-4,-1.997311832E-3
7.250706332E1,-1.997311832E-3,-6.657706108E-4,-1.731003635E-3
7.254756030E1,-1.464695437E-3,1.731003635E-3,-1.997311832E-3
7.258804723E1,-1.997311832E-3,-1.331541280E-4,-6.657706108E-4
7.262854311E1,-1.997311832E-3,3.994623839E-4,3.994623839E-4
7.266905733E1,-4.394086078E-3,-6.657706108E-4,-1.331541280E-4
7.270956238E1,-1.731003635E-3,-2.263620263E-3,9.320789250E-4
7.275004379E1,-9.320789250E-4,-9.320789250E-4,6.657706108E-4
7.279051905E1,-4.926702939E-3,-3.994623839E-4,-3.994623839E-4
7.283099822E1,-5.991935730E-3,1.198387123E-3,2.263620263E-3
7.287148426E1,-6.258244161E-3,1.198387123E-3,1.464695437E-3
7.291197514E1,-1.731003635E-3,9.320789250E-4,-6.657706108E-4
7.295249202E1,-3.994623839E-4,-6.657706108E-4,-1.198387123E-3
7.299298499E1,9.320789250E-4,-1.464695437E-3,-1.464695437E-3
7.303347556E1,-9.320789250E-4,-1.731003635E-3,-3.328853287E-3
7.307394473E1,-1.731003635E-3,-2.529928461E-3,-2.796236658E-3
7.311442936E1,-1.198387123E-3,-3.062544856E-3,-1.997311832E-3
7.315491197E1,-1.198387123E-3,-2.263620263E-3,-1.997311832E-3
7.319539603E1,-2.796236658E-3,-3.994623839E-4,-1.198387123E-3
7.323588113E1,-3.861469682E-3,1.997311832E-3,-1.198387123E-3
7.327637889E1,-3.861469682E-3,1.997311832E-3,-1.997311832E-3
7.331686801E1,-9.320789250E-4,1.997311832E-3,-2.796236658E-3
7.335730296E1,-1.331541280E-4,3.994623839E-4,-3.062544856E-3
7.339778514E1,2.263620263E-3,-1.198387123E-3,-3.328853287E-3
7.343826296E1,-6.657706108E-4,-1.331541280E-4,-3.328853287E-3
7.347879879E1,-1.731003635E-3,-1.331541280E-4,-2.263620263E-3
7.351930249E1,-3.062544856E-3,1.198387123E-3,-1.464695437E-3
7.355978509E1,-9.320789250E-4,-2.529928461E-3,-1.731003635E-3
7.360026910E1,-3.994623839E-4,-3.994623839E-4,-1.464695437E-3
7.364075869E1,-1.731003635E-3,2.263620263E-3,-2.263620263E-3
7.368125551E1,-3.328853287E-3,2.263620263E-3,-2.796236658E-3
7.372174129E1,-2.263620263E-3,1.731003635E-3,-9.320789250E-4
7.376221994E1,-6.657706108E-4,-2.263620263E-3,-1.731003635E-3
7.380272915E1,-6.657706108E-4,-2.529928461E-3,-4.127778113E-3
7.384321566E1,-9.320789250E-4,-3.595161485E-3,-1.731003635E-3
7.388367494E1,-2.529928461E-3,-3.062544856E-3,-2.263620263E-3
7.392415108E1,-3.062544856E-3,-1.331541280E-4,-3.994623839E-4
7.396464139E1,-1.731003635E-3,-1.464695437E-3,-1.464695437E-3
7.400516920E1,-1.731003635E-3,-9.320789250E-4,-9.320789250E-4
7.404565520E1,-2.263620263E-3,1.331541280E-4,-3.994623839E-4
7.408614853E1,-4.660394508E-3,-1.198387123E-3,-6.657706108E-4
7.412666697E1,-5.193010904E-3,-1.464695437E-3,-1.331541280E-4
7.416709962E1,-4.660394508E-3,-1.731003635E-3,1.997311832E-3
7.420755369E1,-3.861469682E-3,-2.529928461E-3,1.997311832E-3
7.424804572E1,-3.062544856E-3,-9.320789250E-4,-1.331541280E-4
7.428853525E1,-3.595161485E-3,-3.994623839E-4,2.796236658E-3
7.432903077E1,-4.394086078E-3,1.731003635E-3,1.464695437E-3
7.436954790E1,-3.861469682E-3,1.198387123E-3,9.320789250E-4
7.441005092E1,-9.320789250E-4,-1.997311832E-3,1.731003635E-3
7.445044697E1,-9.320789250E-4,-6.657706108E-4,6.657706108E-4
7.449100790E1,-3.861469682E-3,6.657706108E-4,2.529928461E-3
7.453150353E1,-6.258244161E-3,2.263620263E-3,2.263620263E-3
7.457201139E1,-4.926702939E-3,3.994623839E-4,1.464695437E-3
7.461247920E1,-2.263620263E-3,-3.994623839E-4,-1.198387123E-3
7.465294233E1,-1.198387123E-3,-1.997311832E-3,-1.464695437E-3
7.469340561E1,-1.464695437E-3,-3.062544856E-3,-3.062544856E-3
7.473391483E1,-2.263620263E-3,-1.731003635E-3,-3.062544856E-3
7.477441254E1,-1.731003635E-3,-1.198387123E-3,-1.731003635E-3
7.481492082E1,-1.464695437E-3,-2.796236658E-3,-2.796236658E-3
7.485545426E1,-2.263620263E-3,-2.796236658E-3,-1.731003635E-3
7.489587889E1,-2.529928461E-3,-3.994623839E-4,-3.994623839E-4
7.493639785E1,-5.193010904E-3,1.997311832E-3,-1.331541280E-4
7.497684504E1,-3.595161485E-3,1.198387123E-3,-1.331541280E-4
7.501733270E1,-1.731003635E-3,1.198387123E-3,-9.320789250E-4
7.505782040E1,-3.994623839E-4,1.331541280E-4,-1.198387123E-3
7.509830811E1,-1.731003635E-3,6.657706108E-4,-1.331541280E-4
7.513877457E1,-1.464695437E-3,-1.331541280E-4,9.320789250E-4
7.517928785E1,-3.062544856E-3,1.997311832E-3,1.198387123E-3
7.521977551E1,-2.529928461E-3,-6.657706108E-4,2.529928461E-3
7.526026457E1,-1.731003635E-3,-9.320789250E-4,-1.464695437E-3
7.530076634E1,-1.997311832E-3,-9.320789250E-4,-6.657706108E-4
7.534123967E1,-3.062544856E-3,6.657706108E-4,9.320789250E-4
7.538172806E1,-4.394086078E-3,-6.657706108E-4,2.263620263E-3
7.542222988E1,-1.731003635E-3,-1.198387123E-3,-6.657706108E-4
7.546265723E1,-1.464695437E-3,-1.464695437E-3,-9.320789250E-4
7.550316650E1,-1.997311832E-3,-3.994623839E-4,-9.320789250E-4
7.554373962E1,-1.731003635E-3,-6.657706108E-4,-4.127778113E-3
7.558421926E1,-6.657706108E-4,-2.263620263E-3,-4.127778113E-3
7.562466967E1,-9.320789250E-4,-2.529928461E-3,-3.062544856E-3
7.566513165E1,-1.731003635E-3,-2.796236658E-3,-2.529928461E-3
7.570560217E1,-2.796236658E-3,-9.320789250E-4,-2.263620263E-3
7.574610217E1,-5.193010904E-3,-1.331541280E-4,-2.263620263E-3
7.578662811E1,-4.127778113E-3,-3.994623839E-4,-4.127778113E-3
7.582708842E1,-2.796236658E-3,-1.464695437E-3,-5.459319334E-3
7.586755238E1,3.994623839E-4,3.994623839E-4,-3.595161485E-3
7.590803973E1,-1.464695437E-3,6.657706108E-4,-1.464695437E-3
7.594852712E1,-9.320789250E-4,1.331541280E-4,-1.198387123E-3
7.598903113E1,-2.263620263E-3,1.464695437E-3,-2.263620263E-3
7.602954738E1,-9.320789250E-4,-6.657706108E-4,-2.263620263E-3
7.607001837E1,-1.731003635E-3,-1.731003635E-3,-4.127778113E-3
7.611050369E1,-2.796236658E-3,-1.731003635E-3,-5.459319334E-3
7.615100900E1,-3.861469682E-3,-3.994623839E-4,-4.660394508E-3
7.619149832E1,-1.997311832E-3,6.657706108E-4,-1.997311832E-3
7.623197072E1,1.464695437E-3,-2.263620263E-3,-3.861469682E-3
7.627243608E1,6.657706108E-4,-1.997311832E-3,-3.861469682E-3
7.631293348E1,-9.320789250E-4,-3.994623839E-4,-3.062544856E-3
7.635340509E1,-2.263620263E-3,6.657706108E-4,-3.595161485E-3
7.639391004E1,-3.328853287E-3,-3.994623839E-4,-3.861469682E-3
7.643439744E1,-2.263620263E-3,-1.997311832E-3,-2.529928461E-3
7.647486639E1,-6.657706108E-4,-2.796236658E-3,-3.994623839E-4
7.651537999E1,-2.529928461E-3,-9.320789250E-4,3.994623839E-4
7.655587879E1,-4.926702939E-3,-1.331541280E-4,2.529928461E-3
7.659639384E1,-4.127778113E-3,1.731003635E-3,6.657706108E-4
7.663685348E1,-1.997311832E-3,-6.657706108E-4,-1.731003635E-3
7.667731629E1,-1.198387123E-3,-2.796236658E-3,-2.263620263E-3
7.671777894E1,-3.595161485E-3,-3.994623839E-4,-3.994623839E-4
7.675826655E1,-4.127778113E-3,3.994623839E-4,-1.464695437E-3
7.679881217E1,-2.796236658E-3,-6.657706108E-4,-1.731003635E-3
7.683929629E1,-1.997311832E-3,-1.731003635E-3,-3.994623839E-4
7.687974848E1,-3.062544856E-3,-3.994623839E-4,-1.731003635E-3
7.692024671E1,-5.725627299E-3,3.994623839E-4,-6.657706108E-4
7.696074436E1,-5.459319334E-3,1.464695437E-3,1.731003635E-3
7.700120983E1,-1.198387123E-3,1.331541280E-4,1.464695437E-3
7.704170280E1,3.994623839E-4,-2.263620263E-3,-1.331541280E-4
7.708219525E1,-1.997311832E-3,-6.657706108E-4,-1.331541280E-4
7.712269301E1,-3.595161485E-3,1.464695437E-3,-1.464695437E-3
7.716318353E1,-3.328853287E-3,1.731003635E-3,-3.062544856E-3
7.720366957E1,-1.464695437E-3,-3.328853287E-3,-3.062544856E-3
7.724414806E1,-3.994623839E-4,-3.595161485E-3,-9.320789250E-4
7.728464316E1,-1.731003635E-3,-1.997311832E-3,-1.331541280E-4
7.732513775E1,-3.062544856E-3,-1.731003635E-3,-6.657706108E-4
7.736560947E1,-6.258244161E-3,1.198387123E-3,-6.657706108E-4
7.740611436E1,-3.861469682E-3,6.657706108E-4,-3.994623839E-4
7.744661462E1,-6.657706108E-4,3.994623839E-4,-2.263620263E-3
7.748709046E1,-2.796236658E-3,1.464695437E-3,3.994623839E-4
7.752757212E1,-6.657706108E-4,2.263620263E-3,1.464695437E-3
7.756806796E1,1.198387123E-3,-1.198387123E-3,9.320789250E-4
7.760855983E1,-1.331541280E-4,-2.263620263E-3,1.997311832E-3
7.764903837E1,-5.459319334E-3,1.464695437E-3,1.198387123E-3
7.768953441E1,-7.057168987E-3,2.529928461E-3,-9.320789250E-4
7.772998978E1,-5.991935730E-3,1.331541280E-4,-2.796236658E-3
7.777049676E1,-4.127778113E-3,-1.997311832E-3,-1.731003635E-3
7.781099103E1,-3.994623839E-4,3.994623839E-4,-3.062544856E-3
7.785146931E1,-6.657706108E-4,-1.198387123E-3,-4.127778113E-3
7.789193103E1,1.198387123E-3,-1.997311832E-3,-4.127778113E-3
7.793245306E1,-9.320789250E-4,-1.464695437E-3,-4.127778113E-3
7.797294098E1,-4.394086078E-3,-1.997311832E-3,-4.127778113E-3
7.801344900E1,-3.595161485E-3,-9.320789250E-4,-3.595161485E-3
7.805389587E1,-1.997311832E-3,-1.464695437E-3,-1.331541280E-4
7.809438056E1,-2.796236658E-3,-9.320789250E-4,3.994623839E-4
7.813485436E1,-4.926702939E-3,1.464695437E-3,6.657706108E-4
7.817536290E1,-4.660394508E-3,3.328853287E-3,-1.198387123E-3
7.821585030E1,-3.062544856E-3,5.725627299E-3,-1.464695437E-3
7.825634379E1,-9.320789250E-4,1.331541280E-4,1.731003635E-3
7.829684962E1,-1.198387123E-3,-3.994623839E-4,3.595161485E-3
7.833728988E1,-3.994623839E-4,-1.731003635E-3,4.660394508E-3
7.837777717E1,-6.657706108E-4,-3.595161485E-3,2.529928461E-3
7.841826457E1,-3.861469682E-3,-1.198387123E-3,-1.331541280E-4
7.845871066E1,-5.991935730E-3,-2.263620263E-3,-1.731003635E-3
7.849926400E1,-6.258244161E-3,-1.731003635E-3,-2.529928461E-3
7.853976145E1,-7.323476952E-3,-6.657706108E-4,-3.328853287E-3
7.858024889E1,-4.127778113E-3,1.331541280E-4,-4.127778113E-3
7.862072395E1,-3.595161485E-3,1.198387123E-3,-2.529928461E-3
7.866123290E1,-3.595161485E-3,6.657706108E-4,-3.328853287E-3
7.870169775E1,-3.062544856E-3,-1.731003635E-3,-4.127778113E-3
7.874220296E1,-1.997311832E-3,-3.062544856E-3,-4.926702939E-3
7.878268103E1,-1.331541280E-4,-4.394086078E-3,-4.660394508E-3
7.882319754E1,1.198387123E-3,-4.660394508E-3,-3.062544856E-3
7.886363832E1,6.657706108E-4,-4.660394508E-3,-6.657706108E-4
7.890412379E1,-3.994623839E-4,-6.657706108E-4,-1.198387123E-3
7.894460770E1,-1.997311832E-3,-3.994623839E-4,-3.994623839E-4
7.898509520E1,-1.331541280E-4,-6.657706108E-4,-2.796236658E-3
7.902560738E1,-1.731003635E-3,-1.198387123E-3,-3.328853287E-3
7.906610650E1,-9.320789250E-4,-1.331541280E-4,-3.062544856E-3
7.910661764E1,-1.731003635E-3,9.320789250E-4,-3.861469682E-3
7.914704478E1,-6.657706108E-4,-3.994623839E-4,-4.127778113E-3
7.918749191E1,-1.331541280E-4,-3.994623839E-4,-5.459319334E-3
7.922797910E1,-1.997311832E-3,-1.331541280E-4,-3.861469682E-3
7.926846634E1,-3.062544856E-3,1.731003635E-3,-3.328853287E-3
7.930897040E1,-3.328853287E-3,-3.994623839E-4,-2.796236658E-3
7.934950150E1,-3.994623839E-4,-2.263620263E-3,-2.263620263E-3
7.938999994E1,-3.994623839E-4,-1.331541280E-4,-2.263620263E-3
7.943046926E1,-1.331541280E-4,1.464695437E-3,3.994623839E-4
7.947097863E1,-1.331541280E-4,3.994623839E-4,-1.731003635E-3
7.951146436E1,6.657706108E-4,-2.263620263E-3,-3.328853287E-3
7.955196613E1,-6.657706108E-4,-3.328853287E-3,-2.529928461E-3
7.959246681E1,-1.997311832E-3,-1.331541280E-4,-2.529928461E-3
7.963294676E1,-3.328853287E-3,-1.198387123E-3,-2.796236658E-3
7.967341327E1,-3.861469682E-3,-9.320789250E-4,-1.464695437E-3
7.971388353E1,-5.193010904E-3,9.320789250E-4,-2.263620263E-3
7.975438160E1,-2.796236658E-3,-3.994623839E-4,-2.529928461E-3
7.979488275E1,-2.529928461E-3,1.331541280E-4,-9.320789250E-4
7.983538499E1,-4.394086078E-3,1.331541280E-4,1.997311832E-3
7.987584249E1,-3.062544856E-3,1.464695437E-3,3.994623839E-4
7.991634978E1,-2.529928461E-3,-3.595161485E-3,9.320789250E-4
7.995685170E1,-3.062544856E-3,-3.595161485E-3,1.997311832E-3
7.999728525E1,-5.193010904E-3,-1.331541280E-4,1.997311832E-3
8.003776931E1,-6.258244161E-3,-9.320789250E-4,2.263620263E-3
8.007824957E1,-5.193010904E-3,-1.331541280E-4,3.062544856E-3
