"Time (s)","Linear Acceleration x (m/s^2)","Linear Acceleration y (m/s^2)","Linear Acceleration z (m/s^2)"
4.102803000E-2,0.000000000E0,0.000000000E0,0.000000000E0
8.151360300E-2,1.204411983E-1,3.338766098E-2,-2.189388275E-1
1.219991750E-1,2.957990170E-1,1.245226860E-1,3.100543022E-1
1.624846960E-1,3.832373619E-1,1.877498627E-2,9.680652618E-2
2.380447480E-1,6.531569958E-1,-6.081962585E-2,3.822326660E-3
2.784932900E-1,-4.264657497E-1,6.672382355E-3,-6.545081139E-1
3.189794880E-1,-5.976454020E-1,5.712985992E-1,-9.577713013E-1
3.594867280E-1,2.727574110E-1,-3.558411598E-1,5.955142975E-1
3.999722480E-1,8.887258768E-1,-4.330844879E-1,-1.748136044E0
4.404793840E-1,1.664426208E0,1.609249115E-1,-2.689463139E0
4.809391230E-1,-8.044311404E-1,-1.513848782E0,2.378886223E0
5.214246960E-1,-3.575898409E0,-1.695836306E0,1.723405838E0
5.619194360E-1,-2.349311352E0,-1.429050922E0,1.623867035E0
6.024659460E-1,9.269748330E-1,7.251806259E-1,-3.452682495E-2
6.429260500E-1,6.385087967E-3,5.296769142E-1,3.865194321E-1
6.834287070E-1,-7.632629871E-1,-4.369320869E-1,3.617248535E-1
7.238592800E-1,5.113003254E-1,1.466207504E-1,8.957862854E-2
7.643446440E-1,-2.206182480E-1,1.915173531E-1,-6.667652130E-1
8.048780820E-1,-6.723376513E-1,-2.475109100E-1,-4.304451942E-1
8.452925610E-1,2.282813787E-1,1.850657463E-1,-5.278286934E-1
8.857957900E-1,-9.655356407E-3,-3.800077438E-1,-5.053911209E-1
9.262748530E-1,5.695750713E-1,-1.847376823E-1,1.000804901E-1
9.668124050E-1,1.020718813E-1,8.657932281E-3,2.571630478E-1
1.007249540E0,-1.550846100E-1,-4.229736328E-2,2.642087936E-1
1.047792300E0,-4.184901714E-2,1.592321396E-1,-2.022423744E-1
1.088279957E0,1.057226658E-1,-2.754354477E-2,-2.286968231E-1
1.128762092E0,6.092101336E-1,-1.354393959E-1,1.736640930E-1
1.169252040E0,-7.208049297E-3,-3.350596428E-1,1.152115822E0
1.209752405E0,-4.747410417E-1,2.851066589E-1,4.281024933E-1
1.250199540E0,-2.755474448E-1,1.939792633E-1,1.210509300E0
1.290676728E0,7.407267094E-1,-7.258796692E-2,1.673827171E0
1.331144748E0,-5.137214065E-1,1.197104454E-1,8.909225464E-2
1.371642665E0,-9.288750589E-2,-3.009099960E-1,-9.282913208E-1
1.412109280E0,-1.132733345E0,-1.130354404E0,-9.219722748E-1
1.452582040E0,-1.022077680E0,-8.026380539E-1,9.617958069E-1
1.493111259E0,-7.547310591E-1,-1.417615891E0,1.534545898E0
1.533640321E0,-5.555214286E-1,-1.236097813E0,7.717485428E-1
1.574124748E0,1.990872994E-2,-7.716526985E-1,-1.110978603E0
1.614600998E0,7.072656751E-1,-4.442725182E-1,-8.084478378E-1
1.655083082E0,5.740858316E-1,1.019940376E-1,-6.952400208E-1
1.695565478E0,-6.546908617E-2,8.299765587E-1,-7.767505646E-1
1.736046936E0,-3.526471257E-1,8.563423157E-2,-4.930901527E-1
1.776530009E0,4.544978738E-1,8.324971199E-1,-1.101013184E0
1.817024800E0,-1.473320127E0,5.878343582E-1,-7.216348648E-1
1.857510217E0,-1.197104931E0,7.864375114E-1,4.596157074E-1
1.897996728E0,-5.583596826E-1,6.701622009E-1,-6.606998444E-1
1.938483186E0,1.419271231E-1,-5.922641754E-1,-6.416316032E-1
1.978963394E0,3.347103596E-1,5.378689766E-1,-5.585289001E-1
2.019438342E0,-3.029346466E-2,-4.867076874E-3,-6.056671143E-1
2.059922353E0,7.317833900E-1,5.240807533E-1,3.232831955E-1
2.100390009E0,6.699943542E-1,6.487956047E-1,3.866028786E-1
2.140851675E0,1.427791357E0,8.141832352E-1,3.643989563E-1
2.181356467E0,1.669301987E-1,6.148686409E-1,2.520418167E-2
2.221875894E0,2.096393108E-1,8.277034760E-2,-4.897713661E-1
2.262361467E0,8.465270996E-1,-9.995460510E-3,4.032135010E-3
2.302859436E0,1.002147198E-1,-4.212651253E-1,3.165731430E-1
2.343333186E0,9.656245708E-1,-3.399848938E-2,-1.541969776E0
2.383823238E0,-3.765451908E-1,2.125864029E-1,-5.705747604E-1
2.424312925E0,1.302926540E-1,4.395165443E-1,-1.121527672E0
2.464777873E0,-3.851985931E-2,2.334728241E-1,-6.106448174E-1
2.505277925E0,-2.760558128E-1,-3.549842834E-1,1.000588894E0
2.545772873E0,3.043699265E-1,-3.734922409E-1,1.344225883E0
2.586257613E0,2.563972473E-1,-2.500352859E-1,-5.205240250E-1
2.626742717E0,-8.198938370E-1,-1.159012794E0,-6.265230179E-1
2.667214280E0,-1.094307899E-1,-5.478854179E-1,-9.535207748E-1
2.707693238E0,-1.192665100E-1,7.629394531E-6,-1.745662689E-1
2.748182717E0,1.721688509E0,-7.368555069E-1,-4.749870300E-2
2.788684175E0,-8.151839972E-1,-1.034920692E0,-1.435078621E0
2.829173498E0,4.328062534E-1,-9.959211349E-1,1.383280754E0
2.869659696E0,3.891082764E0,-4.964184761E-1,3.831281662E-1
2.910131519E0,2.913275719E0,-9.471592903E-1,-1.476567745E0
2.950609905E0,1.220682859E-1,-1.941830397E0,7.900848389E-1
2.991084384E0,-1.833390951E0,-1.959818840E0,4.623374939E-1
3.031586675E0,-1.537185431E0,-1.348179221E0,9.749250412E-1
3.072060165E0,-4.947462082E-1,-1.771726370E0,-6.698570251E-1
3.112520894E0,-9.873685837E-1,-1.069465876E0,-4.354338169E0
3.153067300E0,-1.553479671E0,1.975854635E-1,-1.516306400E0
3.193553030E0,-2.999042034E0,-1.278420985E-1,5.185003281E-1
3.233994280E0,-2.825914860E0,1.653000355E0,-1.271514893E0
3.274526155E0,3.246358395E0,3.698489666E0,8.656076431E0
3.315011050E0,1.279157162E0,2.979668140E0,-2.225017071E0
3.355496936E0,-1.525516987E0,2.386545181E0,-1.947570324E0
3.395979019E0,-2.281142235E0,9.478647709E-1,-2.297341824E0
3.436466363E0,-1.257428646E0,8.694043159E-1,1.461465359E0
3.476951415E0,-3.395881176E0,1.048502684E0,-9.554553032E-1
3.517434280E0,-3.895573616E-1,3.929841518E-1,4.307561398E0
3.557921780E0,1.394686222E0,1.204553604E0,2.450154781E0
3.598409071E0,9.863495827E-1,5.618476868E-2,9.446573257E-2
3.638894436E0,6.338281631E-1,-6.283092499E-2,-1.010802269E0
3.679359853E0,3.544807434E-2,-4.510821104E-1,-1.133756638E-1
3.719819488E0,-3.973293304E-1,-1.103147507E0,-1.942128420E0
3.760314905E0,1.229414940E0,-5.443656445E-2,1.021859646E0
3.800800998E0,-1.520948410E-1,1.686000824E-1,1.099096298E0
3.841292509E0,1.136043549E0,9.811156988E-1,-3.027029037E-1
3.881817405E0,9.360418320E-1,7.720378637E-1,5.952882767E-2
3.922303290E0,-9.298629761E-1,3.578325510E-1,-1.286211014E0
3.962719280E0,7.128715515E-3,7.341393232E-1,-4.947695732E-1
4.003280113E0,-3.124027729E0,-1.495383620E0,-1.478600502E-1
4.043742925E0,1.796813011E0,7.360780239E-2,1.582271576E0
4.084238603E0,-9.996223450E-2,-7.627060413E-1,3.439521790E-2
4.124730686E0,7.234444618E-1,4.463191032E-1,-3.493261337E-1
4.165181728E0,2.290208817E0,2.714360952E-1,-2.239117622E-1
4.205717665E0,4.292147636E0,1.800012231E0,1.685083866E0
4.246165321E0,3.426845312E0,1.883978844E-1,-9.897756577E-2
4.286670165E0,-6.002625465E0,-1.118346930E0,-2.066673994E0
4.327155894E0,-1.669595718E0,2.034808159E0,-1.173661709E0
4.367644384E0,-1.407996178E0,3.853744030E0,3.869347572E-1
4.408129123E0,-2.693553448E0,7.671003342E-1,5.225915909E-1
4.448542092E0,1.887993813E-1,-3.327392340E0,-1.370011330E0
4.489102769E0,2.318337440E0,-5.449337006E0,-4.233765602E-1
4.529589019E0,1.105032444E0,1.456695914E0,-6.175155640E-1
4.570051884E0,1.066782475E0,1.563355923E-1,2.603610992E0
4.610540790E0,3.836264610E-1,-1.152689695E0,-1.487226486E0
4.651024436E0,-7.647705078E-2,-4.173593521E-1,3.035454750E-1
4.691481259E0,-6.980609894E-2,5.859951973E-1,3.315515518E-1
4.731966988E0,1.003341675E0,3.909903526E0,-4.853610992E-1
4.772452717E0,3.134851456E-1,3.088181496E0,-1.687223434E0
4.812980842E0,2.770336866E0,8.408050537E-1,2.017594337E0
4.853478967E0,2.602347374E0,7.817015648E-1,-1.814382553E0
4.893958238E0,-2.690768242E-1,2.081660271E0,-3.263010979E-1
4.934439644E0,-2.717137337E-1,-2.917780876E-1,-5.818052292E-1
4.974930217E0,1.465856075E0,-1.355791092E0,-1.035362720E0
5.015423707E0,2.479924202E0,-1.328267097E0,-5.809831619E-1
5.055906936E0,-2.864441395E0,-4.027780533E0,-3.529987335E-1
5.096394228E0,-2.041050911E0,-7.023833275E0,2.083674431E0
5.136878915E0,3.162860870E-1,-5.586032867E-1,3.690752983E-1
5.177375530E0,9.896831512E-1,7.929034233E-1,3.209633827E-1
5.217859332E0,1.966401100E0,8.064522743E-1,3.629050255E-1
5.258328915E0,-9.074921608E-1,-1.809213638E0,3.560171127E-1
5.298823134E0,-1.240893364E0,-7.310013771E-1,9.210901260E-1
5.339311363E0,8.659400940E-1,5.545516014E-1,4.958751202E-1
5.379791311E0,8.637785912E-1,-1.153515816E0,-2.185988426E-2
5.420230842E0,-1.143207550E-1,-1.370780468E0,7.156515121E-2
5.460700373E0,1.319590569E0,-1.564931870E-2,-1.150714159E0
5.501212353E0,7.920455933E-2,-5.049343109E-1,-5.938339233E-1
5.541699175E0,3.399386406E-1,6.376647949E-1,-1.208506465E0
5.582194123E0,3.101563454E-1,4.038643837E-1,-4.379990101E-1
5.622713134E0,4.226870537E-1,5.592522621E-1,-9.513139725E-2
5.663187978E0,9.613513947E-3,3.577742577E-1,-1.550824642E-1
5.703668446E0,-6.186523438E-1,-1.894688606E-1,-3.086640835E-1
5.744156675E0,5.039377213E-1,4.624466896E-1,1.111955643E-1
5.784655217E0,2.392749786E-1,-2.379894257E-2,1.344583035E-1
5.825098134E0,8.903121948E-2,-5.944681168E-2,-1.832723618E-2
5.865606363E0,1.054058075E-1,1.438193321E-1,-2.530758381E-1
5.906115894E0,1.205163002E-1,-1.410861015E-1,1.139557362E-1
5.946601988E0,3.859472275E-2,-3.283615112E-1,-2.744417191E-1
5.987079384E0,-9.643030167E-2,-2.092127800E-1,1.825191975E-1
6.027549644E0,4.573664665E-1,7.936811447E-2,-3.808355331E-1
6.068035738E0,-8.132262230E-1,-6.950812340E-1,-9.089660645E-2
6.108521832E0,3.629841805E-1,2.500381470E-1,1.084804535E-1
6.149007978E0,4.719734192E-3,-1.022053719E0,9.570479393E-2
6.189544488E0,1.109632492E0,1.764755249E-1,2.302260399E-1
6.229986832E0,1.019379616E0,5.229139328E-2,2.901091576E-1
6.270471728E0,1.388815880E0,6.294507980E-1,2.095386982E-1
6.310938863E0,7.339611053E-1,1.655459404E-1,1.792070866E-1
6.351464228E0,-4.703454971E-1,-3.161106110E-1,-1.919398308E-1
6.391923394E0,-9.613890648E-1,4.998254776E-2,-3.004674911E-1
6.432405634E0,-4.759888649E-1,-1.251792908E-1,-8.136796951E-2
6.472911884E0,1.349024773E-1,2.456102371E-1,-1.424994469E-1
6.513417040E0,-1.094193459E-1,-5.390357971E-2,-1.014182568E-1
6.553883446E0,1.377153397E-1,1.568980217E-1,-2.250013351E-1
6.594385686E0,-2.540912628E-1,-2.343502045E-1,-7.769346237E-3
6.634873394E0,-2.872214317E-1,-4.087505341E-1,7.116079330E-2
6.675285842E0,1.039218903E-2,1.663851738E-1,-4.529943466E-1
6.715864384E0,-5.416560173E-1,5.140552521E-1,-7.812533379E-1
6.756350738E0,2.318124771E-1,2.672243118E-2,-6.505608559E-2
6.796812092E0,9.065723419E-2,5.520243645E-1,-2.589833736E-1
6.837298394E0,1.350841522E-1,1.288922787E0,3.518829346E-1
6.877784696E0,9.263806343E-1,1.142074108E0,6.910245419E-1
6.918271050E0,-7.498898506E-1,9.106841087E-1,6.340191364E-1
6.958717405E0,-1.540233612E0,4.112601280E-1,-1.885011196E-1
6.999243446E0,-1.226797104E0,-1.909999847E-1,-3.547663689E-1
7.039733342E0,-8.337087631E-1,1.355633736E-1,-6.734609604E-2
7.080194592E0,-3.504743576E-1,2.048878670E-1,-1.764268875E-1
7.120699228E0,-1.582570076E-1,-1.428270340E-2,-1.640360355E-1
7.161183655E0,1.830053329E-2,1.398077011E-1,8.770704269E-3
7.201618603E0,5.167756081E-1,8.010673523E-2,3.065052032E-1
7.242127248E0,4.782209396E-1,2.639484406E-2,2.003324032E-1
7.282613394E0,7.031235695E-1,6.451320648E-2,2.379395962E-1
7.323099540E0,1.445310593E0,-5.330648422E-1,3.465192318E-1
7.363607665E0,5.231199265E-1,-4.778060913E-1,2.358579636E-1
7.404111832E0,8.343749046E-1,-7.084898949E-1,-6.438684464E-2
7.444525530E0,7.153615952E-1,-9.711942673E-1,2.985668182E-2
7.485081050E0,7.896852493E-1,-8.136487007E-1,9.258270264E-3
7.525563290E0,5.350837708E-1,-8.929066658E-1,-2.478885651E-2
7.566050425E0,4.418644905E-1,-6.769223213E-1,-7.824611664E-2
7.606536207E0,3.559198380E-1,-7.204723358E-1,1.027321815E-2
7.647024748E0,-1.243805885E-1,-2.563428879E-1,-3.039550781E-2
7.687485165E0,5.586385727E-2,-6.789207458E-3,-7.186174393E-3
7.727971623E0,3.133621216E-1,4.498481750E-3,1.798748970E-2
7.768458134E0,2.696790695E-1,1.705842018E-1,3.104639053E-2
7.808947300E0,-1.239652634E-1,3.291754723E-1,-2.841472626E-3
7.849459800E0,-1.874871254E-1,2.419662476E-1,-1.060171127E-1
7.889946259E0,-1.392049789E-1,2.386584282E-1,-1.490418911E-1
7.930413811E0,-2.622942924E-1,3.730392456E-2,-1.663303375E-2
7.970900269E0,-2.125673294E-1,1.725912094E-1,-1.120049953E-1
8.011354175E0,-1.615633965E-1,2.265858650E-1,-1.869997978E-1
8.051840686E0,-3.000016212E-1,3.043398857E-1,-2.433228493E-2
8.092327144E0,1.745524406E-1,2.103867531E-1,-7.905864716E-2
8.132805321E0,2.898883820E-1,1.146736145E-1,1.911609173E-1
8.173347561E0,6.158165932E-1,-3.534083366E-1,2.581496239E-1
8.213833134E0,-2.599530220E-1,1.347827911E-1,2.235159874E-1
8.254318707E0,1.111187935E-1,6.167817116E-1,-1.669707298E-1
8.294804280E0,6.191730499E-3,1.914148331E-1,-2.346613407E-1
8.335289853E0,-5.069909096E-1,-2.936549187E-1,-1.120612621E-1
8.375761259E0,-7.309007645E-2,-2.851896286E-1,1.122698784E-1
8.416228967E0,2.917795181E-1,-7.869672775E-2,1.822996140E-2
8.456671571E0,-9.643745422E-2,3.182816505E-1,-9.008407593E-2
8.497235582E0,-2.214899063E-1,2.481498718E-1,-1.332533360E-1
8.537721780E0,-2.133674622E-1,2.282352448E-1,-1.542558670E-1
8.578209332E0,-1.685585976E-1,1.072831154E-1,-6.383061409E-2
8.618693603E0,-4.891109467E-2,8.154010773E-2,-3.454399109E-2
8.659183030E0,-2.031517029E-2,1.852798462E-1,-1.923608780E-2
8.699642196E0,-8.314943314E-2,7.992219925E-2,-6.704449654E-2
8.740132457E0,1.010308266E-1,-1.558060646E-1,1.444160938E-1
8.780618707E0,8.805942535E-2,-2.388205528E-1,4.953598976E-2
8.821092665E0,9.923982620E-2,-1.877827644E-1,2.137351036E-2
8.861584384E0,1.696043015E-1,-1.861515045E-1,2.974243164E-1
8.902015113E0,4.391174316E-1,-6.173706055E-2,3.487296104E-1
8.942545009E0,4.707064629E-1,-1.369924545E-1,3.087792397E-1
8.983065061E0,1.682572365E-1,-1.307854652E-1,1.324319839E-1
9.023491311E0,-1.453881264E-1,-1.765408516E-1,1.351976395E-2
9.064041311E0,-1.983065605E-1,-1.163725853E-1,-3.741884232E-2
9.104460686E0,1.997041702E-2,1.100096703E-1,-7.508277893E-2
9.145017717E0,1.027464867E-1,2.478928566E-1,-7.081317902E-2
9.185498759E0,6.176519394E-2,1.591558456E-1,3.571510315E-2
9.225977300E0,2.284598351E-1,1.740837097E-1,1.289248466E-1
9.266463655E0,2.298822403E-1,4.708242416E-2,1.571540833E-1
9.306950061E0,2.302889824E-1,-1.832385063E-1,2.803101540E-1
9.347436415E0,2.381772995E-1,-2.461228371E-1,2.909140587E-1
9.387922821E0,1.260471344E-1,-6.289482117E-3,1.613368988E-1
9.428357092E0,-5.675411224E-2,-1.532316208E-2,6.632661819E-2
9.468895269E0,-1.220955849E-1,1.632261276E-2,-2.222728729E-2
9.509381675E0,-2.863979340E-2,1.154708862E-2,-7.068109512E-2
9.549868342E0,-6.925678253E-2,3.513240814E-2,-4.602003098E-2
9.590342925E0,-8.412694931E-2,8.555698395E-2,-6.525039673E-2
9.630809175E0,-7.591962814E-2,7.739877701E-2,-4.297494888E-2
9.671299957E0,-2.036952972E-2,5.783987045E-2,-1.559257507E-4
9.711786311E0,-6.241798401E-4,7.010746002E-2,1.719474792E-3
9.752229592E0,-4.638290405E-2,7.153177261E-2,-1.589012146E-2
9.792769800E0,-8.196306229E-2,7.310533524E-2,-3.942394257E-2
9.833271155E0,-9.093618393E-2,5.459070206E-2,-5.688571930E-2
9.873759436E0,-6.646394730E-2,7.573461533E-2,-5.271053314E-2
9.914212509E0,-6.603670120E-2,7.356882095E-2,-5.573272705E-2
9.954691884E0,-8.795928955E-2,5.705595016E-2,-5.126476288E-2
9.995179228E0,-7.950258255E-2,5.602025986E-2,-2.981042862E-2
1.003571251E1,-5.087375641E-2,5.306053162E-2,-2.914571762E-2
1.007620001E1,-4.410982132E-2,5.686283112E-2,-2.216672897E-2
1.011668657E1,-8.458948135E-2,-6.705379486E-2,3.770208359E-2
1.015717360E1,-1.782188416E-1,-2.741475105E-1,8.329248428E-2
1.019765709E1,1.500625610E-1,9.299373627E-2,2.450323105E-2
1.023809162E1,1.480817795E-1,7.494974136E-2,2.136087418E-2
1.027862121E1,8.124589920E-2,-5.407047272E-2,1.230916977E-1
1.031911735E1,-4.323768616E-2,-1.248064041E-1,9.377956390E-2
1.035960491E1,6.412172318E-2,4.282474518E-2,4.491043091E-2
1.040007662E1,-1.408100128E-2,9.064674377E-3,1.185741425E-1
1.044054954E1,1.948070526E-2,-1.802630424E-1,3.155665398E-1
1.048103058E1,9.681129456E-2,-1.895399094E-1,2.804675102E-1
1.052151938E1,2.761240005E-1,5.941772461E-2,2.110228539E-1
1.056203063E1,6.892919540E-2,-1.438646317E-1,1.041848660E-1
1.060251209E1,-1.001224518E-1,-2.639813423E-1,-1.059343815E-1
1.064298834E1,2.533421516E-1,5.332374573E-2,-5.401396751E-2
1.068348011E1,4.941940308E-2,-3.662252426E-2,-1.186192036E-1
1.072393683E1,-1.028666496E-1,-2.219190598E-1,-5.503344536E-2
1.076441912E1,-5.859422684E-2,2.662277222E-2,3.433942795E-2
1.080490475E1,6.355333328E-2,5.644559860E-2,-1.785993576E-2
1.084540621E1,-1.750411987E-1,-1.626973152E-1,4.334282875E-2
1.088591866E1,6.287193298E-2,1.667094231E-1,-2.152729034E-1
1.092639725E1,1.267733574E-1,4.776022434E-1,-5.126950741E-1
1.096688975E1,4.182004929E-2,7.877495289E-1,-6.770653725E-1
1.100738392E1,-2.240443230E-1,4.713935852E-1,-3.892641068E-1
1.104787256E1,-1.027426720E-1,3.416833878E-1,-3.492443562E-1
1.108836261E1,-3.011498451E-1,2.250676155E-1,-2.861461639E-1
1.112884850E1,-2.028198242E-1,3.465390205E-1,-3.746507168E-1
1.116933121E1,-1.020784378E-1,9.630393982E-2,-1.078252792E-1
1.120980725E1,1.725020409E-1,-1.617193222E-2,2.972383499E-1
1.125028292E1,-5.540475845E-1,-1.196665764E-1,-5.379152298E-2
1.129076673E1,-2.333536148E-1,4.686083794E-1,-5.444338322E-1
1.133122996E1,-5.797643661E-1,1.204924583E-1,-5.572752953E-1
1.137177272E1,-9.994268417E-1,1.888976097E-1,-8.753924370E-1
1.141224709E1,-8.537712097E-1,3.505482674E-1,-7.856957912E-1
1.145271074E1,-4.874820709E-1,7.689476013E-2,-1.751122475E-1
1.149319475E1,-2.370243073E-1,-1.210074425E-1,2.112393379E-1
1.153370126E1,-9.026622772E-2,1.956977844E-1,4.480075836E-2
1.157419855E1,-4.623126984E-2,3.204550743E-1,-6.653928757E-2
1.161465100E1,9.947204590E-2,2.218470573E-1,-1.814222336E-2
1.165512058E1,1.444973946E-1,-1.113047600E-1,1.069598198E-1
1.169567084E1,6.780481339E-2,-2.242584229E-1,2.375535965E-1
1.173613011E1,1.007361412E-1,-1.703071594E-1,1.756148338E-1
1.177662569E1,9.953498840E-2,-2.481837273E-1,2.374563217E-1
1.181711501E1,3.082261086E-1,-4.487037659E-2,2.793326378E-1
1.185759740E1,2.321176529E-1,-7.170581818E-2,3.485832214E-1
1.189804938E1,1.334309578E-1,-1.815423965E-1,3.201599121E-1
1.193850642E1,1.466779709E-1,7.534980774E-3,1.456613541E-1
1.197906116E1,2.237129211E-2,4.908323288E-2,5.731439590E-2
1.201951079E1,-5.790138245E-2,-1.265072823E-1,9.918355942E-2
1.206000720E1,5.721616745E-2,-1.218843460E-1,1.453804970E-1
1.210050418E1,1.596531868E-1,-1.453638077E-2,1.737217903E-1
1.214096162E1,1.965785027E-1,-1.505489349E-1,3.040490150E-1
1.218145376E1,3.098850250E-1,-5.418357849E-1,3.599004745E-1
1.222195678E1,3.014745712E-1,1.550536156E-1,1.551499367E-1
1.226244011E1,2.237358093E-1,1.192755699E-1,1.687388420E-1
1.230293574E1,2.711820602E-2,3.528356552E-2,1.030268669E-1
1.234342808E1,1.425724030E-1,2.116036415E-1,-1.772356033E-2
1.238385522E1,4.705619812E-2,2.286386490E-2,-2.151489258E-2
1.242434147E1,8.451461792E-3,-5.996322632E-2,-2.447462082E-2
1.246483006E1,3.896284103E-2,9.399318695E-2,-7.207012177E-2
1.250531626E1,5.202722549E-2,1.079654694E-2,-7.394361496E-2
1.254585490E1,3.568124771E-2,-5.301952362E-2,1.878643036E-2
1.258631803E1,1.704645157E-2,-8.131027222E-2,4.040861130E-2
1.262683798E1,3.661155701E-2,-1.457548141E-2,-2.413415909E-2
1.266725829E1,-1.276302338E-2,1.163334846E-1,-1.450619698E-1
1.270784954E1,-9.485864639E-2,3.012042046E-1,-3.026380539E-1
1.274828923E1,-1.421117783E-1,3.715405464E-1,-3.186426163E-1
1.278874918E1,-3.814730644E-1,5.921554565E-2,-4.816484451E-2
1.282926688E1,-4.286904335E-1,-7.505607605E-2,5.324649811E-2
1.286975756E1,-4.435811043E-1,-1.057662964E-1,7.027626038E-3
1.291023438E1,-2.636537552E-1,8.478975296E-2,-1.449127197E-1
1.295065678E1,-1.113605499E-2,2.626023293E-1,-1.644721031E-1
1.299117829E1,6.049871445E-2,2.129955292E-1,-8.636236191E-2
1.303165558E1,4.701757431E-2,1.148419380E-1,-2.343511581E-2
1.307214397E1,-1.198148727E-1,1.200723648E-2,-5.032396317E-2
1.311265303E1,-3.127760887E-1,-1.082038879E-2,-1.239681244E-1
1.315315022E1,-2.797651291E-1,1.820468903E-2,-1.622371674E-1
1.319364813E1,-2.199225426E-1,1.552262306E-1,-2.228226662E-1
1.323413438E1,-2.054963112E-1,1.353549957E-1,-9.098625183E-2
1.327459782E1,-1.064553261E-1,1.377844810E-1,-7.975149155E-2
1.331506147E1,-6.287956238E-2,2.673101425E-2,-4.370737076E-2
1.335556032E1,-6.937980652E-3,-1.796150208E-2,3.338623047E-2
1.339606892E1,-1.981163025E-2,2.013635635E-2,2.291440964E-2
1.343656449E1,1.787757874E-2,9.189701080E-2,-2.076625824E-2
1.347700569E1,5.676317215E-2,1.087250710E-1,1.780414581E-2
1.351753298E1,5.072069168E-2,2.190494537E-2,5.323362350E-2
1.355802657E1,3.375959396E-2,-6.476736069E-2,8.423423767E-2
1.359851058E1,3.794050217E-2,-7.723569870E-2,1.136541367E-2
1.363897272E1,2.566766739E-2,-3.501510620E-2,2.054119110E-2
1.367951574E1,1.737785339E-2,-5.615711212E-3,1.857566833E-2
1.371997980E1,-1.327276230E-2,8.326053619E-3,-1.194953918E-3
1.376041386E1,-4.812765121E-2,1.673507690E-2,-1.876878738E-2
1.380089100E1,-4.826164246E-2,3.314828873E-2,-2.384233475E-2
1.384138293E1,2.065181732E-2,5.137300491E-2,-2.214288712E-2
1.388186511E1,1.219749451E-3,3.651380539E-2,9.992122650E-3
1.392235475E1,-9.114742279E-3,2.245426178E-3,1.452732086E-2
1.396284360E1,1.308250427E-2,-3.932952881E-3,-4.624843597E-3
1.400335954E1,1.645565033E-3,2.391290665E-2,-2.384185791E-6
1.404385438E1,4.549455643E-2,-4.477500916E-3,4.001760483E-2
1.408432808E1,8.634233475E-2,-5.084609985E-2,2.734661102E-2
1.412478933E1,6.006908417E-2,-1.495795250E-1,7.120800018E-2
1.416526402E1,5.909299850E-2,-9.698438644E-2,9.051990509E-2
1.420573725E1,7.975530624E-2,2.408742905E-2,8.199501038E-2
1.424626631E1,6.779336929E-2,3.483963013E-2,5.691146851E-2
1.428677746E1,5.602788925E-2,1.002078056E-1,2.194738388E-2
1.432726584E1,3.004264832E-2,-2.646541595E-2,5.125045776E-2
1.436775334E1,7.133340836E-2,-1.353507042E-1,9.850215912E-2
1.440824032E1,8.534955978E-2,-1.865715981E-1,7.871007919E-2
1.444872647E1,1.179499626E-1,-1.569147110E-1,6.289005280E-2
1.448919491E1,6.787776947E-2,-8.815622330E-2,6.366777420E-2
1.452967548E1,3.760910034E-2,-5.589962006E-3,5.831193924E-2
1.457018334E1,6.225824356E-2,7.955551147E-2,5.282402039E-2
1.461064813E1,3.932809830E-2,7.197809219E-2,3.376293182E-2
1.465111501E1,4.546499252E-2,7.309246063E-2,1.327657700E-2
1.469159095E1,4.549694061E-2,2.554750443E-2,4.671812057E-2
1.473210933E1,2.139091492E-3,-5.412483215E-2,3.081941605E-2
1.477256735E1,1.579809189E-2,-4.242944717E-2,4.253387451E-3
1.481311787E1,-4.443168640E-3,-3.069591522E-2,-2.180194855E-2
1.485360381E1,2.237844467E-2,-1.557731628E-2,5.533695221E-3
1.489408980E1,-6.818294525E-3,1.732969284E-2,2.566814423E-3
1.493451267E1,-7.061004639E-3,4.769515991E-2,-2.294921875E-2
1.497505480E1,-3.475046158E-2,3.759908676E-2,-2.603912354E-2
1.501554043E1,-5.549526215E-2,2.471876144E-2,-2.685070038E-3
1.505602350E1,-5.444335938E-2,3.927230835E-3,-5.978107452E-3
1.509651126E1,-2.063083649E-2,2.675247192E-2,-4.210472107E-3
1.513699621E1,3.322601318E-3,2.483177185E-2,2.263641357E-2
1.517747944E1,2.014970779E-2,-4.463052750E-2,6.785583496E-2
1.521796027E1,3.436374664E-2,-4.493761063E-2,8.270740509E-2
1.525844673E1,4.015111923E-2,-5.400180817E-3,4.784011841E-2
1.529893319E1,2.229928970E-2,1.818847656E-2,1.673269272E-2
1.533941970E1,-4.834175110E-3,1.614823341E-1,-5.741167068E-2
1.537990616E1,-2.323198318E-2,1.413483620E-1,-4.710912704E-2
1.542035329E1,-1.344566345E-1,-1.198849678E-1,5.213975906E-2
1.546086011E1,-1.285977364E-1,-2.281260490E-1,3.536987305E-2
1.550134657E1,4.426097870E-2,-2.395772934E-2,-2.402877808E-2
1.554183168E1,1.668190956E-1,1.198124886E-1,-1.020469666E-1
1.558231761E1,1.119618416E-1,8.198165894E-2,-2.323532104E-2
1.562280350E1,4.813146591E-2,8.982658386E-3,1.098251343E-2
1.566329621E1,-1.133780479E-1,6.187915802E-3,-2.162599564E-2
1.570380366E1,-1.180262566E-1,8.695459366E-2,-1.027293205E-1
1.574428954E1,-7.773828506E-2,1.478705406E-1,-1.016201973E-1
1.578477923E1,-6.499147415E-2,8.896064758E-2,-2.221202850E-2
1.582526506E1,-6.913566589E-2,4.782152176E-2,1.392221451E-2
1.586575095E1,-9.961605072E-2,4.034996033E-3,4.725456238E-3
1.590623688E1,-3.966522217E-2,-3.564357758E-2,1.704263687E-2
1.594664709E1,4.204130173E-2,-6.907463074E-2,2.014875412E-2
1.598721355E1,6.330490112E-2,-9.907722473E-3,3.295850754E-2
1.602769923E1,4.339218140E-5,7.719993591E-4,3.490400314E-2
1.606818834E1,1.990842819E-2,4.496431351E-2,2.072715759E-2
1.610867152E1,-1.924037933E-2,3.669309616E-2,1.334571838E-2
1.614915803E1,-1.996135712E-2,3.286886215E-2,-8.957862854E-3
1.618964339E1,-1.270055771E-2,3.136968613E-2,-1.720666885E-2
1.623010699E1,-4.335308075E-2,-2.223730087E-2,-2.666950226E-3
1.627060616E1,-4.930496216E-4,-1.041841507E-2,-1.285076141E-3
1.631108032E1,9.822845459E-3,-1.945495605E-2,8.521080017E-4
1.635154162E1,1.508426666E-2,-1.900339127E-2,8.601188660E-3
1.639202808E1,1.442623138E-2,1.756191254E-3,7.780551910E-3
1.643248183E1,-2.070474625E-2,3.602027893E-2,2.570581436E-2
1.647304543E1,3.158903122E-2,8.378934860E-2,7.139682770E-3
1.651354579E1,7.353305817E-3,5.919694901E-2,8.489608765E-3
1.655402136E1,-9.537696838E-3,2.459716797E-2,7.386207581E-4
1.659451230E1,4.104614258E-3,-8.823394775E-3,4.706382751E-3
1.663496089E1,-1.415681839E-2,-3.544712067E-2,7.127761841E-3
1.667547964E1,-2.597332001E-3,-5.062961578E-2,1.481151581E-2
1.671596621E1,-8.775234222E-3,-3.396511078E-2,2.518033981E-2
1.675645282E1,-9.957790375E-3,-3.238964081E-2,9.052753448E-3
1.679694329E1,-3.357648849E-2,2.747392654E-2,-1.242589951E-2
1.683742985E1,-9.475708008E-3,4.696512222E-2,-1.873016357E-3
1.687790985E1,2.892017365E-2,6.222105026E-2,-2.448558807E-3
1.691839642E1,-1.542234421E-2,1.043601036E-1,-1.070976257E-2
1.695887475E1,-1.128149033E-2,7.648515701E-2,-2.383232117E-2
1.699937230E1,-3.402709961E-3,-1.464700699E-2,5.749702454E-3
1.703984944E1,-3.500890732E-2,-3.867959976E-2,1.333713531E-2
1.708032266E1,1.694726944E-2,-4.458332062E-2,1.437282562E-2
1.712078996E1,2.596378326E-2,-2.816200256E-3,1.993751526E-2
1.716128584E1,5.573749542E-3,3.283500671E-2,2.500486374E-2
1.720175147E1,1.418972015E-2,5.704021454E-2,-7.841587067E-3
1.724227438E1,-2.181148529E-2,3.043317795E-2,-1.521015167E-2
1.728276095E1,-5.758094788E-2,2.483797073E-2,8.887767792E-3
1.732324751E1,6.366729736E-3,-7.575988770E-3,-8.529663086E-3
1.736374256E1,5.400180817E-3,-1.592397690E-2,-5.161285400E-3
1.740424194E1,9.356975555E-3,4.195690155E-3,3.289318085E-2
1.744466730E1,3.993558884E-2,1.234054565E-3,2.042484283E-2
1.748517912E1,-1.516819000E-3,1.646041870E-2,1.737594604E-2
1.752569678E1,1.751089096E-2,2.316808701E-2,1.984024048E-2
1.756617876E1,-1.807498932E-2,-2.865791321E-4,1.977300644E-2
1.760666839E1,-1.554775238E-2,-4.598426819E-2,3.039693832E-2
1.764716074E1,-1.186432838E-1,-2.657241821E-1,1.209001541E-1
1.768762657E1,6.403160095E-2,-6.169414520E-2,5.755281448E-2
1.772811303E1,1.671333313E-1,4.372501373E-2,1.830720901E-2
1.776859954E1,1.460165977E-1,7.979011536E-2,3.028726578E-2
1.780907938E1,4.540491104E-2,-5.059480667E-2,7.254409790E-2
1.784955657E1,3.198814392E-2,7.050991058E-3,5.095529556E-2
1.789004298E1,7.609844208E-3,3.905296326E-2,3.355503082E-3
1.793055839E1,3.885698318E-2,2.639007568E-2,-1.791143417E-2
1.797105517E1,3.345298767E-2,-3.277254105E-2,4.664564133E-2
1.801146433E1,5.090856552E-2,-5.112266541E-2,4.478168488E-2
1.805202558E1,7.546138763E-2,4.751443863E-2,-1.889562607E-2
1.809250954E1,3.035068512E-3,-5.129337311E-3,-1.470851898E-2
1.813299350E1,-2.060747147E-2,2.880001068E-2,-3.512048721E-2
1.817348506E1,-2.974510193E-2,6.350183487E-2,-4.263257980E-2
1.821395584E1,-9.866380692E-2,-1.406431198E-2,-1.373672485E-2
1.825444220E1,-1.502275467E-1,-7.877349854E-2,-8.441448212E-3
1.829494459E1,-1.082372665E-2,5.873298645E-2,-5.176496506E-2
1.833542782E1,1.999330521E-2,1.086702347E-1,-9.044837952E-2
1.837588371E1,-6.240367889E-2,1.474695206E-1,-7.601118088E-2
1.841638199E1,-8.080053329E-2,1.180777550E-1,-1.091475487E-1
1.845688355E1,-7.338953018E-2,1.645436287E-1,-1.407885551E-1
1.849735589E1,-1.454319954E-1,1.474475861E-1,-1.894855499E-1
1.853782016E1,-2.116985321E-1,9.726047516E-2,-1.352643967E-1
1.857832824E1,-2.363214493E-1,5.624341965E-2,-4.571390152E-2
1.861878652E1,-2.143535614E-1,9.334182739E-2,-9.403038025E-2
1.865925235E1,-7.478523254E-2,1.889562607E-2,-7.837677002E-2
1.869981142E1,-4.828214645E-2,-6.691455841E-2,-4.489898682E-2
1.874029720E1,-1.865291595E-2,2.919673920E-3,2.443981171E-2
1.878078230E1,-6.856441498E-3,-1.010894775E-4,6.876707077E-2
1.882127303E1,1.464319229E-2,-2.180433273E-2,7.175588608E-2
1.886175506E1,2.788782120E-2,-2.734041214E-2,4.523420334E-2
1.890224084E1,2.156066895E-2,-1.080751419E-2,5.055236816E-2
1.894272579E1,2.936887741E-2,3.617286682E-3,3.319835663E-2
1.898321480E1,3.087902069E-2,7.088661194E-3,4.111671448E-2
1.902369235E1,2.923345566E-2,2.115106583E-2,1.585292816E-2
1.906418876E1,7.677078247E-5,-3.582954407E-3,-1.209211349E-2
1.910467230E1,-4.476833344E-2,-2.390050888E-2,-5.626201630E-3
1.914516397E1,-2.405309677E-2,-3.482341766E-2,-2.777099609E-3
1.918564876E1,3.136539459E-2,-6.872463226E-2,7.647275925E-2
1.922611480E1,8.014822006E-2,-8.594989777E-2,6.357526779E-2
1.926658610E1,1.524252892E-1,-3.382635117E-2,7.931804657E-2
1.930707303E1,1.113190651E-1,-4.181385040E-2,7.989549637E-2
1.934759938E1,1.154141426E-1,-4.090118408E-2,7.927799225E-2
1.938804798E1,1.106691360E-1,5.146503448E-3,6.718158722E-2
1.942855350E1,6.742048264E-2,2.562427521E-2,5.582475662E-2
1.946902152E1,5.476903915E-2,1.307821274E-2,4.495573044E-2
1.950952063E1,7.325792313E-2,8.172988892E-4,3.460025787E-2
1.955001824E1,5.025482178E-2,-2.573442459E-2,5.118322372E-2
1.959050866E1,3.171348572E-2,-2.942228317E-2,5.105876923E-2
1.963095313E1,2.700662613E-2,-3.089094162E-2,5.334711075E-2
1.967147433E1,-1.219606400E-2,-4.045677185E-2,2.224922180E-2
1.971197194E1,-1.826381683E-2,1.725006104E-2,3.311634064E-3
1.975244490E1,-5.354213715E-2,5.627632141E-3,-4.076004028E-3
1.979294496E1,-2.808856964E-2,1.796102524E-2,-4.408216476E-2
1.983343464E1,-4.614114761E-2,7.462167740E-2,-5.443811417E-2
1.987391787E1,-4.115247726E-2,5.532693863E-2,-4.368925095E-2
1.991440532E1,3.375530243E-3,3.805971146E-2,-4.232883453E-3
1.995487933E1,2.066135406E-2,-7.534503937E-3,2.538633347E-2
1.999535647E1,2.666330338E-2,1.352787018E-3,2.495670319E-2
2.003586516E1,1.985216141E-2,2.053165436E-2,1.957702637E-2
2.007634324E1,3.080511093E-2,4.275465012E-2,1.932573318E-2
2.011680824E1,-2.546977997E-2,2.023315430E-2,2.081298828E-2
2.015730089E1,-1.547956467E-2,1.434230804E-2,-4.179477692E-3
2.019782277E1,-5.139017105E-2,-1.650810242E-2,-1.558542252E-2
2.023830298E1,-4.224109650E-2,-3.498554230E-3,-5.192756653E-2
2.027876902E1,-4.249763489E-2,1.092386246E-2,-2.567958832E-2
2.031924782E1,-1.669645309E-2,8.340358734E-3,-7.186412811E-3
2.035974334E1,1.187658310E-2,4.569911957E-2,5.691051483E-3
2.040023454E1,2.875995636E-2,2.475166321E-2,2.401304245E-2
2.044072188E1,2.279710770E-2,2.789974213E-3,4.740762711E-2
2.048120225E1,4.088258743E-2,2.529430389E-2,3.190231323E-2
2.052168261E1,3.299713135E-3,1.674413681E-2,1.796674728E-2
2.056217006E1,-9.413719177E-3,2.125263214E-3,-5.402565002E-4
2.060266886E1,-5.679035187E-2,-9.159564972E-3,-3.090810776E-2
2.064311553E1,-6.633663177E-2,-6.405830383E-3,-4.835319519E-2
2.068367001E1,-4.210615158E-2,9.496688843E-3,-2.334260941E-2
2.072412923E1,-1.275444031E-2,1.686096191E-2,6.814002991E-4
2.076461657E1,2.372121811E-2,7.098674774E-3,9.442806244E-3
2.080510991E1,1.143455505E-2,5.861282349E-3,1.999902725E-2
2.084555636E1,1.361417770E-2,2.082777023E-2,2.838850021E-2
2.088606183E1,-3.370285034E-3,2.025032043E-2,3.440380096E-2
2.092655532E1,3.122806549E-3,1.274538040E-2,2.810955048E-3
2.096706027E1,-1.906871796E-2,8.912563324E-3,-4.919528961E-3
2.100755225E1,-6.779193878E-3,-1.362800598E-3,-8.152008057E-3
2.104804069E1,-3.434801102E-2,1.344394684E-2,-1.760149002E-2
2.108843876E1,-3.062772751E-2,1.583099365E-4,-1.238536835E-2
2.112899220E1,9.855270386E-3,1.481008530E-2,-1.548385620E-2
2.116947355E1,-1.506328583E-3,2.477455139E-2,1.471996307E-3
2.120996584E1,3.511095047E-2,3.459215164E-2,1.956462860E-2
2.125044975E1,8.655834198E-2,6.196403503E-2,6.146430969E-3
2.129095006E1,7.036399841E-2,7.013940811E-2,2.944421768E-2
2.133143699E1,-3.258228302E-3,1.085138321E-2,3.864240646E-2
2.137192017E1,-2.884197235E-2,3.750896454E-2,2.356624603E-2
2.141240423E1,-8.630084991E-2,5.670022964E-2,-1.609849930E-2
2.145287339E1,-1.272525787E-1,-2.097606659E-2,5.425930023E-3
2.149336532E1,-5.470752716E-3,-3.432273865E-2,-2.862644196E-2
2.153386501E1,-7.225656509E-2,-3.965806961E-2,5.634307861E-3
2.157435246E1,3.774356842E-2,-8.773040771E-2,-4.489660263E-2
2.161484256E1,-2.718496323E-2,-5.257940292E-2,-2.126169205E-2
2.165526162E1,1.035499573E-2,2.275991440E-2,4.387855530E-3
2.169583694E1,-1.411437988E-3,4.411315918E-2,5.068302155E-3
2.173626392E1,7.221126556E-2,6.724500656E-2,2.296876907E-2
2.177678589E1,1.314258575E-2,5.202293396E-2,2.609920502E-2
2.181725616E1,5.387783051E-3,3.680610657E-2,4.084777832E-2
2.185773704E1,5.154132843E-3,-2.933454514E-2,2.126979828E-2
2.189824881E1,1.125764847E-2,-5.910301208E-2,3.780126572E-2
2.193868402E1,-4.954910278E-2,-1.519360542E-1,1.058149338E-1
2.197921105E1,-2.450256348E-1,-6.304955482E-1,3.532342911E-1
2.201970001E1,1.113553047E-1,-3.049168587E-1,2.425789833E-1
2.206020605E1,4.598717690E-1,3.530225754E-1,2.649974823E-2
2.210066767E1,4.202756882E-1,2.730150223E-1,1.276388168E-1
2.214113464E1,2.374882698E-1,1.037836075E-2,8.105468750E-2
2.218163178E1,5.439138412E-2,2.437639236E-2,-9.426689148E-2
2.222214371E1,-1.025285721E-1,-6.490707397E-2,-2.533779144E-1
2.226261704E1,-2.310900688E-1,-1.205911636E-1,-2.677760124E-1
2.230311683E1,-9.569978714E-2,-5.464553833E-3,-8.445453644E-2
2.234360204E1,4.251003265E-2,3.784227371E-2,7.069253922E-2
2.238408886E1,1.210680008E-1,6.996870041E-2,1.048660278E-1
2.242457292E1,2.472076416E-1,5.399990082E-2,1.045513153E-1
2.246506339E1,7.620286942E-2,-1.122808456E-2,1.034603119E-1
2.250553392E1,3.780317307E-2,1.220750809E-2,2.047014236E-2
2.254603423E1,-7.478380203E-2,8.327102661E-2,-6.226444244E-2
2.258650110E1,-1.271672249E-1,1.096601486E-1,-8.678770065E-2
2.262699772E1,-1.516160965E-1,7.617282867E-2,-1.379084587E-1
2.266749230E1,-1.813364029E-1,4.593276978E-2,-1.871070862E-1
2.270801954E1,-1.407947540E-1,1.058578491E-4,-1.559071541E-1
2.274846350E1,-1.053557396E-1,-5.018615723E-2,-4.921007156E-2
2.278891126E1,-9.994840622E-2,-6.623649597E-2,3.836727142E-2
2.282940402E1,-6.422805786E-2,1.182842255E-2,1.603507996E-2
2.286991037E1,-3.509807587E-2,8.570528030E-2,-7.021951675E-2
2.291042798E1,-1.147770882E-1,1.458978653E-1,-1.302704811E-1
2.295090548E1,-9.180021286E-2,2.232718468E-1,-1.666598320E-1
2.299136527E1,-1.021375656E-1,1.527338028E-1,-1.077961922E-1
2.303186183E1,-1.383881569E-1,1.707000732E-1,-1.179790497E-1
2.307236397E1,-2.144808769E-1,1.869864464E-1,-2.028584480E-1
2.311284720E1,-2.771320343E-1,1.650910378E-1,-2.852935791E-1
2.315333694E1,-3.517704010E-1,9.765386581E-2,-2.293963432E-1
2.319382595E1,-3.076901436E-1,-2.783107758E-2,-1.652040482E-1
2.323429522E1,-1.397905350E-1,-8.919525146E-2,-4.443931580E-2
2.327478470E1,-3.962612152E-2,1.047263145E-1,-2.401018143E-2
2.331527990E1,-2.733707428E-3,1.558747292E-1,5.627489090E-2
2.335575662E1,-2.131891251E-2,8.270025253E-2,-1.024723053E-3
2.339622501E1,-2.836942673E-2,4.543447495E-2,-8.688926697E-3
2.343671652E1,-6.035995483E-2,7.082271576E-2,-6.464052200E-2
2.347721636E1,-9.902095795E-2,6.458902359E-2,-7.988357544E-2
2.351770063E1,-9.122705460E-2,-1.165390015E-3,-4.953670502E-2
2.355818261E1,-8.491182327E-2,-5.515146255E-2,-6.713008881E-2
2.359864813E1,-2.527999878E-2,-1.272077560E-1,-3.480815887E-2
2.363913251E1,4.075860977E-2,-1.854228973E-1,3.386068344E-2
2.367968741E1,6.765413284E-2,-1.763701439E-1,4.000329971E-2
2.372017136E1,1.469926834E-1,-1.110501289E-1,7.168722153E-2
2.376059558E1,2.076072693E-1,-8.951139450E-2,1.167683601E-1
2.380109855E1,1.821122169E-1,-1.062583923E-1,1.099596024E-1
2.384161105E1,1.820960045E-1,-8.709812164E-2,8.871698380E-2
2.388209668E1,1.656880379E-1,-1.552662849E-1,9.320545197E-2
2.392257991E1,1.918168068E-1,-1.343383789E-1,1.099381447E-1
2.396306569E1,1.936378479E-1,-1.054248810E-1,1.094889641E-1
2.400354714E1,1.665301323E-1,-6.371212006E-2,1.127133369E-1
2.404403985E1,1.527290344E-1,-6.592273712E-2,1.089277267E-1
2.408452683E1,1.481299400E-1,-4.540681839E-2,1.100172997E-1
2.412501235E1,1.028685570E-1,-6.839513779E-2,1.257090569E-1
2.416549975E1,4.128117561E-1,-5.008726120E-1,2.772459984E-1
2.420598824E1,2.272868156E-1,-1.591153145E-1,2.167787552E-1
2.424647392E1,2.388906479E-1,-1.403007507E-1,2.324986458E-1
2.428693188E1,1.798815727E-1,-5.380630493E-3,2.244205475E-1
2.432744553E1,2.922859192E-1,-1.654529572E-2,2.411689758E-1
2.436791902E1,1.303191185E-1,-6.618452072E-2,1.748609543E-1
2.440841147E1,-1.293134689E-2,9.102201462E-2,3.657960892E-2
2.444885636E1,-3.376054764E-2,6.889152527E-2,-3.861379623E-2
2.448940063E1,-5.531454086E-2,5.869626999E-2,-1.063637733E-1
2.452986964E1,-4.706048965E-2,3.554821014E-3,-1.249823570E-1
2.457031803E1,-1.147055626E-1,-1.077222824E-2,-9.356641769E-2
2.461084006E1,-1.635594368E-1,1.190085411E-1,-1.319255829E-1
2.465127866E1,-1.383934021E-1,1.642160416E-1,-8.882474899E-2
2.469183688E1,-1.209950447E-1,1.539545059E-1,-5.457258224E-2
2.473229918E1,-8.685207367E-2,8.416557312E-2,-4.631185532E-2
2.477280464E1,-7.379436493E-2,3.332042694E-2,-5.885219574E-2
2.481329042E1,-1.065797806E-1,9.102344513E-3,-6.648302078E-2
2.485377423E1,-7.046890259E-2,-6.957530975E-3,-5.901765823E-2
2.489425761E1,-6.888008118E-2,-5.251407623E-3,-5.643033981E-2
2.493474652E1,-9.126281738E-2,2.769374847E-2,-6.467390060E-2
2.497520089E1,-8.582592010E-2,8.838796616E-2,-6.215667725E-2
2.501571990E1,-6.169795990E-2,9.393310547E-2,-4.605674744E-2
2.505620678E1,-4.169559479E-2,6.789207458E-2,-2.256584167E-2
2.509667532E1,-3.936481476E-2,5.889797211E-2,-9.530544281E-3
2.513719584E1,-5.145215988E-2,6.805896759E-2,3.012657166E-3
2.517767110E1,-4.301404953E-2,2.860164642E-2,-6.986618042E-3
2.521816152E1,2.435016632E-2,1.372146606E-2,3.695011139E-3
2.525863662E1,3.820371628E-2,-2.698755264E-2,2.446317673E-2
2.529911464E1,5.606842041E-2,-3.901529312E-2,2.908515930E-2
2.533961136E1,1.528406143E-2,-6.043291092E-2,3.363800049E-2
2.538008803E1,6.095409393E-3,-1.940679550E-2,-7.688045502E-3
2.542056975E1,-6.759166718E-3,7.641792297E-3,-2.744817734E-2
2.546106803E1,-6.590652466E-2,4.430818558E-2,-1.852846146E-2
2.550155267E1,-4.633903503E-2,6.086874008E-2,-3.407287598E-2
2.554204970E1,-1.220273972E-2,4.046487808E-2,-1.978397369E-2
2.558253350E1,-5.458831787E-3,8.829879761E-2,1.909160614E-2
2.562301824E1,6.252288818E-3,5.842447281E-2,4.816770554E-2
2.566343892E1,-7.326889038E-2,-1.062731743E-1,1.073021889E-1
2.570400480E1,-4.645919800E-2,-9.442758560E-2,4.928016663E-2
2.574448277E1,1.074261665E-1,3.737115860E-2,-1.475858688E-2
2.578497152E1,1.110186577E-1,2.134895325E-2,-1.942014694E-2
2.582545334E1,3.857755661E-2,-1.084852219E-2,-3.190994263E-3
2.586590063E1,-4.559850693E-2,-6.043720245E-2,2.226400375E-2
2.590640548E1,-8.287668228E-2,-7.044315338E-2,-2.121210098E-2
2.594691173E1,-1.671266556E-2,5.501317978E-2,-4.338026047E-2
2.598739751E1,5.559778214E-2,7.773160934E-2,-7.954597473E-3
2.602786772E1,4.274368286E-3,8.979177475E-2,3.758573532E-2
2.606837136E1,-2.836084366E-2,4.810380936E-2,4.731655121E-2
2.610885834E1,-1.101684570E-2,6.699562073E-4,2.706146240E-2
2.614935308E1,4.011344910E-2,-7.832050323E-3,3.939151764E-2
2.618985501E1,9.954261780E-2,-5.291843414E-2,4.223489761E-2
2.623032105E1,8.408927917E-2,-8.491420746E-2,6.184625626E-2
2.627078897E1,1.989698410E-2,-8.814287186E-2,4.694509506E-2
2.631126548E1,5.547046661E-3,-1.425123215E-2,-8.615493774E-3
2.635176553E1,-4.129409790E-3,4.039287567E-2,-1.879167557E-2
2.639227074E1,-2.672910690E-2,8.399915695E-2,-3.599405289E-2
2.643275652E1,3.508090973E-3,1.110887527E-1,-2.916383743E-2
2.647321303E1,-7.588386536E-3,7.491207123E-2,-4.179382324E-2
2.651372142E1,-4.971027374E-3,3.937625885E-2,-1.376819611E-2
2.655422011E1,-5.558013916E-2,-3.638601303E-2,-2.765655518E-5
2.659470787E1,-6.787061691E-2,3.161287308E-2,-1.849460602E-2
2.663517011E1,-6.812286377E-2,1.406836510E-1,-3.687572479E-2
2.667565839E1,-5.821943283E-2,1.128830910E-1,-5.912065506E-2
2.671617089E1,-6.305551529E-2,8.960628510E-2,-6.327819824E-2
2.675662287E1,-5.175018311E-2,7.086658478E-2,-5.998182297E-2
2.679713647E1,-1.197657585E-1,-1.887941360E-2,-5.860471725E-2
2.683762058E1,-1.100459099E-1,-6.637430191E-2,-2.042007446E-2
2.687808938E1,-9.970951080E-2,-7.731962204E-2,-4.487037659E-4
2.691856792E1,-7.179641724E-2,-1.517391205E-2,1.337289810E-2
2.695905110E1,6.931304932E-3,4.859590530E-2,-1.769018173E-2
2.699954819E1,4.067993164E-2,5.463933945E-2,-2.183818817E-2
2.704004074E1,1.413297653E-2,1.112222672E-2,1.069068909E-3
2.708053220E1,-5.486011505E-3,7.347106934E-3,3.833007812E-2
2.712100756E1,3.036308289E-2,2.892875671E-2,3.849220276E-2
2.716146079E1,4.963397980E-2,2.017641068E-2,2.210330963E-2
2.720196735E1,2.617692947E-2,-9.271621704E-3,2.136516571E-2
2.724248168E1,2.570486069E-2,-3.622055054E-3,1.812410355E-2
2.728297605E1,-7.083415985E-3,-2.249240875E-3,1.287460327E-4
2.732346579E1,-2.515792847E-3,-3.747463226E-3,-7.917404175E-3
2.736395084E1,-2.686452866E-2,-1.162147522E-2,2.257347107E-3
2.740443584E1,-8.248329163E-3,9.797573090E-3,5.776405334E-3
2.744492194E1,3.554487228E-2,9.022235870E-3,2.649307251E-2
2.748540386E1,5.251216888E-2,1.173257828E-2,4.378223419E-2
2.752589266E1,4.775524139E-2,-8.141517639E-3,5.213403702E-2
2.756637110E1,4.108905792E-3,-3.028392792E-3,1.865291595E-2
2.760682256E1,-3.170537949E-2,5.173206329E-3,-2.743387222E-2
2.764733688E1,-6.715297699E-2,7.418155670E-3,-5.056095123E-2
2.768787433E1,-5.376434326E-2,1.345729828E-2,-3.952836990E-2
2.772829032E1,-2.690172195E-2,2.577447891E-2,-2.974033356E-3
2.776878855E1,2.201843262E-2,2.887392044E-2,2.552127838E-2
2.780925709E1,3.588247299E-2,1.700448990E-2,3.123807907E-2
2.784976235E1,1.925992966E-2,-2.460145950E-2,3.463172913E-2
2.789027402E1,1.879167557E-2,-1.216411591E-2,2.491664886E-2
2.793069558E1,1.551532745E-2,1.495409012E-2,8.615016937E-3
2.797121496E1,1.336860657E-2,3.386068344E-2,-1.124858856E-3
2.801169725E1,-1.091957092E-2,2.468729019E-2,-1.148080826E-2
2.805221501E1,-2.598237991E-2,6.206989288E-3,-1.482200623E-2
2.809271662E1,7.521629333E-3,1.063585281E-2,5.149841309E-4
2.813316772E1,1.432895660E-3,-1.471519470E-2,2.068614960E-2
2.817368996E1,3.979444504E-2,-1.166820526E-3,2.539253235E-2
2.821416511E1,1.721954346E-2,1.245307922E-2,3.072643280E-2
2.825465032E1,-2.577495575E-2,1.369094849E-2,2.929735184E-2
2.829514902E1,-5.468368530E-3,1.071453094E-3,8.400440216E-3
2.833564016E1,1.095771790E-2,-8.991718292E-3,-8.586406708E-3
2.837612563E1,5.307197571E-3,1.565837860E-2,1.055765152E-2
2.841659011E1,1.962137222E-2,1.660919189E-2,1.473903656E-2
2.845705444E1,1.663541794E-2,2.768754959E-2,1.485681534E-2
2.849755662E1,6.535053253E-3,8.304119110E-3,7.273197174E-3
2.853802907E1,-2.891016006E-2,1.693725586E-3,-6.896495819E-3
2.857856480E1,-7.743835449E-4,1.324748993E-2,-1.560163498E-2
2.861898897E1,-2.933979034E-2,-1.400470734E-3,-1.863622665E-2
2.865945912E1,-2.470588684E-2,7.020473480E-3,-1.247310638E-2
2.870004261E1,-1.597595215E-2,3.971099854E-2,2.021026611E-2
2.874050303E1,1.261377335E-2,3.545808792E-2,3.154373169E-2
2.878096116E1,2.803087234E-2,1.421308517E-2,1.573276520E-2
2.882147964E1,-2.628803253E-3,-3.449964523E-2,3.034543991E-2
2.886196178E1,3.935289383E-2,-3.905153275E-2,1.868867874E-2
2.890245095E1,1.236009598E-2,-1.832675934E-2,3.552103043E-2
2.894293860E1,-7.585048676E-3,8.804321289E-3,1.316881180E-2
2.898342350E1,-1.725387573E-2,2.278375626E-2,-3.120040894E-2
2.902389787E1,-5.790853500E-2,2.264070511E-2,-4.033756256E-2
2.906439631E1,-6.071615219E-2,3.184175491E-2,-3.903341293E-2
2.910488142E1,-5.368375778E-2,3.141260147E-2,-4.301214218E-2
2.914536938E1,-3.314590454E-2,-4.417419434E-2,3.599977493E-2
2.918586022E1,-7.003116608E-2,-3.138985634E-1,2.621784210E-1
2.922634626E1,9.901905060E-2,-4.190020561E-1,5.364389420E-1
2.926679485E1,6.674909592E-2,-5.781917572E-1,7.268323898E-1
2.930728938E1,7.332944870E-2,-5.774989128E-1,5.483212471E-1
2.934773116E1,6.171770096E-1,7.204110622E-1,-1.776242256E-1
2.938829042E1,1.096732616E0,6.908037663E-1,-1.962361336E-1
2.942878235E1,4.030718803E-1,7.126712799E-2,-2.071433067E-1
2.946926772E1,-3.637409210E-2,8.614063263E-3,-3.680677414E-1
2.950975308E1,-1.466326714E-1,-2.763686180E-1,-1.520137787E-1
2.955023397E1,-1.134529114E-1,-2.988433838E-1,2.002716064E-3
2.959073485E1,-8.717727661E-2,-8.662652969E-2,-8.702039719E-2
2.963119069E1,2.094802856E-1,2.534961700E-2,-5.074977875E-3
2.967168662E1,3.512268066E-1,1.684093475E-2,4.823637009E-2
2.971220714E1,2.496852875E-1,-6.489706039E-2,7.934904099E-2
2.975266225E1,2.275099754E-1,-4.982995987E-2,7.003927231E-2
2.979314704E1,1.701912880E-1,3.443002701E-2,-5.831813812E-2
2.983362428E1,6.696319580E-2,-1.799106598E-3,-1.426544189E-1
2.987413537E1,2.146911621E-2,2.259731293E-3,-1.743249893E-1
2.991462116E1,-7.847261429E-2,2.214670181E-2,-2.144715786E-1
2.995510787E1,-2.471890450E-1,-3.590869904E-2,-2.935242653E-1
2.999559522E1,-2.186269760E-1,1.184902191E-1,-3.600792885E-1
3.003607610E1,-3.124589920E-1,2.012648582E-1,-4.288344383E-1
3.007654699E1,-3.132843971E-1,2.363224030E-1,-4.076409340E-1
3.011704079E1,-3.481822014E-1,1.400055885E-1,-3.057332039E-1
3.015751589E1,-4.882907867E-1,1.483249664E-2,-2.842667103E-1
3.019798345E1,-5.205001831E-1,8.491754532E-2,-3.137590885E-1
3.023852277E1,-1.878113747E-1,3.035645485E-1,-3.203730583E-1
3.027899964E1,-1.235303879E-1,3.080387115E-1,-1.576914787E-1
3.031947235E1,-9.856319427E-2,2.874226570E-1,-7.480430603E-2
3.035996600E1,-1.485223770E-1,1.449213028E-1,-1.097855568E-1
3.040047230E1,-1.250643730E-1,-2.899217606E-2,-1.139702797E-1
3.044096600E1,-1.563210487E-1,-6.816244125E-2,-1.845598221E-1
3.048142991E1,-3.282976151E-1,-1.447343826E-2,-2.270421982E-1
3.052192194E1,-3.147125244E-1,1.170234680E-1,-2.469019890E-1
3.056241142E1,-2.171392441E-1,1.270599365E-1,-2.408642769E-1
3.060289574E1,-4.535388947E-2,2.418103218E-1,-2.406868935E-1
3.064335970E1,8.893537521E-2,1.314268112E-1,-2.093601227E-2
3.068389491E1,1.603207588E-1,4.577016830E-2,2.767086029E-3
3.072435595E1,1.467323303E-1,-6.370449066E-2,7.748699188E-2
3.076483928E1,3.752756119E-2,-1.534571648E-1,3.955698013E-2
3.080532876E1,8.628416061E-2,-1.418890953E-1,4.869222641E-2
3.084581292E1,7.081222534E-2,-1.375832558E-1,-9.322643280E-3
3.088628610E1,2.038731575E-1,-4.872274399E-2,-4.702663422E-2
3.092675173E1,1.392302513E-1,-7.747316360E-2,-4.404735565E-2
3.096726511E1,6.067132950E-2,-1.247038841E-1,-7.383728027E-2
3.100772678E1,1.113972664E-1,-2.562904358E-1,-2.527379990E-2
3.104824610E1,1.475286484E-1,-3.087434769E-1,5.823278427E-2
3.108873319E1,2.153906822E-1,-2.768125534E-1,1.066155434E-1
3.112917938E1,2.698621750E-1,-1.325097084E-1,8.022546768E-2
3.116969043E1,1.990842819E-1,-1.489558220E-1,2.384138107E-1
3.121019423E1,2.796463966E-1,-1.381731033E-2,1.094026566E-1
3.125067892E1,1.408576965E-1,-2.072873116E-1,2.730269432E-1
3.129113938E1,2.265725136E-1,-1.993951797E-1,2.322316170E-1
3.133158881E1,1.918730736E-1,-2.181363106E-1,2.104701996E-1
3.137214720E1,1.460747719E-1,-1.917300224E-1,1.921954155E-1
3.141263355E1,2.500023842E-1,-9.522724152E-2,1.548342705E-1
3.145310058E1,2.279510498E-1,-2.828788757E-2,2.147812843E-1
3.149358725E1,1.928834915E-1,2.516841888E-2,1.857876778E-1
3.153409438E1,3.354792595E-1,-2.768769264E-1,2.469272614E-1
3.157457928E1,2.207751274E-1,-2.344446182E-1,1.854605675E-1
3.161506303E1,1.391320229E-1,-1.431412697E-1,1.865286827E-1
3.165548412E1,1.522302628E-1,-9.447813034E-2,1.368985176E-1
3.169608079E1,1.584286690E-1,-7.819032669E-2,1.825914383E-1
3.173649095E1,2.096352577E-1,-1.219019890E-1,1.252579689E-1
3.177694011E1,5.214643478E-2,1.005454063E-1,9.695911407E-2
3.181751095E1,5.102109909E-2,1.084055901E-1,6.405830383E-2
3.185795751E1,-8.990955353E-2,1.174640656E-1,-4.742908478E-2
3.189841225E1,-8.471822739E-2,1.244921684E-1,-7.282257080E-2
3.193893313E1,-2.178125381E-1,8.758068085E-2,-1.066727638E-1
3.197943563E1,-2.064185143E-1,7.511234283E-2,-1.198306084E-1
3.201988563E1,-1.474251747E-1,2.666616440E-2,-1.591057777E-1
3.206043204E1,-1.992130280E-1,-4.436349869E-2,-1.529512405E-1
3.210091298E1,-1.331572533E-1,4.459857941E-3,-1.238980293E-1
3.214136089E1,-1.166663170E-1,2.987670898E-2,-8.510494232E-2
3.218187996E1,-2.310752869E-2,5.294179916E-2,-4.871034622E-2
3.222234907E1,9.768962860E-3,1.051955223E-1,-2.646112442E-2
3.226284292E1,2.850770950E-2,8.449983597E-2,3.068923950E-2
3.230334048E1,6.029844284E-2,7.349777222E-2,6.333255768E-2
3.234382751E1,4.974746704E-2,5.358171463E-2,5.060529709E-2
3.238431850E1,4.878044128E-2,5.782079697E-2,2.441644669E-2
3.242480444E1,-1.262569427E-2,3.810167313E-2,5.228042603E-3
3.246528845E1,-3.533077240E-2,2.307605743E-2,-4.615783691E-3
3.250576282E1,-1.032848358E-1,-1.596021652E-2,-1.671648026E-2
3.254626251E1,-1.368856430E-1,-9.613895416E-2,-1.083135605E-2
3.258673860E1,-1.181631088E-1,-1.548175812E-1,3.936100006E-2
3.262723688E1,1.092433929E-1,-3.470182419E-2,6.834888458E-2
3.266772975E1,1.910214424E-1,1.373548508E-1,1.791954041E-2
3.270824501E1,1.397590637E-1,1.866164207E-1,-2.908325195E-2
3.274871975E1,1.740550995E-2,1.467986107E-1,-7.308435440E-2
3.278916756E1,-1.033973694E-1,4.117250443E-2,-8.283853531E-2
3.282963105E1,-1.738238335E-1,-4.108047485E-2,-6.590223312E-2
3.287014371E1,-8.557653427E-2,3.450298309E-2,-8.623933792E-2
3.291065704E1,-5.628442764E-2,3.990697861E-2,-4.969596863E-2
3.295112496E1,-1.242780685E-2,4.929447174E-2,-3.065586090E-3
3.299158485E1,-1.225042343E-2,1.199197769E-2,1.688003540E-2
3.303207970E1,-1.129865646E-2,5.540847778E-4,9.351253510E-3
3.307259506E1,-2.219581604E-2,3.184604645E-2,-1.841068268E-3
3.311308069E1,-1.806735992E-3,3.681278229E-2,-1.270341873E-2
3.315356813E1,-4.819869995E-3,2.960491180E-2,-4.593372345E-3
3.319405194E1,-2.127695084E-2,1.355504990E-2,-6.393432617E-3
3.323454225E1,-3.261613846E-2,1.337480545E-2,2.226829529E-4
3.327501918E1,-1.393318176E-2,2.549648285E-2,-7.600784302E-3
3.331551277E1,-2.920913696E-2,3.612518311E-3,-8.922576904E-3
3.335599319E1,-9.900569916E-3,1.428127289E-2,3.676891327E-3
3.339646220E1,-2.204561234E-2,-5.936622620E-4,-2.426147461E-3
3.343695022E1,-1.078462601E-2,8.238315582E-3,-1.497268677E-2
3.347740918E1,-7.557868958E-3,2.034282684E-2,-1.389503479E-3
3.351794079E1,-1.456737518E-3,1.948785782E-2,1.619338989E-3
3.355844371E1,1.271867752E-2,2.495527267E-2,-9.484291077E-4
3.359892303E1,-1.135826111E-3,5.130767822E-3,6.181716919E-3
3.363936287E1,8.374691010E-3,-3.321170807E-3,8.490085602E-3
3.367993699E1,-1.059913635E-2,7.235527039E-3,9.897708893E-3
3.372039220E1,-1.331806183E-2,4.577636719E-3,-8.923053741E-3
3.376084918E1,-5.891323090E-3,2.498531342E-2,-8.226394653E-3
3.380134381E1,-1.152515411E-2,7.757663727E-3,4.337787628E-3
3.384183694E1,-7.914352417E-2,-9.997510910E-2,7.048988342E-2
3.388232767E1,-4.379224777E-2,-1.073231697E-1,7.064580917E-2
3.392281798E1,1.782021523E-1,6.942033768E-2,1.983690262E-2
3.396330584E1,1.188397408E-1,7.553243637E-2,1.462459564E-3
3.400378803E1,5.361032486E-2,7.200717926E-2,-2.435684204E-2
3.404427980E1,-2.459335327E-2,2.120399475E-2,-2.917242050E-2
3.408476616E1,-8.148479462E-2,-2.438974380E-2,-1.728487015E-2
3.412525293E1,-3.342103958E-2,4.855155945E-3,-3.015136719E-2
3.416573616E1,8.166790009E-3,3.886651993E-2,-1.369905472E-2
3.420622496E1,-2.059936523E-4,3.122329712E-3,-1.427078247E-2
3.424669720E1,-7.507801056E-3,-2.824401855E-2,1.984405518E-2
3.428720136E1,-5.051279068E-2,-4.347133636E-2,2.201128006E-2
3.432765433E1,-1.045751572E-2,-4.572868347E-3,1.741790771E-2
3.436816636E1,3.837108612E-3,6.430387497E-2,-5.213737488E-3
3.440861110E1,-7.497310638E-3,9.548521042E-2,-9.522914886E-3
3.444907220E1,-2.130794525E-2,4.645633698E-2,-1.290082932E-2
3.448964980E1,-3.031539917E-2,1.882457733E-2,-1.609849930E-2
3.453011740E1,-3.749704361E-2,7.915496826E-3,-1.065921783E-2
3.457060449E1,-3.904485703E-2,3.272438049E-2,-2.274608612E-2
3.461109792E1,-2.480506897E-3,2.690124512E-2,-3.003358841E-2
3.465151475E1,-3.334856033E-2,7.805824280E-3,-1.042747498E-2
3.469209819E1,-3.760337830E-2,4.807949066E-3,-2.306985855E-2
3.473253985E1,-6.890773773E-3,2.030706406E-2,-6.449699402E-3
3.477304241E1,-8.831024170E-4,1.980066299E-2,-5.503177643E-3
3.481352839E1,8.959293365E-3,-5.917549133E-4,1.027584076E-2
3.485401470E1,3.878116608E-3,-5.178928375E-3,1.585102081E-2
3.489447402E1,-4.030227661E-3,-2.480030060E-3,1.931238174E-2
3.493498016E1,-2.897453308E-2,1.965713501E-2,-5.488777161E-2
3.497547907E1,2.263164520E-2,2.185428143E-1,-2.112712860E-1
3.501596298E1,-1.278681755E-1,1.161794662E-1,-1.709847450E-1
3.505642892E1,-1.509871483E-1,-7.609081268E-2,-1.661729813E-2
3.509690402E1,5.389499664E-2,-1.951961517E-1,2.086405754E-1
3.513740048E1,1.359043121E-1,-2.886648178E-1,4.108605385E-1
3.517785923E1,2.182526588E-1,-1.120233536E-1,2.487220764E-1
3.521837881E1,1.724700928E-1,4.628515244E-2,5.401372910E-2
3.525885761E1,-6.614303589E-2,2.523865700E-1,-2.390322685E-1
3.529937735E1,-1.879706383E-1,1.390781403E-1,-2.674732208E-1
3.533985230E1,-1.692481041E-1,-6.720161438E-2,-8.092069626E-2
3.538035319E1,-4.145336151E-2,-5.130481720E-2,3.137969971E-2
3.542084907E1,5.042505264E-2,4.632091522E-2,4.371690750E-2
3.546133386E1,6.189203262E-2,1.061215401E-1,2.003526688E-2
3.550178860E1,7.989311218E-2,2.174520493E-2,6.308269501E-2
3.554229782E1,7.689094543E-2,-7.310056686E-2,8.926868439E-2
3.558278433E1,2.753639221E-2,-6.423568726E-2,5.596542358E-2
3.562326610E1,-1.356172562E-2,-3.255844116E-3,-7.913112640E-3
3.566368621E1,-1.577806473E-2,1.240730286E-2,-2.396106720E-2
3.570421782E1,-5.061244965E-2,-2.913951874E-3,-8.460044861E-3
3.574467912E1,-4.144620895E-2,1.077890396E-2,-3.792476654E-2
3.578517725E1,-4.903841019E-2,1.912021637E-2,-4.172182083E-2
3.582569839E1,-3.933620453E-2,1.174926758E-2,6.667613983E-3
3.586618741E1,1.327848434E-2,1.094865799E-2,1.252365112E-2
3.590670616E1,4.280424118E-2,1.769781113E-2,1.625776291E-2
3.594709907E1,3.602600098E-2,2.107477188E-2,3.503274918E-2
3.598770558E1,2.984619141E-2,7.701396942E-3,2.412939072E-2
3.602807714E1,1.248359680E-3,-1.394748688E-3,1.922655106E-2
3.606856978E1,-4.436016083E-3,1.320219040E-2,-1.866626740E-2
3.610906270E1,-2.062463760E-2,1.405525208E-2,-1.543521881E-2
3.614954410E1,-2.423286438E-2,1.534652710E-2,-2.172756195E-2
3.619004270E1,-2.045106888E-2,1.040267944E-2,-4.570484161E-3
3.623052499E1,-8.206844330E-3,-6.896495819E-3,4.912853241E-3
3.627100504E1,1.003122330E-2,-8.378028870E-4,1.290798187E-2
3.631149712E1,9.145259857E-3,-2.644062042E-3,1.625061035E-2
3.635199686E1,1.197767258E-2,1.401805878E-2,1.373291016E-2
3.639250202E1,-5.626678467E-5,9.629726410E-3,9.718894958E-3
3.643300426E1,-3.623008728E-3,1.461648941E-2,-4.792213440E-4
3.647344134E1,-1.931428909E-2,2.133226395E-2,-1.014137268E-2
3.651398129E1,-1.350593567E-2,1.227569580E-2,-6.308078766E-3
3.655444020E1,-1.128005981E-2,-9.078979492E-4,3.436565399E-3
3.659494530E1,1.612186432E-3,1.238346100E-3,1.170778275E-2
3.663541717E1,1.256847382E-2,3.261089325E-3,4.980087280E-3
3.667588624E1,-5.655288696E-4,2.691268921E-3,2.037525177E-3
3.671637363E1,-1.375198364E-3,1.505041122E-2,-7.581710815E-5
3.675685462E1,-1.068115234E-3,2.305603027E-2,-1.970291138E-3
3.679736009E1,-1.406240463E-2,9.068012238E-3,-1.945495605E-4
3.683787931E1,2.060413361E-3,1.390552521E-2,-5.317687988E-3
3.687833118E1,-9.119510651E-3,-3.004550934E-3,1.278066635E-2
3.691881686E1,-9.981155396E-3,1.174736023E-2,6.300449371E-3
3.695928342E1,-1.370000839E-2,1.601266861E-2,1.235008240E-4
3.699980572E1,5.646228790E-3,2.668905258E-2,1.145601273E-2
3.704028587E1,8.610248566E-3,2.349042892E-2,6.543636322E-3
3.708075228E1,8.798122406E-3,-9.228706360E-3,1.002645493E-2
3.712125504E1,-1.114368439E-3,-2.317428589E-3,9.999275208E-4
3.716175618E1,-1.461029053E-2,-1.039028168E-3,9.256362915E-3
3.720224504E1,4.896163940E-3,1.089525223E-2,-2.672195435E-3
3.724270290E1,-5.910396576E-3,1.945543289E-2,-6.747245789E-4
3.728318931E1,-7.647037506E-3,9.617328644E-3,-1.782894135E-3
3.732368457E1,-2.712249756E-3,1.064586639E-2,8.193492889E-3
3.736417467E1,-5.827426910E-3,1.716613770E-5,1.165390015E-2
3.740467004E1,-3.850936890E-3,1.988887787E-3,-8.624553680E-3
3.744507592E1,-3.066539764E-3,8.480072021E-3,-9.679794312E-4
3.748560181E1,-2.254581451E-2,1.247406006E-3,-1.430511475E-6
3.752614087E1,-9.150505066E-3,1.513051987E-2,-9.648799896E-3
3.756660160E1,-1.504421234E-2,8.618354797E-3,4.981517792E-3
3.760706546E1,9.696960449E-3,1.154470444E-2,-7.805347443E-3
3.764756931E1,-1.931190491E-3,1.195287704E-2,1.114177704E-2
3.768803462E1,9.584426880E-5,-1.740455627E-4,1.893520355E-2
3.772859431E1,-2.323484421E-2,-9.083747864E-4,1.371002197E-2
3.776905931E1,2.233028412E-3,1.930856705E-2,-5.364894867E-3
3.780951405E1,-9.996414185E-3,2.146291733E-2,-8.942127228E-3
3.784999452E1,-4.682540894E-4,9.930610657E-3,-2.804756165E-3
3.789051118E1,-6.598949432E-3,1.003026962E-2,2.688407898E-3
3.793096744E1,5.510807037E-3,-2.768039703E-3,9.136199951E-3
3.797154577E1,1.130914688E-2,4.703044891E-3,-1.870632172E-3
3.801196863E1,9.929656982E-3,5.834579468E-3,1.854419708E-3
3.805245009E1,-5.205154419E-3,1.168298721E-2,3.142833710E-3
3.809292613E1,-1.390409470E-2,1.395559311E-2,-2.406597137E-3
3.813342103E1,-2.805137634E-2,1.061344147E-2,9.486198425E-3
3.817389535E1,4.608631134E-3,1.786708832E-2,9.111881256E-3
3.821438176E1,6.140708923E-3,2.232885361E-2,2.110958099E-3
3.825485566E1,4.682064056E-3,2.524900436E-2,-1.952648163E-3
3.829536822E1,-5.092144012E-3,5.366802216E-3,1.695585251E-2
3.833584634E1,2.682685852E-3,7.112979889E-3,1.348876953E-2
3.837638670E1,-4.281997681E-4,-5.557060242E-3,-7.345199585E-3
3.841687613E1,-7.837295532E-3,3.664493561E-3,-2.168607712E-2
3.845728874E1,-2.879142761E-3,3.199243546E-2,-2.306127548E-2
3.849779431E1,-3.770589828E-2,-2.747726440E-2,1.959085464E-2
3.853828744E1,-1.505708694E-2,-9.851932526E-3,-1.629829407E-3
3.857878171E1,2.011251450E-2,3.472900391E-2,-2.573633194E-2
3.861928530E1,1.744079590E-2,2.817201614E-2,3.831386566E-3
3.865976431E1,8.468627930E-3,1.145887375E-2,2.033281326E-2
3.870024634E1,-7.546901703E-3,-1.073408127E-2,2.341079712E-2
3.874074681E1,1.290750504E-2,1.107263565E-2,4.076957703E-4
3.878119999E1,1.395702362E-3,2.298116684E-2,-1.359415054E-2
3.882168290E1,-7.724761963E-3,2.801561356E-2,-1.774120331E-2
3.886216420E1,-3.013706207E-2,8.745670319E-3,-1.089429855E-2
3.890266936E1,-1.716566086E-2,1.868534088E-2,-3.232479095E-3
3.894316155E1,-1.023054123E-2,3.654193878E-2,-1.407337189E-2
3.898364723E1,-4.402637482E-3,1.955127716E-2,-1.295137405E-2
3.902416978E1,-9.712219238E-3,4.375934601E-3,1.839208603E-2
3.906461947E1,-1.741886139E-3,7.493019104E-3,2.120399475E-2
3.910510384E1,8.754253387E-3,1.243162155E-2,2.064895630E-2
3.914560691E1,4.263401031E-3,-2.359294891E-2,1.551628113E-2
3.918607129E1,-1.972675323E-3,-4.895877838E-2,2.685546875E-2
3.922654040E1,-2.118682861E-2,-2.326726913E-2,1.346349716E-2
3.926702780E1,-2.488613129E-3,7.145881653E-3,8.274555206E-3
3.930755040E1,-3.011226654E-2,-2.982091904E-2,4.460048676E-2
3.934798650E1,1.766204834E-2,-1.313257217E-2,4.270362854E-2
3.938849629E1,3.410863876E-2,3.909587860E-2,4.856109619E-3
3.942898405E1,5.697536469E-2,7.158136368E-2,-3.018903732E-2
3.946945139E1,5.357122421E-2,6.419086456E-2,-2.086210251E-2
3.950998728E1,-3.768444061E-2,-5.461215973E-3,-2.765464783E-2
3.955046619E1,-8.951950073E-2,-7.334709167E-3,-3.281974792E-2
3.959094801E1,-6.283426285E-2,1.828145981E-2,-4.627752304E-2
3.963143728E1,1.006269455E-2,3.045892715E-2,-2.536058426E-2
3.967194342E1,-1.654386520E-2,-4.539489746E-3,1.717185974E-2
3.971240910E1,1.747131348E-2,-5.060195923E-3,2.589845657E-2
3.975290025E1,3.810358047E-2,8.610725403E-3,3.321504593E-2
3.979340197E1,4.492235184E-2,2.156209946E-2,2.062940598E-2
3.983389020E1,2.250671387E-3,1.937389374E-3,1.986503601E-3
3.987435686E1,-4.838275909E-2,7.848739624E-3,-6.055831909E-5
3.991484525E1,-3.431367874E-2,1.594638824E-2,-2.370929718E-2
3.995533863E1,-2.817392349E-2,2.787113190E-3,-1.969146729E-2
3.999583837E1,7.194519043E-3,-1.347351074E-2,-1.215076447E-2
4.003635150E1,-1.263380051E-2,-9.683132172E-3,1.718997955E-2
4.007681691E1,1.972866058E-2,1.528024673E-2,9.474277496E-3
4.011728014E1,8.282661438E-4,2.755117416E-2,1.309728622E-2
4.015778202E1,-8.993625641E-3,9.537220001E-3,1.377153397E-2
4.019822400E1,2.511692047E-2,4.649877548E-2,-3.623962402E-5
4.023871264E1,-7.520198822E-3,2.448081970E-3,5.451679230E-3
4.027923061E1,8.289813995E-3,-3.807067871E-3,3.298759460E-3
4.031974858E1,6.148338318E-3,1.136302948E-3,8.259296417E-3
4.036024285E1,-5.259990692E-3,7.639884949E-3,4.102706909E-3
4.040070671E1,8.502006531E-3,1.204347610E-2,-8.935928345E-3
4.044118165E1,-3.365564346E-2,-6.385803223E-3,-6.530761719E-3
4.048164894E1,-2.768898010E-2,-2.190589905E-3,-9.080410004E-3
4.052219207E1,-1.034355164E-2,1.657915115E-2,-6.901264191E-3
4.056270681E1,6.732940674E-4,1.537752151E-2,4.106521606E-3
4.060316494E1,-1.270294189E-3,1.210689545E-2,1.203727722E-2
4.064363264E1,6.693363190E-3,2.110481262E-3,6.069183350E-3
4.068413447E1,-6.290435791E-3,1.072263718E-2,1.567459106E-2
4.072460811E1,-5.330085754E-3,2.466869354E-2,3.651618958E-3
4.076506452E1,-2.322292328E-2,1.983785629E-2,-8.872985840E-3
4.080556827E1,1.105308533E-3,1.178169250E-2,3.654479980E-3
4.084609879E1,-1.579809189E-2,-8.450508118E-3,1.471281052E-2
4.088659697E1,1.420259476E-2,-2.055168152E-3,-6.742477417E-3
4.092703603E1,-7.382869720E-3,6.227970123E-3,6.915092468E-3
4.096749488E1,-7.536411285E-3,-1.058578491E-3,-3.630161285E-3
4.100798629E1,-5.356788635E-3,3.080320358E-2,-4.628181458E-3
4.104847655E1,-2.251625061E-3,1.684761047E-2,8.814811707E-3
4.108895525E1,5.775928497E-3,1.989316940E-2,1.707077026E-3
4.112946546E1,3.477573395E-3,-1.372337341E-3,7.968425751E-3
4.116994530E1,-1.264142990E-2,-1.442718506E-2,8.361339569E-3
4.121043186E1,-5.172252655E-3,1.004695892E-3,-1.084804535E-3
4.125088889E1,-3.627777100E-3,1.207494736E-2,-4.097461700E-3
4.129140941E1,-2.960681915E-3,2.343702316E-2,-3.973007202E-3
4.133188108E1,-1.269578934E-2,1.280307770E-2,-9.093284607E-3
4.137237504E1,1.086521149E-2,7.160186768E-3,6.679058075E-3
4.141291285E1,-7.400512695E-3,5.974769592E-4,1.557111740E-2
4.145332061E1,3.982067108E-3,7.774353027E-3,1.759529114E-4
4.149383066E1,1.311969757E-2,1.609373093E-2,3.324031830E-3
4.153432978E1,-1.126813889E-2,6.731033325E-3,5.800724030E-3
4.157484983E1,-1.553821564E-2,1.573753357E-2,-1.441478729E-3
4.161535108E1,-3.033828735E-2,6.291866302E-3,3.200531006E-3
4.165579749E1,-3.306722641E-2,-2.956390381E-3,3.076362610E-2
4.169627598E1,-8.736801147E-2,-5.374622345E-2,8.610534668E-2
4.173682082E1,-1.412773132E-1,-9.363746643E-2,1.822805405E-1
4.177730639E1,-7.977485657E-2,2.510547638E-2,-3.276252747E-2
4.181772884E1,2.030162811E-1,3.049528599E-1,-3.407502174E-1
4.185825280E1,-3.812313080E-3,1.940655708E-1,1.452174187E-1
4.189876197E1,4.943704605E-2,-1.806678772E-1,-1.922988892E-2
4.193916978E1,-1.613712311E-1,-4.425201416E-1,2.016835213E-1
4.197965535E1,3.102006912E-1,-3.435788155E-1,3.927774429E-1
4.202019384E1,-1.515250206E-1,-2.896232605E-1,8.812952042E-2
4.206067004E1,-2.675733566E-1,-5.510330200E-3,-1.647439003E-1
4.210114035E1,2.579112053E-1,2.513823509E-1,-2.710819244E-2
4.214162337E1,4.499845505E-1,1.230218410E-1,-7.262086868E-2
4.218212020E1,5.671114922E-1,-3.066482544E-1,3.732886314E-1
4.222260577E1,-1.383914948E-1,4.325554371E-1,-3.219065666E-1
4.226306780E1,-7.425222397E-1,3.287200928E-1,-5.980601311E-1
4.230355520E1,-6.116094589E-1,-5.212121010E-1,4.011273384E-1
4.234407988E1,7.289128304E-1,1.666319370E-1,3.658266068E-1
4.238454270E1,4.845461845E-1,3.072812557E-1,-3.614506721E-1
4.242506400E1,7.729706764E-1,-6.689333916E-2,1.232151985E-1
4.246550082E1,4.544129372E-1,2.843737602E-1,-7.589006424E-2
4.250600420E1,-1.062535763E0,-7.321026325E-1,3.491501808E-1
4.254651686E1,-1.503939152E0,-1.016062737E0,1.561107635E-1
4.258700681E1,1.778049469E-1,3.104681969E-1,2.623720169E-1
4.262745478E1,5.928468704E-1,4.116640091E-1,-1.230163574E-1
4.266791941E1,-4.229383469E-1,-1.318583488E-1,-7.968235016E-2
4.270846014E1,-3.681659698E-2,-1.007761955E-1,1.845293045E-1
4.274896660E1,-5.445203781E-1,-1.664197445E-1,1.575856209E-1
4.278943233E1,3.535270691E-2,1.576735973E-1,-4.422647953E-1
4.282991920E1,-4.213619232E-2,9.286665916E-2,-2.277674675E-1
4.287039707E1,-3.582286835E-2,2.019667625E-1,-4.576697350E-1
4.291088728E1,4.959702492E-1,4.401550293E-1,-6.853036880E-1
4.295136936E1,2.218370438E-1,2.813436985E-1,-5.034105778E-1
4.299186014E1,-3.238906860E-1,3.940773010E-2,-2.555780411E-1
4.303236030E1,-3.265962601E-1,7.079815865E-2,-2.156901360E-1
4.307285176E1,7.058906555E-2,2.038490772E-1,-1.188144684E-1
4.311333061E1,-1.165418625E-1,4.330182076E-2,-9.258794785E-2
4.315381816E1,7.111358643E-2,1.345977783E-1,-1.877617836E-1
4.319430129E1,-7.145404816E-2,2.099943161E-1,-2.682075500E-1
4.323478738E1,-1.407699585E-1,2.946887016E-1,-2.485938072E-1
4.327526827E1,-7.025718689E-3,2.662467957E-1,-1.664662361E-1
4.331574723E1,4.265336990E-1,3.976351023E-1,-1.259732246E-1
4.335625723E1,9.299054146E-1,7.281019688E-1,-2.714080811E-1
4.339676311E1,1.215724945E0,1.052468657E0,-3.404407501E-1
4.343721926E1,1.069307327E-2,3.917148113E-1,-2.998151779E-1
4.347768223E1,-1.525829315E0,-6.658132076E-1,2.199063301E-1
4.351816853E1,-1.664746284E0,-1.095834017E0,8.893899918E-1
4.355867353E1,-1.861491680E0,-1.567849398E0,9.018602371E-1
4.359916572E1,-9.072051048E-1,-6.783018112E-1,-5.144834518E-2
4.363966853E1,1.090845585E0,7.428891659E-1,-8.501996994E-1
4.368015874E1,1.354031563E0,7.960312366E-1,-3.729848862E-1
4.372064874E1,-8.309345245E-1,-4.466831684E-1,5.370745659E-1
4.376114082E1,-1.681107521E0,-7.150905132E-1,1.541180611E-1
4.380164494E1,9.773440361E-1,7.463377714E-1,-2.446031570E-1
4.384209488E1,1.040782452E0,8.627908230E-1,-4.756121635E-1
4.388258296E1,4.891800880E-1,6.626665592E-1,-5.183181763E-1
4.392308608E1,3.615279198E-1,6.401536465E-1,-1.308870316E-2
4.396357514E1,-3.383570194E0,-2.322893143E0,1.515892982E0
4.400407587E1,-1.538186073E0,-1.123301506E0,3.022336960E-2
4.404453467E1,2.721362114E0,1.375954628E0,-4.930090904E-1
4.408501994E1,1.766801357E0,1.075296879E0,-6.483688354E-1
4.412549249E1,4.619512558E-1,5.787208080E-1,-4.184927940E-1
4.416600457E1,-1.176828384E0,-2.933685780E-1,6.555805206E-1
4.420650962E1,-3.994009018E0,-2.594915152E0,1.233173847E0
4.424696566E1,1.022312164E0,2.067363262E-1,2.207469940E-2
4.428748790E1,2.948367119E0,1.419840932E0,-5.524857044E-1
4.432795212E1,1.508338928E0,8.531146049E-1,-5.268783569E-1
4.436841494E1,-2.207088470E-1,2.458701134E-1,2.435898781E-1
4.440896733E1,-4.238440037E0,-2.578672647E0,1.386798859E0
4.444935644E1,-1.637714863E0,-1.238363981E0,2.285189629E-1
4.448990108E1,2.824603081E0,1.180252314E0,-2.151503563E-1
4.453038170E1,2.421253204E0,1.324582815E0,-7.068703175E-1
4.457091618E1,8.427724838E-1,8.287191391E-1,-2.842593193E-1
4.461135681E1,-1.909229279E0,-7.050983906E-1,6.770257950E-1
4.465186139E1,-4.179970264E0,-2.300656319E0,7.338657379E-1
4.469233405E1,7.180619240E-1,9.216713905E-2,-2.675485611E-2
4.473282441E1,2.993078709E0,1.410267591E0,-6.339259148E-1
4.477331046E1,1.628694534E0,1.091707706E0,-4.756345749E-1
4.481382915E1,-1.383728981E-1,3.825078011E-1,6.553506851E-2
4.485426483E1,-3.883726597E0,-1.931406975E0,9.579153061E-1
4.489475181E1,-1.786327839E0,-8.950273991E-1,1.256990433E-2
4.493525879E1,2.229082108E0,9.926422834E-1,-2.105717659E-1
4.497574577E1,2.126957417E0,1.138433695E0,-5.228552818E-1
4.501626244E1,8.226809502E-1,7.506396770E-1,-2.312064171E-1
4.505676170E1,-2.061398506E0,-6.316409111E-1,5.051236153E-1
4.509717733E1,-4.027024746E0,-2.240262032E0,6.152586937E-1
4.513767150E1,8.187289238E-1,2.945733070E-2,-1.462726593E-1
4.517812978E1,2.942709446E0,1.434810877E0,-4.948587418E-1
4.521861681E1,1.523099422E0,9.257156849E-1,-3.683209419E-1
4.525913233E1,-1.398010254E-1,4.312181473E-1,-6.859970093E-2
4.529963186E1,-3.402301311E0,-1.509176970E0,9.223361015E-1
4.534009363E1,-2.188399792E0,-1.191627026E0,7.627058029E-2
4.538059124E1,2.171860695E0,1.159993291E0,-2.238883972E-1
4.542110920E1,2.450808525E0,1.243836164E0,-4.607014656E-1
4.546154967E1,1.072765350E0,8.012764454E-1,-2.784399986E-1
4.550212535E1,-1.425113678E0,-2.352256775E-1,2.878503799E-1
4.554255285E1,-4.279507160E0,-2.460932255E0,8.599324226E-1
4.558307217E1,1.260643005E-1,-3.899216652E-1,1.748566628E-1
4.562354837E1,2.958271980E0,1.375784993E0,-3.337082863E-1
4.566402238E1,1.826142788E0,9.975037575E-1,-4.736166000E-1
4.570454869E1,3.801403046E-1,5.776679516E-1,-1.164288521E-1
4.574498822E1,-3.255342484E0,-1.389838934E0,5.907058716E-1
4.578548009E1,-2.557125568E0,-1.588216543E0,3.780608177E-1
4.582598212E1,1.819444180E0,5.660784245E-1,4.199357033E-1
4.586649223E1,2.227219582E0,1.098689437E0,-5.715951920E-1
4.590698546E1,1.034003258E0,7.304270267E-1,-2.821316719E-1
4.594747197E1,-6.049609184E-1,1.833159924E-1,-4.275321960E-3
4.598789785E1,-2.867842674E0,-1.589555740E0,8.863592148E-1
4.602839889E1,-7.603034973E-1,-8.976464272E-1,5.195398331E-1
4.606890587E1,1.749457359E0,8.116481304E-1,-1.765804291E-1
4.610937613E1,1.394922733E0,7.613770962E-1,-5.476064682E-1
4.614986556E1,1.170048714E-1,4.769239426E-1,-8.749341965E-2
4.619035551E1,-2.738350391E0,-1.476691484E0,7.456440926E-1
4.623084020E1,-1.129609585E0,-7.470479012E-1,1.908960342E-1
4.627132171E1,1.939257622E0,8.029983044E-1,-1.348600388E-1
4.631181483E1,1.614464283E0,1.037110806E0,-5.675911903E-1
4.635230895E1,2.968020439E-1,5.711522102E-1,-2.736825943E-1
4.639278728E1,-1.757684708E0,-8.133130074E-1,5.811038017E-1
4.643325994E1,-1.850862980E0,-1.100309134E0,4.152941704E-1
4.647372869E1,1.562356472E0,5.196259022E-1,4.394102097E-1
4.651424884E1,1.546084404E0,7.244343758E-1,-3.342876434E-1
4.655474280E1,6.512541771E-1,5.336425304E-1,-3.820362091E-1
4.659525926E1,1.343359947E-1,4.079382420E-1,6.324434280E-2
4.663572238E1,-3.562874317E0,-2.096964836E0,9.695925713E-1
4.667617217E1,-9.764385223E-1,-6.438379288E-1,2.253389359E-2
4.671666394E1,2.451629639E0,1.330867052E0,-4.326944351E-1
4.675714978E1,1.532775402E0,9.307979345E-1,-5.665717125E-1
4.679761926E1,6.986646652E-1,7.330629826E-1,-2.812099457E-1
4.683809275E1,-1.205891609E0,-4.220128059E-1,5.835738182E-1
4.687857994E1,-3.356387615E0,-1.944070578E0,8.147783279E-1
4.691909155E1,-3.001260757E-2,-2.120637894E-2,2.482509613E-2
4.695959098E1,2.086935997E0,1.277326465E0,-8.003997803E-1
4.700010941E1,1.088691711E0,9.476537704E-1,-5.448918343E-1
4.704060405E1,1.416158676E-1,6.210474968E-1,-1.785521507E-1
4.708107155E1,-2.526762009E0,-1.137057543E0,6.774873734E-1
4.712154863E1,-1.912725925E0,-9.388661385E-1,1.956496239E-1
4.716203811E1,1.367992401E0,6.180996895E-1,-2.462654114E-1
4.720252728E1,1.638242722E0,1.052740812E0,-5.999946594E-1
4.724298900E1,8.235359192E-1,6.902236938E-1,-2.196640968E-1
4.728348040E1,-7.936143875E-1,-1.512789726E-2,2.642989159E-1
4.732399270E1,-2.762060642E0,-1.445460796E0,6.371841431E-1
4.736447124E1,-2.919983864E-1,-2.955322266E-1,1.402583122E-1
4.740498316E1,1.778007984E0,9.786838293E-1,-3.783226013E-1
4.744539197E1,1.271653652E0,7.066228390E-1,-2.831387520E-1
4.748595697E1,3.810663223E-1,4.580430984E-1,-1.203446388E-1
4.752646790E1,-1.767175674E0,-8.437302113E-1,5.726943016E-1
4.756690618E1,-1.845071793E0,-1.142727852E0,4.807620049E-1
4.760734775E1,1.037269115E0,3.321530819E-1,1.623730659E-1
4.764782275E1,1.530004978E0,7.612259388E-1,-3.875818253E-1
4.768835770E1,7.416481972E-1,5.183725357E-1,-2.158341408E-1
4.772886181E1,-4.489731789E-1,2.115685940E-1,6.877422333E-2
4.776935905E1,-2.411122799E0,-1.255790472E0,5.667862892E-1
4.780980717E1,-2.679376602E-1,-4.673690796E-1,2.506384850E-1
4.785034139E1,1.611397266E0,7.240653038E-1,-1.994447708E-1
4.789081176E1,1.177105427E0,6.720325947E-1,-3.091826439E-1
4.793130655E1,1.858944893E-1,4.981427193E-1,-9.074020386E-2
4.797178592E1,-2.188414097E0,-1.023158789E0,5.818872452E-1
4.801225238E1,-1.150309086E0,-7.149186134E-1,2.088499069E-1
4.805276837E1,1.526958466E0,6.065404415E-1,-1.386384964E-1
4.809324358E1,1.491605759E0,8.968083858E-1,-3.692879677E-1
4.813372280E1,2.966318130E-1,4.777476788E-1,-8.609151840E-2
4.817422697E1,-2.074267387E0,-8.768610954E-1,5.518159866E-1
4.821471405E1,-1.590358257E0,-8.580543995E-1,2.435951233E-1
4.825517280E1,1.291437149E0,3.086974621E-1,-3.159523010E-3
4.829567264E1,1.533949852E0,8.763990402E-1,-3.923859596E-1
4.833620134E1,6.139655113E-1,6.142435074E-1,-2.057032585E-1
4.837669176E1,-7.792420387E-1,4.615044594E-2,2.314763069E-1
4.841711869E1,-2.358998299E0,-1.196835518E0,4.566898346E-1
4.845758744E1,1.048612595E-1,-1.164176464E-1,7.298660278E-2
4.849805301E1,1.604111671E0,7.274050713E-1,-3.538494110E-1
4.853854004E1,9.204959869E-1,6.625604630E-1,-2.779078484E-1
4.857910655E1,1.652226448E-1,4.309804440E-1,-4.104042053E-2
4.861958233E1,-2.088982105E0,-9.697535038E-1,6.321921349E-1
4.866006665E1,-1.446114540E0,-9.006206989E-1,3.553028107E-1
4.870056217E1,1.441655636E0,4.247264862E-1,-9.171199799E-2
4.874104296E1,1.476079941E0,8.966374397E-1,-4.113378525E-1
4.878151660E1,6.427803040E-1,6.160857677E-1,-2.654967308E-1
4.882204785E1,-1.105887413E0,-2.570230961E-1,4.038782120E-1
4.886250030E1,-2.500950336E0,-1.281933308E0,4.256362915E-1
4.890296238E1,4.485044479E-1,1.072189808E-1,4.469537735E-2
4.894353546E1,1.743537426E0,9.449713230E-1,-4.609394073E-1
4.898402259E1,1.009744644E0,7.100079060E-1,-2.648754120E-1
4.902445223E1,-1.962323189E-1,2.395017147E-1,1.415810585E-1
4.906491994E1,-2.584271431E0,-1.328891039E0,6.270699501E-1
4.910542686E1,-5.892243385E-1,-3.626208305E-1,1.547050476E-1
4.914591462E1,1.673755169E0,7.940683365E-1,-4.066748619E-1
4.918642384E1,1.214171886E0,9.044537544E-1,-4.128479958E-1
4.922691082E1,1.996893883E-1,5.152938366E-1,-5.655384064E-2
4.926734436E1,-2.555487156E0,-1.297527552E0,7.364597321E-1
4.930783129E1,-1.154675961E0,-6.742091179E-1,1.477270126E-1
4.934831827E1,1.833463669E0,7.026460171E-1,-1.866207123E-1
4.938882160E1,1.467344761E0,9.490146637E-1,-4.676985741E-1
4.942930358E1,1.042819023E-1,4.015986919E-1,-1.181921959E-1
4.946977337E1,-1.814830303E0,-7.544631958E-1,5.340833664E-1
4.951029994E1,-1.275760651E0,-6.957283020E-1,2.710728645E-1
4.955080087E1,1.121355057E0,3.678581715E-1,-7.576608658E-2
4.959129775E1,1.275343895E0,8.360149860E-1,-4.212031364E-1
4.963174259E1,1.522006989E-1,4.063901901E-1,2.483129501E-2
4.967224759E1,-2.428753853E0,-1.173635006E0,6.498312950E-1
4.971275749E1,-7.044992447E-1,-4.766573906E-1,2.771854401E-2
4.975324957E1,1.976549625E0,8.952538967E-1,-1.947207451E-1
4.979370900E1,1.318414688E0,9.012373686E-1,-4.201040268E-1
4.983420592E1,3.744535446E-1,5.002527237E-1,-8.897495270E-2
4.987468275E1,-1.888804436E0,-7.963471413E-1,6.546411514E-1
4.991517717E1,-1.838843346E0,-9.140131474E-1,8.544445038E-2
4.995565217E1,1.282149315E0,4.533977509E-1,-1.641159058E-1
4.999614051E1,1.524497509E0,9.034540653E-1,-3.695755005E-1
5.003662822E1,7.036385536E-1,6.463558674E-1,-1.861186028E-1
5.007711020E1,-1.637864590E0,-5.520544052E-1,5.958180428E-1
5.011759712E1,-2.466691494E0,-1.246032715E0,2.600102425E-1
5.015808447E1,1.187640190E0,2.998716831E-1,6.056785583E-3
5.019857150E1,1.898848534E0,1.049650311E0,-4.194569588E-1
5.023905858E1,9.456696510E-1,7.754874229E-1,-2.694067955E-1
5.027955665E1,-8.250131607E-1,6.807923317E-2,3.318953514E-1
5.032004244E1,-3.111000061E0,-1.546681643E0,5.217103958E-1
5.036053561E1,2.975926399E-1,-2.279915810E-1,1.511950493E-1
5.040103415E1,2.078314304E0,1.006986737E0,-3.833112717E-1
5.044152457E1,1.201389790E0,8.466498852E-1,-4.045300484E-1
5.048195796E1,-3.433375359E-1,3.323824406E-1,1.441955566E-1
5.052246822E1,-3.129215240E0,-1.535056114E0,5.935277939E-1
5.056298749E1,-3.255014420E-1,-4.374477863E-1,2.016592026E-1
5.060348009E1,2.063729286E0,8.769896030E-1,-2.917256355E-1
5.064395467E1,1.365653038E0,9.311993122E-1,-4.446005821E-1
5.068441754E1,2.933168411E-1,6.132154465E-1,-6.201410294E-2
5.072489296E1,-2.758601665E0,-1.254410028E0,6.806154251E-1
5.076539598E1,-1.465039730E0,-8.684732914E-1,2.355875969E-1
5.080589962E1,1.811977863E0,6.155080795E-1,-1.187162399E-1
5.084638556E1,1.705907822E0,1.077080131E0,-4.659924507E-1
5.088687040E1,5.632853508E-1,6.807537079E-1,-1.566715240E-1
5.092735816E1,-2.284041405E0,-9.254627228E-1,5.678157806E-1
5.096784592E1,-1.644705772E0,-8.675372601E-1,2.673215866E-1
5.100833369E1,1.373986244E0,3.593256474E-1,-5.536079407E-3
5.104882144E1,1.491927147E0,9.090633392E-1,-4.790749550E-1
5.108929197E1,7.227687836E-1,6.751167774E-1,-2.403802872E-1
5.112976754E1,-1.453221321E0,-4.107344151E-1,4.649267197E-1
5.117027566E1,-2.459791660E0,-1.242882490E0,3.802208900E-1
5.121076264E1,8.782429695E-1,8.374619484E-2,1.095614433E-1
5.125122025E1,1.892165184E0,1.043493032E0,-4.330825806E-1
5.129172624E1,1.020586967E0,8.159513474E-1,-3.218884468E-1
5.133222681E1,-4.344515800E-1,2.175974846E-1,1.761016846E-1
5.137272478E1,-2.710448265E0,-1.305726051E0,6.205754280E-1
5.141320920E1,-5.121517181E-1,-5.798296928E-1,2.698655128E-1
5.145365233E1,1.725879192E0,7.030715942E-1,-3.398165703E-1
5.149416822E1,1.227353573E0,8.586075306E-1,-3.826017380E-1
5.153464863E1,2.795629501E-1,5.496733189E-1,-8.472537994E-2
5.157511749E1,-2.047541142E0,-8.601999283E-1,5.459146500E-1
5.161564900E1,-1.313941479E0,-7.130208015E-1,2.454032898E-1
5.165610275E1,1.224008083E0,3.686928749E-1,-1.123266220E-1
5.169658863E1,1.302268028E0,8.316872120E-1,-3.805437088E-1
5.173710749E1,6.744856834E-1,6.357021332E-1,-1.954722404E-1
5.177753540E1,-1.066780090E0,-1.767878532E-1,3.870615959E-1
5.181802176E1,-2.298258305E0,-1.236519337E0,4.059677124E-1
5.185850905E1,5.846147537E-1,-3.948807716E-2,1.020121574E-1
5.189904426E1,1.623956203E0,8.570945263E-1,-3.711919785E-1
5.193953587E1,9.439444542E-1,7.276501656E-1,-2.806358337E-1
5.197998363E1,-8.123397827E-2,4.158473015E-1,3.574705124E-2
5.202055066E1,-2.233612061E0,-1.004482031E0,5.470523834E-1
5.206097848E1,-9.385595322E-1,-6.595430374E-1,2.317800522E-1
5.210146759E1,1.363809586E0,4.551930428E-1,-2.054734230E-1
5.214194051E1,1.233852863E0,7.879555225E-1,-3.197770119E-1
5.218245478E1,5.378665924E-1,5.890557766E-1,-1.555657387E-1
5.222294145E1,-1.306571484E0,-3.158247471E-1,4.066462517E-1
5.226341165E1,-1.993844032E0,-1.092278481E0,4.223875999E-1
5.230391061E1,7.646808624E-1,5.864143372E-2,4.675054550E-2
5.234439868E1,1.483512878E0,8.384349346E-1,-4.002432823E-1
5.238487587E1,8.477668762E-1,6.909556389E-1,-2.947249413E-1
5.242540483E1,-1.671538353E-1,3.226573467E-1,5.776214600E-2
5.246578926E1,-2.289941311E0,-1.093822718E0,5.880069733E-1
5.250640874E1,-8.099808693E-1,-6.370298862E-1,2.274055481E-1
5.254687947E1,1.522922993E0,5.513217449E-1,-2.309327126E-1
5.258726087E1,1.245180607E0,8.607976437E-1,-3.568072319E-1
5.262774770E1,4.891924858E-1,6.387267113E-1,-1.758503914E-1
5.266830134E1,-1.249305725E0,-2.449829578E-1,3.290891647E-1
5.270877061E1,-2.053615570E0,-1.045558453E0,3.892102242E-1
5.274926790E1,5.038709641E-1,-1.081266403E-1,8.201742172E-2
5.278975764E1,1.457785606E0,7.485203743E-1,-3.493947983E-1
5.283026103E1,8.801913261E-1,6.724317074E-1,-2.583417892E-1
5.287073749E1,5.177021027E-2,4.462499619E-1,-3.054380417E-2
5.291121124E1,-1.766213894E0,-6.849315166E-1,5.473346710E-1
5.295168915E1,-1.748150826E0,-1.089951992E0,2.934160233E-1
5.299219410E1,1.226710320E0,2.911062241E-1,-8.673048019E-2
5.303270900E1,1.612549782E0,9.079246521E-1,-3.480248451E-1
5.307318066E1,7.817916870E-1,6.905679703E-1,-1.753664017E-1
5.311366389E1,-6.060671806E-1,1.799366474E-1,2.099089622E-1
5.315414368E1,-2.345291138E0,-1.137634039E0,4.613304138E-1
5.319463108E1,-1.539273262E-1,-3.985893726E-1,1.686801910E-1
5.323511879E1,1.553108215E0,7.036108971E-1,-3.376502991E-1
5.327560822E1,1.074056149E0,7.476322651E-1,-3.000578880E-1
5.331610202E1,3.156294823E-1,5.686750412E-1,-1.040520668E-1
5.335660957E1,-1.593125343E0,-5.115776062E-1,4.659528732E-1
5.339709285E1,-1.888478279E0,-1.065675735E0,3.294730186E-1
5.343752301E1,1.075303555E0,1.919064522E-1,-7.220840454E-2
5.347800155E1,1.786375523E0,1.044108152E0,-3.933672905E-1
5.351850598E1,5.916628838E-1,6.078712940E-1,-1.930189133E-1
5.355901863E1,-1.032116413E0,-3.541135788E-2,1.925520897E-1
5.359949025E1,-2.095716953E0,-1.039195538E0,5.319900513E-1
5.363999447E1,-1.425080299E-1,-4.655053616E-1,1.637377739E-1
5.368047488E1,1.476342678E0,6.591527462E-1,-3.310184479E-1
5.372098020E1,1.117266655E0,7.486891747E-1,-2.465257645E-1
5.376147384E1,2.670559883E-1,5.098788738E-1,-5.135774612E-2
5.380195827E1,-1.652157307E0,-6.383292675E-1,4.824256897E-1
5.384243582E1,-1.313187122E0,-7.536902428E-1,2.570042610E-1
5.388289822E1,9.783220291E-1,2.689545155E-1,-9.753084183E-2
5.392337561E1,1.201597691E0,7.397453785E-1,-3.407812119E-1
5.396386264E1,6.168527603E-1,6.044466496E-1,-1.810660362E-1
5.400439275E1,-3.355131149E-1,2.272188663E-1,1.088709831E-1
5.404488994E1,-1.663923264E0,-6.969897747E-1,3.184595108E-1
5.408534728E1,-4.039473534E-1,-3.327906132E-1,1.058850288E-1
5.412581947E1,1.038548470E0,3.961670399E-1,-1.443533897E-1
5.416634837E1,5.067481995E-1,3.624811172E-1,-7.227563858E-2
5.420685712E1,-6.406145096E-1,-1.143581867E-1,1.492371559E-1
5.424727254E1,-5.248489380E-1,-1.939053535E-1,2.345266342E-1
5.428774436E1,1.688261032E-1,6.720566750E-2,2.016878128E-2
5.432824165E1,3.520927429E-1,3.022680283E-1,-2.044916153E-1
5.436872061E1,3.259463310E-1,3.638529778E-1,-1.755747795E-1
5.440923061E1,2.685065269E-1,4.082314968E-1,-1.329984665E-1
5.444968134E1,-9.898424149E-2,1.698441505E-1,4.890775681E-2
5.449021686E1,-4.773607254E-1,-7.922649384E-2,2.326297760E-2
5.453072811E1,5.847549438E-2,1.516492367E-1,-2.510070801E-3
5.457120134E1,1.967239380E-2,5.663394928E-2,5.243206024E-2
5.461171853E1,-1.438894272E-1,-2.782154083E-2,1.428546906E-1
5.465217431E1,-1.167874336E-1,2.242088318E-2,8.027887344E-2
5.469264884E1,-6.718540192E-2,5.514812469E-2,9.348869324E-3
5.473313874E1,-7.409572601E-2,9.297347069E-2,-7.020092010E-2
5.477362066E1,-1.480860710E-1,1.103448868E-2,8.959770203E-3
5.481414270E1,-5.576419830E-2,2.380681038E-2,2.579641342E-2
5.485462296E1,6.847381592E-3,3.478670120E-2,3.876590729E-2
5.489510952E1,-6.826543808E-2,2.131915092E-2,6.227540970E-2
5.493557436E1,-3.186130524E-2,1.433682442E-2,5.703544617E-2
5.497606113E1,1.954278946E-1,1.453487873E-1,-8.410453796E-3
5.501659499E1,4.760408401E-2,1.154215336E-1,-1.517772675E-3
5.505701592E1,-1.271038055E-1,-1.507616043E-2,4.667711258E-2
5.509750223E1,2.649736404E-2,3.127264977E-2,1.998853683E-2
5.513798868E1,-7.733583450E-2,-5.656480789E-3,2.481698990E-2
5.517847504E1,-2.779288292E-1,-1.079518795E-1,7.758045197E-2
5.521896145E1,-7.349514961E-1,-5.659143925E-1,3.349280357E-1
5.525945806E1,-2.369179726E-1,-4.263062477E-1,1.074266434E-1
5.529996874E1,1.056855679E0,4.349081516E-1,-1.200065613E-1
5.534043650E1,1.012345791E0,6.422202587E-1,-2.277116776E-1
5.538094744E1,4.486541748E-1,5.151357651E-1,-1.460933685E-1
5.542144280E1,-3.291521072E-1,1.312580109E-1,-1.700973511E-2
5.546187660E1,-5.856113434E-1,-1.856858730E-1,1.341567039E-1
5.550240504E1,-1.346383095E-1,-4.387354851E-2,-1.100635529E-2
5.554287827E1,2.387523651E-1,1.646730900E-1,-1.650805473E-1
5.558342983E1,2.064938545E-1,1.898846626E-1,-1.462907791E-1
5.562388363E1,-7.229852676E-2,4.836297035E-2,-1.323556900E-2
5.566435332E1,-1.682024002E-1,1.384520531E-2,6.157445908E-2
5.570482020E1,-6.929397583E-2,7.696175575E-2,4.763603210E-4
5.574530915E1,7.643413544E-2,1.476166248E-1,-6.620359421E-2
5.578580421E1,6.213378906E-2,1.480743885E-1,-6.796836853E-2
5.582632165E1,-2.618551254E-2,6.953692436E-2,8.611679077E-4
5.586682697E1,-1.250982285E-2,4.345273972E-2,3.253889084E-2
5.590731478E1,5.007886887E-2,6.219649315E-2,-1.496315002E-3
5.594780259E1,3.896474838E-2,7.758593559E-2,-2.140092850E-2
5.598820577E1,-1.812219620E-2,4.180741310E-2,-1.225423813E-2
5.602870337E1,-4.876470566E-2,4.103136063E-2,-9.821891785E-3
5.606921994E1,9.848594666E-3,7.111334801E-2,-3.504848480E-2
5.610972077E1,1.134061813E-2,8.260536194E-2,-4.248237610E-2
5.615019259E1,-1.733160019E-2,3.643703461E-2,-1.204013824E-2
5.619067025E1,-1.003885269E-2,2.463245392E-2,1.789474487E-2
5.623115723E1,1.642990112E-2,4.541850090E-2,-4.725933075E-3
5.627164910E1,8.145809174E-3,4.911684990E-2,-1.691007614E-2
5.631214108E1,-1.290321350E-2,4.474329948E-2,-1.135635376E-2
5.635262613E1,-1.047372818E-2,5.262207985E-2,-1.340436935E-2
5.639313837E1,-3.322601318E-3,5.757021904E-2,-9.328842163E-3
5.643359306E1,-5.712509155E-4,3.543376923E-2,-8.250236511E-3
5.647405717E1,2.897739410E-3,3.189873695E-2,3.416061401E-3
5.651459009E1,1.136779785E-3,1.122689247E-2,5.369186401E-4
5.655508644E1,5.869388580E-3,3.419756889E-2,8.664131165E-4
5.659560592E1,-4.659652710E-3,4.308152199E-2,5.336284637E-3
5.663606822E1,-4.310607910E-4,3.248357773E-2,-8.171081543E-3
5.667653879E1,-5.363464355E-3,2.262187004E-2,-1.226997375E-2
5.671697858E1,-8.581638336E-3,1.704621315E-2,-5.445480347E-4
5.675746561E1,-6.853103638E-3,1.433587074E-2,1.061534882E-2
5.679794863E1,-7.969856262E-3,1.835680008E-2,-6.916522980E-3
5.683842764E1,-2.776145935E-3,1.965212822E-2,-6.857395172E-3
5.687895816E1,1.453113556E-2,2.635097504E-2,-1.051998138E-2
5.691945967E1,-1.130056381E-2,2.163815498E-2,-3.280162811E-3
5.695994301E1,-1.052570343E-2,2.474856377E-2,1.313686371E-3
5.700046259E1,-2.924442291E-3,2.269411087E-2,-7.646560669E-3
5.704093879E1,6.145954132E-3,2.548503876E-2,-1.735210419E-3
5.708140025E1,1.883172989E-2,3.164267540E-2,8.702278137E-4
5.712189936E1,-1.812348366E-1,-1.059522629E-1,9.872817993E-2
5.716237853E1,-7.285580635E-1,-4.833590984E-1,2.369074821E-1
5.720285728E1,1.116275787E-1,-1.505179405E-1,2.261829376E-2
5.724334514E1,7.151255608E-1,3.020579815E-1,-1.138358116E-1
5.728383280E1,3.902668953E-1,3.200633526E-1,-1.355843544E-1
5.732431181E1,-3.464221954E-2,1.419234276E-1,-5.777025223E-2
5.736480379E1,-7.184076309E-2,1.178193092E-1,-4.459857941E-2
5.740531587E1,1.125693321E-1,1.182601452E-1,-2.723360062E-2
5.744581358E1,3.308057785E-2,6.687021255E-2,-5.657577515E-2
5.748629098E1,7.349157333E-2,8.658313751E-2,-5.358648300E-2
5.752677936E1,1.338243484E-2,5.367326736E-2,8.871078491E-3
5.756721848E1,-1.705598831E-2,1.096491814E-1,-1.256866455E-1
5.760768837E1,-3.132333755E-1,-7.134485245E-2,-7.665061951E-2
5.764817592E1,-2.326211929E-1,-1.807727814E-1,1.034669876E-1
5.768871853E1,-1.355347633E-1,-1.380159855E-1,1.208276749E-1
5.772920129E1,1.337571144E-1,-1.241779327E-2,1.225929260E-1
5.776968624E1,-6.801748276E-2,-1.118900776E-1,1.292538643E-1
5.781019030E1,-1.869769096E-1,-1.413204670E-1,9.969234467E-2
5.785068337E1,-1.898574829E-2,-5.683851242E-2,2.428770065E-2
5.789114577E1,3.275361061E-1,1.611926556E-1,-8.450937271E-2
5.793161608E1,3.868317604E-1,2.702839375E-1,-1.215152740E-1
5.797210384E1,1.395840645E-1,1.449275017E-1,-2.438497543E-2
5.801262681E1,6.432533264E-3,7.983374596E-2,3.745889664E-2
5.805311426E1,-6.645011902E-2,1.565098763E-2,5.413055420E-3
5.809360494E1,-6.682968140E-2,-2.849674225E-2,3.085851669E-2
5.813408353E1,-8.180141449E-2,-1.299095154E-2,-1.841545105E-2
5.817457238E1,-1.912636757E-1,-8.145546913E-2,-1.806259155E-3
5.821506014E1,-4.108238220E-1,-2.162654400E-1,2.719354630E-2
5.825552014E1,-4.741940498E-1,-3.034145832E-1,2.044153214E-2
5.829602420E1,2.337956429E-1,5.787849426E-3,-3.719806671E-3
5.833655066E1,5.018773079E-1,2.618415356E-1,-9.014606476E-2
5.837699556E1,3.111820221E-1,2.894108295E-1,-8.868741989E-2
5.841745499E1,6.753253937E-2,1.782836914E-1,-3.484630585E-2
5.845794275E1,1.702642441E-2,8.912682533E-2,5.316638947E-2
5.849843051E1,-1.846361160E-2,-1.015901566E-3,2.441692352E-2
5.853891827E1,-1.668357849E-2,-1.276850700E-2,1.724243164E-3
5.857944665E1,-1.049194336E-1,-5.415058136E-2,-2.011060715E-2
5.861992926E1,-1.540465355E-1,-8.774948120E-2,8.296489716E-3
5.866043004E1,-1.111474037E-1,-7.492518425E-2,6.302356720E-3
5.870088931E1,-1.127605438E-1,-5.603885651E-2,1.801872253E-2
5.874139191E1,-3.736987114E-1,-2.292358875E-1,1.032252312E-1
5.878186395E1,-1.080169678E-1,-1.471803188E-1,5.555248260E-2
5.882239796E1,5.061621666E-1,1.668865681E-1,-1.297855377E-2
5.886284665E1,3.478870392E-1,2.341060638E-1,-5.867719650E-2
5.890334634E1,5.625820160E-2,1.680023670E-1,-8.531522751E-2
5.894381561E1,2.729749680E-2,1.489958763E-1,-4.077911377E-2
5.898430301E1,-3.182411194E-2,2.382755280E-2,3.892421722E-3
5.902482863E1,-3.243207932E-2,-1.305842400E-2,-3.386974335E-3
5.906526952E1,-1.095032692E-1,-8.298182487E-2,3.581476212E-2
5.910577941E1,-1.015458107E-1,-8.757185936E-2,4.040098190E-2
5.914629124E1,-6.783819199E-2,-3.875231743E-2,2.937889099E-2
5.918679806E1,-1.056032181E-1,-5.650568008E-2,4.487895966E-2
5.922728671E1,-5.769934654E-1,-3.256037235E-1,1.382808685E-1
5.926777509E1,-1.405630112E-1,-2.100799084E-1,5.695390701E-2
5.930815535E1,6.462979317E-1,2.686862946E-1,-9.122323990E-2
5.934868103E1,3.996114731E-1,2.952969074E-1,-1.625604630E-1
5.938916296E1,5.067586899E-2,1.715533733E-1,-7.667016983E-2
5.942966494E1,3.315973282E-2,1.285548210E-1,-1.003074646E-2
5.947012744E1,2.817010880E-2,4.172396660E-2,2.111864090E-2
5.951065176E1,1.046838760E-1,9.352946281E-2,-3.116941452E-2
5.955112202E1,6.153297424E-2,5.056476593E-2,-7.576942444E-4
5.959163014E1,-1.448554993E-1,-5.771255493E-2,6.134223938E-2
5.963213723E1,-2.853837013E-1,-1.557047367E-1,9.338331223E-2
5.967259494E1,-4.388561249E-1,-2.677299976E-1,9.986543655E-2
5.971307650E1,-5.951676369E-1,-4.237229824E-1,1.403508186E-1
5.975356170E1,-6.419754028E-2,-1.918015480E-1,-9.765625000E-3
5.979405249E1,6.397757530E-1,2.934241295E-1,-1.873450279E-1
5.983456754E1,6.784839630E-1,4.667422771E-1,-1.877045631E-1
5.987505202E1,1.811289787E-1,2.401988506E-1,-4.856157303E-2
5.991552004E1,7.575893402E-2,1.639356613E-1,6.365776062E-3
5.995602582E1,1.507568359E-1,1.259527206E-1,2.211999893E-2
5.999652952E1,2.953004837E-2,7.172226906E-2,-7.948875427E-3
6.003696384E1,-3.234534264E-1,-1.090824604E-1,1.564073563E-2
6.007741181E1,-4.488101006E-1,-3.062388897E-1,1.550588608E-1
6.011791790E1,-2.799577713E-1,-2.655925751E-1,1.355538368E-1
6.015844290E1,-1.761651039E-1,-1.484279633E-1,3.054714203E-2
6.019893035E1,-4.203534126E-1,-2.404999733E-1,1.091098785E-2
6.023941124E1,-2.041759491E-1,-1.875166893E-1,3.274488449E-2
6.027990780E1,3.433103561E-1,1.102201939E-1,-2.506256104E-2
6.032040582E1,4.583444595E-1,3.001947403E-1,-1.064720154E-1
6.036087754E1,2.041101456E-1,2.297134399E-1,-1.018662453E-1
6.040138244E1,1.075115204E-1,1.729571819E-1,-3.022670746E-2
6.044180483E1,9.915828705E-2,1.067142487E-1,7.467269897E-4
6.048231994E1,6.375122070E-2,4.529929161E-2,5.240345001E-2
6.052282514E1,-2.932581902E-1,-1.810040474E-1,1.383528709E-1
6.056335572E1,-4.629197121E-1,-2.908282280E-1,1.453409195E-1
6.060382973E1,-3.257098198E-1,-2.095935345E-1,4.319763184E-2
6.064429712E1,7.711410522E-3,-3.960609436E-3,-9.770107269E-2
6.068477139E1,1.482157707E-1,1.024274826E-1,-1.038932800E-1
6.072525098E1,-8.784294128E-2,-8.368730545E-3,1.833963394E-2
6.076574650E1,-5.236096382E-1,-2.588562965E-1,1.590304375E-1
6.080624655E1,-2.224144936E-1,-2.299933434E-1,1.137561798E-1
6.084676092E1,3.332595825E-1,2.466177940E-2,4.523372650E-2
6.088720884E1,3.267374039E-1,1.791586876E-1,-8.866167068E-2
6.092767077E1,2.069573402E-1,2.169916630E-1,-1.142168045E-1
6.096815822E1,5.960035324E-2,1.340746880E-1,-5.956792831E-2
6.100867921E1,8.315324783E-2,1.091058254E-1,3.674983978E-3
6.104916639E1,2.545928955E-2,6.504392624E-2,-5.208015442E-3
6.108965936E1,-1.347064972E-3,3.482341766E-2,1.205968857E-2
6.113014473E1,-1.434607506E-1,-4.401493073E-2,2.463626862E-2
6.117062499E1,-2.620944977E-1,-1.378502846E-1,5.342912674E-2
6.121111233E1,-2.133460045E-1,-1.431641579E-1,3.989410400E-2
6.125159905E1,-1.633114815E-1,-1.174068451E-1,2.206611633E-2
6.129212702E1,-2.518424988E-1,-1.855239868E-1,5.144929886E-2
6.133258306E1,-5.630540848E-2,-1.121819019E-1,6.391191483E-2
6.137305540E1,2.109265327E-1,4.378199577E-2,1.502037048E-4
6.141357170E1,2.821526527E-1,1.594491005E-1,-4.816484451E-2
6.145398733E1,1.001396179E-1,1.229360104E-1,-4.588031769E-2
6.149451358E1,4.788064957E-2,1.127479076E-1,-5.078125000E-2
6.153500488E1,1.572589874E-1,1.284866333E-1,-2.276325226E-2
6.157555770E1,7.807636261E-2,8.499574661E-2,-1.138544083E-2
6.161599551E1,9.923171997E-2,1.054918766E-1,-2.195310593E-2
6.165651113E1,1.992082596E-2,6.884646416E-2,-1.063728333E-2
6.169692650E1,-2.052545547E-1,-5.095100403E-2,2.328538895E-2
6.173741332E1,-2.820539474E-1,-1.579427719E-1,6.649637222E-2
6.177790014E1,-2.079734802E-1,-1.516642570E-1,5.798912048E-2
6.181838697E1,7.180690765E-3,-3.255891800E-2,-1.512718201E-2
6.185890129E1,1.220283508E-1,7.163882256E-2,-4.052543640E-2
6.189940061E1,-2.919197083E-3,3.509187698E-2,1.365947723E-2
6.193987566E1,-1.614794731E-1,-6.781578064E-2,8.853912354E-2
6.198036254E1,-4.117236137E-1,-2.731900215E-1,1.411981583E-1
6.202089092E1,7.338619232E-2,-8.950972557E-2,3.464746475E-2
6.206134811E1,4.984135628E-1,2.229475975E-1,-1.051497459E-1
6.210188181E1,2.786927223E-1,2.613880634E-1,-1.638655663E-1
6.214231546E1,4.302501678E-2,1.856839657E-1,-1.060376167E-1
6.218280368E1,-1.026344299E-2,6.973981857E-2,3.359746933E-2
6.222329124E1,-1.223268509E-1,-2.526998520E-2,-8.378028870E-4
6.226374889E1,-1.583619118E-1,-4.203891754E-2,-2.598524094E-2
6.230426327E1,-1.196813583E-1,-7.030010223E-2,1.865863800E-3
6.234475796E1,-1.852703094E-2,-9.018301964E-2,5.904817581E-2
6.238524004E1,7.952213287E-2,-5.502152443E-2,1.031165123E-1
6.242575270E1,9.067010880E-2,-4.185819626E-2,1.613059044E-1
6.246617368E1,2.090024948E-2,-6.099390984E-2,1.548881531E-1
6.250674754E1,-1.726479530E-1,-5.646777153E-2,2.991437912E-2
6.254717759E1,-4.240336418E-1,-1.642384529E-1,-4.891300201E-2
6.258766499E1,-2.373313904E-2,1.222658157E-2,-1.670718193E-1
6.262817577E1,4.292607307E-1,1.611835957E-1,-2.836465836E-2
6.266865410E1,2.137694359E-1,9.148049355E-2,4.376840591E-2
6.270912952E1,-6.165027618E-3,1.198482513E-2,5.740547180E-2
6.274962832E1,-2.489328384E-2,3.484177589E-2,-3.311967850E-2
6.279012176E1,1.112604141E-1,1.085500717E-1,-7.938623428E-2
6.283061587E1,1.475982666E-1,1.313447952E-1,-6.184816360E-2
6.287108905E1,1.207723618E-1,1.064321995E-1,-4.314422607E-3
6.291158389E1,-5.931377411E-3,7.530713081E-2,-2.970218658E-3
6.295208421E1,-2.022209167E-1,1.668667793E-2,-5.289411545E-2
6.299256353E1,-2.238874435E-1,-4.494929314E-2,-2.255868912E-2
6.303303592E1,-1.958003044E-1,-6.784844398E-2,-4.139947891E-2
6.307352395E1,-3.765726089E-2,-1.000261307E-2,-2.324151993E-2
6.311401118E1,8.830547333E-3,-1.824140549E-3,7.912635803E-3
6.315450415E1,-3.245830536E-3,9.860277176E-3,2.013587952E-2
6.319499410E1,-3.609752655E-2,-2.412796021E-4,4.371452332E-2
6.323548014E1,-9.918832779E-2,-7.486176491E-2,5.968379974E-2
6.327597499E1,-1.951479912E-1,-1.113350391E-1,3.035688400E-2
6.331649572E1,-1.586995125E-1,-1.346910000E-1,2.702951431E-2
6.335697936E1,2.164454460E-1,-6.139278412E-4,3.045511246E-2
6.339741170E1,4.187493324E-1,1.645622253E-1,3.738403320E-4
6.343789931E1,2.185034752E-1,1.854655743E-1,-2.299833298E-2
6.347836181E1,2.579212189E-2,1.200132370E-1,-1.898574829E-2
6.351887863E1,-8.898258209E-3,5.389380455E-2,-9.342670441E-3
6.355938504E1,-9.243011475E-3,-1.553535461E-2,5.235958099E-2
6.359987837E1,-3.985261917E-2,-8.550047874E-2,1.037950516E-1
6.364035822E1,-2.342882156E-1,-1.624879837E-1,8.498859406E-2
6.368084853E1,-5.206017494E-1,-2.615113258E-1,8.873462677E-3
6.372132634E1,2.810955048E-2,-1.767873764E-2,-6.460666656E-2
6.376181712E1,2.083473206E-1,7.629442215E-2,-6.873655319E-2
6.380232035E1,3.416156769E-2,5.774354935E-2,-4.082918167E-2
6.384279619E1,-1.072216034E-2,3.189754486E-2,1.234149933E-2
6.388327592E1,1.117019653E-1,5.971336365E-2,2.134323120E-2
6.392375572E1,1.643733978E-1,9.572768211E-2,-1.728487015E-2
6.396423926E1,8.423042297E-2,5.539608002E-2,6.156444550E-3
6.400475723E1,1.337995529E-1,8.963060379E-2,-1.100969315E-2
6.404523962E1,1.182856560E-1,9.830641747E-2,-2.715873718E-2
6.408570103E1,2.774190903E-2,9.410214424E-2,-5.433416367E-2
6.412622259E1,2.200393677E-1,2.170162201E-1,-7.731342316E-2
6.416674051E1,1.106429100E-1,1.578049660E-1,-4.132986069E-2
6.420723322E1,-2.608013153E-1,-4.752397537E-2,1.002836227E-2
6.424772165E1,-4.833908081E-1,-2.260897160E-1,4.661512375E-2
6.428821004E1,-3.628144264E-1,-2.491180897E-1,7.341337204E-2
6.432869837E1,5.213737488E-2,-8.883476257E-2,1.280879974E-2
6.436913410E1,2.521510124E-1,7.083868980E-2,-5.210876465E-3
6.440963290E1,-1.639509201E-2,1.136779785E-2,7.245874405E-2
6.445006978E1,-4.628081322E-1,-2.270462513E-1,1.138601303E-1
6.449058129E1,-2.205615044E-1,-1.958677769E-1,6.920289993E-2
6.453107374E1,4.744896889E-1,1.441693306E-1,-5.788040161E-2
6.457159994E1,4.538998604E-1,2.457909584E-1,-6.004762650E-2
6.461207629E1,1.011562347E-1,1.545479298E-1,-4.256582260E-2
6.465255275E1,6.098747253E-3,1.078813076E-1,-7.859230042E-3
6.469303358E1,-3.358936310E-2,4.471158981E-2,-1.075744629E-3
6.473349650E1,1.409530640E-2,6.192183495E-2,-4.378271103E-2
6.477398223E1,-3.683996201E-2,3.030943871E-2,-3.396749496E-2
6.481450191E1,-1.450953484E-1,-2.875351906E-2,-2.072334290E-3
6.485503170E1,-1.665983200E-1,-7.599639893E-2,1.759433746E-2
6.489547025E1,-1.032481194E-1,-7.872319221E-2,4.669809341E-2
6.493595697E1,7.457733154E-3,-1.329779625E-2,1.453971863E-2
6.497648796E1,5.820560455E-2,2.955961227E-2,4.624843597E-3
6.501697191E1,-2.079010010E-3,3.197932243E-2,5.548477173E-3
6.505745936E1,5.912780762E-4,2.337098122E-2,2.523374557E-2
6.509784306E1,4.204034805E-2,1.646161079E-2,2.129840851E-2
6.513836035E1,6.038808823E-2,2.531099319E-2,2.292156219E-3
6.517887108E1,1.694583893E-2,3.000783920E-2,-2.145910263E-2
6.521935827E1,-7.433891296E-4,2.336430550E-2,-3.105926514E-2
6.525981868E1,-5.749273300E-2,7.495880127E-3,-2.216053009E-2
6.530033978E1,-5.062866211E-2,3.078389168E-2,-4.723453522E-2
6.534083244E1,-1.047048569E-1,1.821303368E-2,-4.486417770E-2
6.538132837E1,-3.749799728E-2,-1.903033257E-2,1.443195343E-2
6.542182618E1,6.692218781E-2,-2.961611748E-2,4.290914536E-2
6.546223775E1,1.232500076E-1,1.493000984E-2,7.475948334E-2
6.550276931E1,8.188295364E-2,2.912068367E-2,5.533742905E-2
6.554325572E1,1.989603043E-2,3.533959389E-2,2.126550674E-2
6.558379160E1,3.926086426E-2,6.653428078E-2,-2.139234543E-2
6.562425415E1,5.254268646E-3,6.354045868E-2,-5.339431763E-2
6.566474207E1,1.426095963E-1,1.601984501E-1,-1.396799088E-1
6.570520124E1,6.130361557E-2,1.561403275E-1,-1.070032120E-1
6.574568681E1,-4.350314140E-1,-2.125325203E-1,7.088184357E-2
6.578623952E1,-1.113634109E-1,-1.317775249E-1,1.057481766E-1
6.582670051E1,1.376934052E-1,1.812410355E-2,1.537084579E-2
6.586713473E1,-6.131839752E-2,-8.119583130E-3,-2.622127533E-2
6.590762191E1,-1.648888588E-1,-1.074521542E-1,6.749296188E-2
6.594810910E1,-3.108358383E-2,-9.067082405E-2,1.364274025E-1
6.598861520E1,1.085796356E-1,3.113055229E-2,-4.700660706E-3
6.602913728E1,1.796445847E-1,1.109004021E-1,-1.926279068E-2
6.606961499E1,-2.852344513E-2,-1.269054413E-2,2.617120743E-2
6.611009681E1,-3.779554367E-2,-1.919007301E-2,3.085803986E-2
6.615058702E1,7.935762405E-2,5.343437195E-2,-3.395414352E-2
6.619107212E1,-6.125116348E-2,-2.211332321E-3,-3.294420242E-2
6.623155421E1,-5.161809921E-2,-1.851511002E-2,2.151489258E-2
6.627203228E1,2.276182175E-2,2.441501617E-2,1.007461548E-2
6.631252405E1,-1.014547348E-1,-4.519939423E-2,1.560163498E-2
6.635301384E1,-2.844233513E-1,-1.972336769E-1,1.440138817E-1
6.639350920E1,-4.582266808E-1,-4.163463116E-1,1.575036049E-1
6.643396629E1,2.158956528E-1,-8.442854881E-2,4.132413864E-2
6.647443415E1,7.285838127E-1,3.305001259E-1,-8.722543716E-2
6.651496129E1,6.187357903E-1,4.314286709E-1,-1.435961723E-1
6.655544431E1,4.026699066E-2,2.220537663E-1,-5.831480026E-2
6.659593670E1,-4.279885292E-1,-3.503179550E-2,-1.712179184E-2
6.663645759E1,-3.150076866E-1,-1.528809071E-1,1.380538940E-2
6.667692181E1,2.358627319E-2,-5.086565018E-2,-6.307220459E-2
6.671738655E1,1.652588844E-1,6.650567055E-2,-9.013032913E-2
6.675786332E1,9.689712524E-2,1.018545628E-1,-4.168224335E-2
6.679832967E1,-1.327939034E-1,7.739067078E-3,2.037572861E-2
6.683885436E1,-1.320629120E-1,-3.542304039E-2,4.120492935E-2
6.687935837E1,-4.685497284E-2,-6.555104256E-2,4.243803024E-2
6.691983733E1,1.188793182E-1,2.216625214E-2,1.971578598E-2
6.696032098E1,9.820222855E-2,3.280735016E-2,2.769660950E-2
6.700083316E1,3.075027466E-2,2.346515656E-2,2.123546600E-2
6.704130238E1,-8.650398254E-2,-1.479244232E-2,8.367061615E-3
6.708177197E1,-5.435466766E-2,7.316589355E-3,-3.323888779E-2
6.712226311E1,2.206134796E-2,5.522441864E-2,-4.933643341E-2
6.716276619E1,-2.971649170E-3,2.878093719E-2,-3.816270828E-2
6.720326014E1,-4.415512085E-3,1.944184303E-2,-1.447439194E-2
6.724371920E1,-1.373910904E-2,2.551078796E-3,8.804798126E-3
6.728422556E1,2.676057816E-2,3.939056396E-2,1.632213593E-3
6.732470520E1,-2.479362488E-2,2.785634995E-2,-7.207870483E-3
6.736519436E1,-6.525135040E-2,-9.107828140E-3,2.383852005E-2
6.740569540E1,-4.408073425E-2,-2.346253395E-2,2.801704407E-2
6.744613592E1,-4.736852646E-2,-1.751112938E-2,2.802801132E-2
6.748669374E1,-5.114841461E-2,-5.574584007E-2,3.671264648E-2
6.752714129E1,-2.630853653E-2,-8.617377281E-2,2.866649628E-2
6.756759134E1,6.195306778E-2,-1.428651810E-2,-1.330375671E-3
6.760807894E1,1.502914429E-1,7.421636581E-2,-1.348924637E-2
6.764856660E1,4.286289215E-2,8.620619774E-2,-1.715278625E-2
6.768907108E1,-6.175136566E-2,6.490445137E-2,-3.275632858E-2
6.772957947E1,-8.322048187E-2,1.450133324E-2,-3.179693222E-2
6.777008348E1,-9.634494781E-3,1.313257217E-2,-2.653455734E-2
6.781053910E1,1.520967484E-2,9.091615677E-3,-3.550529480E-3
6.785105009E1,-2.967834473E-2,-1.876997948E-2,2.386617661E-2
6.789154467E1,-2.782678604E-2,-4.672765732E-3,2.809953690E-2
6.793202342E1,2.848577499E-2,9.082555771E-3,1.343679428E-2
6.797247197E1,3.638029099E-2,2.728462219E-2,-1.193952560E-2
6.801299233E1,-3.074550629E-2,6.954431534E-3,6.659030914E-3
6.805349806E1,-1.078271866E-2,2.242970467E-2,3.135681152E-3
6.809397374E1,1.778125763E-2,2.640819550E-2,4.774570465E-3
6.813443301E1,-3.210878372E-2,6.297826767E-3,-1.125049591E-2
6.817493358E1,-1.526165009E-2,9.907484055E-3,7.014274597E-4
6.821542092E1,1.611900330E-2,2.549123764E-2,-2.123355865E-3
6.825592202E1,-1.526355743E-2,5.555152893E-4,-4.115104675E-4
6.829646535E1,5.087852478E-3,3.164768219E-3,1.227331161E-2
6.833690473E1,1.758718491E-2,2.462387085E-2,1.813316345E-2
6.837734608E1,1.394367218E-2,3.321123123E-2,4.334449768E-4
6.841784212E1,-4.527091980E-3,3.941035271E-2,-2.946996689E-2
6.845833160E1,1.451826096E-2,4.262423515E-2,-6.575107574E-3
6.849883957E1,4.038715363E-2,3.085255623E-2,-1.306343079E-2
6.853935228E1,5.344963074E-2,6.948804855E-2,-3.207826614E-2
6.857982358E1,2.509737015E-2,6.152510643E-2,-4.168653488E-2
6.862031087E1,-2.463197708E-2,4.561376572E-2,-1.678943634E-2
6.866078113E1,-1.362047195E-1,-4.224967957E-2,-3.540515900E-3
6.870128155E1,4.478263855E-2,5.421662331E-2,-7.040023804E-3
6.874178420E1,8.397483826E-2,7.695627213E-2,-3.120231628E-2
6.878225655E1,-1.376566887E-1,-5.490636826E-2,5.761671066E-2
6.882275754E1,-2.100224495E-1,-1.490559578E-1,1.204285622E-1
6.886326275E1,1.057233810E-1,1.128029823E-2,2.995395660E-2
6.890371712E1,2.678346634E-2,1.341176033E-2,-7.719993591E-4
6.894423087E1,-1.262540817E-1,-6.387972832E-2,5.550432205E-2
6.898471822E1,5.868196487E-2,1.184773445E-2,2.102375031E-2
6.902519353E1,7.132434845E-2,4.610943794E-2,-3.189182281E-2
6.906569139E1,-2.718639374E-2,2.173590660E-2,-1.863622665E-2
6.910613644E1,-1.222610474E-2,2.730369568E-3,8.406639099E-3
6.914668337E1,-8.599281311E-3,-1.603364944E-3,1.354598999E-2
6.918722900E1,-2.116537094E-2,-1.389765739E-2,1.610755920E-3
6.922771634E1,2.104949951E-2,1.534390450E-2,-7.718086243E-3
6.926807431E1,-2.234697342E-2,-2.706050873E-4,2.017021179E-3
6.930857842E1,1.145792007E-2,1.110816002E-2,7.206916809E-3
6.934909842E1,1.967859268E-2,1.620554924E-2,2.289819717E-2
6.938957983E1,-2.050971985E-2,-9.710788727E-3,3.385543823E-4
6.943005915E1,2.749729156E-2,4.624366760E-3,3.570127487E-2
6.947055863E1,2.733469009E-2,3.996562958E-2,-1.618337631E-2
6.951104587E1,-8.871078491E-3,1.826643944E-2,2.325534821E-3
6.955154926E1,-1.115465164E-2,5.256891251E-3,2.074289322E-2
6.959205176E1,-8.681297302E-3,5.702018738E-3,-1.144409180E-5
6.963250806E1,2.285432816E-2,1.533412933E-2,-5.428314209E-3
6.967298728E1,1.868724823E-3,1.447153091E-2,-3.745555878E-3
6.971347306E1,1.488637924E-2,1.198792458E-2,-2.171993256E-3
6.975396467E1,-5.075931549E-3,1.258921623E-2,9.670257568E-4
6.979446155E1,7.658958435E-3,1.033091545E-2,6.232261658E-4
6.983494874E1,-2.462339401E-2,-1.231932640E-2,6.472110748E-3
6.987542457E1,5.485057831E-2,3.243637085E-2,-3.910541534E-3
6.991591238E1,-6.540870667E-2,-3.413462639E-2,2.637529373E-2
6.995641181E1,3.472661972E-2,2.184820175E-2,5.157470703E-3
6.999689790E1,-9.580421448E-2,-5.109763145E-2,3.947067261E-2
7.003736561E1,-5.485558510E-1,-3.927674294E-1,2.682552338E-1
7.007789348E1,-5.778970718E-1,-5.957524776E-1,2.617301941E-1
7.011834051E1,6.384224892E-1,1.012108326E-1,-1.106252670E-1
7.015883520E1,1.080472469E0,6.576468945E-1,-2.244377136E-1
7.019933098E1,2.154622078E-1,3.440208435E-1,-1.999607086E-1
7.023979796E1,-5.549912453E-1,-4.720306396E-2,-6.224632263E-2
7.028029691E1,-3.850746155E-1,-2.017118931E-1,1.361560822E-1
7.032078145E1,-1.493787766E-2,-1.421110630E-1,3.339242935E-2
7.036126191E1,2.478957176E-1,8.278298378E-2,-8.982229233E-2
7.040178546E1,2.682871819E-1,1.732759476E-1,-5.231571198E-2
7.044221592E1,6.824016571E-3,-2.665758133E-3,6.045818329E-2
7.048273384E1,-3.957748413E-2,-1.037907600E-2,1.102924347E-3
7.052322467E1,2.080211639E-1,1.925787926E-1,-1.049032211E-1
7.056373775E1,1.369585991E-1,1.414763927E-1,-6.591367722E-2
7.060421926E1,6.004333496E-2,1.513614655E-1,-1.035275459E-1
7.064469280E1,6.474781036E-2,1.299464703E-1,-5.544853210E-2
7.068516275E1,7.337236404E-2,9.069418907E-2,-5.716562271E-2
7.072565311E1,2.130193710E-1,1.846392155E-1,-1.133928299E-1
7.076618587E1,1.881952286E-1,2.047281265E-1,-7.737159729E-2
7.080666811E1,2.989082336E-1,2.774949074E-1,-1.946959496E-1
7.084710790E1,7.064189911E-1,5.881226063E-1,-2.084403038E-1
7.088758483E1,6.680727005E-2,2.341537476E-1,-3.733396530E-2
7.092805520E1,-1.001225471E0,-4.774343967E-1,2.567300797E-1
7.096858426E1,-1.169938087E0,-8.967759609E-1,5.471100807E-1
7.100909337E1,-3.216652870E-1,-6.064276695E-1,3.213205338E-1
7.104953811E1,6.012001038E-1,1.894598007E-1,-2.552461624E-1
7.109004191E1,5.315613747E-1,4.011535645E-1,-3.251709938E-1
7.113052853E1,8.191919327E-2,2.729806900E-1,-1.414937973E-1
7.117102306E1,-4.179873466E-1,-7.433748245E-2,7.506227493E-2
7.121151030E1,-4.167785645E-1,-2.074627876E-1,1.533966064E-1
7.125197301E1,-3.166866302E-2,-8.106637001E-2,-1.203966141E-2
7.129254467E1,2.494077682E-1,8.511090279E-2,-7.437086105E-2
7.133296280E1,1.940383911E-1,8.539009094E-2,-2.341032028E-2
7.137344098E1,-7.176065445E-2,-5.263853073E-2,8.987951279E-2
7.141396582E1,-1.286301613E-1,-7.762908936E-2,1.027598381E-1
7.145438108E1,-1.509094238E-2,3.188133240E-3,7.960319519E-3
7.149489499E1,5.962896347E-2,5.664587021E-2,-5.008745193E-2
7.153540926E1,-1.344680786E-2,3.170299530E-2,-1.392936707E-2
7.157587941E1,-9.080696106E-2,-3.062367439E-2,1.044082642E-2
7.161641634E1,-3.507375717E-2,-1.336646080E-2,8.114337921E-3
7.165688749E1,2.724313736E-2,9.283065796E-3,-1.065015793E-2
7.169734030E1,1.000785828E-2,9.968280792E-4,1.260995865E-2
7.173781639E1,-4.773664474E-2,-1.754426956E-2,3.365898132E-2
7.177830420E1,-1.581001282E-2,-8.831739426E-3,6.988048553E-3
7.181879941E1,2.526760101E-2,3.415560722E-2,-4.508972168E-3
7.185930342E1,-8.841991425E-3,1.743197441E-2,6.515979767E-3
7.189980504E1,-6.681919098E-3,2.356052399E-3,1.787137985E-2
7.194031030E1,-6.363868713E-3,1.053237915E-2,1.694011688E-2
7.198079816E1,5.331516266E-3,-7.086515427E-3,8.749961853E-3
7.202130670E1,-1.119613647E-2,9.474754333E-4,7.864952087E-3
7.206176447E1,-2.374029160E-2,3.914594650E-3,9.158611298E-3
7.210222941E1,-1.806259155E-2,2.905273438E-2,-1.111555099E-2
7.214270723E1,-1.919078827E-2,1.004552841E-2,-4.743099213E-3
7.218321608E1,-7.711887360E-3,7.517576218E-3,2.256107330E-2
7.222366686E1,-8.026123047E-3,-1.738333702E-2,1.907539368E-2
7.226415707E1,-1.879215240E-3,1.061272621E-2,1.616668701E-2
7.230465488E1,6.839752197E-3,1.936388016E-2,4.246711731E-3
7.234516759E1,-7.761955261E-3,2.285909653E-2,-8.589744568E-3
7.238564936E1,-1.217269897E-2,1.104784012E-2,2.801895142E-3
7.242613639E1,-3.067493439E-3,8.691549301E-3,2.130985260E-3
7.246663290E1,-8.468627930E-4,1.775026321E-3,2.064228058E-3
7.250706332E1,-5.722045898E-6,5.326747894E-3,8.119583130E-3
7.254756030E1,-9.436130524E-3,1.141929626E-2,1.105833054E-2
7.258804723E1,3.941535950E-3,1.513385773E-2,-3.451824188E-3
7.262854311E1,-1.967811584E-2,1.605224609E-2,1.055145264E-2
7.266905733E1,-1.459360123E-2,1.303076744E-2,1.215934753E-4
7.270956238E1,-6.096839905E-3,1.779675484E-2,-1.040458679E-2
7.275004379E1,8.191585541E-3,3.167986870E-2,8.572101593E-3
7.279051905E1,1.478862762E-2,1.325869560E-2,6.800174713E-3
7.283099822E1,-5.829811096E-3,-3.964662552E-3,1.412916183E-2
7.287148426E1,-5.774497986E-4,4.837274551E-3,7.587909698E-3
7.291197514E1,6.661415100E-4,1.006031036E-2,8.681774139E-3
7.295249202E1,-1.306152344E-2,1.261377335E-2,2.364635468E-3
7.299298499E1,-1.151943207E-2,1.706862450E-2,-5.736351013E-4
7.303347556E1,-1.370716095E-2,5.904436111E-3,-9.316921234E-3
7.307394473E1,-5.209922791E-3,1.224160194E-2,-2.889633179E-4
7.311442936E1,4.396915436E-3,9.998798370E-3,-1.026153564E-3
7.315491197E1,1.211166382E-3,7.905721664E-3,-3.623962402E-4
7.319539603E1,8.176803589E-3,9.921073914E-3,6.588459015E-3
7.323588113E1,-6.125450134E-3,1.255512238E-2,9.996891022E-3
7.327637889E1,-1.174592972E-2,5.746126175E-3,5.352497101E-3
7.331686801E1,7.977485657E-4,4.123449326E-3,-1.571655273E-3
7.335730296E1,2.121925354E-3,-6.961822510E-3,-5.806446075E-3
7.339778514E1,-1.038169861E-2,6.369829178E-3,1.015663147E-4
7.343826296E1,-1.123762131E-2,2.158164978E-2,4.047870636E-3
7.347879879E1,-7.994174957E-3,1.386260986E-2,6.183147430E-3
7.351930249E1,-8.541107178E-3,-5.632400513E-3,-2.145767212E-4
7.355978509E1,7.565498352E-3,1.946067810E-2,-3.627300262E-3
7.360026910E1,1.010894775E-4,2.314209938E-2,1.219511032E-2
7.364075869E1,2.298355103E-4,1.364111900E-2,1.001930237E-2
7.368125551E1,-2.508640289E-3,6.897687912E-3,-3.555297852E-3
7.372174129E1,-1.835250854E-2,9.799003601E-4,-5.331039429E-3
7.376221994E1,-3.219604492E-3,1.216816902E-2,-3.326416016E-3
7.380272915E1,-2.292156219E-3,9.343147278E-3,-7.681846619E-3
7.384321566E1,-6.918430328E-3,1.387429237E-2,1.815557480E-2
7.388367494E1,-8.409500122E-3,1.781940460E-3,9.083747864E-3
7.392415108E1,1.019477844E-3,2.901077271E-3,1.543045044E-3
7.396464139E1,7.212162018E-3,5.134820938E-3,-3.253936768E-3
7.400516920E1,-1.199960709E-2,1.656532288E-2,-8.664131165E-4
7.404565520E1,-2.841949463E-3,2.605581284E-2,-3.850460052E-3
7.408614853E1,-1.245594025E-2,9.716987610E-3,4.442691803E-3
7.412666697E1,-1.414680481E-2,5.567073822E-4,-3.481388092E-3
7.416709962E1,-1.327943802E-2,-8.921623230E-4,8.543014526E-3
7.420755369E1,9.184360504E-3,2.108669281E-2,-9.071826935E-3
7.424804572E1,-2.236366272E-3,1.636934280E-2,-5.459785461E-4
7.428853525E1,5.442619324E-3,8.966207504E-3,8.749961853E-3
7.432903077E1,-2.125883102E-2,7.065296173E-3,3.617763519E-3
7.436954790E1,1.727104187E-3,6.468772888E-3,-5.306243896E-3
7.441005092E1,8.964538574E-4,2.302956581E-2,-4.869937897E-3
7.445044697E1,-3.242492676E-4,1.532363892E-2,-2.393245697E-3
7.449100790E1,6.271839142E-3,1.705980301E-2,4.577159882E-3
7.453150353E1,-9.673118591E-3,8.015632629E-3,1.799058914E-2
7.457201139E1,1.839637756E-3,4.597902298E-3,-3.177642822E-3
7.461247920E1,-8.564472198E-3,1.959228516E-2,-2.252101898E-3
7.465294233E1,-5.182743073E-3,2.173328400E-2,-5.899429321E-3
7.469340561E1,-9.120464325E-3,2.145504951E-2,-2.317905426E-3
7.473391483E1,-1.758432388E-2,1.779079437E-3,2.630233765E-3
7.477441254E1,3.280162811E-3,1.758050919E-2,-5.515098572E-3
7.481492082E1,4.447937012E-3,4.646062851E-3,7.061004639E-3
7.485545426E1,1.751899719E-3,1.700067520E-2,-1.785755157E-3
7.489587889E1,-1.022577286E-2,5.828619003E-3,2.992153168E-3
7.493639785E1,3.037452698E-4,-8.370876312E-4,4.007816315E-3
7.497684504E1,1.041412354E-3,8.300065994E-3,-4.976749420E-3
7.501733270E1,-7.309436798E-3,4.986047745E-3,2.063751221E-3
7.505782040E1,-4.149913788E-3,1.011347771E-2,-2.236366272E-4
7.509830811E1,-2.093791962E-3,1.594567299E-2,-1.481056213E-3
7.513877457E1,-4.103660583E-3,1.264333725E-2,6.579399109E-3
7.517928785E1,-2.568244934E-2,3.625392914E-3,3.185272217E-3
7.521977551E1,-3.118515015E-4,2.322554588E-2,-4.184722900E-3
7.526026457E1,1.595020294E-3,2.298617363E-2,-1.736164093E-3
7.530076634E1,5.707740784E-3,2.183914185E-4,-1.095771790E-3
7.534123967E1,-8.415222168E-3,1.278734207E-2,1.777172089E-3
7.538172806E1,4.592418671E-3,1.263093948E-2,8.141040802E-3
7.542222988E1,1.749515533E-3,2.683639526E-2,-3.166675568E-3
7.546265723E1,-1.663446426E-2,1.664781570E-2,-4.329204559E-3
7.550316650E1,-6.770610809E-3,2.679967880E-2,-5.036354065E-3
7.554373962E1,-2.091598511E-2,5.868673325E-3,2.018451691E-3
7.558421926E1,5.837440491E-3,6.817340851E-3,2.414703369E-3
7.562466967E1,-6.562709808E-3,-4.301548004E-3,1.056480408E-2
7.566513165E1,7.591247559E-3,1.325726509E-2,4.774093628E-3
7.570560217E1,-7.333755493E-3,2.025914192E-2,3.400325775E-3
7.574610217E1,-9.381294250E-3,1.493453979E-2,2.083778381E-3
7.578662811E1,-3.181934357E-3,1.814627647E-2,2.884387970E-3
7.582708842E1,-6.133556366E-3,4.520893097E-3,7.070064545E-3
7.586755238E1,-7.765769958E-3,-6.530284882E-3,1.225519180E-2
7.590803973E1,1.393413544E-2,1.137518883E-2,2.307891846E-3
7.594852712E1,-8.358478546E-3,5.553245544E-3,6.217479706E-3
7.598903113E1,-1.116514206E-2,1.017808914E-2,-9.703159332E-3
7.602954738E1,-1.361322403E-2,3.493332863E-2,-1.193523407E-2
7.607001837E1,1.010894775E-3,3.693199158E-2,-6.968498230E-3
7.611050369E1,2.760887146E-3,1.478886604E-2,7.297515869E-3
7.615100900E1,-1.427173615E-2,-8.713006973E-3,1.386642456E-2
7.619149832E1,1.115083694E-2,-1.587390900E-3,1.081943512E-3
7.623197072E1,3.935337067E-3,1.112890244E-2,-9.527206421E-4
7.627243608E1,-1.392841339E-2,2.034783363E-2,-3.234386444E-3
7.631293348E1,-8.975028992E-3,2.565574646E-2,-3.583908081E-3
7.635340509E1,-1.204729080E-2,9.767055511E-3,-3.435611725E-3
7.639391004E1,6.099700928E-3,4.154920578E-3,6.021499634E-3
7.643439744E1,-3.363609314E-3,-5.519390106E-4,4.746913910E-3
7.647486639E1,1.083278656E-2,4.198789597E-3,1.451969147E-3
7.651537999E1,-1.751422882E-3,1.376867294E-2,-1.966953278E-3
7.655587879E1,-1.700448990E-2,4.623651505E-3,2.074718475E-3
7.659639384E1,-8.212089539E-3,7.111310959E-3,-4.091262817E-4
7.663685348E1,7.653236389E-3,2.036905289E-2,1.899242401E-3
7.667731629E1,3.562927246E-3,2.436971664E-2,1.094818115E-3
7.671777894E1,-1.188993454E-2,1.401829720E-2,-1.456737518E-3
7.675826655E1,-2.517795563E-2,-1.380920410E-3,2.610683441E-3
7.679881217E1,-8.741855621E-3,1.650309563E-2,-6.923675537E-3
7.683929629E1,-3.494262695E-3,3.153824806E-2,-6.171703339E-3
7.687974848E1,1.378107071E-2,2.379775047E-2,-2.713680267E-3
7.692024671E1,-7.270336151E-3,1.450943947E-2,1.225090027E-2
7.696074436E1,-6.311416626E-3,-1.000428200E-2,2.463817596E-3
7.700120983E1,-1.020431519E-4,-6.027221680E-4,5.836486816E-3
7.704170280E1,-2.760887146E-3,1.673555374E-2,1.378059387E-3
7.708219525E1,-2.157688141E-3,3.111815453E-2,2.131462097E-4
7.712269301E1,-1.925516129E-2,2.342534065E-2,1.063823700E-3
7.716318353E1,-1.691198349E-2,1.051783562E-2,-8.157253265E-3
7.720366957E1,-8.938312531E-3,-1.528239250E-2,-2.268314362E-3
7.724414806E1,6.538867950E-3,1.068067551E-2,8.610725403E-3
7.728464316E1,-6.575584412E-3,1.256275177E-2,3.185749054E-3
7.732513775E1,-4.299163818E-3,2.757406235E-2,-3.873348236E-3
7.736560947E1,-2.232313156E-2,9.187459946E-3,5.318641663E-3
7.740611436E1,8.300781250E-3,-3.456592560E-3,1.456975937E-2
7.744661462E1,1.395702362E-3,4.272699356E-3,3.734111786E-3
7.748709046E1,2.397251129E-2,1.164913177E-2,4.253387451E-3
7.752757212E1,-1.337051392E-2,-7.318973541E-3,1.086378098E-2
7.756806796E1,-1.817655563E-2,-6.760597229E-3,-7.127761841E-3
7.760855983E1,-1.266527176E-2,4.455423355E-2,-5.970001221E-4
7.764903837E1,-8.058547974E-3,5.061292648E-2,-1.623582840E-2
7.768953441E1,3.443717957E-3,3.426790237E-2,-1.187944412E-2
7.772998978E1,-4.927158356E-3,8.744716644E-3,2.530097961E-3
7.777049676E1,-1.820087433E-3,-6.783723831E-3,7.301807404E-3
7.781099103E1,-1.820898056E-2,-2.558946609E-3,1.368713379E-2
7.785146931E1,2.407073975E-3,5.658864975E-3,4.117012024E-3
7.789193103E1,-8.120059967E-3,2.081441879E-2,1.431941986E-3
7.793245306E1,-1.114320755E-2,2.081608772E-2,-1.183891296E-2
7.797294098E1,-7.353305817E-3,2.032780647E-2,7.247924805E-5
7.801344900E1,-3.559112549E-3,1.006865501E-2,4.698753357E-3
7.805389587E1,1.425266266E-3,1.977682114E-3,1.313877106E-2
7.809438056E1,9.031772614E-3,1.174330711E-2,9.531497955E-3
7.813485436E1,4.302024841E-3,2.004861832E-2,6.567955017E-3
7.817536290E1,-1.676654816E-2,1.320958138E-2,5.437374115E-3
7.821585030E1,-8.639812469E-3,-9.417533875E-5,3.775119781E-3
7.825634379E1,1.452589035E-2,1.252889633E-3,-3.033161163E-3
7.829684962E1,-2.073717117E-2,-9.727954865E-3,2.784729004E-3
7.833728988E1,-1.575374603E-2,1.478004456E-2,-1.910257339E-2
7.837777717E1,-2.846813202E-2,3.776931763E-2,-5.393505096E-3
7.841826457E1,-1.653194427E-3,5.835437775E-2,-1.442289352E-2
7.845871066E1,-7.195472717E-3,3.035283089E-2,-1.005220413E-2
7.849926400E1,7.192611694E-3,2.071571350E-2,1.266288757E-2
7.853976145E1,1.904296875E-2,2.645254135E-3,1.921415329E-2
7.858024889E1,5.278587341E-4,5.252361298E-4,2.741336823E-2
7.862072395E1,-4.069328308E-3,4.686594009E-3,-3.811359406E-3
7.866123290E1,-7.995128632E-3,1.439642906E-2,-7.958412170E-3
7.870169775E1,-1.386785507E-2,1.744651794E-2,-3.013610840E-4
7.874220296E1,-1.577615738E-2,-2.021074295E-3,-9.417533875E-4
7.878268103E1,-9.941577911E-3,-3.840684891E-3,7.344722748E-3
7.882319754E1,9.622097015E-3,-2.897024155E-3,4.218101501E-3
7.886363832E1,9.727478027E-3,1.973295212E-2,5.839347839E-3
7.890412379E1,-1.250743866E-3,1.325702667E-2,6.978511810E-3
7.894460770E1,4.297733307E-3,1.509380341E-2,-3.424644470E-3
7.898509520E1,-2.495718002E-2,1.046681404E-2,4.447937012E-3
7.902560738E1,2.912044525E-3,1.386284828E-2,6.532669067E-4
7.906610650E1,-1.053619385E-2,5.628824234E-3,6.831169128E-3
7.910661764E1,-3.985881805E-3,2.403688431E-2,-7.115364075E-3
7.914704478E1,-4.294872284E-3,2.265381813E-2,-5.307197571E-4
7.918749191E1,-1.760053635E-2,2.221727371E-2,-5.070209503E-3
7.922797910E1,3.759860992E-3,1.720833778E-2,-7.883548737E-3
7.926846634E1,-1.612663269E-3,6.422519684E-3,9.171485901E-3
7.930897040E1,1.205444336E-2,1.278162003E-3,2.696514130E-3
7.934950150E1,1.617431641E-3,8.643388748E-3,8.605003357E-3
7.938999994E1,-1.779556274E-2,5.455970764E-3,-3.452301025E-4
7.943046926E1,-2.076816559E-2,1.115155220E-2,-7.143020630E-3
7.947097863E1,4.511356354E-3,9.268999100E-3,-3.739833832E-3
7.951146436E1,5.069255829E-3,1.398468018E-2,-8.845329285E-4
7.955196613E1,-9.039878845E-3,2.398276329E-2,7.776260376E-3
7.959246681E1,-5.975723267E-3,8.962869644E-3,7.460117340E-3
7.963294676E1,9.513378143E-3,1.482820511E-2,3.046989441E-4
7.967341327E1,2.380371094E-3,2.168393135E-2,4.773139954E-4
7.971388353E1,1.049804688E-2,1.067304611E-2,7.886886597E-4
7.975438160E1,-3.998279572E-3,4.511117935E-3,8.223056793E-3
7.979488275E1,2.884387970E-3,-1.758575439E-3,4.107475281E-3
7.983538499E1,4.074096680E-3,3.605842590E-3,8.317947388E-3
7.987584249E1,-1.600742340E-2,8.280515671E-3,-8.205413818E-3
7.991634978E1,1.284599304E-3,2.412819862E-2,2.210140228E-3
7.995685170E1,-6.481647491E-3,2.472949028E-2,-1.147937775E-2
7.999728525E1,-4.716396332E-3,1.058602333E-2,2.171516418E-3
8.003776931E1,3.526210785E-3,7.003307343E-3,1.145315170E-2
8.007824957E1,1.958847046E-3,7.702589035E-3,6.806850433E-3
8.011874332E1,8.175849915E-3,2.426695824E-2,3.154754639E-3
8.015924092E1,-1.810741425E-2,1.983594894E-2,1.025199890E-3
8.019973191E1,-8.795261383E-3,2.877998352E-2,-6.465435028E-3
8.024021118E1,-1.230955124E-2,6.802558899E-3,-6.296634674E-3
8.028072983E1,-4.603862762E-3,6.819486618E-3,-9.162425995E-3
8.032121967E1,-1.075220108E-2,4.591464996E-3,3.584384918E-3
8.036170014E1,-6.204128265E-3,1.387333870E-2,1.298761368E-2
8.040220113E1,3.588199615E-3,8.361816406E-3,-7.915496826E-5
8.044264077E1,7.052421570E-4,1.762986183E-2,9.887218475E-3
8.048315639E1,4.468917847E-3,1.509118080E-2,1.297140121E-2
8.052364723E1,-5.910873413E-3,2.298355103E-3,1.275730133E-2
8.056416863E1,-9.240150452E-3,-4.551410675E-4,1.492357254E-2
8.060467092E1,6.499290466E-4,1.180481911E-2,1.023864746E-2
8.064512691E1,-4.076480865E-3,1.416635513E-2,1.900768280E-2
8.068557254E1,-1.094818115E-2,2.659702301E-2,4.126453400E-2
