Time (s),Acceleration x (m/s^2),Acceleration y (m/s^2),Acceleration z (m/s^2),Datetime
0.003014604,-4.577768803,4.989932537,6.115755558,2024-06-11 14:03:32.003015
0.022962208,-4.285545349,5.624628544,5.732305527,2024-06-11 14:03:32.022962
0.062962208,0.0,0.0,0.0,2024-06-11 14:03:32.062962
0.102962208,0.0,0.0,0.0,2024-06-11 14:03:32.102962
0.142962208,0.0,0.0,0.0,2024-06-11 14:03:32.142962
0.182962208,0.0,0.0,0.0,2024-06-11 14:03:32.182962
0.222962208,0.0,0.0,0.0,2024-06-11 14:03:32.222962
0.262962208,0.0,0.0,0.0,2024-06-11 14:03:32.262962
0.302962208,0.0,0.0,0.0,2024-06-11 14:03:32.302962
0.342962208,-2.603989124,5.471189022,7.243971348,2024-06-11 14:03:32.342962
0.382962208,-2.603989124,5.471189022,7.243971348,2024-06-11 14:03:32.382962
0.422962208,-2.603989124,5.471189022,7.243971348,2024-06-11 14:03:32.422962
0.462962208,-2.603989124,5.471189022,7.243971348,2024-06-11 14:03:32.462962
0.502962208,-2.603989124,5.471189022,7.243971348,2024-06-11 14:03:32.502962
0.542962208,-2.603989124,5.471189022,7.243971348,2024-06-11 14:03:32.542962
0.582962208,-2.887837887,5.102395058,5.149055004,2024-06-11 14:03:32.582962
0.622962208,-2.887837887,5.102395058,5.149055004,2024-06-11 14:03:32.622962
0.662962208,-2.887837887,5.102395058,5.149055004,2024-06-11 14:03:32.662962
0.702962208,-2.887837887,5.102395058,5.149055004,2024-06-11 14:03:32.702962
0.742962208,-2.887837887,5.102395058,5.149055004,2024-06-11 14:03:32.742962
0.782962208,-2.887837887,5.102395058,5.149055004,2024-06-11 14:03:32.782962
0.822962208,-2.887837887,5.102395058,5.149055004,2024-06-11 14:03:32.822962
0.862962208,-2.887837887,5.102395058,5.149055004,2024-06-11 14:03:32.862962
0.902962208,-2.887837887,5.102395058,5.149055004,2024-06-11 14:03:32.902962
0.942962208,-3.541676521,2.991925716,7.340880871,2024-06-11 14:03:32.942962
0.982962208,-3.541676521,2.991925716,7.340880871,2024-06-11 14:03:32.982962
1.022962208,-3.541676521,2.991925716,7.340880871,2024-06-11 14:03:33.022962
1.062962208,-3.541676521,2.991925716,7.340880871,2024-06-11 14:03:33.062962
1.102962208,-3.541676521,2.991925716,7.340880871,2024-06-11 14:03:33.102962
1.142962208,-3.541676521,2.991925716,7.340880871,2024-06-11 14:03:33.142962
1.182962208,1.595414519,-5.375475883,4.836492538,2024-06-11 14:03:33.182962
1.182962208,1.595414519,-5.375475883,4.836492538,2024-06-11 14:03:33.182962
1.262962208,1.595414519,-5.375475883,4.836492538,2024-06-11 14:03:33.262962
1.302962208,1.595414519,-5.375475883,4.836492538,2024-06-11 14:03:33.302962
1.342962208,-13.04477215,-15.89043617,11.46969604,2024-06-11 14:03:33.342962
1.382962208,-13.04477215,-15.89043617,11.46969604,2024-06-11 14:03:33.382962
1.422962208,-13.04477215,-15.89043617,11.46969604,2024-06-11 14:03:33.422962
1.462962208,-13.04477215,-15.89043617,11.46969604,2024-06-11 14:03:33.462962
1.502962208,-13.04477215,-15.89043617,11.46969604,2024-06-11 14:03:33.502962
1.542962208,-13.04477215,-15.89043617,11.46969604,2024-06-11 14:03:33.542962
1.582962208,-15.82941914,-8.871688843,5.786443233,2024-06-11 14:03:33.582962
1.622962208,-15.82941914,-8.871688843,5.786443233,2024-06-11 14:03:33.622962
1.662962208,-15.82941914,-8.871688843,5.786443233,2024-06-11 14:03:33.662962
1.702962208,-15.82941914,-8.871688843,5.786443233,2024-06-11 14:03:33.702962
1.742962208,-15.82941914,-8.871688843,5.786443233,2024-06-11 14:03:33.742962
1.782962208,-15.82941914,-8.871688843,5.786443233,2024-06-11 14:03:33.782962
1.822962208,-15.82941914,-8.871688843,5.786443233,2024-06-11 14:03:33.822962
1.862962208,-5.254638672,-12.24347496,-8.896813393,2024-06-11 14:03:33.862962
1.902962208,-5.254638672,-12.24347496,-8.896813393,2024-06-11 14:03:33.902962
1.942962208,-5.254638672,-12.24347496,-8.896813393,2024-06-11 14:03:33.942962
1.982962208,-5.254638672,-12.24347496,-8.896813393,2024-06-11 14:03:33.982962
2.022962208,-5.254638672,-12.24347496,-8.896813393,2024-06-11 14:03:34.022962
2.062962208,-5.254638672,-12.24347496,-8.896813393,2024-06-11 14:03:34.062962
2.102962208,-5.254638672,-12.24347496,-8.896813393,2024-06-11 14:03:34.102962
2.142962208,-5.254638672,-12.24347496,-8.896813393,2024-06-11 14:03:34.142962
2.182962208,-5.254638672,-12.24347496,-8.896813393,2024-06-11 14:03:34.182962
2.222962208,-5.254638672,-12.24347496,-8.896813393,2024-06-11 14:03:34.222962
2.262962208,-5.254638672,-12.24347496,-8.896813393,2024-06-11 14:03:34.262962
2.302962208,-5.254638672,-12.24347496,-8.896813393,2024-06-11 14:03:34.302962
2.342962208,4.491627216,-15.52762413,0.5078766346,2024-06-11 14:03:34.342962
2.382962208,4.491627216,-15.52762413,0.5078766346,2024-06-11 14:03:34.382962
2.422962208,4.491627216,-15.52762413,0.5078766346,2024-06-11 14:03:34.422962
2.462962208,4.491627216,-15.52762413,0.5078766346,2024-06-11 14:03:34.462962
2.502962208,4.491627216,-15.52762413,0.5078766346,2024-06-11 14:03:34.502962
2.542962208,4.491627216,-15.52762413,0.5078766346,2024-06-11 14:03:34.542962
2.582962208,-21.42413712,-11.20977592,-0.2527419031,2024-06-11 14:03:34.582962
2.622962208,-21.42413712,-11.20977592,-0.2527419031,2024-06-11 14:03:34.622962
2.662962208,-6.063113689,-11.10538864,-6.827321053,2024-06-11 14:03:34.662962
2.662962208,-6.063113689,-11.10538864,-6.827321053,2024-06-11 14:03:34.662962
2.742962208,-0.05264209956,-6.437889099,5.983851433,2024-06-11 14:03:34.742962
2.782962208,-0.05264209956,-6.437889099,5.983851433,2024-06-11 14:03:34.782962
2.822962208,-0.05264209956,-6.437889099,5.983851433,2024-06-11 14:03:34.822962
2.862962208,-0.05264209956,-6.437889099,5.983851433,2024-06-11 14:03:34.862962
2.902962208,-0.05264209956,-6.437889099,5.983851433,2024-06-11 14:03:34.902962
2.942962208,-0.05264209956,-6.437889099,5.983851433,2024-06-11 14:03:34.942962
2.982962208,-0.05264209956,-6.437889099,5.983851433,2024-06-11 14:03:34.982962
3.022962208,-0.05264209956,-6.437889099,5.983851433,2024-06-11 14:03:35.022962
3.062962208,-0.05264209956,-6.437889099,5.983851433,2024-06-11 14:03:35.062962
3.102962208,-0.6550351977,-4.405186653,-5.478367329,2024-06-11 14:03:35.102962
3.142962208,-0.6550351977,-4.405186653,-5.478367329,2024-06-11 14:03:35.142962
3.182962208,-0.6550351977,-4.405186653,-5.478367329,2024-06-11 14:03:35.182962
3.222962208,-0.6550351977,-4.405186653,-5.478367329,2024-06-11 14:03:35.222962
3.262962208,-0.6550351977,-4.405186653,-5.478367329,2024-06-11 14:03:35.262962
3.302962208,-0.6550351977,-4.405186653,-5.478367329,2024-06-11 14:03:35.302962
3.342962208,-0.6550351977,-4.405186653,-5.478367329,2024-06-11 14:03:35.342962
3.382962208,-0.6550351977,-4.405186653,-5.478367329,2024-06-11 14:03:35.382962
3.422962208,-0.6550351977,-4.405186653,-5.478367329,2024-06-11 14:03:35.422962
3.462962208,-3.882055521,-9.336494446,-3.285345554,2024-06-11 14:03:35.462962
3.502962208,-3.882055521,-9.336494446,-3.285345554,2024-06-11 14:03:35.502962
3.542962208,-3.882055521,-9.336494446,-3.285345554,2024-06-11 14:03:35.542962
3.582962208,-3.882055521,-9.336494446,-3.285345554,2024-06-11 14:03:35.582962
3.622962208,-3.882055521,-9.336494446,-3.285345554,2024-06-11 14:03:35.622962
3.662962208,-3.882055521,-9.336494446,-3.285345554,2024-06-11 14:03:35.662962
3.702962208,-3.882055521,-9.336494446,-3.285345554,2024-06-11 14:03:35.702962
3.742962208,-3.882055521,-9.336494446,-3.285345554,2024-06-11 14:03:35.742962
3.782962208,-3.882055521,-9.336494446,-3.285345554,2024-06-11 14:03:35.782962
3.822962208,-3.882055521,-9.336494446,-3.285345554,2024-06-11 14:03:35.822962
3.862962208,-3.882055521,-9.336494446,-3.285345554,2024-06-11 14:03:35.862962
3.902962208,-3.882055521,-9.336494446,-3.285345554,2024-06-11 14:03:35.902962
3.942962208,-3.882055521,-9.336494446,-3.285345554,2024-06-11 14:03:35.942962
3.982962208,-3.882055521,-9.336494446,-3.285345554,2024-06-11 14:03:35.982962
4.022962208,-3.882055521,-9.336494446,-3.285345554,2024-06-11 14:03:36.022962
4.062962208,-3.882055521,-9.336494446,-3.285345554,2024-06-11 14:03:36.062962
4.102962208,-3.882055521,-9.336494446,-3.285345554,2024-06-11 14:03:36.102962
4.142962208,-3.882055521,-9.336494446,-3.285345554,2024-06-11 14:03:36.142962
4.182962208,-3.882055521,-9.336494446,-3.285345554,2024-06-11 14:03:36.182962
4.222962208,-3.882055521,-9.336494446,-3.285345554,2024-06-11 14:03:36.222962
4.262962208,-3.882055521,-9.336494446,-3.285345554,2024-06-11 14:03:36.262962
4.302962208,-3.882055521,-9.336494446,-3.285345554,2024-06-11 14:03:36.302962
4.342962208,-3.882055521,-9.336494446,-3.285345554,2024-06-11 14:03:36.342962
4.382962208,2.296212435,-9.353244781,2.037488461,2024-06-11 14:03:36.382962
4.422962208,2.296212435,-9.353244781,2.037488461,2024-06-11 14:03:36.422962
4.462962208,2.296212435,-9.353244781,2.037488461,2024-06-11 14:03:36.462962
4.502962208,2.296212435,-9.353244781,2.037488461,2024-06-11 14:03:36.502962
4.542962208,2.296212435,-9.353244781,2.037488461,2024-06-11 14:03:36.542962
4.582962208,2.833999395,-4.735994339,2.966800928,2024-06-11 14:03:36.582962
4.622962208,2.833999395,-4.735994339,2.966800928,2024-06-11 14:03:36.622962
4.662962208,2.833999395,-4.735994339,2.966800928,2024-06-11 14:03:36.662962
4.702962208,2.833999395,-4.735994339,2.966800928,2024-06-11 14:03:36.702962
4.742962208,2.833999395,-4.735994339,2.966800928,2024-06-11 14:03:36.742962
4.782962208,2.833999395,-4.735994339,2.966800928,2024-06-11 14:03:36.782962
4.822962208,2.833999395,-4.735994339,2.966800928,2024-06-11 14:03:36.822962
4.862962208,2.833999395,-4.735994339,2.966800928,2024-06-11 14:03:36.862962
4.902962208,2.833999395,-4.735994339,2.966800928,2024-06-11 14:03:36.902962
4.942962208,2.833999395,-4.735994339,2.966800928,2024-06-11 14:03:36.942962
4.982962208,2.833999395,-4.735994339,2.966800928,2024-06-11 14:03:36.982962
5.022962208,2.833999395,-4.735994339,2.966800928,2024-06-11 14:03:37.022962
5.062962208,2.833999395,-4.735994339,2.966800928,2024-06-11 14:03:37.062962
5.102962208,2.833999395,-4.735994339,2.966800928,2024-06-11 14:03:37.102962
5.142962208,2.833999395,-4.735994339,2.966800928,2024-06-11 14:03:37.142962
5.182962208,2.833999395,-4.735994339,2.966800928,2024-06-11 14:03:37.182962
5.222962208,2.833999395,-4.735994339,2.966800928,2024-06-11 14:03:37.222962
5.262962208,-4.340580463,-12.24586773,-5.648557186,2024-06-11 14:03:37.262962
5.302962208,-4.340580463,-12.24586773,-5.648557186,2024-06-11 14:03:37.302962
5.342962208,17.55554199,-8.985647202,3.349054337,2024-06-11 14:03:37.342962
5.382962208,17.55554199,-8.985647202,3.349054337,2024-06-11 14:03:37.382962
5.422962208,17.55554199,-8.985647202,3.349054337,2024-06-11 14:03:37.422962
5.462962208,17.55554199,-8.985647202,3.349054337,2024-06-11 14:03:37.462962
5.502962208,17.55554199,-8.985647202,3.349054337,2024-06-11 14:03:37.502962
5.542962208,17.55554199,-8.985647202,3.349054337,2024-06-11 14:03:37.542962
5.582962208,17.55554199,-8.985647202,3.349054337,2024-06-11 14:03:37.582962
5.622962208,17.55554199,-8.985647202,3.349054337,2024-06-11 14:03:37.622962
5.662962208,17.55554199,-8.985647202,3.349054337,2024-06-11 14:03:37.662962
5.702962208,17.55554199,-8.985647202,3.349054337,2024-06-11 14:03:37.702962
5.742962208,17.55554199,-8.985647202,3.349054337,2024-06-11 14:03:37.742962
5.782962208,17.55554199,-8.985647202,3.349054337,2024-06-11 14:03:37.782962
5.822962208,17.55554199,-8.985647202,3.349054337,2024-06-11 14:03:37.822962
5.862962208,17.55554199,-8.985647202,3.349054337,2024-06-11 14:03:37.862962
5.902962208,17.55554199,-8.985647202,3.349054337,2024-06-11 14:03:37.902962
5.942962208,17.55554199,-8.985647202,3.349054337,2024-06-11 14:03:37.942962
5.982962208,17.55554199,-8.985647202,3.349054337,2024-06-11 14:03:37.982962
6.022962208,8.309973717,-4.176671982,-2.227717876,2024-06-11 14:03:38.022962
6.062962208,6.563811779,-4.637589455,-2.23130703,2024-06-11 14:03:38.062962
6.102962208,6.563811779,-4.637589455,-2.23130703,2024-06-11 14:03:38.102962
6.142962208,6.563811779,-4.637589455,-2.23130703,2024-06-11 14:03:38.142962
6.182962208,6.563811779,-4.637589455,-2.23130703,2024-06-11 14:03:38.182962
6.222962208,6.998407841,-7.383054256,2.08534503,2024-06-11 14:03:38.222962
6.262962208,6.998407841,-7.383054256,2.08534503,2024-06-11 14:03:38.262962
6.302962208,6.998407841,-7.383054256,2.08534503,2024-06-11 14:03:38.302962
6.342962208,5.395814896,-10.40608692,-0.7247261405,2024-06-11 14:03:38.342962
6.382962208,5.395814896,-10.40608692,-0.7247261405,2024-06-11 14:03:38.382962
6.422962208,5.395814896,-10.40608692,-0.7247261405,2024-06-11 14:03:38.422962
6.462962208,5.395814896,-10.40608692,-0.7247261405,2024-06-11 14:03:38.462962
6.502962208,5.395814896,-10.40608692,-0.7247261405,2024-06-11 14:03:38.502962
6.542962208,5.395814896,-10.40608692,-0.7247261405,2024-06-11 14:03:38.542962
6.582962208,5.395814896,-10.40608692,-0.7247261405,2024-06-11 14:03:38.582962
6.622962208,5.395814896,-10.40608692,-0.7247261405,2024-06-11 14:03:38.622962
6.662962208,5.395814896,-10.40608692,-0.7247261405,2024-06-11 14:03:38.662962
6.702962208,5.395814896,-10.40608692,-0.7247261405,2024-06-11 14:03:38.702962
6.742962208,5.395814896,-10.40608692,-0.7247261405,2024-06-11 14:03:38.742962
6.782962208,5.395814896,-10.40608692,-0.7247261405,2024-06-11 14:03:38.782962
6.822962208,5.395814896,-10.40608692,-0.7247261405,2024-06-11 14:03:38.822962
6.862962208,5.395814896,-10.40608692,-0.7247261405,2024-06-11 14:03:38.862962
6.902962208,5.395814896,-10.40608692,-0.7247261405,2024-06-11 14:03:38.902962
6.942962208,5.395814896,-10.40608692,-0.7247261405,2024-06-11 14:03:38.942962
6.982962208,5.395814896,-10.40608692,-0.7247261405,2024-06-11 14:03:38.982962
7.022962208,5.395814896,-10.40608692,-0.7247261405,2024-06-11 14:03:39.022962
7.062962208,5.395814896,-10.40608692,-0.7247261405,2024-06-11 14:03:39.062962
7.102962208,5.395814896,-10.40608692,-0.7247261405,2024-06-11 14:03:39.102962
7.142962208,5.395814896,-10.40608692,-0.7247261405,2024-06-11 14:03:39.142962
7.182962208,5.395814896,-10.40608692,-0.7247261405,2024-06-11 14:03:39.182962
7.222962208,5.395814896,-10.40608692,-0.7247261405,2024-06-11 14:03:39.222962
7.262962208,5.395814896,-10.40608692,-0.7247261405,2024-06-11 14:03:39.262962
7.302962208,5.395814896,-10.40608692,-0.7247261405,2024-06-11 14:03:39.302962
7.342962208,-3.756133318,-7.628617764,0.3556332588,2024-06-11 14:03:39.342962
7.382962208,-3.756133318,-7.628617764,0.3556332588,2024-06-11 14:03:39.382962
7.422962208,-3.756133318,-7.628617764,0.3556332588,2024-06-11 14:03:39.422962
7.462962208,-3.756133318,-7.628617764,0.3556332588,2024-06-11 14:03:39.462962
7.502962208,-3.756133318,-7.628617764,0.3556332588,2024-06-11 14:03:39.502962
7.542962208,-3.756133318,-7.628617764,0.3556332588,2024-06-11 14:03:39.542962
7.582962208,-3.756133318,-7.628617764,0.3556332588,2024-06-11 14:03:39.582962
7.622962208,-3.756133318,-7.628617764,0.3556332588,2024-06-11 14:03:39.622962
7.662962208,-3.756133318,-7.628617764,0.3556332588,2024-06-11 14:03:39.662962
7.702962208,-3.756133318,-7.628617764,0.3556332588,2024-06-11 14:03:39.702962
7.742962208,3.636492252,-8.414061546,-0.3927220106,2024-06-11 14:03:39.742962
7.782962208,3.636492252,-8.414061546,-0.3927220106,2024-06-11 14:03:39.782962
7.822962208,3.636492252,-8.414061546,-0.3927220106,2024-06-11 14:03:39.822962
7.862962208,3.636492252,-8.414061546,-0.3927220106,2024-06-11 14:03:39.862962
7.902962208,3.636492252,-8.414061546,-0.3927220106,2024-06-11 14:03:39.902962
7.942962208,3.636492252,-8.414061546,-0.3927220106,2024-06-11 14:03:39.942962
7.982962208,3.636492252,-8.414061546,-0.3927220106,2024-06-11 14:03:39.982962
8.022962208,3.636492252,-8.414061546,-0.3927220106,2024-06-11 14:03:40.022962
8.062962208,3.636492252,-8.414061546,-0.3927220106,2024-06-11 14:03:40.062962
8.102962208,-2.623131752,-9.966405869,-0.1737787426,2024-06-11 14:03:40.102962
8.142962208,-2.623131752,-9.966405869,-0.1737787426,2024-06-11 14:03:40.142962
8.182962208,-2.623131752,-9.966405869,-0.1737787426,2024-06-11 14:03:40.182962
8.222962208,-2.623131752,-9.966405869,-0.1737787426,2024-06-11 14:03:40.222962
8.262962208,-2.623131752,-9.966405869,-0.1737787426,2024-06-11 14:03:40.262962
8.302962208,-2.623131752,-9.966405869,-0.1737787426,2024-06-11 14:03:40.302962
8.342962208,3.132204771,-11.61326599,-3.733401537,2024-06-11 14:03:40.342962
8.382962208,3.132204771,-11.61326599,-3.733401537,2024-06-11 14:03:40.382962
8.422962208,3.132204771,-11.61326599,-3.733401537,2024-06-11 14:03:40.422962
8.462962208,3.132204771,-11.61326599,-3.733401537,2024-06-11 14:03:40.462962
8.502962208,3.132204771,-11.61326599,-3.733401537,2024-06-11 14:03:40.502962
8.542962208,3.132204771,-11.61326599,-3.733401537,2024-06-11 14:03:40.542962
8.582962208,1.341476202,-9.116056442,-0.7163512707,2024-06-11 14:03:40.582962
8.622962208,1.341476202,-9.116056442,-0.7163512707,2024-06-11 14:03:40.622962
8.662962208,1.341476202,-9.116056442,-0.7163512707,2024-06-11 14:03:40.662962
8.702962208,1.341476202,-9.116056442,-0.7163512707,2024-06-11 14:03:40.702962
8.742962208,1.341476202,-9.116056442,-0.7163512707,2024-06-11 14:03:40.742962
8.782962208,1.341476202,-9.116056442,-0.7163512707,2024-06-11 14:03:40.782962
8.822962208,1.341476202,-9.116056442,-0.7163512707,2024-06-11 14:03:40.822962
8.862962208,1.341476202,-9.116056442,-0.7163512707,2024-06-11 14:03:40.862962
8.902962208,1.341476202,-9.116056442,-0.7163512707,2024-06-11 14:03:40.902962
8.942962208,1.341476202,-9.116056442,-0.7163512707,2024-06-11 14:03:40.942962
8.982962208,1.341476202,-9.116056442,-0.7163512707,2024-06-11 14:03:40.982962
9.022962208,1.341476202,-9.116056442,-0.7163512707,2024-06-11 14:03:41.022962
9.062962208,1.341476202,-9.116056442,-0.7163512707,2024-06-11 14:03:41.062962
9.102962208,1.341476202,-9.116056442,-0.7163512707,2024-06-11 14:03:41.102962
9.142962208,1.341476202,-9.116056442,-0.7163512707,2024-06-11 14:03:41.142962
9.182962208,1.341476202,-9.116056442,-0.7163512707,2024-06-11 14:03:41.182962
9.222962208,1.341476202,-9.116056442,-0.7163512707,2024-06-11 14:03:41.222962
9.262962208,1.341476202,-9.116056442,-0.7163512707,2024-06-11 14:03:41.262962
9.302962208,1.341476202,-9.116056442,-0.7163512707,2024-06-11 14:03:41.302962
9.342962208,1.341476202,-9.116056442,-0.7163512707,2024-06-11 14:03:41.342962
9.382962208,1.341476202,-9.116056442,-0.7163512707,2024-06-11 14:03:41.382962
9.422962208,1.341476202,-9.116056442,-0.7163512707,2024-06-11 14:03:41.422962
9.462962208,-4.173082829,-11.36889839,2.126022816,2024-06-11 14:03:41.462962
9.502962208,-4.173082829,-11.36889839,2.126022816,2024-06-11 14:03:41.502962
9.542962208,-4.173082829,-11.36889839,2.126022816,2024-06-11 14:03:41.542962
9.582962208,0.2276172489,-11.03240776,4.860421181,2024-06-11 14:03:41.582962
9.622962208,0.2276172489,-11.03240776,4.860421181,2024-06-11 14:03:41.622962
9.662962208,0.2276172489,-11.03240776,4.860421181,2024-06-11 14:03:41.662962
9.702962208,0.2276172489,-11.03240776,4.860421181,2024-06-11 14:03:41.702962
9.742962208,0.2276172489,-11.03240776,4.860421181,2024-06-11 14:03:41.742962
9.782962208,0.2276172489,-11.03240776,4.860421181,2024-06-11 14:03:41.782962
9.822962208,0.2276172489,-11.03240776,4.860421181,2024-06-11 14:03:41.822962
9.862962208,0.2276172489,-11.03240776,4.860421181,2024-06-11 14:03:41.862962
9.902962208,0.2276172489,-11.03240776,4.860421181,2024-06-11 14:03:41.902962
9.942962208,0.2276172489,-11.03240776,4.860421181,2024-06-11 14:03:41.942962
9.982962208,0.2276172489,-11.03240776,4.860421181,2024-06-11 14:03:41.982962
10.02296221,0.2276172489,-11.03240776,4.860421181,2024-06-11 14:03:42.022962
10.06296221,0.2276172489,-11.03240776,4.860421181,2024-06-11 14:03:42.062962
10.10296221,0.2276172489,-11.03240776,4.860421181,2024-06-11 14:03:42.102962
10.14296221,0.2276172489,-11.03240776,4.860421181,2024-06-11 14:03:42.142962
10.18296221,0.2276172489,-11.03240776,4.860421181,2024-06-11 14:03:42.182962
10.22296221,0.2276172489,-11.03240776,4.860421181,2024-06-11 14:03:42.222962
10.26296221,0.2276172489,-11.03240776,4.860421181,2024-06-11 14:03:42.262962
10.30296221,-5.391029358,-17.44636917,20.08744621,2024-06-11 14:03:42.302962
10.34296221,-3.381357431,-7.806882858,-5.239085197,2024-06-11 14:03:42.342962
10.38296221,-3.381357431,-7.806882858,-5.239085197,2024-06-11 14:03:42.382962
10.42296221,-3.381357431,-7.806882858,-5.239085197,2024-06-11 14:03:42.422962
10.46296221,-3.381357431,-7.806882858,-5.239085197,2024-06-11 14:03:42.462962
10.50296221,-3.381357431,-7.806882858,-5.239085197,2024-06-11 14:03:42.502962
10.54296221,-3.381357431,-7.806882858,-5.239085197,2024-06-11 14:03:42.542962
10.58296221,19.68634987,-14.25195122,14.08923912,2024-06-11 14:03:42.582962
10.62296221,19.68634987,-14.25195122,14.08923912,2024-06-11 14:03:42.622962
10.66296221,19.68634987,-14.25195122,14.08923912,2024-06-11 14:03:42.662962
10.70296221,19.68634987,-14.25195122,14.08923912,2024-06-11 14:03:42.702962
10.74296221,19.68634987,-14.25195122,14.08923912,2024-06-11 14:03:42.742962
10.78296221,19.68634987,-14.25195122,14.08923912,2024-06-11 14:03:42.782962
10.82296221,19.68634987,-14.25195122,14.08923912,2024-06-11 14:03:42.822962
10.86296221,19.68634987,-14.25195122,14.08923912,2024-06-11 14:03:42.862962
10.90296221,19.68634987,-14.25195122,14.08923912,2024-06-11 14:03:42.902962
10.94296221,19.68634987,-14.25195122,14.08923912,2024-06-11 14:03:42.942962
10.98296221,19.68634987,-14.25195122,14.08923912,2024-06-11 14:03:42.982962
11.02296221,19.68634987,-14.25195122,14.08923912,2024-06-11 14:03:43.022962
11.06296221,19.68634987,-14.25195122,14.08923912,2024-06-11 14:03:43.062962
11.10296221,19.68634987,-14.25195122,14.08923912,2024-06-11 14:03:43.102962
11.14296221,19.68634987,-14.25195122,14.08923912,2024-06-11 14:03:43.142962
11.18296221,0.7438687682,0.5916253924,0.2108674943,2024-06-11 14:03:43.182962
11.22296221,0.7438687682,0.5916253924,0.2108674943,2024-06-11 14:03:43.222962
11.26296221,0.7438687682,0.5916253924,0.2108674943,2024-06-11 14:03:43.262962
11.30296221,0.7438687682,0.5916253924,0.2108674943,2024-06-11 14:03:43.302962
11.34296221,-6.223432541,-26.60070992,-2.363211393,2024-06-11 14:03:43.342962
11.38296221,-6.223432541,-26.60070992,-2.363211393,2024-06-11 14:03:43.382962
11.42296221,-6.223432541,-26.60070992,-2.363211393,2024-06-11 14:03:43.422962
11.46296221,-6.223432541,-26.60070992,-2.363211393,2024-06-11 14:03:43.462962
11.50296221,-6.223432541,-26.60070992,-2.363211393,2024-06-11 14:03:43.502962
11.54296221,-6.223432541,-26.60070992,-2.363211393,2024-06-11 14:03:43.542962
11.58296221,7.953144073,-15.39362621,-6.706184387,2024-06-11 14:03:43.582962
11.62296221,7.953144073,-15.39362621,-6.706184387,2024-06-11 14:03:43.622962
11.66296221,7.953144073,-15.39362621,-6.706184387,2024-06-11 14:03:43.662962
11.70296221,7.953144073,-15.39362621,-6.706184387,2024-06-11 14:03:43.702962
11.74296221,7.953144073,-15.39362621,-6.706184387,2024-06-11 14:03:43.742962
11.78296221,7.953144073,-15.39362621,-6.706184387,2024-06-11 14:03:43.782962
11.82296221,-2.300997972,-7.718348503,-10.33430195,2024-06-11 14:03:43.822962
11.86296221,-1.545165181,-7.876275063,-1.194018483,2024-06-11 14:03:43.862962
11.90296221,-1.305583835,-5.38624382,-0.803689301,2024-06-11 14:03:43.902962
11.94296221,-1.305583835,-5.38624382,-0.803689301,2024-06-11 14:03:43.942962
11.98296221,-1.305583835,-5.38624382,-0.803689301,2024-06-11 14:03:43.982962
12.02296221,-1.305583835,-5.38624382,-0.803689301,2024-06-11 14:03:44.022962
12.06296221,-1.305583835,-5.38624382,-0.803689301,2024-06-11 14:03:44.062962
12.10296221,-1.305583835,-5.38624382,-0.803689301,2024-06-11 14:03:44.102962
12.14296221,-1.305583835,-5.38624382,-0.803689301,2024-06-11 14:03:44.142962
12.18296221,-1.305583835,-5.38624382,-0.803689301,2024-06-11 14:03:44.182962
12.22296221,-1.305583835,-5.38624382,-0.803689301,2024-06-11 14:03:44.222962
12.26296221,-1.305583835,-5.38624382,-0.803689301,2024-06-11 14:03:44.262962
12.30296221,-1.305583835,-5.38624382,-0.803689301,2024-06-11 14:03:44.302962
12.34296221,-3.447160006,-8.420043945,4.057928085,2024-06-11 14:03:44.342962
12.38296221,-3.447160006,-8.420043945,4.057928085,2024-06-11 14:03:44.382962
12.42296221,-3.447160006,-8.420043945,4.057928085,2024-06-11 14:03:44.422962
12.46296221,-3.447160006,-8.420043945,4.057928085,2024-06-11 14:03:44.462962
12.50296221,-3.447160006,-8.420043945,4.057928085,2024-06-11 14:03:44.502962
12.54296221,-3.447160006,-8.420043945,4.057928085,2024-06-11 14:03:44.542962
12.58296221,4.00887537,-13.43510056,4.944169998,2024-06-11 14:03:44.582962
12.62296221,4.00887537,-13.43510056,4.944169998,2024-06-11 14:03:44.622962
12.66296221,-1.249352574,-10.0082798,3.297309637,2024-06-11 14:03:44.662962
12.70296221,-4.056731701,-10.44437218,4.919044971,2024-06-11 14:03:44.702962
12.74296221,-4.056731701,-10.44437218,4.919044971,2024-06-11 14:03:44.742962
12.78296221,-4.056731701,-10.44437218,4.919044971,2024-06-11 14:03:44.782962
12.82296221,-4.056731701,-10.44437218,4.919044971,2024-06-11 14:03:44.822962
12.86296221,-4.056731701,-10.44437218,4.919044971,2024-06-11 14:03:44.862962
12.90296221,-4.056731701,-10.44437218,4.919044971,2024-06-11 14:03:44.902962
12.94296221,-4.056731701,-10.44437218,4.919044971,2024-06-11 14:03:44.942962
12.98296221,-4.056731701,-10.44437218,4.919044971,2024-06-11 14:03:44.982962
13.02296221,-4.056731701,-10.44437218,4.919044971,2024-06-11 14:03:45.022962
13.06296221,-4.056731701,-10.44437218,4.919044971,2024-06-11 14:03:45.062962
13.10296221,-0.6538388133,-9.537791252,-0.9678967595,2024-06-11 14:03:45.102962
13.14296221,-0.6538388133,-9.537791252,-0.9678967595,2024-06-11 14:03:45.142962
13.18296221,-0.6538388133,-9.537791252,-0.9678967595,2024-06-11 14:03:45.182962
13.22296221,-0.6538388133,-9.537791252,-0.9678967595,2024-06-11 14:03:45.222962
13.26296221,-0.6538388133,-9.537791252,-0.9678967595,2024-06-11 14:03:45.262962
13.30296221,-0.6538388133,-9.537791252,-0.9678967595,2024-06-11 14:03:45.302962
13.34296221,-0.6538388133,-9.537791252,-0.9678967595,2024-06-11 14:03:45.342962
13.38296221,-0.6538388133,-9.537791252,-0.9678967595,2024-06-11 14:03:45.382962
13.42296221,-0.6538388133,-9.537791252,-0.9678967595,2024-06-11 14:03:45.422962
13.46296221,-0.6538388133,-9.537791252,-0.9678967595,2024-06-11 14:03:45.462962
13.50296221,-0.6538388133,-9.537791252,-0.9678967595,2024-06-11 14:03:45.502962
13.54296221,-0.6538388133,-9.537791252,-0.9678967595,2024-06-11 14:03:45.542962
13.58296221,-3.575176239,-6.446264267,-0.560518682,2024-06-11 14:03:45.582962
13.62296221,-3.575176239,-6.446264267,-0.560518682,2024-06-11 14:03:45.622962
13.66296221,-3.575176239,-6.446264267,-0.560518682,2024-06-11 14:03:45.662962
13.70296221,-3.575176239,-6.446264267,-0.560518682,2024-06-11 14:03:45.702962
13.74296221,-3.575176239,-6.446264267,-0.560518682,2024-06-11 14:03:45.742962
13.78296221,-3.575176239,-6.446264267,-0.560518682,2024-06-11 14:03:45.782962
13.82296221,-3.575176239,-6.446264267,-0.560518682,2024-06-11 14:03:45.822962
13.86296221,-3.575176239,-6.446264267,-0.560518682,2024-06-11 14:03:45.862962
13.90296221,-3.575176239,-6.446264267,-0.560518682,2024-06-11 14:03:45.902962
13.94296221,-3.575176239,-6.446264267,-0.560518682,2024-06-11 14:03:45.942962
13.98296221,-3.575176239,-6.446264267,-0.560518682,2024-06-11 14:03:45.982962
14.02296221,-3.575176239,-6.446264267,-0.560518682,2024-06-11 14:03:46.022962
14.06296221,-3.575176239,-6.446264267,-0.560518682,2024-06-11 14:03:46.062962
14.10296221,-3.575176239,-6.446264267,-0.560518682,2024-06-11 14:03:46.102962
14.14296221,-3.575176239,-6.446264267,-0.560518682,2024-06-11 14:03:46.142962
14.18296221,-3.575176239,-6.446264267,-0.560518682,2024-06-11 14:03:46.182962
14.22296221,-3.575176239,-6.446264267,-0.560518682,2024-06-11 14:03:46.222962
14.26296221,-3.575176239,-6.446264267,-0.560518682,2024-06-11 14:03:46.262962
14.30296221,-3.575176239,-6.446264267,-0.560518682,2024-06-11 14:03:46.302962
14.34296221,-3.575176239,-6.446264267,-0.560518682,2024-06-11 14:03:46.342962
14.38296221,-3.575176239,-6.446264267,-0.560518682,2024-06-11 14:03:46.382962
14.42296221,-3.575176239,-6.446264267,-0.560518682,2024-06-11 14:03:46.422962
14.46296221,-3.575176239,-6.446264267,-0.560518682,2024-06-11 14:03:46.462962
14.50296221,-3.575176239,-6.446264267,-0.560518682,2024-06-11 14:03:46.502962
14.54296221,-3.575176239,-6.446264267,-0.560518682,2024-06-11 14:03:46.542962
14.58296221,-3.575176239,-6.446264267,-0.560518682,2024-06-11 14:03:46.582962
14.62296221,-3.575176239,-6.446264267,-0.560518682,2024-06-11 14:03:46.622962
14.66296221,2.030309916,-12.18006516,0.9738788009,2024-06-11 14:03:46.662962
14.70296221,0.7606185079,-10.90319538,2.790629387,2024-06-11 14:03:46.702962
14.74296221,-1.031306505,-9.096913338,2.680559635,2024-06-11 14:03:46.742962
14.78296221,-1.458724499,-9.346066475,6.48933506,2024-06-11 14:03:46.782962
14.82296221,1.168893814,-7.772187233,2.775076151,2024-06-11 14:03:46.822962
14.86296221,1.566700578,-4.907081127,-3.892823458,2024-06-11 14:03:46.862962
14.90296221,4.514358997,-8.736495018,2.14995122,2024-06-11 14:03:46.902962
14.94296221,0.4109672904,-12.53210926,14.26630783,2024-06-11 14:03:46.942962
14.98296221,-3.099901676,-8.191529274,1.679163337,2024-06-11 14:03:46.982962
15.02296221,-3.099901676,-8.191529274,1.679163337,2024-06-11 14:03:47.022962
15.06296221,-3.099901676,-8.191529274,1.679163337,2024-06-11 14:03:47.062962
15.10296221,-3.099901676,-8.191529274,1.679163337,2024-06-11 14:03:47.102962
15.14296221,-3.099901676,-8.191529274,1.679163337,2024-06-11 14:03:47.142962
15.18296221,-3.099901676,-8.191529274,1.679163337,2024-06-11 14:03:47.182962
15.22296221,-3.099901676,-8.191529274,1.679163337,2024-06-11 14:03:47.222962
15.26296221,-3.099901676,-8.191529274,1.679163337,2024-06-11 14:03:47.262962
15.30296221,-3.099901676,-8.191529274,1.679163337,2024-06-11 14:03:47.302962
15.34296221,-2.857927561,-8.348258972,-3.009871721,2024-06-11 14:03:47.342962
15.38296221,-2.857927561,-8.348258972,-3.009871721,2024-06-11 14:03:47.382962
15.42296221,-2.857927561,-8.348258972,-3.009871721,2024-06-11 14:03:47.422962
15.46296221,-2.857927561,-8.348258972,-3.009871721,2024-06-11 14:03:47.462962
15.50296221,-2.857927561,-8.348258972,-3.009871721,2024-06-11 14:03:47.502962
15.54296221,-2.857927561,-8.348258972,-3.009871721,2024-06-11 14:03:47.542962
15.58296221,7.521838188,-8.305188179,-11.16431236,2024-06-11 14:03:47.582962
15.62296221,7.521838188,-8.305188179,-11.16431236,2024-06-11 14:03:47.622962
15.66296221,7.521838188,-8.305188179,-11.16431236,2024-06-11 14:03:47.662962
15.70296221,7.521838188,-8.305188179,-11.16431236,2024-06-11 14:03:47.702962
15.74296221,7.521838188,-8.305188179,-11.16431236,2024-06-11 14:03:47.742962
15.78296221,7.521838188,-8.305188179,-11.16431236,2024-06-11 14:03:47.782962
15.82296221,7.521838188,-8.305188179,-11.16431236,2024-06-11 14:03:47.822962
15.86296221,7.521838188,-8.305188179,-11.16431236,2024-06-11 14:03:47.862962
15.90296221,7.521838188,-8.305188179,-11.16431236,2024-06-11 14:03:47.902962
15.94296221,7.521838188,-8.305188179,-11.16431236,2024-06-11 14:03:47.942962
15.98296221,7.521838188,-8.305188179,-11.16431236,2024-06-11 14:03:47.982962
16.02296221,7.521838188,-8.305188179,-11.16431236,2024-06-11 14:03:48.022962
16.06296221,7.521838188,-8.305188179,-11.16431236,2024-06-11 14:03:48.062962
16.10296221,7.521838188,-8.305188179,-11.16431236,2024-06-11 14:03:48.102962
16.14296221,7.521838188,-8.305188179,-11.16431236,2024-06-11 14:03:48.142962
16.18296221,7.521838188,-8.305188179,-11.16431236,2024-06-11 14:03:48.182962
16.22296221,7.521838188,-8.305188179,-11.16431236,2024-06-11 14:03:48.222962
16.26296221,7.521838188,-8.305188179,-11.16431236,2024-06-11 14:03:48.262962
16.30296221,7.521838188,-8.305188179,-11.16431236,2024-06-11 14:03:48.302962
16.34296221,3.668795347,-6.764808655,3.907180309,2024-06-11 14:03:48.342962
16.38296221,-0.05024927482,-6.864409924,4.149154663,2024-06-11 14:03:48.382962
16.42296221,1.861316919,-9.69093132,7.233203888,2024-06-11 14:03:48.422962
16.46296221,3.027817965,-9.730413437,9.250352859,2024-06-11 14:03:48.462962
16.50296221,2.845963478,-7.179365158,5.45085001,2024-06-11 14:03:48.502962
16.54296221,2.740380049,-6.996015072,5.391029358,2024-06-11 14:03:48.542962
16.58296221,1.401296735,-7.436892986,5.092823982,2024-06-11 14:03:48.582962
16.62296221,1.621735573,-7.166204929,5.472385406,2024-06-11 14:03:48.622962
16.66296221,1.183250785,-7.923233986,5.834300041,2024-06-11 14:03:48.662962
16.70296221,1.183250785,-7.923233986,5.834300041,2024-06-11 14:03:48.702962
16.74296221,1.183250785,-7.923233986,5.834300041,2024-06-11 14:03:48.742962
16.78296221,1.183250785,-7.923233986,5.834300041,2024-06-11 14:03:48.782962
16.82296221,1.183250785,-7.923233986,5.834300041,2024-06-11 14:03:48.822962
16.86296221,1.183250785,-7.923233986,5.834300041,2024-06-11 14:03:48.862962
16.90296221,1.183250785,-7.923233986,5.834300041,2024-06-11 14:03:48.902962
16.94296221,1.183250785,-7.923233986,5.834300041,2024-06-11 14:03:48.942962
16.98296221,1.183250785,-7.923233986,5.834300041,2024-06-11 14:03:48.982962
17.02296221,1.183250785,-7.923233986,5.834300041,2024-06-11 14:03:49.022962
17.06296221,1.183250785,-7.923233986,5.834300041,2024-06-11 14:03:49.062962
17.10296221,1.183250785,-7.923233986,5.834300041,2024-06-11 14:03:49.102962
17.14296221,1.183250785,-7.923233986,5.834300041,2024-06-11 14:03:49.142962
17.18296221,1.183250785,-7.923233986,5.834300041,2024-06-11 14:03:49.182962
17.22296221,1.183250785,-7.923233986,5.834300041,2024-06-11 14:03:49.222962
17.26296221,1.183250785,-7.923233986,5.834300041,2024-06-11 14:03:49.262962
17.30296221,1.183250785,-7.923233986,5.834300041,2024-06-11 14:03:49.302962
17.34296221,1.183250785,-7.923233986,5.834300041,2024-06-11 14:03:49.342962
17.38296221,1.183250785,-7.923233986,5.834300041,2024-06-11 14:03:49.382962
17.42296221,1.183250785,-7.923233986,5.834300041,2024-06-11 14:03:49.422962
17.46296221,1.183250785,-7.923233986,5.834300041,2024-06-11 14:03:49.462962
17.50296221,1.183250785,-7.923233986,5.834300041,2024-06-11 14:03:49.502962
17.54296221,1.183250785,-7.923233986,5.834300041,2024-06-11 14:03:49.542962
17.58296221,1.918744683,-1.130608678,8.213064194,2024-06-11 14:03:49.582962
17.62296221,1.918744683,-1.130608678,8.213064194,2024-06-11 14:03:49.622962
17.66296221,1.918744683,-1.130608678,8.213064194,2024-06-11 14:03:49.662962
17.70296221,1.918744683,-1.130608678,8.213064194,2024-06-11 14:03:49.702962
17.74296221,1.918744683,-1.130608678,8.213064194,2024-06-11 14:03:49.742962
17.78296221,1.918744683,-1.130608678,8.213064194,2024-06-11 14:03:49.782962
17.82296221,1.918744683,-1.130608678,8.213064194,2024-06-11 14:03:49.822962
17.86296221,1.918744683,-1.130608678,8.213064194,2024-06-11 14:03:49.862962
17.90296221,1.918744683,-1.130608678,8.213064194,2024-06-11 14:03:49.902962
17.94296221,1.918744683,-1.130608678,8.213064194,2024-06-11 14:03:49.942962
17.98296221,1.918744683,-1.130608678,8.213064194,2024-06-11 14:03:49.982962
18.02296221,-1.230209947,-23.31656075,10.43480015,2024-06-11 14:03:50.022962
18.06296221,-1.820638895,-19.02024841,7.436892986,2024-06-11 14:03:50.062962
18.10296221,1.698305845,-13.66391468,8.174779892,2024-06-11 14:03:50.102962
18.14296221,8.040482521,-3.925126553,9.968798637,2024-06-11 14:03:50.142962
18.18296221,1.671984792,-0.4145565331,2.305783749,2024-06-11 14:03:50.182962
18.22296221,1.11984098,-0.03948157281,0.152243346,2024-06-11 14:03:50.222962
18.26296221,1.762014747,-5.192125797,-1.249352574,2024-06-11 14:03:50.262962
18.30296221,5.205286503,-27.86441994,-8.365009308,2024-06-11 14:03:50.302962
18.34296221,4.970789909,-34.28795242,-11.63240814,2024-06-11 14:03:50.342962
18.38296221,4.970789909,-34.28795242,-11.63240814,2024-06-11 14:03:50.382962
18.42296221,4.970789909,-34.28795242,-11.63240814,2024-06-11 14:03:50.422962
18.46296221,4.970789909,-34.28795242,-11.63240814,2024-06-11 14:03:50.462962
18.50296221,4.970789909,-34.28795242,-11.63240814,2024-06-11 14:03:50.502962
18.54296221,4.970789909,-34.28795242,-11.63240814,2024-06-11 14:03:50.542962
18.58296221,4.970789909,-34.28795242,-11.63240814,2024-06-11 14:03:50.582962
18.62296221,4.970789909,-34.28795242,-11.63240814,2024-06-11 14:03:50.622962
18.66296221,4.970789909,-34.28795242,-11.63240814,2024-06-11 14:03:50.662962
18.70296221,4.970789909,-34.28795242,-11.63240814,2024-06-11 14:03:50.702962
18.74296221,4.970789909,-34.28795242,-11.63240814,2024-06-11 14:03:50.742962
18.78296221,4.970789909,-34.28795242,-11.63240814,2024-06-11 14:03:50.782962
18.82296221,4.970789909,-34.28795242,-11.63240814,2024-06-11 14:03:50.822962
18.86296221,4.970789909,-34.28795242,-11.63240814,2024-06-11 14:03:50.862962
18.90296221,4.970789909,-34.28795242,-11.63240814,2024-06-11 14:03:50.902962
18.94296221,4.970789909,-34.28795242,-11.63240814,2024-06-11 14:03:50.942962
18.98296221,4.970789909,-34.28795242,-11.63240814,2024-06-11 14:03:50.982962
19.02296221,4.970789909,-34.28795242,-11.63240814,2024-06-11 14:03:51.022962
19.06296221,4.970789909,-34.28795242,-11.63240814,2024-06-11 14:03:51.062962
19.10296221,4.970789909,-34.28795242,-11.63240814,2024-06-11 14:03:51.102962
19.14296221,4.970789909,-34.28795242,-11.63240814,2024-06-11 14:03:51.142962
19.18296221,4.970789909,-34.28795242,-11.63240814,2024-06-11 14:03:51.182962
19.22296221,4.970789909,-34.28795242,-11.63240814,2024-06-11 14:03:51.222962
19.26296221,4.970789909,-34.28795242,-11.63240814,2024-06-11 14:03:51.262962
19.30296221,4.970789909,-34.28795242,-11.63240814,2024-06-11 14:03:51.302962
19.34296221,4.970789909,-34.28795242,-11.63240814,2024-06-11 14:03:51.342962
19.38296221,4.970789909,-34.28795242,-11.63240814,2024-06-11 14:03:51.382962
19.42296221,4.970789909,-34.28795242,-11.63240814,2024-06-11 14:03:51.422962
19.46296221,4.970789909,-34.28795242,-11.63240814,2024-06-11 14:03:51.462962
19.50296221,4.970789909,-34.28795242,-11.63240814,2024-06-11 14:03:51.502962
19.54296221,4.970789909,-34.28795242,-11.63240814,2024-06-11 14:03:51.542962
19.58296221,4.970789909,-34.28795242,-11.63240814,2024-06-11 14:03:51.582962
19.62296221,4.970789909,-34.28795242,-11.63240814,2024-06-11 14:03:51.622962
19.66296221,4.970789909,-34.28795242,-11.63240814,2024-06-11 14:03:51.662962
19.70296221,-0.01674975827,-12.92722416,9.075378418,2024-06-11 14:03:51.702962
19.74296221,1.885245085,-6.712166786,3.058924675,2024-06-11 14:03:51.742962
19.78296221,3.62452817,-7.024729252,1.622931957,2024-06-11 14:03:51.782962
19.82296221,6.984051228,-7.822436333,5.095216751,2024-06-11 14:03:51.822962
19.86296221,5.266602516,-4.399204254,4.303491592,2024-06-11 14:03:51.862962
19.90296221,3.995714664,-4.750350952,3.541676521,2024-06-11 14:03:51.902962
19.94296221,1.849352837,-8.154141426,6.280860424,2024-06-11 14:03:51.942962
19.98296221,0.4384847581,-11.34975624,2.377568483,2024-06-11 14:03:51.982962
20.02296221,0.4384847581,-11.34975624,2.377568483,2024-06-11 14:03:52.022962
20.06296221,0.4384847581,-11.34975624,2.377568483,2024-06-11 14:03:52.062962
20.10296221,0.4384847581,-11.34975624,2.377568483,2024-06-11 14:03:52.102962
20.14296221,0.4384847581,-11.34975624,2.377568483,2024-06-11 14:03:52.142962
20.18296221,0.4384847581,-11.34975624,2.377568483,2024-06-11 14:03:52.182962
20.22296221,0.4384847581,-11.34975624,2.377568483,2024-06-11 14:03:52.222962
20.26296221,0.4384847581,-11.34975624,2.377568483,2024-06-11 14:03:52.262962
20.30296221,0.4384847581,-11.34975624,2.377568483,2024-06-11 14:03:52.302962
20.34296221,2.746362209,-13.56580925,-3.512962818,2024-06-11 14:03:52.342962
20.38296221,2.746362209,-13.56580925,-3.512962818,2024-06-11 14:03:52.382962
20.42296221,2.746362209,-13.56580925,-3.512962818,2024-06-11 14:03:52.422962
20.46296221,2.746362209,-13.56580925,-3.512962818,2024-06-11 14:03:52.462962
20.50296221,2.746362209,-13.56580925,-3.512962818,2024-06-11 14:03:52.502962
20.54296221,2.746362209,-13.56580925,-3.512962818,2024-06-11 14:03:52.542962
20.58296221,2.746362209,-13.56580925,-3.512962818,2024-06-11 14:03:52.582962
20.62296221,2.746362209,-13.56580925,-3.512962818,2024-06-11 14:03:52.622962
20.66296221,2.746362209,-13.56580925,-3.512962818,2024-06-11 14:03:52.662962
20.70296221,2.746362209,-13.56580925,-3.512962818,2024-06-11 14:03:52.702962
20.74296221,2.746362209,-13.56580925,-3.512962818,2024-06-11 14:03:52.742962
20.78296221,2.746362209,-13.56580925,-3.512962818,2024-06-11 14:03:52.782962
20.82296221,2.746362209,-13.56580925,-3.512962818,2024-06-11 14:03:52.822962
20.86296221,2.746362209,-13.56580925,-3.512962818,2024-06-11 14:03:52.862962
20.90296221,2.746362209,-13.56580925,-3.512962818,2024-06-11 14:03:52.902962
20.94296221,2.746362209,-13.56580925,-3.512962818,2024-06-11 14:03:52.942962
20.98296221,2.746362209,-13.56580925,-3.512962818,2024-06-11 14:03:52.982962
21.02296221,2.746362209,-13.56580925,-3.512962818,2024-06-11 14:03:53.022962
21.06296221,2.746362209,-13.56580925,-3.512962818,2024-06-11 14:03:53.062962
21.10296221,2.746362209,-13.56580925,-3.512962818,2024-06-11 14:03:53.102962
21.14296221,2.746362209,-13.56580925,-3.512962818,2024-06-11 14:03:53.142962
21.18296221,2.746362209,-13.56580925,-3.512962818,2024-06-11 14:03:53.182962
21.22296221,2.746362209,-13.56580925,-3.512962818,2024-06-11 14:03:53.222962
21.26296221,2.746362209,-13.56580925,-3.512962818,2024-06-11 14:03:53.262962
21.30296221,2.746362209,-13.56580925,-3.512962818,2024-06-11 14:03:53.302962
21.34296221,2.249253273,-10.06241703,5.443671703,2024-06-11 14:03:53.342962
21.38296221,3.144168854,-10.28255749,4.103391647,2024-06-11 14:03:53.382962
21.42296221,-0.8108677864,-9.053842545,4.120141506,2024-06-11 14:03:53.422962
21.46296221,-3.554837227,-4.592125893,-1.049252748,2024-06-11 14:03:53.462962
21.50296221,-2.232503414,-8.178368568,-1.020538807,2024-06-11 14:03:53.502962
21.54296221,2.190629244,-8.193922043,0.08015955985,2024-06-11 14:03:53.542962
21.58296221,5.921638012,-9.046664238,-1.452742457,2024-06-11 14:03:53.582962
21.62296221,4.673481941,-9.726823807,2.221735716,2024-06-11 14:03:53.622962
21.66296221,2.026720762,-7.951947689,3.92991209,2024-06-11 14:03:53.662962
21.70296221,2.026720762,-7.951947689,3.92991209,2024-06-11 14:03:53.702962
21.74296221,2.026720762,-7.951947689,3.92991209,2024-06-11 14:03:53.742962
21.78296221,2.026720762,-7.951947689,3.92991209,2024-06-11 14:03:53.782962
21.82296221,2.026720762,-7.951947689,3.92991209,2024-06-11 14:03:53.822962
21.86296221,2.026720762,-7.951947689,3.92991209,2024-06-11 14:03:53.862962
21.90296221,2.026720762,-7.951947689,3.92991209,2024-06-11 14:03:53.902962
21.94296221,2.026720762,-7.951947689,3.92991209,2024-06-11 14:03:53.942962
21.98296221,2.026720762,-7.951947689,3.92991209,2024-06-11 14:03:53.982962
22.02296221,2.026720762,-7.951947689,3.92991209,2024-06-11 14:03:54.022962
22.06296221,2.026720762,-7.951947689,3.92991209,2024-06-11 14:03:54.062962
22.10296221,2.026720762,-7.951947689,3.92991209,2024-06-11 14:03:54.102962
22.14296221,2.026720762,-7.951947689,3.92991209,2024-06-11 14:03:54.142962
22.18296221,2.026720762,-7.951947689,3.92991209,2024-06-11 14:03:54.182962
22.22296221,2.026720762,-7.951947689,3.92991209,2024-06-11 14:03:54.222962
22.26296221,2.026720762,-7.951947689,3.92991209,2024-06-11 14:03:54.262962
22.30296221,2.026720762,-7.951947689,3.92991209,2024-06-11 14:03:54.302962
22.34296221,2.127219439,-8.997611046,-0.16181463,2024-06-11 14:03:54.342962
22.38296221,2.127219439,-8.997611046,-0.16181463,2024-06-11 14:03:54.382962
22.42296221,2.127219439,-8.997611046,-0.16181463,2024-06-11 14:03:54.422962
22.46296221,2.127219439,-8.997611046,-0.16181463,2024-06-11 14:03:54.462962
22.50296221,2.127219439,-8.997611046,-0.16181463,2024-06-11 14:03:54.502962
22.54296221,2.127219439,-8.997611046,-0.16181463,2024-06-11 14:03:54.542962
22.58296221,-0.9233304262,-8.507680893,2.829213619,2024-06-11 14:03:54.582962
22.62296221,-0.9233304262,-8.507680893,2.829213619,2024-06-11 14:03:54.622962
22.66296221,-0.9233304262,-8.507680893,2.829213619,2024-06-11 14:03:54.662962
22.70296221,-0.9233304262,-8.507680893,2.829213619,2024-06-11 14:03:54.702962
22.74296221,-0.9233304262,-8.507680893,2.829213619,2024-06-11 14:03:54.742962
22.78296221,-0.9233304262,-8.507680893,2.829213619,2024-06-11 14:03:54.782962
22.82296221,-0.9233304262,-8.507680893,2.829213619,2024-06-11 14:03:54.822962
22.86296221,-0.9233304262,-8.507680893,2.829213619,2024-06-11 14:03:54.862962
22.90296221,-0.9233304262,-8.507680893,2.829213619,2024-06-11 14:03:54.902962
22.94296221,-0.9233304262,-8.507680893,2.829213619,2024-06-11 14:03:54.942962
22.98296221,-0.9233304262,-8.507680893,2.829213619,2024-06-11 14:03:54.982962
23.02296221,6.615257263,-11.88395405,2.442174673,2024-06-11 14:03:55.022962
23.06296221,3.764508247,-10.34865856,1.728216171,2024-06-11 14:03:55.062962
23.10296221,4.122534275,-3.744169235,2.771486759,2024-06-11 14:03:55.102962
23.14296221,-1.516451359,-0.3173480928,-4.395615101,2024-06-11 14:03:55.142962
23.18296221,-3.782454491,-1.141376376,-6.760023117,2024-06-11 14:03:55.182962
23.22296221,-1.396511078,-13.28435326,-1.496112347,2024-06-11 14:03:55.222962
23.26296221,3.900001764,-36.5638237,-9.882657051,2024-06-11 14:03:55.262962
23.30296221,-5.648557186,-21.77737808,8.09312439,2024-06-11 14:03:55.302962
23.34296221,7.458428383,-12.19561863,-6.030810356,2024-06-11 14:03:55.342962
23.38296221,7.458428383,-12.19561863,-6.030810356,2024-06-11 14:03:55.382962
23.42296221,7.458428383,-12.19561863,-6.030810356,2024-06-11 14:03:55.422962
23.46296221,7.458428383,-12.19561863,-6.030810356,2024-06-11 14:03:55.462962
23.50296221,7.458428383,-12.19561863,-6.030810356,2024-06-11 14:03:55.502962
23.54296221,7.458428383,-12.19561863,-6.030810356,2024-06-11 14:03:55.542962
23.58296221,11.03001499,-7.490731239,18.38914108,2024-06-11 14:03:55.582962
23.62296221,11.03001499,-7.490731239,18.38914108,2024-06-11 14:03:55.622962
23.66296221,11.03001499,-7.490731239,18.38914108,2024-06-11 14:03:55.662962
23.70296221,11.03001499,-7.490731239,18.38914108,2024-06-11 14:03:55.702962
23.74296221,11.03001499,-7.490731239,18.38914108,2024-06-11 14:03:55.742962
23.78296221,11.03001499,-7.490731239,18.38914108,2024-06-11 14:03:55.782962
23.82296221,11.03001499,-7.490731239,18.38914108,2024-06-11 14:03:55.822962
23.86296221,11.03001499,-7.490731239,18.38914108,2024-06-11 14:03:55.862962
23.90296221,11.03001499,-7.490731239,18.38914108,2024-06-11 14:03:55.902962
23.94296221,11.03001499,-7.490731239,18.38914108,2024-06-11 14:03:55.942962
23.98296221,11.03001499,-7.490731239,18.38914108,2024-06-11 14:03:55.982962
24.02296221,11.03001499,-7.490731239,18.38914108,2024-06-11 14:03:56.022962
24.06296221,11.03001499,-7.490731239,18.38914108,2024-06-11 14:03:56.062962
24.10296221,11.03001499,-7.490731239,18.38914108,2024-06-11 14:03:56.102962
24.14296221,11.03001499,-7.490731239,18.38914108,2024-06-11 14:03:56.142962
24.18296221,11.03001499,-7.490731239,18.38914108,2024-06-11 14:03:56.182962
24.22296221,11.03001499,-7.490731239,18.38914108,2024-06-11 14:03:56.222962
24.26296221,11.03001499,-7.490731239,18.38914108,2024-06-11 14:03:56.262962
24.30296221,11.03001499,-7.490731239,18.38914108,2024-06-11 14:03:56.302962
24.34296221,11.03001499,-7.490731239,18.38914108,2024-06-11 14:03:56.342962
24.38296221,11.03001499,-7.490731239,18.38914108,2024-06-11 14:03:56.382962
24.42296221,11.03001499,-7.490731239,18.38914108,2024-06-11 14:03:56.422962
24.46296221,11.03001499,-7.490731239,18.38914108,2024-06-11 14:03:56.462962
24.50296221,11.03001499,-7.490731239,18.38914108,2024-06-11 14:03:56.502962
24.54296221,11.03001499,-7.490731239,18.38914108,2024-06-11 14:03:56.542962
24.58296221,-4.907081127,-11.84447193,-0.6634100676,2024-06-11 14:03:56.582962
24.62296221,-4.907081127,-11.84447193,-0.6634100676,2024-06-11 14:03:56.622962
24.66296221,-4.907081127,-11.84447193,-0.6634100676,2024-06-11 14:03:56.662962
24.70296221,0.5341976285,-3.133401155,-0.280259341,2024-06-11 14:03:56.702962
24.74296221,1.164108157,-5.459224701,-0.3101696372,2024-06-11 14:03:56.742962
24.78296221,-4.464109898,-10.46829987,-1.514058471,2024-06-11 14:03:56.782962
24.82296221,-6.659524441,-9.420243263,-2.348854542,2024-06-11 14:03:56.822962
24.86296221,-5.078466892,-5.888138294,-1.176072359,2024-06-11 14:03:56.862962
24.90296221,-4.341776848,-5.319244862,-0.9798609018,2024-06-11 14:03:56.902962
24.94296221,-6.653542519,-9.408279419,-1.288834095,2024-06-11 14:03:56.942962
24.98296221,-6.519245148,-10.86491013,-0.8156534433,2024-06-11 14:03:56.982962
25.02296221,-6.519245148,-10.86491013,-0.8156534433,2024-06-11 14:03:57.022962
25.06296221,-6.519245148,-10.86491013,-0.8156534433,2024-06-11 14:03:57.062962
25.10296221,-6.519245148,-10.86491013,-0.8156534433,2024-06-11 14:03:57.102962
25.14296221,-6.519245148,-10.86491013,-0.8156534433,2024-06-11 14:03:57.142962
25.18296221,-6.519245148,-10.86491013,-0.8156534433,2024-06-11 14:03:57.182962
25.22296221,-6.519245148,-10.86491013,-0.8156534433,2024-06-11 14:03:57.222962
25.26296221,-6.519245148,-10.86491013,-0.8156534433,2024-06-11 14:03:57.262962
25.30296221,-6.519245148,-10.86491013,-0.8156534433,2024-06-11 14:03:57.302962
25.34296221,-7.291827679,-5.430510998,-2.687737942,2024-06-11 14:03:57.342962
25.38296221,-7.291827679,-5.430510998,-2.687737942,2024-06-11 14:03:57.382962
25.42296221,-7.291827679,-5.430510998,-2.687737942,2024-06-11 14:03:57.422962
25.46296221,-7.291827679,-5.430510998,-2.687737942,2024-06-11 14:03:57.462962
25.50296221,-7.291827679,-5.430510998,-2.687737942,2024-06-11 14:03:57.502962
25.54296221,-7.291827679,-5.430510998,-2.687737942,2024-06-11 14:03:57.542962
25.58296221,-7.291827679,-5.430510998,-2.687737942,2024-06-11 14:03:57.582962
25.62296221,-7.291827679,-5.430510998,-2.687737942,2024-06-11 14:03:57.622962
25.66296221,-7.291827679,-5.430510998,-2.687737942,2024-06-11 14:03:57.662962
25.70296221,-7.291827679,-5.430510998,-2.687737942,2024-06-11 14:03:57.702962
25.74296221,-7.291827679,-5.430510998,-2.687737942,2024-06-11 14:03:57.742962
25.78296221,-7.291827679,-5.430510998,-2.687737942,2024-06-11 14:03:57.782962
25.82296221,-7.291827679,-5.430510998,-2.687737942,2024-06-11 14:03:57.822962
25.86296221,-7.291827679,-5.430510998,-2.687737942,2024-06-11 14:03:57.862962
25.90296221,-7.291827679,-5.430510998,-2.687737942,2024-06-11 14:03:57.902962
25.94296221,-7.291827679,-5.430510998,-2.687737942,2024-06-11 14:03:57.942962
25.98296221,-7.291827679,-5.430510998,-2.687737942,2024-06-11 14:03:57.982962
26.02296221,-7.291827679,-5.430510998,-2.687737942,2024-06-11 14:03:58.022962
26.06296221,-7.291827679,-5.430510998,-2.687737942,2024-06-11 14:03:58.062962
26.10296221,-7.291827679,-5.430510998,-2.687737942,2024-06-11 14:03:58.102962
26.14296221,-7.291827679,-5.430510998,-2.687737942,2024-06-11 14:03:58.142962
26.18296221,-7.291827679,-5.430510998,-2.687737942,2024-06-11 14:03:58.182962
26.22296221,-7.291827679,-5.430510998,-2.687737942,2024-06-11 14:03:58.222962
26.26296221,-7.291827679,-5.430510998,-2.687737942,2024-06-11 14:03:58.262962
26.30296221,-7.291827679,-5.430510998,-2.687737942,2024-06-11 14:03:58.302962
26.34296221,-7.291827679,-5.430510998,-2.687737942,2024-06-11 14:03:58.342962
26.38296221,-3.324826956,-4.660321236,2.454138756,2024-06-11 14:03:58.382962
26.42296221,-2.527119875,0.03948157281,5.793622017,2024-06-11 14:03:58.422962
26.46296221,0.304187566,0.5509474277,0.8922237158,2024-06-11 14:03:58.462962
26.50296221,1.255334616,0.6047859192,-1.576271892,2024-06-11 14:03:58.502962
26.54296221,-0.6107679605,-0.05862415582,-2.164308071,2024-06-11 14:03:58.542962
26.58296221,-26.12184715,-35.49303818,33.34308624,2024-06-11 14:03:58.582962
26.62296221,-19.17368698,-33.878479,-12.99452209,2024-06-11 14:03:58.622962
26.66296221,-6.177968979,-6.862017155,-11.04796124,2024-06-11 14:03:58.662962
26.70296221,0.2395813614,-0.9475577474,1.231406331,2024-06-11 14:03:58.702962
26.74296221,0.2395813614,-0.9475577474,1.231406331,2024-06-11 14:03:58.742962
26.78296221,0.2395813614,-0.9475577474,1.231406331,2024-06-11 14:03:58.782962
26.82296221,0.2395813614,-0.9475577474,1.231406331,2024-06-11 14:03:58.822962
26.86296221,0.2395813614,-0.9475577474,1.231406331,2024-06-11 14:03:58.862962
26.90296221,0.2395813614,-0.9475577474,1.231406331,2024-06-11 14:03:58.902962
26.94296221,0.2395813614,-0.9475577474,1.231406331,2024-06-11 14:03:58.942962
26.98296221,0.2395813614,-0.9475577474,1.231406331,2024-06-11 14:03:58.982962
27.02296221,0.2395813614,-0.9475577474,1.231406331,2024-06-11 14:03:59.022962
27.06296221,0.2395813614,-0.9475577474,1.231406331,2024-06-11 14:03:59.062962
27.10296221,0.2395813614,-0.9475577474,1.231406331,2024-06-11 14:03:59.102962
27.14296221,0.2395813614,-0.9475577474,1.231406331,2024-06-11 14:03:59.142962
27.18296221,0.2395813614,-0.9475577474,1.231406331,2024-06-11 14:03:59.182962
27.22296221,0.2395813614,-0.9475577474,1.231406331,2024-06-11 14:03:59.222962
27.26296221,0.2395813614,-0.9475577474,1.231406331,2024-06-11 14:03:59.262962
27.30296221,0.2395813614,-0.9475577474,1.231406331,2024-06-11 14:03:59.302962
27.34296221,0.2395813614,-0.9475577474,1.231406331,2024-06-11 14:03:59.342962
27.38296221,0.2395813614,-0.9475577474,1.231406331,2024-06-11 14:03:59.382962
27.42296221,0.2395813614,-0.9475577474,1.231406331,2024-06-11 14:03:59.422962
27.46296221,0.2395813614,-0.9475577474,1.231406331,2024-06-11 14:03:59.462962
27.50296221,0.2395813614,-0.9475577474,1.231406331,2024-06-11 14:03:59.502962
27.54296221,0.2395813614,-0.9475577474,1.231406331,2024-06-11 14:03:59.542962
27.58296221,0.907777071,3.186043262,16.63071632,2024-06-11 14:03:59.582962
27.62296221,0.907777071,3.186043262,16.63071632,2024-06-11 14:03:59.622962
27.66296221,0.907777071,3.186043262,16.63071632,2024-06-11 14:03:59.662962
27.70296221,0.907777071,3.186043262,16.63071632,2024-06-11 14:03:59.702962
27.74296221,0.907777071,3.186043262,16.63071632,2024-06-11 14:03:59.742962
27.78296221,0.907777071,3.186043262,16.63071632,2024-06-11 14:03:59.782962
27.82296221,0.907777071,3.186043262,16.63071632,2024-06-11 14:03:59.822962
27.86296221,0.907777071,3.186043262,16.63071632,2024-06-11 14:03:59.862962
27.90296221,0.907777071,3.186043262,16.63071632,2024-06-11 14:03:59.902962
27.94296221,0.907777071,3.186043262,16.63071632,2024-06-11 14:03:59.942962
27.98296221,0.907777071,3.186043262,16.63071632,2024-06-11 14:03:59.982962
28.02296221,0.195314154,0.6804589629,0.6287141442,2024-06-11 14:04:00.022962
28.06296221,-8.823832512,-7.89182806,-4.029214382,2024-06-11 14:04:00.062962
28.10296221,-16.42822266,-44.53820419,3.842274904,2024-06-11 14:04:00.102962
28.14296221,-1.801496387,-18.70409584,10.30558777,2024-06-11 14:04:00.142962
28.18296221,0.4480560422,-7.888238907,-1.882852316,2024-06-11 14:04:00.182962
28.22296221,2.324926376,-3.136990547,-3.467499018,2024-06-11 14:04:00.222962
28.26296221,1.378564954,-1.490130305,-6.13609457,2024-06-11 14:04:00.262962
28.30296221,-0.4049852192,-1.002592683,-3.293720484,2024-06-11 14:04:00.302962
28.34296221,-1.10309124,-0.2276172489,-1.795514345,2024-06-11 14:04:00.342962
28.38296221,-1.10309124,-0.2276172489,-1.795514345,2024-06-11 14:04:00.382962
28.42296221,-1.10309124,-0.2276172489,-1.795514345,2024-06-11 14:04:00.422962
28.46296221,-1.10309124,-0.2276172489,-1.795514345,2024-06-11 14:04:00.462962
28.50296221,-1.10309124,-0.2276172489,-1.795514345,2024-06-11 14:04:00.502962
28.54296221,-1.10309124,-0.2276172489,-1.795514345,2024-06-11 14:04:00.542962
28.58296221,-1.10309124,-0.2276172489,-1.795514345,2024-06-11 14:04:00.582962
28.62296221,-1.10309124,-0.2276172489,-1.795514345,2024-06-11 14:04:00.622962
28.66296221,-1.10309124,-0.2276172489,-1.795514345,2024-06-11 14:04:00.662962
28.70296221,-1.10309124,-0.2276172489,-1.795514345,2024-06-11 14:04:00.702962
28.74296221,-1.10309124,-0.2276172489,-1.795514345,2024-06-11 14:04:00.742962
28.78296221,-1.10309124,-0.2276172489,-1.795514345,2024-06-11 14:04:00.782962
28.82296221,-1.10309124,-0.2276172489,-1.795514345,2024-06-11 14:04:00.822962
28.86296221,-1.10309124,-0.2276172489,-1.795514345,2024-06-11 14:04:00.862962
28.90296221,-1.10309124,-0.2276172489,-1.795514345,2024-06-11 14:04:00.902962
28.94296221,-1.10309124,-0.2276172489,-1.795514345,2024-06-11 14:04:00.942962
28.98296221,-1.10309124,-0.2276172489,-1.795514345,2024-06-11 14:04:00.982962
29.02296221,-1.10309124,-0.2276172489,-1.795514345,2024-06-11 14:04:01.022962
29.06296221,-1.10309124,-0.2276172489,-1.795514345,2024-06-11 14:04:01.062962
29.10296221,-1.10309124,-0.2276172489,-1.795514345,2024-06-11 14:04:01.102962
29.14296221,-1.10309124,-0.2276172489,-1.795514345,2024-06-11 14:04:01.142962
29.18296221,-1.10309124,-0.2276172489,-1.795514345,2024-06-11 14:04:01.182962
29.22296221,-1.10309124,-0.2276172489,-1.795514345,2024-06-11 14:04:01.222962
29.26296221,-1.10309124,-0.2276172489,-1.795514345,2024-06-11 14:04:01.262962
29.30296221,-1.10309124,-0.2276172489,-1.795514345,2024-06-11 14:04:01.302962
29.34296221,-1.10309124,-0.2276172489,-1.795514345,2024-06-11 14:04:01.342962
29.38296221,-1.10309124,-0.2276172489,-1.795514345,2024-06-11 14:04:01.382962
29.42296221,-1.10309124,-0.2276172489,-1.795514345,2024-06-11 14:04:01.422962
29.46296221,-1.10309124,-0.2276172489,-1.795514345,2024-06-11 14:04:01.462962
29.50296221,-1.10309124,-0.2276172489,-1.795514345,2024-06-11 14:04:01.502962
29.54296221,-1.10309124,-0.2276172489,-1.795514345,2024-06-11 14:04:01.542962
29.58296221,-2.924926519,-6.473781586,-5.239085197,2024-06-11 14:04:01.582962
29.62296221,-2.924926519,-6.473781586,-5.239085197,2024-06-11 14:04:01.622962
29.66296221,-2.924926519,-6.473781586,-5.239085197,2024-06-11 14:04:01.662962
29.70296221,-6.806683064,-12.26620674,-3.176471949,2024-06-11 14:04:01.702962
29.74296221,-4.98275423,-19.61546326,4.954040051,2024-06-11 14:04:01.742962
29.78296221,-8.875278473,-14.89173126,9.16750145,2024-06-11 14:04:01.782962
29.82296221,-7.170990467,-12.5488596,13.27478218,2024-06-11 14:04:01.822962
29.86296221,-6.076273918,-8.193922043,1.068395257,2024-06-11 14:04:01.862962
29.90296221,-9.322137833,-8.097909927,-4.969593525,2024-06-11 14:04:01.902962
29.94296221,-14.3886404,-8.337491035,1.84456718,2024-06-11 14:04:01.942962
29.98296221,0.09092725813,-2.611167669,0.643071115,2024-06-11 14:04:01.982962
30.02296221,-6.288038731,-3.980161428,-2.037488461,2024-06-11 14:04:02.022962
30.06296221,-6.288038731,-3.980161428,-2.037488461,2024-06-11 14:04:02.062962
30.10296221,-6.288038731,-3.980161428,-2.037488461,2024-06-11 14:04:02.102962
30.14296221,-6.288038731,-3.980161428,-2.037488461,2024-06-11 14:04:02.142962
30.18296221,-6.288038731,-3.980161428,-2.037488461,2024-06-11 14:04:02.182962
30.22296221,-6.288038731,-3.980161428,-2.037488461,2024-06-11 14:04:02.222962
30.26296221,-6.288038731,-3.980161428,-2.037488461,2024-06-11 14:04:02.262962
30.30296221,-6.288038731,-3.980161428,-2.037488461,2024-06-11 14:04:02.302962
30.34296221,-6.288038731,-3.980161428,-2.037488461,2024-06-11 14:04:02.342962
30.38296221,-6.288038731,-3.980161428,-2.037488461,2024-06-11 14:04:02.382962
30.42296221,-6.288038731,-3.980161428,-2.037488461,2024-06-11 14:04:02.422962
30.46296221,-6.288038731,-3.980161428,-2.037488461,2024-06-11 14:04:02.462962
30.50296221,-6.288038731,-3.980161428,-2.037488461,2024-06-11 14:04:02.502962
30.54296221,-6.288038731,-3.980161428,-2.037488461,2024-06-11 14:04:02.542962
30.58296221,-4.681856632,-3.765704632,0.7079764009,2024-06-11 14:04:02.582962
30.62296221,-4.681856632,-3.765704632,0.7079764009,2024-06-11 14:04:02.622962
30.66296221,-4.681856632,-3.765704632,0.7079764009,2024-06-11 14:04:02.662962
30.70296221,-4.681856632,-3.765704632,0.7079764009,2024-06-11 14:04:02.702962
30.74296221,-4.681856632,-3.765704632,0.7079764009,2024-06-11 14:04:02.742962
30.78296221,-4.681856632,-3.765704632,0.7079764009,2024-06-11 14:04:02.782962
30.82296221,-4.681856632,-3.765704632,0.7079764009,2024-06-11 14:04:02.822962
30.86296221,-4.681856632,-3.765704632,0.7079764009,2024-06-11 14:04:02.862962
30.90296221,-4.681856632,-3.765704632,0.7079764009,2024-06-11 14:04:02.902962
30.94296221,-4.681856632,-3.765704632,0.7079764009,2024-06-11 14:04:02.942962
30.98296221,-4.681856632,-3.765704632,0.7079764009,2024-06-11 14:04:02.982962
31.02296221,-4.681856632,-3.765704632,0.7079764009,2024-06-11 14:04:03.022962
31.06296221,-4.681856632,-3.765704632,0.7079764009,2024-06-11 14:04:03.062962
31.10296221,-4.681856632,-3.765704632,0.7079764009,2024-06-11 14:04:03.102962
31.14296221,-4.681856632,-3.765704632,0.7079764009,2024-06-11 14:04:03.142962
31.18296221,-4.681856632,-3.765704632,0.7079764009,2024-06-11 14:04:03.182962
31.22296221,-4.681856632,-3.765704632,0.7079764009,2024-06-11 14:04:03.222962
31.26296221,-4.681856632,-3.765704632,0.7079764009,2024-06-11 14:04:03.262962
31.30296221,-4.681856632,-3.765704632,0.7079764009,2024-06-11 14:04:03.302962
31.34296221,-4.681856632,-3.765704632,0.7079764009,2024-06-11 14:04:03.342962
31.38296221,-5.650949955,-23.32015038,4.781457901,2024-06-11 14:04:03.382962
31.42296221,-3.675973892,-25.34567451,2.203789711,2024-06-11 14:04:03.422962
31.46296221,-1.087537885,-8.422436714,0.2706880569,2024-06-11 14:04:03.462962
31.50296221,-0.8252246976,-4.655535698,-6.089434624,2024-06-11 14:04:03.502962
31.54296221,-0.584446907,-2.210968018,-2.666202545,2024-06-11 14:04:03.542962
31.58296221,-1.013360381,-0.8204390407,0.4695914388,2024-06-11 14:04:03.582962
31.62296221,-0.5964110494,-3.921537161,26.7302227,2024-06-11 14:04:03.622962
31.66296221,-0.1160518974,-6.552744865,-4.326223373,2024-06-11 14:04:03.662962
31.70296221,-1.412064433,-15.28684616,-7.076174736,2024-06-11 14:04:03.702962
31.74296221,-1.412064433,-15.28684616,-7.076174736,2024-06-11 14:04:03.742962
31.78296221,-1.412064433,-15.28684616,-7.076174736,2024-06-11 14:04:03.782962
31.82296221,-1.412064433,-15.28684616,-7.076174736,2024-06-11 14:04:03.822962
31.86296221,-1.412064433,-15.28684616,-7.076174736,2024-06-11 14:04:03.862962
31.90296221,-1.412064433,-15.28684616,-7.076174736,2024-06-11 14:04:03.902962
31.94296221,-1.412064433,-15.28684616,-7.076174736,2024-06-11 14:04:03.942962
31.98296221,-1.412064433,-15.28684616,-7.076174736,2024-06-11 14:04:03.982962
32.02296221,-1.412064433,-15.28684616,-7.076174736,2024-06-11 14:04:04.022962
32.06296221,-1.412064433,-15.28684616,-7.076174736,2024-06-11 14:04:04.062962
32.10296221,-1.412064433,-15.28684616,-7.076174736,2024-06-11 14:04:04.102962
32.14296221,-1.412064433,-15.28684616,-7.076174736,2024-06-11 14:04:04.142962
32.18296221,-1.412064433,-15.28684616,-7.076174736,2024-06-11 14:04:04.182962
32.22296221,-1.412064433,-15.28684616,-7.076174736,2024-06-11 14:04:04.222962
32.26296221,-1.412064433,-15.28684616,-7.076174736,2024-06-11 14:04:04.262962
32.30296221,-1.412064433,-15.28684616,-7.076174736,2024-06-11 14:04:04.302962
32.34296221,-2.339283228,-4.527519703,-0.5270192027,2024-06-11 14:04:04.342962
32.38296221,-2.339283228,-4.527519703,-0.5270192027,2024-06-11 14:04:04.382962
32.42296221,-2.339283228,-4.527519703,-0.5270192027,2024-06-11 14:04:04.422962
32.46296221,-2.339283228,-4.527519703,-0.5270192027,2024-06-11 14:04:04.462962
32.50296221,-2.339283228,-4.527519703,-0.5270192027,2024-06-11 14:04:04.502962
32.54296221,-2.339283228,-4.527519703,-0.5270192027,2024-06-11 14:04:04.542962
32.58296221,-4.663910389,-12.04457188,0.9786644578,2024-06-11 14:04:04.582962
32.62296221,-4.663910389,-12.04457188,0.9786644578,2024-06-11 14:04:04.622962
32.66296221,-4.663910389,-12.04457188,0.9786644578,2024-06-11 14:04:04.662962
32.70296221,-4.663910389,-12.04457188,0.9786644578,2024-06-11 14:04:04.702962
32.74296221,-4.663910389,-12.04457188,0.9786644578,2024-06-11 14:04:04.742962
32.78296221,-4.663910389,-12.04457188,0.9786644578,2024-06-11 14:04:04.782962
32.82296221,-4.663910389,-12.04457188,0.9786644578,2024-06-11 14:04:04.822962
32.86296221,-4.663910389,-12.04457188,0.9786644578,2024-06-11 14:04:04.862962
32.90296221,-4.663910389,-12.04457188,0.9786644578,2024-06-11 14:04:04.902962
32.94296221,-4.663910389,-12.04457188,0.9786644578,2024-06-11 14:04:04.942962
32.98296221,-4.663910389,-12.04457188,0.9786644578,2024-06-11 14:04:04.982962
33.02296221,-4.663910389,-12.04457188,0.9786644578,2024-06-11 14:04:05.022962
33.06296221,-5.560022354,-5.874977589,-1.58703959,2024-06-11 14:04:05.062962
33.10296221,-5.088038445,-6.870391846,0.6167500615,2024-06-11 14:04:05.102962
33.14296221,-5.128716469,-8.070392609,-0.1749751568,2024-06-11 14:04:05.142962
33.18296221,-3.953840256,-8.342276573,-2.776272535,2024-06-11 14:04:05.182962
33.22296221,-2.515155792,-7.236793041,-4.056731701,2024-06-11 14:04:05.222962
33.26296221,-4.99352169,-8.351848602,-4.62203598,2024-06-11 14:04:05.262962
33.30296221,-6.851249218,-10.73779202,1.367797256,2024-06-11 14:04:05.302962
33.34296221,-4.134498596,-14.31924915,12.74656582,2024-06-11 14:04:05.342962
33.38296221,-4.134498596,-14.31924915,12.74656582,2024-06-11 14:04:05.382962
33.42296221,-4.134498596,-14.31924915,12.74656582,2024-06-11 14:04:05.422962
33.46296221,-4.134498596,-14.31924915,12.74656582,2024-06-11 14:04:05.462962
33.50296221,-4.134498596,-14.31924915,12.74656582,2024-06-11 14:04:05.502962
33.54296221,-4.134498596,-14.31924915,12.74656582,2024-06-11 14:04:05.542962
33.58296221,-3.21356082,-7.428517818,-0.4217349887,2024-06-11 14:04:05.582962
33.62296221,-3.21356082,-7.428517818,-0.4217349887,2024-06-11 14:04:05.622962
33.66296221,-3.21356082,-7.428517818,-0.4217349887,2024-06-11 14:04:05.662962
33.70296221,-3.21356082,-7.428517818,-0.4217349887,2024-06-11 14:04:05.702962
33.74296221,-3.21356082,-7.428517818,-0.4217349887,2024-06-11 14:04:05.742962
33.78296221,-3.21356082,-7.428517818,-0.4217349887,2024-06-11 14:04:05.782962
33.82296221,-3.21356082,-7.428517818,-0.4217349887,2024-06-11 14:04:05.822962
33.86296221,-3.21356082,-7.428517818,-0.4217349887,2024-06-11 14:04:05.862962
33.90296221,-3.21356082,-7.428517818,-0.4217349887,2024-06-11 14:04:05.902962
33.94296221,-3.21356082,-7.428517818,-0.4217349887,2024-06-11 14:04:05.942962
33.98296221,-3.21356082,-7.428517818,-0.4217349887,2024-06-11 14:04:05.982962
34.02296221,-3.21356082,-7.428517818,-0.4217349887,2024-06-11 14:04:06.022962
34.06296221,-3.21356082,-7.428517818,-0.4217349887,2024-06-11 14:04:06.062962
34.10296221,-3.21356082,-7.428517818,-0.4217349887,2024-06-11 14:04:06.102962
34.14296221,-3.21356082,-7.428517818,-0.4217349887,2024-06-11 14:04:06.142962
34.18296221,-3.21356082,-7.428517818,-0.4217349887,2024-06-11 14:04:06.182962
34.22296221,-3.21356082,-7.428517818,-0.4217349887,2024-06-11 14:04:06.222962
34.26296221,-3.21356082,-7.428517818,-0.4217349887,2024-06-11 14:04:06.262962
34.30296221,-3.21356082,-7.428517818,-0.4217349887,2024-06-11 14:04:06.302962
34.34296221,-3.21356082,-7.428517818,-0.4217349887,2024-06-11 14:04:06.342962
34.38296221,-3.21356082,-7.428517818,-0.4217349887,2024-06-11 14:04:06.382962
34.42296221,-3.21356082,-7.428517818,-0.4217349887,2024-06-11 14:04:06.422962
34.46296221,-3.21356082,-7.428517818,-0.4217349887,2024-06-11 14:04:06.462962
34.50296221,-3.21356082,-7.428517818,-0.4217349887,2024-06-11 14:04:06.502962
34.54296221,-3.21356082,-7.428517818,-0.4217349887,2024-06-11 14:04:06.542962
34.58296221,-2.814856768,-7.745865822,-6.035595894,2024-06-11 14:04:06.582962
34.62296221,-2.814856768,-7.745865822,-6.035595894,2024-06-11 14:04:06.622962
34.66296221,-2.814856768,-7.745865822,-6.035595894,2024-06-11 14:04:06.662962
34.70296221,3.238685369,-20.12692833,11.25523949,2024-06-11 14:04:06.702962
34.74296221,-5.501398563,-12.97747326,11.85404301,2024-06-11 14:04:06.742962
34.78296221,-12.00867939,-8.640482903,-5.919245243,2024-06-11 14:04:06.782962
34.82296221,-24.61376953,-5.115555763,24.29761887,2024-06-11 14:04:06.822962
34.86296221,-4.846064091,-6.122933865,-7.931608677,2024-06-11 14:04:06.862962
34.90296221,1.131805062,-4.628017902,2.216950178,2024-06-11 14:04:06.902962
34.94296221,-11.80618668,-10.03460121,10.48744297,2024-06-11 14:04:06.942962
34.98296221,-8.566305161,-4.634000301,-0.9041878581,2024-06-11 14:04:06.982962
35.02296221,-3.430410385,-7.462017536,-3.544069529,2024-06-11 14:04:07.022962
35.06296221,-3.430410385,-7.462017536,-3.544069529,2024-06-11 14:04:07.062962
35.10296221,-3.430410385,-7.462017536,-3.544069529,2024-06-11 14:04:07.102962
35.14296221,-3.430410385,-7.462017536,-3.544069529,2024-06-11 14:04:07.142962
35.18296221,-3.430410385,-7.462017536,-3.544069529,2024-06-11 14:04:07.182962
35.22296221,-3.430410385,-7.462017536,-3.544069529,2024-06-11 14:04:07.222962
35.26296221,-3.430410385,-7.462017536,-3.544069529,2024-06-11 14:04:07.262962
35.30296221,-3.430410385,-7.462017536,-3.544069529,2024-06-11 14:04:07.302962
35.34296221,5.892923832,-8.944669724,15.65444374,2024-06-11 14:04:07.342962
35.38296221,5.892923832,-8.944669724,15.65444374,2024-06-11 14:04:07.382962
35.42296221,5.892923832,-8.944669724,15.65444374,2024-06-11 14:04:07.422962
35.46296221,5.892923832,-8.944669724,15.65444374,2024-06-11 14:04:07.462962
35.50296221,5.892923832,-8.944669724,15.65444374,2024-06-11 14:04:07.502962
35.54296221,5.892923832,-8.944669724,15.65444374,2024-06-11 14:04:07.542962
35.58296221,1.584646821,-17.62852287,-0.7354938388,2024-06-11 14:04:07.582962
35.62296221,1.584646821,-17.62852287,-0.7354938388,2024-06-11 14:04:07.622962
35.66296221,1.584646821,-17.62852287,-0.7354938388,2024-06-11 14:04:07.662962
35.70296221,1.584646821,-17.62852287,-0.7354938388,2024-06-11 14:04:07.702962
35.74296221,1.584646821,-17.62852287,-0.7354938388,2024-06-11 14:04:07.742962
35.78296221,1.584646821,-17.62852287,-0.7354938388,2024-06-11 14:04:07.782962
35.82296221,1.584646821,-17.62852287,-0.7354938388,2024-06-11 14:04:07.822962
35.86296221,1.584646821,-17.62852287,-0.7354938388,2024-06-11 14:04:07.862962
35.90296221,1.584646821,-17.62852287,-0.7354938388,2024-06-11 14:04:07.902962
35.94296221,1.584646821,-17.62852287,-0.7354938388,2024-06-11 14:04:07.942962
35.98296221,1.584646821,-17.62852287,-0.7354938388,2024-06-11 14:04:07.982962
36.02296221,1.584646821,-17.62852287,-0.7354938388,2024-06-11 14:04:08.022962
36.06296221,1.584646821,-17.62852287,-0.7354938388,2024-06-11 14:04:08.062962
36.10296221,1.584646821,-17.62852287,-0.7354938388,2024-06-11 14:04:08.102962
36.14296221,1.584646821,-17.62852287,-0.7354938388,2024-06-11 14:04:08.142962
36.18296221,1.584646821,-17.62852287,-0.7354938388,2024-06-11 14:04:08.182962
36.22296221,1.584646821,-17.62852287,-0.7354938388,2024-06-11 14:04:08.222962
36.26296221,1.584646821,-17.62852287,-0.7354938388,2024-06-11 14:04:08.262962
36.30296221,1.584646821,-17.62852287,-0.7354938388,2024-06-11 14:04:08.302962
36.34296221,1.584646821,-17.62852287,-0.7354938388,2024-06-11 14:04:08.342962
36.38296221,-8.456234932,-12.68764305,8.476573944,2024-06-11 14:04:08.382962
36.42296221,-5.704788208,-6.363711834,-3.09272337,2024-06-11 14:04:08.422962
36.46296221,-7.434499741,-5.089234829,-2.659024239,2024-06-11 14:04:08.462962
36.50296221,-3.976572037,-6.75284481,2.419442892,2024-06-11 14:04:08.502962
36.54296221,-5.734698772,-7.756633759,3.922733545,2024-06-11 14:04:08.542962
36.58296221,-4.98275423,-6.775576591,2.941676378,2024-06-11 14:04:08.582962
36.62296221,-7.338488102,-5.987440586,-2.735594511,2024-06-11 14:04:08.622962
36.66296221,-8.399704933,-4.38724041,-2.967997313,2024-06-11 14:04:08.662962
36.70296221,-9.051449776,-4.108177185,-0.7701897621,2024-06-11 14:04:08.702962
36.74296221,-9.051449776,-4.108177185,-0.7701897621,2024-06-11 14:04:08.742962
36.78296221,-9.051449776,-4.108177185,-0.7701897621,2024-06-11 14:04:08.782962
36.82296221,-9.051449776,-4.108177185,-0.7701897621,2024-06-11 14:04:08.822962
36.86296221,-9.051449776,-4.108177185,-0.7701897621,2024-06-11 14:04:08.862962
36.90296221,-9.051449776,-4.108177185,-0.7701897621,2024-06-11 14:04:08.902962
36.94296221,-9.051449776,-4.108177185,-0.7701897621,2024-06-11 14:04:08.942962
36.98296221,-9.051449776,-4.108177185,-0.7701897621,2024-06-11 14:04:08.982962
37.02296221,-9.051449776,-4.108177185,-0.7701897621,2024-06-11 14:04:09.022962
37.06296221,-9.051449776,-4.108177185,-0.7701897621,2024-06-11 14:04:09.062962
37.10296221,-9.051449776,-4.108177185,-0.7701897621,2024-06-11 14:04:09.102962
37.14296221,-9.051449776,-4.108177185,-0.7701897621,2024-06-11 14:04:09.142962
37.18296221,-9.051449776,-4.108177185,-0.7701897621,2024-06-11 14:04:09.182962
37.22296221,-9.051449776,-4.108177185,-0.7701897621,2024-06-11 14:04:09.222962
37.26296221,-9.051449776,-4.108177185,-0.7701897621,2024-06-11 14:04:09.262962
37.30296221,-9.051449776,-4.108177185,-0.7701897621,2024-06-11 14:04:09.302962
37.34296221,-9.051449776,-4.108177185,-0.7701897621,2024-06-11 14:04:09.342962
37.38296221,-9.051449776,-4.108177185,-0.7701897621,2024-06-11 14:04:09.382962
37.42296221,-9.051449776,-4.108177185,-0.7701897621,2024-06-11 14:04:09.422962
37.46296221,-9.051449776,-4.108177185,-0.7701897621,2024-06-11 14:04:09.462962
37.50296221,-9.051449776,-4.108177185,-0.7701897621,2024-06-11 14:04:09.502962
37.54296221,-9.051449776,-4.108177185,-0.7701897621,2024-06-11 14:04:09.542962
37.58296221,1.30438745,-1.278066397,8.394919395,2024-06-11 14:04:09.582962
37.62296221,1.30438745,-1.278066397,8.394919395,2024-06-11 14:04:09.622962
37.66296221,1.30438745,-1.278066397,8.394919395,2024-06-11 14:04:09.662962
37.70296221,1.30438745,-1.278066397,8.394919395,2024-06-11 14:04:09.702962
37.74296221,1.30438745,-1.278066397,8.394919395,2024-06-11 14:04:09.742962
37.78296221,1.30438745,-1.278066397,8.394919395,2024-06-11 14:04:09.782962
37.82296221,1.30438745,-1.278066397,8.394919395,2024-06-11 14:04:09.822962
37.86296221,1.30438745,-1.278066397,8.394919395,2024-06-11 14:04:09.862962
37.90296221,1.30438745,-1.278066397,8.394919395,2024-06-11 14:04:09.902962
37.94296221,1.30438745,-1.278066397,8.394919395,2024-06-11 14:04:09.942962
37.98296221,1.30438745,-1.278066397,8.394919395,2024-06-11 14:04:09.982962
38.02296221,1.30438745,-1.278066397,8.394919395,2024-06-11 14:04:10.022962
38.06296221,-20.31147575,-8.917152405,-10.748559,2024-06-11 14:04:10.062962
38.10296221,-45.43910217,-56.39494324,17.42124367,2024-06-11 14:04:10.102962
38.14296221,-9.895816803,-41.99194336,-53.71318436,2024-06-11 14:04:10.142962
38.18296221,7.804490089,-14.90608883,-10.90798092,2024-06-11 14:04:10.182962
38.22296221,9.770194054,-6.130112648,-6.144469261,2024-06-11 14:04:10.222962
38.26296221,6.533602238,-4.933402061,-3.692723513,2024-06-11 14:04:10.262962
38.30296221,2.158325911,-2.254039049,3.037389278,2024-06-11 14:04:10.302962
38.34296221,-0.3879363835,5.116752148,2.754737139,2024-06-11 14:04:10.342962
38.38296221,-1.58703959,3.171686411,6.17557621,2024-06-11 14:04:10.382962
38.42296221,-1.58703959,3.171686411,6.17557621,2024-06-11 14:04:10.422962
38.46296221,-1.58703959,3.171686411,6.17557621,2024-06-11 14:04:10.462962
38.50296221,-1.58703959,3.171686411,6.17557621,2024-06-11 14:04:10.502962
38.54296221,-1.58703959,3.171686411,6.17557621,2024-06-11 14:04:10.542962
38.58296221,-1.58703959,3.171686411,6.17557621,2024-06-11 14:04:10.582962
38.62296221,-1.58703959,3.171686411,6.17557621,2024-06-11 14:04:10.622962
38.66296221,-1.58703959,3.171686411,6.17557621,2024-06-11 14:04:10.662962
38.70296221,-1.58703959,3.171686411,6.17557621,2024-06-11 14:04:10.702962
38.74296221,-1.58703959,3.171686411,6.17557621,2024-06-11 14:04:10.742962
38.78296221,-1.58703959,3.171686411,6.17557621,2024-06-11 14:04:10.782962
38.82296221,-1.58703959,3.171686411,6.17557621,2024-06-11 14:04:10.822962
38.86296221,-1.58703959,3.171686411,6.17557621,2024-06-11 14:04:10.862962
38.90296221,-1.58703959,3.171686411,6.17557621,2024-06-11 14:04:10.902962
38.94296221,-1.58703959,3.171686411,6.17557621,2024-06-11 14:04:10.942962
38.98296221,-1.58703959,3.171686411,6.17557621,2024-06-11 14:04:10.982962
39.02296221,-1.58703959,3.171686411,6.17557621,2024-06-11 14:04:11.022962
39.06296221,-1.58703959,3.171686411,6.17557621,2024-06-11 14:04:11.062962
39.10296221,-1.58703959,3.171686411,6.17557621,2024-06-11 14:04:11.102962
39.14296221,-1.58703959,3.171686411,6.17557621,2024-06-11 14:04:11.142962
39.18296221,-1.58703959,3.171686411,6.17557621,2024-06-11 14:04:11.182962
39.22296221,-1.58703959,3.171686411,6.17557621,2024-06-11 14:04:11.222962
39.26296221,-1.58703959,3.171686411,6.17557621,2024-06-11 14:04:11.262962
39.30296221,-1.58703959,3.171686411,6.17557621,2024-06-11 14:04:11.302962
39.34296221,-1.58703959,3.171686411,6.17557621,2024-06-11 14:04:11.342962
39.38296221,-1.58703959,3.171686411,6.17557621,2024-06-11 14:04:11.382962
39.42296221,-1.58703959,3.171686411,6.17557621,2024-06-11 14:04:11.422962
39.46296221,-1.58703959,3.171686411,6.17557621,2024-06-11 14:04:11.462962
39.50296221,-1.58703959,3.171686411,6.17557621,2024-06-11 14:04:11.502962
39.54296221,-1.58703959,3.171686411,6.17557621,2024-06-11 14:04:11.542962
39.58296221,-12.74417305,-10.04447079,17.50499344,2024-06-11 14:04:11.582962
39.62296221,-12.74417305,-10.04447079,17.50499344,2024-06-11 14:04:11.622962
39.66296221,-12.74417305,-10.04447079,17.50499344,2024-06-11 14:04:11.662962
39.70296221,-12.74417305,-10.04447079,17.50499344,2024-06-11 14:04:11.702962
39.74296221,-5.205286503,-1.800299883,-3.412464142,2024-06-11 14:04:11.742962
39.78296221,-32.66023636,-18.08136368,-20.32463646,2024-06-11 14:04:11.782962
39.82296221,-27.21536636,-58.75217056,47.22115707,2024-06-11 14:04:11.822962
39.86296221,-10.78205872,-38.56990814,-28.1542511,2024-06-11 14:04:11.862962
39.90296221,9.868299484,-5.338387489,-21.07328987,2024-06-11 14:04:11.902962
39.94296221,11.52832031,-1.191625714,-8.171190262,2024-06-11 14:04:11.942962
39.98296221,2.892623425,-1.870888233,-0.137886405,2024-06-11 14:04:11.982962
40.02296221,0.6251249313,-0.318544507,2.069791555,2024-06-11 14:04:12.022962
40.06296221,0.6251249313,-0.318544507,2.069791555,2024-06-11 14:04:12.062962
40.10296221,0.6251249313,-0.318544507,2.069791555,2024-06-11 14:04:12.102962
40.14296221,0.6251249313,-0.318544507,2.069791555,2024-06-11 14:04:12.142962
40.18296221,0.6251249313,-0.318544507,2.069791555,2024-06-11 14:04:12.182962
40.22296221,0.6251249313,-0.318544507,2.069791555,2024-06-11 14:04:12.222962
40.26296221,0.6251249313,-0.318544507,2.069791555,2024-06-11 14:04:12.262962
40.30296221,0.6251249313,-0.318544507,2.069791555,2024-06-11 14:04:12.302962
40.34296221,0.6251249313,-0.318544507,2.069791555,2024-06-11 14:04:12.342962
40.38296221,0.6251249313,-0.318544507,2.069791555,2024-06-11 14:04:12.382962
40.42296221,0.6251249313,-0.318544507,2.069791555,2024-06-11 14:04:12.422962
40.46296221,0.6251249313,-0.318544507,2.069791555,2024-06-11 14:04:12.462962
40.50296221,0.6251249313,-0.318544507,2.069791555,2024-06-11 14:04:12.502962
40.54296221,0.6251249313,-0.318544507,2.069791555,2024-06-11 14:04:12.542962
40.58296221,0.6251249313,-0.318544507,2.069791555,2024-06-11 14:04:12.582962
40.62296221,0.6251249313,-0.318544507,2.069791555,2024-06-11 14:04:12.622962
40.66296221,0.6251249313,-0.318544507,2.069791555,2024-06-11 14:04:12.662962
40.70296221,0.6251249313,-0.318544507,2.069791555,2024-06-11 14:04:12.702962
40.74296221,0.6251249313,-0.318544507,2.069791555,2024-06-11 14:04:12.742962
40.78296221,0.6251249313,-0.318544507,2.069791555,2024-06-11 14:04:12.782962
40.82296221,0.6251249313,-0.318544507,2.069791555,2024-06-11 14:04:12.822962
40.86296221,0.6251249313,-0.318544507,2.069791555,2024-06-11 14:04:12.862962
40.90296221,0.6251249313,-0.318544507,2.069791555,2024-06-11 14:04:12.902962
40.94296221,0.6251249313,-0.318544507,2.069791555,2024-06-11 14:04:12.942962
40.98296221,0.6251249313,-0.318544507,2.069791555,2024-06-11 14:04:12.982962
41.02296221,0.6251249313,-0.318544507,2.069791555,2024-06-11 14:04:13.022962
41.06296221,0.6251249313,-0.318544507,2.069791555,2024-06-11 14:04:13.062962
41.10296221,0.6251249313,-0.318544507,2.069791555,2024-06-11 14:04:13.102962
41.14296221,0.6251249313,-0.318544507,2.069791555,2024-06-11 14:04:13.142962
41.18296221,0.6251249313,-0.318544507,2.069791555,2024-06-11 14:04:13.182962
41.22296221,0.6251249313,-0.318544507,2.069791555,2024-06-11 14:04:13.222962
41.26296221,0.6251249313,-0.318544507,2.069791555,2024-06-11 14:04:13.262962
41.30296221,0.6251249313,-0.318544507,2.069791555,2024-06-11 14:04:13.302962
41.34296221,0.6251249313,-0.318544507,2.069791555,2024-06-11 14:04:13.342962
41.38296221,0.6251249313,-0.318544507,2.069791555,2024-06-11 14:04:13.382962
41.42296221,-1.957029819,-10.97737312,0.7199404836,2024-06-11 14:04:13.422962
41.46296221,-11.02642632,-15.36580944,4.450949192,2024-06-11 14:04:13.462962
41.50296221,-7.107580662,-7.7398839,4.15633297,2024-06-11 14:04:13.502962
41.54296221,-5.188536644,-2.117648125,-1.933101535,2024-06-11 14:04:13.542962
41.58296221,-12.46869946,-5.08684206,2.492423773,2024-06-11 14:04:13.582962
41.62296221,-10.63968563,-7.255935669,2.133201361,2024-06-11 14:04:13.622962
41.66296221,-8.606983185,-4.244867325,1.468295813,2024-06-11 14:04:13.662962
41.70296221,-6.768397808,-4.732405186,-3.312862873,2024-06-11 14:04:13.702962
41.74296221,-6.768397808,-4.732405186,-3.312862873,2024-06-11 14:04:13.742962
41.78296221,-6.768397808,-4.732405186,-3.312862873,2024-06-11 14:04:13.782962
41.82296221,-6.768397808,-4.732405186,-3.312862873,2024-06-11 14:04:13.822962
41.86296221,-6.768397808,-4.732405186,-3.312862873,2024-06-11 14:04:13.862962
41.90296221,-6.768397808,-4.732405186,-3.312862873,2024-06-11 14:04:13.902962
41.94296221,-6.768397808,-4.732405186,-3.312862873,2024-06-11 14:04:13.942962
41.98296221,-6.768397808,-4.732405186,-3.312862873,2024-06-11 14:04:13.982962
42.02296221,-6.768397808,-4.732405186,-3.312862873,2024-06-11 14:04:14.022962
42.06296221,-6.768397808,-4.732405186,-3.312862873,2024-06-11 14:04:14.062962
42.10296221,-6.768397808,-4.732405186,-3.312862873,2024-06-11 14:04:14.102962
42.14296221,-6.768397808,-4.732405186,-3.312862873,2024-06-11 14:04:14.142962
42.18296221,-6.768397808,-4.732405186,-3.312862873,2024-06-11 14:04:14.182962
42.22296221,-6.768397808,-4.732405186,-3.312862873,2024-06-11 14:04:14.222962
42.26296221,-6.768397808,-4.732405186,-3.312862873,2024-06-11 14:04:14.262962
42.30296221,-6.768397808,-4.732405186,-3.312862873,2024-06-11 14:04:14.302962
42.34296221,-9.897013664,-7.959126472,-5.37188673,2024-06-11 14:04:14.342962
42.38296221,-9.897013664,-7.959126472,-5.37188673,2024-06-11 14:04:14.382962
42.42296221,-9.897013664,-7.959126472,-5.37188673,2024-06-11 14:04:14.422962
42.46296221,-9.897013664,-7.959126472,-5.37188673,2024-06-11 14:04:14.462962
42.50296221,-9.897013664,-7.959126472,-5.37188673,2024-06-11 14:04:14.502962
42.54296221,-9.897013664,-7.959126472,-5.37188673,2024-06-11 14:04:14.542962
42.58296221,-4.874777794,-10.5978117,8.767601013,2024-06-11 14:04:14.582962
42.62296221,-4.874777794,-10.5978117,8.767601013,2024-06-11 14:04:14.622962
42.66296221,-4.874777794,-10.5978117,8.767601013,2024-06-11 14:04:14.662962
42.70296221,-4.874777794,-10.5978117,8.767601013,2024-06-11 14:04:14.702962
42.74296221,-4.874777794,-10.5978117,8.767601013,2024-06-11 14:04:14.742962
42.78296221,-4.874777794,-10.5978117,8.767601013,2024-06-11 14:04:14.782962
42.82296221,-4.874777794,-10.5978117,8.767601013,2024-06-11 14:04:14.822962
42.86296221,-4.874777794,-10.5978117,8.767601013,2024-06-11 14:04:14.862962
42.90296221,-4.874777794,-10.5978117,8.767601013,2024-06-11 14:04:14.902962
42.94296221,-4.874777794,-10.5978117,8.767601013,2024-06-11 14:04:14.942962
42.98296221,-4.874777794,-10.5978117,8.767601013,2024-06-11 14:04:14.982962
43.02296221,-4.874777794,-10.5978117,8.767601013,2024-06-11 14:04:15.022962
43.06296221,-2.122433662,-6.703791618,-5.568397522,2024-06-11 14:04:15.062962
43.10296221,-7.281060219,-5.139483929,5.949155331,2024-06-11 14:04:15.102962
43.14296221,-11.83011532,-10.25264645,12.3104744,2024-06-11 14:04:15.142962
43.18296221,-6.195915222,-8.210671425,1.445564032,2024-06-11 14:04:15.182962
43.22296221,-4.139284134,-6.143272877,-2.554936409,2024-06-11 14:04:15.222962
43.26296221,-5.472385406,-7.815258026,-0.7127620578,2024-06-11 14:04:15.262962
43.30296221,-5.55882597,-7.633403301,0.8647062778,2024-06-11 14:04:15.302962
43.34296221,-6.211468697,-7.324131012,2.440978289,2024-06-11 14:04:15.342962
43.38296221,-6.682256222,-7.198507786,0.375972271,2024-06-11 14:04:15.382962
43.42296221,-6.682256222,-7.198507786,0.375972271,2024-06-11 14:04:15.422962
43.46296221,-6.682256222,-7.198507786,0.375972271,2024-06-11 14:04:15.462962
43.50296221,-6.682256222,-7.198507786,0.375972271,2024-06-11 14:04:15.502962
43.54296221,-6.682256222,-7.198507786,0.375972271,2024-06-11 14:04:15.542962
43.58296221,1.192822099,-11.25045395,38.20470428,2024-06-11 14:04:15.582962
43.62296221,1.192822099,-11.25045395,38.20470428,2024-06-11 14:04:15.622962
43.66296221,1.192822099,-11.25045395,38.20470428,2024-06-11 14:04:15.662962
43.70296221,1.192822099,-11.25045395,38.20470428,2024-06-11 14:04:15.702962
43.74296221,1.192822099,-11.25045395,38.20470428,2024-06-11 14:04:15.742962
43.78296221,1.192822099,-11.25045395,38.20470428,2024-06-11 14:04:15.782962
43.82296221,1.192822099,-11.25045395,38.20470428,2024-06-11 14:04:15.822962
43.86296221,1.192822099,-11.25045395,38.20470428,2024-06-11 14:04:15.862962
43.90296221,1.192822099,-11.25045395,38.20470428,2024-06-11 14:04:15.902962
43.94296221,1.192822099,-11.25045395,38.20470428,2024-06-11 14:04:15.942962
43.98296221,1.192822099,-11.25045395,38.20470428,2024-06-11 14:04:15.982962
44.02296221,1.192822099,-11.25045395,38.20470428,2024-06-11 14:04:16.022962
44.06296221,1.192822099,-11.25045395,38.20470428,2024-06-11 14:04:16.062962
44.10296221,1.192822099,-11.25045395,38.20470428,2024-06-11 14:04:16.102962
44.14296221,1.192822099,-11.25045395,38.20470428,2024-06-11 14:04:16.142962
44.18296221,1.192822099,-11.25045395,38.20470428,2024-06-11 14:04:16.182962
44.22296221,1.192822099,-11.25045395,38.20470428,2024-06-11 14:04:16.222962
44.26296221,1.192822099,-11.25045395,38.20470428,2024-06-11 14:04:16.262962
44.30296221,1.192822099,-11.25045395,38.20470428,2024-06-11 14:04:16.302962
44.34296221,1.192822099,-11.25045395,38.20470428,2024-06-11 14:04:16.342962
44.38296221,1.192822099,-11.25045395,38.20470428,2024-06-11 14:04:16.382962
44.42296221,1.192822099,-11.25045395,38.20470428,2024-06-11 14:04:16.422962
44.46296221,1.192822099,-11.25045395,38.20470428,2024-06-11 14:04:16.462962
44.50296221,1.192822099,-11.25045395,38.20470428,2024-06-11 14:04:16.502962
44.54296221,1.192822099,-11.25045395,38.20470428,2024-06-11 14:04:16.542962
44.58296221,1.192822099,-11.25045395,38.20470428,2024-06-11 14:04:16.582962
44.62296221,1.192822099,-11.25045395,38.20470428,2024-06-11 14:04:16.622962
44.66296221,1.192822099,-11.25045395,38.20470428,2024-06-11 14:04:16.662962
44.70296221,1.192822099,-11.25045395,38.20470428,2024-06-11 14:04:16.702962
44.74296221,-11.28514957,-5.530112267,-0.8192426562,2024-06-11 14:04:16.742962
44.78296221,-10.7042923,-7.686045647,-0.2730808854,2024-06-11 14:04:16.782962
44.82296221,-9.387940407,-8.929117203,3.378964663,2024-06-11 14:04:16.822962
44.86296221,-10.37019444,-6.446264267,9.277871132,2024-06-11 14:04:16.862962
44.90296221,-7.720741272,-9.021539688,1.628913999,2024-06-11 14:04:16.902962
44.94296221,-6.839285374,-14.31924915,-3.61615324,2024-06-11 14:04:16.942962
44.98296221,-7.457231998,-13.44108295,-3.926322937,2024-06-11 14:04:16.982962
45.02296221,-6.272485256,-7.197311401,3.299702406,2024-06-11 14:04:17.022962
45.06296221,-7.501499176,-3.658027649,-0.171385929,2024-06-11 14:04:17.062962
45.10296221,-3.486641645,-0.2168495506,-3.732205153,2024-06-11 14:04:17.102962
45.14296221,-3.486641645,-0.2168495506,-3.732205153,2024-06-11 14:04:17.142962
45.18296221,-3.486641645,-0.2168495506,-3.732205153,2024-06-11 14:04:17.182962
45.22296221,-3.486641645,-0.2168495506,-3.732205153,2024-06-11 14:04:17.222962
45.26296221,-3.486641645,-0.2168495506,-3.732205153,2024-06-11 14:04:17.262962
45.30296221,-3.486641645,-0.2168495506,-3.732205153,2024-06-11 14:04:17.302962
45.34296221,-5.901299,-11.9787693,-1.146162033,2024-06-11 14:04:17.342962
45.38296221,-5.901299,-11.9787693,-1.146162033,2024-06-11 14:04:17.382962
45.42296221,-5.901299,-11.9787693,-1.146162033,2024-06-11 14:04:17.422962
45.46296221,-5.901299,-11.9787693,-1.146162033,2024-06-11 14:04:17.462962
45.50296221,-5.901299,-11.9787693,-1.146162033,2024-06-11 14:04:17.502962
45.54296221,-5.901299,-11.9787693,-1.146162033,2024-06-11 14:04:17.542962
45.58296221,-5.901299,-11.9787693,-1.146162033,2024-06-11 14:04:17.582962
45.62296221,-5.901299,-11.9787693,-1.146162033,2024-06-11 14:04:17.622962
45.66296221,-5.901299,-11.9787693,-1.146162033,2024-06-11 14:04:17.662962
45.70296221,-5.901299,-11.9787693,-1.146162033,2024-06-11 14:04:17.702962
45.74296221,-5.901299,-11.9787693,-1.146162033,2024-06-11 14:04:17.742962
45.78296221,-5.901299,-11.9787693,-1.146162033,2024-06-11 14:04:17.782962
45.82296221,-5.901299,-11.9787693,-1.146162033,2024-06-11 14:04:17.822962
45.86296221,-5.901299,-11.9787693,-1.146162033,2024-06-11 14:04:17.862962
45.90296221,-5.901299,-11.9787693,-1.146162033,2024-06-11 14:04:17.902962
45.94296221,-5.901299,-11.9787693,-1.146162033,2024-06-11 14:04:17.942962
45.98296221,-5.901299,-11.9787693,-1.146162033,2024-06-11 14:04:17.982962
46.02296221,-5.901299,-11.9787693,-1.146162033,2024-06-11 14:04:18.022962
46.06296221,-5.901299,-11.9787693,-1.146162033,2024-06-11 14:04:18.062962
46.10296221,-5.901299,-11.9787693,-1.146162033,2024-06-11 14:04:18.102962
46.14296221,-5.901299,-11.9787693,-1.146162033,2024-06-11 14:04:18.142962
46.18296221,-5.901299,-11.9787693,-1.146162033,2024-06-11 14:04:18.182962
46.22296221,-5.901299,-11.9787693,-1.146162033,2024-06-11 14:04:18.222962
46.26296221,-5.901299,-11.9787693,-1.146162033,2024-06-11 14:04:18.262962
46.30296221,-5.901299,-11.9787693,-1.146162033,2024-06-11 14:04:18.302962
46.34296221,-5.901299,-11.9787693,-1.146162033,2024-06-11 14:04:18.342962
46.38296221,-5.901299,-11.9787693,-1.146162033,2024-06-11 14:04:18.382962
46.42296221,-5.351547718,-4.843671322,5.54805851,2024-06-11 14:04:18.422962
46.46296221,-4.800600529,-7.006783009,0.347258389,2024-06-11 14:04:18.462962
46.50296221,-8.258528709,-10.48624611,3.396910906,2024-06-11 14:04:18.502962
46.54296221,-7.412964344,-6.077470303,-1.257727385,2024-06-11 14:04:18.542962
46.58296221,-6.896713257,-7.588837147,0.9233304262,2024-06-11 14:04:18.582962
46.62296221,-5.734698772,-10.28136063,3.714258909,2024-06-11 14:04:18.622962
46.66296221,-4.093820572,-11.56899834,4.197010994,2024-06-11 14:04:18.662962
46.70296221,-4.701298237,-8.793922424,5.784050465,2024-06-11 14:04:18.702962
46.74296221,-5.570790291,-7.493124008,1.252941728,2024-06-11 14:04:18.742962
46.78296221,-5.570790291,-7.493124008,1.252941728,2024-06-11 14:04:18.782962
46.82296221,-5.570790291,-7.493124008,1.252941728,2024-06-11 14:04:18.822962
46.86296221,-5.570790291,-7.493124008,1.252941728,2024-06-11 14:04:18.862962
46.90296221,-5.570790291,-7.493124008,1.252941728,2024-06-11 14:04:18.902962
46.94296221,-5.570790291,-7.493124008,1.252941728,2024-06-11 14:04:18.942962
46.98296221,-5.570790291,-7.493124008,1.252941728,2024-06-11 14:04:18.982962
47.02296221,-5.570790291,-7.493124008,1.252941728,2024-06-11 14:04:19.022962
47.06296221,-5.570790291,-7.493124008,1.252941728,2024-06-11 14:04:19.062962
47.10296221,-5.570790291,-7.493124008,1.252941728,2024-06-11 14:04:19.102962
47.14296221,-5.570790291,-7.493124008,1.252941728,2024-06-11 14:04:19.142962
47.18296221,-5.570790291,-7.493124008,1.252941728,2024-06-11 14:04:19.182962
47.22296221,-5.570790291,-7.493124008,1.252941728,2024-06-11 14:04:19.222962
47.26296221,-5.570790291,-7.493124008,1.252941728,2024-06-11 14:04:19.262962
47.30296221,-5.570790291,-7.493124008,1.252941728,2024-06-11 14:04:19.302962
47.34296221,-5.570790291,-7.493124008,1.252941728,2024-06-11 14:04:19.342962
47.38296221,-5.570790291,-7.493124008,1.252941728,2024-06-11 14:04:19.382962
47.42296221,-5.570790291,-7.493124008,1.252941728,2024-06-11 14:04:19.422962
47.46296221,-5.570790291,-7.493124008,1.252941728,2024-06-11 14:04:19.462962
47.50296221,-5.570790291,-7.493124008,1.252941728,2024-06-11 14:04:19.502962
47.54296221,-5.570790291,-7.493124008,1.252941728,2024-06-11 14:04:19.542962
47.58296221,-11.03599739,-4.165904045,1.656431437,2024-06-11 14:04:19.582962
47.62296221,-11.03599739,-4.165904045,1.656431437,2024-06-11 14:04:19.622962
47.66296221,-11.03599739,-4.165904045,1.656431437,2024-06-11 14:04:19.662962
47.70296221,-11.03599739,-4.165904045,1.656431437,2024-06-11 14:04:19.702962
47.74296221,-11.03599739,-4.165904045,1.656431437,2024-06-11 14:04:19.742962
47.78296221,-11.03599739,-4.165904045,1.656431437,2024-06-11 14:04:19.782962
47.82296221,-11.03599739,-4.165904045,1.656431437,2024-06-11 14:04:19.822962
47.86296221,-11.03599739,-4.165904045,1.656431437,2024-06-11 14:04:19.862962
47.90296221,-11.03599739,-4.165904045,1.656431437,2024-06-11 14:04:19.902962
47.94296221,-11.03599739,-4.165904045,1.656431437,2024-06-11 14:04:19.942962
47.98296221,-11.03599739,-4.165904045,1.656431437,2024-06-11 14:04:19.982962
48.02296221,-11.03599739,-4.165904045,1.656431437,2024-06-11 14:04:20.022962
48.06296221,-11.03599739,-4.165904045,1.656431437,2024-06-11 14:04:20.062962
48.10296221,-12.13908863,-4.47009182,2.99551487,2024-06-11 14:04:20.102962
48.14296221,-9.414261818,-9.112466812,10.73300552,2024-06-11 14:04:20.142962
48.18296221,-5.908477306,-9.306584358,4.884349346,2024-06-11 14:04:20.182962
48.22296221,-7.028318405,-10.16052341,-0.470787853,2024-06-11 14:04:20.222962
48.26296221,-6.367300987,-5.66052103,-3.037389278,2024-06-11 14:04:20.262962
48.30296221,-8.61296463,-4.078267097,-2.635095835,2024-06-11 14:04:20.302962
48.34296221,-8.345866203,-8.507680893,-1.012163997,2024-06-11 14:04:20.342962
48.38296221,-8.953044891,-6.641578197,3.479463339,2024-06-11 14:04:20.382962
48.42296221,-8.953044891,-6.641578197,3.479463339,2024-06-11 14:04:20.422962
48.46296221,-8.953044891,-6.641578197,3.479463339,2024-06-11 14:04:20.462962
48.50296221,-8.953044891,-6.641578197,3.479463339,2024-06-11 14:04:20.502962
48.54296221,-8.953044891,-6.641578197,3.479463339,2024-06-11 14:04:20.542962
48.58296221,-8.953044891,-6.641578197,3.479463339,2024-06-11 14:04:20.582962
48.62296221,-8.953044891,-6.641578197,3.479463339,2024-06-11 14:04:20.622962
48.66296221,-8.953044891,-6.641578197,3.479463339,2024-06-11 14:04:20.662962
48.70296221,-8.953044891,-6.641578197,3.479463339,2024-06-11 14:04:20.702962
48.74296221,-8.953044891,-6.641578197,3.479463339,2024-06-11 14:04:20.742962
48.78296221,-8.953044891,-6.641578197,3.479463339,2024-06-11 14:04:20.782962
48.82296221,-8.953044891,-6.641578197,3.479463339,2024-06-11 14:04:20.822962
48.86296221,-8.953044891,-6.641578197,3.479463339,2024-06-11 14:04:20.862962
48.90296221,-8.953044891,-6.641578197,3.479463339,2024-06-11 14:04:20.902962
48.94296221,-8.953044891,-6.641578197,3.479463339,2024-06-11 14:04:20.942962
48.98296221,-8.953044891,-6.641578197,3.479463339,2024-06-11 14:04:20.982962
49.02296221,-8.953044891,-6.641578197,3.479463339,2024-06-11 14:04:21.022962
49.06296221,-8.953044891,-6.641578197,3.479463339,2024-06-11 14:04:21.062962
49.10296221,-8.953044891,-6.641578197,3.479463339,2024-06-11 14:04:21.102962
49.14296221,-8.953044891,-6.641578197,3.479463339,2024-06-11 14:04:21.142962
49.18296221,-8.953044891,-6.641578197,3.479463339,2024-06-11 14:04:21.182962
49.22296221,-8.953044891,-6.641578197,3.479463339,2024-06-11 14:04:21.222962
49.26296221,-8.953044891,-6.641578197,3.479463339,2024-06-11 14:04:21.262962
49.30296221,-8.953044891,-6.641578197,3.479463339,2024-06-11 14:04:21.302962
49.34296221,-8.953044891,-6.641578197,3.479463339,2024-06-11 14:04:21.342962
49.38296221,-8.953044891,-6.641578197,3.479463339,2024-06-11 14:04:21.382962
49.42296221,-8.953044891,-6.641578197,3.479463339,2024-06-11 14:04:21.422962
49.46296221,-8.953044891,-6.641578197,3.479463339,2024-06-11 14:04:21.462962
49.50296221,-8.953044891,-6.641578197,3.479463339,2024-06-11 14:04:21.502962
49.54296221,-8.953044891,-6.641578197,3.479463339,2024-06-11 14:04:21.542962
49.58296221,-8.953044891,-6.641578197,3.479463339,2024-06-11 14:04:21.582962
49.62296221,-8.953044891,-6.641578197,3.479463339,2024-06-11 14:04:21.622962
49.66296221,-8.953044891,-6.641578197,3.479463339,2024-06-11 14:04:21.662962
49.70296221,-8.953044891,-6.641578197,3.479463339,2024-06-11 14:04:21.702962
49.74296221,-7.719544888,-6.140880108,0.3065803945,2024-06-11 14:04:21.742962
49.78296221,-7.428517818,-6.643970966,1.190429211,2024-06-11 14:04:21.782962
49.82296221,-5.967101574,-5.891727448,-2.583650351,2024-06-11 14:04:21.822962
49.86296221,-5.395814896,-6.734898567,-6.309873104,2024-06-11 14:04:21.862962
49.90296221,-7.774580002,-11.61805153,1.928315997,2024-06-11 14:04:21.902962
49.94296221,-4.488038063,-10.92114162,8.434700012,2024-06-11 14:04:21.942962
49.98296221,-12.66730404,-4.952843666,9.734002113,2024-06-11 14:04:21.982962
50.02296221,-14.00997639,-7.121937275,11.96919823,2024-06-11 14:04:22.022962
50.06296221,-5.944369793,-5.030610561,1.960619092,2024-06-11 14:04:22.062962
50.10296221,-3.949054718,-2.348854542,0.2670988142,2024-06-11 14:04:22.102962
50.14296221,-3.949054718,-2.348854542,0.2670988142,2024-06-11 14:04:22.142962
50.18296221,-3.949054718,-2.348854542,0.2670988142,2024-06-11 14:04:22.182962
50.22296221,-3.949054718,-2.348854542,0.2670988142,2024-06-11 14:04:22.222962
50.26296221,-3.949054718,-2.348854542,0.2670988142,2024-06-11 14:04:22.262962
50.30296221,-3.949054718,-2.348854542,0.2670988142,2024-06-11 14:04:22.302962
50.34296221,-7.503891945,-7.735098362,-0.5569294691,2024-06-11 14:04:22.342962
50.38296221,-7.503891945,-7.735098362,-0.5569294691,2024-06-11 14:04:22.382962
50.42296221,-7.503891945,-7.735098362,-0.5569294691,2024-06-11 14:04:22.422962
50.46296221,-7.503891945,-7.735098362,-0.5569294691,2024-06-11 14:04:22.462962
50.50296221,-7.503891945,-7.735098362,-0.5569294691,2024-06-11 14:04:22.502962
50.54296221,-7.503891945,-7.735098362,-0.5569294691,2024-06-11 14:04:22.542962
50.58296221,-8.780761719,-3.048156977,-1.290030479,2024-06-11 14:04:22.582962
50.62296221,-8.780761719,-3.048156977,-1.290030479,2024-06-11 14:04:22.622962
50.66296221,-8.780761719,-3.048156977,-1.290030479,2024-06-11 14:04:22.662962
50.70296221,-8.780761719,-3.048156977,-1.290030479,2024-06-11 14:04:22.702962
50.74296221,-8.780761719,-3.048156977,-1.290030479,2024-06-11 14:04:22.742962
50.78296221,-8.780761719,-3.048156977,-1.290030479,2024-06-11 14:04:22.782962
50.82296221,-8.780761719,-3.048156977,-1.290030479,2024-06-11 14:04:22.822962
50.86296221,-8.780761719,-3.048156977,-1.290030479,2024-06-11 14:04:22.862962
50.90296221,-8.780761719,-3.048156977,-1.290030479,2024-06-11 14:04:22.902962
50.94296221,-8.780761719,-3.048156977,-1.290030479,2024-06-11 14:04:22.942962
50.98296221,-8.780761719,-3.048156977,-1.290030479,2024-06-11 14:04:22.982962
51.02296221,-8.780761719,-3.048156977,-1.290030479,2024-06-11 14:04:23.022962
51.06296221,-8.780761719,-3.048156977,-1.290030479,2024-06-11 14:04:23.062962
51.10296221,-8.780761719,-3.048156977,-1.290030479,2024-06-11 14:04:23.102962
51.14296221,-8.780761719,-3.048156977,-1.290030479,2024-06-11 14:04:23.142962
51.18296221,-8.780761719,-3.048156977,-1.290030479,2024-06-11 14:04:23.182962
51.22296221,-8.780761719,-3.048156977,-1.290030479,2024-06-11 14:04:23.222962
51.26296221,-8.780761719,-3.048156977,-1.290030479,2024-06-11 14:04:23.262962
51.30296221,-8.780761719,-3.048156977,-1.290030479,2024-06-11 14:04:23.302962
51.34296221,-8.780761719,-3.048156977,-1.290030479,2024-06-11 14:04:23.342962
51.38296221,-8.780761719,-3.048156977,-1.290030479,2024-06-11 14:04:23.382962
51.42296221,-3.81595397,-15.13011646,1.899602056,2024-06-11 14:04:23.422962
51.46296221,2.442174673,-11.74516964,5.719145298,2024-06-11 14:04:23.462962
51.50296221,6.327819347,-6.318248272,-0.9643075466,2024-06-11 14:04:23.502962
51.54296221,0.04187439755,-4.441378117,-1.31276238,2024-06-11 14:04:23.542962
51.58296221,-3.588336706,-10.0082798,-3.01226449,2024-06-11 14:04:23.582962
51.62296221,-9.007183075,-16.23560143,4.811367989,2024-06-11 14:04:23.622962
51.66296221,-1.346261859,-11.32941723,7.575676441,2024-06-11 14:04:23.662962
51.70296221,-4.118945122,-11.1128664,17.66202164,2024-06-11 14:04:23.702962
51.74296221,3.147758245,-10.22871876,-1.11984098,2024-06-11 14:04:23.742962
51.78296221,3.147758245,-10.22871876,-1.11984098,2024-06-11 14:04:23.782962
51.82296221,3.147758245,-10.22871876,-1.11984098,2024-06-11 14:04:23.822962
51.86296221,3.147758245,-10.22871876,-1.11984098,2024-06-11 14:04:23.862962
51.90296221,3.147758245,-10.22871876,-1.11984098,2024-06-11 14:04:23.902962
51.94296221,3.147758245,-10.22871876,-1.11984098,2024-06-11 14:04:23.942962
51.98296221,3.147758245,-10.22871876,-1.11984098,2024-06-11 14:04:23.982962
52.02296221,3.147758245,-10.22871876,-1.11984098,2024-06-11 14:04:24.022962
52.06296221,3.147758245,-10.22871876,-1.11984098,2024-06-11 14:04:24.062962
52.10296221,3.147758245,-10.22871876,-1.11984098,2024-06-11 14:04:24.102962
52.14296221,3.147758245,-10.22871876,-1.11984098,2024-06-11 14:04:24.142962
52.18296221,3.147758245,-10.22871876,-1.11984098,2024-06-11 14:04:24.182962
52.22296221,3.147758245,-10.22871876,-1.11984098,2024-06-11 14:04:24.222962
52.26296221,3.147758245,-10.22871876,-1.11984098,2024-06-11 14:04:24.262962
52.30296221,3.147758245,-10.22871876,-1.11984098,2024-06-11 14:04:24.302962
52.34296221,-6.897909641,-10.89482021,2.793022156,2024-06-11 14:04:24.342962
52.38296221,-6.897909641,-10.89482021,2.793022156,2024-06-11 14:04:24.382962
52.42296221,-6.897909641,-10.89482021,2.793022156,2024-06-11 14:04:24.422962
52.46296221,-6.897909641,-10.89482021,2.793022156,2024-06-11 14:04:24.462962
52.50296221,-6.897909641,-10.89482021,2.793022156,2024-06-11 14:04:24.502962
52.54296221,-6.897909641,-10.89482021,2.793022156,2024-06-11 14:04:24.542962
52.58296221,-4.507180691,-4.797011375,0.1594218016,2024-06-11 14:04:24.582962
52.62296221,-4.507180691,-4.797011375,0.1594218016,2024-06-11 14:04:24.622962
52.66296221,-4.507180691,-4.797011375,0.1594218016,2024-06-11 14:04:24.662962
52.70296221,-4.507180691,-4.797011375,0.1594218016,2024-06-11 14:04:24.702962
52.74296221,-4.507180691,-4.797011375,0.1594218016,2024-06-11 14:04:24.742962
52.78296221,-4.507180691,-4.797011375,0.1594218016,2024-06-11 14:04:24.782962
52.82296221,-4.507180691,-4.797011375,0.1594218016,2024-06-11 14:04:24.822962
52.86296221,-4.507180691,-4.797011375,0.1594218016,2024-06-11 14:04:24.862962
52.90296221,-4.507180691,-4.797011375,0.1594218016,2024-06-11 14:04:24.902962
52.94296221,-4.507180691,-4.797011375,0.1594218016,2024-06-11 14:04:24.942962
52.98296221,-4.507180691,-4.797011375,0.1594218016,2024-06-11 14:04:24.982962
53.02296221,-4.507180691,-4.797011375,0.1594218016,2024-06-11 14:04:25.022962
53.06296221,-4.507180691,-4.797011375,0.1594218016,2024-06-11 14:04:25.062962
53.10296221,-10.4288187,-4.580161572,-1.802692771,2024-06-11 14:04:25.102962
53.14296221,-12.99332619,-5.258227825,-0.8754739761,2024-06-11 14:04:25.142962
53.18296221,-6.890730858,-5.754140377,1.660020709,2024-06-11 14:04:25.182962
53.22296221,-5.716752529,-7.574480057,-0.2192423791,2024-06-11 14:04:25.222962
53.26296221,-5.38624382,-6.966104984,-2.263610125,2024-06-11 14:04:25.262962
53.30296221,-7.263113976,-6.046363831,-3.439981699,2024-06-11 14:04:25.302962
53.34296221,-7.402196884,-7.596015453,-0.6454638839,2024-06-11 14:04:25.342962
53.38296221,-6.468996048,-7.406982422,0.6804589629,2024-06-11 14:04:25.382962
53.42296221,-7.142276287,-6.340980053,-0.8371888399,2024-06-11 14:04:25.422962
53.46296221,-7.142276287,-6.340980053,-0.8371888399,2024-06-11 14:04:25.462962
53.50296221,-7.142276287,-6.340980053,-0.8371888399,2024-06-11 14:04:25.502962
53.54296221,-7.142276287,-6.340980053,-0.8371888399,2024-06-11 14:04:25.542962
53.58296221,-7.169794083,-6.783951283,-1.186840057,2024-06-11 14:04:25.582962
53.62296221,-7.169794083,-6.783951283,-1.186840057,2024-06-11 14:04:25.622962
53.66296221,-7.169794083,-6.783951283,-1.186840057,2024-06-11 14:04:25.662962
53.70296221,-7.169794083,-6.783951283,-1.186840057,2024-06-11 14:04:25.702962
53.74296221,-7.169794083,-6.783951283,-1.186840057,2024-06-11 14:04:25.742962
53.78296221,-7.169794083,-6.783951283,-1.186840057,2024-06-11 14:04:25.782962
53.82296221,-7.169794083,-6.783951283,-1.186840057,2024-06-11 14:04:25.822962
53.86296221,-7.169794083,-6.783951283,-1.186840057,2024-06-11 14:04:25.862962
53.90296221,-7.169794083,-6.783951283,-1.186840057,2024-06-11 14:04:25.902962
53.94296221,-7.169794083,-6.783951283,-1.186840057,2024-06-11 14:04:25.942962
53.98296221,-7.169794083,-6.783951283,-1.186840057,2024-06-11 14:04:25.982962
54.02296221,-7.169794083,-6.783951283,-1.186840057,2024-06-11 14:04:26.022962
54.06296221,-7.169794083,-6.783951283,-1.186840057,2024-06-11 14:04:26.062962
54.10296221,-7.169794083,-6.783951283,-1.186840057,2024-06-11 14:04:26.102962
54.14296221,-7.169794083,-6.783951283,-1.186840057,2024-06-11 14:04:26.142962
54.18296221,-7.169794083,-6.783951283,-1.186840057,2024-06-11 14:04:26.182962
54.22296221,-7.169794083,-6.783951283,-1.186840057,2024-06-11 14:04:26.222962
54.26296221,-7.169794083,-6.783951283,-1.186840057,2024-06-11 14:04:26.262962
54.30296221,-7.169794083,-6.783951283,-1.186840057,2024-06-11 14:04:26.302962
54.34296221,-7.169794083,-6.783951283,-1.186840057,2024-06-11 14:04:26.342962
54.38296221,-7.169794083,-6.783951283,-1.186840057,2024-06-11 14:04:26.382962
54.42296221,-7.169794083,-6.783951283,-1.186840057,2024-06-11 14:04:26.422962
54.46296221,-7.169794083,-6.783951283,-1.186840057,2024-06-11 14:04:26.462962
54.50296221,-7.169794083,-6.783951283,-1.186840057,2024-06-11 14:04:26.502962
54.54296221,-7.169794083,-6.783951283,-1.186840057,2024-06-11 14:04:26.542962
54.58296221,-9.568898201,-6.234200478,6.227021694,2024-06-11 14:04:26.582962
54.62296221,-9.568898201,-6.234200478,6.227021694,2024-06-11 14:04:26.622962
54.66296221,-9.568898201,-6.234200478,6.227021694,2024-06-11 14:04:26.662962
54.70296221,-9.568898201,-6.234200478,6.227021694,2024-06-11 14:04:26.702962
54.74296221,-9.568898201,-6.234200478,6.227021694,2024-06-11 14:04:26.742962
54.78296221,-2.726023197,-11.4445715,-1.65762794,2024-06-11 14:04:26.782962
54.82296221,-1.044467092,-5.011467934,-1.123430252,2024-06-11 14:04:26.822962
54.86296221,-7.546962738,-12.14267731,-2.885445118,2024-06-11 14:04:26.862962
54.90296221,-5.263013363,-8.370990753,-0.2850449979,2024-06-11 14:04:26.902962
54.94296221,-9.293423653,-5.921638012,9.702896118,2024-06-11 14:04:26.942962
54.98296221,-8.747262001,-6.937391281,-4.818546772,2024-06-11 14:04:26.982962
55.02296221,-5.064109802,-3.629313707,0.0143569354,2024-06-11 14:04:27.022962
55.06296221,-7.162615299,-7.00439024,0.9822536707,2024-06-11 14:04:27.062962
55.10296221,-4.232903481,-8.93031311,3.472284794,2024-06-11 14:04:27.102962
55.14296221,-4.232903481,-8.93031311,3.472284794,2024-06-11 14:04:27.142962
55.18296221,-4.232903481,-8.93031311,3.472284794,2024-06-11 14:04:27.182962
55.22296221,-4.232903481,-8.93031311,3.472284794,2024-06-11 14:04:27.222962
55.26296221,-4.232903481,-8.93031311,3.472284794,2024-06-11 14:04:27.262962
55.30296221,-4.232903481,-8.93031311,3.472284794,2024-06-11 14:04:27.302962
55.34296221,-6.65114975,-6.318248272,1.434796333,2024-06-11 14:04:27.342962
55.38296221,-6.65114975,-6.318248272,1.434796333,2024-06-11 14:04:27.382962
55.42296221,-6.65114975,-6.318248272,1.434796333,2024-06-11 14:04:27.422962
55.46296221,-6.65114975,-6.318248272,1.434796333,2024-06-11 14:04:27.462962
55.50296221,-6.65114975,-6.318248272,1.434796333,2024-06-11 14:04:27.502962
55.54296221,-6.65114975,-6.318248272,1.434796333,2024-06-11 14:04:27.542962
55.58296221,-7.822436333,-4.703691006,6.762415886,2024-06-11 14:04:27.582962
55.62296221,-7.822436333,-4.703691006,6.762415886,2024-06-11 14:04:27.622962
55.66296221,-7.822436333,-4.703691006,6.762415886,2024-06-11 14:04:27.662962
55.70296221,-7.822436333,-4.703691006,6.762415886,2024-06-11 14:04:27.702962
55.74296221,-7.822436333,-4.703691006,6.762415886,2024-06-11 14:04:27.742962
55.78296221,-7.822436333,-4.703691006,6.762415886,2024-06-11 14:04:27.782962
55.82296221,-7.822436333,-4.703691006,6.762415886,2024-06-11 14:04:27.822962
55.86296221,-7.822436333,-4.703691006,6.762415886,2024-06-11 14:04:27.862962
55.90296221,-7.822436333,-4.703691006,6.762415886,2024-06-11 14:04:27.902962
55.94296221,-7.822436333,-4.703691006,6.762415886,2024-06-11 14:04:27.942962
55.98296221,-7.822436333,-4.703691006,6.762415886,2024-06-11 14:04:27.982962
56.02296221,-7.822436333,-4.703691006,6.762415886,2024-06-11 14:04:28.022962
56.06296221,-7.822436333,-4.703691006,6.762415886,2024-06-11 14:04:28.062962
56.10296221,-7.822436333,-4.703691006,6.762415886,2024-06-11 14:04:28.102962
56.14296221,-7.822436333,-4.703691006,6.762415886,2024-06-11 14:04:28.142962
56.18296221,-7.822436333,-4.703691006,6.762415886,2024-06-11 14:04:28.182962
56.22296221,-7.822436333,-4.703691006,6.762415886,2024-06-11 14:04:28.222962
56.26296221,-7.822436333,-4.703691006,6.762415886,2024-06-11 14:04:28.262962
56.30296221,-7.822436333,-4.703691006,6.762415886,2024-06-11 14:04:28.302962
56.34296221,-7.822436333,-4.703691006,6.762415886,2024-06-11 14:04:28.342962
56.38296221,-7.822436333,-4.703691006,6.762415886,2024-06-11 14:04:28.382962
56.42296221,-7.822436333,-4.703691006,6.762415886,2024-06-11 14:04:28.422962
56.46296221,-6.95055151,-6.397211552,-2.290230274,2024-06-11 14:04:28.462962
56.50296221,-7.959126472,-6.264110565,-0.06699903309,2024-06-11 14:04:28.502962
56.54296221,-6.534798622,-6.748058796,2.036292076,2024-06-11 14:04:28.542962
56.58296221,-7.154240608,-7.00439024,1.664806366,2024-06-11 14:04:28.582962
56.62296221,-8.262117386,-6.227021694,0.6275177598,2024-06-11 14:04:28.622962
56.66296221,-7.285845757,-7.017550468,-0.04307080805,2024-06-11 14:04:28.662962
56.70296221,-10.79880905,-6.993622303,-2.779861689,2024-06-11 14:04:28.702962
56.74296221,-13.4027977,-6.793522358,-3.508177042,2024-06-11 14:04:28.742962
56.78296221,-13.4027977,-6.793522358,-3.508177042,2024-06-11 14:04:28.782962
56.82296221,-13.4027977,-6.793522358,-3.508177042,2024-06-11 14:04:28.822962
56.86296221,-13.4027977,-6.793522358,-3.508177042,2024-06-11 14:04:28.862962
56.90296221,-13.4027977,-6.793522358,-3.508177042,2024-06-11 14:04:28.902962
56.94296221,-13.4027977,-6.793522358,-3.508177042,2024-06-11 14:04:28.942962
56.98296221,-13.4027977,-6.793522358,-3.508177042,2024-06-11 14:04:28.982962
57.02296221,-13.4027977,-6.793522358,-3.508177042,2024-06-11 14:04:29.022962
57.06296221,-13.4027977,-6.793522358,-3.508177042,2024-06-11 14:04:29.062962
57.10296221,-13.4027977,-6.793522358,-3.508177042,2024-06-11 14:04:29.102962
57.14296221,-13.4027977,-6.793522358,-3.508177042,2024-06-11 14:04:29.142962
57.18296221,-13.4027977,-6.793522358,-3.508177042,2024-06-11 14:04:29.182962
57.22296221,-13.4027977,-6.793522358,-3.508177042,2024-06-11 14:04:29.222962
57.26296221,-13.4027977,-6.793522358,-3.508177042,2024-06-11 14:04:29.262962
57.30296221,-13.4027977,-6.793522358,-3.508177042,2024-06-11 14:04:29.302962
57.34296221,-13.4027977,-6.793522358,-3.508177042,2024-06-11 14:04:29.342962
57.38296221,-13.4027977,-6.793522358,-3.508177042,2024-06-11 14:04:29.382962
57.42296221,-13.4027977,-6.793522358,-3.508177042,2024-06-11 14:04:29.422962
57.46296221,-13.4027977,-6.793522358,-3.508177042,2024-06-11 14:04:29.462962
57.50296221,-13.4027977,-6.793522358,-3.508177042,2024-06-11 14:04:29.502962
57.54296221,-13.4027977,-6.793522358,-3.508177042,2024-06-11 14:04:29.542962
57.58296221,-14.55972767,-13.64237881,13.66391468,2024-06-11 14:04:29.582962
57.62296221,-14.55972767,-13.64237881,13.66391468,2024-06-11 14:04:29.622962
57.66296221,-14.55972767,-13.64237881,13.66391468,2024-06-11 14:04:29.662962
57.70296221,-14.55972767,-13.64237881,13.66391468,2024-06-11 14:04:29.702962
57.74296221,-14.55972767,-13.64237881,13.66391468,2024-06-11 14:04:29.742962
57.78296221,-14.55972767,-13.64237881,13.66391468,2024-06-11 14:04:29.782962
57.82296221,-14.55972767,-13.64237881,13.66391468,2024-06-11 14:04:29.822962
57.86296221,-14.55972767,-13.64237881,13.66391468,2024-06-11 14:04:29.862962
57.90296221,-14.55972767,-13.64237881,13.66391468,2024-06-11 14:04:29.902962
57.94296221,-14.55972767,-13.64237881,13.66391468,2024-06-11 14:04:29.942962
57.98296221,-14.55972767,-13.64237881,13.66391468,2024-06-11 14:04:29.982962
58.02296221,-14.55972767,-13.64237881,13.66391468,2024-06-11 14:04:30.022962
58.06296221,-14.55972767,-13.64237881,13.66391468,2024-06-11 14:04:30.062962
58.10296221,-14.55972767,-13.64237881,13.66391468,2024-06-11 14:04:30.102962
58.14296221,-7.129116058,-6.34815836,0.2060818523,2024-06-11 14:04:30.142962
58.18296221,-7.681259632,-6.187540054,-0.01914258115,2024-06-11 14:04:30.182962
58.22296221,-7.393822193,-6.192326069,-0.8946165442,2024-06-11 14:04:30.222962
58.26296221,-7.023532867,-6.783951283,-0.5306084156,2024-06-11 14:04:30.262962
58.30296221,-7.562515736,-6.771986961,0.05623133108,2024-06-11 14:04:30.302962
58.34296221,-7.829614639,-5.574379444,0.2048854381,2024-06-11 14:04:30.342962
58.38296221,-7.051050186,-7.073781967,0.2324029058,2024-06-11 14:04:30.382962
58.42296221,-6.188736439,-7.489534855,1.037288666,2024-06-11 14:04:30.422962
58.46296221,-6.188736439,-7.489534855,1.037288666,2024-06-11 14:04:30.462962
58.50296221,-6.188736439,-7.489534855,1.037288666,2024-06-11 14:04:30.502962
58.54296221,-6.188736439,-7.489534855,1.037288666,2024-06-11 14:04:30.542962
58.58296221,-6.712166786,-6.510870457,0.01794617064,2024-06-11 14:04:30.582962
58.62296221,-6.712166786,-6.510870457,0.01794617064,2024-06-11 14:04:30.622962
58.66296221,-6.712166786,-6.510870457,0.01794617064,2024-06-11 14:04:30.662962
58.70296221,-6.712166786,-6.510870457,0.01794617064,2024-06-11 14:04:30.702962
58.74296221,-6.712166786,-6.510870457,0.01794617064,2024-06-11 14:04:30.742962
58.78296221,-6.712166786,-6.510870457,0.01794617064,2024-06-11 14:04:30.782962
58.82296221,-6.712166786,-6.510870457,0.01794617064,2024-06-11 14:04:30.822962
58.86296221,-6.712166786,-6.510870457,0.01794617064,2024-06-11 14:04:30.862962
58.90296221,-6.712166786,-6.510870457,0.01794617064,2024-06-11 14:04:30.902962
58.94296221,-6.712166786,-6.510870457,0.01794617064,2024-06-11 14:04:30.942962
58.98296221,-6.712166786,-6.510870457,0.01794617064,2024-06-11 14:04:30.982962
59.02296221,-6.712166786,-6.510870457,0.01794617064,2024-06-11 14:04:31.022962
59.06296221,-6.712166786,-6.510870457,0.01794617064,2024-06-11 14:04:31.062962
59.10296221,-6.712166786,-6.510870457,0.01794617064,2024-06-11 14:04:31.102962
59.14296221,-6.712166786,-6.510870457,0.01794617064,2024-06-11 14:04:31.142962
59.18296221,-6.712166786,-6.510870457,0.01794617064,2024-06-11 14:04:31.182962
59.22296221,-6.712166786,-6.510870457,0.01794617064,2024-06-11 14:04:31.222962
59.26296221,-6.712166786,-6.510870457,0.01794617064,2024-06-11 14:04:31.262962
59.30296221,-6.712166786,-6.510870457,0.01794617064,2024-06-11 14:04:31.302962
59.34296221,-6.712166786,-6.510870457,0.01794617064,2024-06-11 14:04:31.342962
59.38296221,-6.712166786,-6.510870457,0.01794617064,2024-06-11 14:04:31.382962
59.42296221,-6.712166786,-6.510870457,0.01794617064,2024-06-11 14:04:31.422962
59.46296221,-6.712166786,-6.510870457,0.01794617064,2024-06-11 14:04:31.462962
59.50296221,-6.712166786,-6.510870457,0.01794617064,2024-06-11 14:04:31.502962
59.54296221,-6.712166786,-6.510870457,0.01794617064,2024-06-11 14:04:31.542962
59.58296221,-8.838189125,-8.536395073,6.940980434,2024-06-11 14:04:31.582962
59.62296221,-8.838189125,-8.536395073,6.940980434,2024-06-11 14:04:31.622962
59.66296221,-8.838189125,-8.536395073,6.940980434,2024-06-11 14:04:31.662962
59.70296221,-8.838189125,-8.536395073,6.940980434,2024-06-11 14:04:31.702962
59.74296221,-8.838189125,-8.536395073,6.940980434,2024-06-11 14:04:31.742962
59.78296221,-6.764808655,-6.318248272,1.112662554,2024-06-11 14:04:31.782962
59.82296221,-5.731109142,-6.093023777,0.399900496,2024-06-11 14:04:31.822962
59.86296221,-6.854838848,-6.872784615,1.554736495,2024-06-11 14:04:31.862962
59.90296221,-7.322934628,-6.524031162,3.169293642,2024-06-11 14:04:31.902962
59.94296221,-5.761318684,-7.012764931,0.9583254457,2024-06-11 14:04:31.942962
59.98296221,-6.497709751,-8.487341881,1.21704936,2024-06-11 14:04:31.982962
60.02296221,-6.569793701,-8.051250458,3.390928745,2024-06-11 14:04:32.022962
60.06296221,-2.511566401,-2.702095032,5.444868088,2024-06-11 14:04:32.062962
60.10296221,0.1737787426,-3.394518137,3.845864296,2024-06-11 14:04:32.102962
60.14296221,0.1737787426,-3.394518137,3.845864296,2024-06-11 14:04:32.142962
60.18296221,0.1737787426,-3.394518137,3.845864296,2024-06-11 14:04:32.182962
60.22296221,0.1737787426,-3.394518137,3.845864296,2024-06-11 14:04:32.222962
60.26296221,0.1737787426,-3.394518137,3.845864296,2024-06-11 14:04:32.262962
60.30296221,0.1737787426,-3.394518137,3.845864296,2024-06-11 14:04:32.302962
60.34296221,0.1737787426,-3.394518137,3.845864296,2024-06-11 14:04:32.342962
60.38296221,0.1737787426,-3.394518137,3.845864296,2024-06-11 14:04:32.382962
60.42296221,0.1737787426,-3.394518137,3.845864296,2024-06-11 14:04:32.422962
60.46296221,0.1737787426,-3.394518137,3.845864296,2024-06-11 14:04:32.462962
60.50296221,0.1737787426,-3.394518137,3.845864296,2024-06-11 14:04:32.502962
60.54296221,0.1737787426,-3.394518137,3.845864296,2024-06-11 14:04:32.542962
60.58296221,0.1737787426,-3.394518137,3.845864296,2024-06-11 14:04:32.582962
60.62296221,0.1737787426,-3.394518137,3.845864296,2024-06-11 14:04:32.622962
60.66296221,0.1737787426,-3.394518137,3.845864296,2024-06-11 14:04:32.662962
60.70296221,0.1737787426,-3.394518137,3.845864296,2024-06-11 14:04:32.702962
60.74296221,0.1737787426,-3.394518137,3.845864296,2024-06-11 14:04:32.742962
60.78296221,0.1737787426,-3.394518137,3.845864296,2024-06-11 14:04:32.782962
60.82296221,0.1737787426,-3.394518137,3.845864296,2024-06-11 14:04:32.822962
60.86296221,0.1737787426,-3.394518137,3.845864296,2024-06-11 14:04:32.862962
60.90296221,0.1737787426,-3.394518137,3.845864296,2024-06-11 14:04:32.902962
60.94296221,0.1737787426,-3.394518137,3.845864296,2024-06-11 14:04:32.942962
60.98296221,0.1737787426,-3.394518137,3.845864296,2024-06-11 14:04:32.982962
61.02296221,0.1737787426,-3.394518137,3.845864296,2024-06-11 14:04:33.022962
61.06296221,0.1737787426,-3.394518137,3.845864296,2024-06-11 14:04:33.062962
61.10296221,0.1737787426,-3.394518137,3.845864296,2024-06-11 14:04:33.102962
61.14296221,0.1737787426,-3.394518137,3.845864296,2024-06-11 14:04:33.142962
61.18296221,0.1737787426,-3.394518137,3.845864296,2024-06-11 14:04:33.182962
61.22296221,0.1737787426,-3.394518137,3.845864296,2024-06-11 14:04:33.222962
61.26296221,0.1737787426,-3.394518137,3.845864296,2024-06-11 14:04:33.262962
61.30296221,0.1737787426,-3.394518137,3.845864296,2024-06-11 14:04:33.302962
61.34296221,0.1737787426,-3.394518137,3.845864296,2024-06-11 14:04:33.342962
61.38296221,0.1737787426,-3.394518137,3.845864296,2024-06-11 14:04:33.382962
