Time (s),Gyroscope x (rad/s),Gyroscope y (rad/s),Gyroscope z (rad/s),Datetime
0.149251323,-1.074287534,-0.1541924775,0.9027850032,2024-06-11 14:03:32.149251
0.189837677,-0.9938623905,-0.6013240218,0.6959966421,2024-06-11 14:03:32.189838
0.230324344,-0.7619079351,0.5465977192,0.07643046975,2024-06-11 14:03:32.230324
0.270809812,-0.028361829,1.486399531,1.224751711,2024-06-11 14:03:32.270810
0.311301635,1.196656108,1.164699197,1.117962003,2024-06-11 14:03:32.311302
0.351396427,1.486000061,0.6282211542,0.749125123,2024-06-11 14:03:32.351396
0.392072833,-0.003328853287,0.8034520149,0.7989247441,2024-06-11 14:03:32.392073
0.432779656,0.2010627389,1.239798069,0.3468665183,2024-06-11 14:03:32.432780
0.473254344,0.31024912,0.7587122321,0.8226261735,2024-06-11 14:03:32.473254
0.513724708,-0.55778265,0.6519225836,0.4808195531,2024-06-11 14:03:32.513725
0.554196531,-0.4595148861,0.3500621915,-0.3730978668,2024-06-11 14:03:32.554197
0.59472799,-0.5058525205,-0.04913387448,-0.5412715077,2024-06-11 14:03:32.594728
0.635155385,-0.376160413,0.6596455574,-0.09214265645,2024-06-11 14:03:32.635155
0.675675333,-0.3948020041,0.5282224417,0.03328853101,2024-06-11 14:03:32.675675
0.71612976,-0.6588466167,0.99013412,0.1221023351,2024-06-11 14:03:32.716130
0.756631531,-1.034074903,1.491725683,0.99679178,2024-06-11 14:03:32.756632
0.797105125,-0.4376776218,1.285336852,1.242328048,2024-06-11 14:03:32.797105
0.837721271,-0.1625811905,1.352446437,1.173620462,2024-06-11 14:03:32.837721
0.878081219,-0.2299571782,1.309038281,1.030346632,2024-06-11 14:03:32.878081
0.918780229,-0.7062494755,1.076151609,0.226228863,2024-06-11 14:03:32.918780
0.959096375,0.3704347908,0.4904066622,0.21264714,2024-06-11 14:03:32.959096
0.999571062,0.3190372884,0.04593817517,0.2605826259,2024-06-11 14:03:32.999571
1.040011323,0.6042534113,-0.6045197248,-0.004527240526,2024-06-11 14:03:33.040011
1.080548979,0.2852161527,-0.0868164897,-0.449262023,2024-06-11 14:03:33.080549
1.120562573,-1.018895388,0.3455349505,-0.8411346078,2024-06-11 14:03:33.120563
1.161511896,-2.421674013,-0.3499290347,-2.056831837,2024-06-11 14:03:33.161512
1.201971844,-2.640046835,-0.8437976837,-2.904624224,2024-06-11 14:03:33.201972
1.242483146,-1.832467079,-0.6002588272,-4.409665108,2024-06-11 14:03:33.242483
1.282966896,-2.693841219,0.07150376588,-5.845066547,2024-06-11 14:03:33.282967
1.323456687,-2.978790998,0.6138405204,-5.748929501,2024-06-11 14:03:33.323457
1.363470281,-0.8817466497,1.635798454,-5.554524422,2024-06-11 14:03:33.363470
1.404397625,0.0977351293,5.720301151,-7.316020489,2024-06-11 14:03:33.404398
1.444887781,1.404243469,4.729900837,-4.280505657,2024-06-11 14:03:33.444888
1.48539549,-1.12967968,2.449103832,-1.134206891,2024-06-11 14:03:33.485395
1.525873198,-2.105432987,4.574909687,-2.171876907,2024-06-11 14:03:33.525873
1.566379552,-1.451779485,2.083595753,-0.5841471553,2024-06-11 14:03:33.566380
1.606730646,0.00998655986,0.1695052087,0.7523208261,2024-06-11 14:03:33.606731
1.647273667,-0.2411421239,-0.7069152594,0.7933322787,2024-06-11 14:03:33.647274
1.687811115,-0.8969262242,-0.8853418231,-0.5721632838,2024-06-11 14:03:33.687811
1.728246531,-1.017031193,-1.162835002,-0.8246235251,2024-06-11 14:03:33.728247
1.768355021,-1.134206891,-2.458957195,0.3908073604,2024-06-11 14:03:33.768355
1.809160177,-1.41795826,-1.074154377,-1.25804019,2024-06-11 14:03:33.809160
1.849658458,-2.023143768,-3.135113955,0.04979964346,2024-06-11 14:03:33.849658
1.890134917,-2.829924583,-0.6431344151,-0.997990191,2024-06-11 14:03:33.890135
1.930616375,-0.3971987665,-0.7620410919,0.9344756603,2024-06-11 14:03:33.930616
1.971114344,2.021945477,-2.67799592,3.693695545,2024-06-11 14:03:33.971114
2.011575125,0.6957303286,0.4845478833,5.75971508,2024-06-11 14:03:34.011575
2.052092156,-0.345801264,-2.758154631,6.214702606,2024-06-11 14:03:34.052092
2.092575906,-2.282794476,-0.5754921436,1.964555979,2024-06-11 14:03:34.092576
2.13306226,-1.568422437,-0.9657669067,0.3455349505,2024-06-11 14:03:34.133062
2.17353299,0.7631062865,-0.4820179343,-2.602630615,2024-06-11 14:03:34.173533
2.214010594,1.535267115,-0.9596418142,-2.709153891,2024-06-11 14:03:34.214011
2.254524396,-2.157895803,-2.235524654,-0.5129097104,2024-06-11 14:03:34.254524
2.294971375,-1.332473397,-0.2173075378,-0.8645697236,2024-06-11 14:03:34.294971
2.335468198,3.71633172,2.530061483,-1.050452948,2024-06-11 14:03:34.335468
2.375651531,1.689459562,2.137123823,-2.084794283,2024-06-11 14:03:34.375652
2.416414917,1.115432143,0.8386046886,-2.015820265,2024-06-11 14:03:34.416415
2.456954917,1.510766745,2.961214542,-2.810351133,2024-06-11 14:03:34.456955
2.49738726,0.455653429,2.877327442,-1.26842618,2024-06-11 14:03:34.497387
2.537570646,-0.7113093734,1.742055416,-0.1233007237,2024-06-11 14:03:34.537571
2.577768875,-0.2837514579,2.715145826,1.672282696,2024-06-11 14:03:34.577769
2.618880958,2.556825638,3.121665478,0.8487244248,2024-06-11 14:03:34.618881
2.659379708,2.339384794,0.6279548407,1.695717812,2024-06-11 14:03:34.659380
2.699856219,-0.4150414169,-1.811428785,1.824611068,2024-06-11 14:03:34.699856
2.740340073,-1.619819999,-2.65562582,-0.429821521,2024-06-11 14:03:34.740340
2.780820073,-1.056444883,-0.04114462435,-0.3169068098,2024-06-11 14:03:34.780820
2.821309812,-0.7946638465,-0.6628412604,-0.08095771074,2024-06-11 14:03:34.821310
2.861790281,-0.8878717422,-0.3547225893,-1.146989703,2024-06-11 14:03:34.861790
2.902288302,-0.981079638,-0.5904054046,-0.8957278132,2024-06-11 14:03:34.902288
2.942783042,-1.120092511,-0.9974575639,-0.8746894598,2024-06-11 14:03:34.942783
2.983260698,-1.010373473,-2.012092113,-0.9516525269,2024-06-11 14:03:34.983261
3.02379174,-0.5893401504,-2.409956455,0.7760222554,2024-06-11 14:03:35.023792
3.064251323,-0.0355521515,-3.180386305,2.784119606,2024-06-11 14:03:35.064251
3.104620229,-1.087336659,-1.548848867,1.797713876,2024-06-11 14:03:35.104620
3.145042469,-1.04579258,-0.1826874614,3.106352568,2024-06-11 14:03:35.145042
3.185646948,-0.9413996935,-0.4740287066,1.758566618,2024-06-11 14:03:35.185647
3.22616325,-2.529528856,-2.504362822,0.6179683208,2024-06-11 14:03:35.226163
3.266678458,-2.540714025,-1.843385696,0.8090444803,2024-06-11 14:03:35.266678
3.307151896,-1.024221539,-0.5078498721,-0.9697614908,2024-06-11 14:03:35.307152
3.347528094,-0.5928021669,-0.456984967,-1.591990709,2024-06-11 14:03:35.347528
3.388064708,-0.3750951886,0.3572525382,-0.5617772937,2024-06-11 14:03:35.388065
3.428464552,-1.07029283,0.9864057899,-1.205044866,2024-06-11 14:03:35.428465
3.469002156,-1.80876565,-0.7077142,-2.681457758,2024-06-11 14:03:35.469002
3.509559917,-1.464562297,-4.187164783,-4.709794521,2024-06-11 14:03:35.509560
3.550051531,-4.125247955,-6.283809662,-8.212281227,2024-06-11 14:03:35.550052
3.590560073,-6.188071728,-6.574085712,-7.437457085,2024-06-11 14:03:35.590560
3.630995021,1.843918324,-2.044049025,-2.543776512,2024-06-11 14:03:35.630995
3.671494187,8.598028183,4.549610138,2.195178986,2024-06-11 14:03:35.671494
3.711978406,4.359865665,4.804201126,1.748713136,2024-06-11 14:03:35.711978
3.752457833,-1.268559337,0.8889369369,0.749125123,2024-06-11 14:03:35.752458
3.792942365,-7.08300066,-9.793619156,-0.3653749228,2024-06-11 14:03:35.792942
3.833432052,1.02462101,-14.03178215,1.021558523,2024-06-11 14:03:35.833432
3.873923302,0.9945281744,4.218589306,-0.6368761659,2024-06-11 14:03:35.873923
3.914420073,0.1587197185,5.42949295,0.656050384,2024-06-11 14:03:35.914420
3.954903354,0.464707911,0.1700378209,0.4081174135,2024-06-11 14:03:35.954903
3.995401635,0.354189992,-3.829779148,-0.4900071919,2024-06-11 14:03:35.995402
4.035877052,-0.4677704573,-4.777170658,-0.5134423375,2024-06-11 14:03:36.035877
4.076361427,0.1201050207,-4.318854332,-0.7854762077,2024-06-11 14:03:36.076361
4.11676674,0.1978670359,-1.672149539,-0.5204994678,2024-06-11 14:03:36.116767
4.157253354,0.09533835202,-1.055246472,-0.3121132851,2024-06-11 14:03:36.157253
4.197675333,0.1169093251,-2.692110062,-0.4955996573,2024-06-11 14:03:36.197675
4.238222781,0.06311506033,-3.955476522,-0.6158378124,2024-06-11 14:03:36.238223
4.278774396,0.7191654444,-4.04069519,-0.9745550752,2024-06-11 14:03:36.278774
4.319242469,0.6319494843,-3.928046703,-0.9047822952,2024-06-11 14:03:36.319242
4.359603771,1.506505847,-3.689834118,0.2464682907,2024-06-11 14:03:36.359604
4.400207312,2.384657383,-1.906633973,0.2914743721,2024-06-11 14:03:36.400207
4.440714135,3.135113955,-2.560553789,-0.510512948,2024-06-11 14:03:36.440714
4.481193719,3.002891779,-3.153489113,-0.6789528728,2024-06-11 14:03:36.481194
4.521660385,3.30475235,-3.567598581,0.2579195499,2024-06-11 14:03:36.521660
4.562171635,1.711296797,-1.914356947,0.4568518102,2024-06-11 14:03:36.562172
4.602614708,0.2141118348,1.454442501,1.180011868,2024-06-11 14:03:36.602615
4.643126219,0.3467333615,-1.242993832,0.7664351463,2024-06-11 14:03:36.643126
4.683622156,0.01238333434,-2.996500492,-0.04287562892,2024-06-11 14:03:36.683622
4.724119031,-0.1071890742,-1.761895418,0.007190322969,2024-06-11 14:03:36.724119
4.764572156,-0.02143781446,0.3585840762,0.1926740259,2024-06-11 14:03:36.764572
4.805052417,0.4934692085,1.51303041,0.2291582525,2024-06-11 14:03:36.805052
4.845524917,-0.7635057569,2.642443657,-0.03675054014,2024-06-11 14:03:36.845525
4.88603226,-1.039401174,2.664547205,0.3705679476,2024-06-11 14:03:36.886032
4.926558354,-0.8324795961,1.21982491,-0.2692376375,2024-06-11 14:03:36.926558
4.967053458,-0.5529890656,-0.4854799509,-0.7055837512,2024-06-11 14:03:36.967053
5.007432573,-1.471220016,-1.269358277,-0.3893426657,2024-06-11 14:03:37.007433
5.047817625,-2.476001024,2.653095961,0.3780245781,2024-06-11 14:03:37.047818
5.088202781,-2.350170374,3.92525053,-0.1227681041,2024-06-11 14:03:37.088203
5.12864424,-1.684266567,3.773721218,-1.215963483,2024-06-11 14:03:37.128644
5.169389812,-1.101184607,3.686904669,-1.668154955,2024-06-11 14:03:37.169390
5.209874604,-0.7062494755,3.9497509,-1.318758488,2024-06-11 14:03:37.209875
5.250391427,-0.6580476761,3.066539526,-1.038469076,2024-06-11 14:03:37.250391
5.290849187,-1.317560077,-1.465760589,-0.9202281833,2024-06-11 14:03:37.290849
5.331352,-2.29051733,-3.279453039,-4.658397198,2024-06-11 14:03:37.331352
5.371756167,-0.7834789157,-0.9066464305,-4.85426712,2024-06-11 14:03:37.371756
5.412297573,-0.1679073572,-0.1653774232,-1.622882485,2024-06-11 14:03:37.412298
5.452768615,-2.301169634,-2.629261494,-0.3776251078,2024-06-11 14:03:37.452769
5.493272885,-3.769193888,2.358958483,0.2219679356,2024-06-11 14:03:37.493273
5.533768146,-2.769738913,0.5426030755,0.2659088075,2024-06-11 14:03:37.533768
5.574248927,-2.323805809,-1.027550459,0.8005226254,2024-06-11 14:03:37.574249
5.614693042,-1.855103254,-0.7998568416,0.5673697591,2024-06-11 14:03:37.614693
5.655208771,-1.085472465,-0.6752246022,0.4448679388,2024-06-11 14:03:37.655209
5.695713615,-1.132875323,1.124886036,0.7443315983,2024-06-11 14:03:37.695714
5.736177573,-1.241129637,1.6347332,1.102249861,2024-06-11 14:03:37.736178
5.776694812,-0.7805495262,0.5698996782,1.170957446,2024-06-11 14:03:37.776695
5.817150594,-0.6117100716,0.682015419,1.225284338,2024-06-11 14:03:37.817151
5.85762101,-0.1282274276,0.4872109592,1.158973575,2024-06-11 14:03:37.857621
5.898042104,0.4095821083,0.8010552526,1.124886036,2024-06-11 14:03:37.898042
5.93846325,0.6424686909,1.243260145,1.196256638,2024-06-11 14:03:37.938463
5.978884344,0.6685668826,0.7560491562,1.106510758,2024-06-11 14:03:37.978884
6.019560987,0.6239602566,0.9861394763,0.8420667052,2024-06-11 14:03:38.019561
6.060056091,0.6872084737,1.699446082,0.7267552018,2024-06-11 14:03:38.060056
6.100512654,0.7287525535,1.91422379,0.9584434032,2024-06-11 14:03:38.100513
6.140969789,0.4133104086,1.396653652,1.304111481,2024-06-11 14:03:38.140970
6.18148682,0.1866820902,0.6426018476,1.503443241,2024-06-11 14:03:38.181487
6.221979216,0.6525883675,0.1521951705,1.462431788,2024-06-11 14:03:38.221979
6.262467706,0.8443303108,0.602389276,1.318891644,2024-06-11 14:03:38.262468
6.302955206,-0.7230269313,2.080932617,1.772414565,2024-06-11 14:03:38.302955
6.343428331,-1.334071159,3.239906311,2.063090086,2024-06-11 14:03:38.343428
6.383891873,1.337666392,1.406507015,0.4224980474,2024-06-11 14:03:38.383892
6.424392237,-0.3279586136,1.572150826,0.6818822622,2024-06-11 14:03:38.424392
6.464880362,-1.022357345,3.031919479,2.268413782,2024-06-11 14:03:38.464880
6.505359737,-0.2709686458,3.536307335,2.793972969,2024-06-11 14:03:38.505360
6.545852289,0.3912068307,4.026713848,1.480540752,2024-06-11 14:03:38.545852
6.586334789,0.325695008,3.768394947,0.2496639937,2024-06-11 14:03:38.586335
6.626814268,-0.4081174135,2.541246414,0.229424566,2024-06-11 14:03:38.626814
6.66735307,-1.808233023,-0.1752308309,0.02023942769,2024-06-11 14:03:38.667353
6.707786977,-2.088389397,-1.108774424,0.2360822707,2024-06-11 14:03:38.707787
6.748220883,-0.9512531161,-2.066152573,0.3447360396,2024-06-11 14:03:38.748221
6.788654789,0.5358121991,2.655759096,0.2302234918,2024-06-11 14:03:38.788655
6.829217862,0.5792204738,4.44441843,0.4765586257,2024-06-11 14:03:38.829218
6.869740779,0.4154408872,3.817662001,0.3183715343,2024-06-11 14:03:38.869741
6.910222237,-0.7046516538,1.093461752,0.1713693589,2024-06-11 14:03:38.910222
6.95070557,-1.240330696,-0.5973294377,-0.07722939551,2024-06-11 14:03:38.950706
6.991184841,-1.127016544,-0.1584534049,0.09813459218,2024-06-11 14:03:38.991185
7.031680623,1.22728157,1.29039669,0.677355051,2024-06-11 14:03:39.031681
7.072162862,1.603441954,0.8204957247,0.3881442845,2024-06-11 14:03:39.072163
7.112615883,2.923265696,-1.817553878,-0.6557840705,2024-06-11 14:03:39.112616
7.153111612,2.776796103,-0.1826874614,-1.586664557,2024-06-11 14:03:39.153112
7.193606456,2.24404645,2.191184282,-1.616491079,2024-06-11 14:03:39.193606
7.234091508,2.089854002,2.713281631,-0.4260932207,2024-06-11 14:03:39.234092
7.274573956,1.951906323,1.210504174,-0.2125139832,2024-06-11 14:03:39.274574
7.315067862,0.9484568238,-0.1320888996,-0.1824211627,2024-06-11 14:03:39.315068
7.355532654,0.08441971987,-0.08095771074,0.1876141727,2024-06-11 14:03:39.355533
7.396020727,-0.6441996694,-0.02969337068,0.2539249361,2024-06-11 14:03:39.396021
7.436548123,-0.7882724404,-0.5307523608,-0.4844147265,2024-06-11 14:03:39.436548
7.477007654,-0.62049824,-0.881613493,-0.4351477027,2024-06-11 14:03:39.477008
7.517450779,-0.1750976741,0.8844097257,-0.1624480337,2024-06-11 14:03:39.517451
7.557903748,-0.1058575287,-0.223698929,0.2581858635,2024-06-11 14:03:39.557904
7.598432029,-0.3700353205,0.938470304,0.5764242411,2024-06-11 14:03:39.598432
7.638884008,-0.0954715088,1.932599068,0.2201037705,2024-06-11 14:03:39.638884
7.67944156,-0.5234288573,-1.033941746,-0.6145063043,2024-06-11 14:03:39.679442
7.719907966,-0.5877423286,-1.2833395,-0.4908061028,2024-06-11 14:03:39.719908
7.760391143,-0.8159685135,-1.557104349,-0.3464670479,2024-06-11 14:03:39.760391
7.800924685,-0.9818785191,-1.561099052,0.171901986,2024-06-11 14:03:39.800925
7.841418383,-0.7653699517,-1.300915837,0.4539224207,2024-06-11 14:03:39.841418
7.881888852,-0.5015916228,0.2331528813,0.3777582645,2024-06-11 14:03:39.881889
7.922299112,-0.1165098622,0.6937330365,0.643800199,2024-06-11 14:03:39.922299
7.962808591,-0.5308855176,0.9318125844,0.1708367467,2024-06-11 14:03:39.962809
8.003320831,-0.4467321038,0.2704360485,0.5679023266,2024-06-11 14:03:40.003321
8.043771195,-0.6953308582,-1.042729974,0.5963973403,2024-06-11 14:03:40.043771
8.084273227,-0.5607120395,-2.188654423,0.2493976802,2024-06-11 14:03:40.084273
8.124732341,-0.1713693589,-2.816476107,-0.037815772,2024-06-11 14:03:40.124732
8.165224477,0.02463351376,-2.057897091,-0.07403369248,2024-06-11 14:03:40.165224
8.205696039,0.01105179265,-0.7764217257,-0.01304910425,2024-06-11 14:03:40.205696
8.246207341,0.08841434121,0.05898727849,-0.09240896255,2024-06-11 14:03:40.246207
8.286732445,0.2543243766,-0.6079817414,-0.1003982127,2024-06-11 14:03:40.286732
8.327163748,0.1824211627,-2.321808577,-0.2260957062,2024-06-11 14:03:40.327164
8.367626768,1.211569428,-6.555177689,-0.8472597003,2024-06-11 14:03:40.367627
8.408089893,3.205419302,-1.719818711,-1.492391467,2024-06-11 14:03:40.408090
8.448552966,2.73285532,0.2254299372,-1.637263179,2024-06-11 14:03:40.448553
8.489097862,1.54085958,-1.845782518,-0.9641690254,2024-06-11 14:03:40.489098
8.529595102,0.116643019,-1.332073927,0.04633763805,2024-06-11 14:03:40.529595
8.570070258,-0.9661663771,-0.3648423254,0.6493926644,2024-06-11 14:03:40.570070
8.610503279,-1.685864449,-0.6138405204,1.100385666,2024-06-11 14:03:40.610503
8.651025987,-2.893838644,-0.8214278221,1.635532141,2024-06-11 14:03:40.651026
8.691511404,-2.979057312,-1.154046774,1.004248381,2024-06-11 14:03:40.691511
8.732019425,-0.7523208261,-3.463205814,-0.701322794,2024-06-11 14:03:40.732019
8.772497654,-0.5452661514,-3.613403559,-0.4729634523,2024-06-11 14:03:40.772498
8.812988279,-0.8647028804,2.164553404,0.5250267386,2024-06-11 14:03:40.812988
8.85351307,0.7902697325,3.822988272,0.8979914188,2024-06-11 14:03:40.853513
8.893935466,0.9790822864,2.636851311,1.190930486,2024-06-11 14:03:40.893935
8.934459373,0.692268312,0.6892057657,0.8090444803,2024-06-11 14:03:40.934459
8.974906143,-0.01025286783,-0.0384815447,0.1801575422,2024-06-11 14:03:40.974906
9.015443227,-1.869750261,-0.3379451632,0.515173316,2024-06-11 14:03:41.015443
9.055869008,-2.026872158,-2.382793188,0.09107742459,2024-06-11 14:03:41.055869
9.096352914,0.3949351311,-0.7567148805,-0.319303602,2024-06-11 14:03:41.096353
9.136821143,0.04820179567,2.650699139,0.1135804728,2024-06-11 14:03:41.136821
9.177291091,0.09746882319,1.89265275,0.06258244067,2024-06-11 14:03:41.177291
9.217784998,-0.1836195439,-0.1129147038,0.05352795869,2024-06-11 14:03:41.217785
9.258259529,-0.3777582645,-0.1424749196,0.07243584841,2024-06-11 14:03:41.258260
9.298750466,-0.4722976983,0.132488355,0.07483261824,2024-06-11 14:03:41.298750
9.33926432,-0.2376801223,0.5314181447,-0.0596530512,2024-06-11 14:03:41.339264
9.379734893,-0.5402063131,-0.2612484097,-0.2215684652,2024-06-11 14:03:41.379735
9.420238018,-0.4906729758,-1.535000801,-0.258585304,2024-06-11 14:03:41.420238
9.460722393,-0.3932041526,-1.434868932,-0.05752258375,2024-06-11 14:03:41.460722
9.501202081,0.3640433848,-1.106643915,0.0954715088,2024-06-11 14:03:41.501202
9.541691664,1.023555756,-0.8182321191,-0.1217028722,2024-06-11 14:03:41.541692
9.582153748,2.389983416,-1.526212573,-0.5300865769,2024-06-11 14:03:41.582154
9.622619945,3.329519033,-0.7295514941,-1.078415275,2024-06-11 14:03:41.622620
9.663128695,2.918205976,1.483203888,-1.74977839,2024-06-11 14:03:41.663129
9.70361781,2.716344118,-0.2969337106,-0.9878704548,2024-06-11 14:03:41.703618
9.744099008,1.91009593,-2.25895977,-0.3797555864,2024-06-11 14:03:41.744099
9.784585362,1.203047514,0.718765974,-0.1605838835,2024-06-11 14:03:41.784585
9.825084268,0.270835489,1.248586297,0.1873478591,2024-06-11 14:03:41.825084
9.865577966,-0.4677704573,-0.4641752839,0.3268933892,2024-06-11 14:03:41.865578
9.906032706,-1.33939743,-0.8238245845,0.1005313694,2024-06-11 14:03:41.906033
9.9465363,1.860030055,-2.751496792,-0.4729634523,2024-06-11 14:03:41.946536
9.987024477,0.9575113058,1.454708815,-1.336867452,2024-06-11 14:03:41.987024
10.02747244,0.1158440933,6.331079483,-1.133940578,2024-06-11 14:03:42.027472
10.06794552,-0.4150414169,2.714080572,-0.08095771074,2024-06-11 14:03:42.067946
10.10841859,-0.7677667141,-1.378145218,-0.3118469715,2024-06-11 14:03:42.108419
10.14891838,0.290275991,3.724720478,-0.7037195563,2024-06-11 14:03:42.148918
10.18942244,-0.5785546899,3.744427204,-0.8222267628,2024-06-11 14:03:42.189422
10.22992698,-0.1255643368,2.883985281,-1.423683882,2024-06-11 14:03:42.229927
10.27039552,-0.006524552125,3.930843115,-1.844317794,2024-06-11 14:03:42.270396
10.31088323,0.8523195982,4.737091064,-1.443390727,2024-06-11 14:03:42.310883
10.35136755,0.056723658,3.396761894,-0.9346088171,2024-06-11 14:03:42.351368
10.39182776,0.3986634612,2.491180658,1.396919966,2024-06-11 14:03:42.391828
10.43231416,0.5102466345,0.687607944,1.450447917,2024-06-11 14:03:42.432314
10.4728213,-0.7022548914,-2.766410112,-1.121290922,2024-06-11 14:03:42.472821
10.51330234,-1.313565493,-3.339905024,-1.504109025,2024-06-11 14:03:42.513302
10.55378635,0.9404675961,0.6290200949,-2.766143799,2024-06-11 14:03:42.553786
10.59425901,1.875742197,0.07496577501,-4.493552208,2024-06-11 14:03:42.594259
10.63475864,0.7612421513,7.417616844,-2.274139404,2024-06-11 14:03:42.634759
10.67524078,-3.584509134,5.32869482,0.01731003635,2024-06-11 14:03:42.675241
10.71572672,-3.198628426,1.533536077,1.051651359,2024-06-11 14:03:42.715727
10.75619427,-0.6990591884,2.916741133,0.6006582975,2024-06-11 14:03:42.756194
10.79670911,-3.661072731,3.153089762,-1.88559556,2024-06-11 14:03:42.796709
10.83710453,-4.160666943,-2.622337341,-2.13059926,2024-06-11 14:03:42.837105
10.87757937,-2.516746283,-0.4394086301,-1.288399339,2024-06-11 14:03:42.877579
10.91808557,-1.613428593,3.395962954,-0.3254286945,2024-06-11 14:03:42.918086
10.95857713,-0.1745650619,-7.51495266,-0.2756290436,2024-06-11 14:03:42.958577
10.99912713,-1.174685717,-11.78480625,-0.1869483888,2024-06-11 14:03:42.999127
11.03963807,-1.498383403,-10.13675785,0.2267614752,2024-06-11 14:03:43.039638
11.08006953,-0.8580452204,-4.62803793,0.8452624083,2024-06-11 14:03:43.080070
11.12054609,0.104392834,-0.7849435806,1.128880739,2024-06-11 14:03:43.120546
11.16104036,0.9524514675,0.1106510833,0.8497896194,2024-06-11 14:03:43.161040
11.20151125,2.428065538,-1.761096478,0.08655018359,2024-06-11 14:03:43.201511
11.24201765,2.846036434,-4.787556648,-0.2950695455,2024-06-11 14:03:43.242018
11.28250594,1.612762809,-8.233585358,1.290263534,2024-06-11 14:03:43.282506
11.3229775,0.3195699155,-5.344540596,3.439104795,2024-06-11 14:03:43.322978
11.36345406,0.3067871034,-8.324130058,0.570032835,2024-06-11 14:03:43.363454
11.40394635,-0.5186353326,-3.153222799,0.1500647068,2024-06-11 14:03:43.403946
11.44441927,0.3033251166,2.067617416,-0.05539211631,2024-06-11 14:03:43.444419
11.48492312,0.5629756451,1.836728096,0.5284887552,2024-06-11 14:03:43.484923
11.52540094,0.2782921195,0.7456631064,1.259904385,2024-06-11 14:03:43.525401
11.56587151,-1.123554587,0.8457950354,1.393458009,2024-06-11 14:03:43.565872
11.60633703,-2.121411562,2.35949111,0.3205019832,2024-06-11 14:03:43.606337
11.64689192,-2.441114664,2.715678453,-0.8121070266,2024-06-11 14:03:43.646892
11.68737047,-4.490223408,-12.09185982,-1.896247983,2024-06-11 14:03:43.687370
11.72778734,1.553109765,0.9746882319,-0.9801475406,2024-06-11 14:03:43.727787
11.76825901,1.999575496,7.351839066,0.0181089621,2024-06-11 14:03:43.768259
11.8087375,-0.2390116602,1.805303693,0.4973306656,2024-06-11 14:03:43.808737
11.84924578,-0.8111749291,-3.124994278,0.1817553788,2024-06-11 14:03:43.849246
11.88974739,-1.048455596,-2.504629135,-0.2173075378,2024-06-11 14:03:43.889747
11.93022744,-2.22154355,-0.9774844646,-0.6896052361,2024-06-11 14:03:43.930227
11.97073229,0.5294207931,-2.290384054,-0.4644415975,2024-06-11 14:03:43.970732
12.01120088,0.5981283188,1.079613686,-0.2697702646,2024-06-11 14:03:44.011201
12.05168698,1.58240366,1.128614426,-0.5505923033,2024-06-11 14:03:44.051687
12.09217651,1.439129829,0.6303516626,-0.695464015,2024-06-11 14:03:44.092177
12.13265651,0.6730940938,-0.7473941445,-0.6890726089,2024-06-11 14:03:44.132657
12.17312713,1.27295351,-0.762839973,-0.3744294047,2024-06-11 14:03:44.173127
12.21362875,0.623693943,1.385202408,-0.2924064696,2024-06-11 14:03:44.213629
12.25411791,-0.395600915,2.193314791,-0.5404726267,2024-06-11 14:03:44.254118
12.29459396,0.1025286764,1.043129444,-0.458316505,2024-06-11 14:03:44.294594
12.33506468,-0.2651098669,-0.2937380075,-0.5279561281,2024-06-11 14:03:44.335065
12.37554469,-0.4635095298,-0.8528521657,-0.3419398069,2024-06-11 14:03:44.375545
12.41602521,-0.2773600519,-2.303166866,-0.6525883675,2024-06-11 14:03:44.416025
12.45650448,-1.033276081,-1.146057606,-0.4300878346,2024-06-11 14:03:44.456504
12.49704182,-1.696250439,-0.3073197305,0.03462007269,2024-06-11 14:03:44.497042
12.53745474,-1.931001186,0.8167673945,-0.1632469594,2024-06-11 14:03:44.537455
12.57793573,-1.31702745,1.127549171,-0.4114462435,2024-06-11 14:03:44.577936
12.61844521,-0.4488625526,1.76389277,0.2531259954,2024-06-11 14:03:44.618445
12.65893448,-0.6388735175,3.139774323,0.2818872929,2024-06-11 14:03:44.658934
12.69943338,-0.2581858635,1.81249404,0.5282224417,2024-06-11 14:03:44.699433
12.7399238,0.8222267628,2.784652233,0.8916000128,2024-06-11 14:03:44.739924
12.78041146,0.3240971565,3.037512064,0.539673686,2024-06-11 14:03:44.780411
12.82087599,0.1720351279,2.575600386,-0.08441971987,2024-06-11 14:03:44.820876
12.86135536,-0.0243672058,1.639793038,0.4627105892,2024-06-11 14:03:44.861355
12.90184771,-0.9110405445,2.898898602,0.8258218765,2024-06-11 14:03:44.901848
12.94232963,-0.5718969703,3.01487565,0.9890688658,2024-06-11 14:03:44.942330
12.98282573,0.3280917704,0.5125102401,0.7981258631,2024-06-11 14:03:44.982826
13.02331302,-0.3676385581,0.1394123733,0.6912030578,2024-06-11 14:03:45.023313
13.06378344,-0.8865401745,1.379077315,0.4517919421,2024-06-11 14:03:45.063783
13.10426005,-1.470421076,1.401180863,0.1700378209,2024-06-11 14:03:45.104260
13.14474265,-0.8844097257,-1.096790552,-0.06364767253,2024-06-11 14:03:45.144743
13.18522713,0.5193011165,1.941387177,0.00798924733,2024-06-11 14:03:45.185227
13.22571599,1.151117444,1.32448411,0.07935985923,2024-06-11 14:03:45.225716
13.26621021,0.7908023596,-1.273885489,0.5857450366,2024-06-11 14:03:45.266210
13.30669156,0.3645760119,-2.828726292,0.4395417869,2024-06-11 14:03:45.306692
13.34717291,2.508091211,-4.058005333,-0.8134385943,2024-06-11 14:03:45.347173
13.38764307,2.498504162,0.05818835273,-1.672415853,2024-06-11 14:03:45.387643
13.4281138,2.573336601,1.201449752,-0.6400718689,2024-06-11 14:03:45.428114
13.46862948,2.326601982,0.5018579364,0.1484668553,2024-06-11 14:03:45.468629
13.50912286,1.798645973,-0.5616441369,-0.0926752761,2024-06-11 14:03:45.509123
13.5495838,0.438876003,-1.442591786,0.3756277859,2024-06-11 14:03:45.549584
13.59006213,-0.4616453648,-1.915422082,0.6443328261,2024-06-11 14:03:45.590062
13.63056135,-0.993329823,-1.754971385,0.2563216984,2024-06-11 14:03:45.630561
13.67106844,-1.285336852,-0.9963923693,-0.34513551,2024-06-11 14:03:45.671068
13.71154458,-0.6559172273,-0.531817615,-0.3331516385,2024-06-11 14:03:45.711545
13.75204041,-0.7422010899,0.05925358832,-0.1701709777,2024-06-11 14:03:45.752040
13.79249307,-0.1766955256,-0.2649767101,-0.008788172156,2024-06-11 14:03:45.792493
13.83295823,0.1723014414,1.705571175,0.5189016461,2024-06-11 14:03:45.832958
13.87345036,-0.6612433791,1.792254567,1.103581429,2024-06-11 14:03:45.873450
13.91397271,0.04713656008,2.059894323,0.1130478531,2024-06-11 14:03:45.913973
13.95444494,0.1999974996,3.475322723,-1.191463113,2024-06-11 14:03:45.954445
13.99495443,-0.118640326,2.506626368,-1.037403822,2024-06-11 14:03:45.994954
14.03541177,-1.397452593,0.04220985994,0.160983339,2024-06-11 14:03:46.035412
14.07587552,-1.37348485,-1.693187833,1.339929938,2024-06-11 14:03:46.075876
14.11637562,0.2149107605,2.321142673,0.3814865649,2024-06-11 14:03:46.116376
14.15689385,0.0758978501,2.820603848,-0.3009283245,2024-06-11 14:03:46.156894
14.19737583,0.9364729524,1.649912834,-0.2599168718,2024-06-11 14:03:46.197376
14.23785781,0.5009258389,1.348451853,-0.1800243855,2024-06-11 14:03:46.237858
14.27830802,0.2282261699,0.6537867785,0.09081111848,2024-06-11 14:03:46.278308
14.31878729,-0.3889431953,0.8876054287,-0.1254311949,2024-06-11 14:03:46.318787
14.35926859,0.1009308323,0.697461307,-0.1685731262,2024-06-11 14:03:46.359269
14.39973594,0.09507204592,1.255776525,-0.2892107666,2024-06-11 14:03:46.399736
14.44025989,0.4753602445,1.436067224,-0.5559184551,2024-06-11 14:03:46.440260
14.48072838,0.5653724074,1.778939128,-0.6659038067,2024-06-11 14:03:46.480728
14.52119083,0.6392729878,1.074820161,-0.7308830023,2024-06-11 14:03:46.521191
14.56167234,1.069627166,1.620086312,-0.5099803209,2024-06-11 14:03:46.561672
14.60215448,1.109573364,1.432338953,-0.3896089792,2024-06-11 14:03:46.602154
14.64267724,0.9410002232,0.5536548495,-0.8845428824,2024-06-11 14:03:46.642677
14.68318406,1.166296959,1.619553685,-0.8107754588,2024-06-11 14:03:46.683184
14.72362833,1.347786069,2.575334072,0.03009283356,2024-06-11 14:03:46.723628
14.76409396,1.282274246,1.70823431,-0.09853405505,2024-06-11 14:03:46.764094
14.80462036,1.044061542,1.829804063,-0.4412727654,2024-06-11 14:03:46.804620
14.84504646,-0.3346163332,2.281995535,-0.2580527067,2024-06-11 14:03:46.845046
14.8855176,-0.6375419497,-0.6535204649,-0.8145037889,2024-06-11 14:03:46.885518
14.92599427,-0.3135779798,-1.161769748,-1.479342341,2024-06-11 14:03:46.925994
14.96648047,-0.1354177445,-0.08974587917,-0.7732260227,2024-06-11 14:03:46.966480
15.00696463,-0.3846822679,-1.317160606,-0.2503297627,2024-06-11 14:03:47.006965
15.04747729,-0.6015903354,-1.828472495,0.5729622245,2024-06-11 14:03:47.047477
15.08796755,-0.6676347852,-2.064554691,0.7134398222,2024-06-11 14:03:47.087968
15.12845437,-2.013823032,-3.408346176,1.014101863,2024-06-11 14:03:47.128454
15.16896937,-2.051638842,-5.684216499,1.135272145,2024-06-11 14:03:47.168969
15.20942864,-1.397452593,-4.873574257,-1.467624784,2024-06-11 14:03:47.209429
15.24990375,0.6247591972,-2.068549395,-3.977846384,2024-06-11 14:03:47.249904
15.29039203,2.367080927,-0.3358147144,-2.470541716,2024-06-11 14:03:47.290392
15.33092989,1.225151181,-1.069360852,1.10517931,2024-06-11 14:03:47.330930
15.37141255,-0.4954665005,-2.405695677,2.182396173,2024-06-11 14:03:47.371413
15.41185021,0.5430025458,-2.097577095,3.295298338,2024-06-11 14:03:47.411850
15.4523164,1.386400819,-1.566691518,3.804346561,2024-06-11 14:03:47.452316
15.49284026,1.532337666,0.6772218943,2.264951706,2024-06-11 14:03:47.492840
15.53334979,1.274018645,1.636331081,1.176017284,2024-06-11 14:03:47.533350
15.57377568,-0.5077167153,0.9435301423,-0.2700365782,2024-06-11 14:03:47.573776
15.61425859,-2.098775387,-2.552031994,-1.349650264,2024-06-11 14:03:47.614259
15.65480682,-2.050307274,-4.753202915,-0.3195699155,2024-06-11 14:03:47.654807
15.69528693,-4.013931274,-6.220694542,-0.513176024,2024-06-11 14:03:47.695287
15.73573219,0.05006595328,-8.819330215,-0.3595161438,2024-06-11 14:03:47.735732
15.7762151,2.206763268,1.540193796,-1.186669588,2024-06-11 14:03:47.776215
15.81668677,1.208373666,4.531767368,0.06737598777,2024-06-11 14:03:47.816687
15.8571252,-0.2177069932,2.865876198,0.1482005417,2024-06-11 14:03:47.857125
15.89763999,-1.711962581,-2.423271894,-0.1776276082,2024-06-11 14:03:47.897640
15.93813286,-1.41502893,-4.387295246,-0.637408793,2024-06-11 14:03:47.938133
15.97862176,-0.6007914543,-5.593671799,-0.8682980537,2024-06-11 14:03:47.978622
16.0190951,1.171889424,1.18493855,-0.937271893,2024-06-11 14:03:48.019095
16.05960895,1.037936449,2.276136637,-0.2452699095,2024-06-11 14:03:48.059609
16.10007557,0.8573794365,-0.223698929,-0.591337502,2024-06-11 14:03:48.100076
16.14055994,0.8866733313,-1.027550459,-0.5556522012,2024-06-11 14:03:48.140560
16.1810301,1.30997026,-0.8081123829,-0.3978645205,2024-06-11 14:03:48.181030
16.22152317,1.414363146,-0.4652405083,-0.8307486176,2024-06-11 14:03:48.221523
16.26202963,1.730471015,0.3473991156,-1.531272531,2024-06-11 14:03:48.262030
16.3025114,0.9055812359,2.006100178,-0.8520532846,2024-06-11 14:03:48.302511
16.34298468,-0.1242327988,1.235537171,-0.2524602413,2024-06-11 14:03:48.342985
16.38346796,-0.2411421239,0.05312849581,-0.461512208,2024-06-11 14:03:48.383468
16.42395281,-0.001731003635,-0.06098458916,-0.5489944816,2024-06-11 14:03:48.423953
16.46441588,-0.2765611112,0.6234276295,-0.05485950038,2024-06-11 14:03:48.464416
16.50494046,-0.7190322876,0.5512580872,0.1740324497,2024-06-11 14:03:48.504940
16.54546781,-0.6178351641,0.5741605759,0.1109173894,2024-06-11 14:03:48.545468
16.58584661,-0.2794905007,0.04167724028,0.01331541315,2024-06-11 14:03:48.585847
16.62632926,-0.5513912439,-0.1283605844,0.1010639817,2024-06-11 14:03:48.626329
16.66681197,-0.7134398222,0.05046541616,0.4536561072,2024-06-11 14:03:48.666812
16.70730916,-0.3655080795,-0.2154433727,0.4563191831,2024-06-11 14:03:48.707309
16.7478302,-0.2986647189,-0.219171688,0.351660043,2024-06-11 14:03:48.747830
16.78832176,-0.2536586225,0.9954602718,0.3223661482,2024-06-11 14:03:48.788322
16.82876395,-0.4131772518,1.155511498,0.3436708152,2024-06-11 14:03:48.828764
16.86924567,-0.3055887222,-0.9599081278,-0.294803232,2024-06-11 14:03:48.869246
16.90977385,0.1973344237,-0.08655018359,-0.143540144,2024-06-11 14:03:48.909774
16.95026218,0.476958096,1.834331274,0.1958697289,2024-06-11 14:03:48.950262
16.99072755,0.331553787,0.5691007376,-0.1312899739,2024-06-11 14:03:48.990728
17.03123078,0.2029268891,0.715570271,-0.1752308309,2024-06-11 14:03:49.031231
17.07174869,0.1813559234,1.18493855,-0.1746982187,2024-06-11 14:03:49.071749
17.11224088,0.1379476786,0.8327459097,-0.225563094,2024-06-11 14:03:49.112241
17.15270057,0.0599193573,0.05605788901,-0.1962691844,2024-06-11 14:03:49.152701
17.19317203,0.071104303,0.06484606117,-0.2740311921,2024-06-11 14:03:49.193172
17.23368687,-0.1045259908,0.9621717334,-0.2513949871,2024-06-11 14:03:49.233687
17.27413286,-0.04806863889,1.310103416,-0.2900096774,2024-06-11 14:03:49.274133
17.31461843,-0.008388710208,1.32448411,-0.2532591522,2024-06-11 14:03:49.314618
17.35511994,0.1523283273,0.3945356905,-0.4228975177,2024-06-11 14:03:49.355120
17.39558369,0.4111799598,-0.3707011044,-0.8403357267,2024-06-11 14:03:49.395584
17.4360265,0.4529903531,0.4102478623,-1.083741426,2024-06-11 14:03:49.436027
17.47653062,1.017696977,2.281995535,-0.3280917704,2024-06-11 14:03:49.476531
17.51703478,2.000374556,0.767234087,-0.467903614,2024-06-11 14:03:49.517035
17.55751952,2.899297953,-2.026206255,-1.197321892,2024-06-11 14:03:49.557520
17.598004,2.525933743,-1.759498596,-0.8222267628,2024-06-11 14:03:49.598004
17.63848624,1.241928577,0.6553846002,-0.2918738425,2024-06-11 14:03:49.638486
17.67897635,0.85764575,-1.263499498,0.3655080795,2024-06-11 14:03:49.678976
17.71945828,-0.2960016131,-2.500368118,1.270556688,2024-06-11 14:03:49.719458
17.75993911,-2.564948082,-1.542457461,0.9118394852,2024-06-11 14:03:49.759939
17.8004251,-4.067725658,0.9997211695,-0.6376751065,2024-06-11 14:03:49.800425
17.8408464,-3.439903736,0.5946663618,-0.7585790753,2024-06-11 14:03:49.840846
17.88136989,-3.19596529,-1.058708429,1.058042645,2024-06-11 14:03:49.881370
17.92188978,-2.773733616,-2.177469492,2.068948746,2024-06-11 14:03:49.921890
17.96236359,-3.496094704,-1.83033669,2.030334234,2024-06-11 14:03:49.962364
18.00288088,-3.718062639,-0.172567755,1.081744194,2024-06-11 14:03:50.002881
18.04338682,-2.165086031,-1.165764332,0.6019898057,2024-06-11 14:03:50.043387
18.08382968,-1.819684267,-3.599022865,0.7882724404,2024-06-11 14:03:50.083830
18.12429426,-0.530619204,-1.229678392,1.068961382,2024-06-11 14:03:50.124294
18.16480786,1.194792032,2.169879675,0.5324833393,2024-06-11 14:03:50.164808
18.20528432,2.073076725,2.306762218,0.4720313847,2024-06-11 14:03:50.205284
18.24576749,3.187044144,1.57907486,0.2179733068,2024-06-11 14:03:50.245767
18.28625635,6.309108734,-2.155365944,-0.6999912262,2024-06-11 14:03:50.286256
18.32674005,4.530303001,-0.1989322603,-2.473471165,2024-06-11 14:03:50.326740
18.36714124,1.545120478,-6.607906818,-0.2559222281,2024-06-11 14:03:50.367141
18.40768567,2.81221509,-0.4420717061,0.4310199022,2024-06-11 14:03:50.407686
18.44817848,0.6539199352,2.240185022,0.2392779738,2024-06-11 14:03:50.448178
18.48869499,-1.152315855,-1.495587111,0.05272903293,2024-06-11 14:03:50.488695
18.52912781,-1.113168478,-2.866275787,-0.1126483902,2024-06-11 14:03:50.529128
18.56960796,1.383737683,-2.789046288,-0.4119788706,2024-06-11 14:03:50.569608
18.61009161,2.277601242,-1.545919418,-0.4442021847,2024-06-11 14:03:50.610092
18.6505989,-0.01398118306,-0.6917356849,0.02236989327,2024-06-11 14:03:50.650599
18.69108505,2.344444752,2.583855867,0.3519263566,2024-06-11 14:03:50.691085
18.73156614,4.719914436,-2.238720417,-1.382139802,2024-06-11 14:03:50.731566
18.77205333,-0.9959928989,3.186378241,-2.416747332,2024-06-11 14:03:50.772053
18.81252942,-0.9067795873,3.386641979,1.09106493,2024-06-11 14:03:50.812529
18.8529715,2.462152958,5.53921175,3.142703772,2024-06-11 14:03:50.852971
18.89348228,-1.077749491,-1.069094539,-0.7402037978,2024-06-11 14:03:50.893482
18.93399374,-0.003328853287,0.8585777879,0.009853405878,2024-06-11 14:03:50.933994
18.97447286,-0.5665708184,-0.4812190235,0.398796618,2024-06-11 14:03:50.974473
19.01497046,-0.3292901516,-0.3653749228,0.158320263,2024-06-11 14:03:51.014970
19.05548098,-0.6199656129,0.542336762,0.03435376659,2024-06-11 14:03:51.055481
19.09596583,-0.8820129633,0.4525908828,-0.0490007177,2024-06-11 14:03:51.095966
19.13645057,-0.4398080707,0.6223623753,-0.9359403849,2024-06-11 14:03:51.136451
19.17693541,-0.822093606,1.113168478,-0.8677654266,2024-06-11 14:03:51.176935
19.21742015,-1.259771228,1.505041122,-0.9905335307,2024-06-11 14:03:51.217420
19.25790494,-0.9137036204,1.001585364,-1.275083899,2024-06-11 14:03:51.257905
19.29835119,-1.137136221,0.1956034154,-1.180011868,2024-06-11 14:03:51.298351
19.33881859,-0.788538754,0.0845528692,-0.2069215178,2024-06-11 14:03:51.338819
19.37930338,-0.7935985923,-0.267639786,-0.4687025249,2024-06-11 14:03:51.379303
19.41977874,-1.011705041,-0.03794892505,-0.3683043122,2024-06-11 14:03:51.419779
19.46032359,-0.8332785368,0.006790860556,-0.1238333359,2024-06-11 14:03:51.460324
19.50076765,-0.489341408,-0.3304885328,0.2424736619,2024-06-11 14:03:51.500768
19.54124583,-0.3782908916,-0.8094439507,0.7821473479,2024-06-11 14:03:51.541246
19.58171338,0.09400681406,-1.897579432,0.8692301512,2024-06-11 14:03:51.581713
19.62219708,1.448983192,-0.6733604074,0.04633763805,2024-06-11 14:03:51.622197
19.66267807,1.646317601,-1.644719839,-1.864290953,2024-06-11 14:03:51.662678
19.70317859,1.582137346,-3.209680319,-0.6230281591,2024-06-11 14:03:51.703179
19.74367265,0.4575175941,0.8796161413,-0.0298265256,2024-06-11 14:03:51.743673
19.7841665,0.1840189993,-0.8616403341,-0.3435376585,2024-06-11 14:03:51.784167
19.82462416,0.6367430687,-0.6274222732,-0.6427350044,2024-06-11 14:03:51.824624
19.86509072,0.1957365721,-0.007323476952,-0.6123758554,2024-06-11 14:03:51.865091
19.90560109,-0.3497959077,0.2291582525,-0.7881392837,2024-06-11 14:03:51.905601
19.94608478,0.1147788614,0.2762948275,-0.3906742036,2024-06-11 14:03:51.946085
19.98654583,0.2497971505,-1.023822069,0.08655018359,2024-06-11 14:03:51.986546
20.02703291,-0.04380770773,-2.137523174,0.3058550358,2024-06-11 14:03:52.027033
20.06753598,1.284671068,-2.968271732,-0.9535167217,2024-06-11 14:03:52.067536
20.10803213,1.211303115,-1.601311564,-1.111970067,2024-06-11 14:03:52.108032
20.14849734,-0.5157059431,-2.172409534,-2.260823965,2024-06-11 14:03:52.148497
20.18899395,3.794626236,-1.516092896,-3.705679417,2024-06-11 14:03:52.188994
20.22948328,0.03035914153,-1.103714585,1.694386244,2024-06-11 14:03:52.229483
20.26998916,-2.11901474,3.981175184,3.434577465,2024-06-11 14:03:52.269989
20.31049364,-1.191329956,2.055367231,0.37296471,2024-06-11 14:03:52.310494
20.3509739,-1.507171631,-0.1525946259,1.011971354,2024-06-11 14:03:52.350974
20.39143749,-1.772680879,-0.2508623898,1.415561557,2024-06-11 14:03:52.391437
20.43190624,-2.187722206,1.636863708,1.199186087,2024-06-11 14:03:52.431906
20.47243036,-2.265218019,3.385843277,0.9051817656,2024-06-11 14:03:52.472430
20.51290322,-1.926740289,3.371728897,0.4137098789,2024-06-11 14:03:52.512903
20.5533888,-1.379343629,2.933252335,0.350328505,2024-06-11 14:03:52.553389
20.59382598,-1.158174634,2.50609374,0.6371424794,2024-06-11 14:03:52.593826
20.63431161,-1.163234472,1.835929155,0.2387453467,2024-06-11 14:03:52.634312
20.67481062,-0.8860075474,1.326880932,0.0298265256,2024-06-11 14:03:52.674811
20.71530202,-0.4589822888,2.582257986,0.08841434121,2024-06-11 14:03:52.715302
20.75575661,-0.3676385581,3.409012079,-0.002929390874,2024-06-11 14:03:52.755757
20.79624051,-0.09334104508,3.038044691,0.2922733128,2024-06-11 14:03:52.796241
20.83671822,0.1531272531,2.522871256,0.5756253004,2024-06-11 14:03:52.836718
20.87719588,0.2151770741,1.538595915,0.2944037914,2024-06-11 14:03:52.877196
20.91771296,0.3075860441,1.464295983,-0.05565842614,2024-06-11 14:03:52.917713
20.95820525,0.5981283188,1.684532881,-0.1699046642,2024-06-11 14:03:52.958205
20.9986902,0.5587147474,1.49891603,-0.311580658,2024-06-11 14:03:52.998690
21.0391764,0.7857425213,2.140053034,-0.267639786,2024-06-11 14:03:53.039176
21.0796765,1.060838938,2.33578968,-0.3006620109,2024-06-11 14:03:53.079677
21.12013906,0.8437976837,1.389196992,-0.3991960883,2024-06-11 14:03:53.120139
21.16061562,0.2202369273,1.97361052,-0.4239627421,2024-06-11 14:03:53.160616
21.20110531,-0.3711005449,2.383325815,-0.1994648874,2024-06-11 14:03:53.201105
21.24159291,-0.947524786,-1.313166022,-0.6667027473,2024-06-11 14:03:53.241593
21.28207479,0.3201025128,-2.705958128,-2.121810913,2024-06-11 14:03:53.282075
21.32255859,-0.7637720704,4.515522957,-1.070159674,2024-06-11 14:03:53.322559
21.36304385,-0.3370130956,3.791297436,-0.2151770741,2024-06-11 14:03:53.363044
21.40351609,0.5738942623,1.80876565,-0.7143719196,2024-06-11 14:03:53.403516
21.4440115,-0.04860125855,0.837539494,-0.3667064607,2024-06-11 14:03:53.444011
21.48452036,-1.495453954,0.2765611112,0.2707023323,2024-06-11 14:03:53.484520
21.52502525,-1.428344369,0.4296883643,0.661909163,2024-06-11 14:03:53.525025
21.56545458,-1.339929938,-1.697715163,0.1426080763,2024-06-11 14:03:53.565455
21.60590812,-1.700245023,-2.91394496,0.06231613085,2024-06-11 14:03:53.605908
21.64639093,-1.020226955,-0.02117150649,0.7805495262,2024-06-11 14:03:53.646391
21.68687437,-0.5300865769,3.182117462,0.9997211695,2024-06-11 14:03:53.686874
21.72742593,-0.9326115251,1.651510596,0.5053198934,2024-06-11 14:03:53.727426
21.76790973,-1.36682713,-3.540967703,-1.053382277,2024-06-11 14:03:53.767910
21.80840088,0.4487294257,-3.724587202,-0.9647016525,2024-06-11 14:03:53.808401
21.8488338,0.7979927063,4.229241371,-0.8443303108,2024-06-11 14:03:53.848834
21.88937093,0.9071790576,5.171307087,0.6310173869,2024-06-11 14:03:53.889371
21.92986999,0.037815772,3.274526358,1.836328626,2024-06-11 14:03:53.929870
21.97033442,-0.6266233325,0.1660431921,1.958164573,2024-06-11 14:03:53.970334
22.01081572,-0.1420754492,-0.1920082569,0.8833444715,2024-06-11 14:03:54.010816
22.05132656,0.4287562966,-1.645252347,0.4525908828,2024-06-11 14:03:54.051327
22.09178671,-0.6252917647,-2.124474049,0.6523220539,2024-06-11 14:03:54.091787
22.13224963,0.05645735189,-3.080121279,-0.1272953451,2024-06-11 14:03:54.132250
22.17276317,0.3595161438,-2.779459238,-0.5046541691,2024-06-11 14:03:54.172763
22.21322885,0.5243609548,-2.52060771,-0.0708379969,2024-06-11 14:03:54.213229
22.25371619,0.4974638224,-2.088522434,0.2390116602,2024-06-11 14:03:54.253716
22.29419817,0.5536548495,-1.653507948,0.2166417688,2024-06-11 14:03:54.294198
22.33472317,0.9364729524,-1.70117712,0.02263620123,2024-06-11 14:03:54.334723
22.37520786,0.9085106254,-1.360568881,-0.1478010863,2024-06-11 14:03:54.375208
22.41561192,0.8459281921,-0.06657706201,-0.1150451675,2024-06-11 14:03:54.415612
22.45609645,0.4926702678,1.602776289,-0.02236989327,2024-06-11 14:03:54.456096
22.49658109,0.08628387749,0.9211602807,-0.2295577228,2024-06-11 14:03:54.496581
22.53706578,-0.07869409025,-0.6290200949,-0.53328228,2024-06-11 14:03:54.537066
22.57758718,-0.4448679388,-0.04567186534,-0.2330197245,2024-06-11 14:03:54.577587
22.6180715,-1.007444143,1.589194536,-0.1411433816,2024-06-11 14:03:54.618071
22.65856874,-0.5167711973,0.4600475132,-0.5220973492,2024-06-11 14:03:54.658569
22.6990751,-0.7635057569,-0.5989272594,-0.7433995008,2024-06-11 14:03:54.699075
22.73952692,-1.173886776,-0.1240996495,-0.475093931,2024-06-11 14:03:54.739527
22.78001723,-1.176283598,0.9949276447,-0.104392834,2024-06-11 14:03:54.780017
22.82049489,-1.608368754,0.4789553881,-0.06737598777,2024-06-11 14:03:54.820495
22.86096468,-1.538329601,-0.3904078901,-0.434348762,2024-06-11 14:03:54.860965
22.9015327,-1.112902164,0.4278241992,-0.233286038,2024-06-11 14:03:54.901533
22.94201406,-0.5212984085,1.396387339,-0.704518497,2024-06-11 14:03:54.942014
22.98243338,1.112502694,0.8173000216,-1.597316861,2024-06-11 14:03:54.982433
23.02299411,2.985848188,-0.7279536128,-2.160159349,2024-06-11 14:03:55.022994
23.0634726,2.978924036,-1.000653267,-1.31742692,2024-06-11 14:03:55.063473
23.10389354,0.6768224239,3.780645132,-0.6627081037,2024-06-11 14:03:55.103894
23.14438562,-1.225950003,8.09630394,0.08655018359,2024-06-11 14:03:55.144386
23.18491083,-2.630459785,5.214715004,0.9746882319,2024-06-11 14:03:55.184911
23.22539525,-1.588395596,3.098230362,1.403311372,2024-06-11 14:03:55.225395
23.26584046,-1.025286794,7.053440571,1.054314375,2024-06-11 14:03:55.265840
23.30632489,3.455216408,-0.3840165138,0.8577789068,2024-06-11 14:03:55.306325
23.34680791,4.329772949,-4.525242805,-1.355242729,2024-06-11 14:03:55.346808
23.38729697,1.686530232,0.4714987576,-1.822746873,2024-06-11 14:03:55.387297
23.42778671,0.8994561434,2.68132472,-0.8475260139,2024-06-11 14:03:55.427787
23.4682763,2.56215167,-4.994611263,-0.3051892519,2024-06-11 14:03:55.468276
23.50877093,0.860308826,-9.410135269,-4.32897377,2024-06-11 14:03:55.508771
23.54922661,-2.527931213,-2.350303411,-3.788501263,2024-06-11 14:03:55.549227
23.58971239,-0.3836170435,2.395309687,-0.7993242145,2024-06-11 14:03:55.589712
23.63022411,2.70462656,-2.769073248,-2.043250084,2024-06-11 14:03:55.630224
23.67073432,-1.024221539,4.963320255,1.820083737,2024-06-11 14:03:55.670734
23.71116567,-5.197937489,9.287234306,4.412727833,2024-06-11 14:03:55.711166
23.75165645,-1.869750261,5.973560333,2.95668745,2024-06-11 14:03:55.751656
23.7921452,-2.41634798,1.58280313,1.919150472,2024-06-11 14:03:55.792145
23.83262369,-1.507970452,2.648835182,2.434590101,2024-06-11 14:03:55.832624
23.87309989,0.7924002409,0.4640421271,0.1343525201,2024-06-11 14:03:55.873100
23.91362031,1.412232637,-4.280638695,-1.862693071,2024-06-11 14:03:55.913620
23.95412385,-0.0323564522,-1.772814035,-3.102091789,2024-06-11 14:03:55.954124
23.99459333,-0.6647053957,0.2411421239,-3.435775995,2024-06-11 14:03:55.994593
24.03510452,-0.3601819277,1.726343274,-1.879736781,2024-06-11 14:03:56.035105
24.07559567,0.3965329826,2.682389975,-1.003050089,2024-06-11 14:03:56.075596
24.1160714,2.095446587,2.727662325,-0.8680317402,2024-06-11 14:03:56.116071
24.15653255,3.647490978,-5.642139912,-0.2207695395,2024-06-11 14:03:56.156533
24.19700916,-0.01211702544,-1.872945905,-0.01544587873,2024-06-11 14:03:56.197009
24.23747546,-1.650711775,1.294124961,-0.7375407219,2024-06-11 14:03:56.237475
24.27795682,0.3041240275,-2.334857702,-1.351780653,2024-06-11 14:03:56.277957
24.31845635,-1.931001186,0.6002588272,2.691710711,2024-06-11 14:03:56.318456
24.35896817,-2.333925486,-2.299971342,2.311555624,2024-06-11 14:03:56.358968
24.39942176,-1.101184607,-6.174090385,2.85415864,2024-06-11 14:03:56.399422
24.43990031,-0.3745625615,-6.369560719,3.038444042,2024-06-11 14:03:56.439900
24.48043119,-2.216217279,-1.886927128,2.697036743,2024-06-11 14:03:56.480431
24.52094166,-0.8258218765,-3.26986599,0.7451304793,2024-06-11 14:03:56.520942
24.5614015,0.03089175746,-4.339093685,0.2272941023,2024-06-11 14:03:56.561401
24.60187223,0.3155752718,-4.118457317,2.295577049,2024-06-11 14:03:56.601872
24.64235145,-0.2054568231,-2.256829262,2.958817959,2024-06-11 14:03:56.642351
24.6828377,-0.250729233,-2.607690334,2.220211983,2024-06-11 14:03:56.682838
24.72330874,-0.3950682878,-2.03259778,1.025286794,2024-06-11 14:03:56.723309
24.76379656,-0.5774894357,-0.9527177811,0.1101184636,2024-06-11 14:03:56.763797
24.80427572,-0.5165048838,-1.699046731,0.3396761715,2024-06-11 14:03:56.804276
24.8447552,-0.6492595077,-2.17054534,1.263366342,2024-06-11 14:03:56.844755
24.88528458,-1.006378889,-1.329677105,2.112623453,2024-06-11 14:03:56.885285
24.92578442,-1.29039669,-0.9655005932,2.938844681,2024-06-11 14:03:56.925784
24.96623635,-1.695185184,-0.513974905,3.5144701,2024-06-11 14:03:56.966236
25.00670671,-1.57241714,-0.1139799356,2.349637747,2024-06-11 14:03:57.006707
25.04720614,-1.237933874,0.28241992,-0.3480648994,2024-06-11 14:03:57.047206
25.08765583,-0.6412702799,-0.5773562789,0.1716356725,2024-06-11 14:03:57.087656
25.12818244,0.1443390697,1.122489333,0.1516625583,2024-06-11 14:03:57.128182
25.16865124,0.3145100474,1.058308959,0.09107742459,2024-06-11 14:03:57.168651
25.20912083,-0.2885449827,0.7528534532,-0.1288931966,2024-06-11 14:03:57.209121
25.24961874,0.1264964193,0.650857389,-0.06817491353,2024-06-11 14:03:57.249619
25.29012291,0.4961322844,0.8881380558,0.1130478531,2024-06-11 14:03:57.290123
25.3306113,0.4596480429,0.6362104416,0.037815772,2024-06-11 14:03:57.330611
25.37106671,-0.2557890713,0.7778863907,-0.117974557,2024-06-11 14:03:57.371067
25.41153312,-0.9001219273,0.04833494872,-0.3443365693,2024-06-11 14:03:57.411533
25.45202734,-0.9400681257,0.5212984085,-0.199731186,2024-06-11 14:03:57.452027
25.49256906,-0.4736292362,-0.3597824574,0.21264714,2024-06-11 14:03:57.492569
25.53303301,0.8515206575,-1.10850811,0.3236976862,2024-06-11 14:03:57.533033
25.57350963,2.263753414,-2.239519358,0.3071865737,2024-06-11 14:03:57.573510
25.61399484,3.513537884,-1.352579594,0.08814803511,2024-06-11 14:03:57.613995
25.65445692,3.784506559,-1.155378342,-0.06338136643,2024-06-11 14:03:57.654457
25.69499926,1.98359704,-1.212900996,0.05752258375,2024-06-11 14:03:57.694999
25.73544973,1.328878164,-1.802374244,-0.5415378213,2024-06-11 14:03:57.735450
25.77593223,1.589594007,-1.587729812,-0.7641715407,2024-06-11 14:03:57.775932
25.81642244,1.283872128,-2.542178631,-0.1762960702,2024-06-11 14:03:57.816422
25.85684994,0.5733616948,-1.97614038,-0.2386122048,2024-06-11 14:03:57.856850
25.89742432,0.2742975056,-1.43247211,-0.7111762166,2024-06-11 14:03:57.897424
25.93786791,0.7298177481,0.09280842543,0.05512581021,2024-06-11 14:03:57.937868
25.97834864,0.2809551954,-0.3784240186,1.195990324,2024-06-11 14:03:57.978349
26.0188488,-0.9520519972,-0.5448666811,0.1119826213,2024-06-11 14:03:58.018849
26.05934078,-1.734598875,0.5202331543,-0.7913349867,2024-06-11 14:03:58.059341
26.09982937,-1.923278213,2.307560921,-1.566957831,2024-06-11 14:03:58.099829
26.14031208,-0.4557865858,2.555627108,-2.041385889,2024-06-11 14:03:58.140312
26.18076551,-1.358305216,4.266790867,-1.56163156,2024-06-11 14:03:58.180766
26.22128307,-2.532458305,2.758820295,-0.9327446818,2024-06-11 14:03:58.221283
26.26174749,-3.546160698,3.794226885,1.044461012,2024-06-11 14:03:58.261747
26.30222119,-0.6524552107,1.362566233,0.926220119,2024-06-11 14:03:58.302221
26.34272666,-2.031931877,0.1900109351,-0.2348838747,2024-06-11 14:03:58.342727
26.38322275,-0.9954602718,-1.712362051,-0.3810871243,2024-06-11 14:03:58.383223
26.42366203,1.201183438,-1.980135083,0.1511299312,2024-06-11 14:03:58.423662
26.46417239,2.371874571,-2.478930473,0.164179042,2024-06-11 14:03:58.464172
26.50469468,2.264019728,-2.856955051,-0.2034595013,2024-06-11 14:03:58.504695
26.54516369,2.56508112,-2.206496954,0.01704372838,2024-06-11 14:03:58.545164
26.58562562,6.392995834,4.626040936,2.290251017,2024-06-11 14:03:58.585626
26.62610895,1.543522596,-0.325695008,0.05592473224,2024-06-11 14:03:58.626109
26.66659942,-2.979323626,-4.663989544,0.07643046975,2024-06-11 14:03:58.666599
26.70708624,-3.448159218,-2.939510584,-0.5134423375,2024-06-11 14:03:58.707086
26.74757828,-3.280118704,-0.9511199594,-1.355509043,2024-06-11 14:03:58.747578
26.78806442,-2.008230448,1.762561202,-1.493456721,2024-06-11 14:03:58.788064
26.82849692,3.932041407,1.788526297,-0.6643059254,2024-06-11 14:03:58.828497
26.86898458,5.089949608,-0.02143781446,0.2011958808,2024-06-11 14:03:58.868985
26.90952765,0.4111799598,-0.3531247377,-0.1248985752,2024-06-11 14:03:58.909528
26.95001192,-4.417787552,0.5917369723,-2.213421106,2024-06-11 14:03:58.950012
26.9904852,-5.99859333,-1.748846292,-0.6054518223,2024-06-11 14:03:58.990485
27.03096807,-8.352492332,4.528572083,1.63180387,2024-06-11 14:03:59.030968
27.07147041,1.952172637,0.5426030755,-0.1057243794,2024-06-11 14:03:59.071470
27.11192895,0.1936061084,0.556584239,1.367892385,2024-06-11 14:03:59.111929
27.15242619,1.291328788,-1.516891837,1.619819999,2024-06-11 14:03:59.152426
27.1929014,1.631670713,-1.362699389,1.497584462,2024-06-11 14:03:59.192901
27.23339411,1.312633395,-1.696916223,1.078548431,2024-06-11 14:03:59.233394
27.27387765,1.562430501,-4.236698151,0.2794905007,2024-06-11 14:03:59.273878
27.31435921,2.006765842,-2.487718582,0.7499240637,2024-06-11 14:03:59.314359
27.35483104,0.1014634445,2.432859182,-0.2468677461,2024-06-11 14:03:59.354831
27.39538369,1.534468174,-0.8374063373,-0.3808208108,2024-06-11 14:03:59.395384
27.43582385,0.3680379987,-2.938179016,-0.4577838778,2024-06-11 14:03:59.435824
27.47628635,-2.059894323,-3.822322369,-0.6765561104,2024-06-11 14:03:59.476286
27.51683546,-1.966686487,-0.7689650655,-0.9559134841,2024-06-11 14:03:59.516835
27.55728234,-0.5784215331,1.467225313,-1.011305571,2024-06-11 14:03:59.557282
27.59774848,3.501021385,5.645468712,-0.5449998379,2024-06-11 14:03:59.597748
27.63822973,3.613669872,4.427108288,0.7046516538,2024-06-11 14:03:59.638230
27.67872364,-0.2286256403,2.327267885,0.7920007706,2024-06-11 14:03:59.678724
27.71921796,-3.415403366,-1.078681588,-0.1818885356,2024-06-11 14:03:59.719218
27.7596838,-4.871443748,-0.4636426866,-0.6456643939,2024-06-11 14:03:59.759684
27.80016166,1.372819066,9.962724686,-0.8254224658,2024-06-11 14:03:59.800162
27.84061525,-1.276548624,-0.5845466256,1.042596817,2024-06-11 14:03:59.840615
27.88111572,-1.092929125,-4.958659649,0.03222329915,2024-06-11 14:03:59.881116
27.92162051,0.2492645234,-2.791975737,-0.6352783442,2024-06-11 14:03:59.921621
27.96210744,0.6821485758,-1.031278729,-0.2202369273,2024-06-11 14:03:59.962107
28.00257911,1.26176846,0.3636439145,-0.1704372764,2024-06-11 14:04:00.002579
28.04309478,2.627130985,0.3537905216,0.06924014539,2024-06-11 14:04:00.043095
28.08361979,3.638969183,-3.015408278,2.354165077,2024-06-11 14:04:00.083620
28.12408833,1.001452208,-1.31449759,1.350582361,2024-06-11 14:04:00.124088
28.16458249,2.129001379,-0.1850842386,-0.3222329915,2024-06-11 14:04:00.164582
28.20507531,1.617556334,0.6242265701,-1.489462018,2024-06-11 14:04:00.205075
28.24555124,0.05752258375,0.8612409234,-2.113289118,2024-06-11 14:04:00.245551
28.28598312,-1.413431048,0.09893351793,-1.925275564,2024-06-11 14:04:00.285983
28.32642432,-1.559101701,-1.012903452,-0.9969249368,2024-06-11 14:04:00.326424
28.36696031,0.3110480309,-2.508623838,-0.05406057462,2024-06-11 14:04:00.366960
28.40742411,3.518597841,3.060680866,1.286535144,2024-06-11 14:04:00.407424
28.44794854,-0.5644403696,-2.470142126,0.9485899806,2024-06-11 14:04:00.447949
28.48842734,2.623402596,-4.639755726,-1.353378534,2024-06-11 14:04:00.488427
28.52890609,-0.4222317338,2.544175863,-2.117017508,2024-06-11 14:04:00.528906
28.56937739,1.75017786,0.01770949923,0.7248910666,2024-06-11 14:04:00.569377
28.60986317,-0.570032835,-0.9961260557,1.360702038,2024-06-11 14:04:00.609863
28.65037015,-0.1572550237,-1.779738069,-1.393591046,2024-06-11 14:04:00.650370
28.69084322,-0.2315550297,-0.5371437669,-0.1845516264,2024-06-11 14:04:00.690843
28.7313389,0.1600512564,-0.1107842326,0.6480611563,2024-06-11 14:04:00.731339
28.77180156,-0.1178414002,-0.638607204,-0.1813559234,2024-06-11 14:04:00.771802
28.81228385,-0.2573869228,0.0904116556,0.3191704452,2024-06-11 14:04:00.812284
28.85273494,-0.5015916228,1.135272145,-0.03169068322,2024-06-11 14:04:00.852735
28.89327729,-0.4637758136,1.46482861,0.01944050193,2024-06-11 14:04:00.893277
28.93380317,-0.2983984053,0.489341408,0.0221035853,2024-06-11 14:04:00.933803
28.97424645,-0.6575151086,0.3559209704,-0.2213021666,2024-06-11 14:04:00.974246
29.01478515,0.01051917579,0.3998618424,-0.2063889056,2024-06-11 14:04:01.014785
29.05526874,0.1187734827,0.1311568171,-0.90291816,2024-06-11 14:04:01.055269
29.09574676,0.1922745556,0.160983339,-1.053115964,2024-06-11 14:04:01.095747
29.13613291,0.4290226102,0.4701672196,-0.4519250989,2024-06-11 14:04:01.136133
29.17660281,0.3967992961,0.672960937,-0.3203688264,2024-06-11 14:04:01.176603
29.21708656,-0.1348851323,0.5738942623,-0.323830843,2024-06-11 14:04:01.217087
29.25762666,-0.8644366264,1.228346825,-0.1214365661,2024-06-11 14:04:01.257627
29.29810338,-1.281342149,0.9648348093,1.22395277,2024-06-11 14:04:01.298103
29.33862307,0.1813559234,0.9387366176,1.064434052,2024-06-11 14:04:01.338623
29.37913932,1.047523499,0.3745625615,-0.4844147265,2024-06-11 14:04:01.379139
29.41954005,0.2527265251,-2.146311283,-0.3336842358,2024-06-11 14:04:01.419540
29.46009926,1.352579594,1.062836289,-1.018762231,2024-06-11 14:04:01.460099
29.50050963,1.643121958,5.008059978,-1.392525911,2024-06-11 14:04:01.500510
29.5410839,0.4753602445,5.142013073,-1.29665494,2024-06-11 14:04:01.541084
29.5815077,-1.421154022,2.496773005,-0.575891614,2024-06-11 14:04:01.581508
29.62199145,-2.453364849,0.3934704363,-0.04846810177,2024-06-11 14:04:01.621991
29.66248869,-3.474523783,0.06617759913,0.04713656008,2024-06-11 14:04:01.662489
29.70296296,-4.648410797,0.8077129126,0.6254249215,2024-06-11 14:04:01.702963
29.74346791,-3.428186178,-1.15750885,-0.05858781561,2024-06-11 14:04:01.743468
29.78392468,-0.3756277859,2.275870323,0.2736317217,2024-06-11 14:04:01.783925
29.82440765,1.827407241,2.451766968,-0.09240896255,2024-06-11 14:04:01.824408
29.86483239,1.557104349,1.777873874,0.1487331539,2024-06-11 14:04:01.864832
29.9054577,0.6338136196,-0.4948007464,1.730071545,2024-06-11 14:04:01.905458
29.94583489,0.05113118514,-0.7106435895,3.910603523,2024-06-11 14:04:01.945835
29.98632426,0.734877646,-0.4772244096,0.9198287129,2024-06-11 14:04:01.986324
30.02681416,0.237813279,-0.08575125784,0.003994623665,2024-06-11 14:04:02.026814
30.06731588,-0.4730966091,-0.4897408783,0.7192986012,2024-06-11 14:04:02.067316
30.10781801,0.4191691875,-1.792254567,0.4102478623,2024-06-11 14:04:02.107818
30.14828322,1.184405923,-1.361634135,0.4328840673,2024-06-11 14:04:02.148283
30.18877656,0.7631062865,-1.285736203,0.4145087898,2024-06-11 14:04:02.188777
30.22926176,-1.403843999,-3.400889635,0.4174381793,2024-06-11 14:04:02.229262
30.26975078,-1.457105637,-0.7950633168,0.07722939551,2024-06-11 14:04:02.269751
30.31024119,0.1509967744,0.5733616948,-0.2061225921,2024-06-11 14:04:02.310241
30.35073109,2.37693429,1.875076413,-0.1704372764,2024-06-11 14:04:02.350731
30.39120728,3.958139658,4.64414978,0.08628387749,2024-06-11 14:04:02.391207
30.43166932,2.286655903,3.194900036,-0.8280855417,2024-06-11 14:04:02.431669
30.47218484,1.040333152,0.9930635095,-1.647915483,2024-06-11 14:04:02.472185
30.51267176,-0.000133154128,-0.9945281744,-2.235790968,2024-06-11 14:04:02.512672
30.55314348,-1.583868384,-0.7431331873,-1.559234858,2024-06-11 14:04:02.553143
30.59362619,-2.994769573,3.558144569,-1.397852063,2024-06-11 14:04:02.593626
30.6341063,1.385069251,1.578009605,-3.4887712,2024-06-11 14:04:02.634106
30.67459973,3.186245203,1.576145411,-3.902747393,2024-06-11 14:04:02.674600
30.71512718,1.945248604,0.4869446456,-4.577173233,2024-06-11 14:04:02.715127
30.75559614,0.3294233084,4.259866714,-0.6230281591,2024-06-11 14:04:02.755596
30.79602369,1.091997027,3.046033859,1.992518425,2024-06-11 14:04:02.796024
30.83650942,2.990907907,4.951869011,2.112889767,2024-06-11 14:04:02.836509
30.87699515,3.530581713,9.71878624,1.352979064,2024-06-11 14:04:02.876995
30.9174852,2.318080187,8.484714508,1.622483015,2024-06-11 14:04:02.917485
30.95798702,1.167628527,4.332835197,0.2983984053,2024-06-11 14:04:02.957987
30.99848171,0.3078523576,1.831668139,-1.644453526,2024-06-11 14:04:02.998482
31.0389688,-0.2885449827,6.643059254,-1.053382277,2024-06-11 14:04:03.038969
31.07943119,0.005459319334,4.56692028,0.253392309,2024-06-11 14:04:03.079431
31.11992593,0.8906679749,2.348838806,0.9613727927,2024-06-11 14:04:03.119926
31.16042385,0.7154371142,3.706345081,1.364962935,2024-06-11 14:04:03.160424
31.20089432,2.16468668,1.281075835,1.197055578,2024-06-11 14:04:03.200894
31.24138765,2.753360987,-0.08655018359,1.129147053,2024-06-11 14:04:03.241388
31.28187489,3.334312439,-2.53685236,2.313153505,2024-06-11 14:04:03.281875
31.32236343,1.100518823,-2.6987679,2.68718338,2024-06-11 14:04:03.322363
31.36286354,0.354189992,-2.351634979,0.3396761715,2024-06-11 14:04:03.362864
31.40331249,1.495853424,-2.381195307,-2.324471712,2024-06-11 14:04:03.403312
31.44379182,1.247387886,-1.124486566,-2.066418886,2024-06-11 14:04:03.443792
31.48430234,-0.03688369319,-1.127416015,-1.562430501,2024-06-11 14:04:03.484302
31.52480531,-1.267227888,-0.1904104054,-1.435135245,2024-06-11 14:04:03.524805
31.56528083,-1.751642585,2.630992413,-1.061637878,2024-06-11 14:04:03.565281
31.60575854,0.6332810521,4.635361671,-0.7886719108,2024-06-11 14:04:03.605759
31.64624078,5.253196716,4.366922855,-0.4657731354,2024-06-11 14:04:03.646241
31.68672739,2.190784931,6.389667034,0.5782883763,2024-06-11 14:04:03.686727
31.72721369,0.9774844646,6.530544281,-0.08708280325,2024-06-11 14:04:03.727214
31.76768937,2.256030321,2.488251209,-1.918351531,2024-06-11 14:04:03.767689
31.80817239,1.584267855,-0.7463288903,-1.392259598,2024-06-11 14:04:03.808172
31.8485776,1.659100413,1.973077893,-0.7090457082,2024-06-11 14:04:03.848578
31.88913869,3.069468975,6.179549694,-0.9399349689,2024-06-11 14:04:03.889139
31.92962114,4.367322445,6.376085281,-1.035539627,2024-06-11 14:04:03.929621
31.97009578,5.717238903,4.530169964,-1.419689298,2024-06-11 14:04:03.970096
32.0105852,6.526682854,4.13297081,-1.562963128,2024-06-11 14:04:04.010585
32.0510751,3.444830418,4.481435299,-2.189719677,2024-06-11 14:04:04.051075
32.09152978,0.8302159905,3.909804583,-2.723800898,2024-06-11 14:04:04.091530
32.13203541,6.168231964,6.516962528,2.164553404,2024-06-11 14:04:04.132035
32.17250734,6.570357323,7.639451981,-0.2489982247,2024-06-11 14:04:04.172507
32.21298885,0.7817478776,2.464816093,-2.909950256,2024-06-11 14:04:04.212989
32.25348807,-0.8282186985,0.6615096927,-1.963623881,2024-06-11 14:04:04.253488
32.29395859,0.2836183012,0.9738892913,-1.853106022,2024-06-11 14:04:04.293959
32.33445484,0.2782921195,0.6702978611,-1.962292433,2024-06-11 14:04:04.334455
32.37498562,0.590139091,2.03512764,-1.908231854,2024-06-11 14:04:04.374986
32.41540478,1.027550459,1.999442339,-1.345389366,2024-06-11 14:04:04.415405
32.45588671,0.4822842479,1.860695839,-0.9045159817,2024-06-11 14:04:04.455887
32.49642979,-0.727820456,3.159481049,-0.08388710022,2024-06-11 14:04:04.496430
32.5369139,-1.684266567,0.2464682907,0.9184971452,2024-06-11 14:04:04.536914
32.57744786,-3.270797968,-1.283605814,0.9693620801,2024-06-11 14:04:04.577448
32.61783458,-2.944170952,-3.500755072,-0.146735847,2024-06-11 14:04:04.617835
32.65834395,-0.2645772398,-0.1597849578,0.1556571722,2024-06-11 14:04:04.658344
32.69884234,0.4516588151,-1.956966162,0.8860075474,2024-06-11 14:04:04.698842
32.73930598,-1.640591979,-2.219279766,0.9427312016,2024-06-11 14:04:04.739306
32.77980041,-2.713547945,-3.428053141,1.578542233,2024-06-11 14:04:04.779800
32.82026562,-2.075606585,-0.6564498544,0.9235570431,2024-06-11 14:04:04.820266
32.86072452,-1.079879999,-2.5309937,-0.3738967776,2024-06-11 14:04:04.860725
32.90126036,-0.6623086333,-0.5083824396,-0.5878754854,2024-06-11 14:04:04.901260
32.94173874,-0.1167761683,-0.7143719196,0.3873453438,2024-06-11 14:04:04.941739
32.98221848,-0.4954665005,-0.6434007287,1.219958067,2024-06-11 14:04:04.982218
33.02275354,-1.227547884,-1.885329247,-0.1989322603,2024-06-11 14:04:05.022754
33.06324692,-1.326081991,-2.960815191,0.03435376659,2024-06-11 14:04:05.063247
33.10373036,-0.4099815488,-1.077083707,-0.3414071798,2024-06-11 14:04:05.103730
33.14421765,0.6215634942,-0.004127778113,-0.117974557,2024-06-11 14:04:05.144218
33.18462807,0.9220923185,-0.4431369305,0.07003907114,2024-06-11 14:04:05.184628
33.22516531,0.3185046613,-1.305443048,-0.3190372884,2024-06-11 14:04:05.225165
33.26558734,-0.5580489635,-1.587197185,-0.292140156,2024-06-11 14:04:05.265587
33.30607187,0.1909430176,-0.7644378543,0.02902759984,2024-06-11 14:04:05.306072
33.34658453,2.227269173,0.04593817517,-0.3848154247,2024-06-11 14:04:05.346585
33.38704109,1.459369302,0.8109086156,-0.7556496859,2024-06-11 14:04:05.387041
33.427539,0.3312874734,0.2491313666,-0.6232944727,2024-06-11 14:04:05.427539
33.46803578,-0.05472634733,0.7062494755,-0.9492557645,2024-06-11 14:04:05.468036
33.50852833,-0.1580539495,1.219558716,-1.109040737,2024-06-11 14:04:05.508528
33.54901109,-0.3170399666,0.6388735175,-1.221023321,2024-06-11 14:04:05.549011
33.5894977,-1.283472657,0.9922645688,-1.303845167,2024-06-11 14:04:05.589498
33.62997942,-1.700245023,1.114766359,-1.332073927,2024-06-11 14:04:05.629979
33.67045828,-1.254178762,1.798113346,-0.6776213646,2024-06-11 14:04:05.670458
33.71094005,-0.3338173926,2.132063866,0.0596530512,2024-06-11 14:04:05.710940
33.75142395,0.5525896549,2.515414715,0.4672378302,2024-06-11 14:04:05.751424
33.79191452,1.313698649,1.79172194,0.7797505856,2024-06-11 14:04:05.791915
33.832369,0.1243659556,0.7035863996,0.3047898114,2024-06-11 14:04:05.832369
33.87285041,-0.3346163332,1.872147083,0.3969324529,2024-06-11 14:04:05.872850
33.91336562,0.6959966421,0.418769747,0.2874797583,2024-06-11 14:04:05.913366
33.95385093,0.4697677493,-1.033409238,-0.6304848194,2024-06-11 14:04:05.953851
33.99432255,2.171610594,1.77387929,0.1404775977,2024-06-11 14:04:05.994323
34.03481692,2.340716362,1.292260766,1.278545976,2024-06-11 14:04:06.034817
34.07533328,2.05709815,0.6862763762,1.013036609,2024-06-11 14:04:06.075333
34.11580994,0.544334054,1.926473975,-0.0114512546,2024-06-11 14:04:06.115810
34.15630671,-1.899576783,0.9155677557,-0.2665745616,2024-06-11 14:04:06.156307
34.19674645,-1.728473783,-1.671883225,-0.6334142089,2024-06-11 14:04:06.196746
34.23726447,-1.092130184,-0.06657706201,-0.1949376464,2024-06-11 14:04:06.237264
34.27773463,-0.000133154128,-0.562443018,-0.01065232977,2024-06-11 14:04:06.277735
34.31821557,-0.1820216924,-0.5552527308,0.4137098789,2024-06-11 14:04:06.318216
34.35872218,-1.555639625,-2.193980455,0.2920069993,2024-06-11 14:04:06.358722
34.39919728,-2.081465244,-3.007419109,-0.2729659677,2024-06-11 14:04:06.399197
34.43965869,0.734877646,-3.706345081,-0.4990616739,2024-06-11 14:04:06.439659
34.48014557,3.138043404,-1.903970838,-0.3307548463,2024-06-11 14:04:06.480146
34.52064223,2.14471364,-1.142329216,-0.2007964253,2024-06-11 14:04:06.520642
34.56113119,-0.08082455397,-0.6978607774,0.1822880059,2024-06-11 14:04:06.561131
34.60161645,-2.006899118,0.1700378209,0.6962629557,2024-06-11 14:04:06.601616
34.64208801,-2.692509651,-1.009974003,1.041797876,2024-06-11 14:04:06.642088
34.68257062,-4.381037235,-8.940501213,0.9424648881,2024-06-11 14:04:06.682571
34.72306161,-0.8521864414,0.09600412846,-0.284417212,2024-06-11 14:04:06.723062
34.76354478,2.34204793,1.176150441,1.083874583,2024-06-11 14:04:06.763545
34.804009,1.562430501,-0.2428731322,3.699021578,2024-06-11 14:04:06.804009
34.84445676,-0.4635095298,-2.865476847,0.889469564,2024-06-11 14:04:06.844457
34.88500057,-2.437119961,-0.8230256438,-0.5657718778,2024-06-11 14:04:06.885001
34.92547671,-0.6290200949,-2.359624386,0.3079854846,2024-06-11 14:04:06.925477
34.96596911,0.02356828004,-1.357639432,1.14006567,2024-06-11 14:04:06.965969
35.00646739,-1.389729619,-2.50276494,0.07802832127,2024-06-11 14:04:07.006467
35.04691546,-2.606492043,-3.714467525,-0.5354127288,2024-06-11 14:04:07.046915
35.08741354,-0.3553883731,-1.933531046,0.05725627393,2024-06-11 14:04:07.087414
35.1278888,-0.2142449915,-1.50224483,0.159651801,2024-06-11 14:04:07.127889
35.16839729,-1.121424079,-1.358704686,-0.7673672438,2024-06-11 14:04:07.168397
35.20887864,-1.08147788,0.4941349626,-1.810230374,2024-06-11 14:04:07.208879
35.2493552,-2.159493685,-0.8738905191,-2.47746563,2024-06-11 14:04:07.249355
35.28985781,-2.308359861,-1.462032318,0.03621792421,2024-06-11 14:04:07.289858
35.33032682,0.0926752761,0.03768261895,-0.4202344418,2024-06-11 14:04:07.330327
35.37084505,0.8760210276,1.443790197,-0.4391423166,2024-06-11 14:04:07.370845
35.41125984,-0.07283531129,0.9943950176,0.08548495173,2024-06-11 14:04:07.411260
35.45182505,-0.4440690279,-0.4458000064,0.5926690102,2024-06-11 14:04:07.451825
35.49229786,-1.031411886,0.1351514459,1.724479079,2024-06-11 14:04:07.492298
35.53274702,-1.276548624,1.085472465,1.761229634,2024-06-11 14:04:07.532747
35.57325723,-2.604095221,1.837526917,1.537796974,2024-06-11 14:04:07.573257
35.61374119,-2.292115211,-1.483603239,0.3167736828,2024-06-11 14:04:07.613741
35.65419218,1.140731454,3.021799803,-1.392792225,2024-06-11 14:04:07.654192
35.69469551,1.785596848,2.769472599,-0.597196281,2024-06-11 14:04:07.694696
35.73522281,1.764824867,3.075061321,1.347919226,2024-06-11 14:04:07.735223
35.77565895,2.381994247,1.821814775,1.633401632,2024-06-11 14:04:07.775659
35.81610551,1.383205056,1.763360143,1.119559884,2024-06-11 14:04:07.816106
35.85658937,0.4268921316,2.730059147,0.6928009391,2024-06-11 14:04:07.856589
35.8971401,0.2069215178,-0.3589835167,0.334882617,2024-06-11 14:04:07.897140
35.93756786,0.1960028708,-2.560287476,-0.307053417,2024-06-11 14:04:07.937568
35.97808432,2.231263638,-1.003050089,0.6206313968,2024-06-11 14:04:07.978084
36.01856567,2.270411015,0.7760222554,0.9291495085,2024-06-11 14:04:08.018566
36.05906546,1.94871068,1.445121765,-0.7311493158,2024-06-11 14:04:08.059065
36.099544,0.9689626098,2.44590807,-1.585066795,2024-06-11 14:04:08.099544
36.1400064,-1.277081251,2.860283852,-0.6382077336,2024-06-11 14:04:08.140006
36.18051359,2.530727386,5.438014507,0.06737598777,2024-06-11 14:04:08.180514
36.22098525,-0.1937392503,3.544562817,-0.1832200736,2024-06-11 14:04:08.220985
36.26147432,-1.542324305,-2.936847448,-0.008788172156,2024-06-11 14:04:08.261474
36.3019689,-1.69784832,-3.168935061,-0.5094476938,2024-06-11 14:04:08.301969
36.3424488,-0.641802907,0.1876141727,-1.100252509,2024-06-11 14:04:08.342449
36.38296885,1.063502073,2.895969152,0.2999962568,2024-06-11 14:04:08.382969
36.42340275,1.160704494,0.8633713722,0.8806813955,2024-06-11 14:04:08.423403
36.46389864,-0.4432700872,1.479209185,0.7706961036,2024-06-11 14:04:08.463899
36.50441676,-0.2059894353,0.4451342523,-0.2303566486,2024-06-11 14:04:08.504417
36.5448852,0.8786841035,1.475214601,-0.1406107545,2024-06-11 14:04:08.544885
36.58537624,1.713693619,1.909163833,-0.2010627389,2024-06-11 14:04:08.585376
36.62586098,1.214765072,1.217161894,-0.327026546,2024-06-11 14:04:08.625861
36.66639426,-0.2169080675,0.8596430421,-0.3826849759,2024-06-11 14:04:08.666394
36.70674666,-0.7656362653,0.4254274368,-0.5258256793,2024-06-11 14:04:08.706747
36.74725145,-0.4166392684,0.5005263686,0.06790860742,2024-06-11 14:04:08.747251
36.78777854,-0.02170412242,-0.2668408751,0.4475310147,2024-06-11 14:04:08.787779
36.82823525,0.6093133092,-0.9188966155,0.1151783243,2024-06-11 14:04:08.828235
36.86870291,2.32793355,-1.324350953,0.3226324618,2024-06-11 14:04:08.868703
36.90922072,3.603550196,-3.172397137,0.3271597028,2024-06-11 14:04:08.909221
36.94970432,1.205178022,-1.754705071,-0.3320863843,2024-06-11 14:04:08.949704
36.99018291,0.3126458824,-2.536586046,-0.6794854999,2024-06-11 14:04:08.990183
37.03069484,0.01211702544,-0.06045197323,0.5679023266,2024-06-11 14:04:09.030695
37.07118947,-0.1202381775,1.41582787,0.904915452,2024-06-11 14:04:09.071189
37.1116351,-0.6332810521,1.327413559,0.7520545125,2024-06-11 14:04:09.111635
37.15212791,0.4545882046,-0.4002613127,1.306774616,2024-06-11 14:04:09.152128
37.1926089,2.434723139,-1.743786454,2.086791515,2024-06-11 14:04:09.192609
37.2330888,0.8097102642,0.9105079174,0.698659718,2024-06-11 14:04:09.233089
37.27358442,-0.6918688416,0.7078473568,0.1945381761,2024-06-11 14:04:09.273584
37.314059,2.735784769,-7.873137474,-1.269225121,2024-06-11 14:04:09.314059
37.35454369,3.575321436,2.200771332,-3.069602013,2024-06-11 14:04:09.354544
37.39505166,3.328986406,1.256042838,-2.040054321,2024-06-11 14:04:09.395052
37.43551348,2.604761124,0.001731003635,0.2667077184,2024-06-11 14:04:09.435513
37.47602942,2.300770283,0.4563191831,0.5484618545,2024-06-11 14:04:09.476029
37.51650749,0.802786231,-0.7175676227,-1.075752258,2024-06-11 14:04:09.516507
37.55691291,-0.1734998226,0.2438052148,-1.109839678,2024-06-11 14:04:09.556913
37.59741843,-0.1758965999,3.510209084,-0.8246235251,2024-06-11 14:04:09.597418
37.637934,-1.40091455,6.000457764,-2.231796265,2024-06-11 14:04:09.637934
37.6784488,-1.750311017,8.533448219,-4.042293072,2024-06-11 14:04:09.678449
37.71891682,-2.582257986,8.488176346,-4.356936455,2024-06-11 14:04:09.718917
37.75940364,-2.598769188,0.1005313694,-1.093861103,2024-06-11 14:04:09.759404
37.79988182,1.229944706,3.894358873,2.01142621,2024-06-11 14:04:09.799882
37.84030734,5.203130722,12.51129532,2.215418339,2024-06-11 14:04:09.840307
37.88084202,6.671021938,11.67601871,-3.672124624,2024-06-11 14:04:09.880842
37.92133234,0.4471315742,-1.686530232,-1.742588043,2024-06-11 14:04:09.921332
37.96181228,1.601311564,-2.650299788,-0.03941362351,2024-06-11 14:04:09.961812
38.00229874,2.771736383,-1.985461235,0.05379426852,2024-06-11 14:04:10.002299
38.04282005,3.515135765,-5.557453632,2.12727046,2024-06-11 14:04:10.042820
38.08328937,10.60878849,-6.411637783,12.09492207,2024-06-11 14:04:10.083289
38.12375895,6.389533997,8.515872002,9.334903717,2024-06-11 14:04:10.123759
38.16424218,-5.521901608,-8.427457809,1.52634573,2024-06-11 14:04:10.164242
38.2047413,-7.538520813,-7.519213676,-1.049387693,2024-06-11 14:04:10.204741
38.24526364,-8.653820038,-5.802723885,-2.1439147,2024-06-11 14:04:10.245264
38.28568765,-7.421611786,-4.533498764,-2.545907021,2024-06-11 14:04:10.285688
38.32613421,-4.555469036,-2.87533021,-2.033396721,2024-06-11 14:04:10.326134
38.36662348,-0.6471290588,-1.15750885,-0.03195698932,2024-06-11 14:04:10.366623
38.40710781,2.989576578,2.020480633,3.700619459,2024-06-11 14:04:10.407108
38.44762557,5.649862766,-0.2793573737,5.159323215,2024-06-11 14:04:10.447626
38.48809437,-1.31036973,-1.593854904,6.608306408,2024-06-11 14:04:10.488094
38.52859895,0.3824186623,0.2515281439,0.5141080618,2024-06-11 14:04:10.528599
38.56909025,1.232874036,2.561486006,-0.16031757,2024-06-11 14:04:10.569090
38.60957468,-2.002638102,-1.403710842,0.3218335211,2024-06-11 14:04:10.609575
38.65006437,-4.832429409,-3.523924112,-1.339530468,2024-06-11 14:04:10.650064
38.69053432,-4.540023327,-3.00156045,-0.9487231374,2024-06-11 14:04:10.690534
38.73102228,-5.087686062,-2.216084242,-0.3041240275,2024-06-11 14:04:10.731022
38.77148848,-5.457721233,-2.862281084,-0.9460600615,2024-06-11 14:04:10.771488
38.81199078,-4.811657429,-3.050028563,-0.9729571939,2024-06-11 14:04:10.811991
38.85240182,-2.371474981,-3.015408278,-0.4396749437,2024-06-11 14:04:10.852402
38.89295968,0.7729597092,-3.717663288,0.6342130899,2024-06-11 14:04:10.892960
38.93351166,1.83033669,-4.747610569,2.178934097,2024-06-11 14:04:10.933512
38.97392562,1.496119738,-2.940309525,3.3176682,2024-06-11 14:04:10.973926
39.01440078,2.060293913,-0.8949288726,3.583177567,2024-06-11 14:04:11.014401
39.0549315,3.151092529,-0.8038514853,2.860816479,2024-06-11 14:04:11.054932
39.09539437,2.369211435,-0.9103747606,3.988099337,2024-06-11 14:04:11.095394
39.13587932,-0.1378145218,-3.116738558,3.77824831,2024-06-11 14:04:11.135879
39.17636426,-1.957631946,-5.06571579,1.635532141,2024-06-11 14:04:11.176364
39.21684916,-1.647249699,-3.39902544,0.09680305421,2024-06-11 14:04:11.216849
39.25733416,-1.660831451,-1.25471139,-0.3733641803,2024-06-11 14:04:11.257334
39.29777578,-3.308880091,-1.469222665,-0.9716256857,2024-06-11 14:04:11.297776
39.3382739,-5.662246227,5.49686861,-2.500900745,2024-06-11 14:04:11.338274
39.37875885,-2.419543743,8.232120514,-2.764279604,2024-06-11 14:04:11.378759
39.41926807,1.127682328,-2.3116889,-0.09906667471,2024-06-11 14:04:11.419268
39.45972484,-3.400756359,-2.281595945,2.007964134,2024-06-11 14:04:11.459725
39.50023109,-5.311118603,4.078910351,1.921946645,2024-06-11 14:04:11.500231
39.54069682,-3.466800928,5.705388069,4.109802246,2024-06-11 14:04:11.540697
39.58117796,3.805811167,7.603766441,3.06054759,2024-06-11 14:04:11.581178
39.62166197,3.735239506,7.043587208,-1.086937189,2024-06-11 14:04:11.621662
39.66216828,-3.040707588,-4.780366421,-1.062170506,2024-06-11 14:04:11.662168
39.70265307,1.088268638,-6.37355566,-0.4276910722,2024-06-11 14:04:11.702653
39.74311807,0.9639027119,-2.292248249,1.166430116,2024-06-11 14:04:11.743118
39.7836302,4.307403088,-8.74929142,2.93591547,2024-06-11 14:04:11.783630
39.82410661,12.17255116,-1.331807613,-0.1264964193,2024-06-11 14:04:11.824107
39.86453197,2.079201698,0.5603125691,3.087178469,2024-06-11 14:04:11.864532
39.90514119,-3.558410883,-5.465444565,-0.7817478776,2024-06-11 14:04:11.905141
39.94553687,-5.475830555,-2.166550875,-5.027633667,2024-06-11 14:04:11.945537
39.98600479,-4.644682407,0.5936011076,-6.169829845,2024-06-11 14:04:11.986005
40.0264888,-3.964397907,4.599676132,-6.061442375,2024-06-11 14:04:12.026489
40.06702926,1.562164187,0.07097115368,-1.519288659,2024-06-11 14:04:12.067029
40.10751036,2.081332207,-4.034303665,-0.453789264,2024-06-11 14:04:12.107510
40.14798036,7.918143272,-3.669061899,-0.1283605844,2024-06-11 14:04:12.147980
40.18845437,5.083558083,-2.538982868,4.340158939,2024-06-11 14:04:12.188454
40.22894765,-5.570636272,5.500064373,8.620531082,2024-06-11 14:04:12.228948
40.26943119,1.054980159,1.916354179,2.930056572,2024-06-11 14:04:12.269431
40.30991213,-0.499727428,3.570661068,-0.8097102642,2024-06-11 14:04:12.309912
40.3503902,-1.741522789,1.082543015,-0.7007901669,2024-06-11 14:04:12.350390
40.3909076,-0.8676322699,1.099586844,-0.5009258389,2024-06-11 14:04:12.390908
40.43134078,-0.1146457046,2.89650178,-0.680018127,2024-06-11 14:04:12.431341
40.4718414,0.1736329794,3.644295216,-0.6219629049,2024-06-11 14:04:12.471841
40.51235463,0.02489982173,2.157096863,0.1466026902,2024-06-11 14:04:12.512355
40.55282208,0.214644447,1.685598135,1.18453908,2024-06-11 14:04:12.552822
40.59329499,2.47746563,3.612338305,0.9019860625,2024-06-11 14:04:12.593295
40.63378041,3.725119829,1.592922807,0.2086525112,2024-06-11 14:04:12.633780
40.6742677,3.01487565,-0.1515294015,-0.2239652425,2024-06-11 14:04:12.674268
40.71476744,1.432205796,-1.35231328,0.356187284,2024-06-11 14:04:12.714767
40.75527109,0.1001319066,-0.9673647285,0.7480598688,2024-06-11 14:04:12.755271
40.79574447,2.017418146,-0.5829487443,0.2784252763,2024-06-11 14:04:12.795744
40.8362439,2.231529951,1.228346825,0.2645772398,2024-06-11 14:04:12.836244
40.87671536,0.8994561434,0.7121082544,-0.3318201005,2024-06-11 14:04:12.876715
40.91716859,0.5944000483,1.310636044,-0.9425980449,2024-06-11 14:04:12.917169
40.95765317,0.8640371561,1.026352048,-0.7551170588,2024-06-11 14:04:12.957653
40.99815338,0.9559134841,0.9733566642,-1.138467789,2024-06-11 14:04:12.998153
41.03864557,0.6544525623,1.232075095,-1.286002517,2024-06-11 14:04:13.038646
41.07911145,0.5390079021,0.3990629315,-1.291861296,2024-06-11 14:04:13.079111
41.11960869,0.6170362234,1.011438727,-1.254311919,2024-06-11 14:04:13.119609
41.16009786,0.7663019896,1.233140349,-0.8477923274,2024-06-11 14:04:13.160098
41.2005852,-0.1668421179,1.088934422,-0.4452674091,2024-06-11 14:04:13.200585
41.24107796,-0.5569837093,0.4400743842,-0.4026580751,2024-06-11 14:04:13.241078
41.28154801,-0.3473991156,1.310636044,-0.1296921223,2024-06-11 14:04:13.281548
41.32201916,-0.3772256374,1.123820782,0.4203675687,2024-06-11 14:04:13.322019
41.36251937,-1.10810864,1.301048994,0.8215609789,2024-06-11 14:04:13.362519
41.40299791,-1.892919064,0.5159722567,0.006657706574,2024-06-11 14:04:13.402998
41.44346973,-1.426213861,-0.2183727771,-0.6445991397,2024-06-11 14:04:13.443470
41.4839839,-0.602389276,-0.3840165138,-0.5009258389,2024-06-11 14:04:13.483984
41.524449,-0.2856155932,-0.6394061446,-0.5870765448,2024-06-11 14:04:13.524449
41.56495775,-0.7363423109,-1.19239521,0.1679073572,2024-06-11 14:04:13.564958
41.60546301,0.3584509194,-0.04860125855,0.8034520149,2024-06-11 14:04:13.605463
41.6459663,0.9138367772,1.785863161,0.6805507541,2024-06-11 14:04:13.645966
41.68637062,0.3989297748,0.6138405204,0.5223636627,2024-06-11 14:04:13.686371
41.72681104,-0.9898678064,-1.017696977,0.3095833361,2024-06-11 14:04:13.726811
41.76737437,-1.673081636,-1.69824779,-0.03009283356,2024-06-11 14:04:13.767374
41.80783624,-1.335935354,-1.568821907,0.1801575422,2024-06-11 14:04:13.807836
41.84828093,-0.4680367708,-1.666024446,0.3322195411,2024-06-11 14:04:13.848281
41.88880411,1.156443596,-4.173050404,0.5087819099,2024-06-11 14:04:13.888804
41.92929619,3.498092175,-4.334832668,0.3434045017,2024-06-11 14:04:13.929296
41.96978098,2.936847448,-1.267760396,0.7174344659,2024-06-11 14:04:13.969781
42.01025593,0.9777507782,-0.8581783772,1.066830873,2024-06-11 14:04:14.010256
42.05074489,1.878405333,1.276548624,-1.370155931,2024-06-11 14:04:14.050745
42.09121088,-2.305164337,0.06777545065,-2.17507267,2024-06-11 14:04:14.091211
42.13172202,-6.017235279,-2.169480324,-2.651365042,2024-06-11 14:04:14.131722
42.17221328,-5.787411213,1.884397268,-2.291981936,2024-06-11 14:04:14.172213
42.21269536,-3.581579685,1.708500624,-0.640604496,2024-06-11 14:04:14.212695
42.25317562,0.2995967865,-2.790377855,0.6339467764,2024-06-11 14:04:14.253176
42.29365057,1.516625524,3.168269396,0.3737636507,2024-06-11 14:04:14.293651
42.33411536,1.563495755,0.7432663441,1.538063288,2024-06-11 14:04:14.334115
42.37464416,0.3222329915,2.026339531,2.146977186,2024-06-11 14:04:14.374644
42.41506567,0.6244928837,0.9520519972,0.5449998379,2024-06-11 14:04:14.415066
42.45554978,-0.1916087866,1.286135674,0.5809514523,2024-06-11 14:04:14.455550
42.49610583,-0.5298202634,0.03874785081,-0.3198362291,2024-06-11 14:04:14.496106
42.53656031,-0.4762923121,-2.327134609,-0.1597849578,2024-06-11 14:04:14.536560
42.57704426,1.043262601,-3.574522495,-0.06018566713,2024-06-11 14:04:14.577044
42.61749046,2.19957304,-2.858819246,-0.7564486265,2024-06-11 14:04:14.617490
42.65800166,1.6106323,-1.11809516,-0.427957356,2024-06-11 14:04:14.658002
42.6984738,-0.4219654202,-1.229678392,0.5612446666,2024-06-11 14:04:14.698474
42.73898968,-0.8740236759,-1.186003804,0.2909417748,2024-06-11 14:04:14.738990
42.77945702,-1.714359403,-0.3888100684,0.5995930433,2024-06-11 14:04:14.779457
42.81996041,-3.211943865,-0.4990616739,0.8780183196,2024-06-11 14:04:14.819960
42.86040218,-4.498478889,-2.100239992,0.7302172184,2024-06-11 14:04:14.860402
42.90090218,-4.180107594,-3.745625734,0.3940030634,2024-06-11 14:04:14.900902
42.94139593,-1.875342727,-0.3174394369,0.1090532318,2024-06-11 14:04:14.941396
42.9818788,-0.1902772486,0.1876141727,0.6776213646,2024-06-11 14:04:14.981879
43.02235895,-0.2608489394,-1.089600205,0.2536586225,2024-06-11 14:04:15.022359
43.06285067,-1.8748101,-2.628462553,-0.1174419373,2024-06-11 14:04:15.062851
43.10337525,-2.437119961,-2.18918705,-0.08495233208,2024-06-11 14:04:15.103375
43.14381921,0.6018566489,-1.591458082,0.153793022,2024-06-11 14:04:15.143819
43.1843088,0.6746919751,-0.0573894307,0.5007926822,2024-06-11 14:04:15.184309
43.22482911,-0.3479317427,-0.7958621979,0.1458037645,2024-06-11 14:04:15.224829
43.2653215,-0.7965279818,-0.756981194,-0.1395455301,2024-06-11 14:04:15.265321
43.30573937,-0.1849510819,-0.5629756451,-0.162181735,2024-06-11 14:04:15.305739
43.3463064,0.2777595222,-0.3499290347,-0.2450035959,2024-06-11 14:04:15.346306
43.38670583,0.4223648906,-0.3099828064,-0.3371462524,2024-06-11 14:04:15.386706
43.42719374,0.2716344297,-0.3768261969,-0.4543218911,2024-06-11 14:04:15.427194
43.46768499,0.7955959439,-0.1129147038,-0.5252930522,2024-06-11 14:04:15.467685
43.50817525,1.485467434,0.2214353085,-0.4553871155,2024-06-11 14:04:15.508175
43.54866484,-3.015408278,-4.043624401,-0.4774906933,2024-06-11 14:04:15.548665
43.5891339,3.052425146,3.389038801,-1.56828928,2024-06-11 14:04:15.589134
43.62962765,3.449890375,5.029098034,-0.3379451632,2024-06-11 14:04:15.629628
43.6701301,-1.600645781,-1.537397504,-1.217028737,2024-06-11 14:04:15.670130
43.71060682,-0.2451367527,0.8505885601,-0.5705654621,2024-06-11 14:04:15.710607
43.75108374,2.447505951,3.057751417,0.5388747454,2024-06-11 14:04:15.751084
43.79157916,1.3107692,3.103290081,0.2994636297,2024-06-11 14:04:15.791579
43.83202452,0.1525946259,2.032730818,-0.2553896308,2024-06-11 14:04:15.832025
43.87248786,-0.5930684805,1.522351146,-0.2460688353,2024-06-11 14:04:15.872488
43.91302609,-0.5769568086,2.058829069,0.03728315607,2024-06-11 14:04:15.913026
43.9535402,0.06657706201,2.756690025,0.2627131045,2024-06-11 14:04:15.953540
43.99400046,0.3656412363,3.209280729,0.1695052087,2024-06-11 14:04:15.994000
44.03449781,0.6319494843,2.808087349,0.1934729517,2024-06-11 14:04:16.034498
44.0750063,0.7620410919,3.226058245,1.156843066,2024-06-11 14:04:16.075006
44.11546671,0.7122414112,3.14696455,1.616091609,2024-06-11 14:04:16.115467
44.15590765,0.5898727775,2.352833509,0.6107779741,2024-06-11 14:04:16.155908
44.19638281,-0.5234288573,1.174286246,0.6158378124,2024-06-11 14:04:16.196383
44.23685676,0.4399412274,0.4882761836,0.2027937323,2024-06-11 14:04:16.236857
44.2773663,1.353644848,1.092662811,-0.07829462737,2024-06-11 14:04:16.277366
44.31786874,1.387466073,0.5234288573,-0.04260931909,2024-06-11 14:04:16.317869
44.35838291,0.7793511152,0.5146406889,0.2336854935,2024-06-11 14:04:16.358383
44.39884874,0.6037208438,0.7182333469,0.2027937323,2024-06-11 14:04:16.398849
44.43932598,0.09400681406,0.3764267266,0.1423417628,2024-06-11 14:04:16.439326
44.47981051,-0.4557865858,0.7307498455,0.1489994675,2024-06-11 14:04:16.479811
44.52029437,-0.1956034154,1.261102796,0.2667077184,2024-06-11 14:04:16.520294
44.56077676,0.3967992961,0.4280905128,-0.09320788831,2024-06-11 14:04:16.560777
44.60125911,0.6493926644,0.7376738787,-0.05565842614,2024-06-11 14:04:16.601259
44.64175041,0.2394111156,0.7768211961,0.01091863867,2024-06-11 14:04:16.641750
44.68223229,-0.3071865737,0.3226324618,-0.1035939083,2024-06-11 14:04:16.682232
44.72269645,-0.7800168991,-0.01531272475,-0.1704372764,2024-06-11 14:04:16.722696
44.76319843,-1.005047321,-0.8898690343,-0.002663082443,2024-06-11 14:04:16.763198
44.80369234,-0.7848104239,-1.498250246,0.1274285018,2024-06-11 14:04:16.803692
44.84410708,0.9119726419,-2.713148594,0.05725627393,2024-06-11 14:04:16.844107
44.88466916,3.444564104,-2.902227402,0.04234301299,2024-06-11 14:04:16.884669
44.92515067,4.100347996,-2.415815353,-0.008788172156,2024-06-11 14:04:16.925151
44.96559833,2.494775772,-1.808233023,-0.06604444981,2024-06-11 14:04:16.965598
45.00607489,-0.04434032366,-3.075327635,-0.04740286991,2024-06-11 14:04:17.006075
45.04654843,0.4945344329,-1.625545621,0.1442059278,2024-06-11 14:04:17.046548
45.08702749,-0.2874797583,0.4331503808,0.7600437403,2024-06-11 14:04:17.087027
45.12755744,-1.112103224,-1.605838776,0.5463314056,2024-06-11 14:04:17.127557
45.16803661,2.529662132,-0.1046591476,2.070546627,2024-06-11 14:04:17.168037
45.20853749,2.141517878,-3.038044691,2.653095961,2024-06-11 14:04:17.208537
45.24901161,-2.054035664,-5.703923225,0.4917382002,2024-06-11 14:04:17.249012
45.28951572,-4.424977779,2.042051792,-1.838725328,2024-06-11 14:04:17.289516
45.32998333,-0.6641727686,-3.368399858,-0.2836183012,2024-06-11 14:04:17.329983
45.37046765,-1.754838228,-0.06471290439,-0.348331213,2024-06-11 14:04:17.370468
45.41093057,-1.441659689,-0.5792204738,0.7286193967,2024-06-11 14:04:17.410931
45.45145156,-2.141917229,-1.411433816,0.9392692447,2024-06-11 14:04:17.451452
45.49195166,-2.756690025,-2.106631517,0.2762948275,2024-06-11 14:04:17.491952
45.53239551,-2.643775225,-1.50890255,0.6584471464,2024-06-11 14:04:17.532396
45.57288109,-2.917007446,-1.388264894,1.056711197,2024-06-11 14:04:17.572881
45.61336546,-3.497426271,-1.245923162,2.306495905,2024-06-11 14:04:17.613365
45.65386114,-2.492512226,0.4627105892,1.78173542,2024-06-11 14:04:17.653861
45.69432921,-2.498370886,0.3689700961,1.261502266,2024-06-11 14:04:17.694329
45.73488755,-3.898087025,-1.18866694,-2.05709815,2024-06-11 14:04:17.734888
45.77537473,-3.507812262,-2.87985754,-4.887022972,2024-06-11 14:04:17.775375
45.81576119,-2.140851974,-10.14181709,-3.159081697,2024-06-11 14:04:17.815761
45.85621781,-0.3734973371,-14.14642811,-0.2101172209,2024-06-11 14:04:17.856218
45.89680176,0.1922745556,1.36975646,1.504508495,2024-06-11 14:04:17.896802
45.93723854,0.7125077248,-0.5062519908,2.111291885,2024-06-11 14:04:17.937239
45.97773775,0.525426209,-2.850030899,1.864024639,2024-06-11 14:04:17.977738
46.01821088,0.1563229412,-2.925662518,1.343125701,2024-06-11 14:04:18.018211
46.05867952,0.4095821083,-1.701443434,0.1133141592,2024-06-11 14:04:18.058680
46.09920281,3.816996336,4.632964611,-0.9055812359,2024-06-11 14:04:18.099203
46.13966937,5.32110548,4.570382118,0.7677667141,2024-06-11 14:04:18.139669
46.18016208,5.130694866,6.892856598,-0.2604494691,2024-06-11 14:04:18.180162
46.2206477,3.716065407,2.34537673,-0.9894683361,2024-06-11 14:04:18.220648
46.261119,0.4167724252,-3.559609413,-2.082663774,2024-06-11 14:04:18.261119
46.30159713,-2.404097795,1.364696622,-0.3246297538,2024-06-11 14:04:18.301597
46.34207999,-2.814478874,8.286447525,-0.1832200736,2024-06-11 14:04:18.342080
46.38260557,1.574680686,-0.9484568238,0.1247654185,2024-06-11 14:04:18.382606
46.42303369,1.349117637,3.302754879,0.4216991365,2024-06-11 14:04:18.423034
46.46354713,1.571218729,2.267082214,0.1926740259,2024-06-11 14:04:18.463547
46.50406645,2.226203918,0.2547238469,0.356187284,2024-06-11 14:04:18.504066
46.54449671,1.472950935,-0.6002588272,0.3399424851,2024-06-11 14:04:18.544497
46.58503619,0.2521939278,-0.4367455542,0.2115819156,2024-06-11 14:04:18.585036
46.62552083,0.4031907022,-0.6007914543,0.1793586165,2024-06-11 14:04:18.625521
46.6659627,0.8432651162,-0.3499290347,0.06631075591,2024-06-11 14:04:18.665963
46.70645692,1.309171438,-0.02276935615,-0.03195698932,2024-06-11 14:04:18.706457
46.74694041,0.9513862729,-0.49506706,-0.3288906813,2024-06-11 14:04:18.746940
46.78742723,0.4351477027,-1.235803485,-0.6398055553,2024-06-11 14:04:18.787427
46.82788234,-0.07629731297,-0.3371462524,-0.6824148893,2024-06-11 14:04:18.827882
46.86835328,-0.1165098622,0.675357759,-0.5014584661,2024-06-11 14:04:18.868353
46.90887942,0.7465952039,1.128614426,-0.2551233172,2024-06-11 14:04:18.908879
46.94936078,0.632748425,1.017830133,-0.2513949871,2024-06-11 14:04:18.949361
46.9898451,0.08921326697,0.1804238409,-0.2282261699,2024-06-11 14:04:18.989845
47.03034692,-0.02463351376,0.05685681105,-0.1832200736,2024-06-11 14:04:19.030347
47.07084156,-0.3378120363,0.977883935,0.03382114694,2024-06-11 14:04:19.070842
47.1112764,-0.1258306503,1.090532303,0.3029256463,2024-06-11 14:04:19.111276
47.15177197,0.3693695366,0.7107767463,-0.001597849536,2024-06-11 14:04:19.151772
47.19225572,0.640604496,0.8825455308,0.5969299674,2024-06-11 14:04:19.192256
47.23273676,0.2412752807,1.732202053,0.2952027023,2024-06-11 14:04:19.232737
47.27322682,-0.3149095178,3.072664738,0.471232444,2024-06-11 14:04:19.273227
47.31373104,-0.7097114921,2.728993893,0.4898740351,2024-06-11 14:04:19.313731
47.35421072,-0.6034545302,0.2869471312,0.256588012,2024-06-11 14:04:19.354211
47.39469197,-0.5255593657,1.141663551,0.5394073725,2024-06-11 14:04:19.394692
47.43515833,-0.05046541616,1.526612043,0.382019192,2024-06-11 14:04:19.435158
47.47566739,0.5488613248,1.929669619,0.1852173954,2024-06-11 14:04:19.475667
47.51618755,0.6589797735,1.722082376,-0.02583190054,2024-06-11 14:04:19.516188
47.55663765,0.6215634942,1.033808708,-0.1161103994,2024-06-11 14:04:19.556638
47.59708036,0.7942643762,0.6330147386,-0.1049254537,2024-06-11 14:04:19.597080
47.6375877,0.9263532758,-0.2932053804,0.221701622,2024-06-11 14:04:19.637588
47.67808489,0.4788222313,-1.391460657,0.7030537724,2024-06-11 14:04:19.678085
47.71857578,1.176416755,-3.721657991,0.369769007,2024-06-11 14:04:19.718576
47.75905265,2.586119413,-2.313020468,-0.03834838793,2024-06-11 14:04:19.759053
47.79953895,3.916861773,-0.9990554452,0.2382127345,2024-06-11 14:04:19.799539
47.83997421,2.334591389,-1.221955419,0.1268958896,2024-06-11 14:04:19.839974
47.88047947,1.277480721,-2.003303766,-0.1611164957,2024-06-11 14:04:19.880479
47.92096822,-0.2115819156,-1.383737683,-0.1715025157,2024-06-11 14:04:19.920968
47.96145208,-0.8937305212,-0.4471315742,0.1359503716,2024-06-11 14:04:19.961452
48.00194447,-0.5713643432,-0.151263088,0.1713693589,2024-06-11 14:04:20.001944
48.04242156,-1.226748943,1.437132478,0.06178351492,2024-06-11 14:04:20.042422
48.08290989,-1.931800127,1.232075095,-0.03595161438,2024-06-11 14:04:20.082910
48.12340203,-1.974409461,-2.032331467,0.1442059278,2024-06-11 14:04:20.123402
48.16388702,-0.7515218854,0.5832150578,0.4520582557,2024-06-11 14:04:20.163887
48.20436562,1.303845167,0.4011933804,0.6696321368,2024-06-11 14:04:20.204366
48.24490395,1.555506468,0.4909392595,0.4035901725,2024-06-11 14:04:20.244904
48.2853638,0.09374050796,0.8673660159,-0.03648423031,2024-06-11 14:04:20.285364
48.32579978,-1.495187759,-0.6633738875,-0.09134373069,2024-06-11 14:04:20.325800
48.36630479,-1.42541492,0.3665733039,-0.01038602181,2024-06-11 14:04:20.366305
48.40682078,-0.05499265343,-0.1845516264,0.1660431921,2024-06-11 14:04:20.406821
48.44730411,0.5166380405,0.4858794212,0.3870790601,2024-06-11 14:04:20.447304
48.48775963,0.405321151,0.2078536004,0.2808220685,2024-06-11 14:04:20.487760
48.52826124,0.1411433816,0.1873478591,0.03089175746,2024-06-11 14:04:20.528261
48.56873562,0.1864157766,-0.1994648874,-0.056723658,2024-06-11 14:04:20.568736
48.60922005,0.142208606,-0.1999974996,-0.0074566314,2024-06-11 14:04:20.609220
48.64971906,0.1776276082,-0.293471694,-0.1509967744,2024-06-11 14:04:20.649719
48.69016796,0.1874810159,-0.2106498331,-0.08575125784,2024-06-11 14:04:20.690168
48.73068739,-0.00599193573,0.001198387123,-0.01065232977,2024-06-11 14:04:20.730687
48.77116661,-0.1087869257,-0.3344831765,-0.05272903293,2024-06-11 14:04:20.771167
48.81162453,0.4740287066,-0.2761616707,-0.0977351293,2024-06-11 14:04:20.811625
48.85207682,0.9599081278,0.2754958868,-0.09320788831,2024-06-11 14:04:20.852077
48.89262223,0.9026518464,0.04167724028,-0.1424749196,2024-06-11 14:04:20.892622
48.93313312,0.4231638312,-0.2497971505,-0.2276935577,2024-06-11 14:04:20.933133
48.97359208,0.2023942769,-0.7820141912,-0.6323489547,2024-06-11 14:04:20.973592
49.0140577,1.15085113,-0.3997286856,-0.429821521,2024-06-11 14:04:21.014058
49.05459244,1.085605621,0.6364767551,-0.2205032408,2024-06-11 14:04:21.054592
49.0950652,0.6258243918,0.4808195531,-0.2444709837,2024-06-11 14:04:21.095065
49.13550775,-0.07789516449,0.1729672104,-0.2037258148,2024-06-11 14:04:21.135508
49.17605145,-1.11183691,0.3306216896,-0.06178351492,2024-06-11 14:04:21.176051
49.21646843,-1.03540647,0.4467321038,0.1508636326,2024-06-11 14:04:21.216468
49.25692989,-1.326081991,1.507970452,0.389742136,2024-06-11 14:04:21.256930
49.29744848,-1.522084832,1.463763356,0.1897446364,2024-06-11 14:04:21.297448
49.33793182,-1.845782518,1.237667561,0.08468602598,2024-06-11 14:04:21.337932
49.37841202,-2.395975351,0.1023955271,-0.7545844316,2024-06-11 14:04:21.378412
49.41888338,-1.038335919,-0.6135742068,-0.7244915962,2024-06-11 14:04:21.418883
49.45938369,1.859497428,0.6700315475,0.07216953486,2024-06-11 14:04:21.459384
49.49986229,0.9673647285,-0.1608501822,0.3119801283,2024-06-11 14:04:21.499862
49.5403915,-0.617302537,-1.08400774,0.2834851444,2024-06-11 14:04:21.540391
49.58084713,-0.8641703129,-0.208785668,0.343937099,2024-06-11 14:04:21.580847
49.62133161,-0.226228863,0.4283568263,0.2211690098,2024-06-11 14:04:21.621332
49.66185343,0.3358147144,-0.6858769059,-0.2303566486,2024-06-11 14:04:21.661853
49.70226947,0.6962629557,-0.5440677404,-0.02236989327,2024-06-11 14:04:21.702269
49.74282562,0.5802856684,-1.300915837,-0.09374050796,2024-06-11 14:04:21.742826
49.78324921,0.9109073877,-1.053648591,-0.03967992961,2024-06-11 14:04:21.783249
49.82373645,1.113567948,-1.364563465,0.06631075591,2024-06-11 14:04:21.823736
49.86419374,0.47056669,-1.548049927,0.05059856921,2024-06-11 14:04:21.864194
49.90475343,-0.07256899774,2.604095221,0.3058550358,2024-06-11 14:04:21.904753
49.94519244,0.8097102642,0.09813459218,-0.5764242411,2024-06-11 14:04:21.945192
49.98568666,1.381607175,1.044727325,-0.5676360726,2024-06-11 14:04:21.985687
50.0261876,1.91755259,0.6002588272,-0.1432738453,2024-06-11 14:04:22.026188
50.06665343,0.9615059495,0.8694964647,-0.1456706226,2024-06-11 14:04:22.066653
50.10717369,0.08734910935,-0.1760297567,-0.3704347908,2024-06-11 14:04:22.107174
50.14764041,0.01051917579,-0.7644378543,-0.2732322812,2024-06-11 14:04:22.147640
50.18809083,-1.086537719,-0.1501978636,-0.1651111245,2024-06-11 14:04:22.188091
50.22858452,-2.701031446,1.04952085,0.04500609636,2024-06-11 14:04:22.228585
50.26907791,-2.76441288,0.3505948186,-0.03275591508,2024-06-11 14:04:22.269078
50.30955202,-1.519421697,1.397452593,0.616104126,2024-06-11 14:04:22.309552
50.35004687,-0.9291495085,2.067617416,0.8947957158,2024-06-11 14:04:22.350047
50.39054656,-2.323273182,0.4328840673,-0.1065233052,2024-06-11 14:04:22.390547
50.43098525,-1.735930324,-1.337133765,-1.395987868,2024-06-11 14:04:22.430985
50.47147978,1.197721362,0.1434070021,-0.3339505494,2024-06-11 14:04:22.471480
50.51198437,1.131676912,0.5354127288,0.5276898146,2024-06-11 14:04:22.511984
50.55245994,-0.1995980442,-0.4636426866,0.2288919389,2024-06-11 14:04:22.552460
50.59294932,-1.004781008,-1.129546523,0.2195711583,2024-06-11 14:04:22.592949
50.63343176,-1.402246118,-2.436054707,0.1071890742,2024-06-11 14:04:22.633432
50.67390484,-1.326081991,-2.232861519,0.03541899845,2024-06-11 14:04:22.673905
50.71439494,-0.9533835649,-1.396254182,0.1106510833,2024-06-11 14:04:22.714395
50.75491598,-0.5866770744,-0.9913324714,0.03967992961,2024-06-11 14:04:22.754916
50.79540531,-0.1202381775,-0.9228912592,0.2587184608,2024-06-11 14:04:22.795405
50.83590098,0.1126483902,-1.209705234,0.2938711643,2024-06-11 14:04:22.835901
50.87637025,0.6069164872,-1.879070997,0.2776263654,2024-06-11 14:04:22.876370
50.91682416,-0.4829500318,-0.9378045201,-0.1086537689,2024-06-11 14:04:22.916824
50.95730963,0.2311555594,-0.7162360549,-0.2513949871,2024-06-11 14:04:22.957310
50.99779395,0.8589772582,0.08268871158,-0.1296921223,2024-06-11 14:04:22.997794
51.0382914,1.565626264,0.9853405356,-0.3499290347,2024-06-11 14:04:23.038291
51.07876729,0.028361829,0.7547175884,-0.3499290347,2024-06-11 14:04:23.078767
51.11924635,-0.8585777879,0.07017222792,-0.8720263839,2024-06-11 14:04:23.119246
51.15973223,-1.411833167,-1.096790552,-1.628741264,2024-06-11 14:04:23.159732
51.20024328,-2.093449116,-2.38146162,-2.367214203,2024-06-11 14:04:23.200243
51.24073828,-2.164819717,-2.790910482,-2.554695129,2024-06-11 14:04:23.240738
51.28122088,-1.855902195,-2.237921476,-2.003303766,2024-06-11 14:04:23.281221
51.32170098,-1.500513911,-0.9532504082,-1.14752233,2024-06-11 14:04:23.321701
51.36218255,-2.604095221,-4.0303092,-1.393324852,2024-06-11 14:04:23.362183
51.40261869,-2.221010923,-4.204741001,-0.5380758047,2024-06-11 14:04:23.402619
51.44313442,-0.8710942864,-3.444830418,0.6155715585,2024-06-11 14:04:23.443134
51.48363244,-0.03155753016,0.5444672108,0.6419360638,2024-06-11 14:04:23.483632
51.52407588,0.4015928507,-0.1400781423,0.2408758104,2024-06-11 14:04:23.524076
51.56455328,-0.1846847683,1.151250601,0.2781589627,2024-06-11 14:04:23.564553
51.60504223,-0.7011896372,2.210624933,0.4667052329,2024-06-11 14:04:23.605042
51.6455376,-0.2446041405,6.952509403,1.074820161,2024-06-11 14:04:23.645538
51.68604083,2.207828522,8.474328041,-0.4804200828,2024-06-11 14:04:23.686041
51.72653484,3.475988626,3.034582615,-0.3206351399,2024-06-11 14:04:23.726535
51.76702025,2.893439293,3.714334488,-1.267893553,2024-06-11 14:04:23.767020
51.80748796,1.715557814,1.31036973,-0.3267602324,2024-06-11 14:04:23.807488
51.84789265,0.1222354919,-3.940829515,1.829404593,2024-06-11 14:04:23.847893
51.88844505,-0.3026593328,-0.7218285203,1.736995578,2024-06-11 14:04:23.888445
51.92891333,-1.598515272,2.87280035,-1.057909489,2024-06-11 14:04:23.928913
51.96939348,-4.470250607,-6.096727848,-0.5236951709,2024-06-11 14:04:23.969393
52.00990145,-1.318092704,-5.179695606,0.6605776548,2024-06-11 14:04:24.009901
52.05037812,1.780803323,-1.266428947,1.051651359,2024-06-11 14:04:24.050378
52.09087093,1.633002281,1.490926743,-1.942319274,2024-06-11 14:04:24.090871
52.13135421,0.8688306808,4.253209114,-1.605572462,2024-06-11 14:04:24.131354
52.17184062,0.2657756507,3.616865635,0.06524552405,2024-06-11 14:04:24.171841
52.21230963,0.3720326424,0.7291520238,3.341369629,2024-06-11 14:04:24.212310
52.25280786,1.328611851,-1.413031578,5.459186077,2024-06-11 14:04:24.252808
52.29330911,2.720338821,1.46775794,3.160279989,2024-06-11 14:04:24.293309
52.33374999,4.193023682,0.3279586136,0.08548495173,2024-06-11 14:04:24.333750
52.37427984,2.179067373,-2.236589909,0.4842815697,2024-06-11 14:04:24.374280
52.41472359,1.317959547,-1.592523336,-0.6669690013,2024-06-11 14:04:24.414724
52.45529697,0.9460600615,0.3540568352,-0.8661676049,2024-06-11 14:04:24.455297
52.49569484,-0.02383458801,0.5234288573,-0.5942668915,2024-06-11 14:04:24.495695
52.53618598,-0.4725640118,0.4185034335,-0.4231638312,2024-06-11 14:04:24.536186
52.57664583,-1.248852611,0.4568518102,-0.2687050402,2024-06-11 14:04:24.576646
52.61716124,-2.35363245,0.7142387629,-0.1099853069,2024-06-11 14:04:24.617161
52.65765786,-2.887979984,1.11849463,-0.278025806,2024-06-11 14:04:24.657658
52.69812609,-2.839511871,1.379077315,-0.1177082509,2024-06-11 14:04:24.698126
52.73863218,-1.988523722,1.352180123,0.6683005691,2024-06-11 14:04:24.738632
52.77910515,-0.7395380139,1.498649716,0.8258218765,2024-06-11 14:04:24.779105
52.81960593,0.1448716968,1.925408721,0.4517919421,2024-06-11 14:04:24.819606
52.8600238,0.8533847928,1.289331436,0.6248922944,2024-06-11 14:04:24.860024
52.90054078,1.222754359,1.499714971,0.3106485903,2024-06-11 14:04:24.900541
52.94104687,2.173208475,1.408104897,0.4086500108,2024-06-11 14:04:24.941047
52.98151828,0.4191691875,-0.7862751484,-0.2407426685,2024-06-11 14:04:24.981518
53.02200968,1.074420691,0.9254211783,-0.3592498302,2024-06-11 14:04:25.022010
53.06248255,0.9705604315,-0.3736304939,-0.1464695334,2024-06-11 14:04:25.062483
53.10297359,-0.6015903354,1.126217604,-0.3515268862,2024-06-11 14:04:25.102974
53.14347906,-0.724624753,-0.3933372796,0.05512581021,2024-06-11 14:04:25.143479
53.18395499,0.3560541272,-0.1025286764,0.4043890834,2024-06-11 14:04:25.183955
53.22443494,0.7572475076,0.9094427228,0.3239639997,2024-06-11 14:04:25.224435
53.26497197,0.3549889028,0.2717675865,0.137015596,2024-06-11 14:04:25.264972
53.30546979,-0.4667052329,-0.452457726,0.01331541315,2024-06-11 14:04:25.305470
53.3459013,-0.7395380139,-0.2029268891,0.01997311972,2024-06-11 14:04:25.345901
53.38640192,-0.1942718774,-0.4764254689,0.01438064594,2024-06-11 14:04:25.386402
53.42679895,-0.00998655986,0.03448691964,0.1274285018,2024-06-11 14:04:25.426799
53.46732025,0.07376738638,-0.08495233208,0.04687025398,2024-06-11 14:04:25.467320
53.5078226,0.214644447,-0.08308817446,-0.0117175635,2024-06-11 14:04:25.507823
53.54830109,0.2239652425,0.02862813696,0.071104303,2024-06-11 14:04:25.548301
53.58879999,0.12117026,0.2491313666,0.05645735189,2024-06-11 14:04:25.588800
53.62928723,-0.084020257,0.04620448127,-0.03248960897,2024-06-11 14:04:25.629287
53.66976869,-0.2235657871,-0.449262023,-0.07722939551,2024-06-11 14:04:25.669769
53.71024062,-0.6335473657,-0.3371462524,-0.06950645149,2024-06-11 14:04:25.710241
53.75072942,-0.6889394522,-0.6002588272,-0.01970681176,2024-06-11 14:04:25.750729
53.7912052,-0.01318225823,-0.2010627389,-0.02636451647,2024-06-11 14:04:25.791205
53.83165781,0.5600462556,0.1045259908,-0.1267627329,2024-06-11 14:04:25.831658
53.87213432,0.4948007464,0.1489994675,-0.3616466224,2024-06-11 14:04:25.872134
53.91268562,0.1688394397,0.02703028731,-0.4271584451,2024-06-11 14:04:25.912686
53.95317916,-0.3133116663,-0.2149107605,-0.4639089704,2024-06-11 14:04:25.953179
53.99363005,-0.3050560951,-0.1509967744,-0.5159722567,2024-06-11 14:04:25.993630
54.03411989,0.02703028731,-0.1629806459,-0.3893426657,2024-06-11 14:04:26.034120
54.0746252,0.00998655986,-0.2295577228,-0.3376788795,2024-06-11 14:04:26.074625
54.11513228,-0.3977313936,-0.9215596914,-0.2687050402,2024-06-11 14:04:26.115132
54.15558984,-0.6740261912,-0.9311468005,-0.4042559266,2024-06-11 14:04:26.155590
54.19602114,-0.07443315536,-1.467092156,-0.6850779653,2024-06-11 14:04:26.196021
54.23650531,1.084540367,-1.443124413,-0.3730978668,2024-06-11 14:04:26.236505
54.27701588,1.29745388,-1.35604167,0.2477998286,2024-06-11 14:04:26.277016
54.31750124,0.839004159,-1.756036639,0.1511299312,2024-06-11 14:04:26.317501
54.35800156,-0.1426080763,-1.840456367,0.05938674137,2024-06-11 14:04:26.358002
54.39848109,0.02489982173,-1.158840418,0.1572550237,2024-06-11 14:04:26.398481
54.43894713,0.6776213646,-0.2532591522,1.330342889,2024-06-11 14:04:26.438947
54.47944083,-0.03768261895,1.088668108,1.580672622,2024-06-11 14:04:26.479441
54.51993208,-1.130478501,0.4456668794,0.7994573712,2024-06-11 14:04:26.519932
54.56040041,-1.801841617,-0.3493964374,0.8322132826,2024-06-11 14:04:26.560400
54.60087635,-1.407305956,-0.5435351729,1.398784161,2024-06-11 14:04:26.600876
54.6413677,-0.9643021822,-1.452977896,1.239931226,2024-06-11 14:04:26.641368
54.68186072,0.08095771074,-1.116497397,0.8399362564,2024-06-11 14:04:26.681861
54.72234275,0.713572979,-0.4665720761,-0.02370143496,2024-06-11 14:04:26.722343
54.76281682,0.8717600703,-0.900255084,-0.7316819429,2024-06-11 14:04:26.762817
54.80331187,0.4633763731,0.03954677656,-1.007310987,2024-06-11 14:04:26.803312
54.84373817,-0.1013302878,0.8708279729,-0.08841434121,2024-06-11 14:04:26.843738
54.88426739,-0.01877473295,1.316228509,0.1042596847,2024-06-11 14:04:26.884267
54.9247963,1.16043818,3.468132496,-0.4303541481,2024-06-11 14:04:26.924796
54.96529333,1.74644959,1.323951483,0.151928857,2024-06-11 14:04:26.965293
55.0057438,0.9484568238,0.822093606,-0.1296921223,2024-06-11 14:04:27.005744
55.04621057,0.6483274698,1.402246118,-0.2356828004,2024-06-11 14:04:27.046211
55.08667208,1.289730906,1.457105637,-0.2945369184,2024-06-11 14:04:27.086672
55.12714484,1.987591624,0.7938649058,-0.4306204617,2024-06-11 14:04:27.127145
55.16765635,2.076538563,0.8471265435,-0.1528609395,2024-06-11 14:04:27.167656
55.20814744,1.632203341,0.1585865617,-0.09826774895,2024-06-11 14:04:27.208147
55.2486439,0.7953296304,1.986659646,0.01571218669,2024-06-11 14:04:27.248644
55.28912874,0.6322157979,-0.5246272683,-0.2601831555,2024-06-11 14:04:27.289129
55.32961286,-0.1125152409,-0.2487319112,-0.2303566486,2024-06-11 14:04:27.329613
55.3701526,-0.1439396143,0.1244991124,-0.1560566425,2024-06-11 14:04:27.370153
55.41057083,0.4244953692,-0.008388710208,-0.214644447,2024-06-11 14:04:27.410571
55.4510502,0.8914669156,-0.4007939398,-0.4942681193,2024-06-11 14:04:27.451050
55.49158244,0.348331213,-0.9202281833,-0.5351464152,2024-06-11 14:04:27.491582
55.53205322,0.323830843,-0.04860125855,-0.2745638192,2024-06-11 14:04:27.532053
55.572529,0.292140156,0.3663070202,0.04607132822,2024-06-11 14:04:27.572529
55.61301359,0.3163742125,-0.1059906855,-0.1230344176,2024-06-11 14:04:27.613014
55.65350317,-0.6998580694,-0.06577813625,-0.6291532516,2024-06-11 14:04:27.653503
55.69398432,-0.8199630976,-0.01478010789,-0.6272891164,2024-06-11 14:04:27.693984
55.73446473,-0.9113068581,0.01557903271,-0.7734923363,2024-06-11 14:04:27.734465
55.77501775,-0.9943950176,0.5784215331,-0.9298152924,2024-06-11 14:04:27.775018
55.81543791,-0.5181027055,1.111304402,-0.7085131407,2024-06-11 14:04:27.815438
55.85592249,-0.03954677656,1.28294003,-0.4761591554,2024-06-11 14:04:27.855922
55.89645703,0.2460688353,1.277880192,-0.2154433727,2024-06-11 14:04:27.896457
55.93686109,0.2412752807,1.630738616,-0.005592473317,2024-06-11 14:04:27.936861
55.97738541,-0.3167736828,1.660565138,0.2991973162,2024-06-11 14:04:27.977385
56.01783729,-0.9970580935,0.1750976741,0.1146457046,2024-06-11 14:04:28.017837
56.05835489,-0.614639461,-1.200118184,0.1247654185,2024-06-11 14:04:28.058355
56.09883984,0.499594301,1.539128542,0.2411421239,2024-06-11 14:04:28.098840
56.13931801,0.6541862488,-0.02676397935,0.4965317547,2024-06-11 14:04:28.139318
56.17980557,0.6547188759,-0.478289634,0.360714525,2024-06-11 14:04:28.179806
56.22027947,-0.1439396143,3.149095058,0.6121095419,2024-06-11 14:04:28.220279
56.2607789,-0.3793561161,1.896647453,0.6422023773,2024-06-11 14:04:28.260779
56.30124301,0.2380795777,-0.5523233414,0.2781589627,2024-06-11 14:04:28.301243
56.34170588,0.6250254512,0.6633738875,0.412378341,2024-06-11 14:04:28.341706
56.38224859,0.6276885867,0.9467258453,0.4352808297,2024-06-11 14:04:28.382249
56.42266989,0.02117150649,1.77467823,0.162847504,2024-06-11 14:04:28.422670
56.46319338,-0.5271571875,0.3993292153,-0.04127778113,2024-06-11 14:04:28.463193
56.50369859,-0.8260881901,0.369769007,-0.02529928461,2024-06-11 14:04:28.503699
56.54415968,-0.3924052119,0.5282224417,-0.1182408631,2024-06-11 14:04:28.544160
56.58463609,0.432484597,0.8476591706,-0.1217028722,2024-06-11 14:04:28.584636
56.62512041,0.6762897968,0.913969934,0.01544587873,2024-06-11 14:04:28.625120
56.6655865,0.7678998709,0.6553846002,-0.04234301299,2024-06-11 14:04:28.665587
56.70602484,0.7918676138,-0.7726933956,0.1489994675,2024-06-11 14:04:28.706025
56.74656911,-0.02223674022,-1.376014709,0.3135779798,2024-06-11 14:04:28.746569
56.78705176,0.02010627277,-3.049762249,0.02103835158,2024-06-11 14:04:28.787052
56.82753281,2.18918705,-1.842320561,-0.5537880063,2024-06-11 14:04:28.827533
56.86801359,2.915010214,-0.7444647551,0.5271571875,2024-06-11 14:04:28.868014
56.90850072,2.626065731,-1.463363886,0.941666007,2024-06-11 14:04:28.908501
56.94900119,1.55044663,-1.013968706,0.3476654291,2024-06-11 14:04:28.949001
56.98946994,-1.645918131,0.06990591437,-0.1320888996,2024-06-11 14:04:28.989470
57.02994874,-1.925941348,-0.7173013091,-0.437011838,2024-06-11 14:04:29.029949
57.07045359,-0.8069140315,-0.1278279573,0.229424566,2024-06-11 14:04:29.070454
57.11093791,0.3856143653,-3.163342714,0.2251636237,2024-06-11 14:04:29.110938
57.15142505,0.2458025217,-1.927405953,-0.1011971384,2024-06-11 14:04:29.151425
57.19190572,0.3158415854,-0.747127831,-0.1677742004,2024-06-11 14:04:29.191906
57.23237947,0.8776188493,-0.9178314209,0.1255643368,2024-06-11 14:04:29.232379
57.27285624,1.141796589,-0.05912043154,0.3053224087,2024-06-11 14:04:29.272856
57.31334525,-0.1420754492,-0.4442021847,0.1394123733,2024-06-11 14:04:29.313345
57.35380822,-1.324750423,-0.1608501822,0.3114475012,2024-06-11 14:04:29.353808
57.39428369,-1.39052856,0.03288906813,0.6086475253,2024-06-11 14:04:29.394284
57.43478385,-1.580406308,0.4784227908,0.8769530654,2024-06-11 14:04:29.434784
57.47530479,-1.954169989,0.9576444626,0.8844097257,2024-06-11 14:04:29.475305
57.51575166,-1.921946645,1.022889972,0.6760234833,2024-06-11 14:04:29.515752
57.55620848,-1.698647261,-0.8469933867,-0.2487319112,2024-06-11 14:04:29.556208
57.59668364,-1.146989703,-2.886248827,-0.3579182923,2024-06-11 14:04:29.596684
57.63720765,-1.012770295,0.3298227787,-1.480407596,2024-06-11 14:04:29.637208
57.67768796,-1.659499884,0.7027874589,-1.278279662,2024-06-11 14:04:29.677688
57.71817213,-1.756968737,-0.6258243918,1.058042645,2024-06-11 14:04:29.718172
57.75866551,-0.4190360308,-0.1858831644,1.542856932,2024-06-11 14:04:29.758666
57.79914609,0.4945344329,0.05499265343,0.4382102489,2024-06-11 14:04:29.799146
57.83959744,-0.6122426987,0.1167761683,0.5079829693,2024-06-11 14:04:29.839597
57.88012458,-0.8761541843,0.1809564531,0.2422073632,2024-06-11 14:04:29.880125
57.92062765,-1.236069798,-0.3621792197,-0.1382139921,2024-06-11 14:04:29.920628
57.96110854,-0.5705654621,-0.540872097,-0.008521864191,2024-06-11 14:04:29.961109
58.00156989,0.2034595013,0.1665758193,0.3450023532,2024-06-11 14:04:30.001570
58.04207812,0.1754971445,0.2792242169,0.3300890923,2024-06-11 14:04:30.042078
58.08254541,-0.04380770773,-0.2058562785,0.1250317246,2024-06-11 14:04:30.082545
58.12301624,-0.05552527308,-0.0243672058,0.03568530455,2024-06-11 14:04:30.123016
58.16352484,0.09986559302,0.1314231306,0.08122401685,2024-06-11 14:04:30.163525
58.20401156,-0.01344856713,0.1087869257,0.1407439113,2024-06-11 14:04:30.204012
58.2444926,-0.2459356785,-0.3129121959,0.04154408723,2024-06-11 14:04:30.244493
58.28501551,-0.347132802,-0.2109161317,0.002663082443,2024-06-11 14:04:30.285016
58.32543697,-0.4587159753,-0.3166405261,0.118640326,2024-06-11 14:04:30.325437
58.36592307,-0.4126446545,-0.8073135018,-0.003994623665,2024-06-11 14:04:30.365923
58.40640609,-0.07230269164,-0.08841434121,0.018907886,2024-06-11 14:04:30.406406
58.44686801,0.4894745648,0.2770937383,0.01624480449,2024-06-11 14:04:30.446868
58.48740338,0.6983934045,0.3199693561,-0.1102516204,2024-06-11 14:04:30.487403
58.52788551,0.5856118798,0.132488355,-0.1478010863,2024-06-11 14:04:30.527886
58.568379,0.565638721,0.4073184729,-0.1283605844,2024-06-11 14:04:30.568379
58.6088638,0.701322794,0.171901986,-0.2870802879,2024-06-11 14:04:30.608864
58.64932781,0.8682980537,0.02889444493,-0.3595161438,2024-06-11 14:04:30.649328
58.6898177,0.7314156294,-0.1776276082,-0.3414071798,2024-06-11 14:04:30.689818
58.73030567,0.4641752839,-0.3049229383,-0.3232982159,2024-06-11 14:04:30.730306
58.77077192,0.4559197426,-0.3424724042,-0.2372806519,2024-06-11 14:04:30.770772
58.81125411,0.447930485,-0.577888906,-0.504121542,2024-06-11 14:04:30.811254
58.85171265,1.363498211,-0.008388710208,-0.5753589869,2024-06-11 14:04:30.851713
58.89221369,1.212900996,-0.2487319112,-0.163513273,2024-06-11 14:04:30.892214
58.9327239,-0.4038564563,-0.7857425213,-0.1941387206,2024-06-11 14:04:30.932724
58.97320645,-0.6457974911,-0.8720263839,-0.231421873,2024-06-11 14:04:30.973206
59.01365817,-0.2027937323,0.003595161485,-0.01091863867,2024-06-11 14:04:31.013658
59.05415874,0.1597849578,0.001997311832,-0.2362154275,2024-06-11 14:04:31.054159
59.0946613,0.5001268983,-0.2535254657,-0.4636426866,2024-06-11 14:04:31.094661
59.13517822,0.8927984238,0.5605788827,-0.2157096863,2024-06-11 14:04:31.135178
59.17556864,0.475093931,1.040732622,-0.08015878499,2024-06-11 14:04:31.175569
59.21607062,0.07882724702,0.8231588006,0.2011958808,2024-06-11 14:04:31.216071
59.25653817,-0.01238333434,0.8146369457,0.2355496585,2024-06-11 14:04:31.256538
59.29702255,-0.3210346103,0.8905348182,0.1814890802,2024-06-11 14:04:31.297023
59.33756718,-0.9192960858,1.793053508,0.02396774292,2024-06-11 14:04:31.337567
59.37805161,-1.213433623,1.611830711,0.1007976755,2024-06-11 14:04:31.378052
59.41850822,-0.938470304,1.332473397,-0.01651111245,2024-06-11 14:04:31.418508
59.45902228,-0.6591129303,2.615546465,-0.01917419396,2024-06-11 14:04:31.459022
59.49953572,0.09107742459,2.479196787,0.1766955256,2024-06-11 14:04:31.499536
59.53999312,0.2034595013,1.435268402,0.1306242049,2024-06-11 14:04:31.539993
59.58047166,0.5110455155,-0.02010627277,-0.2671071887,2024-06-11 14:04:31.580472
59.62095609,1.771748781,0.009453942999,0.03435376659,2024-06-11 14:04:31.620956
59.66143744,2.338852167,-0.2593842447,0.3066539466,2024-06-11 14:04:31.661437
59.70191244,1.950574875,-1.027284145,0.3844159544,2024-06-11 14:04:31.701912
59.74241213,1.090132833,-1.525413632,0.2392779738,2024-06-11 14:04:31.742412
59.78291546,0.5509917736,-1.505174279,0.09999874979,2024-06-11 14:04:31.782915
59.82336255,0.2447372824,-1.111437559,0.09240896255,2024-06-11 14:04:31.823363
59.86385952,-0.1713693589,-0.1675078869,0.1058575287,2024-06-11 14:04:31.863860
59.90434114,0.07749570161,0.2059894353,0.2555227578,2024-06-11 14:04:31.904341
59.94483723,-0.221701622,0.5544537902,0.08282186836,2024-06-11 14:04:31.944837
59.98533708,-0.4842815697,0.3633776009,0.02876129188,2024-06-11 14:04:31.985337
60.0258215,-0.01770949923,0.160983339,0.2720338702,2024-06-11 14:04:32.025821
60.06622307,1.130079031,-0.7604432106,-0.0005326165119,2024-06-11 14:04:32.066223
60.1067064,1.403178215,0.380687654,-0.004260932095,2024-06-11 14:04:32.106706
60.14721202,1.003050089,0.8394036293,0.6267564893,2024-06-11 14:04:32.147212
60.18773968,1.592523336,0.6335473657,0.2118482143,2024-06-11 14:04:32.187740
60.22821926,4.220719337,1.945648074,2.478530884,2024-06-11 14:04:32.228219
60.26868937,1.618088961,-2.88944459,0.8601756692,2024-06-11 14:04:32.268689
60.30916786,1.328611851,-2.376401663,-0.6840127707,2024-06-11 14:04:32.309168
60.34966661,1.037137508,-0.1392792165,-0.1153114736,2024-06-11 14:04:32.349667
60.39014051,0.01824211515,-0.1379476786,-0.8440639973,2024-06-11 14:04:32.390141
60.43061468,-1.140331984,-0.9918650985,-1.111437559,2024-06-11 14:04:32.430615
60.47112452,-1.386533976,0.602389276,-0.9284837246,2024-06-11 14:04:32.471125
60.51161406,-2.550833702,0.244337827,-1.080545783,2024-06-11 14:04:32.511614
60.55208869,-1.619287372,-0.6042534113,-1.667089701,2024-06-11 14:04:32.552089
60.59258916,3.363340139,3.527252913,0.3982639909,2024-06-11 14:04:32.592589
60.63306744,2.48572135,3.414870739,0.1513962448,2024-06-11 14:04:32.633067
60.67355557,1.008642554,2.167216539,0.001597849536,2024-06-11 14:04:32.673556
60.71405624,-0.363910228,1.538595915,-1.663627625,2024-06-11 14:04:32.714056
60.75451104,-0.886806488,4.550142765,-1.842187405,2024-06-11 14:04:32.754511
60.79501104,0.1845516264,-1.553376079,-0.5990604162,2024-06-11 14:04:32.795011
60.83551328,0.1733666807,0.1007976755,-0.6877411008,2024-06-11 14:04:32.835513
60.87599791,1.635665298,0.7437989712,-1.029148221,2024-06-11 14:04:32.875998
60.91645671,1.922079802,1.395322084,-1.470021605,2024-06-11 14:04:32.916457
60.95688968,1.647382855,0.4683030546,-1.696117282,2024-06-11 14:04:32.956890
60.99739656,1.213699818,-0.4250279665,-1.807034612,2024-06-11 14:04:32.997397
61.03788604,0.9508536458,2.34324646,-1.398651004,2024-06-11 14:04:33.037886
61.07838249,1.102915645,1.827407241,1.046857715,2024-06-11 14:04:33.078382
61.11887984,-0.8777520061,-0.5123770833,0.816234827,2024-06-11 14:04:33.118880
61.15934578,-1.047390342,0.01637795754,-1.9910537,2024-06-11 14:04:33.159346
61.19984109,-0.8604419827,0.5471302867,-0.6507242322,2024-06-11 14:04:33.199841
61.24032729,0.05432688445,1.749512076,-0.056723658,2024-06-11 14:04:33.240327
61.28079333,0.04793548584,2.166683912,0.1729672104,2024-06-11 14:04:33.280793
61.32127176,0.7969274521,1.977605104,-0.2324871123,2024-06-11 14:04:33.321272
61.36175671,1.630871773,2.461087704,0.3223661482,2024-06-11 14:04:33.361757
61.4022551,1.296388626,2.178135157,0.3812202811,2024-06-11 14:04:33.402255
61.44273416,0.574693203,2.919404268,-0.164844811,2024-06-11 14:04:33.442734
61.48324192,0.5877423286,-0.2071878165,-0.01065232977,2024-06-11 14:04:33.483242
61.52370109,0.2130466104,-0.3595161438,-0.1262301207,2024-06-11 14:04:33.523701
