Time (s),Linear Acceleration x (m/s^2),Linear Acceleration y (m/s^2),Linear Acceleration z (m/s^2),Datetime
0.149251323,-0.1837711334,0.1025447845,0.5317783356,2024-06-11 14:03:32.149251
0.189837677,-0.5787072182,0.005892276764,1.159674644,2024-06-11 14:03:32.189838
0.230324344,2.365397453,-0.5831108093,1.662356377,2024-06-11 14:03:32.230324
0.270809812,-1.819248199,-1.81976366,1.34209919,2024-06-11 14:03:32.270810
0.311301635,0.7436726093,-0.3610563278,1.43502903,2024-06-11 14:03:32.311302
0.351396427,2.138717175,-0.2703886032,-0.2266559601,2024-06-11 14:03:32.351396
0.392072833,0.1526751518,-0.1951227188,-2.656215191,2024-06-11 14:03:32.392073
0.432779656,3.12195015,0.1959204674,1.532594204,2024-06-11 14:03:32.432780
0.473254344,-1.330082893,-0.6686110497,-0.5208315849,2024-06-11 14:03:32.473254
0.513724708,0.6785488129,-0.8044347763,-1.869654655,2024-06-11 14:03:32.513725
0.554196531,2.621442795,1.291705132,-0.4833545685,2024-06-11 14:03:32.554197
0.59472799,2.195028543,0.3203511238,-2.21323204,2024-06-11 14:03:32.594728
0.635155385,-0.9462895393,-0.9110336304,0.7301135063,2024-06-11 14:03:32.635155
0.675675333,-0.948299408,-1.267601967,-1.094815254,2024-06-11 14:03:32.675675
0.71612976,1.538761616,1.431959629,-1.110208035,2024-06-11 14:03:32.716130
0.756631531,0.4292125702,0.4617986679,-1.247277737,2024-06-11 14:03:32.756632
0.797105125,0.9361610413,1.487063885,-0.5457000732,2024-06-11 14:03:32.797105
0.837721271,2.274352551,1.248110294,-1.301426888,2024-06-11 14:03:32.837721
0.878081219,1.190672398,-0.7543768883,0.2064967155,2024-06-11 14:03:32.878081
0.918780229,2.11463356,0.3633675575,-0.3137283325,2024-06-11 14:03:32.918780
0.959096375,0.1367292404,-2.448811531,1.612355232,2024-06-11 14:03:32.959096
0.999571062,0.516726017,-0.9299445152,1.222379684,2024-06-11 14:03:32.999571
1.040011323,0.9949123859,0.7663736343,-0.4121170044,2024-06-11 14:03:33.040011
1.080548979,1.118730545,-0.481777668,0.3861560822,2024-06-11 14:03:33.080549
1.120562573,3.140534401,-0.2788896561,-2.054993868,2024-06-11 14:03:33.120563
1.161511896,7.242424965,-4.528781414,-4.859889984,2024-06-11 14:03:33.161512
1.201971844,7.087561607,-7.516895771,-3.081553459,2024-06-11 14:03:33.201972
1.242483146,5.824682236,-9.322710037,0.9800143242,2024-06-11 14:03:33.242483
1.282966896,4.388400555,-10.04945469,-3.166369438,2024-06-11 14:03:33.282967
1.323456687,-3.620598316,-10.57945919,-2.100699902,2024-06-11 14:03:33.323457
1.363470281,-8.370121002,-10.36149979,5.666431904,2024-06-11 14:03:33.363470
1.404397625,-6.76977396,-6.811048985,3.57165575,2024-06-11 14:03:33.404398
1.444887781,-19.06740761,-10.80199051,0.4144320488,2024-06-11 14:03:33.444888
1.48539549,-20.36869431,-6.468708038,-9.653576851,2024-06-11 14:03:33.485395
1.525873198,-7.082781315,3.141215801,-0.6082236767,2024-06-11 14:03:33.525873
1.566379552,-8.975489616,1.423498154,3.713778496,2024-06-11 14:03:33.566380
1.606730646,-7.160825253,-0.4413442612,6.297467709,2024-06-11 14:03:33.606731
1.647273667,1.247127533,0.3233308792,2.025738239,2024-06-11 14:03:33.647274
1.687811115,6.153626442,-0.05781459808,-1.526032448,2024-06-11 14:03:33.687811
1.728246531,1.499011517,0.5166110992,0.5986902714,2024-06-11 14:03:33.728247
1.768355021,-2.675806999,-0.8852806091,0.7640645504,2024-06-11 14:03:33.768355
1.809160177,5.535813808,2.991430759,4.033370018,2024-06-11 14:03:33.809160
1.849658458,-0.8218407631,-2.771075249,-2.577960253,2024-06-11 14:03:33.849658
1.890134917,3.183201313,-0.07002925873,-2.235032558,2024-06-11 14:03:33.890135
1.930616375,-10.27650452,3.83621645,7.593232632,2024-06-11 14:03:33.930616
1.971114344,-2.412373543,3.646761417,8.425555229,2024-06-11 14:03:33.971114
2.011575125,-13.07146168,-1.70916605,-0.7156918645,2024-06-11 14:03:34.011575
2.052092156,-0.1284542084,-2.853657722,-14.94887066,2024-06-11 14:03:34.052092
2.092575906,18.92776108,1.80317831,-12.3966217,2024-06-11 14:03:34.092576
2.13306226,9.816346169,1.432717323,-6.451807022,2024-06-11 14:03:34.133062
2.17353299,12.47667313,2.377851725,2.980162382,2024-06-11 14:03:34.173533
2.214010594,1.79912281,-5.430149078,-0.371609211,2024-06-11 14:03:34.214011
2.254524396,-7.017113209,-10.94884777,-10.5962801,2024-06-11 14:03:34.254524
2.294971375,1.026677132,-9.840589523,2.889762402,2024-06-11 14:03:34.294971
2.335468198,1.310088634,-7.477837563,22.26410484,2024-06-11 14:03:34.335468
2.375651531,10.84354019,-7.488616467,-8.974927902,2024-06-11 14:03:34.375652
2.416414917,5.565824986,-3.699601173,-10.83049774,2024-06-11 14:03:34.416415
2.456954917,2.870245218,-0.893995285,-3.319669247,2024-06-11 14:03:34.456955
2.49738726,-11.10723877,-2.631000519,-7.888933659,2024-06-11 14:03:34.497387
2.537570646,-13.20541191,0.2898225784,-8.652170181,2024-06-11 14:03:34.537571
2.577768875,-16.9319458,-1.335012436,1.360626221,2024-06-11 14:03:34.577769
2.618880958,-5.332129955,-0.9138350487,10.95456409,2024-06-11 14:03:34.618881
2.659379708,1.061029911,-2.132619858,6.374317646,2024-06-11 14:03:34.659380
2.699856219,2.879376888,-4.683682919,-8.470234871,2024-06-11 14:03:34.699856
2.740340073,13.41707611,-0.1848654747,-4.853809357,2024-06-11 14:03:34.740340
2.780820073,1.171999454,-1.864006996,3.290575981,2024-06-11 14:03:34.780820
2.821309812,0.04363870621,-1.011213303,-1.86697197,2024-06-11 14:03:34.821310
2.861790281,7.555515766,5.915023804,0.7901546955,2024-06-11 14:03:34.861790
2.902288302,0.8750157356,3.861258984,1.10051322,2024-06-11 14:03:34.902288
2.942783042,3.186539173,4.125391006,1.210345864,2024-06-11 14:03:34.942783
2.983260698,3.610822201,4.406805992,0.9174853563,2024-06-11 14:03:34.983261
3.02379174,-4.715978146,2.975692749,2.72347784,2024-06-11 14:03:35.023792
3.064251323,-8.218917847,2.162587166,3.690219402,2024-06-11 14:03:35.064251
3.104620229,2.729389191,1.49424839,-4.52178669,2024-06-11 14:03:35.104620
3.145042469,-7.208498478,-0.1405677795,0.7642056942,2024-06-11 14:03:35.145042
3.185646948,6.04579401,0.6540527344,-2.530488491,2024-06-11 14:03:35.185647
3.22616325,7.446278572,0.2088799477,-4.583944321,2024-06-11 14:03:35.226163
3.266678458,-0.3321471214,-3.053176403,-4.192061424,2024-06-11 14:03:35.266678
3.307151896,4.235525131,-0.4097895622,2.722843409,2024-06-11 14:03:35.307152
3.347528094,1.402416229,-0.9460816383,-2.353876352,2024-06-11 14:03:35.347528
3.388064708,-6.022055149,-5.492334366,-1.48037231,2024-06-11 14:03:35.388065
3.428464552,-1.88555479,-0.1005382538,-1.512821198,2024-06-11 14:03:35.428465
3.469002156,2.160238504,0.2149610519,-3.143723249,2024-06-11 14:03:35.469002
3.509559917,-3.625957012,2.376832485,-0.2946605086,2024-06-11 14:03:35.509560
3.550051531,-10.17398739,-3.53041172,-1.590091705,2024-06-11 14:03:35.550052
3.590560073,-2.939023495,-2.60014534,0.9633778334,2024-06-11 14:03:35.590560
3.630995021,-2.377581596,-1.340041161,7.890265465,2024-06-11 14:03:35.630995
3.671494187,-6.545880318,1.519511223,10.59098625,2024-06-11 14:03:35.671494
3.711978406,8.006951332,1.56640625,-14.04032803,2024-06-11 14:03:35.711978
3.752457833,7.568646908,0.17993927,-14.61624718,2024-06-11 14:03:35.752458
3.792942365,8.113180161,-6.132351875,-15.84228802,2024-06-11 14:03:35.792942
3.833432052,5.536006927,-12.6984539,14.08300591,2024-06-11 14:03:35.833432
3.873923302,4.30191803,-0.4822874069,19.39642715,2024-06-11 14:03:35.873923
3.914420073,-2.352994442,0.4836177826,-1.747242689,2024-06-11 14:03:35.914420
3.954903354,-0.5087652206,0.2959432602,-4.066454887,2024-06-11 14:03:35.954903
3.995401635,-0.02482515574,0.7817115784,-5.508370876,2024-06-11 14:03:35.995402
4.035877052,-2.289268732,1.074581146,-4.988935471,2024-06-11 14:03:36.035877
4.076361427,-2.076046944,1.235782623,0.3216660023,2024-06-11 14:03:36.076361
4.11676674,-3.232095718,-0.199505806,2.573190689,2024-06-11 14:03:36.116767
4.157253354,-4.436136723,-0.1138706207,0.2067261636,2024-06-11 14:03:36.157253
4.197675333,-3.740017176,0.3992099762,-0.8442963362,2024-06-11 14:03:36.197675
4.238222781,-3.512131691,0.1820278168,-0.5578821301,2024-06-11 14:03:36.238223
4.278774396,-0.5426404476,-0.5579853058,3.902991295,2024-06-11 14:03:36.278774
4.319242469,1.600254536,-3.916248322,2.529649973,2024-06-11 14:03:36.319242
4.359603771,-0.6611622572,-2.826983452,2.73316884,2024-06-11 14:03:36.359604
4.400207312,-1.259365678,0.1828022003,2.075748444,2024-06-11 14:03:36.400207
4.440714135,1.458591223,-0.7666788101,-1.060370445,2024-06-11 14:03:36.440714
4.481193719,0.1061182022,0.3463220596,-3.550308704,2024-06-11 14:03:36.481194
4.521660385,-3.964871168,2.75630188,-2.494246483,2024-06-11 14:03:36.521660
4.562171635,0.36267519,-1.50756073,1.460011244,2024-06-11 14:03:36.562172
4.602614708,0.3900337219,2.945781231,0.26983428,2024-06-11 14:03:36.602615
4.643126219,0.7878046036,4.573314667,-2.496614933,2024-06-11 14:03:36.643126
4.683622156,-0.5643332005,3.02066803,-0.1003086567,2024-06-11 14:03:36.683622
4.724119031,1.902957916,0.2144584656,3.47830987,2024-06-11 14:03:36.724119
4.764572156,6.075856209,-3.317349434,1.051249981,2024-06-11 14:03:36.764572
4.805052417,1.639023542,-2.819058418,1.031802177,2024-06-11 14:03:36.805052
4.845524917,0.3874650002,-0.8285188675,-4.320543289,2024-06-11 14:03:36.845525
4.88603226,-0.4753758907,4.61379385,-6.655305862,2024-06-11 14:03:36.886032
4.926558354,2.020070314,7.408303261,-4.470738411,2024-06-11 14:03:36.926558
4.967053458,4.894462585,0.1717882156,-4.520461082,2024-06-11 14:03:36.967053
5.007432573,-1.327641964,-7.552747726,-1.902776122,2024-06-11 14:03:37.007433
5.047817625,-2.050368786,-5.544805527,2.518390417,2024-06-11 14:03:37.047818
5.088202781,1.816095352,0.3333778381,1.17575407,2024-06-11 14:03:37.088203
5.12864424,0.1301112175,3.070515633,2.052123308,2024-06-11 14:03:37.128644
5.169389812,-2.372835159,2.96213007,-0.8290095329,2024-06-11 14:03:37.169390
5.209874604,-5.247534275,3.614215374,-1.920258403,2024-06-11 14:03:37.209875
5.250391427,-7.119534492,1.490544796,-4.395868301,2024-06-11 14:03:37.250391
5.290849187,-7.253348351,-5.644954681,-8.562925339,2024-06-11 14:03:37.290849
5.331352,9.517093658,-4.432236671,-5.238328934,2024-06-11 14:03:37.331352
5.371756167,6.49251318,-3.150286674,4.920167923,2024-06-11 14:03:37.371756
5.412297573,0.02078723907,-3.635467529,0.2754660845,2024-06-11 14:03:37.412298
5.452768615,4.680359364,4.321343422,-0.4862074852,2024-06-11 14:03:37.452769
5.493272885,-3.758853436,-2.235663414,4.079389095,2024-06-11 14:03:37.493273
5.533768146,-1.584024429,-3.906265736,-0.6000227928,2024-06-11 14:03:37.533768
5.574248927,-0.2597417831,0.5122880936,-2.75151968,2024-06-11 14:03:37.574249
5.614693042,4.319126606,1.010860443,-0.2851982117,2024-06-11 14:03:37.614693
5.655208771,7.023837566,0.3661851883,1.377133846,2024-06-11 14:03:37.655209
5.695713615,1.591369629,0.7608084679,2.06354332,2024-06-11 14:03:37.695714
5.736177573,-0.8199481964,0.119887352,0.6932611465,2024-06-11 14:03:37.736178
5.776694812,-0.4462947845,-0.02293920517,0.8749718666,2024-06-11 14:03:37.776695
5.817150594,-1.430458069,1.251702785,1.525244474,2024-06-11 14:03:37.817151
5.85762101,0.06894493103,2.293716431,1.893588543,2024-06-11 14:03:37.857621
5.898042104,0.07924509048,2.35656929,2.265638113,2024-06-11 14:03:37.898042
5.93846325,-0.394882679,1.697863579,1.784490108,2024-06-11 14:03:37.938463
5.978884477,1.184518337,2.064969063,0.5925283432,2024-06-11 14:03:37.978884
6.019560987,1.646415234,2.932022572,0.5740973949,2024-06-11 14:03:38.019561
6.060056091,1.63046217,3.123932838,0.2624366283,2024-06-11 14:03:38.060056
6.100512654,-0.2363762856,2.437738895,-0.6467667818,2024-06-11 14:03:38.100513
6.140969789,-0.9378833771,1.625196934,-1.856577754,2024-06-11 14:03:38.140970
6.18148682,-1.13929224,2.336215019,-1.270508528,2024-06-11 14:03:38.181487
6.221979216,0.5406069756,2.128247261,1.130369425,2024-06-11 14:03:38.221979
6.262467706,3.196848392,1.361262321,2.693867207,2024-06-11 14:03:38.262468
6.302955206,3.320854902,1.63019371,-0.06421610713,2024-06-11 14:03:38.302955
6.343428331,2.561359167,-0.03867149353,-1.103923917,2024-06-11 14:03:38.343428
6.383891873,6.11995697,-6.444023132,4.363959789,2024-06-11 14:03:38.383892
6.424392237,1.289731741,-2.94956398,-4.826421738,2024-06-11 14:03:38.424392
6.464880362,-4.261901379,0.1181583405,-1.523233414,2024-06-11 14:03:38.464880
6.505359737,-2.814250469,0.8708963394,0.462910682,2024-06-11 14:03:38.505360
6.545852289,0.9256586432,2.159320354,-0.1098850071,2024-06-11 14:03:38.545852
6.586334789,1.745688319,2.814064026,-2.149913788,2024-06-11 14:03:38.586335
6.626814268,-0.1662756205,1.355204582,-3.505520821,2024-06-11 14:03:38.626814
6.66735307,-1.047224879,0.6224079132,-4.383869171,2024-06-11 14:03:38.667353
6.707786977,-2.350243807,-0.6222524643,-0.02805662155,2024-06-11 14:03:38.707787
6.748220883,-0.1438286901,-1.467720032,4.718502998,2024-06-11 14:03:38.748221
6.788654789,1.941687107,-0.5747852325,10.27951717,2024-06-11 14:03:38.788655
6.829217862,-0.6472600102,1.114530563,1.47187233,2024-06-11 14:03:38.829218
6.869740779,-0.1943439841,0.4163637161,-0.5722315311,2024-06-11 14:03:38.869741
6.910222237,-0.08482092619,-1.344556808,-2.631876945,2024-06-11 14:03:38.910222
6.95070557,0.1132713556,-0.5523090363,-0.8275061846,2024-06-11 14:03:38.950706
6.991184841,-2.237272501,-0.3638401031,2.776459217,2024-06-11 14:03:38.991185
7.031680623,-4.603104115,-3.655061722,12.12361622,2024-06-11 14:03:39.031681
7.072162862,0.06584668159,-2.248844147,0.6124326587,2024-06-11 14:03:39.072163
7.112615883,1.757560253,-1.141703606,1.174152613,2024-06-11 14:03:39.112616
7.153111612,2.66793561,-0.8362951279,-0.6874006987,2024-06-11 14:03:39.153112
7.193606456,3.376614332,-0.8383264542,-3.203502893,2024-06-11 14:03:39.193606
7.234091508,0.5877585411,-1.37106514,-4.700737953,2024-06-11 14:03:39.234092
7.274573956,-0.2455796897,-2.179826736,-4.442285538,2024-06-11 14:03:39.274574
7.315067862,-2.166751146,-0.452009201,-5.777818203,2024-06-11 14:03:39.315068
7.355532654,-3.810063839,1.212619305,-4.375892162,2024-06-11 14:03:39.355533
7.396020727,-2.604116917,2.088072777,-4.610472202,2024-06-11 14:03:39.396021
7.436548123,1.581806421,3.368513107,-4.277366638,2024-06-11 14:03:39.436548
7.477007654,2.966537714,2.591571331,-0.5298938751,2024-06-11 14:03:39.477008
7.517450779,3.233558655,-0.2882966995,4.707528114,2024-06-11 14:03:39.517451
7.557903748,-0.8042765856,-1.392190933,2.308765888,2024-06-11 14:03:39.557904
7.598432029,-2.792695522,-0.4078407288,1.066648245,2024-06-11 14:03:39.598432
7.638884008,-1.16646111,-4.093856812,3.518255472,2024-06-11 14:03:39.638884
7.67944156,2.026034355,-1.759536743,-3.662692308,2024-06-11 14:03:39.679442
7.719907966,1.553402662,1.234792709,-2.573242188,2024-06-11 14:03:39.719908
7.760391143,2.463840961,2.060810089,-2.459262371,2024-06-11 14:03:39.760391
7.800924685,0.8322116137,-1.302759171,-3.078078508,2024-06-11 14:03:39.800925
7.841418383,0.2940306067,-1.398441315,-1.413424253,2024-06-11 14:03:39.841418
7.881888852,2.286520481,1.751050949,0.003829598427,2024-06-11 14:03:39.881889
7.922299112,0.8938854933,-0.6599340439,0.5314199924,2024-06-11 14:03:39.922299
7.962808591,0.9354435205,1.837974548,1.158849478,2024-06-11 14:03:39.962809
8.003320831,-1.776164889,-1.148366928,-0.3609629273,2024-06-11 14:03:40.003321
8.043771195,-3.438726425,-0.1740446091,-0.1997701228,2024-06-11 14:03:40.043771
8.084273227,-3.530441284,0.1039876938,-0.1279831231,2024-06-11 14:03:40.084273
8.124732341,-2.000491858,-0.1767635345,-0.4482214749,2024-06-11 14:03:40.124732
8.165224477,-1.331403017,0.8744659424,-0.57535851,2024-06-11 14:03:40.165224
8.205696039,-0.7895746231,2.041484356,-0.6399862766,2024-06-11 14:03:40.205696
8.246207341,0.1716032922,1.206742287,-0.8994950056,2024-06-11 14:03:40.246207
8.286732445,0.8767459393,-0.01989459991,-2.116757154,2024-06-11 14:03:40.286732
8.327163748,1.589260101,-0.3962249756,-2.618102312,2024-06-11 14:03:40.327164
8.367626768,3.663587809,-2.172060013,-1.677117586,2024-06-11 14:03:40.367627
8.408089893,1.805576682,-1.013866425,10.95244026,2024-06-11 14:03:40.408090
8.448552966,1.317336082,-1.331003189,0.6485815048,2024-06-11 14:03:40.448553
8.489097862,-0.8526576757,-0.7121686935,-5.891804218,2024-06-11 14:03:40.489098
8.529595102,-3.176109791,0.9209861755,-5.06430912,2024-06-11 14:03:40.529595
8.570070258,-1.75913763,0.7839307785,-3.228268623,2024-06-11 14:03:40.570070
8.610503279,-0.003738641739,0.8696899414,-3.039973259,2024-06-11 14:03:40.610503
8.651025987,0.3555413485,2.248897552,-3.014919281,2024-06-11 14:03:40.651026
8.691511404,1.729433775,0.7585220337,-2.084369421,2024-06-11 14:03:40.691511
8.732019425,6.905934334,-2.432416916,1.31814456,2024-06-11 14:03:40.732019
8.772497654,6.237329483,-2.328338623,1.438503265,2024-06-11 14:03:40.772498
8.812988279,3.472506523,-1.964133263,3.278379679,2024-06-11 14:03:40.812988
8.85351307,-1.168866396,1.470495224,5.13948679,2024-06-11 14:03:40.853513
8.893935466,-2.115540981,-0.3314466476,-1.213913321,2024-06-11 14:03:40.893935
8.934459373,-2.573837996,-0.4337005615,-3.843235254,2024-06-11 14:03:40.934459
8.974906143,-2.025362492,-0.1430835724,-3.375916004,2024-06-11 14:03:40.974906
9.015443227,-2.705385208,-0.4142398834,-2.85872221,2024-06-11 14:03:41.015443
9.055869008,0.1569714695,0.09217357635,-0.8111145496,2024-06-11 14:03:41.055869
9.096352914,1.080656171,0.3885393143,10.24073505,2024-06-11 14:03:41.096353
9.136821143,-1.118490458,0.4360074997,3.054125309,2024-06-11 14:03:41.136821
9.177291091,-1.571388245,0.2595558167,0.5322237015,2024-06-11 14:03:41.177291
9.217784998,-2.416479111,-0.2479925156,-1.127074838,2024-06-11 14:03:41.217785
9.258259529,-1.658000588,-0.3907413483,-0.07969081402,2024-06-11 14:03:41.258260
9.298750466,-2.042789459,0.4742479324,0.8452078104,2024-06-11 14:03:41.298750
9.33926432,-1.455860853,0.4976673126,1.578920484,2024-06-11 14:03:41.339264
9.379734893,-0.7358165979,0.02544593811,0.105027318,2024-06-11 14:03:41.379735
9.420238018,-2.774697304,-0.313372612,0.816650629,2024-06-11 14:03:41.420238
9.460722393,-4.3921628,-1.826225281,2.671141624,2024-06-11 14:03:41.460722
9.501202081,-2.918467045,-1.730660439,4.947237015,2024-06-11 14:03:41.501202
9.541691664,0.700969696,-1.678126335,4.346759796,2024-06-11 14:03:41.541692
9.582153748,1.849873424,-1.512633324,4.357827187,2024-06-11 14:03:41.582154
9.622619945,0.2437462211,-0.8734130859,3.345551252,2024-06-11 14:03:41.622620
9.663128695,2.326637745,-0.5195846558,-2.773307323,2024-06-11 14:03:41.663129
9.70361781,0.4241383076,-2.664093018,-4.959320545,2024-06-11 14:03:41.703618
9.744099008,-0.05811524391,-2.970573425,-5.133219242,2024-06-11 14:03:41.744099
9.784585362,-1.360193372,0.08677387238,-0.2944152355,2024-06-11 14:03:41.784585
9.825084268,-0.5696227551,1.002440453,-3.79702878,2024-06-11 14:03:41.825084
9.865577966,0.04222130775,2.503560543,-6.205082417,2024-06-11 14:03:41.865578
9.906032706,0.3186141253,4.834490299,-4.593401909,2024-06-11 14:03:41.906033
9.9465363,0.2360839844,2.705348015,3.850449562,2024-06-11 14:03:41.946536
9.987024477,6.013707161,-4.638825417,7.342255116,2024-06-11 14:03:41.987024
10.02747244,3.669387102,-2.606648445,-8.596046448,2024-06-11 14:03:42.027472
10.06794552,2.556557417,-4.245490074,-10.31950569,2024-06-11 14:03:42.067946
10.10841859,-0.7460721731,-1.605827332,-8.981254578,2024-06-11 14:03:42.108419
10.14891838,-0.5583327413,-4.725617409,3.291055679,2024-06-11 14:03:42.148918
10.18942244,-0.7153647542,-3.809914589,-4.739029884,2024-06-11 14:03:42.189422
10.22992698,2.374917746,0.9311552048,-5.308497906,2024-06-11 14:03:42.229927
10.27039552,2.276932001,1.585515976,-6.284632683,2024-06-11 14:03:42.270396
10.31088323,-0.7552806735,-4.762429237,3.991032124,2024-06-11 14:03:42.310883
10.35136755,-1.490603566,-1.030164719,-7.201251984,2024-06-11 14:03:42.351368
10.39182776,-10.42692184,2.735213757,-2.977315903,2024-06-11 14:03:42.391828
10.43231416,-6.3063941,0.1015768051,-3.03166008,2024-06-11 14:03:42.432314
10.4728213,1.513691187,-4.046406746,-10.55337143,2024-06-11 14:03:42.472821
10.51330234,-1.219974637,-4.185059547,-11.94291115,2024-06-11 14:03:42.513302
10.55378635,5.791356564,-4.032655716,8.683719635,2024-06-11 14:03:42.553786
10.59425901,15.06768417,-7.796572685,7.366052151,2024-06-11 14:03:42.594259
10.63475864,8.678220749,-4.837625027,6.214574814,2024-06-11 14:03:42.634759
10.67524078,-1.759944677,2.643209457,-15.83089066,2024-06-11 14:03:42.675241
10.71572672,-3.149316788,1.423660278,-12.79415703,2024-06-11 14:03:42.715727
10.75619427,-1.303960562,4.584248066,4.627514839,2024-06-11 14:03:42.756194
10.79670911,1.541160583,7.584468842,-1.44556284,2024-06-11 14:03:42.796709
10.83710453,-2.015205145,-0.7233438492,-3.671314001,2024-06-11 14:03:42.837105
10.87757937,-9.697346687,-13.81080723,3.015566826,2024-06-11 14:03:42.877579
10.91808557,-4.963484287,-6.242286682,13.45069504,2024-06-11 14:03:42.918086
10.95857713,-15.74939156,-13.79954147,10.37652111,2024-06-11 14:03:42.958577
10.99912713,-3.966914415,0.4078397751,-0.389370203,2024-06-11 14:03:42.999127
11.03963807,-4.099424362,0.02328014374,-1.638132811,2024-06-11 14:03:43.039638
11.08006953,-1.16616106,5.25756073,4.725157738,2024-06-11 14:03:43.080070
11.12054609,1.446502447,8.57084465,4.719082355,2024-06-11 14:03:43.120546
11.16104036,2.920562744,9.774376869,2.804615021,2024-06-11 14:03:43.161040
11.20151125,3.531815052,10.1046896,0.8508961797,2024-06-11 14:03:43.201511
11.24201765,2.386482954,9.475783348,-2.824047089,2024-06-11 14:03:43.242018
11.28250594,-2.438637257,5.712329865,-9.096401215,2024-06-11 14:03:43.282506
11.3229775,-6.026675224,-4.305746078,-9.905895233,2024-06-11 14:03:43.322978
11.36345406,-2.702631474,-23.49233818,-4.39662075,2024-06-11 14:03:43.363454
11.40394635,3.482072353,-25.00354767,4.237070084,2024-06-11 14:03:43.403946
11.44441927,2.446666002,1.081110954,-0.9455096722,2024-06-11 14:03:43.444419
11.48492312,2.309417009,6.290567875,-5.121349335,2024-06-11 14:03:43.484923
11.52540094,3.03368783,5.934846401,-6.484963417,2024-06-11 14:03:43.525401
11.56587151,6.365104675,0.5427742004,-8.982110977,2024-06-11 14:03:43.565872
11.60633703,12.07244205,-6.706771851,-7.768607616,2024-06-11 14:03:43.606337
11.64689192,8.100514412,0.712937355,-2.958258867,2024-06-11 14:03:43.646892
11.68737047,5.370180607,-3.210168839,-8.691877365,2024-06-11 14:03:43.687370
11.72778734,-8.532176018,-17.15802383,36.42845917,2024-06-11 14:03:43.727787
11.76825901,0.9984428883,-1.610313416,0.07634580135,2024-06-11 14:03:43.768259
11.8087375,1.257137895,3.171256065,-7.718761444,2024-06-11 14:03:43.808737
11.84924578,0.4273307323,1.215524673,-7.421572685,2024-06-11 14:03:43.849246
11.88974739,1.089044213,2.363223076,-1.679438114,2024-06-11 14:03:43.889747
11.93022744,0.1637966633,4.054088593,-0.2288354039,2024-06-11 14:03:43.930227
11.97073229,0.2534447908,2.138297558,7.185922623,2024-06-11 14:03:43.970732
12.01120088,0.9378490448,1.77559948,1.674846888,2024-06-11 14:03:44.011201
12.05168698,2.391071796,-1.262508392,3.327188969,2024-06-11 14:03:44.051687
12.09217651,1.906779528,-0.9598913193,-1.979832172,2024-06-11 14:03:44.092177
12.13265651,1.019272208,0.5508966446,-6.95800972,2024-06-11 14:03:44.132657
12.17312713,0.5524705648,-0.6475601196,-6.437840462,2024-06-11 14:03:44.173127
12.21362875,2.137576818,-4.788989067,6.620368958,2024-06-11 14:03:44.213629
12.25411791,2.601841927,1.159892082,4.473418713,2024-06-11 14:03:44.254118
12.29459396,-2.122851372,1.367625237,4.871237755,2024-06-11 14:03:44.294594
12.33506468,-4.002775669,1.441745758,0.2409677505,2024-06-11 14:03:44.335065
12.37554469,-2.338885784,0.9651069641,3.158966064,2024-06-11 14:03:44.375545
12.41602521,1.185778379,1.453780174,2.655459642,2024-06-11 14:03:44.416025
12.45650448,0.471930325,2.684954643,-3.967656851,2024-06-11 14:03:44.456504
12.49704182,0.2586709261,3.784574986,-0.2902716398,2024-06-11 14:03:44.497042
12.53745474,1.833399773,1.390644073,1.241775513,2024-06-11 14:03:44.537455
12.57793573,3.64604044,-1.800522804,3.068562746,2024-06-11 14:03:44.577936
12.61844521,2.663705587,-3.796380043,4.874323368,2024-06-11 14:03:44.618445
12.65893448,3.462552786,-2.062232018,4.975130081,2024-06-11 14:03:44.658934
12.69943338,-2.901929379,-0.2137241364,3.884011507,2024-06-11 14:03:44.699433
12.7399238,-2.492708921,-0.08557319641,3.12552762,2024-06-11 14:03:44.739924
12.78041146,1.00597465,4.303569794,-2.601901293,2024-06-11 14:03:44.780411
12.82087599,0.9131221771,1.456974983,-2.814105749,2024-06-11 14:03:44.820876
12.86135536,-2.927191496,-3.757620811,-3.783523321,2024-06-11 14:03:44.861355
12.90184771,-4.023057938,0.1659030914,-1.461745024,2024-06-11 14:03:44.901848
12.94232963,-4.494268417,2.630918503,1.404042721,2024-06-11 14:03:44.942330
12.98282573,-3.894768238,1.928705215,3.637515783,2024-06-11 14:03:44.982826
13.02331302,-2.166234732,0.6153831482,-1.248360395,2024-06-11 14:03:45.023313
13.06378344,-0.4834523201,0.4222517014,0.6572197676,2024-06-11 14:03:45.063783
13.10426005,0.98427248,0.06265068054,1.152420282,2024-06-11 14:03:45.104260
13.14474265,1.737608671,-1.852351189,2.844510078,2024-06-11 14:03:45.144743
13.18522713,-1.512997627,-1.209083557,10.28831673,2024-06-11 14:03:45.185227
13.22571599,-3.134962082,-0.2261123657,4.382089615,2024-06-11 14:03:45.225716
13.26621021,-5.566537857,-1.605088234,-2.084573746,2024-06-11 14:03:45.266210
13.30669156,-5.121825695,-3.00184536,-1.993536234,2024-06-11 14:03:45.306692
13.34717291,2.54178071,-2.125926971,7.317509174,2024-06-11 14:03:45.347173
13.38764307,2.825324059,-1.522397041,0.6736118793,2024-06-11 14:03:45.387643
13.4281138,0.6140434146,-2.318031311,-3.763977528,2024-06-11 14:03:45.428114
13.46862948,-1.080182672,-2.410731316,-6.630437851,2024-06-11 14:03:45.468629
13.50912286,-0.3099217415,-0.8282203674,-4.982509136,2024-06-11 14:03:45.509123
13.5495838,-3.03179574,1.096331596,-5.969226837,2024-06-11 14:03:45.549584
13.59006213,-2.632547855,2.434533596,-4.614460945,2024-06-11 14:03:45.590062
13.63056135,-0.3132277727,3.629145145,-4.338881969,2024-06-11 14:03:45.630561
13.67106844,2.144076824,4.202715397,-4.3089571,2024-06-11 14:03:45.671068
13.71154458,2.370958805,1.892792702,0.01171278954,2024-06-11 14:03:45.711545
13.75204041,4.731791019,-1.361465454,4.583424568,2024-06-11 14:03:45.752040
13.79249307,3.742818117,-2.643078804,5.19175148,2024-06-11 14:03:45.792493
13.83295823,-0.2321003675,-1.554340363,3.654033899,2024-06-11 14:03:45.832958
13.87345036,-3.1101861,2.333720684,-2.791405201,2024-06-11 14:03:45.873450
13.91397271,-1.229285836,-5.044452667,-5.895046234,2024-06-11 14:03:45.913973
13.95444494,4.104244232,-10.20957279,-5.286232471,2024-06-11 14:03:45.954445
13.99495443,2.315543175,3.407906532,-4.898316383,2024-06-11 14:03:45.994954
14.03541177,0.7153768539,4.967672825,-5.536120415,2024-06-11 14:03:46.035412
14.07587552,-2.256360054,-3.790722847,-5.997490883,2024-06-11 14:03:46.075876
14.11637562,-4.455749989,0.6898508072,13.0970602,2024-06-11 14:03:46.116376
14.15689385,2.073097706,0.9131755829,1.779570818,2024-06-11 14:03:46.156894
14.19737583,1.86100626,0.337097168,-0.5567932129,2024-06-11 14:03:46.197376
14.23785781,-0.38948071,0.9710273743,-3.289638996,2024-06-11 14:03:46.237858
14.27830802,-3.201209068,1.290636063,-3.553131819,2024-06-11 14:03:46.278308
14.31878729,-2.876148701,1.093792915,-2.714329243,2024-06-11 14:03:46.318787
14.35926859,-1.213642955,0.4231243134,1.000201941,2024-06-11 14:03:46.359269
14.39973594,0.5821604729,0.4465265274,0.2914630771,2024-06-11 14:03:46.399736
14.44025989,2.606047869,-0.1353683472,1.381162286,2024-06-11 14:03:46.440260
14.48072838,-0.8369247913,1.207380295,-0.4798052609,2024-06-11 14:03:46.480728
14.52119083,-1.654301524,0.5626735687,-1.783593178,2024-06-11 14:03:46.521191
14.56167234,-2.422049999,-0.01579475403,0.2456374168,2024-06-11 14:03:46.561672
14.60215448,-1.605294347,-1.737633705,-2.895720005,2024-06-11 14:03:46.602154
14.64267724,3.03231144,-2.36964798,-1.302323222,2024-06-11 14:03:46.642677
14.68318406,2.026183605,-2.401201248,-0.9484496117,2024-06-11 14:03:46.683184
14.72362833,1.164759159,-0.829908371,0.1011300087,2024-06-11 14:03:46.723628
14.76409396,-0.1346148252,0.2434654236,0.1860692501,2024-06-11 14:03:46.764094
14.80462036,0.05450081825,0.1479454041,2.851416349,2024-06-11 14:03:46.804620
14.84504646,2.209356785,2.29838562,-2.694333553,2024-06-11 14:03:46.845046
14.8855176,3.383001328,3.617097855,-5.997747421,2024-06-11 14:03:46.885518
14.92599427,2.985363722,-0.5346021652,3.782979727,2024-06-11 14:03:46.925994
14.96648047,-1.586517334,-2.294582367,7.150556564,2024-06-11 14:03:46.966480
15.00696463,-2.737467051,1.925693035,-0.6326711178,2024-06-11 14:03:47.006965
15.04747729,-4.719873905,0.556511879,-0.4635159969,2024-06-11 14:03:47.047477
15.08796755,-6.636062622,1.72826767,-0.1723577976,2024-06-11 14:03:47.087968
15.12845437,-2.718505859,5.160015583,-4.888604164,2024-06-11 14:03:47.128454
15.16896937,0.7713469863,-1.022083282,-3.536571503,2024-06-11 14:03:47.168969
15.20942864,10.96480751,-6.767130852,1.446245551,2024-06-11 14:03:47.209429
15.24990375,15.9157486,-3.509280205,6.346936226,2024-06-11 14:03:47.249904
15.29039203,2.044306278,-0.4120311737,5.813080311,2024-06-11 14:03:47.290392
15.33092989,-8.080979347,1.897443771,0.9543046951,2024-06-11 14:03:47.330930
15.37141255,-2.925866127,0.1900959015,-3.125014305,2024-06-11 14:03:47.371413
15.41185021,0.7362819314,-3.743813515,-0.1628495455,2024-06-11 14:03:47.411850
15.4523164,0.6644624472,-3.832662582,-2.555486679,2024-06-11 14:03:47.452316
15.49284026,3.929451466,-1.858456612,-3.540221453,2024-06-11 14:03:47.492840
15.53334979,3.780523539,-1.105941772,-4.981915474,2024-06-11 14:03:47.533350
15.57377568,5.872204781,1.215249062,-8.93494606,2024-06-11 14:03:47.573776
15.61425859,8.493314743,-0.07992267609,-13.30661583,2024-06-11 14:03:47.614259
15.65480682,3.161223888,-1.40913105,-6.193787575,2024-06-11 14:03:47.654807
15.69528693,2.729259729,1.094510078,-0.9814340472,2024-06-11 14:03:47.695287
15.73573219,-6.466192245,-10.51321602,24.84679794,2024-06-11 14:03:47.735732
15.7762151,2.997794628,1.173079491,6.573236465,2024-06-11 14:03:47.776215
15.81668677,-1.672742963,-0.3716077805,-2.255205631,2024-06-11 14:03:47.816687
15.8571252,0.6488212943,0.8372125626,-3.523445129,2024-06-11 14:03:47.857125
15.89763999,0.5864614248,1.048636436,-7.461761951,2024-06-11 14:03:47.897640
15.93813286,2.148976564,1.442965508,-0.6112986207,2024-06-11 14:03:47.938133
15.97862176,3.434090614,-0.6448087692,1.012675643,2024-06-11 14:03:47.978622
16.0190951,1.572815657,-0.7378873825,13.25194359,2024-06-11 14:03:48.019095
16.05960895,-1.382847905,-0.4152679443,-1.760953665,2024-06-11 14:03:48.059609
16.10007557,-1.274825215,-0.09889793396,-2.515518427,2024-06-11 14:03:48.100076
16.14055994,-2.35107255,1.014388084,-3.269418716,2024-06-11 14:03:48.140560
16.1810301,-3.317136288,0.6676683426,-0.4569823742,2024-06-11 14:03:48.181030
16.22152317,-1.193501711,0.07787132263,-0.3657472134,2024-06-11 14:03:48.221523
16.26202963,3.53840661,-0.33735466,0.9733426571,2024-06-11 14:03:48.262030
16.3025114,3.817479372,0.249423027,2.769800425,2024-06-11 14:03:48.302511
16.34298468,2.462387562,1.857379436,0.4454915524,2024-06-11 14:03:48.342985
16.38346796,-1.600568295,2.373402596,0.959287405,2024-06-11 14:03:48.383468
16.42395281,-0.7544565201,0.2923498154,2.894695044,2024-06-11 14:03:48.423953
16.46441588,-0.1941795349,-1.282568932,5.705499172,2024-06-11 14:03:48.464416
16.50494046,1.069520712,1.515733242,3.111070633,2024-06-11 14:03:48.504940
16.54546781,0.664866209,2.345093727,2.277662992,2024-06-11 14:03:48.545468
16.58584661,-0.1588205099,1.811223984,2.144326687,2024-06-11 14:03:48.585847
16.62632926,-0.6642112732,2.211621284,2.596292734,2024-06-11 14:03:48.626329
16.66681197,-0.4496921301,1.658011913,3.171261311,2024-06-11 14:03:48.666812
16.70730916,0.4847836494,0.2092866898,2.39550662,2024-06-11 14:03:48.707309
16.7478302,-0.6619308591,-2.342441559,3.430182934,2024-06-11 14:03:48.747830
16.78832176,-0.2668635845,-1.499192238,0.07068705559,2024-06-11 14:03:48.788322
16.82876395,0.8119395971,2.301370621,-3.68621397,2024-06-11 14:03:48.828764
16.86924567,3.010157824,2.787289143,-3.094459057,2024-06-11 14:03:48.869246
16.90977385,0.007772803307,-2.320074081,-0.06252646446,2024-06-11 14:03:48.909774
16.95026218,-2.546442986,-1.508966446,1.619648218,2024-06-11 14:03:48.950262
16.99072755,0.5884768963,0.8693580627,-2.997354507,2024-06-11 14:03:48.990728
17.03123078,-1.468169928,0.1727342606,-2.713317871,2024-06-11 14:03:49.031231
17.07174869,-1.73072505,-0.1202783585,-1.92124629,2024-06-11 14:03:49.071749
17.11224088,-0.9263157248,-0.8972244263,-1.225921988,2024-06-11 14:03:49.112241
17.15270057,-1.798880577,-0.5965013504,-2.247684002,2024-06-11 14:03:49.152701
17.19317203,-0.4132074714,-0.7291841507,-0.4005334377,2024-06-11 14:03:49.193172
17.23368687,-0.7310461998,0.2961988449,-0.3092143536,2024-06-11 14:03:49.233687
17.27413286,-0.4476997256,0.01785087585,0.1111514568,2024-06-11 14:03:49.274133
17.31461843,-1.382084846,-0.2106733322,-0.391210556,2024-06-11 14:03:49.314618
17.35511994,-1.350316048,-0.005062103271,-1.789210081,2024-06-11 14:03:49.355120
17.39558369,-0.3493602276,0.2173843384,-0.3716011047,2024-06-11 14:03:49.395584
17.4360265,1.120833039,-0.4141798019,0.3514277935,2024-06-11 14:03:49.436027
17.47653062,-3.026898384,-0.3547592163,0.8082230091,2024-06-11 14:03:49.476531
17.51703478,-6.212904453,-0.2185506821,0.7490973473,2024-06-11 14:03:49.517035
17.55751952,-3.718980789,1.467932224,-0.8775415421,2024-06-11 14:03:49.557520
17.598004,-1.146989822,4.984238625,1.605484009,2024-06-11 14:03:49.598004
17.63848624,3.05105257,6.075546265,4.528678417,2024-06-11 14:03:49.638486
17.67897635,2.82686615,-3.082908154,1.944983482,2024-06-11 14:03:49.678976
17.71945828,-7.540755272,0.8870635033,0.05876541138,2024-06-11 14:03:49.719458
17.75993911,-0.8428096771,8.268279076,-1.607004166,2024-06-11 14:03:49.759939
17.8004251,6.767056465,5.259392262,-3.438128471,2024-06-11 14:03:49.800425
17.8408464,6.125155449,-3.560911179,-3.397498131,2024-06-11 14:03:49.840846
17.88136989,3.656860113,-6.134778023,-3.329867363,2024-06-11 14:03:49.881370
17.92188978,-2.311092615,-3.687102318,0.5903023481,2024-06-11 14:03:49.921890
17.96236359,-6.161608219,-2.423440933,6.398121357,2024-06-11 14:03:49.962364
18.00288088,0.9965850115,-8.42274189,7.750210762,2024-06-11 14:03:50.002881
18.04338682,-2.858137846,-13.01206398,14.14854431,2024-06-11 14:03:50.043387
18.08382968,-2.075762987,-9.66628933,10.19888878,2024-06-11 14:03:50.083830
18.12429426,4.522999763,-2.186242104,13.83088303,2024-06-11 14:03:50.124294
18.16480786,6.014622211,6.673139095,11.71101665,2024-06-11 14:03:50.164808
18.20528432,1.230285406,9.280118942,4.779534817,2024-06-11 14:03:50.205284
18.24576749,1.201295614,8.826026917,1.547640562,2024-06-11 14:03:50.245767
18.28625635,1.449979782,-0.5131149292,-3.665932655,2024-06-11 14:03:50.286256
18.32674005,5.175139904,-22.63971329,-12.60029602,2024-06-11 14:03:50.326740
18.36714124,-2.410838366,-19.41115952,-14.96019173,2024-06-11 14:03:50.367141
18.40768567,-9.092123032,-3.982284546,15.54702759,2024-06-11 14:03:50.407686
18.44817848,0.01660764217,2.51283884,-6.356912613,2024-06-11 14:03:50.448178
18.48869499,-0.2537763119,7.082762241,-12.65540409,2024-06-11 14:03:50.488695
18.52912781,-0.6955038309,9.021635056,-7.042854309,2024-06-11 14:03:50.529128
18.56960796,-1.499384642,9.645580292,0.1395685673,2024-06-11 14:03:50.569608
18.61009161,-0.9224709272,4.671777725,9.480666161,2024-06-11 14:03:50.610092
18.6505989,-0.5336403847,-0.5514526367,-3.420776606,2024-06-11 14:03:50.650599
18.69108505,1.103181124,-0.813334465,0.5513563156,2024-06-11 14:03:50.691085
18.73156614,3.48688817,-4.050086498,4.979791164,2024-06-11 14:03:50.731566
18.77205333,8.577362061,-18.70491791,-13.70791245,2024-06-11 14:03:50.772053
18.81252942,-7.45497036,-8.66476059,-17.5300827,2024-06-11 14:03:50.812529
18.8529715,-7.985735893,-7.1460042,1.399028778,2024-06-11 14:03:50.852971
18.89348228,3.620064497,-4.166360855,-8.144780159,2024-06-11 14:03:50.893482
18.93399374,-1.459057331,3.847043991,2.21993351,2024-06-11 14:03:50.933994
18.97447286,-2.459140301,0.7726273537,1.565665245,2024-06-11 14:03:50.974473
19.01497046,-1.829785109,3.68177557,1.454280376,2024-06-11 14:03:51.014970
19.05548098,1.8773247,0.4743800163,-0.7390956879,2024-06-11 14:03:51.055481
19.09596583,0.7000985742,-3.996058464,-0.5368227959,2024-06-11 14:03:51.095966
19.13645057,2.205310822,1.559885502,-1.553595066,2024-06-11 14:03:51.136451
19.17693541,1.605968833,-4.355335236,0.2502498627,2024-06-11 14:03:51.176935
19.21742015,-0.5491224527,1.944705009,0.4861745834,2024-06-11 14:03:51.217420
19.25790494,-1.013282418,2.990613461,-2.048442364,2024-06-11 14:03:51.257905
19.29835119,-2.547519684,-0.38438797,1.254647255,2024-06-11 14:03:51.298351
19.33881859,-3.401309013,-2.96384716,0.6985640526,2024-06-11 14:03:51.338819
19.37930338,1.002985477,1.081382751,0.9756965637,2024-06-11 14:03:51.379303
19.41977874,0.2767776251,0.04475784302,1.075049639,2024-06-11 14:03:51.419779
19.46032359,-1.545570612,-0.1961078644,2.758765459,2024-06-11 14:03:51.460324
19.50076765,-3.181398869,1.502855301,3.090825081,2024-06-11 14:03:51.500768
19.54124583,-3.748401642,1.015269279,1.298617363,2024-06-11 14:03:51.541246
19.58171338,-1.087878704,0.8793916702,2.268146753,2024-06-11 14:03:51.581713
19.62219708,3.923133612,-0.3587627411,3.245594025,2024-06-11 14:03:51.622197
19.66267807,7.96069479,1.003887177,-3.703483582,2024-06-11 14:03:51.662678
19.70317859,2.362156868,-2.481801033,1.692677259,2024-06-11 14:03:51.703179
19.74367265,0.4246993065,0.3815889359,2.787309647,2024-06-11 14:03:51.743673
19.7841665,-0.2653851509,2.166939735,-3.012029171,2024-06-11 14:03:51.784167
19.82462416,3.435660601,0.4887127876,0.07476139069,2024-06-11 14:03:51.824624
19.86509072,2.118979216,2.919700623,0.496711731,2024-06-11 14:03:51.865091
19.90560109,0.9907004833,3.901675224,-0.1115951538,2024-06-11 14:03:51.905601
19.94608478,-1.317792654,0.9393262863,1.294887543,2024-06-11 14:03:51.946085
19.98654583,-2.73554635,-2.762590408,-0.4151468277,2024-06-11 14:03:51.986546
20.02703291,-6.395575523,-2.109710693,-4.554253101,2024-06-11 14:03:52.027033
20.06753598,-0.07960891724,3.33728981,-0.2338752747,2024-06-11 14:03:52.067536
20.10803213,1.627333641,4.487083912,3.910995007,2024-06-11 14:03:52.108032
20.14849734,-0.8955245018,6.887640953,-9.189346313,2024-06-11 14:03:52.148497
20.18899395,21.1027832,-7.565446377,20.96660042,2024-06-11 14:03:52.188994
20.22948328,-3.447071552,-15.21986198,-2.37332654,2024-06-11 14:03:52.229483
20.26998916,-15.83316231,1.006052494,-1.744379044,2024-06-11 14:03:52.269989
20.31049364,2.370802402,-0.4029555321,-0.9735467434,2024-06-11 14:03:52.310494
20.3509739,2.665157318,-4.777133942,-6.604671001,2024-06-11 14:03:52.350974
20.39143749,0.8518576622,-0.7973642349,-0.962446332,2024-06-11 14:03:52.391437
20.43190624,0.7270922661,2.537110806,1.743367195,2024-06-11 14:03:52.431906
20.47243036,0.2616891861,0.8533964157,3.108000755,2024-06-11 14:03:52.472430
20.51290322,1.242804766,0.2294740677,0.5630440712,2024-06-11 14:03:52.512903
20.5533888,-0.5017802715,1.600435734,-0.1763037443,2024-06-11 14:03:52.553389
20.59382598,-1.88218224,0.8905649185,-1.124664903,2024-06-11 14:03:52.593826
20.63431161,0.02294433117,-1.072260857,-2.018380642,2024-06-11 14:03:52.634312
20.67481062,0.6627730131,-1.496312141,-1.046392679,2024-06-11 14:03:52.674811
20.71530202,-0.4252998829,-0.5298023224,1.370118022,2024-06-11 14:03:52.715302
20.75575661,-0.5084972382,0.8430118561,0.741633296,2024-06-11 14:03:52.755757
20.79624051,-1.45117569,-0.4453287125,-0.3675965667,2024-06-11 14:03:52.796241
20.83671822,-0.9723050594,-0.3076448441,-1.805804729,2024-06-11 14:03:52.836718
20.87719588,-0.4644240141,1.238479614,-1.467746735,2024-06-11 14:03:52.877196
20.91771296,-0.3786669374,0.3637065887,-1.101792336,2024-06-11 14:03:52.917713
20.95820525,-0.964335978,-0.5909261703,-1.08860755,2024-06-11 14:03:52.958205
20.9986902,-0.2131945491,0.370182991,-1.637282133,2024-06-11 14:03:52.998690
21.0391764,-0.664676249,-0.420753479,-2.311349392,2024-06-11 14:03:53.039176
21.0796765,0.3279535174,-0.6416625977,-3.003062725,2024-06-11 14:03:53.079677
21.12013906,1.263940573,0.4690065384,-3.962297678,2024-06-11 14:03:53.120139
21.16061562,0.02336037159,0.8222846985,-4.99598217,2024-06-11 14:03:53.160616
21.20110531,-0.4076393843,1.000367165,-5.697768211,2024-06-11 14:03:53.201105
21.24159291,1.224341154,-1.101997375,-6.249736786,2024-06-11 14:03:53.241593
21.28207479,6.213469982,-2.8606987,6.154178619,2024-06-11 14:03:53.282075
21.32255859,3.794197559,-1.767316818,5.34453392,2024-06-11 14:03:53.322559
21.36304385,1.116551757,-0.5301504135,1.97319746,2024-06-11 14:03:53.363044
21.40351609,0.6553237438,-1.154393196,0.8492684364,2024-06-11 14:03:53.403516
21.4440115,-4.264615536,1.76145649,-0.1642315388,2024-06-11 14:03:53.444011
21.48452036,-4.599920273,3.861292839,-4.107409954,2024-06-11 14:03:53.484520
21.52502525,-2.347867012,1.343162537,-2.647774935,2024-06-11 14:03:53.525025
21.56545458,2.221595049,1.321960449,-1.846905828,2024-06-11 14:03:53.565455
21.60590812,4.521118641,0.4464426041,-1.621860027,2024-06-11 14:03:53.605908
21.64639093,2.942423344,0.5004959106,3.042893171,2024-06-11 14:03:53.646391
21.68687437,0.9937340021,1.719614029,2.561461926,2024-06-11 14:03:53.686874
21.72742593,1.705601454,-0.462893486,-0.3245859742,2024-06-11 14:03:53.727426
21.76790973,6.941617966,-6.180334091,-3.424721479,2024-06-11 14:03:53.767910
21.80840088,4.430310726,-4.7168293,5.969629288,2024-06-11 14:03:53.808401
21.8488338,-3.430923462,1.944466591,11.78044891,2024-06-11 14:03:53.848834
21.88937093,-3.054862499,-0.9859418869,-0.3840966225,2024-06-11 14:03:53.889371
21.92986999,-3.548035145,-1.32461834,-3.816158056,2024-06-11 14:03:53.929870
21.97033442,-3.534202337,-0.06357192993,-4.47145319,2024-06-11 14:03:53.970334
22.01081572,-4.542760849,3.259903431,2.687228441,2024-06-11 14:03:54.010816
22.05132656,-4.104313374,2.745864391,1.411965013,2024-06-11 14:03:54.051327
22.09178671,-2.151209831,1.188189507,-2.658919811,2024-06-11 14:03:54.091787
22.13224963,1.506835818,-1.012531281,2.392882824,2024-06-11 14:03:54.132250
22.17276317,1.383294106,-0.3189888,-0.6705565453,2024-06-11 14:03:54.172763
22.21322885,-0.01292037964,0.1932630539,-2.732019424,2024-06-11 14:03:54.213229
22.25371619,0.831622839,0.2349481583,-3.414539337,2024-06-11 14:03:54.253716
22.29419817,1.788483739,-0.2279605865,-3.805155277,2024-06-11 14:03:54.294198
22.33472317,2.315138817,-0.5944766998,-3.454837322,2024-06-11 14:03:54.334723
22.37520786,2.438858747,0.6324005127,-3.080355644,2024-06-11 14:03:54.375208
22.41561192,2.380579472,-1.749354362,-3.213793278,2024-06-11 14:03:54.415612
22.45609645,3.389056444,-5.382276535,2.266697168,2024-06-11 14:03:54.456096
22.49658109,1.459690213,0.09841156006,1.394523144,2024-06-11 14:03:54.496581
22.53706578,0.4093719125,1.029902458,2.041705132,2024-06-11 14:03:54.537066
22.57758718,-3.777798414,-1.663472176,1.436283112,2024-06-11 14:03:54.577587
22.6180715,0.008369863033,1.61868,-0.09118676186,2024-06-11 14:03:54.618071
22.65856874,3.296546459,3.49395752,0.8436524868,2024-06-11 14:03:54.658569
22.6990751,3.135230303,3.348454475,0.4629497528,2024-06-11 14:03:54.699075
22.73952692,-0.4784192443,0.2487440109,-0.5055078268,2024-06-11 14:03:54.739527
22.78001723,-3.176136971,0.5840673447,-1.050614357,2024-06-11 14:03:54.780017
22.82049489,-1.590887547,1.31036377,-1.466155767,2024-06-11 14:03:54.820495
22.86096468,2.871247292,0.09859657288,0.1983510405,2024-06-11 14:03:54.860965
22.9015327,1.913115382,-0.114153862,2.513845444,2024-06-11 14:03:54.901533
22.94201406,2.023331642,0.3051366806,2.262426376,2024-06-11 14:03:54.942014
22.98243338,3.722876072,-1.156982422,1.861932039,2024-06-11 14:03:54.982433
23.02299411,3.205242395,-2.162914276,1.447864413,2024-06-11 14:03:55.022994
23.0634726,1.143653154,-1.875720024,0.1396727562,2024-06-11 14:03:55.063473
23.10389354,1.10580802,3.500337124,-0.2460010052,2024-06-11 14:03:55.103894
23.14438562,-2.379607677,7.980733395,-5.534255505,2024-06-11 14:03:55.144386
23.18491083,-4.835129738,8.651002884,-8.49848938,2024-06-11 14:03:55.184911
23.22539525,-2.660359621,1.321334839,-5.952065468,2024-06-11 14:03:55.225395
23.26584046,1.021378517,-28.56099701,9.950404167,2024-06-11 14:03:55.265840
23.30632489,-9.584587097,-17.07388687,16.89672852,2024-06-11 14:03:55.306325
23.34680791,3.554540873,-6.010073662,-0.8817443848,2024-06-11 14:03:55.346808
23.38729697,1.287984729,3.238816738,-9.935954094,2024-06-11 14:03:55.387297
23.42778671,-0.4448249936,8.775156975,-7.726524353,2024-06-11 14:03:55.427787
23.4682763,-0.3672140837,10.83790398,-6.748816967,2024-06-11 14:03:55.468276
23.50877093,8.167457581,14.14119053,-8.778904915,2024-06-11 14:03:55.508771
23.54922661,7.11076498,8.658736229,7.428093433,2024-06-11 14:03:55.549227
23.58971239,1.401181221,-1.467101097,13.62678814,2024-06-11 14:03:55.589712
23.63022411,10.74996567,-3.741669655,3.000710487,2024-06-11 14:03:55.630224
23.67073432,-7.189439297,-14.93756866,5.783781052,2024-06-11 14:03:55.670734
23.71116567,-13.0583353,-9.306634903,-14.43711281,2024-06-11 14:03:55.711166
23.75165645,2.740223646,-11.21696758,2.632102966,2024-06-11 14:03:55.751656
23.7921452,3.450710535,-8.432572365,-11.23324585,2024-06-11 14:03:55.792145
23.83262369,-8.950956345,-7.665614128,4.548197746,2024-06-11 14:03:55.832624
23.87309989,-5.339971542,-9.124497414,15.30530548,2024-06-11 14:03:55.873100
23.91362031,4.088983536,0.05195236206,-0.2896351814,2024-06-11 14:03:55.913620
23.95412385,3.286432505,5.643473625,-7.279371262,2024-06-11 14:03:55.954124
23.99459333,0.6634027958,8.466820717,-5.688257694,2024-06-11 14:03:55.994593
24.03510452,-3.926086426,8.707549095,-5.895508766,2024-06-11 14:03:56.035105
24.07559567,-4.716810226,10.57879639,-5.237145424,2024-06-11 14:03:56.075596
24.1160714,-1.896823049,9.054974556,-5.324468136,2024-06-11 14:03:56.116071
24.15653255,-8.430425644,0.6258420944,8.660203934,2024-06-11 14:03:56.156533
24.19700916,-3.939577818,-2.013597965,3.857748508,2024-06-11 14:03:56.197009
24.23747546,-1.451566935,4.180233479,-8.468803406,2024-06-11 14:03:56.237475
24.27795682,11.36853027,1.03411293,-1.164308548,2024-06-11 14:03:56.277957
24.31845635,7.747026443,-25.21736336,-5.212614536,2024-06-11 14:03:56.318456
24.35896817,-0.1114292145,-16.29811478,3.506006956,2024-06-11 14:03:56.358968
24.39942176,-1.371866703,0.6927261353,-2.792572021,2024-06-11 14:03:56.399422
24.43990031,-0.6742458344,5.192566872,6.344018936,2024-06-11 14:03:56.439900
24.48043119,-0.8525156975,-0.1024265289,2.605324507,2024-06-11 14:03:56.480431
24.52094166,3.335625648,1.281173706,2.939210653,2024-06-11 14:03:56.520942
24.5614015,5.006688118,0.6504535675,-0.220243305,2024-06-11 14:03:56.561401
24.60187223,-3.817925453,-1.444578171,-0.1854909062,2024-06-11 14:03:56.601872
24.64235145,-2.636545658,-0.5368366241,-0.9091783762,2024-06-11 14:03:56.642351
24.6828377,1.240941763,5.373571396,0.2221339941,2024-06-11 14:03:56.682838
24.72330874,3.072964907,6.411071777,-0.01473541558,2024-06-11 14:03:56.723309
24.76379656,2.057690859,2.804213524,-0.1499219835,2024-06-11 14:03:56.763797
24.80427572,-2.773330927,-0.7232131958,-1.42508471,2024-06-11 14:03:56.804276
24.8447552,-3.535866976,1.083392143,-1.606743455,2024-06-11 14:03:56.844755
24.88528458,-0.974470377,3.855050087,-0.2946327925,2024-06-11 14:03:56.885285
24.92578442,0.1867585182,2.498950481,-0.04729950428,2024-06-11 14:03:56.925784
24.96623635,-0.8003501892,-2.418620586,0.267573595,2024-06-11 14:03:56.966236
25.00670671,0.7524313927,-3.043399334,1.106246471,2024-06-11 14:03:57.006707
25.04720614,1.039170265,-2.318606377,3.040311813,2024-06-11 14:03:57.047206
25.08765583,-2.54113102,-3.558254242,0.4155315161,2024-06-11 14:03:57.087656
25.12818244,1.523575783,-0.5030899048,2.92224431,2024-06-11 14:03:57.128182
25.16865124,1.315609932,-0.290810585,1.036956072,2024-06-11 14:03:57.168651
25.20912083,1.561684608,-0.1591992378,1.264529705,2024-06-11 14:03:57.209121
25.24961874,0.3075613976,1.555015564,3.451126099,2024-06-11 14:03:57.249619
25.29012291,-0.7868561745,2.841897488,2.966767311,2024-06-11 14:03:57.290123
25.3306113,-0.4909114838,2.820649624,1.523322225,2024-06-11 14:03:57.330611
25.37106671,-1.08925581,1.181074142,0.8201906681,2024-06-11 14:03:57.371067
25.41153312,-1.351905346,-0.7816572189,0.5659713745,2024-06-11 14:03:57.411533
25.45202734,-3.912307262,-0.8776264191,2.609634399,2024-06-11 14:03:57.452027
25.49256906,-7.373570442,-1.669668674,5.994181633,2024-06-11 14:03:57.492569
25.53303301,-5.188781738,-4.091099262,7.840033054,2024-06-11 14:03:57.533033
25.57350963,-3.581262589,-3.478017807,5.836800575,2024-06-11 14:03:57.573510
25.61399484,-0.6965317726,-0.4957127571,3.198201418,2024-06-11 14:03:57.613995
25.65445692,0.7845921516,-2.481367588,-2.414517641,2024-06-11 14:03:57.654457
25.69499926,-1.764448643,-6.884501934,-3.858887434,2024-06-11 14:03:57.694999
25.73544973,2.278954029,-2.45579052,-3.607333183,2024-06-11 14:03:57.735450
25.77593223,4.090358734,1.758992195,-2.930294991,2024-06-11 14:03:57.775932
25.81642244,0.5103788376,2.657784939,-4.864859581,2024-06-11 14:03:57.816422
25.85684994,-0.670996666,4.609968185,-5.687055588,2024-06-11 14:03:57.856850
25.89742432,2.649964094,3.303154945,-4.166425705,2024-06-11 14:03:57.897424
25.93786791,-0.4914345741,-1.545852661,0.8651533127,2024-06-11 14:03:57.937868
25.97834864,-5.10653162,-0.1728429794,5.588641644,2024-06-11 14:03:57.978349
26.0188488,1.466502666,2.957153797,-0.6403875351,2024-06-11 14:03:58.018849
26.05934078,5.125030518,5.588855743,-2.596005201,2024-06-11 14:03:58.059341
26.09982937,5.547400951,5.990226269,-6.650202751,2024-06-11 14:03:58.099829
26.14031208,3.9067173,0.7419929504,-0.2122349739,2024-06-11 14:03:58.140312
26.18076551,0.1821126938,-8.627466202,-2.625473261,2024-06-11 14:03:58.180766
26.22128307,-2.163388968,-9.759131432,-4.62406683,2024-06-11 14:03:58.221283
26.26174749,-11.10980129,-8.329222679,-1.436925173,2024-06-11 14:03:58.261747
26.30222119,-19.96019173,-5.950519562,17.14175987,2024-06-11 14:03:58.302221
26.34272666,-3.117835999,1.364120483,10.97922039,2024-06-11 14:03:58.342727
26.38322275,0.843296051,3.049762726,6.240764618,2024-06-11 14:03:58.383223
26.42366203,1.917453527,7.430254936,5.908691406,2024-06-11 14:03:58.423662
26.46417239,4.741607189,9.497003555,3.539074183,2024-06-11 14:03:58.464172
26.50469468,5.957378864,9.013774872,-2.650861263,2024-06-11 14:03:58.504695
26.54516369,4.708552361,8.462530136,-3.978561401,2024-06-11 14:03:58.545164
26.58562562,-12.95306587,-14.83100796,18.40637016,2024-06-11 14:03:58.585626
26.62610895,-13.74569321,-32.3065033,-5.135061264,2024-06-11 14:03:58.626109
26.66659942,-4.002272606,-2.190621853,-18.32717896,2024-06-11 14:03:58.666599
26.70708624,4.143913269,6.40549612,-2.114394426,2024-06-11 14:03:58.707086
26.74757828,5.80675745,8.041769028,-4.498874187,2024-06-11 14:03:58.747578
26.78806442,4.060935974,9.717770576,-0.4612164497,2024-06-11 14:03:58.788064
26.82849692,2.812066317,9.581707001,7.441384792,2024-06-11 14:03:58.828497
26.86898458,2.775025368,4.513664246,2.482372761,2024-06-11 14:03:58.868985
26.90952765,2.057120323,1.025021076,-16.86273384,2024-06-11 14:03:58.909528
26.95001192,3.431544781,-12.1500864,-15.47229195,2024-06-11 14:03:58.950012
26.9904852,-7.213788033,-21.46236801,-10.52687836,2024-06-11 14:03:58.990485
27.03096807,-12.52618885,-19.26639748,-0.63646698,2024-06-11 14:03:59.030968
27.07147041,1.681533933,-9.694592476,41.2681694,2024-06-11 14:03:59.071470
27.11192895,-8.481891632,-3.721892357,-0.390201807,2024-06-11 14:03:59.111929
27.15242619,0.6850454807,6.106571198,2.351050615,2024-06-11 14:03:59.152426
27.1929014,4.956790447,9.414235115,0.9609868526,2024-06-11 14:03:59.192901
27.23339411,6.234718323,9.464857101,-2.784321308,2024-06-11 14:03:59.233394
27.27387765,6.302877426,10.53669453,-6.082751274,2024-06-11 14:03:59.273878
27.31435921,-1.388771057,3.656526089,-7.738111496,2024-06-11 14:03:59.314359
27.35483104,-9.532312393,-30.54508209,5.247828484,2024-06-11 14:03:59.354831
27.39538369,-10.85147667,-20.61531639,9.714019775,2024-06-11 14:03:59.395384
27.43582385,-0.1027832031,0.1759023666,-8.125511169,2024-06-11 14:03:59.435824
27.47628635,3.191785574,6.864326477,-14.63912487,2024-06-11 14:03:59.476286
27.51683546,4.234870911,9.995432854,-3.649686813,2024-06-11 14:03:59.516835
27.55728234,3.094734669,10.82491207,-0.8813000917,2024-06-11 14:03:59.557282
27.59774848,3.907476187,11.95818901,9.264323235,2024-06-11 14:03:59.597748
27.63822973,4.606981277,6.852998257,-4.175960064,2024-06-11 14:03:59.638230
27.67872364,5.979495525,4.285211086,-13.26186466,2024-06-11 14:03:59.678724
27.71921796,-1.498316765,-17.57976532,-18.12902832,2024-06-11 14:03:59.719218
27.7596838,-9.406838417,-29.10952568,-11.38016224,2024-06-11 14:03:59.759684
27.80016166,-1.496730804,-7.502264023,27.87077141,2024-06-11 14:03:59.800162
27.84061525,-5.502933025,-2.521580696,-0.2435483932,2024-06-11 14:03:59.840615
27.88111572,2.661718607,4.30091095,-0.4748667479,2024-06-11 14:03:59.881116
27.92162051,5.349703312,8.003619194,7.028439522,2024-06-11 14:03:59.921621
27.96210744,2.18537879,8.797598839,0.09019118547,2024-06-11 14:03:59.962107
28.00257911,3.804887295,9.98110199,-0.8231847286,2024-06-11 14:04:00.002579
28.04309478,4.016593456,8.995883942,-1.279016972,2024-06-11 14:04:00.043095
28.08361979,-9.280702591,-8.201453209,-10.70416641,2024-06-11 14:04:00.083620
28.12408833,-9.260856628,-38.0575676,2.961668968,2024-06-11 14:04:00.124088
28.16458249,3.753595114,-6.447665691,2.163268089,2024-06-11 14:04:00.164582
28.20507531,5.328342438,1.234724045,-7.535990715,2024-06-11 14:04:00.205075
28.24555124,5.757245064,5.34031868,-9.247741699,2024-06-11 14:04:00.245551
28.28598312,3.875442266,7.199972153,-10.02599907,2024-06-11 14:04:00.285983
28.32642432,1.733509421,7.905982018,-6.813773632,2024-06-11 14:04:00.326424
28.36696031,0.9547069073,8.305577278,-5.710325718,2024-06-11 14:04:00.366960
28.40742411,-6.017325401,-4.280539989,30.47599411,2024-06-11 14:04:00.407424
28.44794854,1.893702745,-2.101504326,-14.93467331,2024-06-11 14:04:00.447949
28.48842734,4.497865677,0.2377762794,-7.760005474,2024-06-11 14:04:00.488427
28.52890609,8.658051491,-21.8686409,11.05440998,2024-06-11 14:04:00.528906
28.56937739,-2.968995571,-8.169616699,-9.89718914,2024-06-11 14:04:00.569377
28.60986317,-10.79069328,2.261746883,-4.689949512,2024-06-11 14:04:00.609863
28.65037015,0.2938754559,-0.6889586449,2.085043907,2024-06-11 14:04:00.650370
28.69084322,-0.8735364079,4.733692169,-0.9474172592,2024-06-11 14:04:00.690843
28.7313389,-3.151089191,1.981462955,1.088923931,2024-06-11 14:04:00.731339
28.77180156,-1.080365181,-5.348415375,-2.539598465,2024-06-11 14:04:00.771802
28.81228385,-3.661190987,-0.3297343254,-2.16783905,2024-06-11 14:04:00.812284
28.85273494,0.09495747089,-3.638959885,-0.9385495186,2024-06-11 14:04:00.852735
28.89327729,-1.336017251,-0.8965601921,-1.184720993,2024-06-11 14:04:00.893277
28.93380317,-3.488173962,-1.830540657,-1.406475544,2024-06-11 14:04:00.933803
28.97424645,0.3736206293,1.644598484,-3.992558002,2024-06-11 14:04:00.974246
29.01478515,-0.02878749371,1.332978249,-2.066184521,2024-06-11 14:04:01.014785
29.05526874,1.54072547,-0.5976467133,-1.022512436,2024-06-11 14:04:01.055269
29.09574676,1.044778228,0.6078882217,-0.6694307327,2024-06-11 14:04:01.095747
29.13613291,-0.1229578257,0.9107847214,-0.1544723511,2024-06-11 14:04:01.136133
29.17660281,0.2605882883,0.8052000999,-1.394931316,2024-06-11 14:04:01.176603
29.21708656,0.2291363478,-0.6411008835,-1.198531151,2024-06-11 14:04:01.217087
29.25762666,1.426071644,-2.105251312,-4.477318287,2024-06-11 14:04:01.257627
29.29810338,-3.167914391,-4.349131584,-7.034209251,2024-06-11 14:04:01.298103
29.33862307,-3.953283548,-4.155435562,-0.9807775021,2024-06-11 14:04:01.338623
29.37913932,-0.64453125,0.6077213287,11.06391525,2024-06-11 14:04:01.379139
29.41954005,-0.1023924351,-11.13420582,-1.116761684,2024-06-11 14:04:01.419540
29.46009926,4.473413467,-2.599996567,0.8409376144,2024-06-11 14:04:01.460099
29.50050963,5.920558929,4.066467762,0.6692295074,2024-06-11 14:04:01.500510
29.5410839,5.973424435,4.38599205,-7.821465492,2024-06-11 14:04:01.541084
29.5815077,2.288610697,3.302835464,-9.965902328,2024-06-11 14:04:01.581508
29.62199145,0.8676738739,2.212988377,-8.366463661,2024-06-11 14:04:01.621991
29.66248869,1.535528421,2.595342159,-6.028754234,2024-06-11 14:04:01.662489
29.70296296,-1.781020164,-1.485969543,-3.727956057,2024-06-11 14:04:01.702963
29.74346791,-2.154974222,-8.664100647,2.387944221,2024-06-11 14:04:01.743468
29.78392468,-4.4374156,-7.403721809,10.52831173,2024-06-11 14:04:01.783925
29.82440765,-3.721187353,-4.875177383,14.41196918,2024-06-11 14:04:01.824408
29.86483239,-1.505988359,0.1800823212,1.85825491,2024-06-11 14:04:01.864832
29.9054577,-3.854425907,1.145029545,-3.304549456,2024-06-11 14:04:01.905458
29.94583489,-7.542246342,0.1234378815,-0.2048332393,2024-06-11 14:04:01.945835
29.98632426,2.486433744,3.577373028,0.1306132078,2024-06-11 14:04:01.986324
30.02681416,2.691271305,5.266099453,-1.219069481,2024-06-11 14:04:02.026814
30.06731588,0.9838314056,3.337371349,-2.54139185,2024-06-11 14:04:02.067316
30.10781801,2.873053074,0.9941773415,1.918518901,2024-06-11 14:04:02.107818
30.14828322,2.029066086,-0.1093482971,1.035832882,2024-06-11 14:04:02.148283
30.18877656,2.170493126,-0.2257618904,-3.383481979,2024-06-11 14:04:02.188777
30.22926176,0.9263105392,-0.4063968658,-12.83579826,2024-06-11 14:04:02.229262
30.26975078,0.09831619263,-2.029868126,-6.354615211,2024-06-11 14:04:02.269751
30.31024119,-0.08624267578,-4.007416248,-3.060865879,2024-06-11 14:04:02.310241
30.35073109,7.632068634,-10.50055695,14.90140438,2024-06-11 14:04:02.350731
30.39120728,-3.111661434,-12.03956413,14.30333328,2024-06-11 14:04:02.391207
30.43166932,2.55760622,-3.935752869,-8.622102737,2024-06-11 14:04:02.431669
30.47218484,4.180224419,3.382434845,-9.552581787,2024-06-11 14:04:02.472185
30.51267176,2.982269764,5.646569252,-7.55079937,2024-06-11 14:04:02.512672
30.55314348,-0.7861227989,4.706850052,-6.014748573,2024-06-11 14:04:02.553143
30.59362619,-1.005733013,4.489841461,-0.07153064013,2024-06-11 14:04:02.593626
30.6341063,3.431457996,5.37797308,6.290886402,2024-06-11 14:04:02.634106
30.67459973,0.7159276009,-1.771569252,5.085682392,2024-06-11 14:04:02.674600
30.71512718,3.37372756,-6.722477913,-3.786544561,2024-06-11 14:04:02.715127
30.75559614,-6.933138847,-7.186453819,3.467783689,2024-06-11 14:04:02.755596
30.79602369,-9.045535088,6.858362198,-4.856255531,2024-06-11 14:04:02.796024
30.83650942,-4.819405556,2.026707649,-0.7476036549,2024-06-11 14:04:02.836509
30.87699515,-0.8997149467,-11.2888155,-3.231124878,2024-06-11 14:04:02.876995
30.9174852,-0.3057770729,-12.08531475,-8.44811821,2024-06-11 14:04:02.917485
30.95798702,2.749365091,-0.03056097031,-8.752879143,2024-06-11 14:04:02.957987
30.99848171,2.561400175,7.479551315,-6.80607605,2024-06-11 14:04:02.998482
31.0389688,-3.777135372,6.769799709,1.844720602,2024-06-11 14:04:03.038969
31.07943119,-5.10161829,5.912220478,3.211574316,2024-06-11 14:04:03.079431
31.11992593,-4.289561272,5.935500145,1.373053432,2024-06-11 14:04:03.119926
31.16042385,-4.139976025,2.502625942,6.154866219,2024-06-11 14:04:03.160424
31.20089432,-2.903691769,-0.6741628647,8.99697113,2024-06-11 14:04:03.200894
31.24138765,-4.890521526,0.0575799942,4.570876598,2024-06-11 14:04:03.241388
31.28187489,-3.001365185,0.701921463,4.705566406,2024-06-11 14:04:03.281875
31.32236343,-2.875679493,-1.287528515,-6.091418743,2024-06-11 14:04:03.322363
31.36286354,-1.665246487,-6.492399693,-0.7765103579,2024-06-11 14:04:03.362864
31.40331249,0.7760014534,-19.79330826,1.385026217,2024-06-11 14:04:03.403312
31.44379182,3.59539175,-12.15063286,-1.635482311,2024-06-11 14:04:03.443792
31.48430234,4.240704536,0.2266058922,-6.334262848,2024-06-11 14:04:03.484302
31.52480531,4.409518719,4.179058075,-8.212843895,2024-06-11 14:04:03.524805
31.56528083,3.917506695,6.595675468,-4.728479385,2024-06-11 14:04:03.565281
31.60575854,4.217138767,7.975617409,-0.09918141365,2024-06-11 14:04:03.605759
31.64624078,6.459873199,3.17495203,14.54413605,2024-06-11 14:04:03.646241
31.68672739,5.530258656,0.5750632286,-6.809666634,2024-06-11 14:04:03.686727
31.72721369,3.793177605,-15.02833366,-8.295174599,2024-06-11 14:04:03.727214
31.76768937,4.736557007,-17.57092285,-8.185880661,2024-06-11 14:04:03.767689
31.80817239,-1.970422745,-7.242020607,-10.47006989,2024-06-11 14:04:03.808172
31.8485776,-9.328244209,-3.627687454,-5.156916618,2024-06-11 14:04:03.848578
31.88913869,-5.751029491,2.824820995,1.083697796,2024-06-11 14:04:03.889139
31.92962114,-0.460416317,5.548238754,-1.880444765,2024-06-11 14:04:03.929621
31.97009578,2.910379171,5.527131557,-5.331305504,2024-06-11 14:04:03.970096
32.0105852,2.475538492,2.788612366,-7.936761379,2024-06-11 14:04:04.010585
32.0510751,2.405173063,-0.705851078,-18.5774498,2024-06-11 14:04:04.051075
32.09152978,4.677484512,2.395640373,-19.62921715,2024-06-11 14:04:04.091530
32.13203541,-9.465890884,-0.6089520454,10.06585693,2024-06-11 14:04:04.132035
32.17250734,-6.869719028,-6.336093426,6.723720551,2024-06-11 14:04:04.172507
32.21298885,-5.842522144,3.578197002,-8.573516846,2024-06-11 14:04:04.212989
32.25348807,-6.137070656,1.400722504,-3.8040452,2024-06-11 14:04:04.253488
32.29395859,1.139667988,-1.705573559,4.93157959,2024-06-11 14:04:04.293959
32.33445484,1.783409119,0.707177639,-2.939669847,2024-06-11 14:04:04.334455
32.37498562,2.606722832,3.624552727,-0.1924359798,2024-06-11 14:04:04.374986
32.41540478,-1.232922554,0.7324857712,-0.5432593822,2024-06-11 14:04:04.415405
32.45588671,-5.470559597,3.429400444,-5.987669945,2024-06-11 14:04:04.455887
32.49642979,-7.786546707,8.908153534,-1.287321091,2024-06-11 14:04:04.496430
32.5369139,-8.2738657,10.55821037,1.798832178,2024-06-11 14:04:04.536914
32.57744786,-0.9356622696,2.861168385,-4.922794819,2024-06-11 14:04:04.577448
32.61783458,1.316345692,-7.448390961,4.681050301,2024-06-11 14:04:04.617835
32.65834395,-4.517875671,-9.334218979,7.664947987,2024-06-11 14:04:04.658344
32.69884234,-4.040364742,2.257945061,-1.121993065,2024-06-11 14:04:04.698842
32.73930598,-3.386968136,6.565091133,-3.0224545,2024-06-11 14:04:04.739306
32.77980041,-5.737852573,1.062082767,-6.097591877,2024-06-11 14:04:04.779800
32.82026562,0.7280426025,-2.655353546,0.9081420898,2024-06-11 14:04:04.820266
32.86072452,7.423303127,-5.314770699,1.878270745,2024-06-11 14:04:04.860725
32.90126036,7.480029106,-2.465744019,4.015205383,2024-06-11 14:04:04.901260
32.94173874,1.817268848,1.853127956,0.4182897806,2024-06-11 14:04:04.941739
32.98221848,-2.217357159,1.566781044,-2.116764069,2024-06-11 14:04:04.982218
33.02275354,-2.739849091,4.37680912,0.2633371949,2024-06-11 14:04:05.022754
33.06324692,-3.042280197,0.1483078003,-3.391740322,2024-06-11 14:04:05.063247
33.10373036,2.18296814,0.5252656937,-0.886235714,2024-06-11 14:04:05.103730
33.14421765,1.930891991,-0.6569595337,-1.145018101,2024-06-11 14:04:05.144218
33.18462807,2.3311553,-1.557273865,-3.770371914,2024-06-11 14:04:05.184628
33.22516531,3.92494154,-0.3979873657,-6.142794609,2024-06-11 14:04:05.225165
33.26558734,2.378883362,-0.7159671783,-6.381886005,2024-06-11 14:04:05.265587
33.30607187,-0.1796512604,-2.917723179,-3.765453815,2024-06-11 14:04:05.306072
33.34658453,-0.7345747948,-7.949881554,11.22498989,2024-06-11 14:04:05.346585
33.38704109,1.205136299,-1.93852663,4.426170349,2024-06-11 14:04:05.387041
33.427539,-4.711607933,2.599645615,0.5690646172,2024-06-11 14:04:05.427539
33.46803578,-2.108679771,2.900846958,-1.850087643,2024-06-11 14:04:05.468036
33.50852833,2.561006784,2.349735737,-0.309212923,2024-06-11 14:04:05.508528
33.54901109,3.420690775,3.257686615,1.629132032,2024-06-11 14:04:05.549011
33.5894977,2.443764925,1.443296432,-0.6778211594,2024-06-11 14:04:05.589498
33.62997942,0.08803462982,1.470215321,-4.245515823,2024-06-11 14:04:05.629979
33.67045828,-1.295243263,1.674623489,-0.5465657711,2024-06-11 14:04:05.670458
33.71094005,-3.882412434,-1.172233582,4.150270462,2024-06-11 14:04:05.710940
33.75142395,-2.502044201,-1.77791214,5.095826626,2024-06-11 14:04:05.751424
33.79191452,0.2629909515,2.115036011,4.871371269,2024-06-11 14:04:05.791915
33.832369,0.6056261063,5.288103104,2.085980415,2024-06-11 14:04:05.832369
33.87285041,-0.4222450256,1.051618099,-1.743181705,2024-06-11 14:04:05.872850
33.91336562,-2.303661346,-0.9408512115,-3.584656,2024-06-11 14:04:05.913366
33.95385093,-9.784305573,-6.790286064,3.63010931,2024-06-11 14:04:05.953851
33.99432255,-4.18522501,0.7743349075,6.822798729,2024-06-11 14:04:05.994323
34.03481692,-0.6273164749,4.226810932,-3.714476347,2024-06-11 14:04:06.034817
34.07533328,0.6860184669,2.874975681,-4.747729301,2024-06-11 14:04:06.075333
34.11580994,0.577609539,1.826180935,-3.953396559,2024-06-11 14:04:06.115810
34.15630671,1.058481216,3.322806835,-2.934960127,2024-06-11 14:04:06.156307
34.19674645,0.4147815704,0.4313077927,-2.942255974,2024-06-11 14:04:06.196746
34.23726447,-3.39794302,-0.1583590508,2.040224075,2024-06-11 14:04:06.237264
34.27773463,-3.99529171,1.131808758,5.168104172,2024-06-11 14:04:06.277735
34.31821557,-3.245965004,2.626971722,0.2951262295,2024-06-11 14:04:06.318216
34.35872218,-2.073609829,0.4215517044,-2.527258158,2024-06-11 14:04:06.358722
34.39919728,0.9206252098,-3.140524387,-0.7467597723,2024-06-11 14:04:06.399197
34.43965869,0.4072303772,-3.565559387,7.988064289,2024-06-11 14:04:06.439659
34.48014557,-0.8230557442,0.3254599571,0.8881793022,2024-06-11 14:04:06.480146
34.52064223,2.784250975,1.920654297,-6.69438839,2024-06-11 14:04:06.520642
34.56113119,3.505658627,1.823579788,-9.899216652,2024-06-11 14:04:06.561131
34.60161645,2.465726852,-0.2755765915,-9.628400803,2024-06-11 14:04:06.601616
34.64208801,3.499915838,0.03881454468,-5.881267548,2024-06-11 14:04:06.642088
34.68257062,6.789335251,-7.059453487,-2.851703405,2024-06-11 14:04:06.682571
34.72306161,8.292591095,-9.995780945,12.82780075,2024-06-11 14:04:06.723062
34.76354478,-2.567279339,-4.075936317,2.28486371,2024-06-11 14:04:06.763545
34.804009,-7.538740158,-0.6392045021,-8.051696777,2024-06-11 14:04:06.804009
34.84445676,-8.071440697,2.960526705,2.527455807,2024-06-11 14:04:06.844457
34.88500057,2.593685389,1.181725979,-8.666563034,2024-06-11 14:04:06.885001
34.92547671,4.200818062,1.084075928,1.060838223,2024-06-11 14:04:06.925477
34.96596911,-5.993884563,-1.76076746,2.019190311,2024-06-11 14:04:06.965969
35.00646739,-1.881836891,2.859955311,-4.781068325,2024-06-11 14:04:07.006467
35.04691546,2.7926054,-0.5121803284,-6.638848782,2024-06-11 14:04:07.046915
35.08741354,-1.757088184,0.5748806,3.20912838,2024-06-11 14:04:07.087414
35.1278888,-4.592407227,1.460490227,-2.479432344,2024-06-11 14:04:07.127889
35.16839729,-0.5787718296,-1.173172951,-6.539125443,2024-06-11 14:04:07.168397
35.20887864,3.360087395,-1.381349564,-3.762043953,2024-06-11 14:04:07.208879
35.2493552,5.676145554,-2.84750843,-6.898350716,2024-06-11 14:04:07.249355
35.28985781,1.632372737,-6.717345238,1.717299938,2024-06-11 14:04:07.289858
35.33032682,5.228700638,0.7830209732,19.05739403,2024-06-11 14:04:07.330327
35.37084505,4.425261974,0.8404474258,9.983961105,2024-06-11 14:04:07.370845
35.41125984,0.5016458035,1.155780792,-1.135848284,2024-06-11 14:04:07.411260
35.45182505,0.03147017956,0.7451753616,-2.930253506,2024-06-11 14:04:07.451825
35.49229786,-0.5452265739,-0.3326339722,0.8919034004,2024-06-11 14:04:07.492298
35.53274702,2.169820786,-0.05632781982,-2.124390364,2024-06-11 14:04:07.532747
35.57325723,5.48801899,-0.2574281693,-2.023316383,2024-06-11 14:04:07.573257
35.61374119,6.043660164,-8.772683144,3.346551895,2024-06-11 14:04:07.613741
35.65419218,4.664089203,2.383167744,15.30706692,2024-06-11 14:04:07.654192
35.69469551,0.1053106785,3.735757828,3.244452715,2024-06-11 14:04:07.694696
35.73522281,-6.867506027,0.236330986,0.43353194,2024-06-11 14:04:07.735223
35.77565895,-4.079023361,0.6551885605,-4.403489113,2024-06-11 14:04:07.775659
35.81610551,-0.5339384079,1.903730869,-6.86605978,2024-06-11 14:04:07.816106
35.85658937,1.037978172,1.734141827,-3.938382387,2024-06-11 14:04:07.856589
35.8971401,1.227828026,0.8549041748,2.889985085,2024-06-11 14:04:07.897140
35.93756786,3.099110126,1.453130245,-5.416068077,2024-06-11 14:04:07.937568
35.97808432,-1.375524998,1.822815418,4.882360458,2024-06-11 14:04:07.978084
36.01856567,0.9171700478,0.6310305595,4.955979824,2024-06-11 14:04:08.018566
36.05906546,4.926281929,-0.7510709763,0.377935648,2024-06-11 14:04:08.059065
36.099544,3.566230297,-0.4964995384,2.686121464,2024-06-11 14:04:08.099544
36.1400064,-5.100448132,2.694096565,-9.647333145,2024-06-11 14:04:08.140006
36.18051359,-14.10161018,1.131097794,12.12429619,2024-06-11 14:04:08.180514
36.22098525,-8.836399078,-0.3549828529,-0.8223395944,2024-06-11 14:04:08.220985
36.26147432,4.045482635,3.428252697,-3.44539547,2024-06-11 14:04:08.261474
36.3019689,6.69229126,4.032588482,-1.965805531,2024-06-11 14:04:08.301969
36.3424488,2.583884716,-3.360866547,-0.06128704548,2024-06-11 14:04:08.342449
36.38296885,-2.134577274,-7.89919281,5.19247818,2024-06-11 14:04:08.382969
36.42340275,-0.1311993599,1.234003544,0.7149524689,2024-06-11 14:04:08.423403
36.46389864,-0.9915533066,2.039752483,-4.679300308,2024-06-11 14:04:08.463899
36.50441676,1.641683102,1.870097637,0.8786552548,2024-06-11 14:04:08.504417
36.5448852,0.6530389786,-0.4205889702,3.231174469,2024-06-11 14:04:08.544885
36.58537624,1.883478165,0.6992282867,3.155906439,2024-06-11 14:04:08.585376
36.62586098,-0.9044218063,1.53422451,-1.139669776,2024-06-11 14:04:08.625861
36.66639426,-2.182982922,2.913905621,-3.315952301,2024-06-11 14:04:08.666394
36.70674666,-2.698907375,3.540876389,-1.328903437,2024-06-11 14:04:08.706747
36.74725145,-5.703827858,3.329694748,0.6386238337,2024-06-11 14:04:08.747251
36.78777854,-3.412603855,1.764121532,2.073693752,2024-06-11 14:04:08.787779
36.82823525,-0.5034723282,-1.028550148,3.571662188,2024-06-11 14:04:08.828235
36.86870291,-0.6576547623,-4.933549881,5.192508221,2024-06-11 14:04:08.868703
36.90922072,-3.585646152,-4.132528782,1.510533333,2024-06-11 14:04:08.909221
36.94970432,1.372880936,-3.302246571,-5.15094471,2024-06-11 14:04:08.949704
36.99018291,4.136584282,-2.285928249,-6.533489227,2024-06-11 14:04:08.990183
37.03069484,-0.1422605515,-1.945518017,-2.536352396,2024-06-11 14:04:09.030695
37.07118947,1.24939394,1.52850771,-1.557247162,2024-06-11 14:04:09.071189
37.1116351,3.79987359,2.943569422,-3.947239161,2024-06-11 14:04:09.111635
37.15212791,4.36736393,3.924623489,-3.313746214,2024-06-11 14:04:09.152128
37.1926089,-5.149522781,-3.521045685,16.38018227,2024-06-11 14:04:09.192609
37.2330888,8.871335983,-0.5236387253,-8.200648308,2024-06-11 14:04:09.233089
37.27358442,7.993384838,-1.528254986,-10.19146729,2024-06-11 14:04:09.273584
37.314059,1.359158516,-14.17657185,-20.26741409,2024-06-11 14:04:09.314059
37.35454369,9.014805794,-15.03551292,19.68909073,2024-06-11 14:04:09.354544
37.39505166,9.241643906,-5.852212906,-1.950954437,2024-06-11 14:04:09.395052
37.43551348,-2.829115868,-11.24174404,0.5863809586,2024-06-11 14:04:09.435513
37.47602942,-8.006614685,1.694077969,-2.465824127,2024-06-11 14:04:09.476029
37.51650749,-1.140351772,10.84028721,1.986922264,2024-06-11 14:04:09.516507
37.55691291,4.264431,3.905697823,0.6422376633,2024-06-11 14:04:09.556913
37.59741843,6.711499691,0.8781173229,3.392054081,2024-06-11 14:04:09.597418
37.637934,12.27309799,4.474163055,-4.08926487,2024-06-11 14:04:09.637934
37.6784488,13.17909431,4.080537796,-4.957510948,2024-06-11 14:04:09.678449
37.71891682,10.32278442,-0.07408714294,-6.253005981,2024-06-11 14:04:09.718917
37.75940364,-0.1192526817,-21.74379349,-15.1433506,2024-06-11 14:04:09.759404
37.79988182,-7.914945126,-30.06111336,-6.674955368,2024-06-11 14:04:09.799882
37.84030734,-15.20482254,-10.45601845,23.73046875,2024-06-11 14:04:09.840307
37.88084202,-6.23056221,7.667660713,8.789778709,2024-06-11 14:04:09.880842
37.92133234,-16.86698914,12.64502048,-13.88190269,2024-06-11 14:04:09.921332
37.96181228,-12.92377281,14.20607185,6.328321457,2024-06-11 14:04:09.961812
38.00229874,-3.371023893,11.16365433,2.898242474,2024-06-11 14:04:10.002299
38.04282005,-4.007640362,8.542842865,-2.530875206,2024-06-11 14:04:10.042820
38.08328937,-28.52555275,-18.08840942,-4.224302292,2024-06-11 14:04:10.083289
38.12375895,-22.96333122,-60.19548798,14.81672859,2024-06-11 14:04:10.123759
38.16424218,0.5325546265,-32.01902008,-48.12239075,2024-06-11 14:04:10.164242
38.2047413,15.15005302,-7.694280624,-15.32658005,2024-06-11 14:04:10.204741
38.24526364,11.83834839,1.086863041,-12.20228958,2024-06-11 14:04:10.245264
38.28568765,7.740427017,4.081942558,-5.284658432,2024-06-11 14:04:10.285688
38.32613421,2.536537647,9.727654457,0.4510028362,2024-06-11 14:04:10.326134
38.36662348,0.4438940883,14.19504642,1.53589344,2024-06-11 14:04:10.366623
38.40710781,0.2683198452,9.721116066,2.652136803,2024-06-11 14:04:10.407108
38.44762557,3.891178846,1.140426636,-1.083947182,2024-06-11 14:04:10.447626
38.48809437,-0.3750452995,-9.919132233,-12.97542381,2024-06-11 14:04:10.488094
38.52859895,-18.36151505,-32.18960953,3.995995998,2024-06-11 14:04:10.528599
38.56909025,-23.367836,-12.98505592,0.7356395721,2024-06-11 14:04:10.569090
38.60957468,-6.33812952,4.868603706,-7.768847942,2024-06-11 14:04:10.609575
38.65006437,1.132599354,9.602535248,-7.591060638,2024-06-11 14:04:10.650064
38.69053432,-8.258209229,1.226995468,-0.08171129227,2024-06-11 14:04:10.690534
38.73102228,-11.13349533,2.865638733,-2.371926785,2024-06-11 14:04:10.731022
38.77148848,0.5695209503,5.605505943,-0.4096370637,2024-06-11 14:04:10.771488
38.81199078,3.346131325,3.040957451,2.12002182,2024-06-11 14:04:10.811991
38.85240182,0.3565168381,-0.07948589325,6.606267929,2024-06-11 14:04:10.852402
38.89295968,-2.133297682,5.424650669,9.3210783,2024-06-11 14:04:10.892960
38.93351166,-5.19719696,4.192589283,2.484595776,2024-06-11 14:04:10.933512
38.97392562,-1.656347275,0.9175682068,-5.578843117,2024-06-11 14:04:10.973926
39.01440078,-5.410838127,-7.782519817,0.8931627274,2024-06-11 14:04:11.014401
39.0549315,-8.313142776,-16.33730888,9.770227432,2024-06-11 14:04:11.054932
39.09539437,-5.385936737,-6.106273651,-2.860551834,2024-06-11 14:04:11.095394
39.13587932,-7.142351151,-2.981369495,-4.364161491,2024-06-11 14:04:11.135879
39.17636426,1.5959692,-1.042523861,-7.867079735,2024-06-11 14:04:11.176364
39.21684916,7.50023222,-1.05553031,-3.665367603,2024-06-11 14:04:11.216849
39.25733416,6.084252834,4.792768478,-0.9639058113,2024-06-11 14:04:11.257334
39.29777578,5.763099194,4.964936256,-10.04917145,2024-06-11 14:04:11.297776
39.3382739,9.027109146,3.668572187,-12.1299572,2024-06-11 14:04:11.338274
39.37875885,8.46575737,5.151343346,-2.828819513,2024-06-11 14:04:11.378759
39.41926807,0.8035793304,-3.803061008,1.736362219,2024-06-11 14:04:11.419268
39.45972484,3.814301968,-18.18381691,-11.34673309,2024-06-11 14:04:11.459725
39.50023109,5.115978241,-3.466687202,6.137447357,2024-06-11 14:04:11.500231
39.54069682,-3.101550102,-5.617753506,6.005126476,2024-06-11 14:04:11.540697
39.58117796,-17.17557907,-14.0612793,17.75839424,2024-06-11 14:04:11.581178
39.62166197,-5.343616962,-2.158968449,25.31046295,2024-06-11 14:04:11.621662
39.66216828,-8.091873169,1.940794945,-15.05794811,2024-06-11 14:04:11.662168
39.70265307,3.253303289,8.27436161,16.42951202,2024-06-11 14:04:11.702653
39.74311807,3.788021088,5.186841965,0.9489399195,2024-06-11 14:04:11.743118
39.7836302,-18.16160965,-7.551558971,-16.34480476,2024-06-11 14:04:11.783630
39.82410661,-16.39859009,-35.69119263,24.15226555,2024-06-11 14:04:11.824107
39.86453197,-11.25244713,-52.45639801,-14.80621529,2024-06-11 14:04:11.864532
39.90514119,11.9683342,-6.302993298,-33.16300964,2024-06-11 14:04:11.905141
39.94553687,17.89604568,5.332616806,-16.21422195,2024-06-11 14:04:11.945537
39.98600479,7.402966499,6.619758606,-4.905401707,2024-06-11 14:04:11.986005
40.0264888,2.265188932,8.278671265,0.4979486465,2024-06-11 14:04:12.026489
40.06702926,-13.0212183,19.33224869,28.02822304,2024-06-11 14:04:12.067029
40.10751036,-4.141369343,11.84253693,-5.622760296,2024-06-11 14:04:12.107510
40.14798036,1.03703618,-0.5623664856,7.403388977,2024-06-11 14:04:12.147980
40.18845437,-12.30367279,-9.658384323,-9.409518242,2024-06-11 14:04:12.188454
40.22894765,-8.709540367,-15.54047775,-18.94046402,2024-06-11 14:04:12.228948
40.26943119,-4.333319187,-33.30512238,1.006115913,2024-06-11 14:04:12.269431
40.30991213,-3.232522011,-24.41472054,3.234233856,2024-06-11 14:04:12.309912
40.3503902,-1.72693491,-1.671993732,-5.446832657,2024-06-11 14:04:12.350390
40.3909076,0.7381615639,5.677694321,4.463378906,2024-06-11 14:04:12.390908
40.43134078,3.170154572,6.653391838,4.373223782,2024-06-11 14:04:12.431341
40.4718414,3.116799831,6.389191628,2.773575544,2024-06-11 14:04:12.471841
40.51235463,1.009599209,4.918228149,-1.400338054,2024-06-11 14:04:12.512355
40.55282208,-0.1601567268,3.584388018,-1.979747295,2024-06-11 14:04:12.552822
40.59329499,-0.6569910049,2.968907356,9.043901443,2024-06-11 14:04:12.593295
40.63378041,0.8571124077,-2.049571991,2.961668015,2024-06-11 14:04:12.633780
40.6742677,2.267100334,-0.3841323853,-3.059933186,2024-06-11 14:04:12.674268
40.71476744,0.2735724449,1.64526844,-5.659291267,2024-06-11 14:04:12.714767
40.75527109,-4.000735283,-0.3213644028,-6.765007973,2024-06-11 14:04:12.755271
40.79574447,-5.408199787,-7.834912777,4.443195343,2024-06-11 14:04:12.795744
40.8362439,-1.67747736,-13.2464056,1.404262066,2024-06-11 14:04:12.836244
40.87671536,6.869560242,-4.418538094,-5.268218994,2024-06-11 14:04:12.876715
40.91716859,5.151247501,-2.635588169,-3.672631025,2024-06-11 14:04:12.917169
40.95765317,2.044073105,-0.538271904,-1.760042429,2024-06-11 14:04:12.957653
40.99815338,1.662398338,-0.6571645737,0.337444067,2024-06-11 14:04:12.998153
41.03864557,3.457722664,-1.028783798,-3.624322891,2024-06-11 14:04:13.038646
41.07911145,2.146692514,0.09418392181,-1.910186648,2024-06-11 14:04:13.079111
41.11960869,-0.430873394,-1.518892765,0.8996126652,2024-06-11 14:04:13.119609
41.16009786,-2.124756813,1.544426441,0.5516328812,2024-06-11 14:04:13.160098
41.2005852,-1.516516209,2.050868034,-2.482114792,2024-06-11 14:04:13.200585
41.24107796,-0.1790962219,0.4128117561,-2.223005533,2024-06-11 14:04:13.241078
41.28154801,0.6520066261,0.5962052345,2.629126787,2024-06-11 14:04:13.281548
41.32201916,-1.483634472,0.4548549652,-1.195280552,2024-06-11 14:04:13.322019
41.36251937,0.1546239853,0.4737277031,-3.062256813,2024-06-11 14:04:13.362519
41.40299791,4.37039566,-1.904040813,-0.2551835477,2024-06-11 14:04:13.402998
41.44346973,2.00137043,-4.653121471,0.4804043472,2024-06-11 14:04:13.443470
41.4839839,-5.300198078,-5.651344299,5.415327072,2024-06-11 14:04:13.483984
41.524449,-0.1523718834,1.995053768,2.210084915,2024-06-11 14:04:13.524449
41.56495775,-1.120049477,5.408707142,-1.779555917,2024-06-11 14:04:13.564958
41.60546301,-6.419521332,1.539167881,2.497219801,2024-06-11 14:04:13.605463
41.6459663,-4.153354168,0.7141561508,2.114195585,2024-06-11 14:04:13.645966
41.68637062,-1.232560158,3.270694256,-0.1510220021,2024-06-11 14:04:13.686371
41.72681104,-0.2816262245,1.491172791,-3.677121162,2024-06-11 14:04:13.726811
41.76737437,2.003335953,-0.08325195312,-2.027463675,2024-06-11 14:04:13.767374
41.80783624,1.978215694,-0.7016220093,0.4987057447,2024-06-11 14:04:13.807836
41.84828093,1.135356903,0.0593047142,0.8963370323,2024-06-11 14:04:13.848281
41.88880411,0.4624834061,-1.710319042,-2.124715328,2024-06-11 14:04:13.888804
41.92929619,0.4536247253,-7.395689487,8.321372986,2024-06-11 14:04:13.929296
41.96978098,4.958064079,-6.95870924,7.528334141,2024-06-11 14:04:13.969781
42.01025593,-3.159190178,-1.67160511,-9.890071869,2024-06-11 14:04:14.010256
42.05074489,1.631964684,7.164375305,0.3507428169,2024-06-11 14:04:14.050745
42.09121088,1.324311733,10.34599113,0.8532776833,2024-06-11 14:04:14.091211
42.13172202,1.496646404,6.594070435,-10.35876465,2024-06-11 14:04:14.131722
42.17221328,-1.306627989,0.2347335815,-3.433591366,2024-06-11 14:04:14.172213
42.21269536,-5.536212921,-1.113222122,1.097855568,2024-06-11 14:04:14.212695
42.25317562,-3.083433628,-3.962658882,4.394426346,2024-06-11 14:04:14.253176
42.29365057,-3.210768223,-9.171853065,20.55960464,2024-06-11 14:04:14.293651
42.33411536,-1.54915905,0.715429306,-1.403282642,2024-06-11 14:04:14.334115
42.37464416,-5.093822002,0.5014028549,-3.001096249,2024-06-11 14:04:14.374644
42.41506567,-4.321907997,4.570858002,5.041187286,2024-06-11 14:04:14.415066
42.45554978,-1.332457542,0.943256855,0.5253969431,2024-06-11 14:04:14.455550
42.49610583,3.970944643,2.763195038,1.889047623,2024-06-11 14:04:14.496106
42.53656031,-1.161133766,0.6031904221,-0.2821128368,2024-06-11 14:04:14.536560
42.57704426,-3.970158577,-0.7835168839,3.750591755,2024-06-11 14:04:14.577044
42.61749046,1.229178429,-3.351534843,4.403321266,2024-06-11 14:04:14.617490
42.65800166,0.5061678886,-1.485154152,-4.847669601,2024-06-11 14:04:14.658002
42.6984738,-1.819265842,-0.5680971146,-8.448186874,2024-06-11 14:04:14.698474
42.73898968,-2.129031658,2.879647255,-1.669672012,2024-06-11 14:04:14.738990
42.77945702,0.3194255829,5.032131672,-2.481104612,2024-06-11 14:04:14.779457
42.81996041,1.074771881,4.198965073,-4.984548092,2024-06-11 14:04:14.819960
42.86040218,0.3824152946,0.1398329735,-4.415331364,2024-06-11 14:04:14.860402
42.90090218,0.1200270653,-7.590806007,1.342803597,2024-06-11 14:04:14.900902
42.94139593,4.394649029,-3.405633926,8.71962738,2024-06-11 14:04:14.941396
42.9818788,-0.9384064674,-1.701436996,0.3697687387,2024-06-11 14:04:14.981879
43.02235895,0.6589074135,-1.257727146,-4.959551811,2024-06-11 14:04:15.022359
43.06285067,3.771722078,1.2170825,-5.60326767,2024-06-11 14:04:15.062851
43.10337525,-1.030675888,2.733956337,1.604033113,2024-06-11 14:04:15.103375
43.14381921,-5.754597664,-0.6743984222,10.65466309,2024-06-11 14:04:15.143819
43.1843088,-2.253249168,-1.539680004,4.263062,2024-06-11 14:04:15.184309
43.22482911,1.853079557,1.790915489,-3.445475578,2024-06-11 14:04:15.224829
43.2653215,0.3296985626,0.3036208153,-2.132503748,2024-06-11 14:04:15.265321
43.30573937,0.1101899147,0.3951449394,-0.3098909855,2024-06-11 14:04:15.305739
43.3463064,-0.6514072418,0.444246769,0.8897252083,2024-06-11 14:04:15.346306
43.38670583,-1.262145996,0.7543544769,-0.2655248642,2024-06-11 14:04:15.386706
43.42719374,-1.235509396,1.270260811,-2.381569862,2024-06-11 14:04:15.427194
43.46768499,-1.275194168,1.296422005,-0.3400802612,2024-06-11 14:04:15.467685
43.50817525,-1.67808485,-0.1071767807,-1.058831453,2024-06-11 14:04:15.508175
43.54866484,-1.803283691,-0.186920166,-5.269086361,2024-06-11 14:04:15.548665
43.5891339,3.702246904,-6.117007256,22.68878174,2024-06-11 14:04:15.589134
43.62962765,2.369238138,-2.958771706,-0.9306213856,2024-06-11 14:04:15.629628
43.6701301,3.943044662,0.8595070839,-13.35881138,2024-06-11 14:04:15.670130
43.71060682,-4.060949802,-2.654575348,9.534536362,2024-06-11 14:04:15.710607
43.75108374,-2.168384075,-2.783895493,10.66460609,2024-06-11 14:04:15.751084
43.79157916,3.085338593,0.4011573792,-1.405548334,2024-06-11 14:04:15.791579
43.83202452,3.872845173,3.111337185,-2.558392286,2024-06-11 14:04:15.832025
43.87248786,1.961297512,2.542700768,-1.929582477,2024-06-11 14:04:15.872488
43.91302609,0.8737511635,2.073514938,-0.1940203905,2024-06-11 14:04:15.913026
43.9535402,-0.25222826,0.1016044617,1.461270809,2024-06-11 14:04:15.953540
43.99400046,0.8012924194,-1.418358803,1.335267067,2024-06-11 14:04:15.994000
44.03449781,0.7818007469,-1.01626873,0.4931343198,2024-06-11 14:04:16.034498
44.0750063,-1.663774967,-0.02464818954,0.2377357483,2024-06-11 14:04:16.075006
44.11546671,-1.76500082,1.182556629,0.3282755613,2024-06-11 14:04:16.115467
44.15590765,-0.2781953812,3.153353691,0.03753089905,2024-06-11 14:04:16.155908
44.19638281,-3.979733944,0.5984969139,1.420186162,2024-06-11 14:04:16.196383
44.23685676,-2.338106155,-1.575213432,5.435060024,2024-06-11 14:04:16.236857
44.2773663,1.202326775,-0.9157881737,5.197279453,2024-06-11 14:04:16.277366
44.31786874,-1.792967319,1.935385227,1.037365198,2024-06-11 14:04:16.317869
44.35838291,-3.919178486,2.574948311,-1.383367062,2024-06-11 14:04:16.358383
44.39884874,-2.54683876,2.456083775,0.01108658314,2024-06-11 14:04:16.398849
44.43932598,-3.497285366,1.453648567,-1.073741436,2024-06-11 14:04:16.439326
44.47981051,-2.524747849,0.8830318451,-0.3471903801,2024-06-11 14:04:16.479811
44.52029437,0.06514930725,0.2441382408,1.854104519,2024-06-11 14:04:16.520294
44.56077676,2.68880415,1.447161674,2.511286259,2024-06-11 14:04:16.560777
44.60125911,-0.3899898529,1.215579033,2.231536388,2024-06-11 14:04:16.601259
44.64175041,-2.09590292,1.908394814,0.826385498,2024-06-11 14:04:16.641750
44.68223229,-2.898127079,3.018442154,0.5064188242,2024-06-11 14:04:16.682232
44.72269645,-3.390012741,3.014375687,1.461628079,2024-06-11 14:04:16.722696
44.76319843,-5.236208439,0.8530912399,2.042040348,2024-06-11 14:04:16.763198
44.80369234,-3.471747875,-1.010326862,3.049630404,2024-06-11 14:04:16.803692
44.84410708,-3.05567503,-1.499809265,6.511384487,2024-06-11 14:04:16.844107
44.88466916,-3.35615015,0.5159420967,8.546087265,2024-06-11 14:04:16.884669
44.92515067,-0.695792675,-3.374197006,-2.674964905,2024-06-11 14:04:16.925151
44.96559833,-0.2753820419,-8.287696838,-7.675169468,2024-06-11 14:04:16.965598
45.00607489,-2.25929594,-4.125194073,-5.872311592,2024-06-11 14:04:17.006075
45.04654843,-0.2041931152,0.2402458191,-1.694350481,2024-06-11 14:04:17.046548
45.08702749,-0.7816982269,4.048225403,-4.757961273,2024-06-11 14:04:17.087027
45.12755744,3.165642738,6.49667263,-9.093610764,2024-06-11 14:04:17.127557
45.16803661,3.027295589,5.313346386,-1.947605848,2024-06-11 14:04:17.168037
45.20853749,-5.880525589,-2.709218979,14.97190666,2024-06-11 14:04:17.208537
45.24901161,7.384896278,1.768956423,-22.38806343,2024-06-11 14:04:17.249012
45.28951572,2.854818344,-10.07620811,-14.37929153,2024-06-11 14:04:17.289516
45.32998333,-18.29975891,-20.78808022,14.89608192,2024-06-11 14:04:17.329983
45.37046765,-0.9245948792,-1.765593529,-8.965409279,2024-06-11 14:04:17.370468
45.41093057,3.691881657,7.741962433,4.746110439,2024-06-11 14:04:17.410931
45.45145156,-6.703179836,1.627771854,-4.521693707,2024-06-11 14:04:17.451452
45.49195166,-4.184798717,0.8625159264,-0.1352987289,2024-06-11 14:04:17.491952
45.53239551,-4.03118515,2.266232014,1.065474749,2024-06-11 14:04:17.532396
45.57288109,-1.786820889,1.620885849,-0.01717162132,2024-06-11 14:04:17.572881
45.61336546,-6.923193932,-1.771367073,-3.829484224,2024-06-11 14:04:17.613365
45.65386114,-7.762831688,-7.379290581,-3.150711298,2024-06-11 14:04:17.653861
45.69432921,-5.540688515,-12.55292892,-4.649238586,2024-06-11 14:04:17.694329
45.73488755,8.380946159,-10.7226944,-7.827390671,2024-06-11 14:04:17.734888
45.77537473,15.04627228,-3.921521187,-0.8808710575,2024-06-11 14:04:17.775375
45.81576119,6.471293449,2.690602779,1.791273713,2024-06-11 14:04:17.815761
45.85621781,1.635889769,7.451059818,3.212300539,2024-06-11 14:04:17.856218
45.89680176,11.44851398,14.12192535,24.34186745,2024-06-11 14:04:17.896802
45.93723854,7.018352032,9.911093712,1.028383493,2024-06-11 14:04:17.937239
45.97773775,5.858823776,8.604637146,-0.3082332611,2024-06-11 14:04:17.977738
46.01821088,6.639026165,9.128520012,-1.415872931,2024-06-11 14:04:18.018211
46.05867952,6.226255894,4.733225346,2.428582907,2024-06-11 14:04:18.058680
46.09920281,3.550117493,-17.0866375,4.736433029,2024-06-11 14:04:18.099203
46.13966937,-16.89281654,-42.78559494,-1.809436798,2024-06-11 14:04:18.139669
46.18016208,2.480823994,-5.280732155,-1.290120006,2024-06-11 14:04:18.180162
46.2206477,3.582303047,2.043467522,-11.32160759,2024-06-11 14:04:18.220648
46.261119,-3.217911243,5.004755497,-20.77824211,2024-06-11 14:04:18.261119
46.30159713,-6.468766689,1.693370342,-7.528885841,2024-06-11 14:04:18.301597
46.34207999,-1.601050854,3.40490675,9.338027954,2024-06-11 14:04:18.342080
46.38260557,-1.333182335,1.472554207,9.608268738,2024-06-11 14:04:18.382606
46.42303369,-0.6558122635,1.675152302,4.336996078,2024-06-11 14:04:18.423034
46.46354713,2.302793026,1.243327618,1.486358047,2024-06-11 14:04:18.463547
46.50406645,-0.571618557,-2.935836792,1.24954164,2024-06-11 14:04:18.504066
46.54449671,0.5585794449,0.2160038948,-0.3912497759,2024-06-11 14:04:18.544497
46.58503619,-0.7787604332,0.1633582115,-1.919080257,2024-06-11 14:04:18.585036
46.62552083,0.9873023033,-2.846680164,1.13437283,2024-06-11 14:04:18.625521
46.6659627,2.535639763,-4.674535275,2.269689322,2024-06-11 14:04:18.665963
46.70645692,2.117702484,-2.788097382,2.921551704,2024-06-11 14:04:18.706457
46.74694041,1.292851448,-1.264660835,-0.3538146019,2024-06-11 14:04:18.746940
46.78742723,1.672410965,0.4473161697,-3.590940475,2024-06-11 14:04:18.787427
46.82788234,4.074705124,0.7990970612,-3.805262566,2024-06-11 14:04:18.827882
46.86835328,2.478604555,-0.8013448715,-0.4242122173,2024-06-11 14:04:18.868353
46.90887942,1.4338727,-1.297533035,1.599839926,2024-06-11 14:04:18.908879
46.94936078,2.150121689,1.273272038,-0.789949894,2024-06-11 14:04:18.949361
46.9898451,1.148041248,1.011606693,-0.6626348495,2024-06-11 14:04:18.989845
47.03034692,0.1137843132,-0.2947201729,4.544241905,2024-06-11 14:04:19.030347
47.07084156,0.8961048126,0.5556621552,6.896201134,2024-06-11 14:04:19.070842
47.1112764,1.180063725,0.9809098244,3.445569277,2024-06-11 14:04:19.111276
47.15177197,-3.065570831,-0.7467617989,-1.425495148,2024-06-11 14:04:19.151772
47.19225572,-3.877613068,-2.798023701,-3.598301888,2024-06-11 14:04:19.192256
47.23273676,3.376476288,2.042692184,-3.134996176,2024-06-11 14:04:19.232737
47.27322682,0.6474056244,-0.5912790298,-1.699369192,2024-06-11 14:04:19.273227
47.31373104,-1.98506403,-1.315086842,-0.5098809004,2024-06-11 14:04:19.313731
47.35421072,-0.2594866753,2.086842537,-0.05160745978,2024-06-11 14:04:19.354211
47.39469197,-0.06120681763,1.863771439,1.288920403,2024-06-11 14:04:19.394692
47.43515833,1.144664288,0.4692325592,2.146515131,2024-06-11 14:04:19.435158
47.47566739,1.986386776,-0.4218401909,2.694177628,2024-06-11 14:04:19.475667
47.51618755,0.6850399971,-0.3514785767,3.146898985,2024-06-11 14:04:19.516188
47.55663765,-2.103048325,0.4060969353,2.656804562,2024-06-11 14:04:19.556638
47.59708036,-3.060534954,1.877820969,3.752007484,2024-06-11 14:04:19.597080
47.6375877,-4.384566307,2.190405846,1.699652433,2024-06-11 14:04:19.637588
47.67808489,-5.345679283,-0.1110038757,0.3587126136,2024-06-11 14:04:19.678085
47.71857578,-3.769425869,-2.420779705,2.142199039,2024-06-11 14:04:19.718576
47.75905265,-1.059837341,-2.467749596,2.700397968,2024-06-11 14:04:19.759053
47.79953895,-0.5121164322,-4.423071384,-1.466858745,2024-06-11 14:04:19.799539
47.83997421,0.09910869598,-7.756082535,-5.479866505,2024-06-11 14:04:19.839974
47.88047947,1.061754704,-1.235692024,-6.282374859,2024-06-11 14:04:19.880479
47.92096822,0.5839729309,1.452965975,-7.546704292,2024-06-11 14:04:19.920968
47.96145208,-0.5695161819,1.23617363,-6.039494514,2024-06-11 14:04:19.961452
48.00194447,2.003204823,0.529446125,-3.742045879,2024-06-11 14:04:20.001944
48.04242156,5.478919029,1.006160736,-3.743671417,2024-06-11 14:04:20.042422
48.08290989,2.732863903,2.327354431,-1.722762823,2024-06-11 14:04:20.082910
48.12340203,-6.403852463,-0.3295254707,2.023641109,2024-06-11 14:04:20.123402
48.16388702,0.2334909439,-2.909701824,7.29735899,2024-06-11 14:04:20.163887
48.20436562,0.8592357635,-4.071290493,0.4379889965,2024-06-11 14:04:20.204366
48.24490395,0.5815973282,-3.932461739,-4.91888237,2024-06-11 14:04:20.244904
48.2853638,1.197994232,0.7336144447,-5.231343746,2024-06-11 14:04:20.285364
48.32579978,-1.47809124,0.2348999977,-5.825935364,2024-06-11 14:04:20.325800
48.36630479,-1.072732449,-3.048610687,-1.430822372,2024-06-11 14:04:20.366305
48.40682078,-1.615381718,-0.2290496826,1.063409328,2024-06-11 14:04:20.406821
48.44730411,-1.119460106,0.750014782,0.7511091232,2024-06-11 14:04:20.447304
48.48775963,1.005965233,0.4955058098,-2.483198881,2024-06-11 14:04:20.487760
48.52826124,2.168051243,-0.1048798561,-1.515674829,2024-06-11 14:04:20.528261
48.56873562,0.2915172577,-0.6259589195,-1.598654985,2024-06-11 14:04:20.568736
48.60922005,-0.5958089828,-0.5930404663,-2.206615686,2024-06-11 14:04:20.609220
48.64971906,0.2167649269,-0.2943954468,-2.20006609,2024-06-11 14:04:20.649719
48.69016796,-0.05381345749,0.3531904221,-2.328429461,2024-06-11 14:04:20.690168
48.73068739,-0.2244558334,-0.05196666718,-2.791383266,2024-06-11 14:04:20.730687
48.77116661,-0.6813077927,-1.230185986,-2.509294987,2024-06-11 14:04:20.771167
48.81162453,0.6470994949,-0.7750244141,-1.915396929,2024-06-11 14:04:20.811625
48.85207682,1.346590996,-1.182369709,-2.325315237,2024-06-11 14:04:20.852077
48.89262223,1.420961857,-2.400484562,-3.709968805,2024-06-11 14:04:20.892622
48.93313312,0.7431783676,-3.254360199,-4.295662403,2024-06-11 14:04:20.933133
48.97359208,0.743575573,-2.334652424,0.1264441013,2024-06-11 14:04:20.973592
49.0140577,-2.955873013,-1.17800808,8.131592751,2024-06-11 14:04:21.014058
49.05459244,-1.318714619,1.761859179,4.006483555,2024-06-11 14:04:21.054592
49.0950652,2.140690327,2.956012964,-0.2054531574,2024-06-11 14:04:21.095065
49.13550775,0.9998941422,1.001670361,-3.153396845,2024-06-11 14:04:21.135508
49.17605145,0.568707943,0.1001291275,-4.005135536,2024-06-11 14:04:21.176051
49.21646843,0.6178159714,1.485970974,-4.112078667,2024-06-11 14:04:21.216468
49.25692989,1.668210506,1.453119278,-2.712457657,2024-06-11 14:04:21.256930
49.29744848,1.919034004,-0.7190895081,-1.857488513,2024-06-11 14:04:21.297448
49.33793182,1.344220161,-2.81871748,-1.584295034,2024-06-11 14:04:21.337932
49.37841202,-0.5046863556,-4.435982227,0.06056352705,2024-06-11 14:04:21.378412
49.41888338,-9.260820389,-6.936512947,6.80253315,2024-06-11 14:04:21.418883
49.45938369,-2.910724163,0.3631191254,11.70440292,2024-06-11 14:04:21.459384
49.49986229,-1.98165226,2.672614336,-1.15777719,2024-06-11 14:04:21.499862
49.5403915,-3.23464489,3.564343929,-5.190076351,2024-06-11 14:04:21.540391
49.58084713,0.004191875458,2.010190964,-1.244416714,2024-06-11 14:04:21.580847
49.62133161,3.213046074,0.5931801796,0.9958654642,2024-06-11 14:04:21.621332
49.66185343,3.635396719,0.9761424065,2.162100077,2024-06-11 14:04:21.661853
49.70226947,0.4951372147,1.001451492,1.593164444,2024-06-11 14:04:21.702269
49.74282562,0.3002085686,0.4971013069,-0.9184322357,2024-06-11 14:04:21.742826
49.78324921,-0.1777925491,-0.7254214287,-1.359035969,2024-06-11 14:04:21.783249
49.82373645,0.8850588799,-0.318002224,-3.760015011,2024-06-11 14:04:21.823736
49.86419374,1.55959177,-0.6268420219,-8.676628113,2024-06-11 14:04:21.864194
49.90475343,0.5857214928,-4.195713997,-3.491135836,2024-06-11 14:04:21.904753
49.94519244,2.022100449,-7.229973793,5.165579796,2024-06-11 14:04:21.945192
49.98568666,-2.687080383,-0.2285690308,7.68364048,2024-06-11 14:04:21.985687
50.0261876,-6.983747959,-0.5484519005,8.855064392,2024-06-11 14:04:22.026188
50.06665343,-0.320953846,0.1267881393,1.898692369,2024-06-11 14:04:22.066653
50.10717369,3.488468647,2.836564064,-3.087678671,2024-06-11 14:04:22.107174
50.14764041,2.544643402,3.421943188,-4.7122612,2024-06-11 14:04:22.147640
50.18809083,4.496592522,4.519500256,-5.951534271,2024-06-11 14:04:22.188091
50.22858452,3.129450321,2.668717384,-4.541198254,2024-06-11 14:04:22.228585
50.26907791,1.023278236,-1.261194229,-1.218105674,2024-06-11 14:04:22.269078
50.30955202,-0.7476372719,-3.059937477,2.798411369,2024-06-11 14:04:22.309552
50.35004687,-0.5902237892,-1.888206005,0.5383473039,2024-06-11 14:04:22.350047
50.39054656,0.2575755119,-3.619197845,0.89820081,2024-06-11 14:04:22.390547
50.43098525,0.7634620667,-8.028865814,3.717069149,2024-06-11 14:04:22.430985
50.47147978,-4.746940136,-1.534256935,12.80593395,2024-06-11 14:04:22.471480
50.51198437,-6.384974003,1.634411812,2.263667583,2024-06-11 14:04:22.511984
50.55245994,-5.155331135,3.989791393,-2.367366314,2024-06-11 14:04:22.552460
50.59294932,-2.205615997,3.261156082,-0.5977936983,2024-06-11 14:04:22.592949
50.63343176,1.041107178,2.365324974,-2.424219131,2024-06-11 14:04:22.633432
50.67390484,2.392503738,2.046931267,-1.389072895,2024-06-11 14:04:22.673905
50.71439494,2.653445244,1.808710098,-0.5494832397,2024-06-11 14:04:22.714395
50.75491598,1.73727417,0.4828877449,-1.410512447,2024-06-11 14:04:22.754916
50.79540531,0.4933371544,-0.9274339676,-1.883843899,2024-06-11 14:04:22.795405
50.83590098,1.043803215,-2.814219952,-1.232320428,2024-06-11 14:04:22.835901
50.87637025,1.89814043,-3.273204803,-1.584732652,2024-06-11 14:04:22.876370
50.91682416,4.303244114,-1.99563694,-6.915138245,2024-06-11 14:04:22.916824
50.95730963,2.933479786,-0.1188187599,-0.3398592472,2024-06-11 14:04:22.957310
50.99779395,-1.826380253,-5.469357491,6.107503414,2024-06-11 14:04:22.997794
51.0382914,-4.859857082,-2.853029251,12.3064003,2024-06-11 14:04:23.038291
51.07876729,-6.52822113,2.912847281,0.9384512901,2024-06-11 14:04:23.078767
51.11924635,-1.827094078,3.030088425,-1.103895307,2024-06-11 14:04:23.119246
51.15973223,2.472619057,2.201237679,-1.641006351,2024-06-11 14:04:23.159732
51.20024328,3.738457203,2.282919884,0.2961404324,2024-06-11 14:04:23.200243
51.24073828,3.403744936,2.224930763,-0.4188920259,2024-06-11 14:04:23.240738
51.28122088,1.973863363,3.390431881,-0.9788508415,2024-06-11 14:04:23.281221
51.32170098,0.1531653404,3.016367435,-0.6791211367,2024-06-11 14:04:23.321701
51.36218255,-3.002255678,-0.1615991592,-4.087556839,2024-06-11 14:04:23.362183
51.40261869,-2.568888187,-5.252929688,-2.337482214,2024-06-11 14:04:23.402619
51.44313442,0.4758642912,-5.30085659,0.1459177434,2024-06-11 14:04:23.443134
51.48363244,6.644321918,-0.4895401001,4.41515398,2024-06-11 14:04:23.483632
51.52407588,6.708230495,4.306429863,-1.291719198,2024-06-11 14:04:23.524076
51.56455328,2.019451857,3.102696896,-1.839026451,2024-06-11 14:04:23.564553
51.60504223,-2.083204985,-2.190340996,-1.32065773,2024-06-11 14:04:23.605042
51.6455376,-5.190484524,-6.332551956,7.36343956,2024-06-11 14:04:23.645538
51.68604083,2.23680377,-1.140708923,9.991316795,2024-06-11 14:04:23.686041
51.72653484,-0.04798150063,-1.096754074,10.13230228,2024-06-11 14:04:23.726535
51.76702025,3.374581337,-1.385669708,-1.864163637,2024-06-11 14:04:23.767020
51.80748796,-5.165656567,0.2951488495,-5.554721832,2024-06-11 14:04:23.807488
51.84789265,-11.9135437,2.647140503,-8.027213097,2024-06-11 14:04:23.847893
51.88844505,-4.305302143,-0.9445543289,-4.810926437,2024-06-11 14:04:23.888445
51.92891333,7.709494591,-3.291128159,-2.558160543,2024-06-11 14:04:23.928913
51.96939348,4.008087635,-1.796710014,-9.457101822,2024-06-11 14:04:23.969393
52.00990145,5.388701439,0.9479885101,13.60302639,2024-06-11 14:04:24.009901
52.05037812,1.165040255,0.9885606766,15.6427412,2024-06-11 14:04:24.050378
52.09087093,6.107650757,-3.104249001,-2.81626606,2024-06-11 14:04:24.090871
52.13135421,1.774460554,-1.140128136,-2.746471643,2024-06-11 14:04:24.131354
52.17184062,1.203463316,2.813902378,-3.798323393,2024-06-11 14:04:24.171841
52.21230963,-2.51115799,0.1672525406,-2.415679455,2024-06-11 14:04:24.212310
52.25280786,-4.120625496,-6.268387794,-0.6635087729,2024-06-11 14:04:24.252808
52.29330911,-1.19692421,-5.971874237,1.194123149,2024-06-11 14:04:24.293309
52.33374999,4.304298401,0.1520256996,0.4403676987,2024-06-11 14:04:24.333750
52.37427984,0.5763320923,-4.466095924,-2.32134223,2024-06-11 14:04:24.374280
52.41472359,2.373216867,-2.835956097,0.05297851562,2024-06-11 14:04:24.414724
52.45529697,-0.4078602791,2.856985092,1.725365162,2024-06-11 14:04:24.455297
52.49569484,-2.742859364,5.800903797,-4.753823757,2024-06-11 14:04:24.495695
52.53618598,0.0257935524,3.829222441,-4.418177128,2024-06-11 14:04:24.536186
52.57664583,1.331521988,2.946595192,-2.218796015,2024-06-11 14:04:24.576646
52.61716124,0.8436455727,1.859315395,-2.917305946,2024-06-11 14:04:24.617161
52.65765786,0.7340569496,-0.01763391495,0.01626992226,2024-06-11 14:04:24.657658
52.69812609,0.6589736938,-1.858666897,1.784321785,2024-06-11 14:04:24.698126
52.73863218,-1.121770859,-2.722677231,1.449109674,2024-06-11 14:04:24.738632
52.77910515,1.46155405,-2.663852692,3.798204422,2024-06-11 14:04:24.779105
52.81960593,2.646992207,-3.30017519,3.299028635,2024-06-11 14:04:24.819606
52.8600238,-1.161486149,-1.988014698,1.441117764,2024-06-11 14:04:24.860024
52.90054078,-1.600970268,-0.1617407799,2.761299372,2024-06-11 14:04:24.900541
52.94104687,-1.502536297,-1.668925285,1.836390257,2024-06-11 14:04:24.941047
52.98151828,-0.2499427795,0.9754228592,-1.919221878,2024-06-11 14:04:24.981518
53.02200968,2.130774498,1.355706692,2.093768597,2024-06-11 14:04:25.022010
53.06248255,-0.1076855659,2.319849968,-3.646241188,2024-06-11 14:04:25.062483
53.10297359,-3.683371067,2.770629406,-3.150634527,2024-06-11 14:04:25.102974
53.14347906,-6.332184792,2.374909878,-0.9584290385,2024-06-11 14:04:25.143479
53.18395499,-1.96592474,2.335978031,2.895825863,2024-06-11 14:04:25.183955
53.22443494,0.6658902168,0.3947992325,0.3942824006,2024-06-11 14:04:25.224435
53.26497197,0.6333708763,-0.4025201797,-1.366832852,2024-06-11 14:04:25.264972
53.30546979,-0.3906202316,1.431669712,-3.004332304,2024-06-11 14:04:25.305470
53.3459013,-0.8947968483,0.1945261955,-0.937492311,2024-06-11 14:04:25.345901
53.38640192,-0.04750394821,-0.3889660835,1.265056372,2024-06-11 14:04:25.386402
53.42679895,-0.5182261467,0.5917220116,-0.01206427813,2024-06-11 14:04:25.426799
53.46732025,-0.2968244553,0.5553588867,-0.3361694813,2024-06-11 14:04:25.467320
53.5078226,-0.2744960785,0.493689537,-0.5170865059,2024-06-11 14:04:25.507823
53.54830109,-0.6268925667,0.8342680931,-1.057663202,2024-06-11 14:04:25.548301
53.58879999,-0.5177340508,0.5844068527,-0.8708071113,2024-06-11 14:04:25.588800
53.62928723,-0.3542528152,-0.1084523201,-0.6993486881,2024-06-11 14:04:25.629287
53.66976869,-0.0006065368652,0.7845849991,-1.17180872,2024-06-11 14:04:25.669769
53.71024062,-0.8564033508,1.37790823,-1.433821321,2024-06-11 14:04:25.710241
53.75072942,-0.945479393,1.035578728,-0.4990895987,2024-06-11 14:04:25.750729
53.7912052,-0.137799263,-0.01936578751,2.392450094,2024-06-11 14:04:25.791205
53.83165781,0.507900238,-0.6796059608,2.03537631,2024-06-11 14:04:25.831658
53.87213432,1.009524345,-0.07083034515,-0.149971813,2024-06-11 14:04:25.872134
53.91268562,-0.4839196205,1.155052662,-0.7119745612,2024-06-11 14:04:25.912686
53.95317916,-1.270095348,1.531301975,-0.9418494701,2024-06-11 14:04:25.953179
53.99363005,-1.268146515,1.494108677,0.5295906067,2024-06-11 14:04:25.993630
54.03411989,-2.23462534,2.034668922,1.20010519,2024-06-11 14:04:26.034120
54.0746252,-3.700014591,3.292470455,0.1133707315,2024-06-11 14:04:26.074625
54.11513228,-4.310190201,2.784427643,-1.507528067,2024-06-11 14:04:26.115132
54.15558984,-2.658212185,1.251966953,-0.3256078959,2024-06-11 14:04:26.155590
54.19602114,-1.516352654,-0.6287841797,0.9299220443,2024-06-11 14:04:26.196021
54.23650531,-1.307849407,-3.787623405,4.537593365,2024-06-11 14:04:26.236505
54.27701588,-1.86596632,-1.683977127,2.300181866,2024-06-11 14:04:26.277016
54.31750124,0.01133823395,0.1503338814,-1.693944812,2024-06-11 14:04:26.317501
54.35800156,0.7583861351,-1.458262444,-1.804073572,2024-06-11 14:04:26.358002
54.39848109,2.483272076,0.3793840408,-3.170318604,2024-06-11 14:04:26.398481
54.43894713,0.4072670937,1.577369213,-1.252775908,2024-06-11 14:04:26.438947
54.47944083,0.08701515198,0.3029475212,-0.4951152802,2024-06-11 14:04:26.479441
54.51993208,2.586680412,1.14486599,-4.316217422,2024-06-11 14:04:26.519932
54.56040041,1.111670017,1.955280781,-1.623253703,2024-06-11 14:04:26.560400
54.60087635,-2.382231236,0.7068405151,3.130506516,2024-06-11 14:04:26.600876
54.6413677,-1.100829124,-0.8332304955,1.933642387,2024-06-11 14:04:26.641368
54.68186072,5.181589127,1.085920334,1.124313831,2024-06-11 14:04:26.681861
54.72234275,2.62599659,-5.442630291,0.2792026997,2024-06-11 14:04:26.722343
54.76281682,-0.8812246323,-13.6972065,-5.852585316,2024-06-11 14:04:26.762817
54.80331187,4.928702354,-2.154405117,-4.307594299,2024-06-11 14:04:26.803312
54.84373817,3.283216953,-0.2926211357,-4.579379082,2024-06-11 14:04:26.843738
54.88426739,-0.2688026428,-4.870541096,-4.473467827,2024-06-11 14:04:26.884267
54.9247963,1.161464214,-0.1450605392,1.893950462,2024-06-11 14:04:26.924796
54.96529333,-2.45750618,-0.345310688,1.192996383,2024-06-11 14:04:26.965293
55.0057438,-0.3273048401,0.8700428009,-4.83513689,2024-06-11 14:04:27.005744
55.04621057,1.360354424,2.255449295,-1.867269039,2024-06-11 14:04:27.046211
55.08667208,0.2084307671,-1.601107597,0.9484292269,2024-06-11 14:04:27.086672
55.12714484,2.564700127,-1.902534962,0.4734352827,2024-06-11 14:04:27.127145
55.16765635,0.03011703491,-0.2850251198,-1.982574224,2024-06-11 14:04:27.167656
55.20814744,-0.2437434196,0.3242936134,-5.327605247,2024-06-11 14:04:27.208147
55.2486439,-2.13816309,0.3726243973,-1.601180911,2024-06-11 14:04:27.248644
55.28912874,0.2881631851,-0.6910433769,-1.293028474,2024-06-11 14:04:27.289129
55.32961286,-0.1817865372,-0.8755750656,-3.014038324,2024-06-11 14:04:27.329613
55.3701526,0.629986763,-0.4176974297,0.02026247978,2024-06-11 14:04:27.370153
55.41057083,0.09998083115,-2.01129055,1.277156115,2024-06-11 14:04:27.410571
55.4510502,-0.5542778969,-1.489680767,4.566947937,2024-06-11 14:04:27.451050
55.49158244,0.7754893303,1.183537006,0.7797048092,2024-06-11 14:04:27.491582
55.53205322,-0.1415529251,1.164894104,3.499644041,2024-06-11 14:04:27.532053
55.572529,-4.093289852,0.8279075623,1.0186131,2024-06-11 14:04:27.572529
55.61301359,0.6999645233,1.661118507,2.341562986,2024-06-11 14:04:27.613014
55.65350317,4.022795677,1.54740572,-2.614814997,2024-06-11 14:04:27.653503
55.69398432,2.401648045,0.855717659,-0.5650811195,2024-06-11 14:04:27.693984
55.73446473,1.720987797,-0.1660037041,0.1249444485,2024-06-11 14:04:27.734465
55.77501775,1.366035461,-0.3407063484,0.5008437634,2024-06-11 14:04:27.775018
55.81543791,0.4755687714,-1.069261551,2.75167942,2024-06-11 14:04:27.815438
55.85592249,0.5320382118,-0.9682865143,2.357775211,2024-06-11 14:04:27.855922
55.89645703,0.4508018494,0.2160730362,1.521490216,2024-06-11 14:04:27.896457
55.93686109,-0.06216812134,1.126744747,2.301490307,2024-06-11 14:04:27.936861
55.97738541,-2.69870472,2.286969185,1.536555529,2024-06-11 14:04:27.977385
56.01783729,-3.568514347,-0.5711216927,0.1962421536,2024-06-11 14:04:28.017837
56.05835489,-1.100617886,-3.331806183,2.490314245,2024-06-11 14:04:28.058355
56.09883984,2.374032021,1.85431385,4.586593628,2024-06-11 14:04:28.098840
56.13931801,0.6976399422,2.63617897,-4.237490177,2024-06-11 14:04:28.139318
56.17980557,-1.326363564,1.093514919,-4.183232307,2024-06-11 14:04:28.179806
56.22027947,-2.565730572,-0.2919678688,-0.154625088,2024-06-11 14:04:28.220279
56.2607789,-0.9510579109,0.7294001579,0.525800705,2024-06-11 14:04:28.260779
56.30124301,-0.11480093,1.220174313,1.514459848,2024-06-11 14:04:28.301243
56.34170588,-1.13019228,0.3399262428,0.287876904,2024-06-11 14:04:28.341706
56.38224859,-0.07767534256,1.120924473,-1.215715885,2024-06-11 14:04:28.382249
56.42266989,0.7624750137,0.7368540764,-0.03141415119,2024-06-11 14:04:28.422670
56.46319338,0.04303884506,0.2573695183,-0.8995240927,2024-06-11 14:04:28.463193
56.50369859,-0.9894127846,0.6476135254,0.9358466268,2024-06-11 14:04:28.503699
56.54415968,-0.3666906357,0.105442524,3.260958672,2024-06-11 14:04:28.544160
56.58463609,-0.1599450111,-0.0909781456,3.955674887,2024-06-11 14:04:28.584636
56.62512041,-1.448206902,0.5740594864,2.778534412,2024-06-11 14:04:28.625120
56.6655865,-1.140993118,0.09426546097,1.868039846,2024-06-11 14:04:28.665587
56.70602484,-2.510297775,0.3515148163,-0.388582468,2024-06-11 14:04:28.706025
56.74656911,-5.937630653,-0.009850025177,-2.444715977,2024-06-11 14:04:28.746569
56.78705176,-3.608158112,0.006908416748,0.2274458855,2024-06-11 14:04:28.787052
56.82753281,3.20388937,-1.536975384,6.893872738,2024-06-11 14:04:28.827533
56.86801359,-0.4037938118,-2.297067165,-2.407257557,2024-06-11 14:04:28.868014
56.90850072,0.3557448387,-0.6180272102,-7.706640244,2024-06-11 14:04:28.908501
56.94900119,0.3689551353,-2.8922472,-8.505241394,2024-06-11 14:04:28.949001
56.98946994,0.7437343597,-4.002020359,-7.896876335,2024-06-11 14:04:28.989470
57.02994874,1.013206005,1.560074329,-2.730622292,2024-06-11 14:04:29.029949
57.07045359,-1.626925945,1.64065361,1.445875168,2024-06-11 14:04:29.070454
57.11093791,-1.928460121,-1.316979408,-1.281831503,2024-06-11 14:04:29.110938
57.15142505,-1.238386154,-3.484832287,5.24711895,2024-06-11 14:04:29.151425
57.19190572,4.529691219,0.9966526031,-1.42856741,2024-06-11 14:04:29.191906
57.23237947,1.287139893,-1.337653637,-1.506345749,2024-06-11 14:04:29.232379
57.27285624,-1.215126514,-0.5494198799,1.616201878,2024-06-11 14:04:29.272856
57.31334525,0.7828216553,2.810187817,-4.574724197,2024-06-11 14:04:29.313345
57.35380822,-1.253575325,4.541275024,-4.821978092,2024-06-11 14:04:29.353808
57.39428369,-0.6344413757,2.597762585,-2.621129036,2024-06-11 14:04:29.394284
57.43478385,0.7438020706,0.6443572044,-0.813554287,2024-06-11 14:04:29.434784
57.47530479,1.321846962,-0.008950710297,0.691845417,2024-06-11 14:04:29.475305
57.51575166,1.196552753,-0.4295406342,0.2520649433,2024-06-11 14:04:29.515752
57.55620848,-1.835534096,-5.138317585,-0.5091072321,2024-06-11 14:04:29.556208
57.59668364,-8.753948212,-10.50940704,9.018817902,2024-06-11 14:04:29.596684
57.63720765,6.968515396,2.098361015,0.6117579937,2024-06-11 14:04:29.637208
57.67768796,5.658892632,5.542403221,-4.972342491,2024-06-11 14:04:29.677688
57.71817213,-1.431910515,2.93302393,-4.90467453,2024-06-11 14:04:29.718172
57.75866551,-4.369830608,-2.526355743,-2.511695147,2024-06-11 14:04:29.758666
57.79914609,-0.8650612831,-1.174127102,6.796499252,2024-06-11 14:04:29.799146
57.83959744,-0.005608081818,-0.346262455,-2.171702623,2024-06-11 14:04:29.839597
57.88012458,0.9318876266,0.4263358116,-2.673248053,2024-06-11 14:04:29.880125
57.92062765,2.414450169,-1.352723598,-1.153351784,2024-06-11 14:04:29.920628
57.96110854,-0.2225933075,-0.7986040115,1.329219222,2024-06-11 14:04:29.961109
58.00156989,-2.06752634,0.7102780342,2.101623058,2024-06-11 14:04:30.001570
58.04207812,-0.412334919,0.5022439957,1.14790225,2024-06-11 14:04:30.042078
58.08254541,0.7183599472,-0.6080579758,-1.300055027,2024-06-11 14:04:30.082545
58.12301624,0.4755764008,0.01467037201,-0.5227071643,2024-06-11 14:04:30.123016
58.16352484,-0.3417301178,0.4648890495,-0.2690812945,2024-06-11 14:04:30.163525
58.20401156,-0.6942243576,0.5579066277,-0.6496008635,2024-06-11 14:04:30.204012
58.2444926,-0.3114676476,0.3260545731,-1.344396353,2024-06-11 14:04:30.244493
58.28501551,0.07777309418,-0.04808473587,-0.7512853146,2024-06-11 14:04:30.285016
58.32543697,-0.8733663559,0.2422375679,-0.331936419,2024-06-11 14:04:30.325437
58.36592307,-0.3041305542,0.9019832611,-0.2512965798,2024-06-11 14:04:30.365923
58.40640609,-0.001247882843,-0.6637716293,-0.05455905199,2024-06-11 14:04:30.406406
58.44686801,1.11198473,-0.7864575386,0.4313943386,2024-06-11 14:04:30.446868
58.48740338,0.7785181999,-0.5091142654,-0.1832377613,2024-06-11 14:04:30.487403
58.52788551,0.04602861404,0.2087421417,-1.859104276,2024-06-11 14:04:30.527886
58.568379,-0.09843254089,0.2053818703,-1.54772687,2024-06-11 14:04:30.568379
58.6088638,0.2603211403,0.1274223328,-0.6199325323,2024-06-11 14:04:30.608864
58.64932781,0.06935596466,0.1377968788,-1.110340118,2024-06-11 14:04:30.649328
58.6898177,-0.6099896431,0.6901011467,-2.17219615,2024-06-11 14:04:30.689818
58.73030567,-1.156591415,0.4745392799,-3.013905525,2024-06-11 14:04:30.730306
58.77077192,0.08038330078,-0.5263295174,-2.107797384,2024-06-11 14:04:30.770772
58.81125411,1.099393845,-0.750231266,-1.003399014,2024-06-11 14:04:30.811254
58.85171265,-0.2099833488,1.363377094,2.044658899,2024-06-11 14:04:30.851713
58.89221369,-1.9321661,2.349818707,-4.032440662,2024-06-11 14:04:30.892214
58.9327239,-2.537213326,1.516718388,-6.657818317,2024-06-11 14:04:30.932724
58.97320645,-0.2999572754,-0.358080864,-2.1025033,2024-06-11 14:04:30.973206
59.01365817,0.1518788338,-2.926875591,1.85163188,2024-06-11 14:04:31.013658
59.05415874,1.286036015,-2.499615669,3.567115545,2024-06-11 14:04:31.054159
59.0946613,1.204522133,-2.664468765,5.448646545,2024-06-11 14:04:31.094661
59.13517822,-0.6961627007,-1.80944252,5.654123306,2024-06-11 14:04:31.135178
59.17556864,1.26777029,1.673794746,1.338144302,2024-06-11 14:04:31.175569
59.21607062,0.9678907394,3.246368885,-0.8879005909,2024-06-11 14:04:31.216071
59.25653817,1.902791023,2.476070881,-1.491820812,2024-06-11 14:04:31.256538
59.29702255,2.422317982,0.6693601608,-2.928142071,2024-06-11 14:04:31.297023
59.33756718,1.28012228,0.7040467262,-1.492940307,2024-06-11 14:04:31.337567
59.37805161,-1.646662712,-0.08562231064,0.3660152555,2024-06-11 14:04:31.378052
59.41850822,0.4131441116,-2.132540226,1.026393652,2024-06-11 14:04:31.418508
59.45902228,1.136508942,-1.482831955,2.67068243,2024-06-11 14:04:31.459022
59.49953572,-0.9529981613,-0.7384152412,2.758269072,2024-06-11 14:04:31.499536
59.53999312,-1.780373096,0.2633829117,1.552142024,2024-06-11 14:04:31.539993
59.58047166,-0.2461957932,-1.288808823,4.890005112,2024-06-11 14:04:31.580472
59.62095609,-2.993691444,-0.7965831757,7.284879684,2024-06-11 14:04:31.620956
59.66143744,-2.870485306,0.0471329689,3.363717556,2024-06-11 14:04:31.661437
59.70191244,-1.577980042,0.5982756615,-1.174554229,2024-06-11 14:04:31.701912
59.74241213,-0.9838752747,0.9972195625,-2.628982782,2024-06-11 14:04:31.742412
59.78291546,-0.5778169632,0.7070975304,-1.266359925,2024-06-11 14:04:31.782915
59.82336255,0.3179583549,0.7630162239,-2.114268303,2024-06-11 14:04:31.823363
59.86385952,0.07829236984,0.2044997215,-1.608941793,2024-06-11 14:04:31.863860
59.90434114,-1.046946049,0.2167258263,0.5557472706,2024-06-11 14:04:31.904341
59.94483723,0.3499646187,0.03449010849,-0.874699831,2024-06-11 14:04:31.944837
59.98533708,0.3705611229,-1.258513927,-1.292026162,2024-06-11 14:04:31.985337
60.0258215,0.03499555588,-1.67976284,0.558308363,2024-06-11 14:04:32.025821
60.06622307,2.631616592,2.870227575,3.082951307,2024-06-11 14:04:32.066223
60.1067064,6.857583523,3.78885746,1.575504065,2024-06-11 14:04:32.106706
60.14721202,1.98098278,0.7496447563,-4.487005234,2024-06-11 14:04:32.147212
60.18773968,-3.119112492,-4.828332901,-8.400509834,2024-06-11 14:04:32.187740
60.22821926,-10.56044388,-9.525547028,18.04409027,2024-06-11 14:04:32.228219
60.26868937,10.50270748,-4.545529842,-9.763788223,2024-06-11 14:04:32.268689
60.30916786,9.625118256,-2.543725491,-0.1945195198,2024-06-11 14:04:32.309168
60.34966661,-5.471022606,0.6606414318,-4.341741562,2024-06-11 14:04:32.349667
60.39014051,0.6939153671,5.18277359,2.220292568,2024-06-11 14:04:32.390141
60.43061468,1.657616615,3.734436274,0.160264492,2024-06-11 14:04:32.430615
60.47112452,2.510106802,2.293515921,-3.55505991,2024-06-11 14:04:32.471125
60.51161406,5.608997345,-6.272015572,2.064764023,2024-06-11 14:04:32.511614
60.55208869,3.77779007,-4.477924824,-3.888329744,2024-06-11 14:04:32.552089
60.59258916,-8.870240211,-11.91962433,21.006073,2024-06-11 14:04:32.592589
60.63306744,0.603951931,-4.170536995,-5.227030754,2024-06-11 14:04:32.633067
60.67355557,1.836890697,0.4322462082,-7.79309988,2024-06-11 14:04:32.673556
60.71405624,-1.314581871,1.2454772,-9.227026939,2024-06-11 14:04:32.714056
60.75451104,-11.67749691,-2.562351704,0.6887000799,2024-06-11 14:04:32.754511
60.79501104,-8.274188995,-7.572256088,0.126906395,2024-06-11 14:04:32.795011
60.83551328,0.2730531693,-2.403673172,-0.2690885067,2024-06-11 14:04:32.835513
60.87599791,4.262335777,2.64652729,0.762567997,2024-06-11 14:04:32.875998
60.91645671,7.079325676,5.995840073,-2.388635159,2024-06-11 14:04:32.916457
60.95688968,6.709319115,7.544322968,-4.586167336,2024-06-11 14:04:32.956890
60.99739656,5.37500906,7.686447144,-5.291799545,2024-06-11 14:04:32.997397
61.03788604,3.809024096,7.999473095,-1.071289778,2024-06-11 14:04:33.037886
61.07838249,-2.954380989,2.676427841,4.930372238,2024-06-11 14:04:33.078382
61.11887984,-10.65159988,-7.524817944,-1.974802852,2024-06-11 14:04:33.118880
61.15934578,1.648037195,-7.115228176,3.330959797,2024-06-11 14:04:33.159346
61.19984109,-1.588984489,-1.696611404,0.36510849,2024-06-11 14:04:33.199841
61.24032729,1.015023947,2.70857811,4.340641022,2024-06-11 14:04:33.240327
61.28079333,1.338925838,1.500319481,1.274222493,2024-06-11 14:04:33.280793
61.32127176,-1.186860085,0.1185836792,-2.688469887,2024-06-11 14:04:33.321272
61.36175671,-3.499881744,-0.5536518097,-0.9851158857,2024-06-11 14:04:33.361757
61.4022551,0.3937540054,1.529953957,-3.679243088,2024-06-11 14:04:33.402255
61.44273416,-1.266253471,-0.5111227036,-2.234880924,2024-06-11 14:04:33.442734
61.48324192,-2.413658619,-1.167181969,0.03080832958,2024-06-11 14:04:33.483242
61.52370109,-0.119553566,1.190901756,-3.932748318,2024-06-11 14:04:33.523701
61.56417619,-2.199380398,1.943088531,-2.626253843,2024-06-11 14:04:33.564176
61.60466578,-2.728986263,1.941418648,0.7795847654,2024-06-11 14:04:33.604666
61.64518208,-0.333234787,-0.1885108948,-0.9552243948,2024-06-11 14:04:33.645182
61.68563666,0.5968661308,0.2081604004,-2.927874565,2024-06-11 14:04:33.685637
61.72614041,-0.7648506165,-1.169550419,-3.065981865,2024-06-11 14:04:33.726140
61.76664572,0.1868629456,-1.656149864,-0.7615395188,2024-06-11 14:04:33.766646
61.80712978,2.456406593,-0.2866373062,-0.07072985172,2024-06-11 14:04:33.807130
61.84752364,2.260110378,-2.475835323,1.348536849,2024-06-11 14:04:33.847524
61.8880927,2.661154985,-2.158164978,-1.869532943,2024-06-11 14:04:33.888093
61.92854333,2.058753967,-2.425384521,-3.486871719,2024-06-11 14:04:33.928543
61.96902452,2.143017769,-2.141288757,-4.58656168,2024-06-11 14:04:33.969025
62.00951036,1.508117676,-2.009353638,-4.749337673,2024-06-11 14:04:34.009510
62.05000708,1.199572563,-0.9229245186,-5.457295895,2024-06-11 14:04:34.050007
62.09048025,0.2174448967,-0.5474619865,-6.328005314,2024-06-11 14:04:34.090480
62.13096213,-1.287785053,-0.6897501945,-5.269492149,2024-06-11 14:04:34.130962
62.17147114,-0.6226992607,-2.235933304,3.487828255,2024-06-11 14:04:34.171471
62.21193947,1.418148518,-4.268603802,-2.05676651,2024-06-11 14:04:34.211939
62.25241822,-1.187517166,-0.5723862648,-5.498369694,2024-06-11 14:04:34.252418
62.29288953,-5.034466267,0.5558991432,-2.416908026,2024-06-11 14:04:34.292890
62.33337786,-7.200920582,2.228246689,1.798820019,2024-06-11 14:04:34.333378
