Time (s),Acceleration x (m/s^2),Acceleration y (m/s^2),Acceleration z (m/s^2),Datetime
0.002775058,-4.740779877,5.92642355,6.369693756,2024-06-05 15:54:27.002775
0.022760371,-4.666303158,6.017350674,6.671488762,2024-06-05 15:54:27.022760
0.062760371,0.0,0.0,0.0,2024-06-05 15:54:27.062760
0.102760371,0.0,0.0,0.0,2024-06-05 15:54:27.102760
0.142760371,0.0,0.0,0.0,2024-06-05 15:54:27.142760
0.142760371,-4.285545349,5.212464809,7.699205875,2024-06-05 15:54:27.142760
0.222760371,-4.285545349,5.212464809,7.699205875,2024-06-05 15:54:27.222760
0.262760371,-4.285545349,5.212464809,7.699205875,2024-06-05 15:54:27.262760
0.302760371,-4.285545349,5.212464809,7.699205875,2024-06-05 15:54:27.302760
0.342760371,-4.285545349,5.212464809,7.699205875,2024-06-05 15:54:27.342760
0.382760371,-4.285545349,5.212464809,7.699205875,2024-06-05 15:54:27.382760
0.422760371,-2.910569668,5.803193092,6.36251545,2024-06-05 15:54:27.422760
0.462760371,-2.910569668,5.803193092,6.36251545,2024-06-05 15:54:27.462760
0.502760371,-2.910569668,5.803193092,6.36251545,2024-06-05 15:54:27.502760
0.542760371,-2.910569668,5.803193092,6.36251545,2024-06-05 15:54:27.542760
0.582760371,-2.910569668,5.803193092,6.36251545,2024-06-05 15:54:27.582760
0.622760371,-2.910569668,5.803193092,6.36251545,2024-06-05 15:54:27.622760
0.662760371,-2.910569668,5.803193092,6.36251545,2024-06-05 15:54:27.662760
0.702760371,-2.910569668,5.803193092,6.36251545,2024-06-05 15:54:27.702760
0.742760371,-2.910569668,5.803193092,6.36251545,2024-06-05 15:54:27.742760
0.782760371,-2.910569668,5.803193092,6.36251545,2024-06-05 15:54:27.782760
0.822760371,-2.910569668,5.803193092,6.36251545,2024-06-05 15:54:27.822760
0.862760371,-2.910569668,5.803193092,6.36251545,2024-06-05 15:54:27.862760
0.902760371,-2.910569668,5.803193092,6.36251545,2024-06-05 15:54:27.902760
0.942760371,-2.910569668,5.803193092,6.36251545,2024-06-05 15:54:27.942760
0.982760371,-2.910569668,5.803193092,6.36251545,2024-06-05 15:54:27.982760
1.022760371,-2.910569668,5.803193092,6.36251545,2024-06-05 15:54:28.022760
1.062760371,-2.910569668,5.803193092,6.36251545,2024-06-05 15:54:28.062760
1.102760371,-1.970190287,3.257827997,8.424829483,2024-06-05 15:54:28.102760
1.142760371,-1.83619225,3.226721287,9.395118713,2024-06-05 15:54:28.142760
1.182760371,-2.293819666,2.644667149,9.387940407,2024-06-05 15:54:28.182760
1.222760371,-2.293819666,2.644667149,9.387940407,2024-06-05 15:54:28.222760
1.262760371,-2.293819666,2.644667149,9.387940407,2024-06-05 15:54:28.262760
1.302760371,-2.293819666,2.644667149,9.387940407,2024-06-05 15:54:28.302760
1.342760371,-2.293819666,2.644667149,9.387940407,2024-06-05 15:54:28.342760
1.382760371,-2.293819666,2.644667149,9.387940407,2024-06-05 15:54:28.382760
1.422760371,-2.472084999,3.060121059,7.395018578,2024-06-05 15:54:28.422760
1.462760371,-2.472084999,3.060121059,7.395018578,2024-06-05 15:54:28.462760
1.502760371,-2.472084999,3.060121059,7.395018578,2024-06-05 15:54:28.502760
1.542760371,-2.472084999,3.060121059,7.395018578,2024-06-05 15:54:28.542760
1.582760371,-2.472084999,3.060121059,7.395018578,2024-06-05 15:54:28.582760
1.622760371,-2.472084999,3.060121059,7.395018578,2024-06-05 15:54:28.622760
1.662760371,-2.472084999,3.060121059,7.395018578,2024-06-05 15:54:28.662760
1.702760371,-2.472084999,3.060121059,7.395018578,2024-06-05 15:54:28.702760
1.742760371,-6.543173313,2.084148407,8.09312439,2024-06-05 15:54:28.742760
1.782760371,-6.307480335,1.787139416,8.269295692,2024-06-05 15:54:28.782760
1.822760371,-6.307480335,1.787139416,8.269295692,2024-06-05 15:54:28.822760
1.862760371,-6.307480335,1.787139416,8.269295692,2024-06-05 15:54:28.862760
1.902760371,-6.307480335,1.787139416,8.269295692,2024-06-05 15:54:28.902760
1.942760371,-6.307480335,1.787139416,8.269295692,2024-06-05 15:54:28.942760
1.982760371,-6.307480335,1.787139416,8.269295692,2024-06-05 15:54:28.982760
2.022760371,-6.307480335,1.787139416,8.269295692,2024-06-05 15:54:29.022760
2.062760371,-6.307480335,1.787139416,8.269295692,2024-06-05 15:54:29.062760
2.102760371,-6.307480335,1.787139416,8.269295692,2024-06-05 15:54:29.102760
2.142760371,-6.307480335,1.787139416,8.269295692,2024-06-05 15:54:29.142760
2.182760371,-6.307480335,1.787139416,8.269295692,2024-06-05 15:54:29.182760
2.222760371,-6.307480335,1.787139416,8.269295692,2024-06-05 15:54:29.222760
2.262760371,-6.307480335,1.787139416,8.269295692,2024-06-05 15:54:29.262760
2.302760371,-6.307480335,1.787139416,8.269295692,2024-06-05 15:54:29.302760
2.342760371,-6.307480335,1.787139416,8.269295692,2024-06-05 15:54:29.342760
2.382760371,-6.307480335,1.787139416,8.269295692,2024-06-05 15:54:29.382760
2.422760371,-17.11705589,-8.687142372,-3.757329702,2024-06-05 15:54:29.422760
2.462760371,-17.11705589,-8.687142372,-3.757329702,2024-06-05 15:54:29.462760
2.502760371,-17.11705589,-8.687142372,-3.757329702,2024-06-05 15:54:29.502760
2.542760371,-17.11705589,-8.687142372,-3.757329702,2024-06-05 15:54:29.542760
2.582760371,-17.11705589,-8.687142372,-3.757329702,2024-06-05 15:54:29.582760
2.622760371,-17.11705589,-8.687142372,-3.757329702,2024-06-05 15:54:29.622760
2.662760371,-17.11705589,-8.687142372,-3.757329702,2024-06-05 15:54:29.662760
2.702760371,-17.11705589,-8.687142372,-3.757329702,2024-06-05 15:54:29.702760
2.742760371,-17.11705589,-8.687142372,-3.757329702,2024-06-05 15:54:29.742760
2.782760371,-17.11705589,-8.687142372,-3.757329702,2024-06-05 15:54:29.782760
2.822760371,-17.11705589,-8.687142372,-3.757329702,2024-06-05 15:54:29.822760
2.862760371,-17.11705589,-8.687142372,-3.757329702,2024-06-05 15:54:29.862760
2.902760371,-17.11705589,-8.687142372,-3.757329702,2024-06-05 15:54:29.902760
2.942760371,-17.11705589,-8.687142372,-3.757329702,2024-06-05 15:54:29.942760
2.982760371,-17.11705589,-8.687142372,-3.757329702,2024-06-05 15:54:29.982760
3.022760371,-17.11705589,-8.687142372,-3.757329702,2024-06-05 15:54:30.022760
3.062760371,-17.11705589,-8.687142372,-3.757329702,2024-06-05 15:54:30.062760
3.102760371,-17.11705589,-8.687142372,-3.757329702,2024-06-05 15:54:30.102760
3.142760371,-17.11705589,-8.687142372,-3.757329702,2024-06-05 15:54:30.142760
3.182760371,-5.652146339,-6.857231617,4.686941147,2024-06-05 15:54:30.182760
3.222760371,-5.652146339,-6.857231617,4.686941147,2024-06-05 15:54:30.222760
3.262760371,-5.652146339,-6.857231617,4.686941147,2024-06-05 15:54:30.262760
3.302760371,-5.652146339,-6.857231617,4.686941147,2024-06-05 15:54:30.302760
3.342760371,-5.652146339,-6.857231617,4.686941147,2024-06-05 15:54:30.342760
3.382760371,-5.652146339,-6.857231617,4.686941147,2024-06-05 15:54:30.382760
3.422760371,-1.645663738,-15.17916965,0.9750752449,2024-06-05 15:54:30.422760
3.462760371,-1.645663738,-15.17916965,0.9750752449,2024-06-05 15:54:30.462760
3.502760371,-1.645663738,-15.17916965,0.9750752449,2024-06-05 15:54:30.502760
3.542760371,-1.645663738,-15.17916965,0.9750752449,2024-06-05 15:54:30.542760
3.582760371,-0.5784648657,-9.112466812,0.879063189,2024-06-05 15:54:30.582760
3.622760371,-0.5784648657,-9.112466812,0.879063189,2024-06-05 15:54:30.622760
3.662760371,-0.5784648657,-9.112466812,0.879063189,2024-06-05 15:54:30.662760
3.702760371,-0.5784648657,-9.112466812,0.879063189,2024-06-05 15:54:30.702760
3.742760371,-0.5784648657,-9.112466812,0.879063189,2024-06-05 15:54:30.742760
3.782760371,-0.5784648657,-9.112466812,0.879063189,2024-06-05 15:54:30.782760
3.822760371,-0.5784648657,-9.112466812,0.879063189,2024-06-05 15:54:30.822760
3.862760371,-0.5784648657,-9.112466812,0.879063189,2024-06-05 15:54:30.862760
3.902760371,-0.5784648657,-9.112466812,0.879063189,2024-06-05 15:54:30.902760
3.942760371,-0.5784648657,-9.112466812,0.879063189,2024-06-05 15:54:30.942760
3.982760371,-0.5784648657,-9.112466812,0.879063189,2024-06-05 15:54:30.982760
4.022760371,-0.5784648657,-9.112466812,0.879063189,2024-06-05 15:54:31.022760
4.062760371,-0.5784648657,-9.112466812,0.879063189,2024-06-05 15:54:31.062760
4.102760371,-0.5784648657,-9.112466812,0.879063189,2024-06-05 15:54:31.102760
4.142760371,-0.5784648657,-9.112466812,0.879063189,2024-06-05 15:54:31.142760
4.182760371,-0.5784648657,-9.112466812,0.879063189,2024-06-05 15:54:31.182760
4.222760371,-0.5784648657,-9.112466812,0.879063189,2024-06-05 15:54:31.222760
4.262760371,-0.5784648657,-9.112466812,0.879063189,2024-06-05 15:54:31.262760
4.302760371,-0.5784648657,-9.112466812,0.879063189,2024-06-05 15:54:31.302760
4.342760371,-0.5784648657,-9.112466812,0.879063189,2024-06-05 15:54:31.342760
4.382760371,-0.5784648657,-9.112466812,0.879063189,2024-06-05 15:54:31.382760
4.422760371,-5.449653625,-10.87926769,4.580161572,2024-06-05 15:54:31.422760
4.462760371,-5.449653625,-10.87926769,4.580161572,2024-06-05 15:54:31.462760
4.502760371,-5.449653625,-10.87926769,4.580161572,2024-06-05 15:54:31.502760
4.542760371,-5.449653625,-10.87926769,4.580161572,2024-06-05 15:54:31.542760
4.582760371,-5.449653625,-10.87926769,4.580161572,2024-06-05 15:54:31.582760
4.622760371,-5.449653625,-10.87926769,4.580161572,2024-06-05 15:54:31.622760
4.662760371,-5.449653625,-10.87926769,4.580161572,2024-06-05 15:54:31.662760
4.702760371,-5.449653625,-10.87926769,4.580161572,2024-06-05 15:54:31.702760
4.742760371,-5.449653625,-10.87926769,4.580161572,2024-06-05 15:54:31.742760
4.782760371,-5.449653625,-10.87926769,4.580161572,2024-06-05 15:54:31.782760
4.822760371,-5.449653625,-10.87926769,4.580161572,2024-06-05 15:54:31.822760
4.862760371,-5.449653625,-10.87926769,4.580161572,2024-06-05 15:54:31.862760
4.902760371,-5.449653625,-10.87926769,4.580161572,2024-06-05 15:54:31.902760
4.942760371,-5.449653625,-10.87926769,4.580161572,2024-06-05 15:54:31.942760
4.982760371,-5.449653625,-10.87926769,4.580161572,2024-06-05 15:54:31.982760
5.022760371,-5.449653625,-10.87926769,4.580161572,2024-06-05 15:54:32.022760
5.062760371,-5.449653625,-10.87926769,4.580161572,2024-06-05 15:54:32.062760
5.102760371,-5.449653625,-10.87926769,4.580161572,2024-06-05 15:54:32.102760
5.142760371,0.9197412133,-13.14287758,2.67338109,2024-06-05 15:54:32.142760
5.182760371,0.9197412133,-13.14287758,2.67338109,2024-06-05 15:54:32.182760
5.222760371,0.9197412133,-13.14287758,2.67338109,2024-06-05 15:54:32.222760
5.262760371,0.9197412133,-13.14287758,2.67338109,2024-06-05 15:54:32.262760
5.302760371,0.9197412133,-13.14287758,2.67338109,2024-06-05 15:54:32.302760
5.342760371,0.9197412133,-13.14287758,2.67338109,2024-06-05 15:54:32.342760
5.382760371,0.9197412133,-13.14287758,2.67338109,2024-06-05 15:54:32.382760
5.422760371,2.99551487,-3.972982883,-0.2934198678,2024-06-05 15:54:32.422760
5.462760371,2.99551487,-3.972982883,-0.2934198678,2024-06-05 15:54:32.462760
5.502760371,2.99551487,-3.972982883,-0.2934198678,2024-06-05 15:54:32.502760
5.542760371,2.99551487,-3.972982883,-0.2934198678,2024-06-05 15:54:32.542760
5.582760371,2.99551487,-3.972982883,-0.2934198678,2024-06-05 15:54:32.582760
5.622760371,2.99551487,-3.972982883,-0.2934198678,2024-06-05 15:54:32.622760
5.662760371,2.99551487,-3.972982883,-0.2934198678,2024-06-05 15:54:32.662760
5.702760371,2.99551487,-3.972982883,-0.2934198678,2024-06-05 15:54:32.702760
5.742760371,2.99551487,-3.972982883,-0.2934198678,2024-06-05 15:54:32.742760
5.782760371,2.99551487,-3.972982883,-0.2934198678,2024-06-05 15:54:32.782760
5.822760371,2.99551487,-3.972982883,-0.2934198678,2024-06-05 15:54:32.822760
5.862760371,2.99551487,-3.972982883,-0.2934198678,2024-06-05 15:54:32.862760
5.902760371,2.99551487,-3.972982883,-0.2934198678,2024-06-05 15:54:32.902760
5.942760371,2.99551487,-3.972982883,-0.2934198678,2024-06-05 15:54:32.942760
5.982760371,2.99551487,-3.972982883,-0.2934198678,2024-06-05 15:54:32.982760
6.022760371,2.99551487,-3.972982883,-0.2934198678,2024-06-05 15:54:33.022760
6.062760371,2.99551487,-3.972982883,-0.2934198678,2024-06-05 15:54:33.062760
6.102760371,2.99551487,-3.972982883,-0.2934198678,2024-06-05 15:54:33.102760
6.142760371,2.99551487,-3.972982883,-0.2934198678,2024-06-05 15:54:33.142760
6.182760371,-1.772782445,-13.27119255,5.374279499,2024-06-05 15:54:33.182760
6.222760371,-1.772782445,-13.27119255,5.374279499,2024-06-05 15:54:33.222760
6.262760371,-1.772782445,-13.27119255,5.374279499,2024-06-05 15:54:33.262760
6.302760371,-1.772782445,-13.27119255,5.374279499,2024-06-05 15:54:33.302760
6.342760371,-1.772782445,-13.27119255,5.374279499,2024-06-05 15:54:33.342760
6.382760371,-1.772782445,-13.27119255,5.374279499,2024-06-05 15:54:33.382760
6.422760371,-2.643470764,-8.28126049,-1.517647743,2024-06-05 15:54:33.422760
6.462760371,-2.643470764,-8.28126049,-1.517647743,2024-06-05 15:54:33.462760
6.502760371,-2.643470764,-8.28126049,-1.517647743,2024-06-05 15:54:33.502760
6.542760371,-2.643470764,-8.28126049,-1.517647743,2024-06-05 15:54:33.542760
6.582760371,-2.643470764,-8.28126049,-1.517647743,2024-06-05 15:54:33.582760
6.622760371,-2.643470764,-8.28126049,-1.517647743,2024-06-05 15:54:33.622760
6.662760371,-2.643470764,-8.28126049,-1.517647743,2024-06-05 15:54:33.662760
6.702760371,-2.643470764,-8.28126049,-1.517647743,2024-06-05 15:54:33.702760
6.742760371,-2.643470764,-8.28126049,-1.517647743,2024-06-05 15:54:33.742760
6.782760371,-2.409871578,-11.98594761,15.11067486,2024-06-05 15:54:33.782760
6.822760371,-2.409871578,-11.98594761,15.11067486,2024-06-05 15:54:33.822760
6.862760371,-2.409871578,-11.98594761,15.11067486,2024-06-05 15:54:33.862760
6.902760371,-2.409871578,-11.98594761,15.11067486,2024-06-05 15:54:33.902760
6.942760371,-2.409871578,-11.98594761,15.11067486,2024-06-05 15:54:33.942760
6.982760371,-2.409871578,-11.98594761,15.11067486,2024-06-05 15:54:33.982760
7.022760371,-2.409871578,-11.98594761,15.11067486,2024-06-05 15:54:34.022760
7.062760371,-2.409871578,-11.98594761,15.11067486,2024-06-05 15:54:34.062760
7.102760371,-2.409871578,-11.98594761,15.11067486,2024-06-05 15:54:34.102760
7.142760371,-2.409871578,-11.98594761,15.11067486,2024-06-05 15:54:34.142760
7.182760371,-2.409871578,-11.98594761,15.11067486,2024-06-05 15:54:34.182760
7.222760371,-2.409871578,-11.98594761,15.11067486,2024-06-05 15:54:34.222760
7.262760371,-2.409871578,-11.98594761,15.11067486,2024-06-05 15:54:34.262760
7.302760371,-2.409871578,-11.98594761,15.11067486,2024-06-05 15:54:34.302760
7.342760371,-2.409871578,-11.98594761,15.11067486,2024-06-05 15:54:34.342760
7.382760371,-2.409871578,-11.98594761,15.11067486,2024-06-05 15:54:34.382760
7.422760371,-2.409871578,-11.98594761,15.11067486,2024-06-05 15:54:34.422760
7.462760371,-2.409871578,-11.98594761,15.11067486,2024-06-05 15:54:34.462760
7.502760371,-2.409871578,-11.98594761,15.11067486,2024-06-05 15:54:34.502760
7.542760371,-2.409871578,-11.98594761,15.11067486,2024-06-05 15:54:34.542760
7.582760371,-2.409871578,-11.98594761,15.11067486,2024-06-05 15:54:34.582760
7.622760371,-2.409871578,-11.98594761,15.11067486,2024-06-05 15:54:34.622760
7.622760371,3.996911049,-3.027817965,-2.863909483,2024-06-05 15:54:34.622760
7.702760371,3.996911049,-3.027817965,-2.863909483,2024-06-05 15:54:34.702760
7.742760371,3.996911049,-3.027817965,-2.863909483,2024-06-05 15:54:34.742760
7.782760371,3.996911049,-3.027817965,-2.863909483,2024-06-05 15:54:34.782760
7.822760371,3.996911049,-3.027817965,-2.863909483,2024-06-05 15:54:34.822760
7.862760371,3.996911049,-3.027817965,-2.863909483,2024-06-05 15:54:34.862760
7.902760371,3.996911049,-3.027817965,-2.863909483,2024-06-05 15:54:34.902760
7.942760371,3.996911049,-3.027817965,-2.863909483,2024-06-05 15:54:34.942760
7.982760371,3.996911049,-3.027817965,-2.863909483,2024-06-05 15:54:34.982760
8.022760371,3.996911049,-3.027817965,-2.863909483,2024-06-05 15:54:35.022760
8.062760371,3.996911049,-3.027817965,-2.863909483,2024-06-05 15:54:35.062760
8.102760371,3.996911049,-3.027817965,-2.863909483,2024-06-05 15:54:35.102760
8.142760371,3.996911049,-3.027817965,-2.863909483,2024-06-05 15:54:35.142760
8.182760371,3.996911049,-3.027817965,-2.863909483,2024-06-05 15:54:35.182760
8.222760371,3.996911049,-3.027817965,-2.863909483,2024-06-05 15:54:35.222760
8.262760371,3.996911049,-3.027817965,-2.863909483,2024-06-05 15:54:35.262760
8.302760371,3.996911049,-3.027817965,-2.863909483,2024-06-05 15:54:35.302760
8.342760371,3.996911049,-3.027817965,-2.863909483,2024-06-05 15:54:35.342760
8.382760371,3.996911049,-3.027817965,-2.863909483,2024-06-05 15:54:35.382760
8.422760371,-1.044467092,-9.91017437,3.405285835,2024-06-05 15:54:35.422760
8.462760371,-1.044467092,-9.91017437,3.405285835,2024-06-05 15:54:35.462760
8.502760371,-1.044467092,-9.91017437,3.405285835,2024-06-05 15:54:35.502760
8.542760371,-1.044467092,-9.91017437,3.405285835,2024-06-05 15:54:35.542760
8.582760371,-1.044467092,-9.91017437,3.405285835,2024-06-05 15:54:35.582760
8.622760371,-1.044467092,-9.91017437,3.405285835,2024-06-05 15:54:35.622760
8.662760371,-1.044467092,-9.91017437,3.405285835,2024-06-05 15:54:35.662760
8.702760371,-1.044467092,-9.91017437,3.405285835,2024-06-05 15:54:35.702760
8.742760371,-1.044467092,-9.91017437,3.405285835,2024-06-05 15:54:35.742760
8.782760371,-1.044467092,-9.91017437,3.405285835,2024-06-05 15:54:35.782760
8.822760371,-1.044467092,-9.91017437,3.405285835,2024-06-05 15:54:35.822760
8.862760371,-1.044467092,-9.91017437,3.405285835,2024-06-05 15:54:35.862760
8.902760371,-1.044467092,-9.91017437,3.405285835,2024-06-05 15:54:35.902760
8.942760371,-1.044467092,-9.91017437,3.405285835,2024-06-05 15:54:35.942760
8.982760371,-1.044467092,-9.91017437,3.405285835,2024-06-05 15:54:35.982760
9.022760371,-1.044467092,-9.91017437,3.405285835,2024-06-05 15:54:36.022760
9.062760371,-1.044467092,-9.91017437,3.405285835,2024-06-05 15:54:36.062760
9.102760371,-1.044467092,-9.91017437,3.405285835,2024-06-05 15:54:36.102760
9.142760371,-1.044467092,-9.91017437,3.405285835,2024-06-05 15:54:36.142760
9.182760371,-1.044467092,-9.91017437,3.405285835,2024-06-05 15:54:36.182760
9.222760371,-1.044467092,-9.91017437,3.405285835,2024-06-05 15:54:36.222760
9.262760371,-1.044467092,-9.91017437,3.405285835,2024-06-05 15:54:36.262760
9.302760371,-1.044467092,-9.91017437,3.405285835,2024-06-05 15:54:36.302760
9.342760371,-1.044467092,-9.91017437,3.405285835,2024-06-05 15:54:36.342760
9.382760371,-1.044467092,-9.91017437,3.405285835,2024-06-05 15:54:36.382760
9.422760371,-2.991925716,-11.95244789,1.596610904,2024-06-05 15:54:36.422760
9.462760371,-2.991925716,-11.95244789,1.596610904,2024-06-05 15:54:36.462760
9.502760371,-2.991925716,-11.95244789,1.596610904,2024-06-05 15:54:36.502760
9.542760371,-2.991925716,-11.95244789,1.596610904,2024-06-05 15:54:36.542760
9.582760371,-2.991925716,-11.95244789,1.596610904,2024-06-05 15:54:36.582760
9.622760371,-2.991925716,-11.95244789,1.596610904,2024-06-05 15:54:36.622760
9.662760371,-2.991925716,-11.95244789,1.596610904,2024-06-05 15:54:36.662760
9.702760371,-2.991925716,-11.95244789,1.596610904,2024-06-05 15:54:36.702760
9.742760371,-2.991925716,-11.95244789,1.596610904,2024-06-05 15:54:36.742760
9.782760371,-2.991925716,-11.95244789,1.596610904,2024-06-05 15:54:36.782760
9.822760371,-2.991925716,-11.95244789,1.596610904,2024-06-05 15:54:36.822760
9.862760371,-2.991925716,-11.95244789,1.596610904,2024-06-05 15:54:36.862760
9.902760371,-2.991925716,-11.95244789,1.596610904,2024-06-05 15:54:36.902760
9.942760371,-2.991925716,-11.95244789,1.596610904,2024-06-05 15:54:36.942760
9.982760371,-2.991925716,-11.95244789,1.596610904,2024-06-05 15:54:36.982760
10.02276037,-2.991925716,-11.95244789,1.596610904,2024-06-05 15:54:37.022760
10.06276037,-2.991925716,-11.95244789,1.596610904,2024-06-05 15:54:37.062760
10.10276037,-2.991925716,-11.95244789,1.596610904,2024-06-05 15:54:37.102760
10.14276037,-2.991925716,-11.95244789,1.596610904,2024-06-05 15:54:37.142760
10.18276037,-6.459424496,-11.71286678,2.678166628,2024-06-05 15:54:37.182760
10.22276037,-6.459424496,-11.71286678,2.678166628,2024-06-05 15:54:37.222760
10.26276037,-6.459424496,-11.71286678,2.678166628,2024-06-05 15:54:37.262760
10.30276037,-6.459424496,-11.71286678,2.678166628,2024-06-05 15:54:37.302760
10.34276037,-6.459424496,-11.71286678,2.678166628,2024-06-05 15:54:37.342760
10.38276037,-6.459424496,-11.71286678,2.678166628,2024-06-05 15:54:37.382760
10.42276037,-2.395514488,-11.14397335,2.924926519,2024-06-05 15:54:37.422760
10.46276037,-2.395514488,-11.14397335,2.924926519,2024-06-05 15:54:37.462760
10.50276037,-2.395514488,-11.14397335,2.924926519,2024-06-05 15:54:37.502760
10.54276037,-2.395514488,-11.14397335,2.924926519,2024-06-05 15:54:37.542760
10.58276037,-2.395514488,-11.14397335,2.924926519,2024-06-05 15:54:37.582760
10.62276037,-2.395514488,-11.14397335,2.924926519,2024-06-05 15:54:37.622760
10.66276037,-2.395514488,-11.14397335,2.924926519,2024-06-05 15:54:37.662760
10.70276037,-2.395514488,-11.14397335,2.924926519,2024-06-05 15:54:37.702760
10.74276037,-2.395514488,-11.14397335,2.924926519,2024-06-05 15:54:37.742760
10.78276037,-2.395514488,-11.14397335,2.924926519,2024-06-05 15:54:37.782760
10.82276037,-2.395514488,-11.14397335,2.924926519,2024-06-05 15:54:37.822760
10.86276037,-2.395514488,-11.14397335,2.924926519,2024-06-05 15:54:37.862760
10.90276037,-2.395514488,-11.14397335,2.924926519,2024-06-05 15:54:37.902760
10.94276037,-2.395514488,-11.14397335,2.924926519,2024-06-05 15:54:37.942760
10.98276037,-2.395514488,-11.14397335,2.924926519,2024-06-05 15:54:37.982760
11.02276037,-2.395514488,-11.14397335,2.924926519,2024-06-05 15:54:38.022760
11.06276037,-2.395514488,-11.14397335,2.924926519,2024-06-05 15:54:38.062760
11.10276037,-2.395514488,-11.14397335,2.924926519,2024-06-05 15:54:38.102760
11.14276037,-2.395514488,-11.14397335,2.924926519,2024-06-05 15:54:38.142760
11.18276037,-2.395514488,-11.14397335,2.924926519,2024-06-05 15:54:38.182760
11.22276037,-2.395514488,-11.14397335,2.924926519,2024-06-05 15:54:38.222760
11.26276037,-2.395514488,-11.14397335,2.924926519,2024-06-05 15:54:38.262760
11.30276037,-2.395514488,-11.14397335,2.924926519,2024-06-05 15:54:38.302760
11.34276037,-2.395514488,-11.14397335,2.924926519,2024-06-05 15:54:38.342760
11.38276037,-2.395514488,-11.14397335,2.924926519,2024-06-05 15:54:38.382760
11.42276037,-1.054038405,-9.448957443,-0.09212367237,2024-06-05 15:54:38.422760
11.46276037,-1.054038405,-9.448957443,-0.09212367237,2024-06-05 15:54:38.462760
11.50276037,-1.054038405,-9.448957443,-0.09212367237,2024-06-05 15:54:38.502760
11.54276037,-1.054038405,-9.448957443,-0.09212367237,2024-06-05 15:54:38.542760
11.58276037,-1.054038405,-9.448957443,-0.09212367237,2024-06-05 15:54:38.582760
11.62276037,-1.054038405,-9.448957443,-0.09212367237,2024-06-05 15:54:38.622760
11.66276037,-1.054038405,-9.448957443,-0.09212367237,2024-06-05 15:54:38.662760
11.70276037,-1.054038405,-9.448957443,-0.09212367237,2024-06-05 15:54:38.702760
11.74276037,-1.054038405,-9.448957443,-0.09212367237,2024-06-05 15:54:38.742760
11.78276037,-1.054038405,-9.448957443,-0.09212367237,2024-06-05 15:54:38.782760
11.82276037,-1.054038405,-9.448957443,-0.09212367237,2024-06-05 15:54:38.822760
11.86276037,-1.054038405,-9.448957443,-0.09212367237,2024-06-05 15:54:38.862760
11.90276037,-1.054038405,-9.448957443,-0.09212367237,2024-06-05 15:54:38.902760
11.94276037,-1.054038405,-9.448957443,-0.09212367237,2024-06-05 15:54:38.942760
11.98276037,-1.054038405,-9.448957443,-0.09212367237,2024-06-05 15:54:38.982760
12.02276037,-1.054038405,-9.448957443,-0.09212367237,2024-06-05 15:54:39.022760
12.06276037,-1.054038405,-9.448957443,-0.09212367237,2024-06-05 15:54:39.062760
12.10276037,-1.054038405,-9.448957443,-0.09212367237,2024-06-05 15:54:39.102760
12.14276037,-1.054038405,-9.448957443,-0.09212367237,2024-06-05 15:54:39.142760
12.18276037,-1.054038405,-9.448957443,-0.09212367237,2024-06-05 15:54:39.182760
12.22276037,-1.054038405,-9.448957443,-0.09212367237,2024-06-05 15:54:39.222760
12.26276037,-1.054038405,-9.448957443,-0.09212367237,2024-06-05 15:54:39.262760
12.30276037,-1.054038405,-9.448957443,-0.09212367237,2024-06-05 15:54:39.302760
12.34276037,-1.054038405,-9.448957443,-0.09212367237,2024-06-05 15:54:39.342760
12.38276037,-1.054038405,-9.448957443,-0.09212367237,2024-06-05 15:54:39.382760
12.42276037,1.552343726,-8.760422707,-0.3664009571,2024-06-05 15:54:39.422760
12.46276037,1.552343726,-8.760422707,-0.3664009571,2024-06-05 15:54:39.462760
12.50276037,1.552343726,-8.760422707,-0.3664009571,2024-06-05 15:54:39.502760
12.54276037,1.552343726,-8.760422707,-0.3664009571,2024-06-05 15:54:39.542760
12.58276037,1.552343726,-8.760422707,-0.3664009571,2024-06-05 15:54:39.582760
12.62276037,1.552343726,-8.760422707,-0.3664009571,2024-06-05 15:54:39.622760
12.66276037,1.552343726,-8.760422707,-0.3664009571,2024-06-05 15:54:39.662760
12.70276037,1.552343726,-8.760422707,-0.3664009571,2024-06-05 15:54:39.702760
12.74276037,1.552343726,-8.760422707,-0.3664009571,2024-06-05 15:54:39.742760
12.78276037,1.552343726,-8.760422707,-0.3664009571,2024-06-05 15:54:39.782760
12.82276037,1.552343726,-8.760422707,-0.3664009571,2024-06-05 15:54:39.822760
12.86276037,1.552343726,-8.760422707,-0.3664009571,2024-06-05 15:54:39.862760
12.90276037,1.552343726,-8.760422707,-0.3664009571,2024-06-05 15:54:39.902760
12.94276037,1.552343726,-8.760422707,-0.3664009571,2024-06-05 15:54:39.942760
12.98276037,1.552343726,-8.760422707,-0.3664009571,2024-06-05 15:54:39.982760
13.02276037,1.552343726,-8.760422707,-0.3664009571,2024-06-05 15:54:40.022760
13.06276037,1.552343726,-8.760422707,-0.3664009571,2024-06-05 15:54:40.062760
13.10276037,1.552343726,-8.760422707,-0.3664009571,2024-06-05 15:54:40.102760
13.14276037,1.552343726,-8.760422707,-0.3664009571,2024-06-05 15:54:40.142760
13.18276037,5.380261898,-4.127319813,1.886441588,2024-06-05 15:54:40.182760
13.22276037,5.380261898,-4.127319813,1.886441588,2024-06-05 15:54:40.222760
13.26276037,5.380261898,-4.127319813,1.886441588,2024-06-05 15:54:40.262760
13.30276037,5.380261898,-4.127319813,1.886441588,2024-06-05 15:54:40.302760
13.34276037,5.380261898,-4.127319813,1.886441588,2024-06-05 15:54:40.342760
13.38276037,5.380261898,-4.127319813,1.886441588,2024-06-05 15:54:40.382760
13.42276037,-4.234099865,-9.635896683,8.704191208,2024-06-05 15:54:40.422760
13.46276037,-4.234099865,-9.635896683,8.704191208,2024-06-05 15:54:40.462760
13.50276037,-4.234099865,-9.635896683,8.704191208,2024-06-05 15:54:40.502760
13.54276037,-4.234099865,-9.635896683,8.704191208,2024-06-05 15:54:40.542760
13.58276037,-4.234099865,-9.635896683,8.704191208,2024-06-05 15:54:40.582760
13.62276037,-4.234099865,-9.635896683,8.704191208,2024-06-05 15:54:40.622760
13.66276037,-4.234099865,-9.635896683,8.704191208,2024-06-05 15:54:40.662760
13.70276037,-4.234099865,-9.635896683,8.704191208,2024-06-05 15:54:40.702760
13.74276037,-4.234099865,-9.635896683,8.704191208,2024-06-05 15:54:40.742760
13.78276037,-4.234099865,-9.635896683,8.704191208,2024-06-05 15:54:40.782760
13.82276037,-4.234099865,-9.635896683,8.704191208,2024-06-05 15:54:40.822760
13.86276037,-4.234099865,-9.635896683,8.704191208,2024-06-05 15:54:40.862760
13.90276037,-4.234099865,-9.635896683,8.704191208,2024-06-05 15:54:40.902760
13.94276037,-4.234099865,-9.635896683,8.704191208,2024-06-05 15:54:40.942760
13.98276037,-4.234099865,-9.635896683,8.704191208,2024-06-05 15:54:40.982760
14.02276037,-4.234099865,-9.635896683,8.704191208,2024-06-05 15:54:41.022760
14.06276037,-4.234099865,-9.635896683,8.704191208,2024-06-05 15:54:41.062760
14.10276037,-4.234099865,-9.635896683,8.704191208,2024-06-05 15:54:41.102760
14.14276037,-4.234099865,-9.635896683,8.704191208,2024-06-05 15:54:41.142760
14.18276037,-4.234099865,-9.635896683,8.704191208,2024-06-05 15:54:41.182760
14.22276037,-4.234099865,-9.635896683,8.704191208,2024-06-05 15:54:41.222760
14.26276037,5.113162994,-4.872385025,2.746362209,2024-06-05 15:54:41.262760
14.30276037,5.113162994,-4.872385025,2.746362209,2024-06-05 15:54:41.302760
14.34276037,5.113162994,-4.872385025,2.746362209,2024-06-05 15:54:41.342760
14.38276037,5.113162994,-4.872385025,2.746362209,2024-06-05 15:54:41.382760
14.42276037,4.814957142,-7.884649754,-1.171286702,2024-06-05 15:54:41.422760
14.46276037,4.814957142,-7.884649754,-1.171286702,2024-06-05 15:54:41.462760
14.50276037,4.814957142,-7.884649754,-1.171286702,2024-06-05 15:54:41.502760
14.54276037,4.814957142,-7.884649754,-1.171286702,2024-06-05 15:54:41.542760
14.58276037,4.814957142,-7.884649754,-1.171286702,2024-06-05 15:54:41.582760
14.62276037,4.814957142,-7.884649754,-1.171286702,2024-06-05 15:54:41.622760
14.66276037,4.814957142,-7.884649754,-1.171286702,2024-06-05 15:54:41.662760
14.70276037,4.814957142,-7.884649754,-1.171286702,2024-06-05 15:54:41.702760
14.74276037,4.814957142,-7.884649754,-1.171286702,2024-06-05 15:54:41.742760
14.78276037,4.814957142,-7.884649754,-1.171286702,2024-06-05 15:54:41.782760
14.82276037,4.814957142,-7.884649754,-1.171286702,2024-06-05 15:54:41.822760
14.86276037,4.814957142,-7.884649754,-1.171286702,2024-06-05 15:54:41.862760
14.90276037,4.814957142,-7.884649754,-1.171286702,2024-06-05 15:54:41.902760
14.94276037,4.814957142,-7.884649754,-1.171286702,2024-06-05 15:54:41.942760
14.98276037,4.814957142,-7.884649754,-1.171286702,2024-06-05 15:54:41.982760
15.02276037,4.814957142,-7.884649754,-1.171286702,2024-06-05 15:54:42.022760
15.06276037,4.814957142,-7.884649754,-1.171286702,2024-06-05 15:54:42.062760
15.10276037,4.814957142,-7.884649754,-1.171286702,2024-06-05 15:54:42.102760
15.14276037,4.814957142,-7.884649754,-1.171286702,2024-06-05 15:54:42.142760
15.18276037,4.814957142,-7.884649754,-1.171286702,2024-06-05 15:54:42.182760
15.22276037,4.814957142,-7.884649754,-1.171286702,2024-06-05 15:54:42.222760
15.26276037,4.814957142,-7.884649754,-1.171286702,2024-06-05 15:54:42.262760
15.30276037,4.814957142,-7.884649754,-1.171286702,2024-06-05 15:54:42.302760
15.34276037,4.814957142,-7.884649754,-1.171286702,2024-06-05 15:54:42.342760
15.38276037,4.814957142,-7.884649754,-1.171286702,2024-06-05 15:54:42.382760
15.42276037,6.683452606,-0.5796613097,-9.104091644,2024-06-05 15:54:42.422760
15.46276037,6.683452606,-0.5796613097,-9.104091644,2024-06-05 15:54:42.462760
15.50276037,6.683452606,-0.5796613097,-9.104091644,2024-06-05 15:54:42.502760
15.54276037,6.683452606,-0.5796613097,-9.104091644,2024-06-05 15:54:42.542760
15.58276037,6.683452606,-0.5796613097,-9.104091644,2024-06-05 15:54:42.582760
15.62276037,6.683452606,-0.5796613097,-9.104091644,2024-06-05 15:54:42.622760
15.66276037,6.683452606,-0.5796613097,-9.104091644,2024-06-05 15:54:42.662760
15.70276037,6.683452606,-0.5796613097,-9.104091644,2024-06-05 15:54:42.702760
15.74276037,6.683452606,-0.5796613097,-9.104091644,2024-06-05 15:54:42.742760
15.78276037,6.683452606,-0.5796613097,-9.104091644,2024-06-05 15:54:42.782760
15.82276037,6.683452606,-0.5796613097,-9.104091644,2024-06-05 15:54:42.822760
15.86276037,6.683452606,-0.5796613097,-9.104091644,2024-06-05 15:54:42.862760
15.90276037,6.683452606,-0.5796613097,-9.104091644,2024-06-05 15:54:42.902760
15.94276037,6.683452606,-0.5796613097,-9.104091644,2024-06-05 15:54:42.942760
15.98276037,6.683452606,-0.5796613097,-9.104091644,2024-06-05 15:54:42.982760
16.02276037,6.683452606,-0.5796613097,-9.104091644,2024-06-05 15:54:43.022760
16.06276037,6.683452606,-0.5796613097,-9.104091644,2024-06-05 15:54:43.062760
16.10276037,6.683452606,-0.5796613097,-9.104091644,2024-06-05 15:54:43.102760
16.14276037,6.683452606,-0.5796613097,-9.104091644,2024-06-05 15:54:43.142760
16.18276037,2.468495607,-3.795614958,-3.486641645,2024-06-05 15:54:43.182760
16.22276037,2.468495607,-3.795614958,-3.486641645,2024-06-05 15:54:43.222760
16.26276037,2.468495607,-3.795614958,-3.486641645,2024-06-05 15:54:43.262760
16.30276037,2.468495607,-3.795614958,-3.486641645,2024-06-05 15:54:43.302760
16.34276037,2.468495607,-3.795614958,-3.486641645,2024-06-05 15:54:43.342760
16.38276037,2.468495607,-3.795614958,-3.486641645,2024-06-05 15:54:43.382760
16.42276037,7.995018482,-14.75743484,-2.191825628,2024-06-05 15:54:43.422760
16.46276037,7.995018482,-14.75743484,-2.191825628,2024-06-05 15:54:43.462760
16.50276037,7.995018482,-14.75743484,-2.191825628,2024-06-05 15:54:43.502760
16.54276037,7.995018482,-14.75743484,-2.191825628,2024-06-05 15:54:43.542760
16.58276037,7.995018482,-14.75743484,-2.191825628,2024-06-05 15:54:43.582760
16.62276037,7.995018482,-14.75743484,-2.191825628,2024-06-05 15:54:43.622760
16.66276037,7.995018482,-14.75743484,-2.191825628,2024-06-05 15:54:43.662760
16.70276037,7.995018482,-14.75743484,-2.191825628,2024-06-05 15:54:43.702760
16.74276037,7.995018482,-14.75743484,-2.191825628,2024-06-05 15:54:43.742760
16.78276037,7.995018482,-14.75743484,-2.191825628,2024-06-05 15:54:43.782760
16.82276037,7.995018482,-14.75743484,-2.191825628,2024-06-05 15:54:43.822760
16.86276037,7.995018482,-14.75743484,-2.191825628,2024-06-05 15:54:43.862760
16.90276037,7.995018482,-14.75743484,-2.191825628,2024-06-05 15:54:43.902760
16.94276037,7.995018482,-14.75743484,-2.191825628,2024-06-05 15:54:43.942760
16.98276037,7.995018482,-14.75743484,-2.191825628,2024-06-05 15:54:43.982760
17.02276037,7.995018482,-14.75743484,-2.191825628,2024-06-05 15:54:44.022760
17.06276037,7.995018482,-14.75743484,-2.191825628,2024-06-05 15:54:44.062760
17.10276037,7.995018482,-14.75743484,-2.191825628,2024-06-05 15:54:44.102760
17.14276037,7.995018482,-14.75743484,-2.191825628,2024-06-05 15:54:44.142760
17.18276037,7.995018482,-14.75743484,-2.191825628,2024-06-05 15:54:44.182760
17.22276037,7.995018482,-14.75743484,-2.191825628,2024-06-05 15:54:44.222760
17.26276037,7.995018482,-14.75743484,-2.191825628,2024-06-05 15:54:44.262760
17.30276037,7.995018482,-14.75743484,-2.191825628,2024-06-05 15:54:44.302760
17.34276037,7.995018482,-14.75743484,-2.191825628,2024-06-05 15:54:44.342760
17.38276037,7.995018482,-14.75743484,-2.191825628,2024-06-05 15:54:44.382760
17.42276037,-3.672384501,-17.60459518,17.0297184,2024-06-05 15:54:44.422760
17.46276037,-3.672384501,-17.60459518,17.0297184,2024-06-05 15:54:44.462760
17.50276037,-3.672384501,-17.60459518,17.0297184,2024-06-05 15:54:44.502760
17.54276037,-3.672384501,-17.60459518,17.0297184,2024-06-05 15:54:44.542760
17.58276037,-3.672384501,-17.60459518,17.0297184,2024-06-05 15:54:44.582760
17.62276037,-3.672384501,-17.60459518,17.0297184,2024-06-05 15:54:44.622760
17.66276037,-3.672384501,-17.60459518,17.0297184,2024-06-05 15:54:44.662760
17.70276037,-3.672384501,-17.60459518,17.0297184,2024-06-05 15:54:44.702760
17.74276037,-3.672384501,-17.60459518,17.0297184,2024-06-05 15:54:44.742760
17.78276037,-3.672384501,-17.60459518,17.0297184,2024-06-05 15:54:44.782760
17.82276037,-3.672384501,-17.60459518,17.0297184,2024-06-05 15:54:44.822760
17.86276037,-3.672384501,-17.60459518,17.0297184,2024-06-05 15:54:44.862760
17.90276037,-3.672384501,-17.60459518,17.0297184,2024-06-05 15:54:44.902760
17.94276037,-3.672384501,-17.60459518,17.0297184,2024-06-05 15:54:44.942760
17.98276037,-3.672384501,-17.60459518,17.0297184,2024-06-05 15:54:44.982760
18.02276037,-3.672384501,-17.60459518,17.0297184,2024-06-05 15:54:45.022760
18.06276037,-3.672384501,-17.60459518,17.0297184,2024-06-05 15:54:45.062760
18.10276037,-3.672384501,-17.60459518,17.0297184,2024-06-05 15:54:45.102760
18.14276037,-3.672384501,-17.60459518,17.0297184,2024-06-05 15:54:45.142760
18.18276037,-3.672384501,-17.60459518,17.0297184,2024-06-05 15:54:45.182760
18.22276037,-3.672384501,-17.60459518,17.0297184,2024-06-05 15:54:45.222760
18.26276037,-3.672384501,-17.60459518,17.0297184,2024-06-05 15:54:45.262760
18.30276037,-3.672384501,-17.60459518,17.0297184,2024-06-05 15:54:45.302760
18.34276037,-3.672384501,-17.60459518,17.0297184,2024-06-05 15:54:45.342760
18.38276037,-3.672384501,-17.60459518,17.0297184,2024-06-05 15:54:45.382760
18.42276037,2.9476583,-3.992125511,-1.861316919,2024-06-05 15:54:45.422760
18.46276037,2.9476583,-3.992125511,-1.861316919,2024-06-05 15:54:45.462760
18.50276037,2.9476583,-3.992125511,-1.861316919,2024-06-05 15:54:45.502760
18.54276037,2.9476583,-3.992125511,-1.861316919,2024-06-05 15:54:45.542760
18.58276037,2.9476583,-3.992125511,-1.861316919,2024-06-05 15:54:45.582760
18.62276037,2.9476583,-3.992125511,-1.861316919,2024-06-05 15:54:45.622760
18.66276037,2.9476583,-3.992125511,-1.861316919,2024-06-05 15:54:45.662760
18.70276037,2.9476583,-3.992125511,-1.861316919,2024-06-05 15:54:45.702760
18.74276037,2.9476583,-3.992125511,-1.861316919,2024-06-05 15:54:45.742760
18.78276037,2.9476583,-3.992125511,-1.861316919,2024-06-05 15:54:45.782760
18.82276037,2.9476583,-3.992125511,-1.861316919,2024-06-05 15:54:45.822760
18.86276037,2.9476583,-3.992125511,-1.861316919,2024-06-05 15:54:45.862760
18.90276037,2.9476583,-3.992125511,-1.861316919,2024-06-05 15:54:45.902760
18.94276037,2.9476583,-3.992125511,-1.861316919,2024-06-05 15:54:45.942760
18.98276037,2.9476583,-3.992125511,-1.861316919,2024-06-05 15:54:45.982760
19.02276037,2.9476583,-3.992125511,-1.861316919,2024-06-05 15:54:46.022760
19.06276037,2.9476583,-3.992125511,-1.861316919,2024-06-05 15:54:46.062760
19.10276037,2.9476583,-3.992125511,-1.861316919,2024-06-05 15:54:46.102760
19.14276037,2.9476583,-3.992125511,-1.861316919,2024-06-05 15:54:46.142760
19.18276037,2.9476583,-3.992125511,-1.861316919,2024-06-05 15:54:46.182760
19.22276037,2.9476583,-3.992125511,-1.861316919,2024-06-05 15:54:46.222760
19.26276037,2.9476583,-3.992125511,-1.861316919,2024-06-05 15:54:46.262760
19.30276037,2.9476583,-3.992125511,-1.861316919,2024-06-05 15:54:46.302760
19.34276037,2.9476583,-3.992125511,-1.861316919,2024-06-05 15:54:46.342760
19.38276037,2.9476583,-3.992125511,-1.861316919,2024-06-05 15:54:46.382760
19.42276037,4.84845686,-11.30189991,-2.788236618,2024-06-05 15:54:46.422760
19.46276037,4.84845686,-11.30189991,-2.788236618,2024-06-05 15:54:46.462760
19.50276037,4.84845686,-11.30189991,-2.788236618,2024-06-05 15:54:46.502760
19.54276037,4.84845686,-11.30189991,-2.788236618,2024-06-05 15:54:46.542760
19.58276037,4.84845686,-11.30189991,-2.788236618,2024-06-05 15:54:46.582760
19.62276037,4.84845686,-11.30189991,-2.788236618,2024-06-05 15:54:46.622760
19.66276037,4.84845686,-11.30189991,-2.788236618,2024-06-05 15:54:46.662760
19.70276037,4.84845686,-11.30189991,-2.788236618,2024-06-05 15:54:46.702760
19.74276037,4.84845686,-11.30189991,-2.788236618,2024-06-05 15:54:46.742760
19.78276037,4.84845686,-11.30189991,-2.788236618,2024-06-05 15:54:46.782760
19.82276037,4.84845686,-11.30189991,-2.788236618,2024-06-05 15:54:46.822760
19.86276037,4.84845686,-11.30189991,-2.788236618,2024-06-05 15:54:46.862760
19.90276037,4.84845686,-11.30189991,-2.788236618,2024-06-05 15:54:46.902760
19.94276037,4.84845686,-11.30189991,-2.788236618,2024-06-05 15:54:46.942760
19.98276037,4.84845686,-11.30189991,-2.788236618,2024-06-05 15:54:46.982760
20.02276037,4.84845686,-11.30189991,-2.788236618,2024-06-05 15:54:47.022760
20.06276037,4.84845686,-11.30189991,-2.788236618,2024-06-05 15:54:47.062760
20.10276037,4.84845686,-11.30189991,-2.788236618,2024-06-05 15:54:47.102760
20.14276037,4.84845686,-11.30189991,-2.788236618,2024-06-05 15:54:47.142760
20.18276037,2.252842426,-8.746066093,-0.1833500415,2024-06-05 15:54:47.182760
20.22276037,2.252842426,-8.746066093,-0.1833500415,2024-06-05 15:54:47.222760
20.26276037,2.252842426,-8.746066093,-0.1833500415,2024-06-05 15:54:47.262760
20.30276037,2.252842426,-8.746066093,-0.1833500415,2024-06-05 15:54:47.302760
20.34276037,2.252842426,-8.746066093,-0.1833500415,2024-06-05 15:54:47.342760
20.38276037,2.252842426,-8.746066093,-0.1833500415,2024-06-05 15:54:47.382760
20.42276037,2.252842426,-8.746066093,-0.1833500415,2024-06-05 15:54:47.422760
20.46276037,2.252842426,-8.746066093,-0.1833500415,2024-06-05 15:54:47.462760
20.50276037,2.252842426,-8.746066093,-0.1833500415,2024-06-05 15:54:47.502760
20.54276037,2.252842426,-8.746066093,-0.1833500415,2024-06-05 15:54:47.542760
20.58276037,2.252842426,-8.746066093,-0.1833500415,2024-06-05 15:54:47.582760
20.62276037,2.252842426,-8.746066093,-0.1833500415,2024-06-05 15:54:47.622760
20.66276037,2.252842426,-8.746066093,-0.1833500415,2024-06-05 15:54:47.662760
20.70276037,2.252842426,-8.746066093,-0.1833500415,2024-06-05 15:54:47.702760
20.74276037,2.252842426,-8.746066093,-0.1833500415,2024-06-05 15:54:47.742760
20.78276037,2.252842426,-8.746066093,-0.1833500415,2024-06-05 15:54:47.782760
20.82276037,2.252842426,-8.746066093,-0.1833500415,2024-06-05 15:54:47.822760
20.86276037,2.252842426,-8.746066093,-0.1833500415,2024-06-05 15:54:47.862760
20.90276037,2.252842426,-8.746066093,-0.1833500415,2024-06-05 15:54:47.902760
20.94276037,2.252842426,-8.746066093,-0.1833500415,2024-06-05 15:54:47.942760
20.98276037,2.252842426,-8.746066093,-0.1833500415,2024-06-05 15:54:47.982760
21.02276037,2.252842426,-8.746066093,-0.1833500415,2024-06-05 15:54:48.022760
21.06276037,2.252842426,-8.746066093,-0.1833500415,2024-06-05 15:54:48.062760
21.10276037,2.252842426,-8.746066093,-0.1833500415,2024-06-05 15:54:48.102760
21.14276037,2.252842426,-8.746066093,-0.1833500415,2024-06-05 15:54:48.142760
21.18276037,2.252842426,-8.746066093,-0.1833500415,2024-06-05 15:54:48.182760
21.22276037,2.252842426,-8.746066093,-0.1833500415,2024-06-05 15:54:48.222760
21.26276037,2.252842426,-8.746066093,-0.1833500415,2024-06-05 15:54:48.262760
21.30276037,2.252842426,-8.746066093,-0.1833500415,2024-06-05 15:54:48.302760
21.34276037,2.252842426,-8.746066093,-0.1833500415,2024-06-05 15:54:48.342760
21.38276037,2.252842426,-8.746066093,-0.1833500415,2024-06-05 15:54:48.382760
21.42276037,2.491227388,-7.690831184,-1.107876897,2024-06-05 15:54:48.422760
21.46276037,2.491227388,-7.690831184,-1.107876897,2024-06-05 15:54:48.462760
21.50276037,2.491227388,-7.690831184,-1.107876897,2024-06-05 15:54:48.502760
21.54276037,2.491227388,-7.690831184,-1.107876897,2024-06-05 15:54:48.542760
21.58276037,2.491227388,-7.690831184,-1.107876897,2024-06-05 15:54:48.582760
21.62276037,2.491227388,-7.690831184,-1.107876897,2024-06-05 15:54:48.622760
21.66276037,2.491227388,-7.690831184,-1.107876897,2024-06-05 15:54:48.662760
21.70276037,2.491227388,-7.690831184,-1.107876897,2024-06-05 15:54:48.702760
21.74276037,2.491227388,-7.690831184,-1.107876897,2024-06-05 15:54:48.742760
21.78276037,2.491227388,-7.690831184,-1.107876897,2024-06-05 15:54:48.782760
21.82276037,2.491227388,-7.690831184,-1.107876897,2024-06-05 15:54:48.822760
21.86276037,2.491227388,-7.690831184,-1.107876897,2024-06-05 15:54:48.862760
21.90276037,2.491227388,-7.690831184,-1.107876897,2024-06-05 15:54:48.902760
21.94276037,2.491227388,-7.690831184,-1.107876897,2024-06-05 15:54:48.942760
21.98276037,2.491227388,-7.690831184,-1.107876897,2024-06-05 15:54:48.982760
22.02276037,2.491227388,-7.690831184,-1.107876897,2024-06-05 15:54:49.022760
22.06276037,2.491227388,-7.690831184,-1.107876897,2024-06-05 15:54:49.062760
22.10276037,2.491227388,-7.690831184,-1.107876897,2024-06-05 15:54:49.102760
22.14276037,2.491227388,-7.690831184,-1.107876897,2024-06-05 15:54:49.142760
22.18276037,2.491227388,-7.690831184,-1.107876897,2024-06-05 15:54:49.182760
22.22276037,2.491227388,-7.690831184,-1.107876897,2024-06-05 15:54:49.222760
22.26276037,2.491227388,-7.690831184,-1.107876897,2024-06-05 15:54:49.262760
22.30276037,2.491227388,-7.690831184,-1.107876897,2024-06-05 15:54:49.302760
22.34276037,2.491227388,-7.690831184,-1.107876897,2024-06-05 15:54:49.342760
22.38276037,2.491227388,-7.690831184,-1.107876897,2024-06-05 15:54:49.382760
22.42276037,5.253442287,-12.23390388,-2.503191471,2024-06-05 15:54:49.422760
22.46276037,5.253442287,-12.23390388,-2.503191471,2024-06-05 15:54:49.462760
22.50276037,-4.363312244,-10.46471119,1.279262781,2024-06-05 15:54:49.502760
22.54276037,-4.363312244,-10.46471119,1.279262781,2024-06-05 15:54:49.542760
22.58276037,-4.363312244,-10.46471119,1.279262781,2024-06-05 15:54:49.582760
22.62276037,-4.363312244,-10.46471119,1.279262781,2024-06-05 15:54:49.622760
22.66276037,-4.363312244,-10.46471119,1.279262781,2024-06-05 15:54:49.662760
22.70276037,-4.363312244,-10.46471119,1.279262781,2024-06-05 15:54:49.702760
22.74276037,-4.363312244,-10.46471119,1.279262781,2024-06-05 15:54:49.742760
22.78276037,-4.363312244,-10.46471119,1.279262781,2024-06-05 15:54:49.782760
22.82276037,-4.363312244,-10.46471119,1.279262781,2024-06-05 15:54:49.822760
22.86276037,-4.363312244,-10.46471119,1.279262781,2024-06-05 15:54:49.862760
22.90276037,-4.363312244,-10.46471119,1.279262781,2024-06-05 15:54:49.902760
22.94276037,-4.363312244,-10.46471119,1.279262781,2024-06-05 15:54:49.942760
22.98276037,-4.363312244,-10.46471119,1.279262781,2024-06-05 15:54:49.982760
23.02276037,-4.363312244,-10.46471119,1.279262781,2024-06-05 15:54:50.022760
23.06276037,-4.363312244,-10.46471119,1.279262781,2024-06-05 15:54:50.062760
23.10276037,-4.363312244,-10.46471119,1.279262781,2024-06-05 15:54:50.102760
23.14276037,-4.363312244,-10.46471119,1.279262781,2024-06-05 15:54:50.142760
23.18276037,-0.3305086195,-7.107580662,-0.9439685345,2024-06-05 15:54:50.182760
23.22276037,-0.3305086195,-7.107580662,-0.9439685345,2024-06-05 15:54:50.222760
23.26276037,-0.3305086195,-7.107580662,-0.9439685345,2024-06-05 15:54:50.262760
23.30276037,-0.3305086195,-7.107580662,-0.9439685345,2024-06-05 15:54:50.302760
23.34276037,-0.3305086195,-7.107580662,-0.9439685345,2024-06-05 15:54:50.342760
23.38276037,-0.3305086195,-7.107580662,-0.9439685345,2024-06-05 15:54:50.382760
23.42276037,2.804986238,-9.221340179,4.877170563,2024-06-05 15:54:50.422760
23.46276037,2.804986238,-9.221340179,4.877170563,2024-06-05 15:54:50.462760
23.50276037,2.804986238,-9.221340179,4.877170563,2024-06-05 15:54:50.502760
23.54276037,2.804986238,-9.221340179,4.877170563,2024-06-05 15:54:50.542760
23.58276037,2.804986238,-9.221340179,4.877170563,2024-06-05 15:54:50.582760
23.62276037,2.804986238,-9.221340179,4.877170563,2024-06-05 15:54:50.622760
23.66276037,2.804986238,-9.221340179,4.877170563,2024-06-05 15:54:50.662760
23.70276037,2.804986238,-9.221340179,4.877170563,2024-06-05 15:54:50.702760
23.74276037,2.804986238,-9.221340179,4.877170563,2024-06-05 15:54:50.742760
23.78276037,2.804986238,-9.221340179,4.877170563,2024-06-05 15:54:50.782760
23.82276037,2.804986238,-9.221340179,4.877170563,2024-06-05 15:54:50.822760
23.86276037,2.804986238,-9.221340179,4.877170563,2024-06-05 15:54:50.862760
23.90276037,2.804986238,-9.221340179,4.877170563,2024-06-05 15:54:50.902760
23.94276037,2.804986238,-9.221340179,4.877170563,2024-06-05 15:54:50.942760
23.98276037,2.804986238,-9.221340179,4.877170563,2024-06-05 15:54:50.982760
24.02276037,2.804986238,-9.221340179,4.877170563,2024-06-05 15:54:51.022760
24.06276037,2.804986238,-9.221340179,4.877170563,2024-06-05 15:54:51.062760
24.10276037,2.804986238,-9.221340179,4.877170563,2024-06-05 15:54:51.102760
24.14276037,2.804986238,-9.221340179,4.877170563,2024-06-05 15:54:51.142760
24.18276037,2.804986238,-9.221340179,4.877170563,2024-06-05 15:54:51.182760
24.22276037,2.804986238,-9.221340179,4.877170563,2024-06-05 15:54:51.222760
24.26276037,2.804986238,-9.221340179,4.877170563,2024-06-05 15:54:51.262760
24.30276037,2.804986238,-9.221340179,4.877170563,2024-06-05 15:54:51.302760
24.34276037,2.804986238,-9.221340179,4.877170563,2024-06-05 15:54:51.342760
24.38276037,2.804986238,-9.221340179,4.877170563,2024-06-05 15:54:51.382760
24.42276037,2.804986238,-9.221340179,4.877170563,2024-06-05 15:54:51.422760
24.46276037,2.804986238,-9.221340179,4.877170563,2024-06-05 15:54:51.462760
24.50276037,2.804986238,-9.221340179,4.877170563,2024-06-05 15:54:51.502760
24.54276037,2.804986238,-9.221340179,4.877170563,2024-06-05 15:54:51.542760
24.58276037,2.804986238,-9.221340179,4.877170563,2024-06-05 15:54:51.582760
24.62276037,2.804986238,-9.221340179,4.877170563,2024-06-05 15:54:51.622760
24.66276037,2.804986238,-9.221340179,4.877170563,2024-06-05 15:54:51.662760
24.70276037,2.804986238,-9.221340179,4.877170563,2024-06-05 15:54:51.702760
24.74276037,2.804986238,-9.221340179,4.877170563,2024-06-05 15:54:51.742760
24.78276037,2.804986238,-9.221340179,4.877170563,2024-06-05 15:54:51.782760
24.82276037,2.804986238,-9.221340179,4.877170563,2024-06-05 15:54:51.822760
24.86276037,2.804986238,-9.221340179,4.877170563,2024-06-05 15:54:51.862760
24.90276037,2.804986238,-9.221340179,4.877170563,2024-06-05 15:54:51.902760
24.94276037,2.804986238,-9.221340179,4.877170563,2024-06-05 15:54:51.942760
24.98276037,2.804986238,-9.221340179,4.877170563,2024-06-05 15:54:51.982760
25.02276037,2.804986238,-9.221340179,4.877170563,2024-06-05 15:54:52.022760
25.06276037,2.804986238,-9.221340179,4.877170563,2024-06-05 15:54:52.062760
25.10276037,2.804986238,-9.221340179,4.877170563,2024-06-05 15:54:52.102760
25.14276037,2.804986238,-9.221340179,4.877170563,2024-06-05 15:54:52.142760
25.18276037,2.804986238,-9.221340179,4.877170563,2024-06-05 15:54:52.182760
25.22276037,2.804986238,-9.221340179,4.877170563,2024-06-05 15:54:52.222760
25.26276037,2.804986238,-9.221340179,4.877170563,2024-06-05 15:54:52.262760
25.30276037,2.804986238,-9.221340179,4.877170563,2024-06-05 15:54:52.302760
25.34276037,2.804986238,-9.221340179,4.877170563,2024-06-05 15:54:52.342760
25.38276037,2.804986238,-9.221340179,4.877170563,2024-06-05 15:54:52.382760
25.42276037,-0.2192423791,-10.22273636,0.6155536175,2024-06-05 15:54:52.422760
25.46276037,-0.2192423791,-10.22273636,0.6155536175,2024-06-05 15:54:52.462760
25.50276037,-0.2192423791,-10.22273636,0.6155536175,2024-06-05 15:54:52.502760
25.54276037,-0.2192423791,-10.22273636,0.6155536175,2024-06-05 15:54:52.542760
25.58276037,-0.2192423791,-10.22273636,0.6155536175,2024-06-05 15:54:52.582760
25.62276037,-0.2192423791,-10.22273636,0.6155536175,2024-06-05 15:54:52.622760
25.66276037,-0.2192423791,-10.22273636,0.6155536175,2024-06-05 15:54:52.662760
25.70276037,-0.2192423791,-10.22273636,0.6155536175,2024-06-05 15:54:52.702760
25.74276037,-0.2192423791,-10.22273636,0.6155536175,2024-06-05 15:54:52.742760
25.78276037,-0.2192423791,-10.22273636,0.6155536175,2024-06-05 15:54:52.782760
25.82276037,-0.2192423791,-10.22273636,0.6155536175,2024-06-05 15:54:52.822760
25.86276037,-0.2192423791,-10.22273636,0.6155536175,2024-06-05 15:54:52.862760
25.90276037,-0.2192423791,-10.22273636,0.6155536175,2024-06-05 15:54:52.902760
25.94276037,-0.2192423791,-10.22273636,0.6155536175,2024-06-05 15:54:52.942760
25.98276037,-0.2192423791,-10.22273636,0.6155536175,2024-06-05 15:54:52.982760
26.02276037,-0.2192423791,-10.22273636,0.6155536175,2024-06-05 15:54:53.022760
26.06276037,-0.2192423791,-10.22273636,0.6155536175,2024-06-05 15:54:53.062760
26.10276037,-0.2192423791,-10.22273636,0.6155536175,2024-06-05 15:54:53.102760
26.14276037,-0.2192423791,-10.22273636,0.6155536175,2024-06-05 15:54:53.142760
26.18276037,1.363011599,-8.222636223,-0.6598208547,2024-06-05 15:54:53.182760
26.22276037,1.363011599,-8.222636223,-0.6598208547,2024-06-05 15:54:53.222760
26.26276037,1.363011599,-8.222636223,-0.6598208547,2024-06-05 15:54:53.262760
26.30276037,1.363011599,-8.222636223,-0.6598208547,2024-06-05 15:54:53.302760
26.34276037,1.363011599,-8.222636223,-0.6598208547,2024-06-05 15:54:53.342760
26.38276037,1.363011599,-8.222636223,-0.6598208547,2024-06-05 15:54:53.382760
26.42276037,-0.6804589629,-13.64477158,8.744869232,2024-06-05 15:54:53.422760
26.46276037,-0.6804589629,-13.64477158,8.744869232,2024-06-05 15:54:53.462760
26.50276037,-0.6804589629,-13.64477158,8.744869232,2024-06-05 15:54:53.502760
26.54276037,-0.6804589629,-13.64477158,8.744869232,2024-06-05 15:54:53.542760
26.58276037,-0.6804589629,-13.64477158,8.744869232,2024-06-05 15:54:53.582760
26.62276037,-3.238685369,-10.05045319,2.098505497,2024-06-05 15:54:53.622760
26.66276037,-3.238685369,-10.05045319,2.098505497,2024-06-05 15:54:53.662760
26.70276037,-3.238685369,-10.05045319,2.098505497,2024-06-05 15:54:53.702760
26.74276037,-3.238685369,-10.05045319,2.098505497,2024-06-05 15:54:53.742760
26.78276037,-3.238685369,-10.05045319,2.098505497,2024-06-05 15:54:53.782760
26.82276037,-3.238685369,-10.05045319,2.098505497,2024-06-05 15:54:53.822760
26.86276037,-3.238685369,-10.05045319,2.098505497,2024-06-05 15:54:53.862760
26.90276037,-3.238685369,-10.05045319,2.098505497,2024-06-05 15:54:53.902760
26.94276037,-3.238685369,-10.05045319,2.098505497,2024-06-05 15:54:53.942760
26.98276037,-3.238685369,-10.05045319,2.098505497,2024-06-05 15:54:53.982760
27.02276037,-3.238685369,-10.05045319,2.098505497,2024-06-05 15:54:54.022760
27.06276037,-3.238685369,-10.05045319,2.098505497,2024-06-05 15:54:54.062760
27.10276037,-3.238685369,-10.05045319,2.098505497,2024-06-05 15:54:54.102760
27.14276037,-3.238685369,-10.05045319,2.098505497,2024-06-05 15:54:54.142760
27.18276037,-3.238685369,-10.05045319,2.098505497,2024-06-05 15:54:54.182760
27.22276037,-3.238685369,-10.05045319,2.098505497,2024-06-05 15:54:54.222760
27.26276037,-3.238685369,-10.05045319,2.098505497,2024-06-05 15:54:54.262760
27.30276037,-3.238685369,-10.05045319,2.098505497,2024-06-05 15:54:54.302760
27.34276037,-3.238685369,-10.05045319,2.098505497,2024-06-05 15:54:54.342760
27.38276037,-3.238685369,-10.05045319,2.098505497,2024-06-05 15:54:54.382760
27.42276037,-0.2371885478,-9.821640015,0.1016949639,2024-06-05 15:54:54.422760
27.46276037,-0.2371885478,-9.821640015,0.1016949639,2024-06-05 15:54:54.462760
27.50276037,-0.2371885478,-9.821640015,0.1016949639,2024-06-05 15:54:54.502760
27.54276037,-0.2371885478,-9.821640015,0.1016949639,2024-06-05 15:54:54.542760
27.58276037,-0.2371885478,-9.821640015,0.1016949639,2024-06-05 15:54:54.582760
27.62276037,-0.2371885478,-9.821640015,0.1016949639,2024-06-05 15:54:54.622760
27.66276037,-0.2371885478,-9.821640015,0.1016949639,2024-06-05 15:54:54.662760
27.70276037,-0.2371885478,-9.821640015,0.1016949639,2024-06-05 15:54:54.702760
27.74276037,-0.2371885478,-9.821640015,0.1016949639,2024-06-05 15:54:54.742760
27.78276037,-0.2371885478,-9.821640015,0.1016949639,2024-06-05 15:54:54.782760
27.82276037,-0.2371885478,-9.821640015,0.1016949639,2024-06-05 15:54:54.822760
27.86276037,-0.2371885478,-9.821640015,0.1016949639,2024-06-05 15:54:54.862760
27.90276037,-0.2371885478,-9.821640015,0.1016949639,2024-06-05 15:54:54.902760
27.94276037,-0.2371885478,-9.821640015,0.1016949639,2024-06-05 15:54:54.942760
27.98276037,-0.2371885478,-9.821640015,0.1016949639,2024-06-05 15:54:54.982760
28.02276037,-0.2371885478,-9.821640015,0.1016949639,2024-06-05 15:54:55.022760
28.06276037,-0.2371885478,-9.821640015,0.1016949639,2024-06-05 15:54:55.062760
28.10276037,-0.2371885478,-9.821640015,0.1016949639,2024-06-05 15:54:55.102760
28.14276037,-0.2371885478,-9.821640015,0.1016949639,2024-06-05 15:54:55.142760
28.18276037,-0.2371885478,-9.821640015,0.1016949639,2024-06-05 15:54:55.182760
28.22276037,-0.2371885478,-9.821640015,0.1016949639,2024-06-05 15:54:55.222760
28.26276037,-0.2371885478,-9.821640015,0.1016949639,2024-06-05 15:54:55.262760
28.30276037,-0.2371885478,-9.821640015,0.1016949639,2024-06-05 15:54:55.302760
28.34276037,-0.2371885478,-9.821640015,0.1016949639,2024-06-05 15:54:55.342760
28.38276037,-0.2371885478,-9.821640015,0.1016949639,2024-06-05 15:54:55.382760
28.42276037,6.812664986,-12.07089329,1.707877159,2024-06-05 15:54:55.422760
28.46276037,6.812664986,-12.07089329,1.707877159,2024-06-05 15:54:55.462760
28.50276037,6.812664986,-12.07089329,1.707877159,2024-06-05 15:54:55.502760
28.54276037,6.812664986,-12.07089329,1.707877159,2024-06-05 15:54:55.542760
28.58276037,6.812664986,-12.07089329,1.707877159,2024-06-05 15:54:55.582760
28.62276037,6.812664986,-12.07089329,1.707877159,2024-06-05 15:54:55.622760
28.66276037,6.812664986,-12.07089329,1.707877159,2024-06-05 15:54:55.662760
28.70276037,6.812664986,-12.07089329,1.707877159,2024-06-05 15:54:55.702760
28.74276037,6.812664986,-12.07089329,1.707877159,2024-06-05 15:54:55.742760
28.78276037,6.812664986,-12.07089329,1.707877159,2024-06-05 15:54:55.782760
28.82276037,6.812664986,-12.07089329,1.707877159,2024-06-05 15:54:55.822760
28.86276037,6.812664986,-12.07089329,1.707877159,2024-06-05 15:54:55.862760
28.90276037,6.812664986,-12.07089329,1.707877159,2024-06-05 15:54:55.902760
28.94276037,6.812664986,-12.07089329,1.707877159,2024-06-05 15:54:55.942760
28.98276037,6.812664986,-12.07089329,1.707877159,2024-06-05 15:54:55.982760
29.02276037,6.812664986,-12.07089329,1.707877159,2024-06-05 15:54:56.022760
29.06276037,6.812664986,-12.07089329,1.707877159,2024-06-05 15:54:56.062760
29.10276037,6.812664986,-12.07089329,1.707877159,2024-06-05 15:54:56.102760
29.14276037,6.812664986,-12.07089329,1.707877159,2024-06-05 15:54:56.142760
29.18276037,6.812664986,-12.07089329,1.707877159,2024-06-05 15:54:56.182760
29.22276037,6.812664986,-12.07089329,1.707877159,2024-06-05 15:54:56.222760
29.26276037,6.812664986,-12.07089329,1.707877159,2024-06-05 15:54:56.262760
29.30276037,6.812664986,-12.07089329,1.707877159,2024-06-05 15:54:56.302760
29.34276037,6.812664986,-12.07089329,1.707877159,2024-06-05 15:54:56.342760
29.38276037,6.812664986,-12.07089329,1.707877159,2024-06-05 15:54:56.382760
29.42276037,1.364207983,-9.894620895,4.653142929,2024-06-05 15:54:56.422760
29.46276037,1.364207983,-9.894620895,4.653142929,2024-06-05 15:54:56.462760
29.50276037,1.364207983,-9.894620895,4.653142929,2024-06-05 15:54:56.502760
29.54276037,1.364207983,-9.894620895,4.653142929,2024-06-05 15:54:56.542760
29.58276037,1.364207983,-9.894620895,4.653142929,2024-06-05 15:54:56.582760
29.62276037,1.364207983,-9.894620895,4.653142929,2024-06-05 15:54:56.622760
29.66276037,1.364207983,-9.894620895,4.653142929,2024-06-05 15:54:56.662760
29.70276037,1.364207983,-9.894620895,4.653142929,2024-06-05 15:54:56.702760
29.74276037,1.364207983,-9.894620895,4.653142929,2024-06-05 15:54:56.742760
29.78276037,1.364207983,-9.894620895,4.653142929,2024-06-05 15:54:56.782760
29.82276037,1.364207983,-9.894620895,4.653142929,2024-06-05 15:54:56.822760
29.86276037,1.364207983,-9.894620895,4.653142929,2024-06-05 15:54:56.862760
29.90276037,1.364207983,-9.894620895,4.653142929,2024-06-05 15:54:56.902760
29.94276037,1.364207983,-9.894620895,4.653142929,2024-06-05 15:54:56.942760
29.98276037,1.364207983,-9.894620895,4.653142929,2024-06-05 15:54:56.982760
30.02276037,1.364207983,-9.894620895,4.653142929,2024-06-05 15:54:57.022760
30.06276037,1.364207983,-9.894620895,4.653142929,2024-06-05 15:54:57.062760
30.10276037,1.364207983,-9.894620895,4.653142929,2024-06-05 15:54:57.102760
30.14276037,1.364207983,-9.894620895,4.653142929,2024-06-05 15:54:57.142760
30.18276037,-2.050648928,-13.82094383,-7.089335442,2024-06-05 15:54:57.182760
30.22276037,-2.050648928,-13.82094383,-7.089335442,2024-06-05 15:54:57.222760
30.26276037,-2.050648928,-13.82094383,-7.089335442,2024-06-05 15:54:57.262760
30.30276037,-2.050648928,-13.82094383,-7.089335442,2024-06-05 15:54:57.302760
30.34276037,-2.050648928,-13.82094383,-7.089335442,2024-06-05 15:54:57.342760
30.38276037,-2.050648928,-13.82094383,-7.089335442,2024-06-05 15:54:57.382760
30.42276037,0.2036890239,-9.959226608,0.2635096014,2024-06-05 15:54:57.422760
30.46276037,0.2036890239,-9.959226608,0.2635096014,2024-06-05 15:54:57.462760
30.50276037,0.2036890239,-9.959226608,0.2635096014,2024-06-05 15:54:57.502760
30.54276037,0.2036890239,-9.959226608,0.2635096014,2024-06-05 15:54:57.542760
30.58276037,0.2036890239,-9.959226608,0.2635096014,2024-06-05 15:54:57.582760
30.62276037,0.2036890239,-9.959226608,0.2635096014,2024-06-05 15:54:57.622760
30.66276037,0.2036890239,-9.959226608,0.2635096014,2024-06-05 15:54:57.662760
30.70276037,0.2036890239,-9.959226608,0.2635096014,2024-06-05 15:54:57.702760
30.74276037,0.2036890239,-9.959226608,0.2635096014,2024-06-05 15:54:57.742760
30.78276037,0.2036890239,-9.959226608,0.2635096014,2024-06-05 15:54:57.782760
30.82276037,0.2036890239,-9.959226608,0.2635096014,2024-06-05 15:54:57.822760
30.86276037,0.2036890239,-9.959226608,0.2635096014,2024-06-05 15:54:57.862760
30.90276037,0.2036890239,-9.959226608,0.2635096014,2024-06-05 15:54:57.902760
30.94276037,3.202793121,-3.961018801,-1.891227245,2024-06-05 15:54:57.942760
30.98276037,3.202793121,-3.961018801,-1.891227245,2024-06-05 15:54:57.982760
31.02276037,3.202793121,-3.961018801,-1.891227245,2024-06-05 15:54:58.022760
31.06276037,3.202793121,-3.961018801,-1.891227245,2024-06-05 15:54:58.062760
31.10276037,3.202793121,-3.961018801,-1.891227245,2024-06-05 15:54:58.102760
31.14276037,3.202793121,-3.961018801,-1.891227245,2024-06-05 15:54:58.142760
31.18276037,3.202793121,-3.961018801,-1.891227245,2024-06-05 15:54:58.182760
31.22276037,3.202793121,-3.961018801,-1.891227245,2024-06-05 15:54:58.222760
31.26276037,3.202793121,-3.961018801,-1.891227245,2024-06-05 15:54:58.262760
31.30276037,3.202793121,-3.961018801,-1.891227245,2024-06-05 15:54:58.302760
31.34276037,3.202793121,-3.961018801,-1.891227245,2024-06-05 15:54:58.342760
31.38276037,3.202793121,-3.961018801,-1.891227245,2024-06-05 15:54:58.382760
31.42276037,-1.361815214,-11.0060873,-0.7725825906,2024-06-05 15:54:58.422760
31.46276037,-1.361815214,-11.0060873,-0.7725825906,2024-06-05 15:54:58.462760
31.50276037,-1.361815214,-11.0060873,-0.7725825906,2024-06-05 15:54:58.502760
31.54276037,-1.361815214,-11.0060873,-0.7725825906,2024-06-05 15:54:58.542760
31.58276037,-1.361815214,-11.0060873,-0.7725825906,2024-06-05 15:54:58.582760
31.62276037,-1.361815214,-11.0060873,-0.7725825906,2024-06-05 15:54:58.622760
31.66276037,-1.361815214,-11.0060873,-0.7725825906,2024-06-05 15:54:58.662760
31.70276037,0.7091727853,-13.02921867,2.381157637,2024-06-05 15:54:58.702760
31.70276037,0.7091727853,-13.02921867,2.381157637,2024-06-05 15:54:58.702760
31.78276037,0.7091727853,-13.02921867,2.381157637,2024-06-05 15:54:58.782760
31.82276037,0.7091727853,-13.02921867,2.381157637,2024-06-05 15:54:58.822760
31.86276037,0.7091727853,-13.02921867,2.381157637,2024-06-05 15:54:58.862760
31.90276037,0.7091727853,-13.02921867,2.381157637,2024-06-05 15:54:58.902760
31.94276037,0.7091727853,-13.02921867,2.381157637,2024-06-05 15:54:58.942760
31.98276037,0.7091727853,-13.02921867,2.381157637,2024-06-05 15:54:58.982760
32.02276037,0.7091727853,-13.02921867,2.381157637,2024-06-05 15:54:59.022760
32.06276037,0.7091727853,-13.02921867,2.381157637,2024-06-05 15:54:59.062760
32.10276037,0.7091727853,-13.02921867,2.381157637,2024-06-05 15:54:59.102760
32.14276037,0.7091727853,-13.02921867,2.381157637,2024-06-05 15:54:59.142760
32.18276037,0.7091727853,-13.02921867,2.381157637,2024-06-05 15:54:59.182760
32.22276037,0.7091727853,-13.02921867,2.381157637,2024-06-05 15:54:59.222760
32.26276037,0.7091727853,-13.02921867,2.381157637,2024-06-05 15:54:59.262760
32.30276037,0.7091727853,-13.02921867,2.381157637,2024-06-05 15:54:59.302760
32.34276037,0.7091727853,-13.02921867,2.381157637,2024-06-05 15:54:59.342760
32.38276037,0.7091727853,-13.02921867,2.381157637,2024-06-05 15:54:59.382760
32.42276037,-4.321437836,-16.43181229,1.800299883,2024-06-05 15:54:59.422760
32.46276037,-4.321437836,-16.43181229,1.800299883,2024-06-05 15:54:59.462760
32.50276037,-4.321437836,-16.43181229,1.800299883,2024-06-05 15:54:59.502760
32.54276037,-4.321437836,-16.43181229,1.800299883,2024-06-05 15:54:59.542760
32.58276037,-4.321437836,-16.43181229,1.800299883,2024-06-05 15:54:59.582760
32.62276037,-4.321437836,-16.43181229,1.800299883,2024-06-05 15:54:59.622760
32.66276037,-4.321437836,-16.43181229,1.800299883,2024-06-05 15:54:59.662760
32.70276037,-4.321437836,-16.43181229,1.800299883,2024-06-05 15:54:59.702760
32.74276037,-4.321437836,-16.43181229,1.800299883,2024-06-05 15:54:59.742760
32.78276037,-4.321437836,-16.43181229,1.800299883,2024-06-05 15:54:59.782760
32.82276037,-4.321437836,-16.43181229,1.800299883,2024-06-05 15:54:59.822760
32.86276037,-4.321437836,-16.43181229,1.800299883,2024-06-05 15:54:59.862760
32.90276037,-4.321437836,-16.43181229,1.800299883,2024-06-05 15:54:59.902760
32.94276037,-4.321437836,-16.43181229,1.800299883,2024-06-05 15:54:59.942760
32.98276037,-4.321437836,-16.43181229,1.800299883,2024-06-05 15:54:59.982760
33.02276037,-4.321437836,-16.43181229,1.800299883,2024-06-05 15:55:00.022760
33.06276037,-4.321437836,-16.43181229,1.800299883,2024-06-05 15:55:00.062760
33.10276037,-4.321437836,-16.43181229,1.800299883,2024-06-05 15:55:00.102760
33.14276037,-4.321437836,-16.43181229,1.800299883,2024-06-05 15:55:00.142760
33.18276037,3.539283752,-4.73001194,-0.7390831113,2024-06-05 15:55:00.182760
33.22276037,3.539283752,-4.73001194,-0.7390831113,2024-06-05 15:55:00.222760
33.26276037,3.539283752,-4.73001194,-0.7390831113,2024-06-05 15:55:00.262760
33.30276037,3.539283752,-4.73001194,-0.7390831113,2024-06-05 15:55:00.302760
33.34276037,3.539283752,-4.73001194,-0.7390831113,2024-06-05 15:55:00.342760
33.38276037,3.539283752,-4.73001194,-0.7390831113,2024-06-05 15:55:00.382760
33.42276037,6.463014126,-10.02024364,-1.669592023,2024-06-05 15:55:00.422760
33.46276037,6.463014126,-10.02024364,-1.669592023,2024-06-05 15:55:00.462760
33.50276037,6.463014126,-10.02024364,-1.669592023,2024-06-05 15:55:00.502760
33.54276037,6.463014126,-10.02024364,-1.669592023,2024-06-05 15:55:00.542760
33.58276037,6.463014126,-10.02024364,-1.669592023,2024-06-05 15:55:00.582760
33.62276037,6.463014126,-10.02024364,-1.669592023,2024-06-05 15:55:00.622760
33.66276037,6.463014126,-10.02024364,-1.669592023,2024-06-05 15:55:00.662760
33.70276037,6.463014126,-10.02024364,-1.669592023,2024-06-05 15:55:00.702760
33.74276037,6.463014126,-10.02024364,-1.669592023,2024-06-05 15:55:00.742760
33.78276037,6.463014126,-10.02024364,-1.669592023,2024-06-05 15:55:00.782760
33.82276037,6.463014126,-10.02024364,-1.669592023,2024-06-05 15:55:00.822760
33.86276037,6.463014126,-10.02024364,-1.669592023,2024-06-05 15:55:00.862760
33.90276037,6.463014126,-10.02024364,-1.669592023,2024-06-05 15:55:00.902760
33.94276037,6.463014126,-10.02024364,-1.669592023,2024-06-05 15:55:00.942760
33.98276037,6.463014126,-10.02024364,-1.669592023,2024-06-05 15:55:00.982760
34.02276037,6.463014126,-10.02024364,-1.669592023,2024-06-05 15:55:01.022760
34.06276037,6.463014126,-10.02024364,-1.669592023,2024-06-05 15:55:01.062760
34.10276037,6.463014126,-10.02024364,-1.669592023,2024-06-05 15:55:01.102760
34.14276037,6.463014126,-10.02024364,-1.669592023,2024-06-05 15:55:01.142760
34.18276037,6.463014126,-10.02024364,-1.669592023,2024-06-05 15:55:01.182760
34.22276037,6.463014126,-10.02024364,-1.669592023,2024-06-05 15:55:01.222760
34.26276037,6.463014126,-10.02024364,-1.669592023,2024-06-05 15:55:01.262760
34.30276037,6.463014126,-10.02024364,-1.669592023,2024-06-05 15:55:01.302760
34.34276037,6.463014126,-10.02024364,-1.669592023,2024-06-05 15:55:01.342760
34.38276037,6.463014126,-10.02024364,-1.669592023,2024-06-05 15:55:01.382760
34.42276037,1.279262781,-12.22313595,-3.318845034,2024-06-05 15:55:01.422760
34.46276037,1.279262781,-12.22313595,-3.318845034,2024-06-05 15:55:01.462760
34.50276037,1.279262781,-12.22313595,-3.318845034,2024-06-05 15:55:01.502760
34.54276037,1.279262781,-12.22313595,-3.318845034,2024-06-05 15:55:01.542760
34.58276037,1.279262781,-12.22313595,-3.318845034,2024-06-05 15:55:01.582760
34.62276037,1.279262781,-12.22313595,-3.318845034,2024-06-05 15:55:01.622760
34.66276037,1.279262781,-12.22313595,-3.318845034,2024-06-05 15:55:01.662760
34.70276037,1.279262781,-12.22313595,-3.318845034,2024-06-05 15:55:01.702760
34.74276037,1.279262781,-12.22313595,-3.318845034,2024-06-05 15:55:01.742760
34.78276037,1.279262781,-12.22313595,-3.318845034,2024-06-05 15:55:01.782760
34.82276037,1.279262781,-12.22313595,-3.318845034,2024-06-05 15:55:01.822760
34.86276037,1.279262781,-12.22313595,-3.318845034,2024-06-05 15:55:01.862760
34.90276037,1.279262781,-12.22313595,-3.318845034,2024-06-05 15:55:01.902760
34.94276037,1.279262781,-12.22313595,-3.318845034,2024-06-05 15:55:01.942760
34.98276037,1.279262781,-12.22313595,-3.318845034,2024-06-05 15:55:01.982760
35.02276037,1.279262781,-12.22313595,-3.318845034,2024-06-05 15:55:02.022760
35.06276037,1.279262781,-12.22313595,-3.318845034,2024-06-05 15:55:02.062760
35.10276037,1.279262781,-12.22313595,-3.318845034,2024-06-05 15:55:02.102760
35.14276037,1.279262781,-12.22313595,-3.318845034,2024-06-05 15:55:02.142760
35.18276037,1.279262781,-12.22313595,-3.318845034,2024-06-05 15:55:02.182760
35.22276037,1.279262781,-12.22313595,-3.318845034,2024-06-05 15:55:02.222760
35.26276037,1.279262781,-12.22313595,-3.318845034,2024-06-05 15:55:02.262760
35.30276037,1.279262781,-12.22313595,-3.318845034,2024-06-05 15:55:02.302760
35.34276037,1.279262781,-12.22313595,-3.318845034,2024-06-05 15:55:02.342760
35.38276037,1.279262781,-12.22313595,-3.318845034,2024-06-05 15:55:02.382760
35.42276037,0.3544368446,-9.411869049,-0.05862415582,2024-06-05 15:55:02.422760
35.46276037,0.3544368446,-9.411869049,-0.05862415582,2024-06-05 15:55:02.462760
35.50276037,0.3544368446,-9.411869049,-0.05862415582,2024-06-05 15:55:02.502760
35.54276037,0.3544368446,-9.411869049,-0.05862415582,2024-06-05 15:55:02.542760
35.58276037,0.3544368446,-9.411869049,-0.05862415582,2024-06-05 15:55:02.582760
35.62276037,0.3544368446,-9.411869049,-0.05862415582,2024-06-05 15:55:02.622760
35.66276037,0.3544368446,-9.411869049,-0.05862415582,2024-06-05 15:55:02.662760
35.70276037,0.3544368446,-9.411869049,-0.05862415582,2024-06-05 15:55:02.702760
35.74276037,0.3544368446,-9.411869049,-0.05862415582,2024-06-05 15:55:02.742760
35.78276037,0.3544368446,-9.411869049,-0.05862415582,2024-06-05 15:55:02.782760
35.82276037,0.3544368446,-9.411869049,-0.05862415582,2024-06-05 15:55:02.822760
35.86276037,0.3544368446,-9.411869049,-0.05862415582,2024-06-05 15:55:02.862760
35.90276037,0.3544368446,-9.411869049,-0.05862415582,2024-06-05 15:55:02.902760
35.94276037,0.699601531,-6.555137634,0.4528416991,2024-06-05 15:55:02.942760
35.98276037,0.699601531,-6.555137634,0.4528416991,2024-06-05 15:55:02.982760
36.02276037,0.699601531,-6.555137634,0.4528416991,2024-06-05 15:55:03.022760
36.06276037,0.699601531,-6.555137634,0.4528416991,2024-06-05 15:55:03.062760
36.10276037,0.699601531,-6.555137634,0.4528416991,2024-06-05 15:55:03.102760
36.14276037,0.699601531,-6.555137634,0.4528416991,2024-06-05 15:55:03.142760
36.18276037,1.547558069,-8.77477932,4.317848682,2024-06-05 15:55:03.182760
36.22276037,1.547558069,-8.77477932,4.317848682,2024-06-05 15:55:03.222760
36.26276037,1.547558069,-8.77477932,4.317848682,2024-06-05 15:55:03.262760
36.30276037,1.547558069,-8.77477932,4.317848682,2024-06-05 15:55:03.302760
36.34276037,1.547558069,-8.77477932,4.317848682,2024-06-05 15:55:03.342760
36.38276037,1.547558069,-8.77477932,4.317848682,2024-06-05 15:55:03.382760
36.42276037,1.547558069,-8.77477932,4.317848682,2024-06-05 15:55:03.422760
36.46276037,1.547558069,-8.77477932,4.317848682,2024-06-05 15:55:03.462760
36.50276037,1.547558069,-8.77477932,4.317848682,2024-06-05 15:55:03.502760
36.54276037,1.547558069,-8.77477932,4.317848682,2024-06-05 15:55:03.542760
36.58276037,1.547558069,-8.77477932,4.317848682,2024-06-05 15:55:03.582760
36.62276037,1.547558069,-8.77477932,4.317848682,2024-06-05 15:55:03.622760
36.66276037,1.547558069,-8.77477932,4.317848682,2024-06-05 15:55:03.662760
36.70276037,1.547558069,-8.77477932,4.317848682,2024-06-05 15:55:03.702760
36.74276037,1.547558069,-8.77477932,4.317848682,2024-06-05 15:55:03.742760
36.78276037,1.547558069,-8.77477932,4.317848682,2024-06-05 15:55:03.782760
36.82276037,1.547558069,-8.77477932,4.317848682,2024-06-05 15:55:03.822760
36.86276037,1.547558069,-8.77477932,4.317848682,2024-06-05 15:55:03.862760
36.90276037,1.547558069,-8.77477932,4.317848682,2024-06-05 15:55:03.902760
36.94276037,1.547558069,-8.77477932,4.317848682,2024-06-05 15:55:03.942760
36.98276037,1.547558069,-8.77477932,4.317848682,2024-06-05 15:55:03.982760
37.02276037,1.547558069,-8.77477932,4.317848682,2024-06-05 15:55:04.022760
37.06276037,1.547558069,-8.77477932,4.317848682,2024-06-05 15:55:04.062760
37.10276037,1.547558069,-8.77477932,4.317848682,2024-06-05 15:55:04.102760
37.14276037,1.547558069,-8.77477932,4.317848682,2024-06-05 15:55:04.142760
37.18276037,1.547558069,-8.77477932,4.317848682,2024-06-05 15:55:04.182760
37.22276037,1.547558069,-8.77477932,4.317848682,2024-06-05 15:55:04.222760
37.26276037,1.547558069,-8.77477932,4.317848682,2024-06-05 15:55:04.262760
37.30276037,1.547558069,-8.77477932,4.317848682,2024-06-05 15:55:04.302760
37.34276037,1.547558069,-8.77477932,4.317848682,2024-06-05 15:55:04.342760
37.38276037,1.547558069,-8.77477932,4.317848682,2024-06-05 15:55:04.382760
37.42276037,2.376372099,-3.272184849,2.788236618,2024-06-05 15:55:04.422760
37.46276037,2.376372099,-3.272184849,2.788236618,2024-06-05 15:55:04.462760
37.50276037,2.376372099,-3.272184849,2.788236618,2024-06-05 15:55:04.502760
37.54276037,2.376372099,-3.272184849,2.788236618,2024-06-05 15:55:04.542760
37.58276037,2.376372099,-3.272184849,2.788236618,2024-06-05 15:55:04.582760
37.62276037,2.376372099,-3.272184849,2.788236618,2024-06-05 15:55:04.622760
37.66276037,2.376372099,-3.272184849,2.788236618,2024-06-05 15:55:04.662760
37.70276037,2.376372099,-3.272184849,2.788236618,2024-06-05 15:55:04.702760
37.74276037,2.376372099,-3.272184849,2.788236618,2024-06-05 15:55:04.742760
37.78276037,2.376372099,-3.272184849,2.788236618,2024-06-05 15:55:04.782760
37.82276037,2.376372099,-3.272184849,2.788236618,2024-06-05 15:55:04.822760
37.86276037,2.376372099,-3.272184849,2.788236618,2024-06-05 15:55:04.862760
37.90276037,2.376372099,-3.272184849,2.788236618,2024-06-05 15:55:04.902760
37.94276037,2.376372099,-3.272184849,2.788236618,2024-06-05 15:55:04.942760
37.98276037,2.376372099,-3.272184849,2.788236618,2024-06-05 15:55:04.982760
38.02276037,2.376372099,-3.272184849,2.788236618,2024-06-05 15:55:05.022760
38.06276037,2.376372099,-3.272184849,2.788236618,2024-06-05 15:55:05.062760
38.10276037,2.376372099,-3.272184849,2.788236618,2024-06-05 15:55:05.102760
38.14276037,2.376372099,-3.272184849,2.788236618,2024-06-05 15:55:05.142760
38.18276037,2.376372099,-3.272184849,2.788236618,2024-06-05 15:55:05.182760
38.22276037,1.903191328,-2.988336325,1.826620936,2024-06-05 15:55:05.222760
38.22276037,1.903191328,-2.988336325,1.826620936,2024-06-05 15:55:05.222760
38.30276037,1.903191328,-2.988336325,1.826620936,2024-06-05 15:55:05.302760
38.34276037,1.903191328,-2.988336325,1.826620936,2024-06-05 15:55:05.342760
38.38276037,1.903191328,-2.988336325,1.826620936,2024-06-05 15:55:05.382760
38.42276037,4.122534275,-9.137591362,12.88535023,2024-06-05 15:55:05.422760
38.46276037,4.122534275,-9.137591362,12.88535023,2024-06-05 15:55:05.462760
38.50276037,4.122534275,-9.137591362,12.88535023,2024-06-05 15:55:05.502760
38.54276037,4.122534275,-9.137591362,12.88535023,2024-06-05 15:55:05.542760
38.58276037,4.122534275,-9.137591362,12.88535023,2024-06-05 15:55:05.582760
38.62276037,4.122534275,-9.137591362,12.88535023,2024-06-05 15:55:05.622760
38.66276037,4.122534275,-9.137591362,12.88535023,2024-06-05 15:55:05.662760
38.70276037,4.122534275,-9.137591362,12.88535023,2024-06-05 15:55:05.702760
38.74276037,4.122534275,-9.137591362,12.88535023,2024-06-05 15:55:05.742760
38.78276037,4.122534275,-9.137591362,12.88535023,2024-06-05 15:55:05.782760
38.82276037,4.122534275,-9.137591362,12.88535023,2024-06-05 15:55:05.822760
38.86276037,4.122534275,-9.137591362,12.88535023,2024-06-05 15:55:05.862760
38.90276037,4.122534275,-9.137591362,12.88535023,2024-06-05 15:55:05.902760
38.94276037,4.122534275,-9.137591362,12.88535023,2024-06-05 15:55:05.942760
38.98276037,4.122534275,-9.137591362,12.88535023,2024-06-05 15:55:05.982760
39.02276037,4.122534275,-9.137591362,12.88535023,2024-06-05 15:55:06.022760
39.06276037,4.122534275,-9.137591362,12.88535023,2024-06-05 15:55:06.062760
39.10276037,4.122534275,-9.137591362,12.88535023,2024-06-05 15:55:06.102760
39.14276037,4.122534275,-9.137591362,12.88535023,2024-06-05 15:55:06.142760
39.18276037,4.122534275,-9.137591362,12.88535023,2024-06-05 15:55:06.182760
39.22276037,4.122534275,-9.137591362,12.88535023,2024-06-05 15:55:06.222760
39.26276037,4.122534275,-9.137591362,12.88535023,2024-06-05 15:55:06.262760
39.30276037,4.122534275,-9.137591362,12.88535023,2024-06-05 15:55:06.302760
39.34276037,4.122534275,-9.137591362,12.88535023,2024-06-05 15:55:06.342760
39.38276037,4.122534275,-9.137591362,12.88535023,2024-06-05 15:55:06.382760
39.42276037,0.1316052526,-7.304988384,-1.419242978,2024-06-05 15:55:06.422760
39.46276037,0.1316052526,-7.304988384,-1.419242978,2024-06-05 15:55:06.462760
39.50276037,0.1316052526,-7.304988384,-1.419242978,2024-06-05 15:55:06.502760
39.54276037,0.1316052526,-7.304988384,-1.419242978,2024-06-05 15:55:06.542760
39.58276037,0.1316052526,-7.304988384,-1.419242978,2024-06-05 15:55:06.582760
39.62276037,0.1316052526,-7.304988384,-1.419242978,2024-06-05 15:55:06.622760
39.66276037,0.1316052526,-7.304988384,-1.419242978,2024-06-05 15:55:06.662760
39.70276037,0.1316052526,-7.304988384,-1.419242978,2024-06-05 15:55:06.702760
39.74276037,0.1316052526,-7.304988384,-1.419242978,2024-06-05 15:55:06.742760
39.78276037,0.1316052526,-7.304988384,-1.419242978,2024-06-05 15:55:06.782760
39.82276037,0.1316052526,-7.304988384,-1.419242978,2024-06-05 15:55:06.822760
39.86276037,2.178664923,-7.564908981,4.703691006,2024-06-05 15:55:06.862760
39.90276037,2.178664923,-7.564908981,4.703691006,2024-06-05 15:55:06.902760
39.94276037,2.178664923,-7.564908981,4.703691006,2024-06-05 15:55:06.942760
39.98276037,2.178664923,-7.564908981,4.703691006,2024-06-05 15:55:06.982760
40.02276037,2.178664923,-7.564908981,4.703691006,2024-06-05 15:55:07.022760
40.06276037,2.178664923,-7.564908981,4.703691006,2024-06-05 15:55:07.062760
40.10276037,2.178664923,-7.564908981,4.703691006,2024-06-05 15:55:07.102760
40.14276037,2.178664923,-7.564908981,4.703691006,2024-06-05 15:55:07.142760
40.18276037,2.178664923,-7.564908981,4.703691006,2024-06-05 15:55:07.182760
40.22276037,2.178664923,-7.564908981,4.703691006,2024-06-05 15:55:07.222760
40.26276037,2.178664923,-7.564908981,4.703691006,2024-06-05 15:55:07.262760
40.30276037,2.178664923,-7.564908981,4.703691006,2024-06-05 15:55:07.302760
40.34276037,2.178664923,-7.564908981,4.703691006,2024-06-05 15:55:07.342760
40.38276037,2.178664923,-7.564908981,4.703691006,2024-06-05 15:55:07.382760
40.42276037,-0.1654038578,-9.268299103,1.819442511,2024-06-05 15:55:07.422760
40.46276037,-0.1654038578,-9.268299103,1.819442511,2024-06-05 15:55:07.462760
40.50276037,-0.1654038578,-9.268299103,1.819442511,2024-06-05 15:55:07.502760
40.54276037,-0.1654038578,-9.268299103,1.819442511,2024-06-05 15:55:07.542760
40.58276037,-0.1654038578,-9.268299103,1.819442511,2024-06-05 15:55:07.582760
40.62276037,-0.1654038578,-9.268299103,1.819442511,2024-06-05 15:55:07.622760
40.66276037,-0.1654038578,-9.268299103,1.819442511,2024-06-05 15:55:07.662760
40.70276037,-0.1654038578,-9.268299103,1.819442511,2024-06-05 15:55:07.702760
40.74276037,-0.1654038578,-9.268299103,1.819442511,2024-06-05 15:55:07.742760
40.78276037,-0.1654038578,-9.268299103,1.819442511,2024-06-05 15:55:07.782760
40.82276037,-0.1654038578,-9.268299103,1.819442511,2024-06-05 15:55:07.822760
40.86276037,-0.1654038578,-9.268299103,1.819442511,2024-06-05 15:55:07.862760
40.90276037,-0.1654038578,-9.268299103,1.819442511,2024-06-05 15:55:07.902760
40.94276037,-0.1136590764,-6.696613312,-0.779761076,2024-06-05 15:55:07.942760
40.98276037,-0.1136590764,-6.696613312,-0.779761076,2024-06-05 15:55:07.982760
41.02276037,-0.1136590764,-6.696613312,-0.779761076,2024-06-05 15:55:08.022760
41.06276037,-0.1136590764,-6.696613312,-0.779761076,2024-06-05 15:55:08.062760
41.10276037,-0.1136590764,-6.696613312,-0.779761076,2024-06-05 15:55:08.102760
41.14276037,-0.1136590764,-6.696613312,-0.779761076,2024-06-05 15:55:08.142760
41.18276037,-0.1136590764,-6.696613312,-0.779761076,2024-06-05 15:55:08.182760
41.22276037,-0.1136590764,-6.696613312,-0.779761076,2024-06-05 15:55:08.222760
41.26276037,-0.1136590764,-6.696613312,-0.779761076,2024-06-05 15:55:08.262760
41.30276037,-0.1136590764,-6.696613312,-0.779761076,2024-06-05 15:55:08.302760
41.34276037,-0.1136590764,-6.696613312,-0.779761076,2024-06-05 15:55:08.342760
41.38276037,-0.1136590764,-6.696613312,-0.779761076,2024-06-05 15:55:08.382760
41.42276037,-0.9439685345,-7.374679565,3.632902861,2024-06-05 15:55:08.422760
41.46276037,-0.9439685345,-7.374679565,3.632902861,2024-06-05 15:55:08.462760
41.50276037,-0.9439685345,-7.374679565,3.632902861,2024-06-05 15:55:08.502760
41.54276037,-0.9439685345,-7.374679565,3.632902861,2024-06-05 15:55:08.542760
41.58276037,-2.510370016,-13.578969,8.495717049,2024-06-05 15:55:08.582760
41.58276037,-2.510370016,-13.578969,8.495717049,2024-06-05 15:55:08.582760
41.66276037,-2.510370016,-13.578969,8.495717049,2024-06-05 15:55:08.662760
41.70276037,-2.510370016,-13.578969,8.495717049,2024-06-05 15:55:08.702760
41.74276037,-2.510370016,-13.578969,8.495717049,2024-06-05 15:55:08.742760
41.78276037,-2.510370016,-13.578969,8.495717049,2024-06-05 15:55:08.782760
41.82276037,-2.510370016,-13.578969,8.495717049,2024-06-05 15:55:08.822760
41.86276037,-2.510370016,-13.578969,8.495717049,2024-06-05 15:55:08.862760
41.90276037,-2.510370016,-13.578969,8.495717049,2024-06-05 15:55:08.902760
41.94276037,-2.510370016,-13.578969,8.495717049,2024-06-05 15:55:08.942760
41.98276037,-2.510370016,-13.578969,8.495717049,2024-06-05 15:55:08.982760
42.02276037,-2.510370016,-13.578969,8.495717049,2024-06-05 15:55:09.022760
42.06276037,-2.510370016,-13.578969,8.495717049,2024-06-05 15:55:09.062760
42.10276037,-2.510370016,-13.578969,8.495717049,2024-06-05 15:55:09.102760
42.14276037,-2.510370016,-13.578969,8.495717049,2024-06-05 15:55:09.142760
42.18276037,-2.510370016,-13.578969,8.495717049,2024-06-05 15:55:09.182760
42.22276037,-2.510370016,-13.578969,8.495717049,2024-06-05 15:55:09.222760
42.26276037,-2.510370016,-13.578969,8.495717049,2024-06-05 15:55:09.262760
42.30276037,-2.510370016,-13.578969,8.495717049,2024-06-05 15:55:09.302760
42.34276037,-2.510370016,-13.578969,8.495717049,2024-06-05 15:55:09.342760
42.38276037,-2.510370016,-13.578969,8.495717049,2024-06-05 15:55:09.382760
42.42276037,-1.285244823,-9.050253868,1.596610904,2024-06-05 15:55:09.422760
42.46276037,-1.285244823,-9.050253868,1.596610904,2024-06-05 15:55:09.462760
42.50276037,-1.285244823,-9.050253868,1.596610904,2024-06-05 15:55:09.502760
42.54276037,-1.285244823,-9.050253868,1.596610904,2024-06-05 15:55:09.542760
42.58276037,-1.285244823,-9.050253868,1.596610904,2024-06-05 15:55:09.582760
42.62276037,-1.285244823,-9.050253868,1.596610904,2024-06-05 15:55:09.622760
42.66276037,-1.285244823,-9.050253868,1.596610904,2024-06-05 15:55:09.662760
42.70276037,-1.285244823,-9.050253868,1.596610904,2024-06-05 15:55:09.702760
42.74276037,-1.285244823,-9.050253868,1.596610904,2024-06-05 15:55:09.742760
42.78276037,-1.285244823,-9.050253868,1.596610904,2024-06-05 15:55:09.782760
42.82276037,-1.285244823,-9.050253868,1.596610904,2024-06-05 15:55:09.822760
42.86276037,-1.285244823,-9.050253868,1.596610904,2024-06-05 15:55:09.862760
42.90276037,-1.285244823,-9.050253868,1.596610904,2024-06-05 15:55:09.902760
42.94276037,-1.285244823,-9.050253868,1.596610904,2024-06-05 15:55:09.942760
42.98276037,-1.285244823,-9.050253868,1.596610904,2024-06-05 15:55:09.982760
43.02276037,-1.285244823,-9.050253868,1.596610904,2024-06-05 15:55:10.022760
43.06276037,-1.285244823,-9.050253868,1.596610904,2024-06-05 15:55:10.062760
43.10276037,-1.285244823,-9.050253868,1.596610904,2024-06-05 15:55:10.102760
43.14276037,-1.285244823,-9.050253868,1.596610904,2024-06-05 15:55:10.142760
43.18276037,-2.904587507,-9.826425552,3.70588398,2024-06-05 15:55:10.182760
43.22276037,-2.904587507,-9.826425552,3.70588398,2024-06-05 15:55:10.222760
43.26276037,-2.904587507,-9.826425552,3.70588398,2024-06-05 15:55:10.262760
43.30276037,-2.904587507,-9.826425552,3.70588398,2024-06-05 15:55:10.302760
43.34276037,-2.904587507,-9.826425552,3.70588398,2024-06-05 15:55:10.342760
43.38276037,-2.904587507,-9.826425552,3.70588398,2024-06-05 15:55:10.382760
43.42276037,-10.72941685,-21.27578163,5.270191669,2024-06-05 15:55:10.422760
43.46276037,-10.72941685,-21.27578163,5.270191669,2024-06-05 15:55:10.462760
43.50276037,-10.72941685,-21.27578163,5.270191669,2024-06-05 15:55:10.502760
43.54276037,-10.72941685,-21.27578163,5.270191669,2024-06-05 15:55:10.542760
43.58276037,-10.72941685,-21.27578163,5.270191669,2024-06-05 15:55:10.582760
43.62276037,-10.72941685,-21.27578163,5.270191669,2024-06-05 15:55:10.622760
43.66276037,-10.72941685,-21.27578163,5.270191669,2024-06-05 15:55:10.662760
43.70276037,-10.72941685,-21.27578163,5.270191669,2024-06-05 15:55:10.702760
43.74276037,-10.72941685,-21.27578163,5.270191669,2024-06-05 15:55:10.742760
43.78276037,-10.72941685,-21.27578163,5.270191669,2024-06-05 15:55:10.782760
43.82276037,-10.72941685,-21.27578163,5.270191669,2024-06-05 15:55:10.822760
43.86276037,-10.72941685,-21.27578163,5.270191669,2024-06-05 15:55:10.862760
43.90276037,-10.72941685,-21.27578163,5.270191669,2024-06-05 15:55:10.902760
43.94276037,-10.72941685,-21.27578163,5.270191669,2024-06-05 15:55:10.942760
43.98276037,-10.72941685,-21.27578163,5.270191669,2024-06-05 15:55:10.982760
44.02276037,-10.72941685,-21.27578163,5.270191669,2024-06-05 15:55:11.022760
44.06276037,-10.72941685,-21.27578163,5.270191669,2024-06-05 15:55:11.062760
44.10276037,-10.72941685,-21.27578163,5.270191669,2024-06-05 15:55:11.102760
44.14276037,-10.72941685,-21.27578163,5.270191669,2024-06-05 15:55:11.142760
44.18276037,1.49132669,-5.70000267,-2.050648928,2024-06-05 15:55:11.182760
44.22276037,1.49132669,-5.70000267,-2.050648928,2024-06-05 15:55:11.222760
44.26276037,1.49132669,-5.70000267,-2.050648928,2024-06-05 15:55:11.262760
44.30276037,1.49132669,-5.70000267,-2.050648928,2024-06-05 15:55:11.302760
44.34276037,1.49132669,-5.70000267,-2.050648928,2024-06-05 15:55:11.342760
44.38276037,1.49132669,-5.70000267,-2.050648928,2024-06-05 15:55:11.382760
44.42276037,-2.387139797,-17.00818253,-2.163111687,2024-06-05 15:55:11.422760
44.46276037,-2.387139797,-17.00818253,-2.163111687,2024-06-05 15:55:11.462760
44.50276037,-2.387139797,-17.00818253,-2.163111687,2024-06-05 15:55:11.502760
44.54276037,-2.387139797,-17.00818253,-2.163111687,2024-06-05 15:55:11.542760
44.58276037,-2.387139797,-17.00818253,-2.163111687,2024-06-05 15:55:11.582760
44.62276037,-2.387139797,-17.00818253,-2.163111687,2024-06-05 15:55:11.622760
44.66276037,-2.387139797,-17.00818253,-2.163111687,2024-06-05 15:55:11.662760
44.70276037,-2.387139797,-17.00818253,-2.163111687,2024-06-05 15:55:11.702760
44.74276037,-2.387139797,-17.00818253,-2.163111687,2024-06-05 15:55:11.742760
44.78276037,-2.387139797,-17.00818253,-2.163111687,2024-06-05 15:55:11.782760
44.82276037,-2.387139797,-17.00818253,-2.163111687,2024-06-05 15:55:11.822760
44.86276037,-2.387139797,-17.00818253,-2.163111687,2024-06-05 15:55:11.862760
44.90276037,-2.387139797,-17.00818253,-2.163111687,2024-06-05 15:55:11.902760
44.94276037,-2.387139797,-17.00818253,-2.163111687,2024-06-05 15:55:11.942760
44.98276037,-2.387139797,-17.00818253,-2.163111687,2024-06-05 15:55:11.982760
45.02276037,-2.387139797,-17.00818253,-2.163111687,2024-06-05 15:55:12.022760
45.06276037,-2.387139797,-17.00818253,-2.163111687,2024-06-05 15:55:12.062760
45.10276037,-2.387139797,-17.00818253,-2.163111687,2024-06-05 15:55:12.102760
45.14276037,-2.387139797,-17.00818253,-2.163111687,2024-06-05 15:55:12.142760
45.18276037,-2.387139797,-17.00818253,-2.163111687,2024-06-05 15:55:12.182760
45.22276037,-2.387139797,-17.00818253,-2.163111687,2024-06-05 15:55:12.222760
45.26276037,-2.387139797,-17.00818253,-2.163111687,2024-06-05 15:55:12.262760
45.30276037,-2.387139797,-17.00818253,-2.163111687,2024-06-05 15:55:12.302760
45.34276037,-2.387139797,-17.00818253,-2.163111687,2024-06-05 15:55:12.342760
45.38276037,-2.387139797,-17.00818253,-2.163111687,2024-06-05 15:55:12.382760
45.42276037,0.003589233849,-10.83858967,8.233403206,2024-06-05 15:55:12.422760
45.46276037,0.003589233849,-10.83858967,8.233403206,2024-06-05 15:55:12.462760
45.50276037,0.003589233849,-10.83858967,8.233403206,2024-06-05 15:55:12.502760
45.54276037,0.003589233849,-10.83858967,8.233403206,2024-06-05 15:55:12.542760
45.58276037,0.003589233849,-10.83858967,8.233403206,2024-06-05 15:55:12.582760
45.62276037,0.003589233849,-10.83858967,8.233403206,2024-06-05 15:55:12.622760
45.66276037,0.003589233849,-10.83858967,8.233403206,2024-06-05 15:55:12.662760
45.70276037,0.003589233849,-10.83858967,8.233403206,2024-06-05 15:55:12.702760
45.74276037,0.003589233849,-10.83858967,8.233403206,2024-06-05 15:55:12.742760
45.78276037,0.003589233849,-10.83858967,8.233403206,2024-06-05 15:55:12.782760
45.82276037,0.003589233849,-10.83858967,8.233403206,2024-06-05 15:55:12.822760
45.86276037,0.003589233849,-10.83858967,8.233403206,2024-06-05 15:55:12.862760
45.90276037,0.003589233849,-10.83858967,8.233403206,2024-06-05 15:55:12.902760
45.94276037,2.314158678,-6.417550564,14.52503204,2024-06-05 15:55:12.942760
45.98276037,2.314158678,-6.417550564,14.52503204,2024-06-05 15:55:12.982760
46.02276037,2.314158678,-6.417550564,14.52503204,2024-06-05 15:55:13.022760
46.06276037,2.314158678,-6.417550564,14.52503204,2024-06-05 15:55:13.062760
46.10276037,2.314158678,-6.417550564,14.52503204,2024-06-05 15:55:13.102760
46.14276037,2.314158678,-6.417550564,14.52503204,2024-06-05 15:55:13.142760
46.18276037,2.105684042,-14.41017628,7.007979393,2024-06-05 15:55:13.182760
46.22276037,2.105684042,-14.41017628,7.007979393,2024-06-05 15:55:13.222760
46.26276037,2.105684042,-14.41017628,7.007979393,2024-06-05 15:55:13.262760
46.30276037,2.105684042,-14.41017628,7.007979393,2024-06-05 15:55:13.302760
46.34276037,2.105684042,-14.41017628,7.007979393,2024-06-05 15:55:13.342760
46.38276037,2.105684042,-14.41017628,7.007979393,2024-06-05 15:55:13.382760
46.42276037,3.668795347,-13.12852097,-0.4863412082,2024-06-05 15:55:13.422760
46.46276037,3.668795347,-13.12852097,-0.4863412082,2024-06-05 15:55:13.462760
46.50276037,3.668795347,-13.12852097,-0.4863412082,2024-06-05 15:55:13.502760
46.54276037,3.668795347,-13.12852097,-0.4863412082,2024-06-05 15:55:13.542760
46.58276037,3.668795347,-13.12852097,-0.4863412082,2024-06-05 15:55:13.582760
46.62276037,3.668795347,-13.12852097,-0.4863412082,2024-06-05 15:55:13.622760
46.66276037,3.668795347,-13.12852097,-0.4863412082,2024-06-05 15:55:13.662760
46.70276037,3.668795347,-13.12852097,-0.4863412082,2024-06-05 15:55:13.702760
46.74276037,3.668795347,-13.12852097,-0.4863412082,2024-06-05 15:55:13.742760
46.78276037,3.668795347,-13.12852097,-0.4863412082,2024-06-05 15:55:13.782760
46.82276037,3.668795347,-13.12852097,-0.4863412082,2024-06-05 15:55:13.822760
46.86276037,3.668795347,-13.12852097,-0.4863412082,2024-06-05 15:55:13.862760
46.90276037,3.668795347,-13.12852097,-0.4863412082,2024-06-05 15:55:13.902760
46.94276037,3.668795347,-13.12852097,-0.4863412082,2024-06-05 15:55:13.942760
46.98276037,3.668795347,-13.12852097,-0.4863412082,2024-06-05 15:55:13.982760
47.02276037,3.668795347,-13.12852097,-0.4863412082,2024-06-05 15:55:14.022760
47.06276037,3.668795347,-13.12852097,-0.4863412082,2024-06-05 15:55:14.062760
47.10276037,3.668795347,-13.12852097,-0.4863412082,2024-06-05 15:55:14.102760
47.14276037,3.668795347,-13.12852097,-0.4863412082,2024-06-05 15:55:14.142760
47.18276037,3.668795347,-13.12852097,-0.4863412082,2024-06-05 15:55:14.182760
47.22276037,3.668795347,-13.12852097,-0.4863412082,2024-06-05 15:55:14.222760
47.26276037,3.668795347,-13.12852097,-0.4863412082,2024-06-05 15:55:14.262760
47.30276037,3.668795347,-13.12852097,-0.4863412082,2024-06-05 15:55:14.302760
47.34276037,3.668795347,-13.12852097,-0.4863412082,2024-06-05 15:55:14.342760
47.38276037,3.668795347,-13.12852097,-0.4863412082,2024-06-05 15:55:14.382760
47.42276037,0.2694916427,-8.851349831,5.488237858,2024-06-05 15:55:14.422760
47.46276037,0.2694916427,-8.851349831,5.488237858,2024-06-05 15:55:14.462760
47.50276037,0.2694916427,-8.851349831,5.488237858,2024-06-05 15:55:14.502760
47.54276037,0.2694916427,-8.851349831,5.488237858,2024-06-05 15:55:14.542760
47.58276037,0.2694916427,-8.851349831,5.488237858,2024-06-05 15:55:14.582760
47.62276037,0.2694916427,-8.851349831,5.488237858,2024-06-05 15:55:14.622760
47.66276037,0.2694916427,-8.851349831,5.488237858,2024-06-05 15:55:14.662760
47.70276037,0.2694916427,-8.851349831,5.488237858,2024-06-05 15:55:14.702760
47.74276037,0.2694916427,-8.851349831,5.488237858,2024-06-05 15:55:14.742760
47.78276037,0.2694916427,-8.851349831,5.488237858,2024-06-05 15:55:14.782760
47.82276037,0.2694916427,-8.851349831,5.488237858,2024-06-05 15:55:14.822760
47.86276037,0.2694916427,-8.851349831,5.488237858,2024-06-05 15:55:14.862760
47.90276037,0.2694916427,-8.851349831,5.488237858,2024-06-05 15:55:14.902760
47.94276037,0.2694916427,-8.851349831,5.488237858,2024-06-05 15:55:14.942760
47.98276037,0.2694916427,-8.851349831,5.488237858,2024-06-05 15:55:14.982760
48.02276037,0.2694916427,-8.851349831,5.488237858,2024-06-05 15:55:15.022760
48.06276037,0.2694916427,-8.851349831,5.488237858,2024-06-05 15:55:15.062760
48.10276037,0.2694916427,-8.851349831,5.488237858,2024-06-05 15:55:15.102760
48.14276037,0.2694916427,-8.851349831,5.488237858,2024-06-05 15:55:15.142760
48.18276037,0.2694916427,-8.851349831,5.488237858,2024-06-05 15:55:15.182760
48.22276037,0.2694916427,-8.851349831,5.488237858,2024-06-05 15:55:15.222760
48.26276037,0.2694916427,-8.851349831,5.488237858,2024-06-05 15:55:15.262760
48.30276037,0.2694916427,-8.851349831,5.488237858,2024-06-05 15:55:15.302760
48.34276037,0.2694916427,-8.851349831,5.488237858,2024-06-05 15:55:15.342760
48.38276037,0.2694916427,-8.851349831,5.488237858,2024-06-05 15:55:15.382760
48.42276037,3.178864956,-9.730413437,3.049353361,2024-06-05 15:55:15.422760
48.46276037,3.178864956,-9.730413437,3.049353361,2024-06-05 15:55:15.462760
48.50276037,3.178864956,-9.730413437,3.049353361,2024-06-05 15:55:15.502760
48.54276037,3.178864956,-9.730413437,3.049353361,2024-06-05 15:55:15.542760
48.58276037,3.178864956,-9.730413437,3.049353361,2024-06-05 15:55:15.582760
48.62276037,3.178864956,-9.730413437,3.049353361,2024-06-05 15:55:15.622760
48.66276037,3.178864956,-9.730413437,3.049353361,2024-06-05 15:55:15.662760
48.70276037,3.178864956,-9.730413437,3.049353361,2024-06-05 15:55:15.702760
48.74276037,3.178864956,-9.730413437,3.049353361,2024-06-05 15:55:15.742760
48.78276037,3.178864956,-9.730413437,3.049353361,2024-06-05 15:55:15.782760
48.82276037,3.178864956,-9.730413437,3.049353361,2024-06-05 15:55:15.822760
48.86276037,3.178864956,-9.730413437,3.049353361,2024-06-05 15:55:15.862760
48.90276037,3.178864956,-9.730413437,3.049353361,2024-06-05 15:55:15.902760
48.94276037,3.178864956,-9.730413437,3.049353361,2024-06-05 15:55:15.942760
48.98276037,3.178864956,-9.730413437,3.049353361,2024-06-05 15:55:15.982760
49.02276037,3.178864956,-9.730413437,3.049353361,2024-06-05 15:55:16.022760
49.06276037,3.178864956,-9.730413437,3.049353361,2024-06-05 15:55:16.062760
49.10276037,3.178864956,-9.730413437,3.049353361,2024-06-05 15:55:16.102760
49.14276037,3.178864956,-9.730413437,3.049353361,2024-06-05 15:55:16.142760
49.18276037,-0.147457689,-8.925527573,0.6382854581,2024-06-05 15:55:16.182760
49.22276037,-0.147457689,-8.925527573,0.6382854581,2024-06-05 15:55:16.222760
49.26276037,-0.147457689,-8.925527573,0.6382854581,2024-06-05 15:55:16.262760
49.30276037,-0.147457689,-8.925527573,0.6382854581,2024-06-05 15:55:16.302760
49.34276037,-0.147457689,-8.925527573,0.6382854581,2024-06-05 15:55:16.342760
49.38276037,-0.147457689,-8.925527573,0.6382854581,2024-06-05 15:55:16.382760
49.42276037,0.06580262631,-8.846564293,0.3376871049,2024-06-05 15:55:16.422760
49.46276037,0.06580262631,-8.846564293,0.3376871049,2024-06-05 15:55:16.462760
49.50276037,0.06580262631,-8.846564293,0.3376871049,2024-06-05 15:55:16.502760
49.54276037,0.06580262631,-8.846564293,0.3376871049,2024-06-05 15:55:16.542760
49.58276037,0.06580262631,-8.846564293,0.3376871049,2024-06-05 15:55:16.582760
49.62276037,0.06580262631,-8.846564293,0.3376871049,2024-06-05 15:55:16.622760
49.66276037,0.06580262631,-8.846564293,0.3376871049,2024-06-05 15:55:16.662760
49.70276037,0.06580262631,-8.846564293,0.3376871049,2024-06-05 15:55:16.702760
49.74276037,0.06580262631,-8.846564293,0.3376871049,2024-06-05 15:55:16.742760
49.78276037,0.06580262631,-8.846564293,0.3376871049,2024-06-05 15:55:16.782760
49.82276037,-0.9643075466,-10.02383327,0.9774680734,2024-06-05 15:55:16.822760
49.86276037,-0.9643075466,-10.02383327,0.9774680734,2024-06-05 15:55:16.862760
49.90276037,-0.9643075466,-10.02383327,0.9774680734,2024-06-05 15:55:16.902760
49.94276037,-0.9643075466,-10.02383327,0.9774680734,2024-06-05 15:55:16.942760
49.98276037,-0.9643075466,-10.02383327,0.9774680734,2024-06-05 15:55:16.982760
50.02276037,-0.9643075466,-10.02383327,0.9774680734,2024-06-05 15:55:17.022760
50.06276037,-0.9643075466,-10.02383327,0.9774680734,2024-06-05 15:55:17.062760
50.10276037,-0.9643075466,-10.02383327,0.9774680734,2024-06-05 15:55:17.102760
50.14276037,-0.9643075466,-10.02383327,0.9774680734,2024-06-05 15:55:17.142760
50.18276037,-0.9643075466,-10.02383327,0.9774680734,2024-06-05 15:55:17.182760
50.22276037,-0.9643075466,-10.02383327,0.9774680734,2024-06-05 15:55:17.222760
50.26276037,-0.9643075466,-10.02383327,0.9774680734,2024-06-05 15:55:17.262760
50.30276037,-0.9643075466,-10.02383327,0.9774680734,2024-06-05 15:55:17.302760
50.34276037,-0.9643075466,-10.02383327,0.9774680734,2024-06-05 15:55:17.342760
50.38276037,-0.9643075466,-10.02383327,0.9774680734,2024-06-05 15:55:17.382760
50.42276037,-0.3723830283,-9.74835968,-0.5808576941,2024-06-05 15:55:17.422760
50.46276037,-0.3723830283,-9.74835968,-0.5808576941,2024-06-05 15:55:17.462760
50.50276037,-0.3723830283,-9.74835968,-0.5808576941,2024-06-05 15:55:17.502760
50.54276037,-0.3723830283,-9.74835968,-0.5808576941,2024-06-05 15:55:17.542760
50.58276037,-0.3723830283,-9.74835968,-0.5808576941,2024-06-05 15:55:17.582760
50.62276037,-0.3723830283,-9.74835968,-0.5808576941,2024-06-05 15:55:17.622760
50.62276037,-1.057627559,-11.84327602,-0.6394818425,2024-06-05 15:55:17.622760
50.70276037,-1.057627559,-11.84327602,-0.6394818425,2024-06-05 15:55:17.702760
50.74276037,-1.057627559,-11.84327602,-0.6394818425,2024-06-05 15:55:17.742760
50.78276037,-1.057627559,-11.84327602,-0.6394818425,2024-06-05 15:55:17.782760
50.82276037,-1.057627559,-11.84327602,-0.6394818425,2024-06-05 15:55:17.822760
50.86276037,-1.057627559,-11.84327602,-0.6394818425,2024-06-05 15:55:17.862760
50.90276037,-1.057627559,-11.84327602,-0.6394818425,2024-06-05 15:55:17.902760
50.94276037,-1.057627559,-11.84327602,-0.6394818425,2024-06-05 15:55:17.942760
50.98276037,-1.057627559,-11.84327602,-0.6394818425,2024-06-05 15:55:17.982760
51.02276037,-1.057627559,-11.84327602,-0.6394818425,2024-06-05 15:55:18.022760
51.06276037,-1.057627559,-11.84327602,-0.6394818425,2024-06-05 15:55:18.062760
51.10276037,-1.057627559,-11.84327602,-0.6394818425,2024-06-05 15:55:18.102760
51.14276037,-1.057627559,-11.84327602,-0.6394818425,2024-06-05 15:55:18.142760
51.18276037,-1.057627559,-11.84327602,-0.6394818425,2024-06-05 15:55:18.182760
51.22276037,-1.057627559,-11.84327602,-0.6394818425,2024-06-05 15:55:18.222760
51.26276037,-1.057627559,-11.84327602,-0.6394818425,2024-06-05 15:55:18.262760
51.30276037,-1.057627559,-11.84327602,-0.6394818425,2024-06-05 15:55:18.302760
51.34276037,-1.057627559,-11.84327602,-0.6394818425,2024-06-05 15:55:18.342760
51.38276037,-1.057627559,-11.84327602,-0.6394818425,2024-06-05 15:55:18.382760
51.42276037,2.400300264,-7.119544506,1.547558069,2024-06-05 15:55:18.422760
51.46276037,2.400300264,-7.119544506,1.547558069,2024-06-05 15:55:18.462760
51.50276037,2.400300264,-7.119544506,1.547558069,2024-06-05 15:55:18.502760
51.54276037,2.400300264,-7.119544506,1.547558069,2024-06-05 15:55:18.542760
51.58276037,2.400300264,-7.119544506,1.547558069,2024-06-05 15:55:18.582760
51.62276037,2.400300264,-7.119544506,1.547558069,2024-06-05 15:55:18.622760
51.66276037,2.400300264,-7.119544506,1.547558069,2024-06-05 15:55:18.662760
51.70276037,2.400300264,-7.119544506,1.547558069,2024-06-05 15:55:18.702760
51.74276037,2.400300264,-7.119544506,1.547558069,2024-06-05 15:55:18.742760
51.78276037,2.400300264,-7.119544506,1.547558069,2024-06-05 15:55:18.782760
51.82276037,2.400300264,-7.119544506,1.547558069,2024-06-05 15:55:18.822760
51.86276037,2.400300264,-7.119544506,1.547558069,2024-06-05 15:55:18.862760
51.90276037,2.400300264,-7.119544506,1.547558069,2024-06-05 15:55:18.902760
51.94276037,2.400300264,-7.119544506,1.547558069,2024-06-05 15:55:18.942760
51.98276037,2.400300264,-7.119544506,1.547558069,2024-06-05 15:55:18.982760
52.02276037,2.400300264,-7.119544506,1.547558069,2024-06-05 15:55:19.022760
52.06276037,2.400300264,-7.119544506,1.547558069,2024-06-05 15:55:19.062760
52.10276037,2.400300264,-7.119544506,1.547558069,2024-06-05 15:55:19.102760
52.14276037,2.400300264,-7.119544506,1.547558069,2024-06-05 15:55:19.142760
52.18276037,2.400300264,-7.119544506,1.547558069,2024-06-05 15:55:19.182760
52.22276037,2.400300264,-7.119544506,1.547558069,2024-06-05 15:55:19.222760
52.26276037,2.400300264,-7.119544506,1.547558069,2024-06-05 15:55:19.262760
52.30276037,2.400300264,-7.119544506,1.547558069,2024-06-05 15:55:19.302760
52.34276037,2.400300264,-7.119544506,1.547558069,2024-06-05 15:55:19.342760
52.38276037,-3.649652719,-9.944869995,-1.054038405,2024-06-05 15:55:19.382760
52.42276037,0.06460621208,-5.252245903,0.3771686554,2024-06-05 15:55:19.422760
52.46276037,0.06460621208,-5.252245903,0.3771686554,2024-06-05 15:55:19.462760
52.50276037,0.06460621208,-5.252245903,0.3771686554,2024-06-05 15:55:19.502760
52.54276037,0.06460621208,-5.252245903,0.3771686554,2024-06-05 15:55:19.542760
52.58276037,0.06460621208,-5.252245903,0.3771686554,2024-06-05 15:55:19.582760
52.62276037,0.06460621208,-5.252245903,0.3771686554,2024-06-05 15:55:19.622760
52.66276037,-2.54656148,-13.358531,8.210671425,2024-06-05 15:55:19.662760
52.70276037,-2.54656148,-13.358531,8.210671425,2024-06-05 15:55:19.702760
52.74276037,-2.54656148,-13.358531,8.210671425,2024-06-05 15:55:19.742760
52.78276037,-2.54656148,-13.358531,8.210671425,2024-06-05 15:55:19.782760
52.82276037,-2.54656148,-13.358531,8.210671425,2024-06-05 15:55:19.822760
52.86276037,-2.54656148,-13.358531,8.210671425,2024-06-05 15:55:19.862760
52.90276037,-2.54656148,-13.358531,8.210671425,2024-06-05 15:55:19.902760
52.94276037,-2.54656148,-13.358531,8.210671425,2024-06-05 15:55:19.942760
52.98276037,-2.54656148,-13.358531,8.210671425,2024-06-05 15:55:19.982760
53.02276037,-2.54656148,-13.358531,8.210671425,2024-06-05 15:55:20.022760
53.06276037,-2.54656148,-13.358531,8.210671425,2024-06-05 15:55:20.062760
53.10276037,-2.54656148,-13.358531,8.210671425,2024-06-05 15:55:20.102760
53.14276037,-2.54656148,-13.358531,8.210671425,2024-06-05 15:55:20.142760
53.18276037,-3.433999538,-10.72104168,7.948358536,2024-06-05 15:55:20.182760
53.22276037,-3.433999538,-10.72104168,7.948358536,2024-06-05 15:55:20.222760
53.26276037,-3.433999538,-10.72104168,7.948358536,2024-06-05 15:55:20.262760
53.30276037,-3.433999538,-10.72104168,7.948358536,2024-06-05 15:55:20.302760
53.34276037,-3.433999538,-10.72104168,7.948358536,2024-06-05 15:55:20.342760
53.38276037,-3.433999538,-10.72104168,7.948358536,2024-06-05 15:55:20.382760
53.42276037,6.272485256,-16.06780434,-0.5856433511,2024-06-05 15:55:20.422760
53.46276037,6.272485256,-16.06780434,-0.5856433511,2024-06-05 15:55:20.462760
53.50276037,6.272485256,-16.06780434,-0.5856433511,2024-06-05 15:55:20.502760
53.54276037,6.272485256,-16.06780434,-0.5856433511,2024-06-05 15:55:20.542760
53.58276037,6.272485256,-16.06780434,-0.5856433511,2024-06-05 15:55:20.582760
53.62276037,6.272485256,-16.06780434,-0.5856433511,2024-06-05 15:55:20.622760
53.66276037,6.272485256,-16.06780434,-0.5856433511,2024-06-05 15:55:20.662760
53.70276037,6.272485256,-16.06780434,-0.5856433511,2024-06-05 15:55:20.702760
53.74276037,6.272485256,-16.06780434,-0.5856433511,2024-06-05 15:55:20.742760
53.78276037,6.272485256,-16.06780434,-0.5856433511,2024-06-05 15:55:20.782760
53.82276037,6.272485256,-16.06780434,-0.5856433511,2024-06-05 15:55:20.822760
53.86276037,6.272485256,-16.06780434,-0.5856433511,2024-06-05 15:55:20.862760
53.90276037,6.272485256,-16.06780434,-0.5856433511,2024-06-05 15:55:20.902760
53.94276037,6.272485256,-16.06780434,-0.5856433511,2024-06-05 15:55:20.942760
53.98276037,6.272485256,-16.06780434,-0.5856433511,2024-06-05 15:55:20.982760
54.02276037,6.272485256,-16.06780434,-0.5856433511,2024-06-05 15:55:21.022760
54.06276037,6.272485256,-16.06780434,-0.5856433511,2024-06-05 15:55:21.062760
54.10276037,6.272485256,-16.06780434,-0.5856433511,2024-06-05 15:55:21.102760
54.14276037,6.272485256,-16.06780434,-0.5856433511,2024-06-05 15:55:21.142760
54.18276037,6.272485256,-16.06780434,-0.5856433511,2024-06-05 15:55:21.182760
54.22276037,6.272485256,-16.06780434,-0.5856433511,2024-06-05 15:55:21.222760
54.26276037,6.272485256,-16.06780434,-0.5856433511,2024-06-05 15:55:21.262760
54.30276037,6.272485256,-16.06780434,-0.5856433511,2024-06-05 15:55:21.302760
54.34276037,6.272485256,-16.06780434,-0.5856433511,2024-06-05 15:55:21.342760
54.38276037,6.272485256,-16.06780434,-0.5856433511,2024-06-05 15:55:21.382760
54.42276037,-1.190429211,-12.15224934,6.495316982,2024-06-05 15:55:21.422760
54.46276037,-1.190429211,-12.15224934,6.495316982,2024-06-05 15:55:21.462760
54.50276037,-1.190429211,-12.15224934,6.495316982,2024-06-05 15:55:21.502760
54.54276037,-1.190429211,-12.15224934,6.495316982,2024-06-05 15:55:21.542760
54.58276037,-1.190429211,-12.15224934,6.495316982,2024-06-05 15:55:21.582760
54.62276037,-1.190429211,-12.15224934,6.495316982,2024-06-05 15:55:21.622760
54.66276037,-1.190429211,-12.15224934,6.495316982,2024-06-05 15:55:21.662760
54.70276037,-1.190429211,-12.15224934,6.495316982,2024-06-05 15:55:21.702760
54.74276037,-1.190429211,-12.15224934,6.495316982,2024-06-05 15:55:21.742760
54.78276037,-1.190429211,-12.15224934,6.495316982,2024-06-05 15:55:21.782760
54.82276037,-1.190429211,-12.15224934,6.495316982,2024-06-05 15:55:21.822760
54.86276037,-1.190429211,-12.15224934,6.495316982,2024-06-05 15:55:21.862760
54.90276037,-1.190429211,-12.15224934,6.495316982,2024-06-05 15:55:21.902760
54.90276037,4.163511276,-4.846064091,2.685345173,2024-06-05 15:55:21.902760
54.98276037,4.163511276,-4.846064091,2.685345173,2024-06-05 15:55:21.982760
55.02276037,4.163511276,-4.846064091,2.685345173,2024-06-05 15:55:22.022760
55.06276037,4.163511276,-4.846064091,2.685345173,2024-06-05 15:55:22.062760
55.10276037,4.163511276,-4.846064091,2.685345173,2024-06-05 15:55:22.102760
55.14276037,4.163511276,-4.846064091,2.685345173,2024-06-05 15:55:22.142760
55.18276037,4.163511276,-4.846064091,2.685345173,2024-06-05 15:55:22.182760
55.22276037,4.163511276,-4.846064091,2.685345173,2024-06-05 15:55:22.222760
55.26276037,4.163511276,-4.846064091,2.685345173,2024-06-05 15:55:22.262760
55.30276037,4.163511276,-4.846064091,2.685345173,2024-06-05 15:55:22.302760
55.34276037,4.163511276,-4.846064091,2.685345173,2024-06-05 15:55:22.342760
55.38276037,4.163511276,-4.846064091,2.685345173,2024-06-05 15:55:22.382760
55.42276037,4.163511276,-4.846064091,2.685345173,2024-06-05 15:55:22.422760
55.46276037,4.163511276,-4.846064091,2.685345173,2024-06-05 15:55:22.462760
55.50276037,4.163511276,-4.846064091,2.685345173,2024-06-05 15:55:22.502760
55.54276037,4.163511276,-4.846064091,2.685345173,2024-06-05 15:55:22.542760
55.58276037,4.163511276,-4.846064091,2.685345173,2024-06-05 15:55:22.582760
55.62276037,4.163511276,-4.846064091,2.685345173,2024-06-05 15:55:22.622760
55.66276037,4.163511276,-4.846064091,2.685345173,2024-06-05 15:55:22.662760
55.70276037,4.163511276,-4.846064091,2.685345173,2024-06-05 15:55:22.702760
55.74276037,4.163511276,-4.846064091,2.685345173,2024-06-05 15:55:22.742760
55.78276037,4.163511276,-4.846064091,2.685345173,2024-06-05 15:55:22.782760
55.82276037,4.163511276,-4.846064091,2.685345173,2024-06-05 15:55:22.822760
55.86276037,4.163511276,-4.846064091,2.685345173,2024-06-05 15:55:22.862760
55.90276037,4.163511276,-4.846064091,2.685345173,2024-06-05 15:55:22.902760
55.94276037,4.163511276,-4.846064091,2.685345173,2024-06-05 15:55:22.942760
55.98276037,4.163511276,-4.846064091,2.685345173,2024-06-05 15:55:22.982760
56.02276037,4.163511276,-4.846064091,2.685345173,2024-06-05 15:55:23.022760
56.06276037,4.163511276,-4.846064091,2.685345173,2024-06-05 15:55:23.062760
56.10276037,4.163511276,-4.846064091,2.685345173,2024-06-05 15:55:23.102760
56.14276037,4.163511276,-4.846064091,2.685345173,2024-06-05 15:55:23.142760
56.18276037,0.318544507,-10.56520939,1.242174029,2024-06-05 15:55:23.182760
56.22276037,0.318544507,-10.56520939,1.242174029,2024-06-05 15:55:23.222760
56.26276037,0.318544507,-10.56520939,1.242174029,2024-06-05 15:55:23.262760
56.30276037,0.318544507,-10.56520939,1.242174029,2024-06-05 15:55:23.302760
56.34276037,0.318544507,-10.56520939,1.242174029,2024-06-05 15:55:23.342760
56.38276037,0.318544507,-10.56520939,1.242174029,2024-06-05 15:55:23.382760
56.42276037,0.3197409213,-9.824032784,1.560718536,2024-06-05 15:55:23.422760
56.46276037,0.3197409213,-9.824032784,1.560718536,2024-06-05 15:55:23.462760
56.50276037,0.3197409213,-9.824032784,1.560718536,2024-06-05 15:55:23.502760
56.54276037,0.3197409213,-9.824032784,1.560718536,2024-06-05 15:55:23.542760
56.58276037,0.3197409213,-9.824032784,1.560718536,2024-06-05 15:55:23.582760
56.62276037,0.3197409213,-9.824032784,1.560718536,2024-06-05 15:55:23.622760
56.66276037,0.3197409213,-9.824032784,1.560718536,2024-06-05 15:55:23.662760
56.70276037,0.3197409213,-9.824032784,1.560718536,2024-06-05 15:55:23.702760
56.74276037,0.3197409213,-9.824032784,1.560718536,2024-06-05 15:55:23.742760
56.78276037,0.3197409213,-9.824032784,1.560718536,2024-06-05 15:55:23.782760
56.82276037,0.3197409213,-9.824032784,1.560718536,2024-06-05 15:55:23.822760
56.86276037,0.3197409213,-9.824032784,1.560718536,2024-06-05 15:55:23.862760
56.90276037,0.3197409213,-9.824032784,1.560718536,2024-06-05 15:55:23.902760
56.94276037,0.3197409213,-9.824032784,1.560718536,2024-06-05 15:55:23.942760
56.98276037,0.3197409213,-9.824032784,1.560718536,2024-06-05 15:55:23.982760
57.02276037,0.3197409213,-9.824032784,1.560718536,2024-06-05 15:55:24.022760
57.06276037,0.3197409213,-9.824032784,1.560718536,2024-06-05 15:55:24.062760
57.10276037,0.3197409213,-9.824032784,1.560718536,2024-06-05 15:55:24.102760
57.14276037,0.3197409213,-9.824032784,1.560718536,2024-06-05 15:55:24.142760
57.18276037,0.3197409213,-9.824032784,1.560718536,2024-06-05 15:55:24.182760
57.22276037,0.3197409213,-9.824032784,1.560718536,2024-06-05 15:55:24.222760
57.26276037,0.3197409213,-9.824032784,1.560718536,2024-06-05 15:55:24.262760
57.30276037,0.3197409213,-9.824032784,1.560718536,2024-06-05 15:55:24.302760
57.34276037,0.3197409213,-9.824032784,1.560718536,2024-06-05 15:55:24.342760
57.38276037,0.3197409213,-9.824032784,1.560718536,2024-06-05 15:55:24.382760
57.42276037,0.9475577474,-9.206983566,0.5449653864,2024-06-05 15:55:24.422760
57.46276037,0.9475577474,-9.206983566,0.5449653864,2024-06-05 15:55:24.462760
57.50276037,0.9475577474,-9.206983566,0.5449653864,2024-06-05 15:55:24.502760
57.54276037,0.9475577474,-9.206983566,0.5449653864,2024-06-05 15:55:24.542760
57.58276037,0.9475577474,-9.206983566,0.5449653864,2024-06-05 15:55:24.582760
57.62276037,0.9475577474,-9.206983566,0.5449653864,2024-06-05 15:55:24.622760
57.66276037,0.9475577474,-9.206983566,0.5449653864,2024-06-05 15:55:24.662760
57.70276037,0.9475577474,-9.206983566,0.5449653864,2024-06-05 15:55:24.702760
57.74276037,0.9475577474,-9.206983566,0.5449653864,2024-06-05 15:55:24.742760
57.78276037,0.9475577474,-9.206983566,0.5449653864,2024-06-05 15:55:24.782760
57.82276037,0.9475577474,-9.206983566,0.5449653864,2024-06-05 15:55:24.822760
57.86276037,0.9475577474,-9.206983566,0.5449653864,2024-06-05 15:55:24.862760
57.90276037,0.9475577474,-9.206983566,0.5449653864,2024-06-05 15:55:24.902760
57.94276037,0.9475577474,-9.206983566,0.5449653864,2024-06-05 15:55:24.942760
57.98276037,0.9475577474,-9.206983566,0.5449653864,2024-06-05 15:55:24.982760
58.02276037,0.9475577474,-9.206983566,0.5449653864,2024-06-05 15:55:25.022760
58.06276037,0.9475577474,-9.206983566,0.5449653864,2024-06-05 15:55:25.062760
58.10276037,0.9475577474,-9.206983566,0.5449653864,2024-06-05 15:55:25.102760
58.14276037,0.9475577474,-9.206983566,0.5449653864,2024-06-05 15:55:25.142760
58.18276037,0.9475577474,-9.206983566,0.5449653864,2024-06-05 15:55:25.182760
58.22276037,0.9475577474,-9.206983566,0.5449653864,2024-06-05 15:55:25.222760
58.26276037,0.9475577474,-9.206983566,0.5449653864,2024-06-05 15:55:25.262760
58.30276037,0.9475577474,-9.206983566,0.5449653864,2024-06-05 15:55:25.302760
58.34276037,0.9475577474,-9.206983566,0.5449653864,2024-06-05 15:55:25.342760
58.38276037,0.9475577474,-9.206983566,0.5449653864,2024-06-05 15:55:25.382760
58.42276037,-0.04067798331,-12.06610775,6.91106987,2024-06-05 15:55:25.422760
58.46276037,-0.04067798331,-12.06610775,6.91106987,2024-06-05 15:55:25.462760
58.50276037,-0.04067798331,-12.06610775,6.91106987,2024-06-05 15:55:25.502760
58.54276037,-0.04067798331,-12.06610775,6.91106987,2024-06-05 15:55:25.542760
58.58276037,-0.04067798331,-12.06610775,6.91106987,2024-06-05 15:55:25.582760
58.62276037,-0.04067798331,-12.06610775,6.91106987,2024-06-05 15:55:25.622760
58.66276037,-0.04067798331,-12.06610775,6.91106987,2024-06-05 15:55:25.662760
58.70276037,-0.04067798331,-12.06610775,6.91106987,2024-06-05 15:55:25.702760
58.74276037,-0.04067798331,-12.06610775,6.91106987,2024-06-05 15:55:25.742760
58.78276037,-0.04067798331,-12.06610775,6.91106987,2024-06-05 15:55:25.782760
58.82276037,-0.04067798331,-12.06610775,6.91106987,2024-06-05 15:55:25.822760
58.86276037,-0.04067798331,-12.06610775,6.91106987,2024-06-05 15:55:25.862760
58.90276037,-0.04067798331,-12.06610775,6.91106987,2024-06-05 15:55:25.902760
58.94276037,-0.04067798331,-12.06610775,6.91106987,2024-06-05 15:55:25.942760
58.98276037,-0.04067798331,-12.06610775,6.91106987,2024-06-05 15:55:25.982760
59.02276037,-0.04067798331,-12.06610775,6.91106987,2024-06-05 15:55:26.022760
59.06276037,-0.04067798331,-12.06610775,6.91106987,2024-06-05 15:55:26.062760
59.10276037,-0.04067798331,-12.06610775,6.91106987,2024-06-05 15:55:26.102760
59.14276037,-0.04067798331,-12.06610775,6.91106987,2024-06-05 15:55:26.142760
59.18276037,-1.391725421,-11.72961617,5.334797859,2024-06-05 15:55:26.182760
59.22276037,-1.391725421,-11.72961617,5.334797859,2024-06-05 15:55:26.222760
59.26276037,-1.391725421,-11.72961617,5.334797859,2024-06-05 15:55:26.262760
59.30276037,-1.391725421,-11.72961617,5.334797859,2024-06-05 15:55:26.302760
59.34276037,-1.391725421,-11.72961617,5.334797859,2024-06-05 15:55:26.342760
59.38276037,-1.391725421,-11.72961617,5.334797859,2024-06-05 15:55:26.382760
59.42276037,-1.391725421,-11.72961617,5.334797859,2024-06-05 15:55:26.422760
59.46276037,-1.391725421,-11.72961617,5.334797859,2024-06-05 15:55:26.462760
59.50276037,-1.391725421,-11.72961617,5.334797859,2024-06-05 15:55:26.502760
59.54276037,-1.391725421,-11.72961617,5.334797859,2024-06-05 15:55:26.542760
59.58276037,-1.391725421,-11.72961617,5.334797859,2024-06-05 15:55:26.582760
59.62276037,-1.391725421,-11.72961617,5.334797859,2024-06-05 15:55:26.622760
59.66276037,4.331008911,-7.151847839,4.35852623,2024-06-05 15:55:26.662760
59.70276037,4.331008911,-7.151847839,4.35852623,2024-06-05 15:55:26.702760
59.74276037,4.331008911,-7.151847839,4.35852623,2024-06-05 15:55:26.742760
59.78276037,4.331008911,-7.151847839,4.35852623,2024-06-05 15:55:26.782760
59.82276037,4.331008911,-7.151847839,4.35852623,2024-06-05 15:55:26.822760
59.86276037,4.331008911,-7.151847839,4.35852623,2024-06-05 15:55:26.862760
59.90276037,4.331008911,-7.151847839,4.35852623,2024-06-05 15:55:26.902760
59.94276037,4.331008911,-7.151847839,4.35852623,2024-06-05 15:55:26.942760
59.98276037,4.331008911,-7.151847839,4.35852623,2024-06-05 15:55:26.982760
60.02276037,4.331008911,-7.151847839,4.35852623,2024-06-05 15:55:27.022760
60.06276037,4.331008911,-7.151847839,4.35852623,2024-06-05 15:55:27.062760
60.10276037,4.331008911,-7.151847839,4.35852623,2024-06-05 15:55:27.102760
60.14276037,4.331008911,-7.151847839,4.35852623,2024-06-05 15:55:27.142760
60.18276037,4.331008911,-7.151847839,4.35852623,2024-06-05 15:55:27.182760
60.22276037,4.331008911,-7.151847839,4.35852623,2024-06-05 15:55:27.222760
60.26276037,4.331008911,-7.151847839,4.35852623,2024-06-05 15:55:27.262760
60.30276037,4.331008911,-7.151847839,4.35852623,2024-06-05 15:55:27.302760
60.34276037,4.331008911,-7.151847839,4.35852623,2024-06-05 15:55:27.342760
60.38276037,4.331008911,-7.151847839,4.35852623,2024-06-05 15:55:27.382760
60.42276037,4.331008911,-7.151847839,4.35852623,2024-06-05 15:55:27.422760
60.46276037,4.331008911,-7.151847839,4.35852623,2024-06-05 15:55:27.462760
60.50276037,4.331008911,-7.151847839,4.35852623,2024-06-05 15:55:27.502760
60.54276037,4.331008911,-7.151847839,4.35852623,2024-06-05 15:55:27.542760
60.58276037,4.331008911,-7.151847839,4.35852623,2024-06-05 15:55:27.582760
60.62276037,4.331008911,-7.151847839,4.35852623,2024-06-05 15:55:27.622760
60.66276037,4.331008911,-7.151847839,4.35852623,2024-06-05 15:55:27.662760
60.70276037,4.331008911,-7.151847839,4.35852623,2024-06-05 15:55:27.702760
60.74276037,4.331008911,-7.151847839,4.35852623,2024-06-05 15:55:27.742760
60.78276037,4.331008911,-7.151847839,4.35852623,2024-06-05 15:55:27.782760
60.82276037,4.331008911,-7.151847839,4.35852623,2024-06-05 15:55:27.822760
60.86276037,4.331008911,-7.151847839,4.35852623,2024-06-05 15:55:27.862760
60.90276037,4.735994339,-13.64955807,-0.1893320978,2024-06-05 15:55:27.902760
60.94276037,4.735994339,-13.64955807,-0.1893320978,2024-06-05 15:55:27.942760
60.98276037,4.735994339,-13.64955807,-0.1893320978,2024-06-05 15:55:27.982760
61.02276037,4.735994339,-13.64955807,-0.1893320978,2024-06-05 15:55:28.022760
61.06276037,4.735994339,-13.64955807,-0.1893320978,2024-06-05 15:55:28.062760
61.10276037,1.000199914,-9.511469841,-2.396710873,2024-06-05 15:55:28.102760
61.14276037,1.494915962,-9.435796738,-0.4277170599,2024-06-05 15:55:28.142760
61.18276037,1.196411371,-10.24427223,0.4504488707,2024-06-05 15:55:28.182760
61.22276037,1.351047516,-9.519845009,-1.179661512,2024-06-05 15:55:28.222760
61.26276037,1.075573802,-9.349655151,-0.8754739761,2024-06-05 15:55:28.262760
61.30276037,0.494716078,-9.812067986,-0.8946165442,2024-06-05 15:55:28.302760
61.34276037,0.3340978622,-9.681360245,-1.183250785,2024-06-05 15:55:28.342760
61.38276037,0.3340978622,-9.681360245,-1.183250785,2024-06-05 15:55:28.382760
61.42276037,0.3340978622,-9.681360245,-1.183250785,2024-06-05 15:55:28.422760
61.46276037,0.3340978622,-9.681360245,-1.183250785,2024-06-05 15:55:28.462760
61.50276037,0.3340978622,-9.681360245,-1.183250785,2024-06-05 15:55:28.502760
61.54276037,0.3340978622,-9.681360245,-1.183250785,2024-06-05 15:55:28.542760
61.58276037,0.3340978622,-9.681360245,-1.183250785,2024-06-05 15:55:28.582760
61.62276037,0.3340978622,-9.681360245,-1.183250785,2024-06-05 15:55:28.622760
61.66276037,0.3340978622,-9.681360245,-1.183250785,2024-06-05 15:55:28.662760
61.70276037,0.3340978622,-9.681360245,-1.183250785,2024-06-05 15:55:28.702760
61.74276037,0.3340978622,-9.681360245,-1.183250785,2024-06-05 15:55:28.742760
61.78276037,0.3340978622,-9.681360245,-1.183250785,2024-06-05 15:55:28.782760
61.82276037,0.3340978622,-9.681360245,-1.183250785,2024-06-05 15:55:28.822760
61.86276037,0.3340978622,-9.681360245,-1.183250785,2024-06-05 15:55:28.862760
61.90276037,0.3340978622,-9.681360245,-1.183250785,2024-06-05 15:55:28.902760
61.94276037,0.3340978622,-9.681360245,-1.183250785,2024-06-05 15:55:28.942760
61.98276037,0.3340978622,-9.681360245,-1.183250785,2024-06-05 15:55:28.982760
62.02276037,0.3340978622,-9.681360245,-1.183250785,2024-06-05 15:55:29.022760
62.06276037,0.3340978622,-9.681360245,-1.183250785,2024-06-05 15:55:29.062760
62.10276037,0.3340978622,-9.681360245,-1.183250785,2024-06-05 15:55:29.102760
62.14276037,0.3340978622,-9.681360245,-1.183250785,2024-06-05 15:55:29.142760
62.18276037,0.3340978622,-9.681360245,-1.183250785,2024-06-05 15:55:29.182760
62.22276037,0.3340978622,-9.681360245,-1.183250785,2024-06-05 15:55:29.222760
