Time (s),Gyroscope x (rad/s),Gyroscope y (rad/s),Gyroscope z (rad/s),Datetime
0.032745631,-0.1886793971,-0.1367492825,0.3133116663,2024-06-05 15:54:27.032746
0.072716308,-0.3324858546,-0.1836195439,0.6343462467,2024-06-05 15:54:27.072716
0.112686933,-0.1748313755,-0.3173062801,0.7296846509,2024-06-05 15:54:27.112687
0.152657506,-0.08854749799,-0.1276948154,0.9820116758,2024-06-05 15:54:27.152658
0.231482871,0.2426068187,1.618088961,1.70863378,2024-06-05 15:54:27.231483
0.271453496,1.426613331,1.152715325,1.877206922,2024-06-05 15:54:27.271453
0.311424121,0.1541924775,-1.180677652,0.5424699187,2024-06-05 15:54:27.311424
0.352185579,-0.993596077,-0.8607082963,-0.478289634,2024-06-05 15:54:27.352186
0.393737819,-1.213699818,0.9468590021,0.03661738336,2024-06-05 15:54:27.393738
0.434512194,-1.242993832,0.6316831708,0.4399412274,2024-06-05 15:54:27.434512
0.474906204,-1.597982645,0.06724283099,-0.08561810106,2024-06-05 15:54:27.474906
0.515447663,-1.78506422,-0.3130453527,0.1330209672,2024-06-05 15:54:27.515448
0.555955736,-1.25551033,0.001198387123,0.006524552125,2024-06-05 15:54:27.555956
0.596447246,0.08668334037,1.642855644,-0.3067871034,2024-06-05 15:54:27.596447
0.636944694,-0.6167699099,1.077616334,0.02809552103,2024-06-05 15:54:27.636945
0.677519225,-0.4953333437,0.04487293959,-0.1242327988,2024-06-05 15:54:27.677519
0.71792334,-0.255256474,0.3336842358,0.008122402243,2024-06-05 15:54:27.717923
0.758423861,-0.3628450036,0.06697652489,0.04167724028,2024-06-05 15:54:27.758424
0.798928808,-0.4182371199,-0.108254306,0.1497983932,2024-06-05 15:54:27.798929
0.839390163,-0.4483299553,-0.09866721183,0.3938699067,2024-06-05 15:54:27.839390
0.879870111,-0.4049217105,-0.141542837,0.3805544972,2024-06-05 15:54:27.879870
0.920364225,-0.3860138059,-0.04034570232,0.4111799598,2024-06-05 15:54:27.920364
0.960849798,-0.4665720761,-0.3082517982,0.5126433969,2024-06-05 15:54:27.960850
1.001367871,-0.3913399875,-0.1838858575,0.417571336,2024-06-05 15:54:28.001368
1.041855163,-0.4145087898,-0.452457726,0.3143768907,2024-06-05 15:54:28.041855
1.082350371,-0.6346125603,-1.187601686,0.2576532364,2024-06-05 15:54:28.082350
1.122570892,-0.6412702799,-0.9603075981,0.08135717362,2024-06-05 15:54:28.122571
1.162646204,-0.2344844192,0.4458000064,0.1085206121,2024-06-05 15:54:28.162646
1.203587142,-0.3569862247,0.6298190355,0.273365438,2024-06-05 15:54:28.203587
1.244287194,-0.1588528752,0.5832150578,0.2400768995,2024-06-05 15:54:28.244287
1.284814486,-0.1591191888,0.5975957513,0.3303554058,2024-06-05 15:54:28.284814
1.324971465,-0.1647116542,0.6543194056,0.3989297748,2024-06-05 15:54:28.324971
1.365768236,-0.1995980442,0.7760222554,0.3549889028,2024-06-05 15:54:28.365768
1.406255058,-0.1295589656,0.8445966244,0.1348851323,2024-06-05 15:54:28.406255
1.446412038,-0.3071865737,0.767234087,0.01051917579,2024-06-05 15:54:28.446412
1.487212611,-0.395600915,0.8294170499,0.0731016174,2024-06-05 15:54:28.487213
1.527776256,-0.4806863964,0.4079842567,-0.08242240548,2024-06-05 15:54:28.527776
1.568261256,-0.4177044928,0.1527277827,0.0166442655,2024-06-05 15:54:28.568261
1.608760163,-0.1207707971,0.7184996605,0.1266295761,2024-06-05 15:54:28.608760
1.64918959,-0.1796249151,1.183074474,0.06511236727,2024-06-05 15:54:28.649190
1.689346621,-0.227560401,1.161503434,0.2451367527,2024-06-05 15:54:28.689347
1.729520215,-0.1322220564,1.536066055,0.2379464209,2024-06-05 15:54:28.729520
1.769860371,-0.1223686412,1.278412819,0.2283593267,2024-06-05 15:54:28.769860
1.811072454,-0.01691057347,1.162036061,0.3308880031,2024-06-05 15:54:28.811072
1.851580267,-0.2232994735,1.020093799,0.3149095178,2024-06-05 15:54:28.851580
1.892060527,-0.3998618424,0.6354115009,0.1846847683,2024-06-05 15:54:28.892061
1.932564173,-0.3689700961,0.7653699517,0.1199718714,2024-06-05 15:54:28.932564
1.972787871,-0.7909355164,0.9969249368,-0.1668421179,2024-06-05 15:54:28.972788
2.013512246,-1.429942131,1.024354696,-0.3563204408,2024-06-05 15:54:29.013512
2.054029069,-0.06750914454,0.5200999975,-0.5294207931,2024-06-05 15:54:29.054029
2.094501308,0.2106498331,0.3874785006,-0.7035863996,2024-06-05 15:54:29.094501
2.135051777,-0.8404688835,0.4937354922,-1.811428785,2024-06-05 15:54:29.135052
2.17550735,-1.999442339,0.9801475406,-1.994382501,2024-06-05 15:54:29.175507
2.215784329,-1.227015257,1.741389632,-2.705691814,2024-06-05 15:54:29.215784
2.256458756,-0.2579195499,2.528996468,-3.375856638,2024-06-05 15:54:29.256459
2.297025423,-0.6995918155,2.076005936,-2.838047028,2024-06-05 15:54:29.297025
2.337450944,-1.019960642,2.496240377,-2.694107533,2024-06-05 15:54:29.337451
2.377944121,-1.815157056,3.385710001,-1.88226676,2024-06-05 15:54:29.377944
2.418449486,-2.255098343,2.767475367,-1.035007,2024-06-05 15:54:29.418449
2.458726465,-2.104101419,1.445521235,0.1380808353,2024-06-05 15:54:29.458726
2.499391569,-1.986659646,1.314630747,0.3864132762,2024-06-05 15:54:29.499392
2.539668444,-0.6415365934,-0.4103810191,0.7086462975,2024-06-05 15:54:29.539668
2.579945371,-0.03155753016,0.1489994675,-0.3081186414,2024-06-05 15:54:29.579945
2.620497611,-0.1367492825,0.2338186502,-0.4319519997,2024-06-05 15:54:29.620498
2.661405892,-0.5936011076,-1.387599111,-0.3760272563,2024-06-05 15:54:29.661406
2.701892454,0.3320863843,-1.193460464,-1.061371565,2024-06-05 15:54:29.701892
2.742371048,0.8360747695,-0.5890738368,-0.2677729428,2024-06-05 15:54:29.742371
2.782868183,0.5821498632,-2.200771332,-0.4442021847,2024-06-05 15:54:29.782868
2.823352923,0.771894455,-2.068682432,-1.242993832,2024-06-05 15:54:29.823353
2.863842767,0.9838758707,-1.323951483,-0.5523233414,2024-06-05 15:54:29.863843
2.904317246,1.018229604,-0.3580514491,-0.6471290588,2024-06-05 15:54:29.904317
2.944808756,0.7857425213,-1.256575465,-0.9673647285,2024-06-05 15:54:29.944809
2.98529459,0.2474003732,-0.8979914188,-1.797580719,2024-06-05 15:54:29.985295
3.025776621,-0.2893439233,-1.29039669,-1.093328595,2024-06-05 15:54:30.025777
3.066288965,-0.5512580872,-1.203846455,-0.7272878289,2024-06-05 15:54:30.066289
3.106768236,-0.1487331539,-0.5951989293,-0.5781552196,2024-06-05 15:54:30.106768
3.147256361,-0.007057168987,-0.6718957424,-0.4473978579,2024-06-05 15:54:30.147256
3.187697923,0.332885325,-0.342605561,-0.5350132585,2024-06-05 15:54:30.187698
3.228143496,0.5922695398,-0.04700340703,-0.8292838931,2024-06-05 15:54:30.228143
3.268730319,0.3754946291,-0.1455374658,-0.4455337226,2024-06-05 15:54:30.268730
3.309212663,-0.4030575454,-0.1146457046,-1.270956159,2024-06-05 15:54:30.309213
3.349565683,-0.06005251035,-0.1399449855,-1.214765072,2024-06-05 15:54:30.349566
3.389918756,-0.6889394522,1.100518823,-1.351647496,2024-06-05 15:54:30.389919
3.430700111,-0.1266295761,0.1604507267,-0.7810820937,2024-06-05 15:54:30.430700
3.471154642,-0.9251548648,1.351114988,0.1106510833,2024-06-05 15:54:30.471155
3.511671256,-0.5110455155,0.9479242563,-0.03182383627,2024-06-05 15:54:30.511671
3.552169642,-0.3513937294,0.3251623809,0.3370130956,2024-06-05 15:54:30.552170
3.592659642,-0.2523270845,0.3254286945,0.248865068,2024-06-05 15:54:30.592660
3.633190111,-0.3324858546,0.6037208438,-0.1205044836,2024-06-05 15:54:30.633190
3.673640579,-0.3870790601,0.3062545061,-0.239810586,2024-06-05 15:54:30.673641
3.714117767,-0.4461994767,0.3709673882,-0.1436733007,2024-06-05 15:54:30.714118
3.754606933,-0.6900047064,0.5187684894,-0.3707011044,2024-06-05 15:54:30.754607
3.795103756,-0.4232969582,0.07469946891,-0.3217003644,2024-06-05 15:54:30.795104
3.835615996,0.04886756465,0.4489957094,0.06644391268,2024-06-05 15:54:30.835616
3.876087558,0.3041240275,0.112781547,0.2749632597,2024-06-05 15:54:30.876088
3.916568652,0.1643121988,-0.5422036052,-0.5296871066,2024-06-05 15:54:30.916569
3.957055371,1.028615594,1.446053863,-1.674013734,2024-06-05 15:54:30.957055
3.997575527,2.434456825,0.4942681193,-1.130079031,2024-06-05 15:54:30.997576
4.038058236,1.635398984,-0.3564535975,-0.5038552284,2024-06-05 15:54:31.038058
4.078555267,0.9031844735,1.803439498,-0.4282236695,2024-06-05 15:54:31.078555
4.119028652,0.9111737013,-0.2938711643,-0.458316505,2024-06-05 15:54:31.119029
4.159432142,0.7756227851,-0.504121542,1.074687004,2024-06-05 15:54:31.159432
4.1998511,0.2593842447,-0.663906455,0.7810820937,2024-06-05 15:54:31.199851
4.24025334,0.1840189993,-1.256309152,0.405321151,2024-06-05 15:54:31.240253
4.280971725,-0.374296248,-0.9987891316,-0.1439396143,2024-06-05 15:54:31.280972
4.321467663,-0.8322132826,-0.8492570519,-0.6987928748,2024-06-05 15:54:31.321468
4.361969642,-0.1753639877,-1.04246366,-0.8761541843,2024-06-05 15:54:31.361970
4.402449642,0.1042596847,0.1266295761,0.2720338702,2024-06-05 15:54:31.402450
4.442881204,-0.008388710208,0.01904104091,0.2920069993,2024-06-05 15:54:31.442881
4.483400058,-0.5270240307,-0.2302234918,-0.5216978788,2024-06-05 15:54:31.483400
4.523914486,-0.3703016341,-0.685211122,-0.1972012669,2024-06-05 15:54:31.523914
4.564403704,-0.5347470045,-0.218505919,-0.5251598954,2024-06-05 15:54:31.564404
4.604913079,-0.5259587765,-0.3308880031,-0.9575113058,2024-06-05 15:54:31.604913
4.645366465,-1.780537009,-1.964023352,-0.4332835376,2024-06-05 15:54:31.645366
4.685837611,-1.001052737,0.6271559596,0.02969337068,2024-06-05 15:54:31.685838
4.726378183,-1.365495563,0.2758953571,0.3584509194,2024-06-05 15:54:31.726378
4.766839538,-0.5539211631,0.7597774267,0.1665758193,2024-06-05 15:54:31.766840
4.80731709,-0.5595136285,0.6628412604,-0.1125152409,2024-06-05 15:54:31.807317
4.847792402,-0.7824136615,0.6031882167,-0.3936035931,2024-06-05 15:54:31.847792
4.888364225,-1.098654747,0.04407401755,-0.5110455155,2024-06-05 15:54:31.888364
4.928855267,-0.6963961124,-0.1905435622,-0.5653724074,2024-06-05 15:54:31.928855
4.969250892,0.2801562846,-0.6332810521,-0.4913387299,2024-06-05 15:54:31.969251
5.009670267,0.005459319334,-0.2432725877,0.06191666797,2024-06-05 15:54:32.009670
5.05008959,0.9332773089,-0.1838858575,0.3469996452,2024-06-05 15:54:32.050090
5.090508965,2.04298377,-0.6428681016,0.7267552018,2024-06-05 15:54:32.090509
5.131213652,2.917407036,-0.4239627421,1.161503434,2024-06-05 15:54:32.131214
5.171729121,2.758154631,1.398784161,1.101584077,2024-06-05 15:54:32.171729
5.212162715,1.130345345,1.574414372,0.7224943042,2024-06-05 15:54:32.212163
5.252681777,1.298119545,-0.3231650591,0.7925333977,2024-06-05 15:54:32.252682
5.29319084,0.7139724493,-0.700124383,1.148986936,2024-06-05 15:54:32.293191
5.333677038,0.6154384017,-1.794385076,1.1396662,2024-06-05 15:54:32.333677
5.374174538,0.06484606117,-1.859896898,0.7049179673,2024-06-05 15:54:32.374175
5.414637246,-0.7451304793,-1.264831066,0.04220985994,2024-06-05 15:54:32.414637
5.455070788,-1.269624591,-1.25471139,-0.6548519731,2024-06-05 15:54:32.455071
5.495613808,-0.9222254753,-0.929415822,-1.065632463,2024-06-05 15:54:32.495614
5.536124486,0.4966649115,-0.7115756869,0.8173000216,2024-06-05 15:54:32.536124
5.576597402,0.003861469682,0.2479329854,0.2368811965,2024-06-05 15:54:32.576597
5.61711209,-0.3527252972,0.009720250964,-0.6098458767,2024-06-05 15:54:32.617112
5.657664954,-0.2086525112,0.8288844228,-0.1300915778,2024-06-05 15:54:32.657665
5.698045996,-1.04579258,0.5885412693,-0.6231613159,2024-06-05 15:54:32.698046
5.73860735,-0.9272853732,-0.7198312283,-1.487864256,2024-06-05 15:54:32.738607
5.779070944,-1.773080349,-1.384669781,-0.6782871485,2024-06-05 15:54:32.779071
5.819522038,-1.23100996,1.009974003,0.2730991244,2024-06-05 15:54:32.819522
5.859965996,-1.450447917,0.1692388952,0.1958697289,2024-06-05 15:54:32.859966
5.900410111,-0.8423330188,0.6833469868,0.005459319334,2024-06-05 15:54:32.900410
5.9410061,-0.9318125844,0.7669677734,-0.2169080675,2024-06-05 15:54:32.941006
5.981502246,-1.135405302,0.7829462886,-0.4340824485,2024-06-05 15:54:32.981502
6.021987142,-0.8316806555,0.02090519853,-0.5904054046,2024-06-05 15:54:33.021987
6.062493704,-0.02143781446,0.1242327988,-0.6212971807,2024-06-05 15:54:33.062494
6.102980527,0.1450048387,-0.6362104416,-0.2062557489,2024-06-05 15:54:33.102981
6.143465996,0.07896039635,0.028361829,0.2363485843,2024-06-05 15:54:33.143466
6.183932298,1.460168123,-0.3356815577,0.5762910843,2024-06-05 15:54:33.183932
6.224412819,2.60449481,-1.022490501,0.9440627694,2024-06-05 15:54:33.224413
6.264943652,3.369198799,0.233286038,1.329011321,2024-06-05 15:54:33.264944
6.305453288,2.147110224,2.566013098,0.8463276625,2024-06-05 15:54:33.305453
6.345909694,1.413297892,-0.6226286888,0.3949351311,2024-06-05 15:54:33.345910
6.386396777,1.226748943,-0.5981283188,0.5312849879,2024-06-05 15:54:33.386397
6.426912246,0.6601781845,-1.169226408,1.018229604,2024-06-05 15:54:33.426912
6.467377298,0.5043878555,-2.002371788,0.8902685046,2024-06-05 15:54:33.467377
6.507882038,-0.3095833361,-1.17162323,0.4780233204,2024-06-05 15:54:33.507882
6.548402402,-1.089866519,-0.9818785191,-0.1093195379,2024-06-05 15:54:33.548402
6.588876933,-1.618488431,-0.9608401656,-0.684412241,2024-06-05 15:54:33.588877
6.629330371,-0.4286231399,0.2396774292,-0.2758953571,2024-06-05 15:54:33.629330
6.669805423,0.5448666811,-1.000386953,0.8471265435,2024-06-05 15:54:33.669805
6.710283913,-0.5166380405,0.2324871123,-0.0576557368,2024-06-05 15:54:33.710284
6.750798079,-1.169226408,0.3376788795,-0.7443315983,2024-06-05 15:54:33.750798
6.791297611,0.1039933711,1.290663004,0.1527277827,2024-06-05 15:54:33.791298
6.8317911,-1.238732815,0.7379401922,-0.1431406885,2024-06-05 15:54:33.831791
6.872281986,-0.9195623994,0.3243634701,-1.376680493,2024-06-05 15:54:33.872282
6.912767402,-1.841521621,-2.192782164,-1.138068318,2024-06-05 15:54:33.912767
6.9532361,-1.68706286,0.7904028893,0.3411408663,2024-06-05 15:54:33.953236
6.993712923,-1.536199212,1.262700558,0.5326164961,2024-06-05 15:54:33.993713
7.034213704,-1.148986936,1.470021605,0.3414071798,2024-06-05 15:54:34.034214
7.074738288,-0.6521888971,1.67374742,-0.3890763521,2024-06-05 15:54:34.074738
7.115214433,-1.143927097,0.9575113058,-0.5272903442,2024-06-05 15:54:34.115214
7.155690683,-0.8157021999,0.340608269,-0.4718982279,2024-06-05 15:54:34.155691
7.19616485,0.2987978756,0.06244928762,-0.5182358623,2024-06-05 15:54:34.196165
7.236654381,-0.04620448127,-0.07097115368,0.02143781446,2024-06-05 15:54:34.236654
7.277149173,0.565638721,0.08055824786,0.4047885537,2024-06-05 15:54:34.277149
7.317640579,2.360955954,-0.1615159512,1.023555756,2024-06-05 15:54:34.317641
7.3581486,3.015141964,-0.6199656129,1.267760396,2024-06-05 15:54:34.358149
7.398668913,2.716344118,1.840190053,0.8449960947,2024-06-05 15:54:34.398669
7.439153913,1.625545621,1.956566811,0.4884093404,2024-06-05 15:54:34.439154
7.479620267,2.037657738,-1.041398406,0.1633801162,2024-06-05 15:54:34.479620
7.520086673,1.091198087,-0.6830806732,0.456984967,2024-06-05 15:54:34.520087
7.560582142,0.8533847928,-1.171889424,0.8047835231,2024-06-05 15:54:34.560582
7.601045423,0.2194380015,-0.8125064969,0.516371727,2024-06-05 15:54:34.601045
7.641541465,-0.8223599195,-1.079746842,-0.07390054315,2024-06-05 15:54:34.641541
7.682052923,-1.558569074,-1.495187759,-0.6995918155,2024-06-05 15:54:34.682053
7.722543808,-0.7126408815,-0.3790898025,-0.5629756451,2024-06-05 15:54:34.722544
7.763041361,0.9758865833,-0.7954627872,0.9702941179,2024-06-05 15:54:34.763041
7.80349235,-0.05659050494,-0.07869409025,0.02649767138,2024-06-05 15:54:34.803492
7.844025111,-0.167374745,0.8861407042,-0.3736304939,2024-06-05 15:54:34.844025
7.884500215,-0.4022586346,0.9356740713,-0.239810586,2024-06-05 15:54:34.884500
7.924991777,-1.698780417,1.310103416,-0.9918650985,2024-06-05 15:54:34.924992
7.965481413,-1.131943226,0.9047822952,-1.785596848,2024-06-05 15:54:34.965481
8.005963913,-2.623269558,-0.7049179673,-0.5802856684,2024-06-05 15:54:35.005964
8.046432402,-1.429942131,1.783200026,0.443403244,2024-06-05 15:54:35.046432
8.086937611,-1.527677298,0.9415328503,0.2310224175,2024-06-05 15:54:35.086938
8.127416361,-1.179346085,1.061904192,0.1114500016,2024-06-05 15:54:35.127416
8.167888392,-0.8340774775,1.364962935,-0.3217003644,2024-06-05 15:54:35.167888
8.20836235,-1.351114988,0.7989247441,-0.4588491321,2024-06-05 15:54:35.208362
8.248881881,-0.926220119,0.2796236575,-0.6063839197,2024-06-05 15:54:35.248882
8.289355892,0.5299534202,0.5523233414,-0.5496602654,2024-06-05 15:54:35.289356
8.329829902,0.01318225823,0.176429227,0.1545919478,2024-06-05 15:54:35.329830
8.370302923,1.163900256,0.2102503628,0.7342118621,2024-06-05 15:54:35.370303
8.410776881,2.73658371,-0.03075860441,1.146856546,2024-06-05 15:54:35.410777
8.451325683,3.09130621,-0.1926740259,1.073888063,2024-06-05 15:54:35.451326
8.491807506,2.256562948,1.864690423,0.6207645535,2024-06-05 15:54:35.491808
8.532294121,1.794385076,0.04194355011,0.475093931,2024-06-05 15:54:35.532294
8.572806569,1.748047352,-1.165764332,0.2906754613,2024-06-05 15:54:35.572807
8.613294433,0.7267552018,-0.6039870977,0.7571143508,2024-06-05 15:54:35.613294
8.653767142,0.531817615,-1.553242922,1.069627166,2024-06-05 15:54:35.653767
8.694231673,0.01105179265,-1.718753457,0.6545857191,2024-06-05 15:54:35.694232
8.734817767,-1.078681588,-1.551911354,-0.0544600375,2024-06-05 15:54:35.734818
8.775282663,-1.730204701,-1.505307436,-0.8721595407,2024-06-05 15:54:35.775283
8.815779069,0.4071853161,-0.9427312016,0.08721595258,2024-06-05 15:54:35.815779
8.856251465,0.7769543529,-1.349517107,0.5640408993,2024-06-05 15:54:35.856251
8.896694173,-0.7192986012,-0.07150376588,-0.273498565,2024-06-05 15:54:35.896694
8.937202975,-0.4374113083,0.8350095153,-0.3744294047,2024-06-05 15:54:35.937203
8.97768584,-0.4320851564,0.7073147297,-0.03315537795,2024-06-05 15:54:35.977686
9.018175475,-1.468556881,0.8109086156,-0.5424699187,2024-06-05 15:54:36.018175
9.058693756,-1.054314375,0.1958697289,-1.413963675,2024-06-05 15:54:36.058694
9.099142611,-2.552964211,-0.8391373158,-0.2422073632,2024-06-05 15:54:36.099143
9.139619433,-1.203580141,1.305309892,0.3597824574,2024-06-05 15:54:36.139619
9.180102611,-1.287467241,0.6029219031,0.176429227,2024-06-05 15:54:36.180103
9.220597402,-0.8857412338,1.250983,-0.03794892505,2024-06-05 15:54:36.220597
9.261113704,-1.172688365,1.074953318,-0.349662751,2024-06-05 15:54:36.261114
9.30161235,-1.407838583,0.3648423254,-0.5587147474,2024-06-05 15:54:36.301612
9.34210735,-0.403323859,0.08135717362,-0.7832126021,2024-06-05 15:54:36.342107
9.382585267,0.1069227681,-0.233951807,-0.5259587765,2024-06-05 15:54:36.382585
9.423059486,0.108254306,-0.04114462435,0.3322195411,2024-06-05 15:54:36.423059
9.463546777,1.811695099,-0.2097177505,0.7025212049,2024-06-05 15:54:36.463547
9.504036361,3.046033859,-0.5794867873,1.196656108,2024-06-05 15:54:36.504036
9.544550267,3.091572523,0.6857437491,1.137269378,2024-06-05 15:54:36.544550
9.585035111,1.745118022,2.933917999,0.4926702678,2024-06-05 15:54:36.585035
9.625517298,1.907566071,-0.8644366264,0.1801575422,2024-06-05 15:54:36.625517
9.665991517,1.345788717,-1.229145765,0.3300890923,2024-06-05 15:54:36.665992
9.706473027,0.8443303108,-1.737128735,1.008376241,2024-06-05 15:54:36.706473
9.746995788,0.650857389,-2.457359314,1.039268017,2024-06-05 15:54:36.746996
9.787484381,-0.6090469956,-1.689459562,0.7493914366,2024-06-05 15:54:36.787484
9.827966308,-1.568422437,-1.594520688,0.04007939249,2024-06-05 15:54:36.827966
9.868470631,-1.472285151,-0.2965342402,-0.417571336,2024-06-05 15:54:36.868471
9.908981308,1.106910229,-1.357506275,0.7086462975,2024-06-05 15:54:36.908981
9.949436517,0.1404775977,-0.2781589627,0.3130453527,2024-06-05 15:54:36.949437
9.989865111,-1.395854712,0.440207541,-0.733679235,2024-06-05 15:54:36.989865
10.03034683,0.1455374658,1.926740289,-0.2163754553,2024-06-05 15:54:37.030347
10.07085657,-1.26882565,0.1308905035,-0.2046578974,2024-06-05 15:54:37.070857
10.11137261,-1.632869124,0.3382114768,-0.8726921678,2024-06-05 15:54:37.111373
10.15186594,-1.252847195,-0.8242240548,-1.473883033,2024-06-05 15:54:37.151866
10.19234938,-1.869750261,0.3544562757,0.08055824786,2024-06-05 15:54:37.192349
10.23283558,-1.502111673,1.034740686,0.499594301,2024-06-05 15:54:37.232836
10.27332475,-1.388930678,0.9529840946,0.2131797522,2024-06-05 15:54:37.273325
10.31383391,-0.8729584813,1.21316731,-0.1527277827,2024-06-05 15:54:37.313834
10.35430719,-1.348718166,0.8231588006,-0.4135767221,2024-06-05 15:54:37.354307
10.39483594,-0.7896040082,0.2974663079,-0.5147738457,2024-06-05 15:54:37.394836
10.43534735,0.3411408663,-0.1820216924,-0.6908035874,2024-06-05 15:54:37.435347
10.47577412,0.2207695395,-0.7856093645,-0.03368799388,2024-06-05 15:54:37.475774
10.5162735,0.8216941357,-0.0275629051,0.7682993412,2024-06-05 15:54:37.516274
10.55675683,2.526599646,-0.3492632806,0.9620385766,2024-06-05 15:54:37.556757
10.59722839,3.073463678,-0.3391435742,1.070425987,2024-06-05 15:54:37.597228
10.63773917,2.478930473,2.50609374,0.6963961124,2024-06-05 15:54:37.637739
10.67820865,1.928870678,0.2466014475,0.2707023323,2024-06-05 15:54:37.678209
10.7187548,1.967219114,-1.084806681,-0.04513924941,2024-06-05 15:54:37.718755
10.75919646,1.055779099,-0.6745588183,0.7198312283,2024-06-05 15:54:37.759196
10.79964412,0.8541837335,-1.556172252,0.8180989623,2024-06-05 15:54:37.799644
10.84012865,-0.08588441461,-1.112769008,0.553388536,2024-06-05 15:54:37.840129
10.88061324,-0.9411333799,-1.281874776,-0.1005313694,2024-06-05 15:54:37.880613
10.92116735,-1.596651196,-1.385202408,-0.5667039752,2024-06-05 15:54:37.921167
10.96165199,0.3938699067,-0.2677729428,0.009453942999,2024-06-05 15:54:37.961652
11.00213652,0.7591117024,-0.5560516119,0.5722964406,2024-06-05 15:54:38.002137
11.04268266,-0.4150414169,0.1854836941,-0.3501953483,2024-06-05 15:54:38.042683
11.0831187,-0.6862763762,0.8451292515,-0.437011838,2024-06-05 15:54:38.083119
11.12358886,-0.6452649236,1.995714068,-0.2472672164,2024-06-05 15:54:38.123589
11.1640837,-2.288253784,1.995714068,-0.6090469956,2024-06-05 15:54:38.164084
11.20456876,-1.56868875,0.06484606117,-1.236336112,2024-06-05 15:54:38.204569
11.24506662,-2.097177505,0.05872096866,-0.1074553803,2024-06-05 15:54:38.245067
11.28556386,-1.62807548,1.753639817,0.522763133,2024-06-05 15:54:38.285564
11.32611449,-1.521285892,0.7957290411,0.1434070021,2024-06-05 15:54:38.326114
11.36655324,-1.285070539,1.110105991,-0.03395430371,2024-06-05 15:54:38.366553
11.4070135,-1.194525719,1.679872513,-0.1833532304,2024-06-05 15:54:38.407013
11.4474986,-1.196922421,1.105312467,-0.2440715134,2024-06-05 15:54:38.447499
11.48800376,0.08561810106,0.3363473415,-0.7978595495,2024-06-05 15:54:38.488004
11.52853381,0.2497971505,-0.5272903442,-0.4932028949,2024-06-05 15:54:38.528534
11.56896777,-0.07256899774,0.2535254657,0.5645735264,2024-06-05 15:54:38.568968
11.60945282,1.240064383,-0.1817553788,0.7288857102,2024-06-05 15:54:38.609453
11.64993782,2.670006514,-0.2240983993,0.8748226166,2024-06-05 15:54:38.649938
11.6904435,3.237642527,0.2732322812,1.034740686,2024-06-05 15:54:38.690444
11.73096396,2.16548562,2.728061676,0.5059856772,2024-06-05 15:54:38.730964
11.77142501,2.058163404,-0.8700290918,0.1657768935,2024-06-05 15:54:38.771425
11.81190334,1.377079964,-0.1934729517,0.3255618513,2024-06-05 15:54:38.811903
11.85244495,0.8981245756,-1.016099095,0.9328778386,2024-06-05 15:54:38.852445
11.89291719,0.5954652429,-1.60357511,0.841001451,2024-06-05 15:54:38.892917
11.93339631,-0.3932041526,-0.9533835649,0.3485974967,2024-06-05 15:54:38.933396
11.97388214,-1.006911516,-1.358038902,-0.331553787,2024-06-05 15:54:38.973882
12.0143586,-1.522883773,-1.235537171,-0.7043853402,2024-06-05 15:54:39.014359
12.05482985,0.3339505494,0.01531272475,0.1508636326,2024-06-05 15:54:39.054830
12.09532761,0.5360785127,-0.4687025249,0.5177032351,2024-06-05 15:54:39.095328
12.13582204,-0.5312849879,0.1362166703,-0.4708330035,2024-06-05 15:54:39.135822
12.17631219,-0.084020257,0.9575113058,-0.167374745,2024-06-05 15:54:39.176312
12.21679881,-1.407305956,1.827407241,-0.4197018147,2024-06-05 15:54:39.216799
12.25728079,-1.743786454,1.623681426,-0.9793485999,2024-06-05 15:54:39.257281
12.29776548,-2.091318846,-0.7171681523,-0.7930659652,2024-06-05 15:54:39.297765
12.33832188,-2.225804329,1.974941969,0.4553871155,2024-06-05 15:54:39.338322
12.37881688,-1.368957639,1.962691903,0.4412727654,2024-06-05 15:54:39.378817
12.41930339,-1.205444336,0.8975919485,0.1434070021,2024-06-05 15:54:39.419303
12.45969787,-1.180677652,1.31782639,-0.06404713541,2024-06-05 15:54:39.459698
12.50018443,-1.36309886,1.367626071,-0.209451437,2024-06-05 15:54:39.500184
12.54071001,-1.000786424,1.277347565,-0.2232994735,2024-06-05 15:54:39.540710
12.58118344,0.2474003732,0.6979939342,-0.5605788827,2024-06-05 15:54:39.581183
12.62168454,0.005459319334,-0.5403394699,0.008388710208,2024-06-05 15:54:39.621685
12.6621836,0.1656437367,0.5528559685,0.8255556226,2024-06-05 15:54:39.662184
12.70265178,1.423151374,0.24234052,1.11809516,2024-06-05 15:54:39.702652
12.74317022,3.247496128,0.2897433937,1.01050663,2024-06-05 15:54:39.743170
12.78366568,3.513804197,1.327946067,0.464707911,2024-06-05 15:54:39.783666
12.82416709,2.41182065,2.577198029,-0.121836029,2024-06-05 15:54:39.824167
12.86467292,2.60076642,-0.7480598688,-0.7728265524,2024-06-05 15:54:39.864673
12.90515928,1.174286246,1.211835742,0.1636464298,2024-06-05 15:54:39.905159
12.9456312,1.046191931,-0.5158390999,0.3701684773,2024-06-05 15:54:39.945631
12.98615532,0.3605813682,-0.9334104657,0.1849510819,2024-06-05 15:54:39.986155
13.02662376,-0.8742899895,-0.9906666875,-0.03581846133,2024-06-05 15:54:40.026624
13.06706938,-1.868418694,-1.289864063,-0.4489957094,2024-06-05 15:54:40.067069
13.10756652,-1.123155117,0.2099840641,-0.4058537781,2024-06-05 15:54:40.107567
13.14806261,1.100518823,-0.4396749437,0.7709624171,2024-06-05 15:54:40.148063
13.1885912,0.007589785382,-0.3090507388,-0.01584534161,2024-06-05 15:54:40.188591
13.22905079,-0.7430000305,0.9623048902,-0.5259587765,2024-06-05 15:54:40.229051
13.26948058,-0.6929340959,2.387053967,-0.4181039631,2024-06-05 15:54:40.269481
13.30996902,-1.970681071,2.506626368,-0.8742899895,2024-06-05 15:54:40.309969
13.35045745,-1.412632108,0.684412241,-1.223020673,2024-06-05 15:54:40.350457
13.39097537,-2.77027154,-0.6388735175,-0.5208989382,2024-06-05 15:54:40.390975
13.43146782,-1.532204509,2.626997709,0.5358121991,2024-06-05 15:54:40.431468
13.47195256,-1.261102796,1.172422051,0.5368774533,2024-06-05 15:54:40.471953
13.51244042,-1.535666585,1.777341247,0.3427387178,2024-06-05 15:54:40.512440
13.55293636,-1.277081251,2.078136444,-0.1801575422,2024-06-05 15:54:40.552936
13.5934361,-1.269624591,0.9346088171,-0.3941362202,2024-06-05 15:54:40.593436
13.63390975,-0.5946663618,0.9079779983,-0.4354139864,2024-06-05 15:54:40.633910
13.67436751,0.1215697154,0.218505919,-0.325695008,2024-06-05 15:54:40.674368
13.71486662,0.01398118306,0.3661738634,0.1689725816,2024-06-05 15:54:40.714867
13.75537542,0.6021229625,0.6575151086,0.2621804774,2024-06-05 15:54:40.755375
13.79586751,2.274139404,0.1103847697,0.7374075651,2024-06-05 15:54:40.795868
13.8363786,3.397693872,-1.082409859,0.9780170918,2024-06-05 15:54:40.836379
13.87685282,2.883053064,1.717688203,0.8082455397,2024-06-05 15:54:40.876853
13.91734485,1.337799549,2.511952639,0.426625818,2024-06-05 15:54:40.917345
13.95784422,2.14604497,-1.409969091,-0.06990591437,2024-06-05 15:54:40.957844
13.99834147,1.320489526,-1.05205071,0.4372781515,2024-06-05 15:54:40.998341
14.03883277,1.185737491,-1.80583632,0.8822792768,2024-06-05 15:54:41.038833
14.07927761,0.3829512596,-1.326081991,0.5733616948,2024-06-05 15:54:41.079278
14.11974355,-0.8489907384,-1.192128897,0.03768261895,2024-06-05 15:54:41.119744
14.16022897,-1.54338944,-1.62767601,-0.3693695366,2024-06-05 15:54:41.160229
14.20071537,-0.5632419586,-0.1761629134,-0.265642494,2024-06-05 15:54:41.200715
14.24124532,1.106643915,-0.7347444892,0.7738918066,2024-06-05 15:54:41.241245
14.28180167,-0.08535179496,0.1455374658,-0.1442059278,2024-06-05 15:54:41.281802
14.32221355,-0.06591129303,1.390262246,-0.268838197,2024-06-05 15:54:41.322214
14.36273563,-0.7701634765,1.382539272,-0.2113156021,2024-06-05 15:54:41.362736
14.40322209,-2.040187597,1.612496495,-1.004647851,2024-06-05 15:54:41.403222
14.4436923,-1.344457269,-0.1109173894,-1.653507948,2024-06-05 15:54:41.443692
14.48415751,-2.219413042,-0.02356828004,-0.3083849549,2024-06-05 15:54:41.484158
14.52466537,-1.824211597,1.113301635,0.504121542,2024-06-05 15:54:41.524665
14.56515193,-1.69744885,0.5011921525,0.1511299312,2024-06-05 15:54:41.565152
14.60570516,-1.12555182,1.010772943,0.06324820966,2024-06-05 15:54:41.605705
14.64614001,-1.293858647,1.329543948,-0.2724333405,2024-06-05 15:54:41.646140
14.68659105,-1.42248559,0.4228975177,-0.5272903442,2024-06-05 15:54:41.686591
14.72712605,0.3286243975,0.2375469655,-0.8824124336,2024-06-05 15:54:41.727126
14.76759199,0.1533935517,-0.659911871,-0.2403431982,2024-06-05 15:54:41.767592
14.80814381,0.5049204826,0.03475322574,0.4210333526,2024-06-05 15:54:41.808144
14.84857798,2.169480324,-0.3999949992,0.7712287307,2024-06-05 15:54:41.848578
14.88902964,3.388106823,-0.8987903595,0.9527177811,2024-06-05 15:54:41.889030
14.9295174,2.912879705,1.460967064,0.657248795,2024-06-05 15:54:41.929517
14.97000516,1.26509738,2.732056379,0.6186341047,2024-06-05 15:54:41.970005
15.01052896,1.915555239,-1.505840063,0.1154446304,2024-06-05 15:54:42.010529
15.05101511,0.928217411,-0.5126433969,0.5509917736,2024-06-05 15:54:42.051015
15.09151261,0.9079779983,-1.867619753,1.051518202,2024-06-05 15:54:42.091513
15.13200667,0.4005276263,-1.871348143,0.9291495085,2024-06-05 15:54:42.132007
15.17251214,-0.7414022088,-1.532204509,0.4077179432,2024-06-05 15:54:42.172512
15.21300141,-1.581471562,-1.534068704,-0.307053417,2024-06-05 15:54:42.213001
15.25346631,-0.8718932271,-0.1681736708,-0.3326190114,2024-06-05 15:54:42.253466
15.29397537,1.016631722,-0.9086437821,0.8567136526,2024-06-05 15:54:42.293975
15.33444438,-0.2898765504,0.1202381775,-0.03715000302,2024-06-05 15:54:42.334444
15.37492402,0.3893426657,1.212634683,-0.1021292135,2024-06-05 15:54:42.374924
15.41550053,-0.9600412846,1.20650959,0.1434070021,2024-06-05 15:54:42.415501
15.45598954,-2.369477749,0.9311468005,-0.7810820937,2024-06-05 15:54:42.455990
15.49641626,-1.335136414,0.9955934286,-1.888658166,2024-06-05 15:54:42.496416
15.53689209,-1.966420174,-1.960827708,-1.199585557,2024-06-05 15:54:42.536892
15.5773911,-1.346587658,0.764038384,0.4399412274,2024-06-05 15:54:42.577391
15.6178574,-1.774944544,0.7208964229,0.5949326158,2024-06-05 15:54:42.617857
15.65838912,-1.470687389,1.422751904,0.3384777904,2024-06-05 15:54:42.658389
15.69884886,-0.8884043694,1.285603046,-0.2073209733,2024-06-05 15:54:42.698849
15.73933751,-1.203580141,0.443403244,-0.6125090122,2024-06-05 15:54:42.739338
15.77982615,-0.1463363916,0.3920057416,-0.785343051,2024-06-05 15:54:42.779826
15.8202648,0.02942706272,-0.4391423166,-0.2227668613,2024-06-05 15:54:42.820265
15.86076173,0.2865476906,0.2375469655,0.5821498632,2024-06-05 15:54:42.860762
15.90126714,2.121544838,-0.2057231218,0.8977251053,2024-06-05 15:54:42.901267
15.94177772,3.281583548,-0.3965329826,1.259238601,2024-06-05 15:54:42.941778
15.98226969,2.765344858,1.270956159,0.6612433791,2024-06-05 15:54:42.982270
16.02276813,1.650844932,2.721404076,0.6716294289,2024-06-05 15:54:43.022768
16.06326167,2.408625126,-1.072023869,-0.1838858575,2024-06-05 15:54:43.063262
16.10376594,1.483337045,-1.306641459,0.2480661422,2024-06-05 15:54:43.103766
16.14426766,1.219558716,-1.861760974,1.021425366,2024-06-05 15:54:43.144268
16.18471225,0.4836157858,-1.566292048,0.7717612982,2024-06-05 15:54:43.184712
16.22520672,-0.7629731297,-1.256309152,0.253392309,2024-06-05 15:54:43.225207
16.26570709,-1.328478694,-1.716889381,-0.2595174015,2024-06-05 15:54:43.265707
16.30618787,-0.7475273013,-0.908111155,-0.3105154335,2024-06-05 15:54:43.306188
16.34666683,1.179346085,-0.7749570012,0.8593767285,2024-06-05 15:54:43.346667
16.38715829,-0.005193010904,0.03022598661,0.1772281379,2024-06-05 15:54:43.387158
16.42762829,-0.764038384,0.6154384017,-0.499594301,2024-06-05 15:54:43.427628
16.46812006,-0.1482005417,1.696383595,-0.1189066395,2024-06-05 15:54:43.468120
16.50863511,-1.929403305,1.235537171,-0.6702978611,2024-06-05 15:54:43.508635
16.54914256,-1.583602071,1.408637524,-1.309038281,2024-06-05 15:54:43.549143
16.58958886,-2.173341751,-1.109839678,-0.9907998443,2024-06-05 15:54:43.589589
16.63007745,-1.657902002,1.643388271,0.5033226013,2024-06-05 15:54:43.630077
16.67056454,-1.526079416,0.6463301182,0.469235152,2024-06-05 15:54:43.670565
16.71107506,-1.306907773,0.9141030908,0.2158428431,2024-06-05 15:54:43.711075
16.75158287,-0.9251548648,1.37641418,-0.2270277888,2024-06-05 15:54:43.751583
16.79206719,-1.18200922,0.8656349778,-0.4287562966,2024-06-05 15:54:43.792067
16.83253943,-0.9850742221,0.2524602413,-0.5541874766,2024-06-05 15:54:43.832539
16.87304652,0.3872122169,0.5115781426,-0.6841459274,2024-06-05 15:54:43.873047
16.91352287,-0.03209014609,-0.4178376496,0.1178414002,2024-06-05 15:54:43.913523
16.95399907,0.6484606266,0.1934729517,0.4836157858,2024-06-05 15:54:43.953999
16.9944798,2.255497694,-0.1532603949,0.8876054287,2024-06-05 15:54:43.994480
17.03498896,2.808753252,-0.2113156021,1.22648263,2024-06-05 15:54:44.034989
17.07547719,2.785051823,1.97361052,0.859110415,2024-06-05 15:54:44.075477
17.11596542,1.625012994,1.719019771,0.3704347908,2024-06-05 15:54:44.115965
17.15648532,2.237122536,-1.691323757,-0.08188978583,2024-06-05 15:54:44.156485
17.19698881,1.235803485,-0.4489957094,0.4854799509,2024-06-05 15:54:44.196989
17.23743678,0.8429988027,-1.455241442,0.8567136526,2024-06-05 15:54:44.237437
17.27792922,0.278025806,-1.658567786,0.6551182866,2024-06-05 15:54:44.277929
17.31844959,-0.8918663263,-0.9413996935,0.21264714,2024-06-05 15:54:44.318450
17.35890662,-1.228613138,-1.59318912,-0.1801575422,2024-06-05 15:54:44.358907
17.39937532,-1.295190215,-0.7075810432,-0.4071853161,2024-06-05 15:54:44.399375
17.43984074,0.4987953603,-0.1157109365,0.5222305059,2024-06-05 15:54:44.439841
17.48033037,0.3861469626,-0.7701634765,0.6101121902,2024-06-05 15:54:44.480330
17.52085688,-0.9605738521,-0.1559234858,-0.3232982159,2024-06-05 15:54:44.520857
17.56134865,-0.5549864173,1.235270858,-0.2267614752,2024-06-05 15:54:44.561349
17.60184016,-0.7041190267,1.807434082,0.06351451576,2024-06-05 15:54:44.601840
17.64231308,-1.801841617,0.64499861,-0.4897408783,2024-06-05 15:54:44.642313
17.68278006,-1.27921176,0.4364792407,-1.268559337,2024-06-05 15:54:44.682780
17.72332745,-1.424349666,-1.790390372,-0.9865389466,2024-06-05 15:54:44.723327
17.76378844,-1.068695068,0.90957582,0.3600487709,2024-06-05 15:54:44.763788
17.80426334,-1.639526725,0.7190322876,0.7951964736,2024-06-05 15:54:44.804263
17.84479376,-1.295456529,1.519022346,0.5219641924,2024-06-05 15:54:44.844794
17.88526954,-0.659911871,1.334071159,-0.313444823,2024-06-05 15:54:44.885270
17.92574397,-0.9818785191,0.4926702678,-0.4870778024,2024-06-05 15:54:44.925744
17.96622365,-0.5730953813,0.7667014599,-0.3139774203,2024-06-05 15:54:44.966224
18.00678141,0.08961272985,-0.02649767138,-0.3491301239,2024-06-05 15:54:45.006781
18.04726912,0.04194355011,0.1721682847,0.1612496525,2024-06-05 15:54:45.047269
18.08768704,0.5563179255,0.2543243766,0.5904054046,2024-06-05 15:54:45.087687
18.12821917,1.916087866,-0.05499265343,0.7339455485,2024-06-05 15:54:45.128219
18.16873652,2.871069193,0.2194380015,0.6798849702,2024-06-05 15:54:45.168737
18.20922646,2.730724812,2.117816448,0.62049824,2024-06-05 15:54:45.209226
18.24971647,2.10609889,0.4585828185,-0.008388710208,2024-06-05 15:54:45.249716
18.29008792,1.875076413,-0.4663057625,-0.09653674066,2024-06-05 15:54:45.290088
18.33057787,1.293858647,-0.2334191799,0.5267577171,2024-06-05 15:54:45.330578
18.3711011,0.6969286799,-0.8540505767,0.6953308582,2024-06-05 15:54:45.371101
18.41162074,-0.05312849581,-0.696662426,0.623693943,2024-06-05 15:54:45.411621
18.45209131,-0.9587097168,-0.6069164872,0.2043915838,2024-06-05 15:54:45.452091
18.49259063,-1.223819613,-1.466426373,-0.2724333405,2024-06-05 15:54:45.492591
18.53308173,-1.094926357,-0.7866745591,-0.5496602654,2024-06-05 15:54:45.533082
18.57357308,1.027550459,0.02010627277,0.4969311953,2024-06-05 15:54:45.573573
18.61406313,0.3949351311,-0.5706986189,0.4191691875,2024-06-05 15:54:45.614063
18.65455391,-0.5547201037,-0.006790860556,-0.4391423166,2024-06-05 15:54:45.654554
18.69501792,0.008655018173,0.8010552526,-0.1588528752,2024-06-05 15:54:45.695018
18.73552079,-1.625412464,1.892386436,-0.3800218701,2024-06-05 15:54:45.735521
18.77601407,-1.919017315,1.531272531,-0.6710968018,2024-06-05 15:54:45.776014
18.81650214,-1.732601523,-0.0243672058,-0.4742949903,2024-06-05 15:54:45.816502
18.85701745,-1.44698596,1.392925382,0.2483324558,2024-06-05 15:54:45.857017
18.89747714,-0.9816122055,1.298119545,0.156456098,2024-06-05 15:54:45.897477
18.9379637,-0.9693620801,1.282673717,0.09174319357,2024-06-05 15:54:45.937964
18.97850829,-1.031411886,1.848978162,-0.06724283099,2024-06-05 15:54:45.978508
19.01898818,-1.086404562,1.01716435,-0.283085674,2024-06-05 15:54:46.018988
19.0594262,-1.136736751,0.6077154279,-0.3555215299,2024-06-05 15:54:46.059426
19.09991469,-0.8577789068,1.020360112,-0.2382127345,2024-06-05 15:54:46.099915
19.14040329,0.03102491237,0.7134398222,-0.3110480309,2024-06-05 15:54:46.140403
19.18089272,0.07150376588,0.001731003635,-0.02063889056,2024-06-05 15:54:46.180893
19.22138876,-0.142874375,0.4910724163,0.5459319353,2024-06-05 15:54:46.221389
19.26188209,0.7014559507,0.438876003,0.6671021581,2024-06-05 15:54:46.261882
19.30235777,2.402499914,0.3581846058,0.6218297482,2024-06-05 15:54:46.302358
19.34285329,3.006886482,1.559234858,0.4958659708,2024-06-05 15:54:46.342853
19.38333417,2.704360247,1.924876094,0.4207670391,2024-06-05 15:54:46.383334
19.4238261,2.109827042,0.117308788,-0.2251636237,2024-06-05 15:54:46.423826
19.46431146,1.611963868,0.5898727775,-0.1458037645,2024-06-05 15:54:46.464311
19.50480761,1.082676172,0.01531272475,0.250729233,2024-06-05 15:54:46.504808
19.54532188,0.5129097104,-0.6263570189,0.2691044807,2024-06-05 15:54:46.545322
19.58580475,-0.1761629134,-0.5272903442,0.04940018058,2024-06-05 15:54:46.585805
19.62628428,-0.9659000635,-0.5477960706,-0.3251623809,2024-06-05 15:54:46.626284
19.66675313,-1.235004544,-1.100785136,-0.5011921525,2024-06-05 15:54:46.666753
19.70724568,-1.127948642,-0.6687000394,-0.5600462556,2024-06-05 15:54:46.707246
19.74774798,0.3155752718,0.803984642,0.6130415797,2024-06-05 15:54:46.747748
19.78825532,0.2085193694,-0.001731003635,0.5081161261,2024-06-05 15:54:46.788255
19.8287687,-0.507317245,0.1213034093,-0.4215659797,2024-06-05 15:54:46.828769
19.86925792,-0.7816147208,0.4521914124,-0.3531247377,2024-06-05 15:54:46.869258
19.90972459,-1.519421697,1.462564945,-0.5115781426,2024-06-05 15:54:46.909725
19.95016636,-0.8604419827,0.3997286856,-0.7661688328,2024-06-05 15:54:46.950166
19.99065063,-1.474149346,-0.4780233204,-0.4990616739,2024-06-05 15:54:46.990651
20.03116605,-1.449116349,1.629273891,0.1420754492,2024-06-05 15:54:47.031166
20.07167084,-1.207841039,1.01050663,0.5123770833,2024-06-05 15:54:47.071671
20.1121636,-1.006911516,0.9647016525,0.3560541272,2024-06-05 15:54:47.112164
20.15263022,-0.7267552018,1.326081991,0.1692388952,2024-06-05 15:54:47.152630
20.19310756,-0.5957315564,1.450847387,-0.2267614752,2024-06-05 15:54:47.193108
20.23360225,-0.8489907384,0.915168345,-0.3640433848,2024-06-05 15:54:47.233602
20.27409266,-1.098654747,0.2580527067,-0.3062545061,2024-06-05 15:54:47.274093
20.31458022,-0.4283568263,0.4926702678,-0.4500609636,2024-06-05 15:54:47.314580
20.35506907,0.1744319052,0.1892120093,-0.4551208019,2024-06-05 15:54:47.355069
20.39556865,0.07816147059,0.07523208112,0.007856093347,2024-06-05 15:54:47.395569
20.43606308,0.5571168661,-0.05525896326,0.3050560951,2024-06-05 15:54:47.436063
20.47652136,1.927805424,-0.1181077138,0.5893401504,2024-06-05 15:54:47.476521
20.51705501,2.566812038,-0.2531259954,0.629552722,2024-06-05 15:54:47.517055
20.55754652,2.745105505,1.747781038,0.8684312105,2024-06-05 15:54:47.557547
20.59803678,1.782933831,1.319956899,0.4210333526,2024-06-05 15:54:47.598037
20.63854094,1.769884706,-0.3946688473,0.2392779738,2024-06-05 15:54:47.638541
20.67896725,1.248852611,-0.4862788618,0.6543194056,2024-06-05 15:54:47.678967
20.71944876,0.8019872904,-1.512764096,1.040333152,2024-06-05 15:54:47.719449
20.75994636,0.2447372824,-1.729938388,1.162302375,2024-06-05 15:54:47.759946
20.80044167,-0.5113118291,-1.220091224,0.7920007706,2024-06-05 15:54:47.800442
20.84099714,-1.130877972,-1.135138988,0.2392779738,2024-06-05 15:54:47.840997
20.88142548,-1.250450373,-1.262167931,-0.2982652485,2024-06-05 15:54:47.881425
20.92193766,-0.8585777879,-0.1423417628,-0.7171681523,2024-06-05 15:54:47.921938
20.96242704,0.3145100474,-0.8436645269,0.4207670391,2024-06-05 15:54:47.962427
21.00288693,0.07496577501,-0.2326202542,0.5089150667,2024-06-05 15:54:48.002887
21.04339574,-0.7270215154,0.47056669,-0.5240946412,2024-06-05 15:54:48.043396
21.08392923,-0.06671021879,-0.3559209704,-0.1125152409,2024-06-05 15:54:48.083929
21.12436089,-0.9192960858,0.7461957335,-0.1846847683,2024-06-05 15:54:48.124361
21.16486584,-1.445388079,1.027550459,-0.7371412516,2024-06-05 15:54:48.164866
21.20535449,-0.7720276117,-0.9730903506,-1.032876611,2024-06-05 15:54:48.205354
21.24581985,-0.5834813714,-0.6215634942,-0.5600462556,2024-06-05 15:54:48.245820
21.28633183,-1.00052011,0.2041252851,0.3007951677,2024-06-05 15:54:48.286332
21.32685209,-1.343392015,0.7038527131,0.5563179255,2024-06-05 15:54:48.326852
21.36729412,-0.9278179407,1.389463305,0.5059856772,2024-06-05 15:54:48.367294
21.40778808,-0.4459331632,0.8645697236,-0.2905423045,2024-06-05 15:54:48.407788
21.44827709,-0.8769530654,0.4149082601,-0.4364792407,2024-06-05 15:54:48.448277
21.48874251,-1.174818873,0.04780233279,-0.1772281379,2024-06-05 15:54:48.488743
21.52926548,-0.1993317306,0.7643046975,-0.279889971,2024-06-05 15:54:48.529265
21.56975412,0.2167749256,0.06244928762,-0.4551208019,2024-06-05 15:54:48.569754
21.6102099,-0.007057168987,-0.4330172241,0.1716356725,2024-06-05 15:54:48.610210
21.65071287,0.6814828515,-0.07975932211,0.5659050345,2024-06-05 15:54:48.650713
21.69122048,2.138854742,-0.3868127465,0.6228950024,2024-06-05 15:54:48.691220
21.73168006,3.058816671,0.3912068307,0.556584239,2024-06-05 15:54:48.731680
21.77217672,2.946967125,1.363365173,0.6061176062,2024-06-05 15:54:48.772177
21.81268574,1.995048285,0.6098458767,0.2914743721,2024-06-05 15:54:48.812686
21.85318438,1.590392947,-0.1982664913,0.1135804728,2024-06-05 15:54:48.853184
21.89366495,0.9990554452,-0.1950708032,0.5177032351,2024-06-05 15:54:48.893665
21.93415152,0.5592473149,-1.13593781,0.5081161261,2024-06-05 15:54:48.934152
21.97461975,0.06564498693,-1.269091964,0.4993279874,2024-06-05 15:54:48.974620
22.01514422,-0.5704323053,-0.7877398133,0.08987903595,2024-06-05 15:54:49.015144
22.05562553,-0.975487113,-0.7374075651,-0.1644453406,2024-06-05 15:54:49.055626
22.09610792,-0.9568455815,-0.8250229955,-0.3448691964,2024-06-05 15:54:49.096108
22.13665839,-0.4062532485,0.2078536004,-0.322499305,2024-06-05 15:54:49.136658
22.1770749,0.6343462467,0.0355521515,0.3677717149,2024-06-05 15:54:49.177075
22.21754027,0.2154433727,-0.6516563296,0.221701622,2024-06-05 15:54:49.217540
22.25804667,-1.150584817,-0.1748313755,-0.4718982279,2024-06-05 15:54:49.258047
22.29857313,-1.456306696,0.5275566578,-0.2451367527,2024-06-05 15:54:49.298573
22.33910579,-0.513176024,1.36682713,0.227560401,2024-06-05 15:54:49.339106
22.37956735,-1.160970807,0.4977301359,-0.3278254569,2024-06-05 15:54:49.379567
22.42005615,-0.9762860537,1.65963304,-0.8580452204,2024-06-05 15:54:49.420056
22.46049818,-1.542057991,0.1908098608,-0.7922670841,2024-06-05 15:54:49.460498
22.5009899,-1.430208445,0.1074553803,0.03129122034,2024-06-05 15:54:49.500990
22.54149152,-1.139133573,1.463630199,0.6151720881,2024-06-05 15:54:49.541492
22.58199245,-0.8641703129,1.915821552,0.7531197667,2024-06-05 15:54:49.581992
22.62248709,-1.225950003,2.348173141,0.3504616618,2024-06-05 15:54:49.622487
22.662951,-0.8905348182,1.794118762,-0.1133141592,2024-06-05 15:54:49.662951
22.70343553,-0.865501821,0.7488588095,-0.4023917615,2024-06-05 15:54:49.703436
22.74392495,-1.006911516,0.8896027207,-0.2541912198,2024-06-05 15:54:49.743925
22.7844087,-0.3599156141,0.6077154279,-0.3398093283,2024-06-05 15:54:49.784409
22.82491725,0.0171768833,0.06910699606,-0.160983339,2024-06-05 15:54:49.824917
22.86541037,0.1528609395,0.1378145218,0.2517944574,2024-06-05 15:54:49.865410
22.90587016,0.5267577171,-0.03581846133,0.5912043452,2024-06-05 15:54:49.905870
22.94636094,2.113022804,0.2761616707,0.6130415797,2024-06-05 15:54:49.946361
22.98685777,2.937380075,0.3685706258,0.4639089704,2024-06-05 15:54:49.986858
23.02736959,3.042838097,0.8746894598,0.3762935698,2024-06-05 15:54:50.027370
23.06787834,2.231263638,0.1737661362,-0.03688369319,2024-06-05 15:54:50.067878
23.10833719,1.80583632,0.4870778024,0.04061200842,2024-06-05 15:54:50.108337
23.14883787,1.128747582,0.332885325,0.4687025249,2024-06-05 15:54:50.148838
23.18928438,0.3794892728,-0.3154421151,0.8127728105,2024-06-05 15:54:50.189284
23.22978834,0.08215609938,-0.9837427139,0.7488588095,2024-06-05 15:54:50.229788
23.27031053,-0.6860100627,-1.088801265,0.1444722265,2024-06-05 15:54:50.270311
23.31079287,-1.084540367,-1.474149346,-0.2942706347,2024-06-05 15:54:50.310793
23.35126865,-1.16416657,-0.5842803121,-0.5760247707,2024-06-05 15:54:50.351269
23.39174761,0.1531272531,-0.3175725937,0.4354139864,2024-06-05 15:54:50.391748
23.43220225,0.06165036187,-0.3524589837,0.2390116602,2024-06-05 15:54:50.432202
23.47271527,0.05978620425,0.414375633,-0.4396749437,2024-06-05 15:54:50.472715
23.51321896,-0.9589760303,1.008908868,-0.3038577139,2024-06-05 15:54:50.513219
23.55370886,-1.878538489,1.086670876,-0.8686975241,2024-06-05 15:54:50.553709
23.59418704,-1.006112576,0.5725627542,-1.328745008,2024-06-05 15:54:50.594187
23.63466506,-1.939522982,-1.12262249,-0.5485950112,2024-06-05 15:54:50.634665
23.67513959,-1.327679753,0.5211652517,0.3045234978,2024-06-05 15:54:50.675140
23.71565688,-0.8215609789,1.073355436,0.581084609,2024-06-05 15:54:50.715657
23.75615417,-1.248852611,1.448184252,0.7198312283,2024-06-05 15:54:50.756154
23.79665459,-1.28294003,2.130865574,0.4015928507,2024-06-05 15:54:50.796655
23.83715261,-0.8412677646,1.58986032,-0.1495320797,2024-06-05 15:54:50.837153
23.87762949,-1.004514694,0.4354139864,-0.4889419675,2024-06-05 15:54:50.877629
23.91813777,-0.6426018476,0.6452649236,-0.4532566369,2024-06-05 15:54:50.918138
23.95865329,0.2497971505,-0.03075860441,-0.2865476906,2024-06-05 15:54:50.958653
23.9990799,-0.03129122034,0.1788259894,0.3605813682,2024-06-05 15:54:50.999080
24.03958011,0.9639027119,0.6412702799,0.6111774445,2024-06-05 15:54:51.039580
24.08008167,2.591978312,-0.08188978583,0.9033176303,2024-06-05 15:54:51.080082
24.12055287,3.522059917,-0.3513937294,0.9432638288,2024-06-05 15:54:51.120553
24.16102751,2.680392504,2.793573618,0.6351451874,2024-06-05 15:54:51.161028
24.20155136,1.680671453,0.7235595584,0.1388797611,2024-06-05 15:54:51.201551
24.24201245,2.037125111,-0.9773513079,-0.08801487833,2024-06-05 15:54:51.242012
24.28249615,1.194259405,-0.7675004005,0.5762910843,2024-06-05 15:54:51.282496
24.32298964,0.9053149223,-1.692655325,0.740070641,2024-06-05 15:54:51.322990
24.36349527,0.04940018058,-1.009707808,0.3991960883,2024-06-05 15:54:51.363495
24.40397959,-0.9150351882,-0.7914681435,0.01850842312,2024-06-05 15:54:51.403980
24.4444673,-1.485866904,-1.02169168,-0.2873466015,2024-06-05 15:54:51.444467
24.48493506,-1.092795968,-0.1926740259,-0.5414046645,2024-06-05 15:54:51.484935
24.52544631,0.4489957094,-0.08908011019,0.3282249272,2024-06-05 15:54:51.525446
24.56593386,0.1517957002,-0.2448704392,0.2509955168,2024-06-05 15:54:51.565934
24.60641089,-0.9214265943,0.5922695398,-0.5288882256,2024-06-05 15:54:51.606411
24.64688876,-0.9677641988,1.183607101,-0.3784240186,2024-06-05 15:54:51.646889
24.6873762,-0.9051817656,0.9913324714,-0.2616478503,2024-06-05 15:54:51.687376
24.72788896,-1.296788096,1.204911709,-0.6798849702,2024-06-05 15:54:51.727889
24.76842745,-1.192661524,-0.03342168778,-0.5994598866,2024-06-05 15:54:51.768427
24.80891657,-2.228467464,1.512897253,0.248865068,2024-06-05 15:54:51.808917
24.8493198,-1.089067578,1.543522596,0.4948007464,2024-06-05 15:54:51.849320
24.88980954,-1.155378342,0.8611077666,0.2459356785,2024-06-05 15:54:51.889810
24.93029839,-1.213699818,1.894250631,0.220370084,2024-06-05 15:54:51.930298
24.97078813,-1.117562652,1.961626649,-0.08934641629,2024-06-05 15:54:51.970788
25.01131074,-0.8029193878,1.039001703,-0.4817516208,2024-06-05 15:54:52.011311
25.05177772,-0.7190322876,0.311580658,-0.336081028,2024-06-05 15:54:52.051778
25.09229266,-0.3063876629,0.3890763521,-0.2589847744,2024-06-05 15:54:52.092293
25.13279714,-0.001198387123,-0.1090532318,-0.1878804713,2024-06-05 15:54:52.132797
25.17327506,0.01930734888,-0.1750976741,0.1138467789,2024-06-05 15:54:52.173275
25.21376485,0.663107574,-0.1031944528,0.3946688473,2024-06-05 15:54:52.213765
25.25424662,2.559089184,-0.2621804774,0.7573806643,2024-06-05 15:54:52.254247
25.29473495,3.412074566,-0.4093157947,0.4418053925,2024-06-05 15:54:52.294735
25.33519699,3.090240955,0.5954652429,0.5448666811,2024-06-05 15:54:52.335197
25.37570798,2.069880962,0.3802881837,0.05099803209,2024-06-05 15:54:52.375708
25.4161774,2.236856222,-1.306108832,-0.1660431921,2024-06-05 15:54:52.416177
25.45666626,1.411966324,-1.446187019,0.2312887162,2024-06-05 15:54:52.456666
25.49718105,0.8139711618,-1.928338051,0.48468104,2024-06-05 15:54:52.497181
25.53766365,0.1450048387,-1.28586936,0.447930485,2024-06-05 15:54:52.537664
25.57815063,-0.6465964317,-1.097323179,0.2776263654,2024-06-05 15:54:52.578151
25.61868167,-1.129546523,-1.525014281,0.02862813696,2024-06-05 15:54:52.618682
25.65915995,-0.6961297989,-1.218493462,-0.1284937263,2024-06-05 15:54:52.659160
25.69958725,-0.0323564522,-1.041398406,0.2195711583,2024-06-05 15:54:52.699587
25.74007615,0.157654494,-0.8756215572,0.3364804685,2024-06-05 15:54:52.740076
25.78061209,-0.6625749469,-0.2704360485,0.09733566642,2024-06-05 15:54:52.780612
25.82110209,-1.23393929,0.4026580751,0.2832188308,2024-06-05 15:54:52.821102
25.86161527,-0.3695026934,0.7752233148,0.255256474,2024-06-05 15:54:52.861615
25.90207152,-1.444322824,1.169759035,-0.4037233293,2024-06-05 15:54:52.902072
25.94255438,-0.6620423198,0.7645710111,-0.3669727743,2024-06-05 15:54:52.942554
25.98306527,-1.74937892,-0.5880086422,0.09014534205,2024-06-05 15:54:52.983065
26.02351917,-1.687329054,0.7003906965,0.5259587765,2024-06-05 15:54:53.023519
26.06399954,-1.173753619,1.193460464,0.4908061028,2024-06-05 15:54:53.064000
26.10449584,-1.114633203,0.9841421843,0.3949351311,2024-06-05 15:54:53.104496
26.14499693,-0.9957265854,1.625811934,0.3308880031,2024-06-05 15:54:53.144997
26.18548334,-0.8394036293,1.508103609,-0.0845528692,2024-06-05 15:54:53.185483
26.22599975,-1.034873843,0.6303516626,-0.2193048447,2024-06-05 15:54:53.226000
26.26645548,-1.016498566,0.4806863964,-0.167374745,2024-06-05 15:54:53.266455
26.30698917,-0.01611164957,0.5355458856,-0.2422073632,2024-06-05 15:54:53.306989
26.34748032,0.2529928386,0.3097164929,0.2299571782,2024-06-05 15:54:53.347480
26.38794636,0.2740311921,1.134606361,0.4412727654,2024-06-05 15:54:53.387946
26.42847167,2.266682625,0.915967226,0.5829487443,2024-06-05 15:54:53.428472
26.4689486,3.518331528,-0.08588441461,0.5637745857,2024-06-05 15:54:53.468949
26.50943318,3.584109545,1.803439498,0.8141043186,2024-06-05 15:54:53.509433
26.54990292,2.067750454,2.307694197,0.05206326395,2024-06-05 15:54:53.549903
26.59037667,1.97281158,-0.7864083052,-0.3246297538,2024-06-05 15:54:53.590377
26.63087037,1.500647068,-0.2989310026,0.1828206182,2024-06-05 15:54:53.630870
26.67136334,0.9737561345,-1.537796974,0.2193048447,2024-06-05 15:54:53.671363
26.71183756,0.34513551,-1.074953318,0.1087869257,2024-06-05 15:54:53.711838
26.75233704,-0.4616453648,-0.8175663352,0.03928046674,2024-06-05 15:54:53.752337
26.79281318,-1.301581621,-0.6708304882,-0.08881380409,2024-06-05 15:54:53.792813
26.83333574,-0.9752208591,-0.7310161591,-0.2764279842,2024-06-05 15:54:53.833336
26.87379876,-0.4139761925,-0.1852173954,-0.3275591433,2024-06-05 15:54:53.873799
26.91430709,0.04860125855,-0.3255618513,0.08694964647,2024-06-05 15:54:53.914307
26.95477943,-0.1987991184,-0.7014559507,0.3146432042,2024-06-05 15:54:53.954779
26.99526115,-1.163101315,0.04274247587,-0.2704360485,2024-06-05 15:54:53.995261
27.03574313,-0.8577789068,0.9742887616,-0.09627043456,2024-06-05 15:54:54.035743
27.07622027,-0.2454030514,0.9441959262,-0.1886793971,2024-06-05 15:54:54.076220
27.11673016,-1.140198827,1.179878712,-0.6497921348,2024-06-05 15:54:54.116730
27.15725167,-0.9097089767,1.627409697,-0.7896040082,2024-06-05 15:54:54.157252
27.19774928,-2.10277009,0.4838820994,-0.1226349548,2024-06-05 15:54:54.197749
27.23820938,-1.873744845,1.486532688,0.3834838867,2024-06-05 15:54:54.238209
27.27870266,-0.9549813867,1.438064575,0.6039870977,2024-06-05 15:54:54.278703
27.31917022,-0.4697677493,1.734199405,0.4822842479,2024-06-05 15:54:54.319170
27.35969542,-0.7379401922,1.68706286,0.06777545065,2024-06-05 15:54:54.359695
27.40020386,-0.6426018476,1.16496551,-0.2621804774,2024-06-05 15:54:54.400204
27.4406762,-0.4785559475,1.130877972,-0.3544562757,2024-06-05 15:54:54.440676
27.48112053,-0.5480623841,0.6655043364,-0.2411421239,2024-06-05 15:54:54.481121
27.52159844,-0.4376776218,1.614094377,-0.06564498693,2024-06-05 15:54:54.521598
27.56210136,0.1298252791,1.431540012,0.1087869257,2024-06-05 15:54:54.562101
27.60257511,0.5414046645,1.356707454,0.1995980442,2024-06-05 15:54:54.602575
27.64306417,1.273086667,0.6439333558,0.07975932211,2024-06-05 15:54:54.643064
27.68353766,2.039788008,0.3105154335,-0.03954677656,2024-06-05 15:54:54.683538
27.72407225,2.424337149,0.9681636691,-0.004127778113,2024-06-05 15:54:54.724072
27.76456506,2.090386629,1.320755839,0.01584534161,2024-06-05 15:54:54.764565
27.80505313,1.355109572,-0.0171768833,-0.3834838867,2024-06-05 15:54:54.805053
27.84555943,0.9929303527,-0.4138430357,-0.2961347699,2024-06-05 15:54:54.845559
27.88600141,0.496398598,-0.3917394578,-0.1287600398,2024-06-05 15:54:54.886001
27.9265162,-0.2715012729,-0.1953371018,-0.07922670245,2024-06-05 15:54:54.926516
27.96699652,-0.727820456,0.04300878197,-0.2046578974,2024-06-05 15:54:54.966997
28.00750048,-0.8551158309,-0.06031882018,-0.3589835167,2024-06-05 15:54:55.007500
28.04801568,-0.7177007794,-0.1572550237,-0.3760272563,2024-06-05 15:54:55.048016
28.08851235,-0.2683055699,-0.5046541691,-0.451126188,2024-06-05 15:54:55.088512
28.12895084,-0.2009295821,-0.03368799388,-0.4655068219,2024-06-05 15:54:55.128951
28.1693961,-0.000932078925,0.03075860441,-0.4205007255,2024-06-05 15:54:55.169396
28.20989568,0.2034595013,0.03661738336,-0.2940043211,2024-06-05 15:54:55.209896
28.25046485,-0.05019910634,0.03422060981,-0.108254306,2024-06-05 15:54:55.250465
28.29088761,-0.3977313936,-0.1013302878,0.01291595027,2024-06-05 15:54:55.290888
28.3314224,-0.6756240726,-0.1290263534,0.167374745,2024-06-05 15:54:55.331422
28.37186792,-0.8686975241,0.2972000241,0.3087844253,2024-06-05 15:54:55.371868
28.41235501,-1.179612398,0.534480691,0.233951807,2024-06-05 15:54:55.412355
28.45284688,-0.8529853225,0.4050548673,-0.141542837,2024-06-05 15:54:55.452847
28.49333641,-0.3505948186,0.1876141727,-0.2280930281,2024-06-05 15:54:55.493336
28.53383553,-0.828751266,0.2474003732,-0.1455374658,2024-06-05 15:54:55.533836
28.57433949,-0.9970580935,0.9761528969,0.1359503716,2024-06-05 15:54:55.574339
28.61488954,-0.678553462,1.359104156,0.2608489394,2024-06-05 15:54:55.614890
28.6553223,-0.491871357,0.4181039631,0.1221023351,2024-06-05 15:54:55.655322
28.69577678,-0.479621172,0.304390341,0.1585865617,2024-06-05 15:54:55.695777
28.73630042,-0.6838796139,0.2495308369,0.4114462435,2024-06-05 15:54:55.736300
28.77684829,-0.6271559596,0.2229000032,0.4503272474,2024-06-05 15:54:55.776848
28.81728683,-0.5712311864,0.7677667141,0.3382114768,2024-06-05 15:54:55.817287
28.85777277,-0.388410598,1.07362175,0.2001306564,2024-06-05 15:54:55.857773
28.89825922,-0.2198374718,0.3198362291,0.09227581322,2024-06-05 15:54:55.898259
28.93879433,-0.5890738368,-0.1657768935,0.2571206093,2024-06-05 15:54:55.938794
28.97918897,-0.5821498632,0.5355458856,0.3202356696,2024-06-05 15:54:55.979189
29.01978022,-0.6441996694,0.8464608192,0.1548582464,2024-06-05 15:54:56.019780
29.06022501,-0.7392717004,-0.466039449,-0.028361829,2024-06-05 15:54:56.060225
29.10070355,-0.2928059399,0.6772218943,-0.1167761683,2024-06-05 15:54:56.100704
29.14116422,-0.2009295821,0.1407439113,-0.2713681161,2024-06-05 15:54:56.141164
29.18165298,-0.1298252791,0.1263632625,-0.3059881926,2024-06-05 15:54:56.181653
29.22217928,-0.176429227,0.07043853402,-0.244337827,2024-06-05 15:54:56.222179
29.26262912,-0.07283531129,-0.03448691964,-0.3062545061,2024-06-05 15:54:56.262629
29.3031448,0.1055912226,-0.3005288541,-0.2814878225,2024-06-05 15:54:56.303145
29.34363188,0.6053186655,-0.586943388,-0.000932078925,2024-06-05 15:54:56.343632
29.38410699,1.333538532,-0.1727008969,0.3023930192,2024-06-05 15:54:56.384107
29.4245824,2.125272989,0.7208964229,0.4974638224,2024-06-05 15:54:56.424582
29.46510495,2.108762026,0.07496577501,0.5248935819,2024-06-05 15:54:56.465105
29.50559355,2.028603077,0.641802907,0.6503247619,2024-06-05 15:54:56.505594
29.54608412,1.31702745,-0.4428706169,0.9123721123,2024-06-05 15:54:56.546084
29.58657303,1.090931773,-0.8298165202,1.2027812,2024-06-05 15:54:56.586573
29.62706699,0.8805482388,-1.887060285,1.40544188,2024-06-05 15:54:56.627067
29.66753683,0.762573719,-2.528730154,1.350582361,2024-06-05 15:54:56.667537
29.7080148,0.5232957006,-2.403032541,0.8676322699,2024-06-05 15:54:56.708015
29.74855433,-0.0541937314,-1.773080349,0.4135767221,2024-06-05 15:54:56.748554
29.78900647,-0.4070521593,-1.314630747,0.02063889056,2024-06-05 15:54:56.789006
29.829481,-0.3527252972,-1.254178762,-0.4042559266,2024-06-05 15:54:56.829481
29.87000433,-0.07230269164,-1.291994452,-0.3166405261,2024-06-05 15:54:56.870004
29.91047865,0.3094501793,-0.8511211872,0.6343462467,2024-06-05 15:54:56.910479
29.95100501,-0.1511299312,-0.1636464298,0.5834813714,2024-06-05 15:54:56.951005
29.99145172,-1.349250793,0.3001294136,-0.4657731354,2024-06-05 15:54:56.991452
30.03192449,-0.4342156053,0.8427324891,0.4322183132,2024-06-05 15:54:57.031924
30.07242673,-1.050319791,0.5728290677,0.04434032366,2024-06-05 15:54:57.072427
30.11293277,-1.267227888,1.700910807,-1.163101315,2024-06-05 15:54:57.112933
30.15341183,-0.9067795873,1.883065701,-1.979469299,2024-06-05 15:54:57.153412
30.19389329,-1.062303662,-1.935794711,-0.8829450011,2024-06-05 15:54:57.193893
30.23437704,-1.761096478,1.02541995,0.03022598661,2024-06-05 15:54:57.234377
30.2748911,-0.8740236759,2.631258726,0.899056673,2024-06-05 15:54:57.274891
30.315371,-1.011438727,2.303965807,0.7113093734,2024-06-05 15:54:57.315371
30.35584542,-1.065499306,1.540326953,0.1021292135,2024-06-05 15:54:57.355845
30.3963287,-1.084540367,0.788538754,-0.2956021726,2024-06-05 15:54:57.396329
30.43681522,-0.9270190597,0.3653749228,-0.3499290347,2024-06-05 15:54:57.436815
30.47732245,-0.3170399666,0.4058537781,-0.441539079,2024-06-05 15:54:57.477322
30.51779027,0.137015596,0.15512456,-0.217174381,2024-06-05 15:54:57.517790
30.55831381,-0.1852173954,0.8109086156,0.1394123733,2024-06-05 15:54:57.558314
30.59882975,1.066697717,0.0685743764,-0.02916075476,2024-06-05 15:54:57.598830
30.639256,2.033663034,-0.4236964285,0.4354139864,2024-06-05 15:54:57.639256
30.67971636,3.057485104,-0.4649742246,0.7981258631,2024-06-05 15:54:57.679716
30.72021084,2.954157591,2.019948006,1.077616334,2024-06-05 15:54:57.720211
30.76075761,0.9484568238,2.410489082,0.638607204,2024-06-05 15:54:57.760758
30.80121204,1.26882565,-0.6993255019,0.7469946742,2024-06-05 15:54:57.801212
30.84169412,1.170824289,-1.344190955,0.9713593721,2024-06-05 15:54:57.841694
30.88221204,0.9465926886,-2.256829262,1.201449752,2024-06-05 15:54:57.882212
30.92267199,0.5027899742,-2.206363916,0.9599081278,2024-06-05 15:54:57.922672
30.96321589,-0.6924014688,-1.320755839,0.5147738457,2024-06-05 15:54:57.963216
31.003661,-1.397186279,-1.252847195,-0.1197055578,2024-06-05 15:54:58.003661
31.04414048,-1.355908513,-0.6372756362,-0.8718932271,2024-06-05 15:54:58.044140
31.08463063,0.1786928326,-0.2158428431,-0.08135717362,2024-06-05 15:54:58.084631
31.12516214,0.6231613159,-0.7371412516,0.5584484339,2024-06-05 15:54:58.125162
31.16563693,-0.5406057835,0.6543194056,-0.6130415797,2024-06-05 15:54:58.165637
31.20615381,-0.2403431982,0.9306141734,-0.05579157919,2024-06-05 15:54:58.206154
31.24659943,-1.269624591,0.9471253157,-0.06165036187,2024-06-05 15:54:58.246599
31.28706735,-1.629407048,1.709965348,-1.04166472,2024-06-05 15:54:58.287067
31.32756344,-0.6718957424,-0.5360785127,-1.660165668,2024-06-05 15:54:58.327563
31.36807506,-2.216217279,-1.595585942,-0.3600487709,2024-06-05 15:54:58.368075
31.40859923,-1.287467241,1.499581814,0.5374100804,2024-06-05 15:54:58.408599
31.44906245,-1.566025734,1.7152915,0.7901365757,2024-06-05 15:54:58.449062
31.48957516,-0.861507237,2.252568483,0.08721595258,2024-06-05 15:54:58.489575
31.53008235,-0.5448666811,0.9045159817,-0.5722964406,2024-06-05 15:54:58.530082
31.57049032,-1.050852418,0.3781577349,-0.4170387387,2024-06-05 15:54:58.570490
31.61102355,-0.129292652,0.4729634523,-0.4426043332,2024-06-05 15:54:58.611024
31.65148719,0.2524602413,-1.107709169,-0.09227581322,2024-06-05 15:54:58.651487
31.69201584,0.3991960883,0.475093931,0.221701622,2024-06-05 15:54:58.692016
31.73248719,1.618621588,-0.04194355011,0.5461982489,2024-06-05 15:54:58.732487
31.7729711,3.114741325,-0.9605738521,0.8740236759,2024-06-05 15:54:58.772971
31.81346298,3.423259497,0.7275541425,1.072822809,2024-06-05 15:54:58.813463
31.85397657,1.724612236,2.863080025,0.3555215299,2024-06-05 15:54:58.853977
31.89442725,2.078136444,-2.063090086,-0.04087831825,2024-06-05 15:54:58.894427
31.93494079,1.488130569,-0.9467258453,0.4093157947,2024-06-05 15:54:58.934941
31.97540298,0.9516525269,-1.643121958,0.9374050498,2024-06-05 15:54:58.975403
32.01589391,0.5334154367,-1.723546982,0.6902710199,2024-06-05 15:54:59.015894
32.05636251,-0.478289634,-1.110105991,0.1812227666,2024-06-05 15:54:59.056363
32.09685766,-1.348185539,-1.371354342,-0.1700378209,2024-06-05 15:54:59.096858
32.13737225,-1.542590618,-0.8268871307,-0.5432688594,2024-06-05 15:54:59.137372
32.17783157,0.5483286977,-0.3732310236,0.1713693589,2024-06-05 15:54:59.177832
32.21831443,0.678819716,-0.8316806555,0.427957356,2024-06-05 15:54:59.218314
32.25884245,-0.813039124,0.3704347908,-0.3928046823,2024-06-05 15:54:59.258842
32.29937219,-0.4323514402,1.201715946,-0.2177069932,2024-06-05 15:54:59.299372
32.33982548,-0.5422036052,1.206775904,-0.2416747361,2024-06-05 15:54:59.339825
32.38028693,-1.545253634,0.07283531129,-0.6591129303,2024-06-05 15:54:59.380287
32.42082589,-1.001319051,-0.4703003764,-1.007044673,2024-06-05 15:54:59.420826
32.46129824,-1.612895966,1.128214955,0.4652405083,2024-06-05 15:54:59.461298
32.50176933,-1.477078795,0.3760272563,0.5536548495,2024-06-05 15:54:59.501769
32.54226006,-1.078681588,0.1950708032,0.0957378149,2024-06-05 15:54:59.542260
32.58274344,-0.9174319506,0.5579158068,-0.1010639817,2024-06-05 15:54:59.582743
32.62322511,-1.040998936,1.088801265,-0.3206351399,2024-06-05 15:54:59.623225
32.66369422,-1.445920706,0.340608269,-0.4655068219,2024-06-05 15:54:59.663694
32.70419646,-0.6218297482,0.1876141727,-0.5981283188,2024-06-05 15:54:59.704196
32.7447036,0.2175738513,-0.4314193726,-0.4969311953,2024-06-05 15:54:59.744704
32.78517949,0.0541937314,-0.1894783229,0.03315537795,2024-06-05 15:54:59.785179
32.8256835,0.9931966662,-0.1484668553,0.2730991244,2024-06-05 15:54:59.825683
32.86618626,2.469875813,-0.6372756362,0.5147738457,2024-06-05 15:54:59.866186
32.90664433,3.364671707,-0.06804175675,0.7227606177,2024-06-05 15:54:59.906644
32.94713105,2.928325653,2.71501255,0.758179605,2024-06-05 15:54:59.947131
32.9876298,1.846581459,-0.08934641629,0.3127790391,2024-06-05 15:54:59.987630
33.02815167,1.699845552,-0.788538754,0.4540555775,2024-06-05 15:55:00.028152
33.06862469,1.138334632,-1.230743647,0.9468590021,2024-06-05 15:55:00.068625
33.10910443,0.7742912769,-2.337520599,1.04912138,2024-06-05 15:55:00.109104
33.14956214,0.0954715088,-1.919283628,0.8636376858,2024-06-05 15:55:00.149562
33.19011646,-0.5864107609,-1.674546361,0.4673709869,2024-06-05 15:55:00.190116
33.2305873,-1.004781008,-2.00476861,0.1343525201,2024-06-05 15:55:00.230587
33.27104803,-1.024487853,-1.811695099,-0.09866721183,2024-06-05 15:55:00.271048
33.31152167,-0.1175750941,-1.409436464,0.079493016,2024-06-05 15:55:00.311522
33.35200558,0.331553787,-1.339131117,1.019028544,2024-06-05 15:55:00.352006
33.39252537,-0.1426080763,-0.2765611112,1.046990871,2024-06-05 15:55:00.392525
33.43299053,-1.021558523,0.1745650619,-0.08561810106,2024-06-05 15:55:00.432991
33.47347516,1.073355436,0.02889444493,-0.02303566411,2024-06-05 15:55:00.473475
33.5139811,-0.9677641988,-0.5350132585,-0.5760247707,2024-06-05 15:55:00.513981
33.55446511,-1.344457269,0.2905423045,-1.145791292,2024-06-05 15:55:00.554465
33.5949499,-0.8127728105,0.4655068219,-1.561099052,2024-06-05 15:55:00.594950
33.63545344,-1.89931047,-0.6734935641,0.09813459218,2024-06-05 15:55:00.635453
33.6759248,-1.074154377,0.1727008969,0.5126433969,2024-06-05 15:55:00.675925
33.71643745,-0.8673660159,-0.9283505678,0.3858806491,2024-06-05 15:55:00.716437
33.75692876,-0.5579158068,-0.05312849581,0.2653761804,2024-06-05 15:55:00.756929
33.79741511,-0.5347470045,0.2150439173,0.03581846133,2024-06-05 15:55:00.797415
33.83794329,-0.6990591884,0.1340862066,-0.05179695413,2024-06-05 15:55:00.837943
33.87842292,-0.7153039575,-0.7448641658,-0.08668334037,2024-06-05 15:55:00.878423
33.91888417,-0.4310199022,-0.3641765416,-0.1484668553,2024-06-05 15:55:00.918884
33.95940891,-0.3399424851,0.2580527067,-0.08881380409,2024-06-05 15:55:00.959409
33.99990266,-0.4854799509,-0.2288919389,-0.09760197252,2024-06-05 15:55:00.999903
34.04030973,-0.5355458856,-0.1844184697,-0.1857500076,2024-06-05 15:55:01.040310
34.0808227,-0.0464707911,0.3049229383,-0.2977326214,2024-06-05 15:55:01.080823
34.12132639,-0.1210371032,-0.2312887162,-0.3198362291,2024-06-05 15:55:01.121326
34.16180598,0.07256899774,-0.3497959077,-0.2073209733,2024-06-05 15:55:01.161806
34.20232775,0.8059819341,-0.7789516449,-0.2653761804,2024-06-05 15:55:01.202328
34.24277066,1.954702616,-0.7986584306,-0.2033263594,2024-06-05 15:55:01.242771
34.28325947,2.420608997,-1.229678392,0.0464707911,2024-06-05 15:55:01.283259
34.32376712,2.851895094,-1.828206182,0.3733641803,2024-06-05 15:55:01.323767
34.36425374,2.885982513,-2.016486168,0.7184996605,2024-06-05 15:55:01.364254
34.4047329,1.688926935,-0.1165098622,1.035805941,2024-06-05 15:55:01.404733
34.4452466,0.3371462524,-0.8561810255,1.448317409,2024-06-05 15:55:01.445247
34.48570426,0.2806889117,-2.099840641,1.658567786,2024-06-05 15:55:01.485704
34.52626462,0.5600462556,-2.854824543,1.340995193,2024-06-05 15:55:01.526265
34.56669228,0.04593817517,-2.419011116,1.09066546,2024-06-05 15:55:01.566692
34.60717785,-0.4563191831,-1.760297537,0.6279548407,2024-06-05 15:55:01.607178
34.64768525,-0.5515244007,-1.513296723,-0.02649767138,2024-06-05 15:55:01.647685
34.68815764,-0.5659050345,-1.225151181,-0.5123770833,2024-06-05 15:55:01.688158
34.72868988,-0.5555190444,-0.9001219273,-0.5920032263,2024-06-05 15:55:01.728690
34.76919207,-0.7075810432,-1.057110667,-0.1079879999,2024-06-05 15:55:01.769192
34.80969978,-0.8266208172,-0.09946613014,0.1282274276,2024-06-05 15:55:01.809700
34.8501291,-0.5001268983,-0.4777570069,-0.1069227681,2024-06-05 15:55:01.850129
34.89063566,-0.1987991184,-0.4671046734,0.01531272475,2024-06-05 15:55:01.890636
34.93107889,-0.7507229447,0.3565867543,-0.6463301182,2024-06-05 15:55:01.931079
34.97162014,-0.2115819156,0.03794892505,-0.8348763585,2024-06-05 15:55:01.971620
35.01204764,-0.4041227698,-2.824997902,-0.3701684773,2024-06-05 15:55:02.012048
35.05257525,-0.7182333469,-1.900908351,0.3010614812,2024-06-05 15:55:02.052575
35.09305921,-0.2142449915,-0.7619079351,0.3818860352,2024-06-05 15:55:02.093059
35.1335427,-0.2342181057,-0.5137086511,0.5110455155,2024-06-05 15:55:02.133543
35.17402098,-0.6279548407,0.1865489334,0.7003906965,2024-06-05 15:55:02.174021
35.21451962,-0.663906455,0.3725652397,0.5709648728,2024-06-05 15:55:02.214520
35.2550028,-0.3745625615,0.04540555924,0.2661750913,2024-06-05 15:55:02.255003
35.29555894,-0.8159685135,0.2561885417,0.2749632597,2024-06-05 15:55:02.295559
35.33599796,-0.7145050764,-0.4503272474,-0.01105179265,2024-06-05 15:55:02.335998
35.37645947,-0.6367430687,0.08215609938,-0.1154446304,2024-06-05 15:55:02.376459
35.41694394,-0.6817491055,-0.4910724163,-0.162847504,2024-06-05 15:55:02.416944
35.45747103,-0.3186378181,0.1239664927,-0.2732322812,2024-06-05 15:55:02.457471
35.49793978,-0.217174381,0.3941362202,-0.1961360276,2024-06-05 15:55:02.497940
35.53850535,-0.2078536004,0.5469971299,-0.1356840581,2024-06-05 15:55:02.538505
35.57898822,0.1276948154,0.168706283,-0.09174319357,2024-06-05 15:55:02.578988
35.61938254,0.7809489369,-0.07416684926,0.2874797583,2024-06-05 15:55:02.619383
35.65992759,1.634067416,-0.1050586104,0.614639461,2024-06-05 15:55:02.659928
35.70039275,2.536453009,0.8286181092,0.6428681016,2024-06-05 15:55:02.700393
35.7409091,2.370543003,1.258972287,0.955380857,2024-06-05 15:55:02.740909
35.78138624,2.134061098,1.67294848,0.901719749,2024-06-05 15:55:02.781386
35.82187337,1.895848513,0.3925383687,0.684412241,2024-06-05 15:55:02.821873
35.86235634,1.869217634,0.1950708032,0.5057193637,2024-06-05 15:55:02.862356
35.90283691,1.496119738,-0.6378082633,0.5435351729,2024-06-05 15:55:02.902837
35.94331712,1.127416015,-0.9459269047,0.2536586225,2024-06-05 15:55:02.943317
35.98384665,0.5190348029,-0.9523183107,-0.2640446424,2024-06-05 15:55:02.983847
36.02430827,-0.3657743931,-0.9451280236,-0.6809502244,2024-06-05 15:55:03.024308
36.06482759,-1.132742167,-1.252847195,-0.9516525269,2024-06-05 15:55:03.064828
36.10531921,-1.295190215,-0.8093107939,-1.094127417,2024-06-05 15:55:03.105319
36.14577452,0.4308867455,-0.5054530501,0.1039933711,2024-06-05 15:55:03.145775
36.18627447,0.2604494691,-0.1452711523,0.5054530501,2024-06-05 15:55:03.186274
36.22675046,-0.8782846332,0.3307548463,-0.3531247377,2024-06-05 15:55:03.226750
36.26720082,-0.1761629134,0.6692326665,-0.1631138027,2024-06-05 15:55:03.267201
36.3077079,-0.4469984174,1.841787934,0.05818835273,2024-06-05 15:55:03.307708
36.34821306,-1.090132833,0.5951989293,-0.535279572,2024-06-05 15:55:03.348213
36.38872353,-1.45364356,-1.08773613,-1.472018838,2024-06-05 15:55:03.388724
36.42917514,-1.801575303,-0.6093133092,-0.7408695817,2024-06-05 15:55:03.429175
36.46970337,-1.17162323,0.3129121959,0.5304860473,2024-06-05 15:55:03.469703
36.51017884,-1.230743647,0.3038577139,0.5712311864,2024-06-05 15:55:03.510179
36.55066457,-0.9805470109,0.3376788795,0.2736317217,2024-06-05 15:55:03.550665
36.59114582,-0.4435364008,0.464707911,-0.1886793971,2024-06-05 15:55:03.591146
36.63163436,-0.6497921348,0.2945369184,-0.2334191799,2024-06-05 15:55:03.631634
36.67212306,-1.102915645,0.0957378149,-0.317972064,2024-06-05 15:55:03.672123
36.71261618,-1.25843966,-0.05259587988,-0.2603163123,2024-06-05 15:55:03.712616
36.75310165,-0.01105179265,0.3637770712,-0.5392742157,2024-06-05 15:55:03.753102
36.79360254,0.3352820873,-0.1556571722,-0.311580658,2024-06-05 15:55:03.793603
36.83411233,1.378411531,-0.9680305123,0.2768274248,2024-06-05 15:55:03.834112
36.87458165,2.779725552,-1.1396662,0.7086462975,2024-06-05 15:55:03.874582
36.9150479,3.450689316,-0.03022598661,0.8119738698,2024-06-05 15:55:03.915048
36.95554717,2.339651108,2.57293725,0.8535179496,2024-06-05 15:55:03.955547
36.99603848,1.541658521,-0.3069202602,0.9379376769,2024-06-05 15:55:03.996038
37.03651514,1.634866357,-0.9009208083,1.105046153,2024-06-05 15:55:04.036515
37.07700457,0.9780170918,-2.539648771,1.777873874,2024-06-05 15:55:04.077005
37.11750566,0.7363423109,-3.526054382,1.948843837,2024-06-05 15:55:04.117506
37.15799582,0.2021279633,-3.084914923,1.366560817,2024-06-05 15:55:04.157996
37.19848254,-0.2896102369,-2.838047028,0.7576469779,2024-06-05 15:55:04.198483
37.23896936,-0.6135742068,-2.589714527,0.1878804713,2024-06-05 15:55:04.238969
37.2794754,-0.7403369546,-2.245378017,-0.3869459033,2024-06-05 15:55:04.279475
37.31993139,0.213312909,-2.012491465,-0.489208281,2024-06-05 15:55:04.319931
37.36047764,1.013968706,-1.901707292,0.5848129392,2024-06-05 15:55:04.360478
37.40090421,0.2932053804,-0.3226324618,0.9347419739,2024-06-05 15:55:04.400904
37.44137895,-0.6319494843,0.3235645294,0.3896089792,2024-06-05 15:55:04.441379
37.4819015,1.435135245,-1.64844811,-0.0683080703,2024-06-05 15:55:04.481901
37.52239072,0.6234276295,-1.552443981,-0.1705704331,2024-06-05 15:55:04.522391
37.56288509,-0.7480598688,-1.349250793,-0.5587147474,2024-06-05 15:55:04.562885
37.60336457,-1.4395293,-0.01051917579,0.5736280084,2024-06-05 15:55:04.603365
37.64386624,-0.377491951,-0.5067846179,1.272820354,2024-06-05 15:55:04.643866
37.6843303,-0.6276885867,-0.8761541843,0.8042509556,2024-06-05 15:55:04.684330
37.72485546,-0.4623111188,-0.959774971,0.1482005417,2024-06-05 15:55:04.724855
37.76531926,0.02516612969,-0.1420754492,-0.08375394344,2024-06-05 15:55:04.765319
37.80580202,0.2633788586,0.01744319126,-0.2637783289,2024-06-05 15:55:04.805802
37.84632858,0.4303541481,-0.3519263566,-0.4205007255,2024-06-05 15:55:04.846329
37.88683676,0.5387415886,-0.3487306535,-0.3126458824,2024-06-05 15:55:04.886837
37.92734702,0.5326164961,-0.08774857223,-0.3376788795,2024-06-05 15:55:04.927347
37.96776566,1.218227148,-0.553388536,-0.4314193726,2024-06-05 15:55:04.967766
38.00822832,2.136990547,-0.476958096,-0.5589810014,2024-06-05 15:55:05.008228
38.04876488,3.644295216,-0.5616441369,0.3167736828,2024-06-05 15:55:05.048765
38.08918025,2.605293751,0.4551208019,1.472817779,2024-06-05 15:55:05.089180
38.12976806,0.78414464,0.5576494932,1.001984835,2024-06-05 15:55:05.129768
38.17022249,-0.7272878289,0.4567186534,1.07362175,2024-06-05 15:55:05.170222
38.21074056,-1.795183897,0.3326190114,0.4668383598,2024-06-05 15:55:05.210741
38.25118077,-2.291182995,0.2215684652,-0.05685681105,2024-06-05 15:55:05.251181
38.29165228,-2.903825283,-0.4119788706,-0.06511236727,2024-06-05 15:55:05.291652
38.332164,-3.24869442,-0.2555227578,-0.1242327988,2024-06-05 15:55:05.332164
38.37266327,-1.711030602,-3.013278008,0.2214353085,2024-06-05 15:55:05.372663
38.41315957,-0.5153064728,-1.703840256,0.3213009238,2024-06-05 15:55:05.413160
38.4536079,-0.6982602477,1.520087481,0.6577813625,2024-06-05 15:55:05.453608
38.49412582,-0.1545919478,-0.2730991244,0.2310224175,2024-06-05 15:55:05.494126
38.53463082,0.9865389466,-1.104247212,0.4652405083,2024-06-05 15:55:05.534631
38.57512525,1.030746102,0.2998631001,0.6553846002,2024-06-05 15:55:05.575125
38.615574,0.07523208112,0.1098521575,-0.256588012,2024-06-05 15:55:05.615574
38.6560741,0.3059881926,0.4378107786,-0.6492595077,2024-06-05 15:55:05.656074
38.69655337,0.7756227851,1.825010419,-0.6151720881,2024-06-05 15:55:05.696553
38.73705582,1.473749876,2.035393953,-0.9607070088,2024-06-05 15:55:05.737056
38.77752452,1.52301693,2.177203178,-0.9234238863,2024-06-05 15:55:05.777525
38.8180403,3.345763683,0.01371487509,-0.3659075499,2024-06-05 15:55:05.818040
38.85852327,3.248295069,-0.3750951886,0.6745588183,2024-06-05 15:55:05.858523
38.89906264,1.25471139,0.842199862,0.4710993171,2024-06-05 15:55:05.899063
38.93951077,-0.6734935641,1.339663625,0.4756265581,2024-06-05 15:55:05.939511
38.9799765,-2.007431746,0.8047835231,0.03608476743,2024-06-05 15:55:05.979976
39.0204679,-2.648302555,-0.2411421239,-0.3896089792,2024-06-05 15:55:06.020468
39.06095546,-2.7212708,-2.22860074,-0.6103785038,2024-06-05 15:55:06.060955
39.10143827,-2.530327797,-2.493044853,-0.4359466136,2024-06-05 15:55:06.101438
39.14193374,-2.394244432,-2.43632102,0.7248910666,2024-06-05 15:55:06.141934
39.18242368,-0.7195649147,-0.516371727,0.7669677734,2024-06-05 15:55:06.182424
39.2228979,-0.2933385372,1.538462758,0.8268871307,2024-06-05 15:55:06.222898
39.26340431,0.8461945057,-0.5113118291,-0.114113085,2024-06-05 15:55:06.263404
39.30389561,0.3017272651,0.4218322635,0.3424724042,2024-06-05 15:55:06.303896
39.34437931,0.1372819096,0.4497946501,0.5858781338,2024-06-05 15:55:06.344379
39.38487014,0.6567161679,1.056311727,-0.1852173954,2024-06-05 15:55:06.384870
39.42535353,-0.01584534161,0.5616441369,-0.4676373005,2024-06-05 15:55:06.425354
39.46584228,-0.9821448326,0.2115819156,-0.6165035963,2024-06-05 15:55:06.465842
39.50634228,-0.5680354834,1.405708075,-0.4886756539,2024-06-05 15:55:06.506342
39.54684676,0.605052352,2.126604557,-0.1162435561,2024-06-05 15:55:06.546847
39.58734046,1.154046774,0.7515218854,-0.1258306503,2024-06-05 15:55:06.587340
39.62782275,1.439396143,-0.4628437459,-0.239810586,2024-06-05 15:55:06.627823
39.66830587,1.887326598,-1.350582361,-0.2942706347,2024-06-05 15:55:06.668306
39.70878228,2.968271732,-0.5709648728,0.2477998286,2024-06-05 15:55:06.708782
39.7493052,2.736850023,-0.4559197426,1.182275534,2024-06-05 15:55:06.749305
39.78978905,1.282141089,-0.2728328109,0.9886693954,2024-06-05 15:55:06.789789
39.83025572,-0.006524552125,0.02995967865,0.1753639877,2024-06-05 15:55:06.830256
39.87075217,-0.8511211872,0.4543218911,-0.1045259908,2024-06-05 15:55:06.870752
39.91123613,-1.378278375,-0.2400768995,-0.1298252791,2024-06-05 15:55:06.911236
39.95175098,-2.160292625,-0.1452711523,-0.3872122169,2024-06-05 15:55:06.951751
39.99221556,-3.204487324,0.7568480372,-0.5664376616,2024-06-05 15:55:06.992216
40.03272108,-2.414483786,-0.3912068307,-0.2291582525,2024-06-05 15:55:07.032721
40.07321941,-1.130345345,-2.972532749,0.1210371032,2024-06-05 15:55:07.073219
40.11368639,-0.5328828096,-0.204924196,0.2001306564,2024-06-05 15:55:07.113686
40.15417462,-0.3165073693,1.581604719,0.3485974967,2024-06-05 15:55:07.154175
40.19469223,-0.1146457046,-0.3718994856,0.06031882018,2024-06-05 15:55:07.194692
40.23516025,0.1472684592,-1.220357537,0.3149095178,2024-06-05 15:55:07.235160
40.27564639,0.6516563296,0.8943963051,0.5733616948,2024-06-05 15:55:07.275646
40.31613608,1.197987676,-0.1061238423,0.5600462556,2024-06-05 15:55:07.316136
40.3566153,0.3712337017,0.7219616771,-0.1031944528,2024-06-05 15:55:07.356615
40.39711035,-0.3532578945,0.7267552018,-0.531817615,2024-06-05 15:55:07.397110
40.43760353,-0.7430000305,1.138068318,-0.6652380228,2024-06-05 15:55:07.437604
40.47806858,-0.4780233204,1.02462101,-0.1580539495,2024-06-05 15:55:07.478069
40.51860207,-0.03501953557,0.694265604,-0.0352858454,2024-06-05 15:55:07.518602
40.55909072,0.3595161438,1.143128157,-0.03928046674,2024-06-05 15:55:07.559091
40.59959613,0.8504554033,-0.06644391268,-0.3818860352,2024-06-05 15:55:07.599596
40.64005905,1.913957477,-1.221689105,-0.09440627694,2024-06-05 15:55:07.640059
40.68050186,2.973864317,-1.179346085,-0.02889444493,2024-06-05 15:55:07.680502
40.720999,2.902227402,-0.7107767463,0.3322195411,2024-06-05 15:55:07.720999
40.76155379,1.490527272,0.3411408663,0.7360759974,2024-06-05 15:55:07.761554
40.80200603,0.2993304729,0.440207541,0.09307473898,2024-06-05 15:55:07.802006
40.84248025,-0.6428681016,0.6298190355,-0.2685718834,2024-06-05 15:55:07.842480
40.88298301,-1.813559175,0.5251598954,-0.3411408663,2024-06-05 15:55:07.882983
40.92344165,-2.418212175,-0.07709623873,-0.6090469956,2024-06-05 15:55:07.923442
40.96398368,-2.973065376,-0.4668383598,-0.2913412452,2024-06-05 15:55:07.963984
41.00441348,-2.007165432,-1.912625909,0.02090519853,2024-06-05 15:55:08.004413
41.04492957,-0.764038384,-2.986913443,-0.05179695413,2024-06-05 15:55:08.044930
41.08540759,-0.1982664913,1.230743647,0.3319532275,2024-06-05 15:55:08.085408
41.12596249,0.1135804728,0.1431406885,0.3491301239,2024-06-05 15:55:08.125962
41.16639155,-0.1314231306,-1.606770873,-0.2118482143,2024-06-05 15:55:08.166392
41.20688212,-0.3676385581,1.044594169,0.1825543046,2024-06-05 15:55:08.206882
41.24734754,0.7812152505,-0.3631113172,0.2616478503,2024-06-05 15:55:08.247348
41.28791598,-0.1977338791,-0.001464695437,-0.07256899774,2024-06-05 15:55:08.287916
41.32839598,-0.382019192,0.09813459218,-0.3944025338,2024-06-05 15:55:08.328396
41.3689003,-0.3375457227,1.013169765,-0.2448704392,2024-06-05 15:55:08.368900
41.40927613,0.0541937314,0.147401616,-0.3403419554,2024-06-05 15:55:08.409276
41.44986186,0.2500634491,0.028361829,-0.2825530469,2024-06-05 15:55:08.449862
41.49027322,0.693466723,-0.6846785545,-0.3251623809,2024-06-05 15:55:08.490273
41.53082171,0.9063801765,-1.553775549,-0.7504566908,2024-06-05 15:55:08.530822
41.57127207,2.476533651,-0.6862763762,-0.1684399694,2024-06-05 15:55:08.571272
41.61176483,2.664414167,-0.7147713304,0.5616441369,2024-06-05 15:55:08.611765
41.65227744,1.095991611,0.648194313,0.7011896372,2024-06-05 15:55:08.652277
41.69271066,0.3717663288,-0.5198337436,0.822892487,2024-06-05 15:55:08.692711
41.73321457,-0.4700340629,-0.3745625615,0.6841459274,2024-06-05 15:55:08.733215
41.77371967,-1.237401366,-0.7121082544,0.7182333469,2024-06-05 15:55:08.773720
41.81421744,-1.525546789,-0.831946969,0.4974638224,2024-06-05 15:55:08.814217
41.85473171,-1.574281216,-0.5877423286,0.1442059278,2024-06-05 15:55:08.854732
41.89519952,-1.039401174,-0.9427312016,0.1205044836,2024-06-05 15:55:08.895200
41.93566624,-0.0842865631,-2.265084982,-0.09600412846,2024-06-05 15:55:08.935666
41.97616124,0.4527240396,-1.287467241,-0.2153102309,2024-06-05 15:55:08.976161
42.01668509,0.3006620109,-1.743786454,-0.1974675655,2024-06-05 15:55:09.016685
42.05719009,-0.1242327988,-0.79493016,0.4082505703,2024-06-05 15:55:09.057190
42.09763103,0.1119826213,-1.229412079,0.7893376946,2024-06-05 15:55:09.097631
42.13812822,-0.1860163212,-1.391860127,0.7544512749,2024-06-05 15:55:09.138128
42.1786404,-0.04620448127,-2.545507431,0.1388797611,2024-06-05 15:55:09.178640
42.21914874,-0.3205019832,-1.55457449,-0.06591129303,2024-06-05 15:55:09.219149
42.25962348,-0.2773600519,-1.183074474,0.04913387448,2024-06-05 15:55:09.259623
42.3000504,-2.350303411,-1.018229604,0.4868114889,2024-06-05 15:55:09.300050
42.34061858,-0.8742899895,-0.8335448503,0.09627043456,2024-06-05 15:55:09.340619
42.38108457,-0.9296821356,-1.138068318,0.09280842543,2024-06-05 15:55:09.381085
42.42153327,-1.022091031,-0.2123808414,-0.3323526978,2024-06-05 15:55:09.421533
42.46201207,-0.7882724404,-0.1495320797,-0.3845491111,2024-06-05 15:55:09.462012
42.50251639,-0.2746969759,-0.2818872929,-0.4876104295,2024-06-05 15:55:09.502516
42.54300061,0.3424724042,-0.3391435742,-0.4825505614,2024-06-05 15:55:09.543001
42.58349842,0.9636363983,-0.4884093404,-0.2704360485,2024-06-05 15:55:09.583498
42.6239904,2.438984156,-1.910229087,0.1306242049,2024-06-05 15:55:09.623990
42.66446582,3.413672447,-0.7398043275,0.6913362145,2024-06-05 15:55:09.664466
42.70494978,1.961892962,1.937392592,1.006512046,2024-06-05 15:55:09.704950
42.74546681,1.283472657,-1.399849296,1.083475113,2024-06-05 15:55:09.745467
42.78594176,2.129001379,-3.728448629,0.9374050498,2024-06-05 15:55:09.785942
42.82644462,1.403977156,-3.23085165,1.416360497,2024-06-05 15:55:09.826445
42.86694863,0.538475275,-4.068391323,1.807434082,2024-06-05 15:55:09.866949
42.90741681,-0.2379464209,-4.017659664,1.785863161,2024-06-05 15:55:09.907417
42.9479215,-0.389742136,-3.888233662,1.296255469,2024-06-05 15:55:09.947921
42.98841514,-0.3641765416,-3.882907629,0.9958597422,2024-06-05 15:55:09.988415
43.02886785,0.03049229458,-3.32592392,0.7469946742,2024-06-05 15:55:10.028868
43.06940639,0.6471290588,-2.605693102,0.8180989623,2024-06-05 15:55:10.069406
43.1098991,0.574693203,-2.893705606,0.6902710199,2024-06-05 15:55:10.109899
43.15033197,-0.09067796171,-0.9174319506,0.4045222402,2024-06-05 15:55:10.150332
43.19081296,-0.3681711555,-0.4133104086,0.7877398133,2024-06-05 15:55:10.190813
43.23135056,-0.409715265,-0.4271584451,0.7957290411,2024-06-05 15:55:10.231351
43.27180598,-0.8527190089,0.4758928418,0.04833494872,2024-06-05 15:55:10.271806
43.31231483,1.900642037,0.1599181145,0.1529940963,2024-06-05 15:55:10.312315
43.35281457,0.07709623873,-2.006899118,-0.5600462556,2024-06-05 15:55:10.352815
43.39330374,-0.6290200949,-2.223274469,-0.7818810344,2024-06-05 15:55:10.393304
43.43376582,-1.219558716,1.388131738,0.6087806821,2024-06-05 15:55:10.433766
43.47424108,-0.6298190355,-0.7967942953,1.18493855,2024-06-05 15:55:10.474241
43.5147465,-0.7121082544,-1.066431403,0.2206363827,2024-06-05 15:55:10.514747
43.55524717,-0.2685718834,-0.7403369546,0.08748225868,2024-06-05 15:55:10.555247
43.59573025,-0.2312887162,-0.3473991156,0.00599193573,2024-06-05 15:55:10.595730
43.63620285,0.05472634733,-0.3359478712,0.01691057347,2024-06-05 15:55:10.636203
43.67670353,0.4513925016,-0.5331491232,0.03688369319,2024-06-05 15:55:10.676704
43.71720374,0.5342143774,-0.9515193701,-0.1252980381,2024-06-05 15:55:10.717204
43.75769191,0.5560516119,-0.9765523672,-0.2137123793,2024-06-05 15:55:10.757692
43.79821978,0.8070471883,0.2809551954,0.1708367467,2024-06-05 15:55:10.798220
43.83868702,1.111970067,-1.057909489,0.09999874979,2024-06-05 15:55:10.838687
43.87913311,1.712894678,-0.164179042,0.2754958868,2024-06-05 15:55:10.879133
43.91961103,3.187976122,0.2894770801,1.14712286,2024-06-05 15:55:10.919611
43.96012858,1.895582199,0.5379426479,1.64179039,2024-06-05 15:55:10.960129
44.00062348,0.7726933956,0.2617810071,1.146856546,2024-06-05 15:55:11.000623
44.04110217,0.04274247587,0.4934692085,0.3319532275,2024-06-05 15:55:11.041102
44.08165473,-0.9824111462,0.1825543046,-0.1047922969,2024-06-05 15:55:11.081655
44.12209514,-1.625412464,0.3912068307,-0.4228975177,2024-06-05 15:55:11.122095
44.16257754,-2.332727194,-0.672162056,-0.9750877023,2024-06-05 15:55:11.162578
44.20308967,-2.953624964,-1.652442694,-0.8399362564,2024-06-05 15:55:11.203090
44.24354691,-2.086258888,-2.211423874,-0.2166417688,2024-06-05 15:55:11.243547
44.28405087,-0.7834789157,0.02489982173,0.2872134447,2024-06-05 15:55:11.284051
44.32458613,0.3019935489,1.45697248,0.4244953692,2024-06-05 15:55:11.324586
44.36507744,-0.5552527308,-1.437931418,0.01478010789,2024-06-05 15:55:11.365077
44.40552186,0.6702978611,1.006245732,0.5336817503,2024-06-05 15:55:11.405522
44.44601853,1.491592526,0.48468104,0.4937354922,2024-06-05 15:55:11.446019
44.48648983,0.3744294047,-0.3556546867,-0.06697652489,2024-06-05 15:55:11.486490
44.52703988,-1.099187374,0.09334104508,-0.6356778145,2024-06-05 15:55:11.527040
44.56746462,-0.2179733068,0.9955934286,-0.5360785127,2024-06-05 15:55:11.567465
44.60792889,0.1122489274,1.403577685,-0.3480648994,2024-06-05 15:55:11.607929
44.64845712,0.6929340959,0.6692326665,-0.3240971565,2024-06-05 15:55:11.648457
44.68893009,1.240863323,0.0733679235,-0.2145113051,2024-06-05 15:55:11.688930
44.72945389,2.000108242,-1.168161154,-0.3800218701,2024-06-05 15:55:11.729454
44.76989223,2.991706848,-0.5432688594,0.1529940963,2024-06-05 15:55:11.769892
44.81043962,2.537784576,-0.08481918275,1.019827485,2024-06-05 15:55:11.810440
44.85087785,0.7987915874,0.1713693589,0.7999899983,2024-06-05 15:55:11.850878
44.89137572,-0.2190385461,0.3509942889,0.1532603949,2024-06-05 15:55:11.891376
44.93186014,-1.267227888,0.6375419497,-0.3078523576,2024-06-05 15:55:11.931860
44.97238389,-2.198374748,0.5600462556,-0.4322183132,2024-06-05 15:55:11.972384
45.01281822,-2.831788778,0.7163692117,-0.3368799388,2024-06-05 15:55:12.012818
45.05338999,-3.336043596,0.1929403245,-0.4284899831,2024-06-05 15:55:12.053390
45.09381103,-1.879603624,-2.755092144,-0.2745638192,2024-06-05 15:55:12.093811
45.13431671,-0.09786828607,-2.695971727,0.003595161485,2024-06-05 15:55:12.134317
45.17484905,-0.000133154128,1.551778197,0.2017285079,2024-06-05 15:55:12.174849
45.21532311,0.6319494843,0.1322220564,0.2454030514,2024-06-05 15:55:12.215323
45.25578061,0.8523195982,0.6838796139,0.4274247587,2024-06-05 15:55:12.255781
45.29628405,1.755504012,0.06351451576,0.7440652847,2024-06-05 15:55:12.296284
45.3367679,0.03715000302,-0.409848392,-0.2078536004,2024-06-05 15:55:12.336768
45.37726264,-0.6441996694,-0.1524614692,-0.7789516449,2024-06-05 15:55:12.377263
45.41772259,0.3248960674,1.531006217,-0.3520595133,2024-06-05 15:55:12.417723
45.45827249,0.2583190203,1.03953433,-0.437011838,2024-06-05 15:55:12.458272
45.49870228,1.091997027,0.8605751395,-0.4585828185,2024-06-05 15:55:12.498702
45.53917915,2.466946602,0.3914731443,-0.1671084315,2024-06-05 15:55:12.539179
45.57974223,3.210212946,-0.8449960947,0.3023930192,2024-06-05 15:55:12.579742
45.62018806,1.958164573,-0.1463363916,0.5669702888,2024-06-05 15:55:12.620188
45.66068072,0.4481967986,0.2817541361,0.2579195499,2024-06-05 15:55:12.660681
45.70113655,-0.7437989712,0.8445966244,-0.03182383627,2024-06-05 15:55:12.701137
45.74164644,-1.73979187,0.3624455333,-0.496398598,2024-06-05 15:55:12.741646
45.78212681,-2.686384439,0.4082505703,-0.6636402011,2024-06-05 15:55:12.782127
45.82262572,-3.575854063,0.3794892728,-0.3086512685,2024-06-05 15:55:12.822626
45.86311254,-2.302634239,-1.156976223,-0.1870815456,2024-06-05 15:55:12.863113
45.9035991,-1.441127181,-2.234992027,0.4242290556,2024-06-05 15:55:12.903599
45.9440777,-0.1697715074,1.581604719,0.3266270757,2024-06-05 15:55:12.944078
45.98460092,0.4157072008,0.8334116936,0.1343525201,2024-06-05 15:55:12.984601
46.02507494,-0.08268871158,-2.346042633,-0.02782921307,2024-06-05 15:55:13.025075
46.06559941,1.001185894,2.262421846,0.3010614812,2024-06-05 15:55:13.065599
46.10607316,1.539261699,0.4149082601,0.5243609548,2024-06-05 15:55:13.106073
46.14656327,-0.03342168778,0.3608476818,-0.3962666988,2024-06-05 15:55:13.146563
46.1870115,-0.00599193573,1.22728157,-0.5754921436,2024-06-05 15:55:13.187011
46.22750384,0.07682993263,2.472272635,-0.160983339,2024-06-05 15:55:13.227504
46.26800707,0.1332872808,0.6055849791,-0.3398093283,2024-06-05 15:55:13.268007
46.30851759,1.281342149,-0.6865426898,-0.1772281379,2024-06-05 15:55:13.308518
46.3489953,2.710219145,-0.6737598777,0.3746957183,2024-06-05 15:55:13.348995
46.38944999,2.928591967,-0.7746906877,0.8942631483,2024-06-05 15:55:13.389450
46.42998082,2.008896351,-0.8716269135,1.322087288,2024-06-05 15:55:13.429981
46.47049077,0.3272928596,0.854450047,0.5512580872,2024-06-05 15:55:13.470491
46.51093796,-0.3423392773,0.2535254657,0.008655018173,2024-06-05 15:55:13.510938
46.5514228,-1.397186279,0.1093195379,-0.5576494932,2024-06-05 15:55:13.551423
46.59191994,-2.154167414,0.3717663288,-0.7565817833,2024-06-05 15:55:13.591920
46.63241296,-2.908086061,-0.800788939,-0.6830806732,2024-06-05 15:55:13.632413
46.6728927,-2.970135927,-0.4292888939,-0.6615096927,2024-06-05 15:55:13.672893
46.71338551,-1.850576043,-1.410768032,-0.137015596,2024-06-05 15:55:13.713386
46.75386004,-0.6058512926,0.3581846058,-0.02143781446,2024-06-05 15:55:13.753860
46.79435546,-0.01850842312,0.59599787,0.141542837,2024-06-05 15:55:13.794355
46.83486863,0.09893351793,0.2713681161,0.2464682907,2024-06-05 15:55:13.834869
46.87534259,-0.1516625583,1.45031476,0.1838858575,2024-06-05 15:55:13.875343
46.91583332,1.311701298,0.06884068251,0.4745613039,2024-06-05 15:55:13.915833
46.95635035,0.04886756465,1.028615594,-0.06963960826,2024-06-05 15:55:13.956350
46.99685629,-0.2073209733,1.256309152,-0.1921414137,2024-06-05 15:55:13.996856
47.03734061,-0.1828206182,0.09467258304,-0.5691007376,2024-06-05 15:55:14.037341
47.07780087,-0.2392779738,-0.2928059399,-0.5648398399,2024-06-05 15:55:14.077801
47.11829254,-0.2528596818,1.278412819,0.0512643382,2024-06-05 15:55:14.118293
47.15880561,0.3661738634,0.7469946742,0.04354140162,2024-06-05 15:55:14.158806
47.19929858,0.5216978788,-0.6689663529,-0.06537867337,2024-06-05 15:55:14.199299
47.23975374,0.6412702799,-0.2997299433,-0.2411421239,2024-06-05 15:55:14.239754
47.28026306,2.156963825,0.7757559419,0.1580539495,2024-06-05 15:55:14.280263
47.32070634,3.442966223,-0.4841484129,0.3477985859,2024-06-05 15:55:14.320706
47.36118738,2.555094481,0.3797555864,1.088534951,2024-06-05 15:55:14.361187
47.40170233,1.27255404,0.3704347908,1.05205071,2024-06-05 15:55:14.401702
47.44215124,0.6766892672,-0.06005251035,0.2086525112,2024-06-05 15:55:14.442151
47.4826565,-0.4488625526,-0.5211652517,-0.2446041405,2024-06-05 15:55:14.482656
47.52316233,-1.554840803,-0.5395405293,-0.4202344418,2024-06-05 15:55:14.523162
47.56363952,-2.351368666,0.01797580719,-0.9114400148,2024-06-05 15:55:14.563640
47.6041552,-2.812880993,0.4255605936,-1.14339447,2024-06-05 15:55:14.604155
47.64461561,-2.117150545,-1.256042838,-0.9892020226,2024-06-05 15:55:14.644616
47.68508509,-0.968829453,-2.141917229,-0.4428706169,2024-06-05 15:55:14.685085
47.72565207,-0.8934642076,-0.9760197401,0.01744319126,2024-06-05 15:55:14.725652
47.76608973,-0.7525871396,1.261369109,0.3356815577,2024-06-05 15:55:14.766090
47.80657572,0.3504616618,1.856701136,0.2960016131,2024-06-05 15:55:14.806576
47.8471041,0.8509880304,-0.2659088075,0.1436733007,2024-06-05 15:55:14.847104
47.8875641,-0.5667039752,0.9577776194,0.3130453527,2024-06-05 15:55:14.887564
47.9280341,-0.04460663348,1.183607101,0.2017285079,2024-06-05 15:55:14.928034
47.96858176,0.2521939278,0.230090335,-0.008655018173,2024-06-05 15:55:14.968582
48.00903217,0.4423380196,2.492512226,0.08881380409,2024-06-05 15:55:15.009032
48.0494704,0.3235645294,1.70117712,-0.3379451632,2024-06-05 15:55:15.049470
48.09000025,-0.4238295853,1.71156311,-0.8774856925,2024-06-05 15:55:15.090000
48.13052316,-0.6133078933,1.921680331,-0.7006570101,2024-06-05 15:55:15.130523
48.17100014,0.1079879999,3.852548361,-0.1442059278,2024-06-05 15:55:15.171000
48.21150967,1.184672236,2.970668554,-0.1711030602,2024-06-05 15:55:15.211510
48.25194967,1.442325473,2.469875813,-0.2310224175,2024-06-05 15:55:15.251950
48.29245759,0.937271893,1.500380754,-0.4260932207,2024-06-05 15:55:15.292458
48.33293056,1.606637716,0.8563141823,0.2440715134,2024-06-05 15:55:15.332931
48.37343712,1.897712588,1.674812675,1.273086667,2024-06-05 15:55:15.373437
48.41391072,0.9673647285,2.061092854,1.232874036,2024-06-05 15:55:15.413911
48.45443447,0.2868140042,0.8437976837,0.6021229625,2024-06-05 15:55:15.454434
48.49487702,0.3467333615,-0.3202356696,-0.08082455397,2024-06-05 15:55:15.494877
48.53539066,-0.1620485783,-0.4809527099,-0.8713606,2024-06-05 15:55:15.535391
48.57586822,-0.6710968018,-0.2797568142,-1.14712286,2024-06-05 15:55:15.575868
48.61635717,-1.155644655,0.08828118443,-1.109307051,2024-06-05 15:55:15.616357
48.65686134,-1.344989896,0.3339505494,-1.154579401,2024-06-05 15:55:15.656861
48.69733723,-1.27628231,0.8304823041,-0.761375308,2024-06-05 15:55:15.697337
48.73782806,-1.145791292,1.077616334,-0.6242265701,2024-06-05 15:55:15.737828
48.7783728,-0.8740236759,0.3517931998,-0.7121082544,2024-06-05 15:55:15.778373
48.81885061,-0.4081174135,0.2620473206,-0.4671046734,2024-06-05 15:55:15.818851
48.85935587,-0.2097177505,0.8318138123,-0.3616466224,2024-06-05 15:55:15.859356
48.89982832,0.0573894307,0.7669677734,-0.4063864052,2024-06-05 15:55:15.899828
48.94026155,0.3041240275,-0.06298190355,-0.4133104086,2024-06-05 15:55:15.940262
48.9807765,0.2093182951,-0.03395430371,-0.5235620141,2024-06-05 15:55:15.980776
49.02124103,-0.2011958808,0.4242290556,-0.452457726,2024-06-05 15:55:16.021241
49.06175504,-0.2888112962,0.8138380051,-0.2908086181,2024-06-05 15:55:16.061755
49.10223228,-0.2707023323,0.3038577139,-0.3523258269,2024-06-05 15:55:16.102232
49.1427129,-0.2467346042,0.3733641803,-0.1644453406,2024-06-05 15:55:16.142713
49.18322457,-0.2669740319,-0.1697715074,-0.0573894307,2024-06-05 15:55:16.183225
49.22370358,-0.779484272,-0.5693670511,-0.0544600375,2024-06-05 15:55:16.223704
49.26419223,-1.170824289,-0.1298252791,0.1929403245,2024-06-05 15:55:16.264192
49.30466457,-1.149519563,0.5366111398,0.4191691875,2024-06-05 15:55:16.304665
49.34515671,-0.4094489515,0.8781514764,0.1260969639,2024-06-05 15:55:16.345157
49.38565197,-0.02330197208,0.3507279754,0.04620448127,2024-06-05 15:55:16.385652
49.42615014,-0.1785596907,-0.03395430371,0.1276948154,2024-06-05 15:55:16.426150
49.46666525,0.1146457046,0.05978620425,0.1229012609,2024-06-05 15:55:16.466665
49.50712832,-0.1154446304,-0.05259587988,0.2272941023,2024-06-05 15:55:16.507128
49.5476329,-0.2547238469,-0.09680305421,0.3053224087,2024-06-05 15:55:16.547633
49.58813275,0.03954677656,-0.1977338791,0.1865489334,2024-06-05 15:55:16.588133
49.62863473,0.01078548469,-0.3790898025,0.0731016174,2024-06-05 15:55:16.628635
49.66907848,-0.1540593207,-0.2813546658,0.08508548886,2024-06-05 15:55:16.669078
49.70956525,0.04034570232,-0.259783715,0.09973244369,2024-06-05 15:55:16.709565
49.75008322,0.02303566411,-0.6338136196,0.04034570232,2024-06-05 15:55:16.750083
49.79056155,-0.0541937314,-0.8556483984,-0.01398118306,2024-06-05 15:55:16.790562
49.83100712,-0.06804175675,-0.7211627364,0.007856093347,2024-06-05 15:55:16.831007
49.87151712,-0.03661738336,-0.534480691,0.02543243766,2024-06-05 15:55:16.871517
49.91200733,-0.1372819096,-0.08322133124,0.05472634733,2024-06-05 15:55:16.912007
49.95251592,-0.1423417628,-0.03928046674,-0.001997311832,2024-06-05 15:55:16.952516
49.99299947,-0.1263632625,-0.142874375,-0.1247654185,2024-06-05 15:55:16.992999
50.03348561,-0.146070078,-0.3551220596,-0.160983339,2024-06-05 15:55:17.033486
50.07398587,-0.1756303012,-0.5440677404,-0.09467258304,2024-06-05 15:55:17.073986
50.11447577,-0.1934729517,-0.4684362113,-0.005459319334,2024-06-05 15:55:17.114476
50.15494441,-0.09227581322,-0.359382987,0.01557903271,2024-06-05 15:55:17.154944
50.19544754,-0.06564498693,-0.7022548914,-0.05392742157,2024-06-05 15:55:17.195448
50.23593744,-0.08322133124,-0.9264864326,-0.05259587988,2024-06-05 15:55:17.235937
50.2764379,-0.1921414137,-0.724624753,-0.02410089783,2024-06-05 15:55:17.276438
50.31692264,-0.2794905007,-0.693466723,-0.09840089828,2024-06-05 15:55:17.316923
50.35739582,-0.2539249361,-0.7334129214,-0.1987991184,2024-06-05 15:55:17.357396
50.39786322,-0.230756104,-0.4609795809,-0.2187722325,2024-06-05 15:55:17.397863
50.43834337,-0.2765611112,-0.562443018,-0.226228863,2024-06-05 15:55:17.438343
50.4788677,-0.3284912407,-0.510512948,-0.256588012,2024-06-05 15:55:17.478868
50.51937296,-0.4560528994,-0.5310186744,-0.2536586225,2024-06-05 15:55:17.519373
50.55986816,-0.4544550478,-0.5419372916,-0.2523270845,2024-06-05 15:55:17.559868
50.60036832,-0.4512593448,-0.4993279874,-0.2817541361,2024-06-05 15:55:17.600368
50.64082035,-0.2240983993,-0.9451280236,-0.265642494,2024-06-05 15:55:17.640820
50.68133009,0.1330209672,-1.286401987,-0.07469946891,2024-06-05 15:55:17.681330
50.72178467,0.6210308671,-0.5169043541,0.04460663348,2024-06-05 15:55:17.721785
50.76227728,1.524614811,0.1479342431,-0.04061200842,2024-06-05 15:55:17.762277
50.80275592,2.000907183,-0.9637695551,0.0954715088,2024-06-05 15:55:17.802756
50.84329264,2.635386467,-0.1897446364,0.3517931998,2024-06-05 15:55:17.843293
50.88376311,2.0957129,-0.4260932207,0.443403244,2024-06-05 15:55:17.883763
50.92423072,1.459369302,-0.4306204617,0.6428681016,2024-06-05 15:55:17.924231
50.96473842,1.005446792,-0.4034570158,0.7113093734,2024-06-05 15:55:17.964738
51.00523098,0.5845466256,-0.5683017969,0.733679235,2024-06-05 15:55:18.005231
51.04570014,0.3214340508,-1.306907773,0.669765234,2024-06-05 15:55:18.045700
51.08617462,0.304390341,-1.311434984,0.3364804685,2024-06-05 15:55:18.086175
51.1267465,0.1210371032,-0.8876054287,0.03448691964,2024-06-05 15:55:18.126747
51.16715191,-0.03794892505,-0.8114412427,-0.2153102309,2024-06-05 15:55:18.167152
51.20764139,-0.1021292135,-0.9243559837,-0.4481967986,2024-06-05 15:55:18.207641
51.24813613,-0.2986647189,-0.9784165621,-0.5446003675,2024-06-05 15:55:18.248136
51.28866296,-0.0842865631,-0.8404688835,-0.3123795986,2024-06-05 15:55:18.288663
51.3291616,0.2894770801,-0.7467283607,0.09121058136,2024-06-05 15:55:18.329162
51.3696704,-0.0685743764,-0.8045172691,0.1913424879,2024-06-05 15:55:18.369670
51.41006983,-0.691069901,-0.7962616682,0.08801487833,2024-06-05 15:55:18.410070
51.45061723,-1.323418856,0.1497983932,0.150597319,2024-06-05 15:55:18.450617
51.49107238,-0.8457950354,1.254445076,0.6026555896,2024-06-05 15:55:18.491072
51.53162796,-0.1825543046,0.7531197667,0.6266233325,2024-06-05 15:55:18.531628
51.57204014,-0.705716908,-0.07523208112,0.1399449855,2024-06-05 15:55:18.572040
51.61256816,-0.7081136703,-0.6212971807,-0.07709623873,2024-06-05 15:55:18.612568
51.65301587,-1.21316731,1.75310719,0.1439396143,2024-06-05 15:55:18.653016
51.69351754,-0.9408670664,3.296762943,0.1953371018,2024-06-05 15:55:18.693518
51.73407816,-0.4673709869,2.12021327,0.142874375,2024-06-05 15:55:18.734078
51.77454941,-0.496398598,2.093049765,0.06564498693,2024-06-05 15:55:18.774549
51.81504566,-0.7440652847,2.916341782,0.04354140162,2024-06-05 15:55:18.815046
51.85551025,-0.9163666964,2.785850763,-0.02729659714,2024-06-05 15:55:18.855510
51.89603103,-1.025553107,2.148974419,-0.1655105799,2024-06-05 15:55:18.896031
51.93650994,-1.222221732,1.544854164,-0.1934729517,2024-06-05 15:55:18.936510
51.97692764,-1.348718166,1.652709007,0.04886756465,2024-06-05 15:55:18.976928
52.01746494,-0.8793498874,2.300770283,0.4111799598,2024-06-05 15:55:19.017465
52.05791957,-0.6157047153,2.083196402,0.4346150756,2024-06-05 15:55:19.057920
52.09844827,-0.1756303012,1.609300733,0.3372794092,2024-06-05 15:55:19.098448
52.13896858,0.3091838956,1.863092542,0.5243609548,2024-06-05 15:55:19.138969
52.17935118,1.581604719,1.188134313,0.949522078,2024-06-05 15:55:19.179351
52.21994056,3.258414745,1.752574682,0.8862738609,2024-06-05 15:55:19.219941
52.26039009,3.539636135,1.883065701,0.09307473898,2024-06-05 15:55:19.260390
52.30084379,2.766143799,2.118349075,-0.4663057625,2024-06-05 15:55:19.300844
52.34134509,2.123142481,1.16416657,-0.8210283518,2024-06-05 15:55:19.341345
52.38183494,1.29252708,0.9982565045,-0.3613803089,2024-06-05 15:55:19.381835
52.42232754,1.146057606,0.04726971686,0.04141093418,2024-06-05 15:55:19.422328
52.46280421,0.7296846509,-0.4468652606,-0.1921414137,2024-06-05 15:55:19.462804
52.50330577,-0.3420729637,-0.5078498721,-0.230756104,2024-06-05 15:55:19.503306
52.54383014,-1.298918486,-0.2283593267,-0.432484597,2024-06-05 15:55:19.543830
52.58429811,-1.629140735,0.02143781446,-0.5762910843,2024-06-05 15:55:19.584298
52.62481629,-0.4785559475,0.6314168572,-0.1372819096,2024-06-05 15:55:19.624816
52.66524905,0.2151770741,-0.3138442934,0.5994598866,2024-06-05 15:55:19.665249
52.70574587,-0.4611127377,0.208119899,-0.09014534205,2024-06-05 15:55:19.705746
52.74629119,-1.28294003,1.090132833,-0.316107899,2024-06-05 15:55:19.746291
52.78676473,-0.8125064969,1.73606348,-0.21264714,2024-06-05 15:55:19.786765
52.82723978,-1.155910969,1.38014257,-0.7203638554,2024-06-05 15:55:19.827240
52.86773077,-1.042330503,1.743253827,-1.161503434,2024-06-05 15:55:19.867731
52.90822441,-2.00476861,-0.2691044807,-0.3017272651,2024-06-05 15:55:19.908224
52.9487241,-2.63232398,0.7733591795,0.1828206182,2024-06-05 15:55:19.948724
52.98921207,-1.084540367,2.727262735,0.672162056,2024-06-05 15:55:19.989212
53.02971499,-1.057243824,2.121810913,0.8900021911,2024-06-05 15:55:20.029715
53.07015952,-0.7712287307,2.738181591,0.349662751,2024-06-05 15:55:20.070160
53.11063337,-1.179878712,1.708101153,-0.217174381,2024-06-05 15:55:20.110633
53.15113905,-1.238732815,0.5850792527,-0.5147738457,2024-06-05 15:55:20.151139
53.19163894,0.0621829778,1.383338213,-0.3477985859,2024-06-05 15:55:20.191639
53.23211811,0.1672415882,0.2179733068,-0.2238320857,2024-06-05 15:55:20.232118
53.27259895,0.1701709777,0.6500584483,0.3928046823,2024-06-05 15:55:20.272599
53.3130929,1.455907226,0.3826849759,0.9440627694,2024-06-05 15:55:20.313093
53.35357322,3.038843393,0.672960937,1.043262601,2024-06-05 15:55:20.353573
53.39404827,2.856688738,0.4687025249,0.5667039752,2024-06-05 15:55:20.394048
53.43453228,2.029668331,2.09118557,0.3685706258,2024-06-05 15:55:20.434532
53.47502014,2.09784317,-0.06697652489,0.09813459218,2024-06-05 15:55:20.475020
53.51552462,1.339663625,-0.675357759,0.3095833361,2024-06-05 15:55:20.515525
53.55601957,0.8872059584,-1.057909489,1.100252509,2024-06-05 15:55:20.556020
53.59650941,0.7003906965,-1.574281216,0.886806488,2024-06-05 15:55:20.596509
53.63703228,-0.3692364097,-1.41582787,0.2219679356,2024-06-05 15:55:20.637032
53.6774566,-1.110904932,-1.566025734,-0.4481967986,2024-06-05 15:55:20.677457
53.71794921,-1.337266922,-0.9600412846,-0.7110430598,2024-06-05 15:55:20.717949
53.75848217,0.5898727775,-0.5698996782,0.5816172361,2024-06-05 15:55:20.758482
53.798959,0.5256925225,-0.546730876,0.6330147386,2024-06-05 15:55:20.798959
53.83948014,-1.001585364,0.5065183043,-0.5280892849,2024-06-05 15:55:20.839480
53.87996223,0.02969337068,1.919549942,-0.2897433937,2024-06-05 15:55:20.879962
53.92045551,-0.9025186896,0.3549889028,-0.456984967,2024-06-05 15:55:20.920456
53.96087858,-1.485866904,1.241662264,-1.135138988,2024-06-05 15:55:20.960879
54.00139697,-1.109307051,-1.133274794,-1.388664365,2024-06-05 15:55:21.001397
54.04187348,-2.579861164,-0.2145113051,0.1167761683,2024-06-05 15:55:21.041873
54.0823904,-1.208639979,1.627942324,0.5507254601,2024-06-05 15:55:21.082390
54.12286264,-1.523682714,0.9652342796,0.3400756419,2024-06-05 15:55:21.122863
54.16337139,-0.8133054376,1.427279115,-0.1487331539,2024-06-05 15:55:21.163371
54.20384353,-1.075752258,0.9801475406,-0.4095821083,2024-06-05 15:55:21.203844
54.24432389,-1.302913189,0.2583190203,-0.3776251078,2024-06-05 15:55:21.244324
54.28487452,0.2796236575,0.3621792197,-0.6346125603,2024-06-05 15:55:21.284875
54.32529098,0.1616491079,-0.8045172691,-0.1290263534,2024-06-05 15:55:21.325291
54.36577676,0.3978645205,0.2402100414,0.4934692085,2024-06-05 15:55:21.365777
54.40627509,2.053103447,0.04620448127,0.8910674453,2024-06-05 15:55:21.406275
54.44676306,3.188242435,-0.7469946742,1.126084447,2024-06-05 15:55:21.446763
54.48727165,3.099828005,1.532603979,1.070159674,2024-06-05 15:55:21.487272
54.52775249,1.256575465,2.561486006,0.5493939519,2024-06-05 15:55:21.527752
54.56829879,1.900375724,-1.572949767,0.1953371018,2024-06-05 15:55:21.568299
54.60878733,1.316761136,-0.546730876,0.4764254689,2024-06-05 15:55:21.608787
54.64923728,0.6894720793,-1.840988994,0.9910661578,2024-06-05 15:55:21.649237
54.68967342,0.3730978668,-1.852173924,0.6439333558,2024-06-05 15:55:21.689673
54.73014061,-0.6655043364,-1.443790197,0.01371487509,2024-06-05 15:55:21.730141
54.77073895,-1.414762616,-1.650312304,-0.5398068428,2024-06-05 15:55:21.770739
54.81115436,-1.305842519,-0.9990554452,-0.6559172273,2024-06-05 15:55:21.811154
54.85168275,0.7796174288,-0.6039870977,0.5493939519,2024-06-05 15:55:21.851683
54.89215051,0.1909430176,-0.08082455397,0.3146432042,2024-06-05 15:55:21.892151
54.9326577,-0.6993255019,0.2186390758,-0.5861444473,2024-06-05 15:55:21.932658
54.97317108,0.09147688746,1.160704494,-0.1889457107,2024-06-05 15:55:21.973171
55.01360374,-1.219558716,0.2513949871,-0.409848392,2024-06-05 15:55:22.013604
55.05412842,-1.873478532,-0.5507254601,-0.8327459097,2024-06-05 15:55:22.054128
55.0946154,-1.37348485,0.06804175675,-0.59599787,2024-06-05 15:55:22.094615
55.13509613,-1.505041122,0.414375633,0.7272878289,2024-06-05 15:55:22.135096
55.17560598,-1.575612783,0.3091838956,0.5025236607,2024-06-05 15:55:22.175606
55.21611082,-0.9640358686,0.8491238952,0.1913424879,2024-06-05 15:55:22.216111
55.25654452,-0.176429227,1.213433623,-0.2587184608,2024-06-05 15:55:22.256545
55.29705103,-0.7832126021,0.6434007287,-0.2477998286,2024-06-05 15:55:22.297051
55.33753504,-1.238999128,-0.123167567,-0.203592658,2024-06-05 15:55:22.337535
55.37803384,-0.4302209914,0.3715000153,-0.3589835167,2024-06-05 15:55:22.378034
55.41856223,0.408516854,-0.1748313755,-0.3877448142,2024-06-05 15:55:22.418562
55.45902967,0.5714974999,0.03262276202,0.3018604219,2024-06-05 15:55:22.459030
55.49947447,2.083729029,0.5946663618,0.4844147265,2024-06-05 15:55:22.499474
55.53996915,3.105154276,0.6343462467,0.46018067,2024-06-05 15:55:22.539969
55.58040806,2.968271732,2.681990385,0.3848154247,2024-06-05 15:55:22.580408
55.62096957,1.958164573,0.7107767463,-0.06058513001,2024-06-05 15:55:22.620970
55.66145842,1.664426565,-0.04513924941,-0.1306242049,2024-06-05 15:55:22.661458
55.70196717,1.201449752,-0.2653761804,0.168706283,2024-06-05 15:55:22.701967
55.74244379,0.5965304971,-0.6055849791,0.3571193814,2024-06-05 15:55:22.742444
55.78292967,0.05951989442,-0.4572512805,0.4990616739,2024-06-05 15:55:22.782930
55.82342426,-0.4158403277,-0.9957265854,0.2379464209,2024-06-05 15:55:22.823424
55.86393842,-0.4304873049,-1.375615239,0.05286218971,2024-06-05 15:55:22.863938
55.90443254,0.1696383655,-1.66629076,0.1205044836,2024-06-05 15:55:22.904433
55.94488275,0.005193010904,-1.380675197,0.2499302924,2024-06-05 15:55:22.944883
55.98534967,-0.1101184636,-0.694265604,0.5190348029,2024-06-05 15:55:22.985350
56.02586108,0.05179695413,-0.3952014446,0.7757559419,2024-06-05 15:55:23.025861
56.06636785,-0.5584484339,-0.6588466167,0.4340824485,2024-06-05 15:55:23.066368
56.10682707,-0.8657681346,-1.055246472,-0.1308905035,2024-06-05 15:55:23.106827
56.1473441,-0.6679010987,0.2862813771,0.06484606117,2024-06-05 15:55:23.147344
56.18785025,-0.5033226013,-0.04460663348,0.2137123793,2024-06-05 15:55:23.187850
56.22831436,-0.4544550478,-0.24753353,0.1074553803,2024-06-05 15:55:23.228314
56.26878014,-0.4073184729,-0.2872134447,0.03581846133,2024-06-05 15:55:23.268780
56.30929764,-0.2749632597,0.05099803209,0.1069227681,2024-06-05 15:55:23.309298
56.34981915,-0.4302209914,-0.05659050494,0.1828206182,2024-06-05 15:55:23.349819
56.39028462,-0.2541912198,-0.3511274457,0.2158428431,2024-06-05 15:55:23.390285
56.43077947,-0.1133141592,-0.1987991184,0.2882786989,2024-06-05 15:55:23.430779
56.47122629,-0.252060771,-0.1788259894,0.06351451576,2024-06-05 15:55:23.471226
56.51171483,-0.2302234918,0.09360735118,-0.01824211515,2024-06-05 15:55:23.511715
56.55221244,-0.2539249361,0.2790910602,0.08854749799,2024-06-05 15:55:23.552212
56.59271014,-0.2928059399,-0.2115819156,0.0576557368,2024-06-05 15:55:23.592710
56.63319744,-0.360714525,-0.1229012609,0.06511236727,2024-06-05 15:55:23.633197
56.67364863,-0.5453993082,-0.2512618303,0.02676397935,2024-06-05 15:55:23.673649
56.71415921,-0.4625774324,-0.5387415886,-0.01025286783,2024-06-05 15:55:23.714159
56.75465624,-0.103727065,-0.2462019771,0.04593817517,2024-06-05 15:55:23.754656
56.79515197,-0.04407401755,-0.1111836955,0.008655018173,2024-06-05 15:55:23.795152
56.83565608,-0.2001306564,0.3049229383,-0.03448691964,2024-06-05 15:55:23.835656
56.87612478,-0.3505948186,0.6149057746,0.001997311832,2024-06-05 15:55:23.876125
56.91661035,-0.3450023532,0.4982627332,0.05845466256,2024-06-05 15:55:23.916610
56.95710316,-0.3391435742,0.1561897993,0.02676397935,2024-06-05 15:55:23.957103
56.9975991,-0.05712312087,0.3685706258,0.02703028731,2024-06-05 15:55:23.997599
57.03809014,0.01557903271,0.2102503628,-0.000133154128,2024-06-05 15:55:24.038090
57.07860738,-0.2169080675,0.05179695413,-0.084020257,2024-06-05 15:55:24.078607
57.11903436,-0.1900109351,0.314776361,-0.08055824786,2024-06-05 15:55:24.119034
57.15953421,-0.1194392517,0.2001306564,-0.1330209672,2024-06-05 15:55:24.159534
57.20006473,-0.1780270636,0.2129134536,-0.2099840641,2024-06-05 15:55:24.200065
57.24057223,-0.2485987544,0.1101184636,-0.1290263534,2024-06-05 15:55:24.240572
57.28099228,-0.1854836941,0.04247616604,0.04540555924,2024-06-05 15:55:24.280992
57.32151535,-0.1729672104,-0.208119899,0.02729659714,2024-06-05 15:55:24.321515
57.36198744,-0.2158428431,-0.5435351729,0.08934641629,2024-06-05 15:55:24.361987
57.40246973,-0.1340862066,-0.6402050257,0.07576470077,2024-06-05 15:55:24.402470
57.44294202,-0.1881467849,-0.8740236759,-0.04460663348,2024-06-05 15:55:24.442942
57.48342733,-0.3545894325,-1.052317023,-0.1013302878,2024-06-05 15:55:24.483427
57.52395895,-0.273365438,-1.128214955,-0.1727008969,2024-06-05 15:55:24.523959
57.56443129,-0.3521926701,-0.8684312105,-0.1585865617,2024-06-05 15:55:24.564431
57.60492275,-0.5414046645,-0.7184996605,-0.1282274276,2024-06-05 15:55:24.604923
57.64539697,-0.6149057746,-0.6111774445,-0.1676410437,2024-06-05 15:55:24.645397
57.68587457,-0.6378082633,-0.5842803121,-0.1623148769,2024-06-05 15:55:24.685875
57.72639827,-0.5970631242,-0.5203663111,-0.2118482143,2024-06-05 15:55:24.726398
57.7668904,-0.4094489515,-0.5877423286,-0.3166405261,2024-06-05 15:55:24.766890
57.80737634,-0.006524552125,-0.7046516538,-0.2350170314,2024-06-05 15:55:24.807376
57.84784728,0.4948007464,-0.5967968106,0.01691057347,2024-06-05 15:55:24.847847
57.88840764,1.441260338,-0.06005251035,0.1029281393,2024-06-05 15:55:24.888408
57.92888723,2.093049765,-0.1074553803,0.2360822707,2024-06-05 15:55:24.928887
57.96933707,2.457891941,0.1322220564,0.4228975177,2024-06-05 15:55:24.969337
58.00979983,2.773866892,0.4039896131,0.3608476818,2024-06-05 15:55:25.009800
58.050319,1.90676713,-0.3111811876,0.3794892728,2024-06-05 15:55:25.050319
58.09082988,1.455640912,0.08481918275,0.3555215299,2024-06-05 15:55:25.090830
58.13126363,1.239265442,0.3038577139,0.1841521561,2024-06-05 15:55:25.131264
58.17175827,0.9356740713,-0.2938711643,0.2150439173,2024-06-05 15:55:25.171758
58.21223051,0.5158390999,-0.3303554058,-0.03448691964,2024-06-05 15:55:25.212231
58.25275514,0.04487293959,-0.04886756465,-0.2913412452,2024-06-05 15:55:25.252755
58.29322212,-0.4480636418,-0.2696371078,-0.2544575334,2024-06-05 15:55:25.293222
58.33371561,-0.6641727686,-0.3095833361,-0.3288906813,2024-06-05 15:55:25.333716
58.37419389,-0.8756215572,0.00998655986,-0.2608489394,2024-06-05 15:55:25.374194
58.41469264,-0.244337827,-0.3833507299,0.3292901516,2024-06-05 15:55:25.414693
58.45523207,-0.2240983993,-0.2033263594,0.2965342402,2024-06-05 15:55:25.455232
58.49568566,-1.256042838,1.053914905,-0.3736304939,2024-06-05 15:55:25.495686
58.53616223,-0.6945319176,1.378544688,-0.1623148769,2024-06-05 15:55:25.536162
58.57665264,-0.6354115009,1.408637524,-0.001731003635,2024-06-05 15:55:25.576653
58.61716894,-1.255244017,0.7970606089,-0.6673684716,2024-06-05 15:55:25.617169
58.65767874,-1.324217796,1.372685909,-0.9175651073,2024-06-05 15:55:25.657679
58.69809478,-2.0633564,0.4838820994,-0.05392742157,2024-06-05 15:55:25.698095
58.73864384,-1.194259405,2.179333687,0.3600487709,2024-06-05 15:55:25.738644
58.77910629,-0.7720276117,1.517957091,0.2792242169,2024-06-05 15:55:25.779106
58.81959514,-0.6990591884,1.585066795,0.1031944528,2024-06-05 15:55:25.819595
58.86006582,-0.9363398552,1.774411917,-0.06910699606,2024-06-05 15:55:25.860066
58.90060884,-1.092529655,0.8792167306,-0.1500647068,2024-06-05 15:55:25.900609
58.94110978,-1.267494202,1.192128897,-0.1788259894,2024-06-05 15:55:25.941110
58.98156889,-1.120758295,1.159373045,-0.2379464209,2024-06-05 15:55:25.981569
59.02203061,-0.4477973282,1.228879452,-0.233951807,2024-06-05 15:55:26.022031
59.062519,-0.006790860556,0.01105179265,-0.005193010904,2024-06-05 15:55:26.062519
59.10302139,0.4468652606,0.9665657878,0.3712337017,2024-06-05 15:55:26.103021
59.14352962,1.577876449,0.3459344208,0.6228950024,2024-06-05 15:55:26.143530
59.18393415,3.052425146,-0.2030600458,0.7238258123,2024-06-05 15:55:26.183934
59.22448191,3.460010052,0.8063814044,0.6945319176,2024-06-05 15:55:26.224482
59.26501004,1.990521073,3.423259497,0.2504629195,2024-06-05 15:55:26.265010
59.30551035,1.767754197,-0.5629756451,-0.1069227681,2024-06-05 15:55:26.305510
59.34594952,1.407705426,0.04114462435,0.1982664913,2024-06-05 15:55:26.345950
59.38644785,0.8294170499,-0.4772244096,0.5246272683,2024-06-05 15:55:26.386448
59.42693744,0.476958096,-1.045659423,0.6175688505,2024-06-05 15:55:26.426937
59.46745217,-0.4099815488,-0.6087806821,0.2659088075,2024-06-05 15:55:26.467452
59.50792764,-1.26509738,-0.6932004094,-0.2134460658,2024-06-05 15:55:26.507928
59.54844952,-1.522883773,-1.033409238,-0.5150401592,2024-06-05 15:55:26.548450
59.58889478,-0.4785559475,0.07416684926,-0.2774932086,2024-06-05 15:55:26.588895
59.62932546,0.476958096,0.02516612969,0.6420692205,2024-06-05 15:55:26.629325
59.66983009,0.1189066395,-0.2214353085,-0.006790860556,2024-06-05 15:55:26.669830
59.71034879,-0.5896064639,0.04194355011,-0.5155727863,2024-06-05 15:55:26.710349
59.75082353,-0.4718982279,0.06138405204,-0.3219666779,2024-06-05 15:55:26.750824
59.79133238,-1.532204509,0.9580439329,-0.5619103909,2024-06-05 15:55:26.791332
59.83183874,-1.343392015,0.9367392659,-0.7283530831,2024-06-05 15:55:26.831839
59.8723252,-1.645918131,-0.5238283277,-0.3584509194,2024-06-05 15:55:26.872325
59.9128127,-1.44991529,1.37641418,0.4580501914,2024-06-05 15:55:26.912813
59.95327894,-1.300516367,1.630605459,0.5416709781,2024-06-05 15:55:26.953279
59.99377655,-0.7376738787,2.001572847,0.487344116,2024-06-05 15:55:26.993777
60.03427165,-0.4499278069,1.761362791,-0.008655018173,2024-06-05 15:55:27.034272
60.07476368,-0.7435326576,0.9290163517,-0.3230319023,2024-06-05 15:55:27.074764
60.11527046,-1.204645395,0.1617822647,-0.2240983993,2024-06-05 15:55:27.115270
60.15572217,-0.4038564563,0.6228950024,-0.252060771,2024-06-05 15:55:27.155722
60.19620889,0.2111824453,0.1298252791,-0.3379451632,2024-06-05 15:55:27.196209
60.23669379,0.07256899774,0.1306242049,0.121836029,2024-06-05 15:55:27.236694
60.27719551,0.4436695576,0.2745638192,0.4500609636,2024-06-05 15:55:27.277196
60.31768223,2.146577597,0.06058513001,0.3664401472,2024-06-05 15:55:27.317682
60.35819837,3.575321436,1.048056126,0.1958697289,2024-06-05 15:55:27.358198
60.39871962,3.434710741,2.409956455,0.2770937383,2024-06-05 15:55:27.398720
60.4391603,1.905435562,1.060838938,-0.2774932086,2024-06-05 15:55:27.439160
60.4796216,1.658301473,0.475093931,-0.2062557489,2024-06-05 15:55:27.479622
60.52011129,1.071491241,-0.167374745,0.08508548886,2024-06-05 15:55:27.520111
60.56062181,0.4668383598,-1.196123481,0.2137123793,2024-06-05 15:55:27.560622
60.60110827,-0.1910761744,-0.913969934,0.2131797522,2024-06-05 15:55:27.601108
60.64159676,-1.116231084,-0.7576469779,0.01451379992,2024-06-05 15:55:27.641597
60.68205608,-1.427811742,-1.36309886,-0.07123745978,2024-06-05 15:55:27.682056
60.72255915,-0.8463276625,-1.534068704,0.1237001866,2024-06-05 15:55:27.722559
60.76306645,-0.403323859,-1.224884868,0.4018591642,2024-06-05 15:55:27.763066
60.80355374,-0.1753639877,-1.456040382,0.5022573471,2024-06-05 15:55:27.803554
60.84406785,-0.2816209793,-1.485866904,0.4924039543,2024-06-05 15:55:27.844068
60.88453546,-0.4304873049,-0.3978645205,0.5669702888,2024-06-05 15:55:27.884535
60.92495509,-0.6737598777,-0.2057231218,0.1450048387,2024-06-05 15:55:27.924955
60.96547941,-1.260836482,-1.939256668,0.3066539466,2024-06-05 15:55:27.965479
61.00601467,-1.102915645,-2.535387754,0.5185021758,2024-06-05 15:55:28.006015
