Time (s),Linear Acceleration x (m/s^2),Linear Acceleration y (m/s^2),Linear Acceleration z (m/s^2),Datetime
0.052730944,0.0,0.0,0.0,2024-06-05 15:54:27.052731
0.092701621,-0.1410331726,-0.365858078,-0.06670570374,2024-06-05 15:54:27.092702
0.132672246,-0.1458601952,-0.2016305923,0.5055541992,2024-06-05 15:54:27.132672
0.176819694,-0.1830859184,-0.5201387405,0.6539945602,2024-06-05 15:54:27.176820
0.231482871,-0.05558729172,-0.7704882622,0.839922905,2024-06-05 15:54:27.231483
0.271453496,1.13589716,-0.5943002701,0.4234538078,2024-06-05 15:54:27.271453
0.311424121,2.159961462,2.004976273,-5.580104351,2024-06-05 15:54:27.311424
0.352185579,1.933670163,0.6792526245,-0.6648459435,2024-06-05 15:54:27.352186
0.393737819,-0.7556438446,-1.018126011,0.370095253,2024-06-05 15:54:27.393738
0.434512194,1.010443211,0.3758487701,-0.4548768997,2024-06-05 15:54:27.434512
0.474906204,1.143729329,0.2828354836,-0.6808314323,2024-06-05 15:54:27.474906
0.515447663,-0.3775000572,-0.3304872513,0.3043379784,2024-06-05 15:54:27.515448
0.555955736,0.9048638344,0.1607398987,3.865348339,2024-06-05 15:54:27.555956
0.596447246,-0.02986693382,0.1182246208,4.167867184,2024-06-05 15:54:27.596447
0.636944694,-0.1076025963,-0.1329660416,-3.575538158,2024-06-05 15:54:27.636945
0.677519225,-0.0976061821,-0.1203145981,0.8333425522,2024-06-05 15:54:27.677519
0.71792334,-0.7689576149,-0.80890131,1.117768764,2024-06-05 15:54:27.717923
0.758423861,0.2904222012,0.6383800507,-0.6767373085,2024-06-05 15:54:27.758424
0.798928808,-0.3292503357,0.1403329372,-0.04730892181,2024-06-05 15:54:27.798929
0.839390163,-0.8850796223,-0.4067249298,-0.3182439804,2024-06-05 15:54:27.839390
0.879870111,-0.9558594227,1.009693861,0.3294315338,2024-06-05 15:54:27.879870
0.920364225,-0.003277540207,-0.342559576,-0.1113605499,2024-06-05 15:54:27.920364
0.960849798,-0.05561184883,-0.7958815098,0.07992649078,2024-06-05 15:54:27.960850
1.001367871,0.3838193417,0.4052915573,0.7584676743,2024-06-05 15:54:28.001368
1.041855163,-0.4795496464,-0.2291846275,-0.9900960922,2024-06-05 15:54:28.041855
1.082350371,0.5638263226,-0.06395530701,-0.2541160583,2024-06-05 15:54:28.082350
1.122570892,0.7075538635,0.2435562611,0.08521652222,2024-06-05 15:54:28.122571
1.162646204,0.338111639,-0.1459629536,1.356575966,2024-06-05 15:54:28.162646
1.203587142,0.1094162464,0.01852798462,0.007957458496,2024-06-05 15:54:28.203587
1.244287194,-0.3852713108,0.1632723808,0.3726034164,2024-06-05 15:54:28.244287
1.284814486,0.2567324638,0.1337502003,0.5549736023,2024-06-05 15:54:28.284814
1.324971465,0.9521608353,0.6189916134,-0.03692913055,2024-06-05 15:54:28.324971
1.365768236,0.2740190029,0.01085281372,0.1673564911,2024-06-05 15:54:28.365768
1.406255058,0.9549825191,-0.1158313751,-0.6407232285,2024-06-05 15:54:28.406255
1.446412038,0.7021343708,0.2914772034,-0.3447256088,2024-06-05 15:54:28.446412
1.487212611,0.6680798531,0.1915421486,-0.2848834991,2024-06-05 15:54:28.487213
1.527776256,0.7603681087,0.4219133854,-1.032455444,2024-06-05 15:54:28.527776
1.568261256,-0.3840255737,0.2804923058,0.2705564499,2024-06-05 15:54:28.568261
1.608760163,-0.431687355,0.5602221489,2.089748383,2024-06-05 15:54:28.608760
1.64918959,0.7891383171,1.333055019,0.02199077606,2024-06-05 15:54:28.649190
1.689346621,0.04785346985,0.5354113579,0.9421496391,2024-06-05 15:54:28.689347
1.729520215,-0.2901806831,-0.1115996838,0.9214835167,2024-06-05 15:54:28.729520
1.769860371,-0.4031534195,-0.4456430674,0.7527079582,2024-06-05 15:54:28.769860
1.811072454,0.6682128906,-0.2157120705,0.4262199402,2024-06-05 15:54:28.811072
1.851580267,0.9158453941,0.1865415573,-0.6083450317,2024-06-05 15:54:28.851580
1.892060527,0.5197024345,-0.1455998421,0.1731343269,2024-06-05 15:54:28.892061
1.932564173,0.234120369,-0.9631681442,0.1441144943,2024-06-05 15:54:28.932564
1.972787871,2.46691227,-0.3690289259,-0.7906618118,2024-06-05 15:54:28.972788
2.013512246,3.652458429,-2.208465099,-1.012103558,2024-06-05 15:54:29.013512
2.054029069,3.640326738,-2.724649191,4.34445715,2024-06-05 15:54:29.054029
2.094501308,6.98969841,-2.421624184,-2.499972105,2024-06-05 15:54:29.094501
2.135051777,4.950025082,-3.499053001,-6.584318161,2024-06-05 15:54:29.135052
2.17550735,0.2540249825,-2.754062176,-4.242968559,2024-06-05 15:54:29.175507
2.215784329,0.932507515,-1.724897385,1.355688095,2024-06-05 15:54:29.215784
2.256458756,-1.953907967,-2.567737579,-2.766456604,2024-06-05 15:54:29.256459
2.297025423,-4.915476322,-1.034546852,-4.739799023,2024-06-05 15:54:29.297025
2.337450944,-7.194010258,-2.661916733,-3.669969082,2024-06-05 15:54:29.337451
2.377944121,-12.13151264,-2.630535603,-4.318473816,2024-06-05 15:54:29.377944
2.418449486,-9.499418259,-2.49392128,-2.413540363,2024-06-05 15:54:29.418449
2.458726465,-8.553456306,-1.783590317,0.6652544737,2024-06-05 15:54:29.458726
2.499391569,-3.868407726,-0.4128732681,0.9330456257,2024-06-05 15:54:29.499392
2.539668444,0.4970736504,1.914811373,8.935491562,2024-06-05 15:54:29.539668
2.579945371,2.302767754,3.618857861,2.484282494,2024-06-05 15:54:29.579945
2.620497611,2.221624374,4.369552612,0.3928081989,2024-06-05 15:54:29.620498
2.661405892,2.919584751,2.055052519,-4.654179573,2024-06-05 15:54:29.661406
2.701892454,-0.3080682755,1.740177155,3.456613541,2024-06-05 15:54:29.701892
2.742371048,-4.012536526,-1.688096523,-1.585079193,2024-06-05 15:54:29.742371
2.782868183,5.886833191,0.5770583153,0.4697033167,2024-06-05 15:54:29.782868
2.823352923,2.106506824,-0.8436183929,0.7428593636,2024-06-05 15:54:29.823353
2.863842767,-4.770274162,-2.930966377,0.002776160836,2024-06-05 15:54:29.863843
2.904317246,-0.1762008667,-1.481464386,-0.6778631806,2024-06-05 15:54:29.904317
2.944808756,0.7721962929,0.682182312,-1.19734776,2024-06-05 15:54:29.944809
2.98529459,-0.2885622978,1.466048717,0.4570995569,2024-06-05 15:54:29.985295
3.025776621,0.3001022339,0.8164076805,-1.84707582,2024-06-05 15:54:30.025777
3.066288965,1.847717285,2.102007866,0.2586519718,2024-06-05 15:54:30.066289
3.106768236,1.488770962,2.589805126,0.777207613,2024-06-05 15:54:30.106768
3.147256361,-1.277172565,1.414511681,1.508749008,2024-06-05 15:54:30.147256
3.187697923,-0.5198059082,1.84960413,2.617131233,2024-06-05 15:54:30.187698
3.228143496,-1.274636269,-1.898321152,2.031937599,2024-06-05 15:54:30.228143
3.268730319,-0.3613843918,0.9327425957,0.1449463367,2024-06-05 15:54:30.268730
3.309212663,3.671520233,-0.9528264999,-3.944760561,2024-06-05 15:54:30.309213
3.349565683,-0.1434803009,-2.87629509,-1.52974093,2024-06-05 15:54:30.349566
3.389918756,2.079882622,-0.1768665314,-3.275772095,2024-06-05 15:54:30.389919
3.430700111,0.2885138988,-5.574481964,-0.6768513918,2024-06-05 15:54:30.430700
3.471154642,-3.184293032,-1.599427223,-1.185708523,2024-06-05 15:54:30.471155
3.511671256,-0.5462098122,2.477538109,0.3045133352,2024-06-05 15:54:30.511671
3.552169642,-0.02398586273,0.3226013184,-1.502602339,2024-06-05 15:54:30.552170
3.592659642,1.76143074,0.1171560287,0.3715032935,2024-06-05 15:54:30.592660
3.633190111,0.9748114347,0.6074943542,-1.051809788,2024-06-05 15:54:30.633190
3.673640579,0.04587888718,1.276358604,-0.3574508429,2024-06-05 15:54:30.673641
3.714117767,-0.4339141846,0.5821714401,0.241122067,2024-06-05 15:54:30.714118
3.754606933,-1.221144438,-0.5821084976,0.222394526,2024-06-05 15:54:30.754607
3.795103756,-1.720107317,-0.3499879837,0.9051699042,2024-06-05 15:54:30.795104
3.835615996,-1.380852222,0.09075832367,1.803436756,2024-06-05 15:54:30.835616
3.876087558,0.2845253944,2.019652843,0.2758701444,2024-06-05 15:54:30.876088
3.916568652,1.399832129,3.963641644,-0.5691944361,2024-06-05 15:54:30.916569
3.957055371,0.2943223715,2.64097023,4.079329967,2024-06-05 15:54:30.957055
3.997575527,1.178964376,-0.7392721176,4.653780937,2024-06-05 15:54:30.997576
4.038058236,0.9013832808,0.009717941284,-2.157748222,2024-06-05 15:54:31.038058
4.078555267,0.1777352095,-0.4595785141,-1.199449539,2024-06-05 15:54:31.078555
4.119028652,-5.256938934,-23.9767952,-1.225353718,2024-06-05 15:54:31.119029
4.159432142,-0.8724403381,4.671467781,-3.075297832,2024-06-05 15:54:31.159432
4.1998511,1.967683077,2.81548214,-3.656291962,2024-06-05 15:54:31.199851
4.24025334,4.100245476,3.480344772,-3.401085854,2024-06-05 15:54:31.240253
4.280971725,5.102921486,3.552152157,-3.041502953,2024-06-05 15:54:31.280972
4.321467663,3.122041702,2.120968819,-0.410551548,2024-06-05 15:54:31.321468
4.361969642,-2.525533438,-4.270871162,5.310705185,2024-06-05 15:54:31.361970
4.402449642,-5.979155064,-2.327102661,4.077344894,2024-06-05 15:54:31.402450
4.442881204,0.6938860416,0.2838430405,0.5416469574,2024-06-05 15:54:31.442881
4.483400058,4.016323566,-6.553759575,-4.830141544,2024-06-05 15:54:31.483400
4.523914486,2.200403929,0.8671560287,0.6943695545,2024-06-05 15:54:31.523914
4.564403704,3.145364523,4.849680901,-3.468512535,2024-06-05 15:54:31.564404
4.604913079,2.359090328,0.2709207535,-4.967085838,2024-06-05 15:54:31.604913
4.645366465,-0.6740458012,-2.38361454,-2.463961601,2024-06-05 15:54:31.645366
4.685837611,-3.612914085,-0.0007305145264,1.237385511,2024-06-05 15:54:31.685838
4.726378183,-0.07844543457,-0.09829139709,0.4639927149,2024-06-05 15:54:31.726378
4.766839538,2.13163352,0.8016119003,3.462511063,2024-06-05 15:54:31.766840
4.80731709,1.17930913,1.312036514,-1.07735157,2024-06-05 15:54:31.807317
4.847792402,-0.7686422467,1.17029953,-1.708035231,2024-06-05 15:54:31.847792
4.888364225,-0.7533099055,-0.4106082916,0.3189095855,2024-06-05 15:54:31.888364
4.928855267,-3.313679457,-1.334587097,4.322637081,2024-06-05 15:54:31.928855
4.969250892,-4.432826042,-1.750520706,2.310355186,2024-06-05 15:54:31.969251
5.009670267,-2.674821377,-2.040998459,1.424115419,2024-06-05 15:54:32.009670
5.05008959,-1.968405843,-3.32211113,5.422281265,2024-06-05 15:54:32.050090
5.090508965,-3.493238688,-2.113369942,2.483240128,2024-06-05 15:54:32.090509
5.131213652,-0.4618176818,-2.404671669,2.430355549,2024-06-05 15:54:32.131214
5.171729121,5.154282093,-4.906590462,-5.46583128,2024-06-05 15:54:32.171729
5.212162715,2.996320486,-1.992915154,-3.874056816,2024-06-05 15:54:32.212163
5.252681777,-0.491722703,-0.6333522797,-3.077079296,2024-06-05 15:54:32.252682
5.29319084,-1.686491013,0.8145465851,-4.112735748,2024-06-05 15:54:32.293191
5.333677038,2.386458397,2.849952698,-5.490928173,2024-06-05 15:54:32.333677
5.374174538,4.785655022,4.456139565,-5.384119987,2024-06-05 15:54:32.374175
5.414637246,4.809276581,5.071725845,-4.367926121,2024-06-05 15:54:32.414637
5.455070788,3.553354502,2.994387627,-1.429815292,2024-06-05 15:54:32.455071
5.495613808,-0.3823308647,-5.366521835,6.351903915,2024-06-05 15:54:32.495614
5.536124486,-8.120773315,-6.830842018,8.199073792,2024-06-05 15:54:32.536124
5.576597402,4.01640749,0.8744192123,-0.8548169136,2024-06-05 15:54:32.576597
5.61711209,3.087099075,-7.570843697,-2.151719093,2024-06-05 15:54:32.617112
5.657664954,2.212320328,4.187344551,-4.203351498,2024-06-05 15:54:32.657665
5.698045996,3.528354883,4.870427132,-4.790991783,2024-06-05 15:54:32.698046
5.73860735,3.796604156,-1.73278141,-4.738361835,2024-06-05 15:54:32.738607
5.779070944,-4.378268242,-3.63216877,0.7129780054,2024-06-05 15:54:32.779071
5.819522038,-2.035221338,0.2027311325,-1.577539086,2024-06-05 15:54:32.819522
5.859965996,0.7775964737,0.3919258118,-0.04818461835,2024-06-05 15:54:32.859966
5.900410111,2.2065382,1.241015434,2.175984383,2024-06-05 15:54:32.900410
5.9410061,0.1058006287,1.576058388,-0.7112967968,2024-06-05 15:54:32.941006
5.981502246,-0.7249898911,0.2063694,-0.06862342358,2024-06-05 15:54:32.981502
6.021987142,-1.473642349,-0.8645715714,3.393975973,2024-06-05 15:54:33.021987
6.062493704,-4.675949097,-1.186205864,3.788267851,2024-06-05 15:54:33.062494
6.102980527,-5.205523491,-1.396999359,0.3475278616,2024-06-05 15:54:33.102981
6.143465996,-1.681079984,-2.098697662,3.899561167,2024-06-05 15:54:33.143466
6.183932298,-3.08416748,-2.991812706,5.175265789,2024-06-05 15:54:33.183932
6.224412819,-2.889760494,-1.30747509,2.604209423,2024-06-05 15:54:33.224413
6.264943652,1.950011611,-5.17977047,0.3253667355,2024-06-05 15:54:33.264944
6.305453288,7.786370277,-5.767437935,-7.098515034,2024-06-05 15:54:33.305453
6.345909694,1.680826664,-0.995595932,-2.178066969,2024-06-05 15:54:33.345910
6.386396777,-3.0364604,-0.5853805542,-3.250536919,2024-06-05 15:54:33.386397
6.426912246,-0.5120272636,1.468217373,-5.51119709,2024-06-05 15:54:33.426912
6.467377298,3.031984806,4.433492661,-5.846332073,2024-06-05 15:54:33.467377
6.507882038,4.991035938,5.497389317,-5.957590103,2024-06-05 15:54:33.507882
6.548402402,3.85905385,4.354188919,-3.39032197,2024-06-05 15:54:33.548402
6.588876933,2.668763161,0.1210136414,1.497233629,2024-06-05 15:54:33.588877
6.629330371,-3.190323353,-8.030864716,11.80706024,2024-06-05 15:54:33.629330
6.669805423,-3.366933346,-1.958658218,2.988480806,2024-06-05 15:54:33.669805
6.710283913,1.657208681,4.377551079,-2.736819267,2024-06-05 15:54:33.710284
6.750798079,3.86595273,-10.60630989,-3.310492039,2024-06-05 15:54:33.750798
6.791297611,0.7947328687,1.819638252,1.459155798,2024-06-05 15:54:33.791298
6.8317911,4.95207119,6.510297775,-5.909221649,2024-06-05 15:54:33.831791
6.872281986,5.500836372,0.1873731613,-3.331409931,2024-06-05 15:54:33.872282
6.912767402,-3.633425713,-5.299933434,-5.570670128,2024-06-05 15:54:33.912767
6.9532361,-4.708518982,0.7015295029,4.231601715,2024-06-05 15:54:33.953236
6.993712923,0.2493537664,-0.2109394073,-0.314258039,2024-06-05 15:54:33.993713
7.034213704,3.343742847,1.300095558,3.543127537,2024-06-05 15:54:34.034214
7.074738288,1.446367025,2.245228767,0.2765088081,2024-06-05 15:54:34.074738
7.115214433,-2.392790794,-1.107470512,-0.6219716072,2024-06-05 15:54:34.115214
7.155690683,-3.05219698,-0.9536027908,5.341393948,2024-06-05 15:54:34.155691
7.19616485,-4.289566994,-1.674409866,3.323523283,2024-06-05 15:54:34.196165
7.236654381,-3.605417728,-1.74635601,0.9998919368,2024-06-05 15:54:34.236654
7.277149173,-2.088547707,-3.734908104,6.105302811,2024-06-05 15:54:34.277149
7.317640579,-3.078623056,-2.440444946,5.437098503,2024-06-05 15:54:34.317641
7.3581486,0.2200315744,-2.464111328,-0.01549202204,2024-06-05 15:54:34.358149
7.398668913,5.716417313,-6.395709038,-3.839998007,2024-06-05 15:54:34.398669
7.439153913,4.698941231,-3.118455887,-1.3465662,2024-06-05 15:54:34.439154
7.479620267,1.923789978,0.1160898209,-3.440044403,2024-06-05 15:54:34.479620
7.520086673,-1.85094595,1.194775581,-5.005271435,2024-06-05 15:54:34.520087
7.560582142,0.5175967813,3.136512756,-4.926417828,2024-06-05 15:54:34.560582
7.601045423,3.937087059,5.603960037,-6.231009483,2024-06-05 15:54:34.601045
7.641541465,4.258919716,5.771995068,-5.785992622,2024-06-05 15:54:34.641541
7.682052923,2.451895475,3.345143795,-0.9026474953,2024-06-05 15:54:34.682053
7.722543808,-4.890661716,-7.289665222,11.50444126,2024-06-05 15:54:34.722544
7.763041361,-2.314537525,-6.573517799,6.916062355,2024-06-05 15:54:34.763041
7.80349235,6.980425835,2.38559866,-2.317694187,2024-06-05 15:54:34.803492
7.844025111,2.581303835,-8.046824455,1.893092871,2024-06-05 15:54:34.844025
7.884500215,3.774400949,5.462969303,-9.483977318,2024-06-05 15:54:34.884500
7.924991777,4.099527836,3.709656715,-5.88143158,2024-06-05 15:54:34.924992
7.965481413,2.293055058,-3.876466751,-4.216576576,2024-06-05 15:54:34.965481
8.005963913,-7.245407581,-4.185730934,-0.5681201816,2024-06-05 15:54:35.005964
8.046432402,-1.748892784,0.799706459,1.644183874,2024-06-05 15:54:35.046432
8.086937611,0.6826530099,1.012532234,-1.217346191,2024-06-05 15:54:35.086938
8.127416361,1.010609746,1.450258255,2.949086428,2024-06-05 15:54:35.127416
8.167888392,0.8089215159,2.546239853,0.7031373978,2024-06-05 15:54:35.167888
8.20836235,-1.430646062,-0.8457183838,-1.08035481,2024-06-05 15:54:35.208362
8.248881881,-1.487646341,-1.578408241,7.767792225,2024-06-05 15:54:35.248882
8.289355892,-5.705214024,-2.675214767,2.422199249,2024-06-05 15:54:35.289356
8.329829902,-4.276981831,-2.364017487,1.488381743,2024-06-05 15:54:35.329830
8.370302923,-2.658473015,-5.372577667,6.626619339,2024-06-05 15:54:35.370303
8.410776881,-2.207470417,-0.8605489731,4.603641987,2024-06-05 15:54:35.410777
8.451325683,1.162906766,-2.061630249,-1.319669366,2024-06-05 15:54:35.451326
8.491807506,5.125918388,-5.588381767,-4.250601768,2024-06-05 15:54:35.491808
8.532294121,2.145103455,-2.558244705,-1.105573416,2024-06-05 15:54:35.532294
8.572806569,-0.001103639603,-0.1823091507,-4.007051468,2024-06-05 15:54:35.572807
8.613294433,-2.662544966,1.213695049,-6.14013958,2024-06-05 15:54:35.613294
8.653767142,1.435140848,3.756003857,-4.839961052,2024-06-05 15:54:35.653767
8.694231673,4.57882452,5.720570564,-6.624145508,2024-06-05 15:54:35.694232
8.734817767,4.374040604,5.786063194,-4.46643734,2024-06-05 15:54:35.734818
8.775282663,2.281200409,0.8491306305,1.403310776,2024-06-05 15:54:35.775283
8.815779069,-6.095834732,-11.55897045,15.25274277,2024-06-05 15:54:35.815779
8.856251465,0.5024502873,1.66547966,0.3162474632,2024-06-05 15:54:35.856251
8.896694173,3.388088703,1.878771782,-5.662195683,2024-06-05 15:54:35.896694
8.937202975,1.290901661,-10.32312393,5.470040321,2024-06-05 15:54:35.937203
8.97768584,3.315029144,4.290700912,-11.80475807,2024-06-05 15:54:35.977686
9.018175475,4.078676701,5.05129528,-4.496353149,2024-06-05 15:54:36.018175
9.058693756,2.629573345,-3.894477844,-6.040052414,2024-06-05 15:54:36.058694
9.099142611,-5.469551086,-2.804646492,1.800748348,2024-06-05 15:54:36.099143
9.139619433,-2.042532444,0.6660261154,0.3032592237,2024-06-05 15:54:36.139619
9.180102611,1.022307396,0.5997123718,1.704699039,2024-06-05 15:54:36.180103
9.220597402,0.7811104655,0.8102827072,1.58438158,2024-06-05 15:54:36.220597
9.261113704,-0.7885042429,2.172419548,-1.337212563,2024-06-05 15:54:36.261114
9.30161235,-0.4342953563,-0.7129669189,1.795754671,2024-06-05 15:54:36.301612
9.34210735,-3.556182861,-1.204683304,7.502119541,2024-06-05 15:54:36.342107
9.382585267,-7.870902061,-2.909770012,-0.05712771416,2024-06-05 15:54:36.382585
9.423059486,-3.113426685,-3.111667633,6.16247797,2024-06-05 15:54:36.423059
9.463546777,-2.559938908,-4.820178032,5.274096012,2024-06-05 15:54:36.463547
9.504036361,-1.848672152,-1.591032028,2.012060165,2024-06-05 15:54:36.504036
9.544550267,3.997288465,-4.622116089,-2.316631794,2024-06-05 15:54:36.544550
9.585035111,7.033135891,-5.337626457,-2.911108494,2024-06-05 15:54:36.585035
9.625517298,1.422533631,-0.003872871399,-3.81678462,2024-06-05 15:54:36.625517
9.665991517,-4.706534863,0.6996049881,-4.758329868,2024-06-05 15:54:36.665992
9.706473027,-2.105703592,1.777128696,-5.441473961,2024-06-05 15:54:36.706473
9.746995788,2.068919182,4.948857784,-7.434768677,2024-06-05 15:54:36.746996
9.787484381,4.488268852,6.349405766,-6.94596386,2024-06-05 15:54:36.787484
9.827966308,3.62426877,4.095109463,-2.378493547,2024-06-05 15:54:36.827966
9.868470631,2.637120247,-4.693943024,8.078353882,2024-06-05 15:54:36.868471
9.908981308,-3.91102767,-8.323596954,9.411271095,2024-06-05 15:54:36.908981
9.949436517,1.084303617,5.279255867,-1.179766178,2024-06-05 15:54:36.949437
9.989865111,5.103656292,-5.189166069,-6.458255768,2024-06-05 15:54:36.989865
10.03034683,-0.3940770626,-6.403553963,5.177091599,2024-06-05 15:54:37.030347
10.07085657,4.209471226,6.50023222,-11.33937645,2024-06-05 15:54:37.070857
10.11137261,3.735704899,4.15051651,-2.371432543,2024-06-05 15:54:37.111373
10.15186594,0.7410947084,-5.939284325,-4.818373203,2024-06-05 15:54:37.151866
10.19234938,-6.833360672,-0.3309440613,3.317277908,2024-06-05 15:54:37.192349
10.23283558,-1.040537119,0.2639846802,-1.256607413,2024-06-05 15:54:37.232836
10.27332475,1.976290584,0.4753580093,3.569558859,2024-06-05 15:54:37.273325
10.31383391,0.9315055609,1.910310268,0.9410512447,2024-06-05 15:54:37.313834
10.35430719,-1.836844206,-0.4736061096,-0.7083082199,2024-06-05 15:54:37.354307
10.39483594,-1.981531382,-0.7597646713,7.465128899,2024-06-05 15:54:37.394836
10.43534735,-5.143362522,-2.139902115,2.401094675,2024-06-05 15:54:37.435347
10.47577412,-6.564558506,-2.122610092,1.467385769,2024-06-05 15:54:37.475774
10.5162735,-1.63938725,-4.577000618,5.692046165,2024-06-05 15:54:37.516274
10.55675683,-0.3524235487,-1.733295441,5.778635025,2024-06-05 15:54:37.556757
10.59722839,2.172118664,-2.410031319,-0.9197624326,2024-06-05 15:54:37.597228
10.63773917,7.944465637,-6.229711533,-2.715978861,2024-06-05 15:54:37.637739
10.67820865,4.479739189,-1.381407738,-3.067933798,2024-06-05 15:54:37.678209
10.7187548,-1.181144357,0.1494626999,-2.741238356,2024-06-05 15:54:37.718755
10.75919646,-2.844317913,0.5068674088,-5.841664314,2024-06-05 15:54:37.759196
10.79964412,1.446255565,3.972682476,-5.657279015,2024-06-05 15:54:37.799644
10.84012865,3.548789024,5.590734482,-6.73357296,2024-06-05 15:54:37.840129
10.88061324,3.757985353,4.967292309,-3.590735674,2024-06-05 15:54:37.880613
10.92116735,2.576143503,1.670194626,0.6686739922,2024-06-05 15:54:37.921167
10.96165199,-4.56786108,-10.17747498,16.17899513,2024-06-05 15:54:37.961652
11.00213652,2.769933701,0.3336782455,0.9826214314,2024-06-05 15:54:38.002137
11.04268266,5.406193733,3.782634258,-4.330936432,2024-06-05 15:54:38.042683
11.0831187,2.966440201,-9.348312378,2.915928841,2024-06-05 15:54:38.083119
11.12358886,1.340656519,3.004546165,-10.35410881,2024-06-05 15:54:38.123589
11.1640837,2.916855097,4.333060741,-5.954681873,2024-06-05 15:54:38.164084
11.20456876,1.08405292,-3.444005966,-4.012092113,2024-06-05 15:54:38.204569
11.24506662,-6.95909214,-3.127484322,2.399618626,2024-06-05 15:54:38.245067
11.28556386,-0.7215258479,0.8286180496,-1.112621903,2024-06-05 15:54:38.285564
11.32611449,1.472290516,1.486847878,0.3216995597,2024-06-05 15:54:38.326114
11.36655324,0.6298305988,0.8134908676,2.500430822,2024-06-05 15:54:38.366553
11.4070135,-1.530722857,0.6022529602,1.644003272,2024-06-05 15:54:38.407013
11.4474986,-0.6477981806,-0.3638353348,2.955368042,2024-06-05 15:54:38.447499
11.48800376,-2.551791191,-1.483626366,6.350809097,2024-06-05 15:54:38.488004
11.52853381,-7.967336178,-2.477516174,-1.668744326,2024-06-05 15:54:38.528534
11.56896777,-3.16381073,-3.031468391,3.756956577,2024-06-05 15:54:38.568968
11.60945282,-0.4274253845,-3.737107277,6.788458824,2024-06-05 15:54:38.609453
11.64993782,-1.399662614,-1.397403717,4.761201382,2024-06-05 15:54:38.649938
11.6904435,3.23874402,-3.329658508,-0.5299246907,2024-06-05 15:54:38.690444
11.73096396,7.987240791,-4.650270462,-5.486113548,2024-06-05 15:54:38.730964
11.77142501,2.042188168,-0.922829628,-2.311233759,2024-06-05 15:54:38.771425
11.81190334,-2.929327965,-0.6042051315,-3.76319623,2024-06-05 15:54:38.811903
11.85244495,-0.6175116301,1.806042194,-5.199820042,2024-06-05 15:54:38.852445
11.89291719,1.90293479,4.396271229,-5.876755238,2024-06-05 15:54:38.892917
11.93339631,4.938696861,5.732020378,-5.426688194,2024-06-05 15:54:38.933396
11.97388214,3.419589996,4.554287434,-2.2738204,2024-06-05 15:54:38.973882
12.0143586,1.426084518,-0.4111003876,3.078266859,2024-06-05 15:54:39.014359
12.05482985,-4.584003925,-8.348968506,13.86873531,2024-06-05 15:54:39.054830
12.09532761,2.833946228,0.7425518036,1.168399811,2024-06-05 15:54:39.095328
12.13582204,6.549317837,-3.815379143,-3.687937498,2024-06-05 15:54:39.135822
12.17631219,1.651426554,-2.648193359,-0.7474322319,2024-06-05 15:54:39.176312
12.21679881,2.82750082,6.161832809,-9.644304276,2024-06-05 15:54:39.216799
12.25728079,2.645304441,0.5672302246,-3.779628992,2024-06-05 15:54:39.257281
12.29776548,-2.617371082,-5.271776199,-6.089385033,2024-06-05 15:54:39.297765
12.33832188,-3.773217916,-0.1688861847,6.127017021,2024-06-05 15:54:39.338322
12.37881688,1.069917917,0.988612175,-0.7645365,2024-06-05 15:54:39.378817
12.41930339,0.7985599637,1.239904404,0.2508609295,2024-06-05 15:54:39.419303
12.45969787,0.4909307957,1.296813965,1.005270958,2024-06-05 15:54:39.459698
12.50018443,-1.543675661,-0.04117679596,1.789108872,2024-06-05 15:54:39.500184
12.54071001,-1.523800373,-1.041038513,5.716692448,2024-06-05 15:54:39.540710
12.58118344,-3.988528013,-1.598650932,3.729414701,2024-06-05 15:54:39.581183
12.62168454,-6.323710442,-1.779322624,-0.3180608749,2024-06-05 15:54:39.621685
12.6621836,-0.8505104184,-3.861082077,4.583772659,2024-06-05 15:54:39.662184
12.70265178,0.1824862361,-3.200641632,5.877605438,2024-06-05 15:54:39.702652
12.74317022,3.085187674,-1.425457001,4.805019855,2024-06-05 15:54:39.743170
12.78366568,8.083140373,-4.513298988,-1.804273844,2024-06-05 15:54:39.783666
12.82416709,10.06184196,-3.520612717,-4.805513382,2024-06-05 15:54:39.824167
12.86467292,1.959474325,-0.654255867,-2.558867693,2024-06-05 15:54:39.864673
12.90515928,-4.514196873,-1.722533226,-5.370168686,2024-06-05 15:54:39.905159
12.9456312,-0.3610799611,3.122445107,-4.362633228,2024-06-05 15:54:39.945631
12.98615532,0.3318042159,5.05984211,-6.971796989,2024-06-05 15:54:39.986155
13.02662376,2.198018312,6.698768616,-5.839042664,2024-06-05 15:54:40.026624
13.06706938,2.042454958,4.124069691,-0.7369718552,2024-06-05 15:54:40.067069
13.10756652,-1.501204252,-6.864377022,13.62164116,2024-06-05 15:54:40.107567
13.14806261,-0.9683244228,-6.139582634,6.82861948,2024-06-05 15:54:40.148063
13.1885912,6.822695732,3.654257774,-2.499867201,2024-06-05 15:54:40.188591
13.22905079,6.080904007,-6.03937149,-1.23088336,2024-06-05 15:54:40.229051
13.26948058,1.233713627,3.632461071,-6.317311287,2024-06-05 15:54:40.269481
13.30996902,1.893256426,3.263363361,-7.699183464,2024-06-05 15:54:40.309969
13.35045745,1.640740514,-2.459126472,-4.147269726,2024-06-05 15:54:40.350457
13.39097537,-6.310883045,-3.942255974,-2.055668354,2024-06-05 15:54:40.390975
13.43146782,-3.435535908,-0.05199050903,5.564446449,2024-06-05 15:54:40.431468
13.47195256,0.4445625544,0.2777748108,-1.500041246,2024-06-05 15:54:40.471953
13.51244042,1.420341969,0.7864265442,1.448752761,2024-06-05 15:54:40.512440
13.55293636,0.7353080511,1.584357262,1.62446475,2024-06-05 15:54:40.552936
13.5934361,-1.556979656,-0.0562210083,1.533237457,2024-06-05 15:54:40.593436
13.63390975,-3.228904963,-1.811673164,6.639514923,2024-06-05 15:54:40.633910
13.67436751,-3.980302811,-2.154296875,1.824939966,2024-06-05 15:54:40.674368
13.71486662,-2.71922493,-2.509093285,3.657606602,2024-06-05 15:54:40.714867
13.75537542,0.1061079502,-2.410627365,5.978736401,2024-06-05 15:54:40.755375
13.79586751,-3.048848152,-2.894119263,5.211112499,2024-06-05 15:54:40.795868
13.8363786,-1.916666865,-2.708559036,-0.4105547071,2024-06-05 15:54:40.836379
13.87685282,4.360293388,-5.760808945,-4.453531742,2024-06-05 15:54:40.876853
13.91734485,6.212377071,-2.758601189,-1.423578262,2024-06-05 15:54:40.917345
13.95784422,1.518015385,1.41665411,-3.915199757,2024-06-05 15:54:40.957844
13.99834147,-4.971355915,0.570057869,-5.441189766,2024-06-05 15:54:40.998341
14.03883277,-1.091903567,2.776968479,-5.193383694,2024-06-05 15:54:41.038833
14.07927761,3.238232851,5.820343971,-7.252912521,2024-06-05 15:54:41.079278
14.11974355,3.670483828,4.872400761,-5.353484154,2024-06-05 15:54:41.119744
14.16022897,2.035532475,1.589014053,0.06137347221,2024-06-05 15:54:41.160229
14.20071537,-2.088364601,-7.251571655,13.32284546,2024-06-05 15:54:41.200715
14.24124532,-1.327908278,-3.976467133,5.429648399,2024-06-05 15:54:41.241245
14.28180167,6.865546227,0.883890152,-3.944809914,2024-06-05 15:54:41.281802
14.32221355,1.754818797,-6.39788723,0.9644794464,2024-06-05 15:54:41.322214
14.36273563,3.811768293,6.347120285,-10.61027145,2024-06-05 15:54:41.362736
14.40322209,3.872607946,2.931536674,-5.161697388,2024-06-05 15:54:41.403222
14.4436923,1.213135242,-5.083953857,-4.809627056,2024-06-05 15:54:41.443692
14.48415751,-9.303825378,-3.021503448,2.205164909,2024-06-05 15:54:41.484158
14.52466537,-1.404732704,0.8364095688,-1.462505221,2024-06-05 15:54:41.524665
14.56515193,1.030465603,0.608080864,1.800823927,2024-06-05 15:54:41.565152
14.60570516,1.089219213,1.571284294,2.799433708,2024-06-05 15:54:41.605705
14.64614001,0.2164876461,1.41457653,-0.5407503843,2024-06-05 15:54:41.646140
14.68659105,-1.122457147,-0.839266777,4.114638329,2024-06-05 15:54:41.686591
14.72712605,-4.9417696,-2.121759415,6.974977493,2024-06-05 15:54:41.727126
14.76759199,-8.085544586,-2.693348885,-1.462520719,2024-06-05 15:54:41.767592
14.80814381,-1.449773192,-3.433844566,7.322594643,2024-06-05 15:54:41.808144
14.84857798,-2.326545954,-3.8192873,4.777498722,2024-06-05 15:54:41.848578
14.88902964,-0.5115200281,-2.003463745,1.162239313,2024-06-05 15:54:41.889030
14.9295174,5.244418621,-5.960983276,-4.86660099,2024-06-05 15:54:41.929517
14.97000516,5.619196415,-3.541642189,-2.362818718,2024-06-05 15:54:41.970005
15.01052896,0.7915887237,0.2910614014,-3.705057383,2024-06-05 15:54:42.010529
15.05101511,-4.658976555,0.5992059708,-5.135203838,2024-06-05 15:54:42.051015
15.09151261,-0.954158783,2.860726833,-5.236998081,2024-06-05 15:54:42.091513
15.13200667,2.412024975,5.962117195,-7.229202271,2024-06-05 15:54:42.132007
15.17251214,4.550049305,6.806144714,-5.701630592,2024-06-05 15:54:42.172512
15.21300141,3.096164703,3.180036068,-0.9613382816,2024-06-05 15:54:42.213001
15.25346631,0.009528398514,-8.450609207,12.23005676,2024-06-05 15:54:42.253466
15.29397537,-2.841663361,-4.809735298,5.906141281,2024-06-05 15:54:42.293975
15.33444438,4.754467964,-0.7620487213,-2.692194939,2024-06-05 15:54:42.334444
15.37492402,0.02599614859,-6.946578979,2.095615149,2024-06-05 15:54:42.374924
15.41550053,5.013130188,8.187666893,-11.98294258,2024-06-05 15:54:42.415501
15.45598954,5.215650082,4.079232693,-4.10650301,2024-06-05 15:54:42.455990
15.49641626,3.92064476,-5.058699608,-2.141026258,2024-06-05 15:54:42.496416
15.53689209,-6.858295918,-3.695500374,-0.7287213206,2024-06-05 15:54:42.536892
15.5773911,-5.48172617,0.9662532806,0.8288749456,2024-06-05 15:54:42.577391
15.6178574,0.0626899004,0.6204767227,-0.847956419,2024-06-05 15:54:42.617857
15.65838912,2.415126801,0.7620515823,4.37750721,2024-06-05 15:54:42.658389
15.69884886,0.7062624693,1.962077141,0.8883693218,2024-06-05 15:54:42.698849
15.73933751,-0.5322978497,-0.8639001846,1.232820511,2024-06-05 15:54:42.739338
15.77982615,-5.478340149,-1.713547707,7.572336674,2024-06-05 15:54:42.779826
15.8202648,-7.561314583,-2.908509254,-0.8569300175,2024-06-05 15:54:42.820265
15.86076173,-1.716745377,-3.69077301,7.013444424,2024-06-05 15:54:42.860762
15.90126714,-1.140264153,-4.018004417,6.401163101,2024-06-05 15:54:42.901267
15.94177772,-1.167129159,-2.874616623,-0.4883479178,2024-06-05 15:54:42.941778
15.98226969,6.118598938,-5.744304657,-3.13954711,2024-06-05 15:54:42.982270
16.02276813,7.653966904,-3.093044281,-0.8097474575,2024-06-05 15:54:43.022768
16.06326167,1.832438231,0.7878417969,-4.451611519,2024-06-05 15:54:43.063262
16.10376594,-5.578606129,0.5651311874,-5.064864159,2024-06-05 15:54:43.103766
16.14426766,-2.039262533,2.063554287,-5.918141365,2024-06-05 15:54:43.144268
16.18471225,3.190758944,5.547060966,-7.840371609,2024-06-05 15:54:43.184712
16.22520672,4.519016266,6.128781319,-6.200543404,2024-06-05 15:54:43.225207
16.26570709,2.760340214,2.918938637,-1.213076591,2024-06-05 15:54:43.265707
16.30618787,-1.174654722,-7.191235542,11.53272057,2024-06-05 15:54:43.306188
16.34666683,-1.348187685,-5.83079052,7.134059906,2024-06-05 15:54:43.346667
16.38715829,4.671251774,4.763498306,-2.305452824,2024-06-05 15:54:43.387158
16.42762829,4.591732979,-7.381644249,-0.4380316734,2024-06-05 15:54:43.427628
16.46812006,1.448851109,1.110429764,-6.234158993,2024-06-05 15:54:43.468120
16.50863511,3.605583429,5.011976719,-8.294857025,2024-06-05 15:54:43.508635
16.54914256,2.884254217,-0.7566394806,-2.646059036,2024-06-05 15:54:43.549143
16.58958886,-4.960660934,-5.70414257,-4.689229012,2024-06-05 15:54:43.589589
16.63007745,-5.255803108,0.03136539459,4.632829189,2024-06-05 15:54:43.630077
16.67056454,0.5993132591,0.9439630508,-1.755242348,2024-06-05 15:54:43.670565
16.71107506,1.483752012,0.9795103073,3.063398123,2024-06-05 15:54:43.711075
16.75158287,0.9218902588,1.81260252,1.472806692,2024-06-05 15:54:43.751583
16.79206719,-1.68762958,-0.4294700623,-0.3195364475,2024-06-05 15:54:43.792067
16.83253943,-1.515347481,-0.8915996552,6.243426323,2024-06-05 15:54:43.832539
16.87304652,-6.065062046,-2.28953743,3.334523201,2024-06-05 15:54:43.873047
16.91352287,-5.719661713,-2.2557621,0.8484911323,2024-06-05 15:54:43.913523
16.95399907,-0.1741167307,-4.201477051,5.851623058,2024-06-05 15:54:43.953999
16.9944798,-2.802055359,-2.385052681,4.650660992,2024-06-05 15:54:43.994480
17.03498896,0.6118206382,-1.816721916,0.1425631642,2024-06-05 15:54:44.034989
17.07547719,7.130820274,-5.664764404,-2.576315403,2024-06-05 15:54:44.075477
17.11596542,5.87937212,-1.153903008,-4.605589867,2024-06-05 15:54:44.115965
17.15648532,-0.4214557409,-0.6122522354,-2.141954422,2024-06-05 15:54:44.156485
17.19698881,-3.472203016,-0.666513443,-5.273285866,2024-06-05 15:54:44.196989
17.23743678,0.0639475733,2.034857273,-5.738008976,2024-06-05 15:54:44.237437
17.27792922,2.287409782,5.40104866,-6.374405384,2024-06-05 15:54:44.277929
17.31844959,3.438637257,6.144096375,-5.439885616,2024-06-05 15:54:44.318450
17.35890662,1.816880345,2.815462112,-0.8192646503,2024-06-05 15:54:44.358907
17.39937532,1.29495883,-2.986613274,4.645468712,2024-06-05 15:54:44.399375
17.43984074,-4.065584183,-7.174592972,10.78439713,2024-06-05 15:54:44.439841
17.48033037,0.7614526153,1.354095459,1.072306871,2024-06-05 15:54:44.480330
17.52085688,4.730909348,-0.7614850998,-4.274643421,2024-06-05 15:54:44.520857
17.56134865,0.5699142218,-6.866004944,4.250208855,2024-06-05 15:54:44.561349
17.60184016,3.112878561,5.525871277,-8.996803284,2024-06-05 15:54:44.601840
17.64231308,3.922561646,4.47329855,-3.876469135,2024-06-05 15:54:44.642313
17.68278006,3.606767654,-2.752194405,-2.114904404,2024-06-05 15:54:44.682780
17.72332745,-4.490188599,-2.0251894,0.3192662001,2024-06-05 15:54:44.723327
17.76378844,-5.475878716,-0.01868247986,-0.153654173,2024-06-05 15:54:44.763788
17.80426334,-0.690544486,-0.8472757339,-0.1319445372,2024-06-05 15:54:44.804263
17.84479376,3.316743851,0.7748317719,4.451233387,2024-06-05 15:54:44.844794
17.88526954,1.954499245,1.855764389,0.6422562599,2024-06-05 15:54:44.885270
17.92574397,-2.246776819,-0.4448833466,0.2721561193,2024-06-05 15:54:44.925744
17.96622365,-3.373029709,-0.6305522919,5.221377373,2024-06-05 15:54:44.966224
18.00678141,-4.25488472,-2.050893784,0.5114902258,2024-06-05 15:54:45.006781
18.04726912,-3.417625427,-2.506252289,2.904071808,2024-06-05 15:54:45.047269
18.08768704,-0.7957966924,-4.313775063,4.249670982,2024-06-05 15:54:45.087687
18.12821917,-1.309290886,-1.900972366,5.132003784,2024-06-05 15:54:45.128219
18.16873652,3.292516232,-1.35696125,3.134014606,2024-06-05 15:54:45.168737
18.20922646,6.545376301,-3.544260979,-3.995640755,2024-06-05 15:54:45.209226
18.24971647,4.116063595,-0.5446281433,-3.953155041,2024-06-05 15:54:45.249716
18.29008792,-1.484548569,-0.7782993317,-2.699336529,2024-06-05 15:54:45.290088
18.33057787,-2.39656949,-0.08990955353,-4.405788898,2024-06-05 15:54:45.330578
18.3711011,0.2142512202,2.781921864,-4.833558083,2024-06-05 15:54:45.371101
18.41162074,2.089829445,4.62122488,-5.281343937,2024-06-05 15:54:45.411621
18.45209131,3.211253166,4.381420612,-3.857904196,2024-06-05 15:54:45.452091
18.49259063,2.337035894,2.312674046,-0.4105119705,2024-06-05 15:54:45.492591
18.53308173,1.573380113,-2.093998909,4.950320721,2024-06-05 15:54:45.533082
18.57357308,-3.813207865,-7.559891701,12.89879322,2024-06-05 15:54:45.573573
18.61406313,3.392097473,2.570281506,-0.392935276,2024-06-05 15:54:45.614063
18.65455391,4.80761385,-3.682721138,-3.508402824,2024-06-05 15:54:45.654554
18.69501792,1.635349751,-0.8505811691,-0.9569392204,2024-06-05 15:54:45.695018
18.73552079,2.284938335,4.13155508,-9.710137367,2024-06-05 15:54:45.735521
18.77601407,2.483085155,-0.3228578568,-2.920416355,2024-06-05 15:54:45.776014
18.81650214,-1.308124781,-3.36446476,-2.626556396,2024-06-05 15:54:45.816502
18.85701745,-1.521231413,0.1306743622,2.586215734,2024-06-05 15:54:45.857017
18.89747714,0.2905566096,0.657453537,-1.328804612,2024-06-05 15:54:45.897477
18.9379637,0.1553171277,0.6806983948,-0.0009362101555,2024-06-05 15:54:45.937964
18.97850829,0.22374928,0.4055356979,-0.4027857184,2024-06-05 15:54:45.978508
19.01898818,-0.7099038363,1.183444023,0.125308454,2024-06-05 15:54:46.018988
19.0594262,-2.078398943,-0.3937168121,1.168429136,2024-06-05 15:54:46.059426
19.09991469,-1.921089888,-0.6500444412,4.882174969,2024-06-05 15:54:46.099915
19.14040329,-3.370615005,-1.485703468,3.072066784,2024-06-05 15:54:46.140403
19.18089272,-3.822235823,-1.80774498,0.4864912033,2024-06-05 15:54:46.180893
19.22138876,-1.214778185,-3.199552536,1.350061774,2024-06-05 15:54:46.221389
19.26188209,0.180116415,-2.73093605,6.539726257,2024-06-05 15:54:46.261882
19.30235777,0.8580381274,-0.4123601913,4.137134552,2024-06-05 15:54:46.302358
19.34285329,4.383872509,-1.49684906,2.685596466,2024-06-05 15:54:46.342853
19.38333417,6.276019573,-2.308437347,-5.440179825,2024-06-05 15:54:46.383334
19.4238261,3.009819269,-1.511113167,-4.025594234,2024-06-05 15:54:46.423826
19.46431146,-0.7107519507,-2.017902374,-2.046905994,2024-06-05 15:54:46.464311
19.50480761,-0.1583271176,0.456662178,-3.723520041,2024-06-05 15:54:46.504808
19.54532188,-0.1337941885,2.943724155,-4.458479404,2024-06-05 15:54:46.545322
19.58580475,2.330600977,4.411676407,-4.746334553,2024-06-05 15:54:46.585805
19.62628428,2.258492947,4.67856884,-3.440744877,2024-06-05 15:54:46.626284
19.66675313,1.322023273,2.075164795,0.131319046,2024-06-05 15:54:46.666753
19.70724568,-0.4346405268,-2.943502426,5.015740395,2024-06-05 15:54:46.707246
19.74774798,-4.824126244,-5.636837959,10.6033926,2024-06-05 15:54:46.747748
19.78825532,2.535092831,1.746208191,1.552549362,2024-06-05 15:54:46.788255
19.8287687,5.8646698,-3.838116646,-3.634872675,2024-06-05 15:54:46.828769
19.86925792,2.662928581,-0.1586780548,-3.116834164,2024-06-05 15:54:46.869258
19.90972459,1.326226473,4.500761032,-3.750516891,2024-06-05 15:54:46.909725
19.95016636,0.4499220848,1.220995903,-2.722094059,2024-06-05 15:54:46.950166
19.99065063,-1.359024763,-3.829926491,-3.617060661,2024-06-05 15:54:46.990651
20.03116605,-3.509475946,-0.3978719711,1.919161081,2024-06-05 15:54:47.031166
20.07167084,-1.695355296,-0.3187084198,-0.5063100457,2024-06-05 15:54:47.071671
20.1121636,-0.06429457664,-0.04713916779,1.563016415,2024-06-05 15:54:47.112164
20.15263022,1.821995139,0.6120815277,1.125421286,2024-06-05 15:54:47.152630
20.19310756,0.5049219131,1.120893478,0.1506909132,2024-06-05 15:54:47.193108
20.23360225,-1.682137728,0.6076221466,-1.471298337,2024-06-05 15:54:47.233602
20.27409266,-1.487375736,-0.8761415482,1.529568911,2024-06-05 15:54:47.274093
20.31458022,-2.518563032,-0.7765703201,5.657053947,2024-06-05 15:54:47.314580
20.35506907,-4.145960331,-1.449893951,1.144996405,2024-06-05 15:54:47.355069
20.39556865,-2.382278442,-1.888041496,2.069847584,2024-06-05 15:54:47.395569
20.43606308,-1.886838913,-3.837966919,3.224998474,2024-06-05 15:54:47.436063
20.47652136,-2.433717012,-1.653916359,4.540791512,2024-06-05 15:54:47.476521
20.51705501,0.8603887558,-1.043927193,1.918589354,2024-06-05 15:54:47.517055
20.55754652,3.484652042,-3.783600807,-2.013917208,2024-06-05 15:54:47.557547
20.59803678,3.889292717,-0.9385557175,-5.801559448,2024-06-05 15:54:47.598037
20.63854094,-0.738676548,-1.003533363,-3.225051403,2024-06-05 15:54:47.638541
20.67896725,-3.150689363,-1.151703835,-3.300839424,2024-06-05 15:54:47.678967
20.71944876,-1.033928275,0.6408090591,-5.013716698,2024-06-05 15:54:47.719449
20.75994636,0.8778366446,2.703727722,-5.51113224,2024-06-05 15:54:47.759946
20.80044167,4.064493179,4.300652981,-4.830329895,2024-06-05 15:54:47.800442
20.84099714,3.667047262,4.103995323,-3.097608805,2024-06-05 15:54:47.840997
20.88142548,2.911836147,2.182923317,0.6783216,2024-06-05 15:54:47.881425
20.92193766,0.465266645,-3.156036377,5.440941811,2024-06-05 15:54:47.921938
20.96242704,-5.742730618,-5.72820282,6.008719444,2024-06-05 15:54:47.962427
21.00288693,-0.2249600589,0.7831687927,2.144738913,2024-06-05 15:54:48.002887
21.04339574,4.845552444,-5.944711685,-2.640028238,2024-06-05 15:54:48.043396
21.08392923,1.066830873,-1.355493546,1.400773287,2024-06-05 15:54:48.083929
21.12436089,3.189137697,7.202206612,-6.625322342,2024-06-05 15:54:48.124361
21.16486584,3.291746616,3.6208992,-2.222527981,2024-06-05 15:54:48.164866
21.20535449,2.290201187,-6.07706356,-1.849155664,2024-06-05 15:54:48.205354
21.24581985,-3.131708145,0.1903648376,1.312915087,2024-06-05 15:54:48.245820
21.28633183,-4.840544701,-0.4989004135,-3.677777052,2024-06-05 15:54:48.286332
21.32685209,-1.194243193,-0.4713602066,1.56421864,2024-06-05 15:54:48.326852
21.36729412,2.605486393,0.6543073654,2.435899258,2024-06-05 15:54:48.367294
21.40778808,2.291787148,1.995761871,0.451249212,2024-06-05 15:54:48.407788
21.44827709,-1.799505949,0.01161384583,-2.04049325,2024-06-05 15:54:48.448277
21.48874251,-1.987809658,-0.5139884949,3.109523296,2024-06-05 15:54:48.488743
21.52926548,-1.182803631,-0.7999610901,5.121502399,2024-06-05 15:54:48.529265
21.56975412,-3.903379917,-0.9956417084,0.3497417569,2024-06-05 15:54:48.569754
21.6102099,-4.155772209,-3.616834641,0.8303690553,2024-06-05 15:54:48.610210
21.65071287,-1.773273349,-3.372712135,5.002227783,2024-06-05 15:54:48.650713
21.69122048,-0.001086592674,-0.9109697342,4.805247307,2024-06-05 15:54:48.691220
21.73168006,3.302592993,-0.9177103043,3.119995594,2024-06-05 15:54:48.731680
21.77217672,4.294551373,-1.966991425,-4.576117516,2024-06-05 15:54:48.772177
21.81268574,3.52431345,-2.949623108,-5.066678047,2024-06-05 15:54:48.812686
21.85318438,-0.1480816007,-1.299637794,-3.167259216,2024-06-05 15:54:48.853184
21.89366495,-1.224968195,0.07782936096,-3.159430742,2024-06-05 15:54:48.893665
21.93415152,0.277095139,1.988320827,-4.527564049,2024-06-05 15:54:48.934152
21.97461975,1.784442663,3.572134972,-4.679986,2024-06-05 15:54:48.974620
22.01514422,3.1629076,4.309309959,-3.65496254,2024-06-05 15:54:49.015144
22.05562553,1.783251643,1.809067726,-1.286259413,2024-06-05 15:54:49.055626
22.09610792,1.816392899,-1.003129959,1.987122774,2024-06-05 15:54:49.096108
22.13665839,0.2923079729,-2.687180519,6.861189365,2024-06-05 15:54:49.136658
22.1770749,-1.35816586,-3.79101181,5.688416004,2024-06-05 15:54:49.177075
22.21754027,1.027526617,2.918472767,-0.2816197872,2024-06-05 15:54:49.217540
22.25804667,3.605518341,0.04537677765,-3.981600285,2024-06-05 15:54:49.258047
22.29857313,1.557348609,-5.672457695,0.106161356,2024-06-05 15:54:49.298573
22.33910579,0.8162091374,2.498960018,1.048179388,2024-06-05 15:54:49.339106
22.37956735,3.209256172,5.598972321,-4.19477129,2024-06-05 15:54:49.379567
22.42005615,3.361384869,-0.7734384537,-2.516673565,2024-06-05 15:54:49.420056
22.46049818,-1.456676722,-3.024390221,-3.794524193,2024-06-05 15:54:49.460498
22.5009899,-5.180192947,-0.216219902,0.2271378934,2024-06-05 15:54:49.500990
22.54149152,-3.275092125,-1.162078857,1.668970108,2024-06-05 15:54:49.541492
22.58199245,0.6045586467,-0.07903003693,0.422619611,2024-06-05 15:54:49.581992
22.62248709,2.419959068,0.9764375687,0.0221465826,2024-06-05 15:54:49.622487
22.662951,0.3889282942,1.418890953,1.073178291,2024-06-05 15:54:49.662951
22.70343553,-1.067480683,0.0003423690796,-0.1297695637,2024-06-05 15:54:49.703436
22.74392495,-2.081176996,-0.7375116348,2.705735922,2024-06-05 15:54:49.743925
22.7844087,-3.204915285,-1.053544998,3.75819397,2024-06-05 15:54:49.784409
22.82491725,-3.970680714,-2.033299446,1.744039297,2024-06-05 15:54:49.824917
22.86541037,-2.014161587,-3.216283798,2.289259911,2024-06-05 15:54:49.865410
22.90587016,-1.298037529,-3.648272514,3.590494633,2024-06-05 15:54:49.905870
22.94636094,-0.003398656845,-1.379909515,6.615382671,2024-06-05 15:54:49.946361
22.98685777,3.101854801,-0.3687725067,3.065625191,2024-06-05 15:54:49.986858
23.02736959,3.673076868,-2.379635811,-5.260956764,2024-06-05 15:54:50.027370
23.06787834,1.402105808,-1.455460548,-3.74616313,2024-06-05 15:54:50.067878
23.10833719,-0.2858842015,-1.787914276,-2.161248446,2024-06-05 15:54:50.108337
23.14883787,-0.1823685765,0.1119174957,-5.175704002,2024-06-05 15:54:50.148838
23.18928438,-0.4621403813,2.062364101,-4.326525211,2024-06-05 15:54:50.189284
23.22978834,1.340792894,3.744265079,-4.480689526,2024-06-05 15:54:50.229788
23.27031053,3.04353261,4.47242403,-4.65381813,2024-06-05 15:54:50.270311
23.31079287,2.077879667,3.245795727,-0.9196622372,2024-06-05 15:54:50.310793
23.35126865,0.3718978763,-2.620891571,4.746422291,2024-06-05 15:54:50.351269
23.39174761,-3.102880716,-5.970673561,9.206206322,2024-06-05 15:54:50.391748
23.43220225,4.090818882,-1.842341423,2.142509699,2024-06-05 15:54:50.432202
23.47271527,4.650380135,-3.148068428,-2.499639988,2024-06-05 15:54:50.472715
23.51321896,2.209899902,4.735759258,-6.069361687,2024-06-05 15:54:50.513219
23.55370886,2.416671991,3.835395813,-4.180309296,2024-06-05 15:54:50.553709
23.59418704,0.9885041714,-2.695697784,-2.356987953,2024-06-05 15:54:50.594187
23.63466506,-4.341753483,-2.711108208,-3.76510191,2024-06-05 15:54:50.634665
23.67513959,-3.151228905,-0.03382205963,5.295387745,2024-06-05 15:54:50.675140
23.71565688,-1.43106401,-1.136897087,-1.204545498,2024-06-05 15:54:50.715657
23.75615417,0.6561585665,0.1039934158,-0.1428975463,2024-06-05 15:54:50.756154
23.79665459,2.154564381,1.268660545,1.448432565,2024-06-05 15:54:50.796655
23.83715261,1.493917346,2.046069622,0.8695111275,2024-06-05 15:54:50.837153
23.87762949,-1.092159152,-0.6024169922,-0.1467504501,2024-06-05 15:54:50.877629
23.91813777,-3.565731525,-0.8377914429,6.55447197,2024-06-05 15:54:50.918138
23.95865329,-5.037955761,-1.881807327,0.9908777475,2024-06-05 15:54:50.958653
23.9990799,-1.813164949,-1.876572609,3.862325191,2024-06-05 15:54:50.999080
24.03958011,-1.05224371,-3.512168884,6.134366512,2024-06-05 15:54:51.039580
24.08008167,-2.073606968,-2.217125893,4.143826962,2024-06-05 15:54:51.080082
24.12055287,0.8897224665,-3.937849998,0.8432589769,2024-06-05 15:54:51.120553
24.16102751,8.257205009,-5.86154747,-5.285348892,2024-06-05 15:54:51.161028
24.20155136,4.589902401,-0.9450349808,-3.691553593,2024-06-05 15:54:51.201551
24.24201245,-2.250279903,-0.4332695007,-2.091938019,2024-06-05 15:54:51.242012
24.28249615,-2.005524874,0.08326244354,-5.967721462,2024-06-05 15:54:51.282496
24.32298964,1.227360249,3.28073597,-5.862233162,2024-06-05 15:54:51.322990
24.36349527,3.574920177,5.521176338,-6.449170589,2024-06-05 15:54:51.363495
24.40397959,2.871810436,4.703178406,-4.590557098,2024-06-05 15:54:51.403980
24.4444673,2.014676571,1.965630054,-0.4462029934,2024-06-05 15:54:51.444467
24.48493506,0.09236562252,-4.273290634,6.306478024,2024-06-05 15:54:51.484935
24.52544631,-1.844047785,-4.773425102,8.578878403,2024-06-05 15:54:51.525446
24.56593386,2.254436255,2.317009926,1.290043116,2024-06-05 15:54:51.565934
24.60641089,5.180100441,-2.688923836,-3.648640156,2024-06-05 15:54:51.606411
24.64688876,4.375355721,-5.369526863,-2.791887045,2024-06-05 15:54:51.646889
24.6873762,0.3846504688,4.987538338,-3.018049717,2024-06-05 15:54:51.687376
24.72788896,1.357369184,3.492810249,-3.416180849,2024-06-05 15:54:51.727889
24.76842745,-1.921408653,-4.875016212,-5.942922592,2024-06-05 15:54:51.768427
24.80891657,-3.286782265,-0.6750650406,1.961057544,2024-06-05 15:54:51.808917
24.8493198,-0.7876417637,0.4041337967,0.1200191379,2024-06-05 15:54:51.849320
24.88980954,0.8492637277,0.3789634705,-0.1298016906,2024-06-05 15:54:51.889810
24.93029839,0.4159225821,0.07110404968,1.013325214,2024-06-05 15:54:51.930298
24.97078813,0.6480857134,1.491089821,1.558597445,2024-06-05 15:54:51.970788
25.01131074,-1.636398435,0.1383781433,1.386004925,2024-06-05 15:54:52.011311
25.05177772,-3.373014927,-0.6624250412,2.225690842,2024-06-05 15:54:52.051778
25.09229266,-2.685281515,-1.05755043,3.493366241,2024-06-05 15:54:52.092293
25.13279714,-2.103598595,-1.382151604,2.042615175,2024-06-05 15:54:52.132797
25.17327506,-1.265331388,-1.929525375,1.796577692,2024-06-05 15:54:52.173275
25.21376485,-2.126684666,-3.778420448,5.337053299,2024-06-05 15:54:52.213765
25.25424662,-1.563331127,-2.559348106,5.530373573,2024-06-05 15:54:52.254247
25.29473495,1.220886707,-2.016282082,2.277617931,2024-06-05 15:54:52.294735
25.33519699,3.047169447,-3.444820404,-6.38287878,2024-06-05 15:54:52.335197
25.37570798,2.417524576,-2.820371628,-3.547352552,2024-06-05 15:54:52.375708
25.4161774,-0.1287729144,-1.327355385,-2.369541407,2024-06-05 15:54:52.416177
25.45666626,-2.20010519,0.3026342392,-6.748854637,2024-06-05 15:54:52.456666
25.49718105,-0.4697339535,2.886911392,-5.285338402,2024-06-05 15:54:52.497181
25.53766365,0.7968778014,3.404573917,-5.479072094,2024-06-05 15:54:52.537664
25.57815063,2.27119875,4.114273071,-3.889777899,2024-06-05 15:54:52.578151
25.61868167,2.244077682,1.571005344,0.09304261208,2024-06-05 15:54:52.618682
25.65915995,0.3787243366,-3.044053078,4.481939316,2024-06-05 15:54:52.659160
25.69958725,1.371846676,-1.226178169,5.71728754,2024-06-05 15:54:52.699587
25.74007615,0.2357873917,0.7429895401,2.091811657,2024-06-05 15:54:52.740076
25.78061209,1.304880619,0.5540590286,-1.855706692,2024-06-05 15:54:52.780612
25.82110209,2.482927322,-7.117293358,-2.237241507,2024-06-05 15:54:52.821102
25.86161527,1.539451003,1.734413624,0.7922804356,2024-06-05 15:54:52.861615
25.90207152,1.305244684,5.303245068,-6.02038002,2024-06-05 15:54:52.902072
25.94255438,-1.209697604,-1.684386253,-4.093365669,2024-06-05 15:54:52.942554
25.98306527,-1.91830492,-1.956169128,-5.127459049,2024-06-05 15:54:52.983065
26.02351917,-1.654260516,-0.2171678543,2.580187082,2024-06-05 15:54:53.023519
26.06399954,-0.3289740086,-0.2686910629,1.013070107,2024-06-05 15:54:53.064000
26.10449584,0.1352077127,-0.3038520813,0.8027323484,2024-06-05 15:54:53.104496
26.14499693,1.090078235,1.142284393,1.824696779,2024-06-05 15:54:53.144997
26.18548334,0.1050354242,1.19890213,0.03819346428,2024-06-05 15:54:53.185483
26.22599975,-1.117990017,-0.1487903595,0.2102335691,2024-06-05 15:54:53.226000
26.26645548,-1.968677998,-0.8436450958,3.702049255,2024-06-05 15:54:53.266455
26.30698917,-1.773802757,-1.123464584,4.383307457,2024-06-05 15:54:53.306989
26.34748032,-2.171622992,-1.926656723,1.48647213,2024-06-05 15:54:53.347480
26.38794636,0.8252511024,-2.214092255,3.669835567,2024-06-05 15:54:53.387946
26.42847167,-2.013988972,-3.609275818,8.275457382,2024-06-05 15:54:53.428472
26.4689486,-0.1606414318,-2.291493416,2.922528982,2024-06-05 15:54:53.468949
26.50943318,4.111530304,-5.19216156,-4.998033524,2024-06-05 15:54:53.509433
26.54990292,7.763502598,-3.34691143,-6.456506729,2024-06-05 15:54:53.549903
26.59037667,-2.019204617,-1.155742645,-1.854152679,2024-06-05 15:54:53.590377
26.63087037,-2.58046031,-0.02533626556,-3.970566273,2024-06-05 15:54:53.630870
26.67136334,0.6044406891,2.850342751,-6.210916996,2024-06-05 15:54:53.671363
26.71183756,1.791054487,3.887816429,-5.461913109,2024-06-05 15:54:53.711838
26.75233704,1.986237764,4.197587967,-4.749601364,2024-06-05 15:54:53.752337
26.79281318,1.132129669,3.091261864,-2.414335251,2024-06-05 15:54:53.792813
26.83333574,0.8252532482,-1.023590088,2.428232193,2024-06-05 15:54:53.833336
26.87379876,0.1996003389,-1.991075516,5.144695282,2024-06-05 15:54:53.873799
26.91430709,0.2786601782,-2.49749279,5.787402153,2024-06-05 15:54:53.914307
26.95477943,0.9343924522,1.388336658,0.844578743,2024-06-05 15:54:53.954779
26.99526115,4.905501366,-2.213686943,-1.378281116,2024-06-05 15:54:53.995261
27.03574313,3.844500065,-5.998623848,1.091541052,2024-06-05 15:54:54.035743
27.07622027,0.6600444317,4.224919796,-2.152963161,2024-06-05 15:54:54.076220
27.11673016,0.5390444994,4.128538132,-4.340882301,2024-06-05 15:54:54.116730
27.15725167,0.4756351709,-2.68981266,-4.782991409,2024-06-05 15:54:54.157252
27.19774928,-4.720441818,-2.355237961,-5.273456573,2024-06-05 15:54:54.197749
27.23820938,-2.869823933,0.5971326828,3.301080227,2024-06-05 15:54:54.238209
27.27870266,-0.9196566343,-0.5288238525,2.275507212,2024-06-05 15:54:54.278703
27.31917022,1.575485229,0.4871072769,0.6180950403,2024-06-05 15:54:54.319170
27.35969542,2.287471771,1.249788284,-1.84443748,2024-06-05 15:54:54.359695
27.40020386,0.5204801559,0.8760128021,0.006573557854,2024-06-05 15:54:54.400204
27.4406762,-1.627873421,-0.2404842377,0.4483857751,2024-06-05 15:54:54.440676
27.48112053,-2.006654739,-0.693561554,-0.4572647214,2024-06-05 15:54:54.481121
27.52159844,-3.387112141,-0.4561681747,3.370897293,2024-06-05 15:54:54.521598
27.56210136,-1.961860895,-0.1322011948,1.1241014,2024-06-05 15:54:54.562101
27.60257511,-1.134628296,-2.478850365,3.100579739,2024-06-05 15:54:54.602575
27.64306417,2.669151068,-3.288440704,1.25755012,2024-06-05 15:54:54.643064
27.68353766,1.354509354,-2.400663376,1.158548713,2024-06-05 15:54:54.683538
27.72407225,2.843201637,-1.510109901,-1.128672838,2024-06-05 15:54:54.724072
27.76456506,4.332481861,-1.617815971,-4.047657967,2024-06-05 15:54:54.764565
27.80505313,2.241576195,1.042808533,-4.769652367,2024-06-05 15:54:54.805053
27.84555943,-0.695803225,0.8653316498,-1.986589193,2024-06-05 15:54:54.845559
27.88600141,-1.24984014,1.531624794,-2.113700867,2024-06-05 15:54:54.886001
27.9265162,0.3067886829,2.519474506,-2.777325153,2024-06-05 15:54:54.926516
27.96699652,1.923457026,1.985729218,-1.020650864,2024-06-05 15:54:54.966997
28.00750048,1.662098765,0.6384592056,1.137440443,2024-06-05 15:54:55.007500
28.04801568,0.6906056404,-0.6639518738,2.428971291,2024-06-05 15:54:55.048016
28.08851235,1.381017923,0.414352417,2.230582952,2024-06-05 15:54:55.088512
28.12895084,0.8896353245,0.9246282578,1.483459234,2024-06-05 15:54:55.128951
28.1693961,0.4503188133,0.484418869,1.401815891,2024-06-05 15:54:55.169396
28.20989568,-0.5049107075,0.4124565125,1.028177023,2024-06-05 15:54:55.209896
28.25046485,0.1532566547,0.9195737839,-0.9824025631,2024-06-05 15:54:55.250465
28.29088761,1.078290462,1.293045998,-1.644907713,2024-06-05 15:54:55.290888
28.3314224,1.68957305,0.8554697037,-1.313512325,2024-06-05 15:54:55.331422
28.37186792,2.625106335,0.5875577927,-0.7780958414,2024-06-05 15:54:55.371868
28.41235501,3.903922319,-1.715743065,-0.389850378,2024-06-05 15:54:55.412355
28.45284688,3.001284599,-2.767416,1.828483582,2024-06-05 15:54:55.452847
28.49333641,0.8841636181,1.796133995,0.3953441381,2024-06-05 15:54:55.493336
28.53383553,-1.81981945,1.236104012,-2.518194675,2024-06-05 15:54:55.533836
28.57433949,-2.622232199,0.1068458557,-0.9455298185,2024-06-05 15:54:55.574339
28.61488954,-1.460726738,-0.782128334,0.2756477594,2024-06-05 15:54:55.614890
28.6553223,-0.2508487701,-0.4448394775,-1.605258584,2024-06-05 15:54:55.655322
28.69577678,-2.05656743,-0.3217601776,-1.233311176,2024-06-05 15:54:55.695777
28.73630042,-2.239385128,-0.7709159851,-0.932199955,2024-06-05 15:54:55.736300
28.77684829,-0.02833354473,-0.1847724915,0.006583511829,2024-06-05 15:54:55.776848
28.81728683,0.584107399,0.07954406738,1.19917655,2024-06-05 15:54:55.817287
28.85777277,0.0518103838,-0.09983348846,0.7883114219,2024-06-05 15:54:55.857773
28.89825922,-0.8804959655,-0.1165714264,-1.257261634,2024-06-05 15:54:55.898259
28.93879433,-1.491001964,-0.3628988266,-0.5334513187,2024-06-05 15:54:55.938794
28.97918897,0.3428617716,-0.07376384735,1.615373731,2024-06-05 15:54:55.979189
29.01978022,1.306962609,0.1146602631,-1.065217853,2024-06-05 15:54:56.019780
29.06022501,0.1935036182,0.0256729126,0.494063139,2024-06-05 15:54:56.060225
29.10070355,-1.307827234,-0.6738100052,2.822257519,2024-06-05 15:54:56.100704
29.14116422,-1.039381862,-0.7286653519,-0.3021485806,2024-06-05 15:54:56.141164
29.18165298,-1.904879332,-0.7692909241,0.5690274239,2024-06-05 15:54:56.181653
29.22217928,-1.65842402,-0.3672380447,0.5503735542,2024-06-05 15:54:56.222179
29.26262912,-1.91339612,-0.7054338455,1.341707706,2024-06-05 15:54:56.262629
29.3031448,-2.426623583,-2.41240406,1.815606117,2024-06-05 15:54:56.303145
29.34363188,-3.457633495,-2.710664749,2.040262699,2024-06-05 15:54:56.343632
29.38410699,-1.559425831,-1.074766159,4.51776123,2024-06-05 15:54:56.384107
29.4245824,0.0794301033,0.01069831848,2.177200556,2024-06-05 15:54:56.424582
29.46510495,-0.0482776165,0.2413349152,-0.01694893837,2024-06-05 15:54:56.465105
29.50559355,-1.000200033,-2.438916206,-4.215380192,2024-06-05 15:54:56.505594
29.54608412,-1.488311768,-2.222015381,-3.795384407,2024-06-05 15:54:56.546084
29.58657303,-2.36358428,-1.401469231,-3.068287373,2024-06-05 15:54:56.586573
29.62706699,-0.6887940168,-0.6186666489,-3.405155659,2024-06-05 15:54:56.627067
29.66753683,0.1418403238,1.225635529,-3.910232306,2024-06-05 15:54:56.667537
29.7080148,3.640548944,3.24895668,-3.553473473,2024-06-05 15:54:56.708015
29.74855433,3.672321796,3.900010109,-2.436552763,2024-06-05 15:54:56.748554
29.78900647,3.275667906,2.784012794,-0.4660801888,2024-06-05 15:54:56.789006
29.829481,2.132558584,0.7811231613,1.514513016,2024-06-05 15:54:56.829481
29.87000433,-2.489420414,-3.431020737,3.712403536,2024-06-05 15:54:56.870004
29.91047865,-4.66931057,-2.914041519,4.617292404,2024-06-05 15:54:56.910479
29.95100501,1.120224237,2.800704002,-0.1372475624,2024-06-05 15:54:56.951005
29.99145172,5.571792603,-6.026675224,-4.526642799,2024-06-05 15:54:56.991452
30.03192449,2.242846966,-3.409366608,2.809890747,2024-06-05 15:54:57.031924
30.07242673,6.66932869,8.15070343,-4.526445389,2024-06-05 15:54:57.072427
30.11293277,4.924978733,4.240503311,-0.6894981861,2024-06-05 15:54:57.112933
30.15341183,2.592542648,-3.684064865,-4.631211281,2024-06-05 15:54:57.153412
30.19389329,-5.222703934,-3.407512665,-6.51132679,2024-06-05 15:54:57.193893
30.23437704,-6.340770721,-0.6520967484,5.871844769,2024-06-05 15:54:57.234377
30.2748911,-3.524882793,-1.152425766,1.71214056,2024-06-05 15:54:57.274891
30.315371,1.79500699,0.3756017685,0.03022152185,2024-06-05 15:54:57.315371
30.35584542,1.225113153,1.748634338,-0.2364578247,2024-06-05 15:54:57.355845
30.3963287,-0.1344094276,0.1591053009,0.5712690353,2024-06-05 15:54:57.396329
30.43681522,-1.287346601,-0.4512796402,2.44899559,2024-06-05 15:54:57.436815
30.47732245,-2.220196009,-1.680752754,4.462114334,2024-06-05 15:54:57.477322
30.51779027,-4.799175739,-2.757791519,1.380329132,2024-06-05 15:54:57.517790
30.55831381,-0.5588003397,-2.300258636,3.868864775,2024-06-05 15:54:57.558314
30.59882975,-1.502178311,-2.342255592,5.078043938,2024-06-05 15:54:57.598830
30.639256,-3.331010818,-1.655105591,3.657497644,2024-06-05 15:54:57.639256
30.67971636,-1.346181273,-1.820017815,1.912985563,2024-06-05 15:54:57.679716
30.72021084,4.242436886,-4.231231689,-4.376003265,2024-06-05 15:54:57.720211
30.76075761,4.094324589,-2.246918678,-5.669837475,2024-06-05 15:54:57.760758
30.80121204,-1.086862087,-0.3370389938,-1.261994481,2024-06-05 15:54:57.801212
30.84169412,-2.716275692,-0.2023735046,-4.676246643,2024-06-05 15:54:57.841694
30.88221204,-0.06745821238,1.528040886,-5.253055096,2024-06-05 15:54:57.882212
30.92267199,2.891287327,4.415289879,-5.839223862,2024-06-05 15:54:57.922672
30.96321589,4.621837139,5.7809062,-5.228782177,2024-06-05 15:54:57.963216
31.003661,4.08987236,4.014567375,-1.11212635,2024-06-05 15:54:58.003661
31.04414048,3.290979147,-0.9283313751,4.016884804,2024-06-05 15:54:58.044140
31.08463063,-5.843784332,-8.599657059,10.24126244,2024-06-05 15:54:58.084631
31.12516214,-0.9083178043,-1.154224396,2.842108488,2024-06-05 15:54:58.125162
31.16563693,7.818055153,-4.889507294,-3.519645214,2024-06-05 15:54:58.165637
31.20615381,0.8534547091,-1.32153511,-2.215307713,2024-06-05 15:54:58.206154
31.24659943,4.002043724,6.876794338,-7.43900013,2024-06-05 15:54:58.246599
31.28706735,4.538455486,3.447188377,-1.664157867,2024-06-05 15:54:58.287067
31.32756344,1.871674776,-6.197271347,-6.468511105,2024-06-05 15:54:58.327563
31.36807506,-5.64049387,-0.2738637924,-0.003661438823,2024-06-05 15:54:58.368075
31.40859923,-4.199558258,-0.6087207794,2.312554836,2024-06-05 15:54:58.408599
31.44906245,1.057234287,-0.1579608917,2.356234074,2024-06-05 15:54:58.449062
31.48957516,3.355519772,1.415745735,3.504521847,2024-06-05 15:54:58.489575
31.53008235,-1.129109859,0.9455108643,-0.4786707163,2024-06-05 15:54:58.530082
31.57049032,-3.914708614,-0.4005432129,1.264858484,2024-06-05 15:54:58.570490
31.61102355,-4.071133614,-1.806332588,5.706370354,2024-06-05 15:54:58.611024
31.65148719,-3.383742332,-2.199728012,1.121432066,2024-06-05 15:54:58.651487
31.69201584,-0.8532288074,-2.65708828,4.550900936,2024-06-05 15:54:58.692016
31.73248719,-2.224392891,-3.244947433,6.932019234,2024-06-05 15:54:58.732487
31.7729711,-2.591900349,-1.590444565,1.004622221,2024-06-05 15:54:58.772971
31.81346298,2.451429844,-4.699091911,-1.946678162,2024-06-05 15:54:58.813463
31.85397657,7.503662109,-4.171542168,-6.643064976,2024-06-05 15:54:58.853977
31.89442725,0.6816785932,-0.1404380798,-1.189484119,2024-06-05 15:54:58.894427
31.93494079,-4.761802673,-0.6198329926,-4.47023344,2024-06-05 15:54:58.934941
31.97540298,-0.5087657571,1.866203785,-6.228363991,2024-06-05 15:54:58.975403
32.01589391,2.663785696,4.594202518,-6.064188957,2024-06-05 15:54:59.015894
32.05636251,3.962106705,4.992193699,-5.275154114,2024-06-05 15:54:59.056363
32.09685766,2.226077557,2.654569149,-1.865770817,2024-06-05 15:54:59.096858
32.13737225,2.534046888,-1.526076317,4.009975433,2024-06-05 15:54:59.137372
32.17783157,-2.449308157,-7.692265511,11.61276245,2024-06-05 15:54:59.177832
32.21831443,0.3407967687,2.120059013,1.461327076,2024-06-05 15:54:59.218314
32.25884245,4.246236324,-1.019325256,-5.183182716,2024-06-05 15:54:59.258842
32.29937219,1.705742836,-5.577355385,0.590669632,2024-06-05 15:54:59.299372
32.33982548,1.963516951,4.214066505,-7.084784031,2024-06-05 15:54:59.339825
32.38028693,2.122656107,3.60198164,-5.147562027,2024-06-05 15:54:59.380287
32.42082589,-2.299603701,-5.176315308,-0.5761553049,2024-06-05 15:54:59.420826
32.46129824,-7.480038643,-1.101149559,-1.232950211,2024-06-05 15:54:59.461298
32.50176933,1.457238793,0.6101408005,-0.04052689672,2024-06-05 15:54:59.501769
32.54226006,2.095660448,0.6711187363,2.019979239,2024-06-05 15:54:59.542260
32.58274344,1.76971209,1.44644165,0.9832903147,2024-06-05 15:54:59.582743
32.62322511,-0.6815117598,1.751873016,-1.259180069,2024-06-05 15:54:59.623225
32.66369422,-1.200371265,-0.5710496902,0.1614141464,2024-06-05 15:54:59.663694
32.70419646,-2.883596182,-1.115711212,6.511356354,2024-06-05 15:54:59.704196
32.7447036,-5.132616997,-2.372161865,0.9591441154,2024-06-05 15:54:59.744704
32.78517949,-3.08175087,-2.402721405,3.19243145,2024-06-05 15:54:59.785179
32.8256835,-2.39582777,-4.203420639,5.42614603,2024-06-05 15:54:59.825683
32.86618626,-2.356538296,-2.117715836,3.390675068,2024-06-05 15:54:59.866186
32.90664433,1.159024358,-2.358633041,2.431952477,2024-06-05 15:54:59.906644
32.94713105,6.19527483,-4.598484039,-4.9406147,2024-06-05 15:54:59.947131
32.9876298,1.643681884,-1.912016869,-7.446902275,2024-06-05 15:54:59.987630
33.02815167,-3.816937447,-0.7625055313,-1.748591423,2024-06-05 15:55:00.028152
33.06862469,-2.171832085,-0.002047538757,-5.24170208,2024-06-05 15:55:00.068625
33.10910443,0.2636879683,2.435232162,-6.481344223,2024-06-05 15:55:00.109104
33.14956214,2.079882145,3.843569279,-5.880894661,2024-06-05 15:55:00.149562
33.19011646,2.643179417,3.929262161,-4.64353323,2024-06-05 15:55:00.190116
33.2305873,1.749716282,2.545523167,-1.268667459,2024-06-05 15:55:00.230587
33.27104803,1.671551943,-0.4301490784,2.395932674,2024-06-05 15:55:00.271048
33.31152167,0.3348622322,-5.075149536,7.585737228,2024-06-05 15:55:00.311522
33.35200558,1.021946073,-4.052185059,4.342798233,2024-06-05 15:55:00.352006
33.39252537,0.7529802918,3.629076481,-0.5694243908,2024-06-05 15:55:00.392525
33.43299053,4.080729961,-4.713648796,-2.511849642,2024-06-05 15:55:00.432991
33.47347516,0.7434798479,-4.39213562,3.354290962,2024-06-05 15:55:00.473475
33.5139811,5.480336189,7.671177864,-11.41238689,2024-06-05 15:55:00.513981
33.55446511,2.686592579,3.170022488,-2.416414976,2024-06-05 15:55:00.554465
33.5949499,-3.38440609,-7.43163681,-4.701828003,2024-06-05 15:55:00.594950
33.63545344,-8.960705757,-2.132325172,0.2414476871,2024-06-05 15:55:00.635453
33.6759248,-2.227317572,-0.1444187164,0.1288895607,2024-06-05 15:55:00.675925
33.71643745,0.6219843626,-0.6467132568,2.572851658,2024-06-05 15:55:00.716437
33.75692876,1.656232357,0.5560770035,1.117385387,2024-06-05 15:55:00.756929
33.79741511,0.4666857719,0.8568925858,-0.4844546914,2024-06-05 15:55:00.797415
33.83794329,-0.8267976046,0.05565547943,-1.612488389,2024-06-05 15:55:00.837943
33.87842292,-0.7774749398,0.03965377808,0.02790862322,2024-06-05 15:55:00.878423
33.91888417,-0.2895697355,0.3892717361,2.023710966,2024-06-05 15:55:00.918884
33.95940891,-0.2930327654,0.05167770386,-0.1168347001,2024-06-05 15:55:00.959409
33.9999003,0.7105544806,-0.1263694763,-1.621187925,2024-06-05 15:55:00.999900
34.04030936,1.498363256,-0.04110336304,2.387689114,2024-06-05 15:55:01.040309
34.0808227,0.7300128937,0.2051134109,1.306402445,2024-06-05 15:55:01.080823
34.12132639,-0.8822295666,0.02946662903,-0.04935443401,2024-06-05 15:55:01.121326
34.16180598,-0.3427746296,-0.7495727539,1.063843966,2024-06-05 15:55:01.161806
34.20232775,0.3879649639,-1.296084404,2.627412319,2024-06-05 15:55:01.202328
34.24277066,-2.253746033,-0.6754961014,4.448586464,2024-06-05 15:55:01.242771
34.28325947,-4.672720432,-1.292949677,2.034994602,2024-06-05 15:55:01.283259
34.32376723,-4.550780773,-1.871184349,-1.487295628,2024-06-05 15:55:01.323767
34.36425374,-3.139269352,-3.603609085,-4.633008957,2024-06-05 15:55:01.364254
34.4047329,-0.6150456071,-3.466489792,-5.889600754,2024-06-05 15:55:01.404733
34.4452466,-0.0296214819,-2.262742043,-4.536975861,2024-06-05 15:55:01.445247
34.48570426,0.5812234879,-0.3458042145,-2.314723015,2024-06-05 15:55:01.485704
34.52626462,1.256605864,1.075012207,-2.993759155,2024-06-05 15:55:01.526265
34.56669228,2.267123699,0.7417535782,-2.921569586,2024-06-05 15:55:01.566692
34.60717785,4.59804678,1.831207275,-0.959895134,2024-06-05 15:55:01.607178
34.64768525,3.904065609,2.736242771,0.8954401016,2024-06-05 15:55:01.647685
34.68815764,1.241684556,2.794751167,1.217365503,2024-06-05 15:55:01.688158
34.72868988,-1.564601421,0.8712320328,1.752752781,2024-06-05 15:55:01.728690
34.76919207,-4.545092106,-0.7666778564,1.231063008,2024-06-05 15:55:01.769192
34.80969978,-1.817044735,-1.309886932,1.134481549,2024-06-05 15:55:01.809700
34.8501291,0.7659070492,-7.151047707,1.115585208,2024-06-05 15:55:01.850129
34.89063566,2.616483688,4.547235012,-1.502061605,2024-06-05 15:55:01.890636
34.93107889,1.723134518,4.631245613,-1.707603335,2024-06-05 15:55:01.931079
34.97162014,0.2362866402,-1.746577263,-1.358207583,2024-06-05 15:55:01.971620
35.01204764,-2.85201931,-2.019033432,-5.270327568,2024-06-05 15:55:02.012048
35.05257525,-1.545169592,0.08948993683,4.063211441,2024-06-05 15:55:02.052575
35.09305921,0.5760419369,-0.6534290314,1.142130256,2024-06-05 15:55:02.093059
35.1335427,-1.159852505,-0.6283369064,-0.9555681944,2024-06-05 15:55:02.133543
35.17402098,1.417628169,0.07873725891,-0.9263536334,2024-06-05 15:55:02.174021
35.21451962,1.530014515,0.1747922897,0.2555882335,2024-06-05 15:55:02.214520
35.2550028,0.8042672873,0.4284543991,-0.03423941135,2024-06-05 15:55:02.255003
35.29555894,0.8001403809,-0.1409540176,-1.25933516,2024-06-05 15:55:02.295559
35.33599796,1.791457534,0.4588041306,1.485113502,2024-06-05 15:55:02.335998
35.37645947,-0.6479033232,-0.3660373688,1.146153808,2024-06-05 15:55:02.376459
35.41694394,-0.3936426044,-0.0240316391,0.9440027475,2024-06-05 15:55:02.416944
35.45747103,-1.550465703,-0.7123603821,3.008596182,2024-06-05 15:55:02.457471
35.49793978,-1.107737064,-0.9440765381,0.9104089737,2024-06-05 15:55:02.497940
35.53850535,-0.7644741535,-1.176424026,1.132002115,2024-06-05 15:55:02.538505
35.57898822,-1.96282053,-2.643785477,2.361378431,2024-06-05 15:55:02.578988
35.61938254,-3.838745594,-3.344929695,2.42648077,2024-06-05 15:55:02.619383
35.65992759,0.06207537651,-1.101841927,4.999396324,2024-06-05 15:55:02.659928
35.70039275,1.885462046,-0.8486270905,4.902984619,2024-06-05 15:55:02.700393
35.7409091,-0.01978009939,-1.986291885,0.08952790499,2024-06-05 15:55:02.740909
35.78138624,3.350444078,-2.031652451,-4.734128952,2024-06-05 15:55:02.781386
35.82187337,4.102550983,-2.764520645,-2.236342907,2024-06-05 15:55:02.821873
35.86235634,2.526385784,-0.4292898178,-1.134394407,2024-06-05 15:55:02.862356
35.90283691,-0.9786712527,0.5323371887,-3.199092865,2024-06-05 15:55:02.902837
35.94331712,1.816576481,3.024273396,-3.45616293,2024-06-05 15:55:02.943317
35.98384665,3.065628052,4.596261501,-4.166380882,2024-06-05 15:55:02.983847
36.02430827,2.022647142,4.878588676,-4.200014114,2024-06-05 15:55:03.024308
36.06482759,0.8686628938,3.334094048,-0.7989315987,2024-06-05 15:55:03.064828
36.10531921,-0.1599618196,-1.407234192,5.039635658,2024-06-05 15:55:03.105319
36.14577452,-4.67141819,-7.801251411,9.959934235,2024-06-05 15:55:03.145775
36.18627447,1.270540357,3.21567297,0.0954709053,2024-06-05 15:55:03.186274
36.22675046,4.715836048,-0.2656354904,-4.222649574,2024-06-05 15:55:03.226750
36.26720082,0.3976534605,-11.36617851,4.478369713,2024-06-05 15:55:03.267201
36.3077079,2.075794458,7.592362404,-8.563978195,2024-06-05 15:55:03.307708
36.34821306,2.510320187,6.171940327,-4.105347157,2024-06-05 15:55:03.348213
36.38872353,2.773802996,-4.185731888,-5.273547173,2024-06-05 15:55:03.388724
36.42917514,-7.779595375,-3.339523315,3.082905769,2024-06-05 15:55:03.429175
36.46970337,-4.511161804,-0.1417341232,1.135436535,2024-06-05 15:55:03.469703
36.51017884,-0.02933394909,-0.1354522705,0.2233007103,2024-06-05 15:55:03.510179
36.55066457,3.223991871,0.8180999756,3.734481096,2024-06-05 15:55:03.550665
36.59114582,-0.1480512619,1.004254341,1.114225745,2024-06-05 15:55:03.591146
36.63163436,-1.004230738,0.8719291687,-1.990839243,2024-06-05 15:55:03.631634
36.67212306,-0.9497326016,0.1591835022,-1.151549816,2024-06-05 15:55:03.672123
36.71261618,-1.336483836,-1.206111908,2.914407253,2024-06-05 15:55:03.712616
36.75310165,-1.323203802,-1.788849831,7.008122444,2024-06-05 15:55:03.753102
36.79360254,-5.858244896,-2.483816147,1.75108695,2024-06-05 15:55:03.793603
36.83411233,-5.296561241,-6.08962822,3.768955231,2024-06-05 15:55:03.834112
36.87458165,-2.795032263,-2.90700531,3.341806173,2024-06-05 15:55:03.874582
36.9150479,1.117013574,-2.411324501,0.5311557055,2024-06-05 15:55:03.915048
36.95554717,4.352258205,-3.839518547,-6.109250069,2024-06-05 15:55:03.955547
36.99603848,-1.292701483,-1.257079124,-5.885391712,2024-06-05 15:55:03.996038
37.03651514,-3.629698753,-2.003099442,-4.21522665,2024-06-05 15:55:04.036515
37.07700457,-3.229799032,-2.799194336,-5.777038097,2024-06-05 15:55:04.077005
37.11750566,0.7236529589,0.9745621681,-7.271032333,2024-06-05 15:55:04.117506
37.15799582,3.277380943,4.114961147,-6.05203104,2024-06-05 15:55:04.157996
37.19848254,4.188745499,4.111885071,-4.99885273,2024-06-05 15:55:04.198483
37.23896936,3.928211689,3.39292717,-2.641020775,2024-06-05 15:55:04.238969
37.2794754,3.256031275,1.729625702,0.8322029114,2024-06-05 15:55:04.279475
37.31993139,-2.046290398,-4.27329731,4.662391663,2024-06-05 15:55:04.319931
37.36047764,-3.225898266,-4.722202301,5.675286293,2024-06-05 15:55:04.360478
37.40090421,-0.3171780109,2.789673805,-0.8987388611,2024-06-05 15:55:04.400904
37.44137895,3.612942457,0.2503356934,-2.418780804,2024-06-05 15:55:04.441379
37.4819015,2.707027435,-15.12105942,6.632707119,2024-06-05 15:55:04.481901
37.52239072,3.361932993,8.162606239,-14.29825401,2024-06-05 15:55:04.522391
37.56288509,-3.337260962,4.374288559,-6.233721733,2024-06-05 15:55:04.562885
37.60336457,-6.800853252,-10.8503294,-0.2332284451,2024-06-05 15:55:04.603365
37.64386624,-0.6849150658,-0.04428577423,1.341890097,2024-06-05 15:55:04.643866
37.6843303,3.715558767,3.324007034,-2.49787879,2024-06-05 15:55:04.684330
37.72485546,2.426759243,2.393241405,1.41570735,2024-06-05 15:55:04.724855
37.76531926,-0.6639553905,0.4235019684,2.618623495,2024-06-05 15:55:04.765319
37.80580202,-0.9386835694,2.697855473,0.2047173977,2024-06-05 15:55:04.805802
37.84632858,-1.456858873,1.744291782,0.7751550674,2024-06-05 15:55:04.846329
37.88683676,-2.191982985,-0.2214393616,0.4852492809,2024-06-05 15:55:04.886837
37.92734702,-1.921263695,2.215538979,-0.3168134689,2024-06-05 15:55:04.927347
37.96776566,-1.945376396,-0.9177103043,1.457959652,2024-06-05 15:55:04.967766
38.00822832,-3.564230442,-0.3973741531,1.739809513,2024-06-05 15:55:05.008228
38.04876488,-1.558667898,-8.416097641,-0.9027099609,2024-06-05 15:55:05.048765
38.08918025,4.111988544,-7.694264889,-5.488863945,2024-06-05 15:55:05.089180
38.12976806,2.04061079,-0.751335144,-2.372822285,2024-06-05 15:55:05.129768
38.17022249,2.226559162,3.030780315,-3.337806225,2024-06-05 15:55:05.170222
38.21074056,1.341009378,4.601075649,-3.526774406,2024-06-05 15:55:05.210741
38.25118077,0.567050755,4.725162506,-4.040277481,2024-06-05 15:55:05.251181
38.29165228,0.2182055712,2.818107605,-4.38416481,2024-06-05 15:55:05.291652
38.332164,-0.4380747676,1.841258049,-1.102373123,2024-06-05 15:55:05.332164
38.37266327,0.1812787056,-0.1383523941,1.857178688,2024-06-05 15:55:05.372663
38.41315957,3.056154251,0.2424097061,9.02675724,2024-06-05 15:55:05.413160
38.4536079,2.027255297,3.575358391,2.658722878,2024-06-05 15:55:05.453608
38.49412582,0.6386376619,-0.2532234192,-7.170629025,2024-06-05 15:55:05.494126
38.53463082,-4.545511246,-15.91481686,12.12696552,2024-06-05 15:55:05.534631
38.57512525,6.215796471,-3.898459435,-3.264520407,2024-06-05 15:55:05.575125
38.615574,0.5414879322,-0.1704273224,-5.253492832,2024-06-05 15:55:05.615574
38.6560741,-1.069961905,0.1929683685,4.077040672,2024-06-05 15:55:05.656074
38.69655337,1.489982009,0.8903551102,6.877697945,2024-06-05 15:55:05.696553
38.73705582,4.888851166,6.252522469,-1.840923071,2024-06-05 15:55:05.737056
38.77752452,-0.5164372325,5.142346382,1.170035839,2024-06-05 15:55:05.777525
38.8180403,-4.893134117,-5.832370758,-2.84935236,2024-06-05 15:55:05.818040
38.85852327,-3.4223032,-13.25290871,-2.079095364,2024-06-05 15:55:05.858523
38.89906264,3.681642532,-1.657543182,-3.720301151,2024-06-05 15:55:05.899063
38.93951077,4.023250103,2.712061405,-3.449933529,2024-06-05 15:55:05.939511
38.9799765,2.483221769,2.238230705,-4.491620064,2024-06-05 15:55:05.979976
39.0204679,0.2399085313,4.314552307,-4.135138512,2024-06-05 15:55:06.020468
39.06095546,-1.111073256,1.729921818,-1.220219135,2024-06-05 15:55:06.060955
39.10143827,-2.381854296,0.2166137695,-0.1021797657,2024-06-05 15:55:06.101438
39.14193374,-2.454428196,-2.404855728,0.8335031271,2024-06-05 15:55:06.141934
39.18242368,4.649875164,1.125682831,12.07166481,2024-06-05 15:55:06.182424
39.2228979,7.138898849,4.186941147,4.966497421,2024-06-05 15:55:06.222898
39.26340431,0.3939133883,-0.5052490234,-11.6942873,2024-06-05 15:55:06.263404
39.30389561,-3.671103954,-14.30911922,11.15248394,2024-06-05 15:55:06.303896
39.34437931,2.762857914,-0.338973999,-5.829358101,2024-06-05 15:55:06.344379
39.38487014,0.7730551958,-5.456039429,3.234949112,2024-06-05 15:55:06.384870
39.42535353,0.4969297647,1.835246086,-2.361755371,2024-06-05 15:55:06.425354
39.46584228,3.720210791,-1.215134621,-4.261496544,2024-06-05 15:55:06.465842
39.50634228,-3.639151096,0.200838089,7.837189674,2024-06-05 15:55:06.506342
39.54684676,-3.65700388,2.616816998,3.948524952,2024-06-05 15:55:06.546847
39.58734046,-0.3377575278,3.652943134,-0.2027714252,2024-06-05 15:55:06.587340
39.62782275,-1.361344337,2.557433128,-1.416642666,2024-06-05 15:55:06.627823
39.66830587,-2.318323612,0.6411056519,-0.6237351894,2024-06-05 15:55:06.668306
39.70878228,-2.88338995,-5.391566277,0.9921875,2024-06-05 15:55:06.708782
39.7493052,1.210609913,-9.367706299,-0.7005372047,2024-06-05 15:55:06.749305
39.78978905,6.032525539,-0.9884390831,-3.988671303,2024-06-05 15:55:06.789789
39.83025572,3.429724216,2.865168095,-2.348450422,2024-06-05 15:55:06.830256
39.87075217,1.049799323,-0.1655273438,-1.473954678,2024-06-05 15:55:06.870752
39.91123613,-0.01983089745,1.265945911,-2.793669224,2024-06-05 15:55:06.911236
39.95175098,0.7664643526,3.769057274,-3.730335951,2024-06-05 15:55:06.951751
39.99221556,-0.1213249564,3.042562485,-3.028535843,2024-06-05 15:55:06.992216
40.03272108,-0.8905047178,-0.7655029297,1.570188046,2024-06-05 15:55:07.032721
40.07321941,1.777222157,1.252418518,3.253913403,2024-06-05 15:55:07.073219
40.11368639,0.8173787594,1.219385147,7.746500015,2024-06-05 15:55:07.113686
40.15417462,1.930261135,1.613357544,1.387803435,2024-06-05 15:55:07.154175
40.19469223,0.5823072195,2.591325283,-0.5820549726,2024-06-05 15:55:07.194692
40.23516025,-5.089195728,-4.938417435,-2.434957504,2024-06-05 15:55:07.235160
40.27564639,0.2894456387,-8.589661598,6.253409386,2024-06-05 15:55:07.275646
40.31613608,2.682572842,-2.190145493,-0.6000968218,2024-06-05 15:55:07.316136
40.3566153,3.2722435,-1.91727066,-5.002959251,2024-06-05 15:55:07.356615
40.39711035,1.08595264,0.6915893555,-1.812081337,2024-06-05 15:55:07.397110
40.43760353,-1.974039197,-0.3603658676,2.346112967,2024-06-05 15:55:07.437604
40.47806858,-1.82763195,1.732126236,1.25448823,2024-06-05 15:55:07.478069
40.51860207,-2.054626703,1.609016418,2.847152233,2024-06-05 15:55:07.518602
40.55909072,-0.2578461766,0.5739183426,3.359879017,2024-06-05 15:55:07.559091
40.59959613,-0.3313291371,1.58571291,-0.03719067574,2024-06-05 15:55:07.599596
40.64005905,-4.952395916,-0.9326181412,2.367953777,2024-06-05 15:55:07.640059
40.68050186,-1.406501412,-1.538313866,2.625116348,2024-06-05 15:55:07.680502
40.720999,1.63853085,-5.344794273,-2.98819828,2024-06-05 15:55:07.720999
40.76155379,4.710031986,-2.940374374,-4.915001869,2024-06-05 15:55:07.761554
40.80200603,2.230149508,0.7495846748,-3.523432732,2024-06-05 15:55:07.802006
40.84248025,0.1962941736,0.07250213623,-3.029634476,2024-06-05 15:55:07.842480
40.88298301,0.6319722533,2.051336288,-3.623158455,2024-06-05 15:55:07.882983
40.92344165,0.1867864728,2.779549122,-3.835207701,2024-06-05 15:55:07.923442
40.96398368,-2.493202686,1.232086182,-2.90998745,2024-06-05 15:55:07.963984
41.00441348,0.1033286452,-0.03552055359,2.282897949,2024-06-05 15:55:08.004413
41.04492957,2.18103385,-0.501616478,8.771518707,2024-06-05 15:55:08.044930
41.08540759,-0.2699327469,2.147253036,5.980133533,2024-06-05 15:55:08.085408
41.12596249,3.597452164,5.333921432,-4.517092705,2024-06-05 15:55:08.125962
41.16639155,-0.08586770296,3.707875252,-3.554843426,2024-06-05 15:55:08.166392
41.20688212,-2.812536478,-9.917560577,5.862091064,2024-06-05 15:55:08.206882
41.24734754,0.8351019025,-4.589841843,0.4738869667,2024-06-05 15:55:08.247348
41.28791598,1.184692621,-2.876265526,-1.464876056,2024-06-05 15:55:08.287916
41.32839598,-0.6973578334,-2.209627151,0.01421356201,2024-06-05 15:55:08.328396
41.3689003,-3.390650988,-0.6264972687,3.530926466,2024-06-05 15:55:08.368900
41.40927613,-1.823488593,1.854804516,2.079339981,2024-06-05 15:55:08.409276
41.44986186,-1.830698967,1.84635067,1.533046484,2024-06-05 15:55:08.449862
41.49027322,-1.066075802,1.429625511,1.195342064,2024-06-05 15:55:08.490273
41.53082171,-0.8751766682,1.638235569,-0.1945369244,2024-06-05 15:55:08.530822
41.57127207,-4.494655609,-3.188384056,5.738858223,2024-06-05 15:55:08.571272
41.61176483,0.2133959532,-4.827807426,-1.246133089,2024-06-05 15:55:08.611765
41.65227744,2.218816042,-4.347857475,-5.191209316,2024-06-05 15:55:08.652277
41.69271066,-1.845155954,-2.390994072,-1.859546661,2024-06-05 15:55:08.692711
41.73321457,0.1694999337,0.01476669312,-2.615555286,2024-06-05 15:55:08.733215
41.77371967,0.3936318755,0.7011003494,-2.796552896,2024-06-05 15:55:08.773720
41.81421744,-0.2666658759,2.139408588,-2.041190624,2024-06-05 15:55:08.814217
41.85473171,0.1933064461,1.935538292,-1.042270064,2024-06-05 15:55:08.854732
41.89519952,1.735123396,2.677508831,1.297771931,2024-06-05 15:55:08.895200
41.93566624,0.6307751536,1.906562328,3.576502323,2024-06-05 15:55:08.935666
41.97616124,-0.02457070351,1.485717773,4.83630085,2024-06-05 15:55:08.976161
42.01668509,-2.012281895,2.915318489,-0.2076003551,2024-06-05 15:55:09.016685
42.05719009,-8.499369621,0.5850191116,1.37098527,2024-06-05 15:55:09.057190
42.09763103,-2.955174923,0.5969686508,2.510190725,2024-06-05 15:55:09.097631
42.13812822,1.592741966,1.75675869,-3.07113266,2024-06-05 15:55:09.138128
42.1786404,7.198201656,-6.865932465,-4.011424541,2024-06-05 15:55:09.178640
42.21914874,2.619207859,-4.743736267,-8.779756546,2024-06-05 15:55:09.219149
42.25962348,-3.783710003,-2.219090462,-1.326979518,2024-06-05 15:55:09.259623
42.3000504,-0.8709141612,-9.133421898,-6.565371037,2024-06-05 15:55:09.300050
42.34061858,0.5731003881,-2.865743637,8.65377903,2024-06-05 15:55:09.340619
42.38108457,0.2824319601,-0.6403627396,-3.421458483,2024-06-05 15:55:09.381085
42.42153327,-0.9794111252,1.351344109,3.120203018,2024-06-05 15:55:09.421533
42.46201207,-2.503870487,1.349600792,1.699419498,2024-06-05 15:55:09.462012
42.50251639,-1.934454799,1.584968567,3.75762701,2024-06-05 15:55:09.502516
42.54300061,-2.526708603,2.015501499,2.566565275,2024-06-05 15:55:09.543001
42.58349842,-3.223263741,-0.4000520706,2.625389814,2024-06-05 15:55:09.583498
42.6239904,-5.284112453,-5.7012043,1.092579484,2024-06-05 15:55:09.623990
42.66446582,-6.577134132,-4.655666351,2.646178961,2024-06-05 15:55:09.664466
42.70494978,0.5240724087,-4.192430496,-7.615893364,2024-06-05 15:55:09.704950
42.74546681,-1.419290662,-3.142942429,-5.80300045,2024-06-05 15:55:09.745467
42.78594176,-5.127495766,-2.883612633,-3.648511887,2024-06-05 15:55:09.785942
42.82644462,-3.451988459,-1.597301483,-8.345239639,2024-06-05 15:55:09.826445
42.86694863,-1.396440625,-0.7338790894,-10.30615616,2024-06-05 15:55:09.866949
42.90741681,0.4491595626,-0.7345294952,-7.627410412,2024-06-05 15:55:09.907417
42.9479215,1.996947289,0.5686845779,-6.361848831,2024-06-05 15:55:09.947921
42.98841514,3.24872613,1.678572178,-3.144326687,2024-06-05 15:55:09.988415
43.02886785,3.277863503,-0.169090271,0.4463837147,2024-06-05 15:55:10.028868
43.06940639,2.322845936,-0.4337310791,1.033524275,2024-06-05 15:55:10.069406
43.1098991,1.746524692,1.62843132,-1.440638065,2024-06-05 15:55:10.109899
43.15033197,0.1611220837,1.829304695,-0.04204320908,2024-06-05 15:55:10.150332
43.19081296,-4.125709534,-1.022892952,0.1915211678,2024-06-05 15:55:10.190813
43.23135056,-0.7161463499,1.924677849,-0.3985040188,2024-06-05 15:55:10.231351
43.27180598,7.223912239,-9.780718803,0.9154963493,2024-06-05 15:55:10.271806
43.31231483,2.640233278,-2.872094154,2.994149923,2024-06-05 15:55:10.312315
43.35281457,3.990107059,8.555528641,-10.06484795,2024-06-05 15:55:10.352815
43.39330374,-2.877162457,-1.561994553,-6.228679657,2024-06-05 15:55:10.393304
43.43376582,-10.2165184,-6.484168053,4.170249939,2024-06-05 15:55:10.433766
43.47424108,3.147840023,0.675201416,-2.865453959,2024-06-05 15:55:10.474241
43.5147465,4.865850925,1.793003082,0.2329139709,2024-06-05 15:55:10.514747
43.55524717,0.1649276614,0.8837299347,1.64127183,2024-06-05 15:55:10.555247
43.59573025,-0.4097187221,1.953549862,0.3088685274,2024-06-05 15:55:10.595730
43.63620285,-1.67710197,1.417533875,1.871977329,2024-06-05 15:55:10.636203
43.67670353,-1.135354996,2.189608574,0.7119262218,2024-06-05 15:55:10.676704
43.71720374,-0.09999328852,2.41741848,0.07170367241,2024-06-05 15:55:10.717204
43.75769191,-0.5432641506,1.139611244,-1.411437988,2024-06-05 15:55:10.757692
43.79821978,-3.188256979,-0.641462326,2.352057934,2024-06-05 15:55:10.798220
43.83868702,-2.399334908,0.1386890411,-2.98960042,2024-06-05 15:55:10.838687
43.87913311,-2.039138317,-1.725995064,3.476855993,2024-06-05 15:55:10.879133
43.91961103,-0.09768214822,-6.610110283,1.895212173,2024-06-05 15:55:10.919611
43.96012858,4.498172283,-6.512020111,-6.261034489,2024-06-05 15:55:10.960129
44.00062348,2.887639046,0.3183894157,-2.738687992,2024-06-05 15:55:11.000623
44.04110217,3.429204702,2.116136551,-4.133958817,2024-06-05 15:55:11.041102
44.08165473,2.056975603,2.869505405,-4.947408199,2024-06-05 15:55:11.081655
44.12209514,2.808794498,2.921583652,-3.86268115,2024-06-05 15:55:11.122095
44.16257754,2.065104008,3.312666893,-5.052811623,2024-06-05 15:55:11.162578
44.20308967,-1.26023078,1.953591347,-1.997701883,2024-06-05 15:55:11.203090
44.24354691,-0.6272383928,-2.816216469,5.859264374,2024-06-05 15:55:11.243547
44.28405087,1.281676412,1.028705597,10.14140606,2024-06-05 15:55:11.284051
44.32458613,2.013492584,4.745995522,1.059491277,2024-06-05 15:55:11.324586
44.36507744,1.481078386,-5.437866211,-6.582520485,2024-06-05 15:55:11.365077
44.40552186,-4.690634727,-10.89364624,6.384209633,2024-06-05 15:55:11.405522
44.44601853,0.2138429731,-6.911055565,3.662035227,2024-06-05 15:55:11.446019
44.48648983,0.4943293929,4.829298496,-6.558596134,2024-06-05 15:55:11.486490
44.52703988,3.602008581,-1.710721016,-3.669776678,2024-06-05 15:55:11.527040
44.56746462,-1.327045918,-1.715729713,7.535408974,2024-06-05 15:55:11.567465
44.60792889,-1.756990314,2.937637329,0.8095850945,2024-06-05 15:55:11.607929
44.64845712,-3.191393852,2.542703629,2.828527689,2024-06-05 15:55:11.648457
44.68893009,-1.779747367,1.292609215,0.3423364162,2024-06-05 15:55:11.688930
44.72945389,-1.144313335,1.469863415,-1.166281223,2024-06-05 15:55:11.729454
44.76989223,-3.607027531,-3.502428055,1.54321146,2024-06-05 15:55:11.769892
44.81043962,1.80447638,-7.834716797,-3.1226964,2024-06-05 15:55:11.810440
44.85087785,6.294665337,-0.8320145607,-4.192970276,2024-06-05 15:55:11.850878
44.89137572,2.077625751,1.563127995,-2.14818573,2024-06-05 15:55:11.891376
44.93186014,1.100851774,1.791785717,-3.200405836,2024-06-05 15:55:11.931860
44.97238389,0.8221715689,2.26331377,-4.376392365,2024-06-05 15:55:11.972384
45.01281822,0.7528861761,1.456776619,-4.121055126,2024-06-05 15:55:12.012818
45.05338999,-1.046069741,0.511636734,-1.325219631,2024-06-05 15:55:12.053390
45.09381103,-0.656665802,0.006057739258,3.070954323,2024-06-05 15:55:12.093811
45.13431671,0.6317423582,1.203044891,9.503723145,2024-06-05 15:55:12.134317
45.17484905,4.040194511,6.875182629,4.180838585,2024-06-05 15:55:12.174849
45.21532311,-2.416686296,3.979597092,-4.09289217,2024-06-05 15:55:12.215323
45.25578061,-2.73270607,-18.89161873,11.76033974,2024-06-05 15:55:12.255781
45.29628405,3.132877588,-2.877912521,-6.975868225,2024-06-05 15:55:12.296284
45.3367679,1.313477397,2.965395927,-6.435724258,2024-06-05 15:55:12.336768
45.37726264,-0.3922342062,-2.776827812,5.249936104,2024-06-05 15:55:12.377263
45.41772259,0.1293006241,-2.176718712,5.070150375,2024-06-05 15:55:12.417723
45.45827249,1.371654391,5.001875877,0.1441075802,2024-06-05 15:55:12.458272
45.49870228,-1.83456409,2.190462112,2.600982189,2024-06-05 15:55:12.498702
45.53917915,-1.720525622,-2.112071991,1.057225227,2024-06-05 15:55:12.539179
45.57974223,-3.350394249,-6.770346642,-3.015659332,2024-06-05 15:55:12.579742
45.62018806,4.164139271,-4.809329033,-5.22497654,2024-06-05 15:55:12.620188
45.66068072,3.855281353,1.851086617,-3.073572159,2024-06-05 15:55:12.660681
45.70113655,1.880150318,2.55132103,-3.990172863,2024-06-05 15:55:12.701137
45.74164644,0.7562345862,2.78266573,-4.300852299,2024-06-05 15:55:12.741646
45.78212681,0.1186358333,1.579074383,-3.933910608,2024-06-05 15:55:12.782127
45.82262572,-2.110655069,-0.9477233887,-2.636548519,2024-06-05 15:55:12.822626
45.86311254,-0.2711259723,-2.237307549,4.493928909,2024-06-05 15:55:12.863113
45.9035991,0.957772851,0.3303661346,3.781062126,2024-06-05 15:55:12.903599
45.9440777,2.103687286,3.600728989,8.69335556,2024-06-05 15:55:12.944078
45.98460092,1.641317964,8.267916679,-3.303466082,2024-06-05 15:55:12.984601
46.02507494,-0.9773677588,1.709686756,-6.298063755,2024-06-05 15:55:13.025075
46.06559941,-0.6980174184,-18.24707794,12.44495678,2024-06-05 15:55:13.065599
46.10607316,1.029541612,0.4652471542,-0.4824244976,2024-06-05 15:55:13.106073
46.14656327,3.539563656,0.004051208496,-4.491569519,2024-06-05 15:55:13.146563
46.1870115,-0.1999395341,-4.020652771,6.287132263,2024-06-05 15:55:13.187011
46.22750384,-1.29214406,0.1853027344,1.586948633,2024-06-05 15:55:13.227504
46.26800707,-2.540113211,2.584156036,-0.1184432507,2024-06-05 15:55:13.268007
46.30851759,-2.765794754,0.6609477997,2.217320442,2024-06-05 15:55:13.308518
46.3489953,-3.237885237,-2.1478405,1.88546896,2024-06-05 15:55:13.348995
46.38944999,-1.517553687,-3.518237114,-4.213119507,2024-06-05 15:55:13.389450
46.42998082,5.565785885,-4.491287708,-6.279877186,2024-06-05 15:55:13.429981
46.47049077,4.591596603,1.139143944,-2.475743532,2024-06-05 15:55:13.470491
46.51093796,1.788842797,1.522028923,-3.782962322,2024-06-05 15:55:13.510938
46.5514228,2.096588135,2.799115658,-4.05393362,2024-06-05 15:55:13.551423
46.59191994,1.907989979,2.33125782,-3.103580952,2024-06-05 15:55:13.591920
46.63241296,0.3176112175,0.05240249634,-3.158104658,2024-06-05 15:55:13.632413
46.6728927,0.2018935382,-2.168636322,2.096833706,2024-06-05 15:55:13.672893
46.71338551,0.1242347062,-2.292484283,5.184485435,2024-06-05 15:55:13.713386
46.75386004,0.4138495326,2.352912903,7.890308857,2024-06-05 15:55:13.753860
46.79435546,1.042955399,6.027524948,1.400444269,2024-06-05 15:55:13.794355
46.83486863,-1.734077454,1.770879745,-3.506631374,2024-06-05 15:55:13.834869
46.87534259,-0.6130595207,-11.47071743,7.524291515,2024-06-05 15:55:13.875343
46.91583332,0.8415106535,-2.826627731,-2.045582294,2024-06-05 15:55:13.915833
46.95635035,1.090287566,-1.806498528,-2.173919201,2024-06-05 15:55:13.956350
46.99685629,-0.08661788702,-2.429362297,0.5907117128,2024-06-05 15:55:13.996856
47.03734061,2.416294813,0.4448270798,-0.567256093,2024-06-05 15:55:14.037341
47.07780087,-1.825487375,0.7191410065,0.8855037689,2024-06-05 15:55:14.077801
47.11829254,-4.493334293,-0.5080385208,0.686219573,2024-06-05 15:55:14.118293
47.15880561,-0.5948326588,0.9164400101,1.138296485,2024-06-05 15:55:14.158806
47.19929858,0.6589054465,1.4025774,0.1101490259,2024-06-05 15:55:14.199299
47.23975374,-0.5419707298,2.078160763,1.118941784,2024-06-05 15:55:14.239754
47.28026306,-0.7511735559,-0.3413333893,7.128048897,2024-06-05 15:55:14.280263
47.32070634,1.076020956,-2.663780212,0.1286435127,2024-06-05 15:55:14.320706
47.36118738,-0.6633300781,-6.991215706,-5.026055336,2024-06-05 15:55:14.361187
47.40170233,2.950435638,-2.895511627,-3.944220781,2024-06-05 15:55:14.401702
47.44215124,1.076002955,0.1194357872,-1.321438789,2024-06-05 15:55:14.442151
47.4826565,0.6140301824,2.529917717,-3.194815159,2024-06-05 15:55:14.482656
47.52316233,1.055140257,3.272350788,-3.529961348,2024-06-05 15:55:14.523162
47.56363952,2.08757472,2.519738197,-3.274918079,2024-06-05 15:55:14.563640
47.6041552,1.122551441,1.244215965,-2.636196613,2024-06-05 15:55:14.604155
47.64461561,0.7369207144,-2.142299652,1.762892485,2024-06-05 15:55:14.644616
47.68508509,0.05017626286,0.9349584579,4.403213501,2024-06-05 15:55:14.685085
47.72565207,-0.8129823208,0.9332771301,3.826827049,2024-06-05 15:55:14.725652
47.76608973,-0.01904481649,0.9126243591,6.193721771,2024-06-05 15:55:14.766090
47.80657572,0.553722322,3.680240154,3.965764284,2024-06-05 15:55:14.806576
47.8471041,-2.162254333,5.046293259,-3.247441292,2024-06-05 15:55:14.847104
47.8875641,-2.252518177,-5.706970215,-7.64085865,2024-06-05 15:55:14.887564
47.9280341,2.256971598,-6.330807686,5.428435802,2024-06-05 15:55:14.928034
47.96858176,1.818908334,-3.695145607,-3.941807747,2024-06-05 15:55:14.968582
48.00903217,1.82567811,-6.450977325,3.783110619,2024-06-05 15:55:15.009032
48.0494704,1.685059905,0.9438524246,-2.861828566,2024-06-05 15:55:15.049470
48.09000025,3.127855778,-0.512336731,-6.132444382,2024-06-05 15:55:15.090000
48.13052316,-2.311675549,0.3578672409,0.06388938427,2024-06-05 15:55:15.130523
48.17100014,-1.674729824,1.800442696,4.240890026,2024-06-05 15:55:15.171000
48.21150967,1.166595697,2.424651146,0.868185997,2024-06-05 15:55:15.211510
48.25194967,-2.188079596,0.9815979004,-2.432378292,2024-06-05 15:55:15.251950
48.29245759,-5.654349327,1.127604485,-4.151031017,2024-06-05 15:55:15.292458
48.33293056,-4.991485596,-3.318565369,3.07346487,2024-06-05 15:55:15.332931
48.37343712,3.237439632,-6.387757301,3.72121191,2024-06-05 15:55:15.373437
48.41391072,6.27564764,-1.810221672,-0.6845283508,2024-06-05 15:55:15.413911
48.45443447,1.771409988,-3.370504379,-1.666171789,2024-06-05 15:55:15.454434
48.49487702,1.794199228,-0.9817781448,-2.015379906,2024-06-05 15:55:15.494877
48.53539066,4.181979656,2.96072197,-1.508349419,2024-06-05 15:55:15.535391
48.57586822,3.711156845,1.571972847,-1.723078966,2024-06-05 15:55:15.575868
48.61635717,3.23838377,1.678637505,-2.963829041,2024-06-05 15:55:15.616357
48.65686134,1.159989595,0.6825885773,-1.920924425,2024-06-05 15:55:15.656861
48.69733723,-1.322173834,-1.071996689,0.1159038544,2024-06-05 15:55:15.697337
48.73782806,-0.06041869521,-1.734259605,1.788183928,2024-06-05 15:55:15.737828
48.7783728,-0.03180391341,-2.56187439,1.875710249,2024-06-05 15:55:15.778373
48.81885061,0.2280463576,-1.722837448,2.160395861,2024-06-05 15:55:15.818851
48.85935587,0.7731486559,0.5317249298,2.076339245,2024-06-05 15:55:15.859356
48.89982832,0.2040322125,1.295622826,1.901827574,2024-06-05 15:55:15.899828
48.94026155,-0.201869756,1.242155075,-0.1748416424,2024-06-05 15:55:15.940262
48.9807765,-0.191283524,1.269631386,-1.156874895,2024-06-05 15:55:15.980776
49.02124103,-1.143520594,-0.3439435959,0.02862167358,2024-06-05 15:55:16.021241
49.06175504,-0.434997797,-0.1328191757,1.483965158,2024-06-05 15:55:16.061755
49.10223228,-1.274285078,-0.09001255035,0.3498449326,2024-06-05 15:55:16.102232
49.1427129,-1.11755681,0.3933963776,2.326724768,2024-06-05 15:55:16.142713
49.18322457,-0.738422513,0.9539489746,-2.484825611,2024-06-05 15:55:16.183225
49.22370358,-1.05894804,-0.09515380859,-1.737641096,2024-06-05 15:55:16.223704
49.26419223,-0.7482246757,-1.468883514,-0.5238557458,2024-06-05 15:55:16.264192
49.30466457,1.394994497,-1.843008041,2.112893343,2024-06-05 15:55:16.304665
49.34515671,2.304513931,-0.5265817642,4.581066608,2024-06-05 15:55:16.345157
49.38565197,-0.2926954627,0.6915044785,-1.30417645,2024-06-05 15:55:16.385652
49.42615014,-0.5771813393,0.8555297852,0.8461658359,2024-06-05 15:55:16.426150
49.46666525,-0.4796023369,0.5749912262,0.1880269051,2024-06-05 15:55:16.466665
49.50712832,-0.7261753082,0.09665584564,-1.512699127,2024-06-05 15:55:16.507128
49.5476329,-0.4018776119,-0.2491416931,0.2071409523,2024-06-05 15:55:16.547633
49.58813275,0.7459765077,0.5017576218,0.7983468771,2024-06-05 15:55:16.588133
49.62863473,0.2882591486,0.0447473526,-0.7172382474,2024-06-05 15:55:16.628635
49.66907848,-1.198359728,-0.3209180832,0.1581192017,2024-06-05 15:55:16.669078
49.70956525,-1.559542775,0.08492946625,1.229233742,2024-06-05 15:55:16.709565
49.75008322,-1.278202415,-0.0818567276,-0.5755124092,2024-06-05 15:55:16.750083
49.79056155,-1.013132572,0.1616287231,-0.04430502653,2024-06-05 15:55:16.790562
49.83100712,-1.122343063,-0.07121372223,0.719776094,2024-06-05 15:55:16.831007
49.87151712,-0.887467742,-0.1111440659,0.2448509336,2024-06-05 15:55:16.871517
49.91200733,-0.1225307733,-0.03935909271,0.3270127475,2024-06-05 15:55:16.912007
49.95251592,0.183968544,0.2098989487,0.460826844,2024-06-05 15:55:16.952516
49.99299947,0.2633335888,0.09845161438,0.1020721197,2024-06-05 15:55:16.992999
50.03348561,-0.9257303476,0.1377496719,-0.04154456407,2024-06-05 15:55:17.033486
50.07398587,-1.29643631,0.07102108002,0.111448884,2024-06-05 15:55:17.073986
50.11447577,-0.5955209136,-0.2402086258,0.08859001845,2024-06-05 15:55:17.114476
50.15494441,-0.01496824622,0.2461233139,0.5673044324,2024-06-05 15:55:17.154944
50.19544754,-0.01455372572,0.3279886246,-0.4618136287,2024-06-05 15:55:17.195448
50.23593744,-0.945673883,0.1627635956,0.08516488224,2024-06-05 15:55:17.235937
50.2764379,-0.2937235534,0.2808609009,-0.4402551651,2024-06-05 15:55:17.276438
50.31692264,0.8009511828,0.4598045349,0.09214746952,2024-06-05 15:55:17.316923
50.35739582,0.2960900664,-0.04560470581,0.6748434901,2024-06-05 15:55:17.357396
50.39786322,-0.6149600148,0.04768276215,0.5175398588,2024-06-05 15:55:17.397863
50.43834337,-1.082352638,0.09677696228,0.2787256837,2024-06-05 15:55:17.438343
50.4788677,-1.644469976,0.07148075104,-0.01923066378,2024-06-05 15:55:17.478868
50.51937296,-1.563315988,0.08631801605,0.3342583179,2024-06-05 15:55:17.519373
50.55986816,-1.269951105,0.06318283081,0.8513115644,2024-06-05 15:55:17.559868
50.60036832,-1.303068161,-0.4781532288,1.339314938,2024-06-05 15:55:17.600368
50.64082035,-2.255736589,-2.444770813,0.7753834724,2024-06-05 15:55:17.640820
50.68133009,-1.900111675,-2.650494576,1.435849071,2024-06-05 15:55:17.681330
50.72178467,0.5282593966,-1.557213783,3.975865126,2024-06-05 15:55:17.721785
50.76227728,1.120588779,-0.3053646088,4.511385441,2024-06-05 15:55:17.762277
50.80275592,-1.29749012,0.5616493225,-0.2305634767,2024-06-05 15:55:17.802756
50.84329264,-0.7523142695,-1.200613022,0.2791596651,2024-06-05 15:55:17.843293
50.88376311,0.6381422281,-2.467775345,-5.35845089,2024-06-05 15:55:17.883763
50.92423072,0.5135621428,-2.251726151,-2.844503403,2024-06-05 15:55:17.924231
50.96473842,0.2822182178,-0.4463682175,-2.619828701,2024-06-05 15:55:17.964738
51.00523098,0.8090171814,0.4379177094,-2.653061867,2024-06-05 15:55:18.005231
51.04570014,1.234724522,1.653263092,-2.798101902,2024-06-05 15:55:18.045700
51.08617462,2.702363491,2.837786198,-1.80243516,2024-06-05 15:55:18.086175
51.1267465,2.698209524,2.217483044,-0.7513723373,2024-06-05 15:55:18.126747
51.16715191,1.511322021,1.456187248,0.1457970142,2024-06-05 15:55:18.167152
51.20764139,0.4249731302,2.040852547,0.3859789371,2024-06-05 15:55:18.207641
51.24813613,-0.4732090831,1.016311646,0.8137905598,2024-06-05 15:55:18.248136
51.28866296,-1.668487072,-1.252044678,3.320206881,2024-06-05 15:55:18.288663
51.3291616,-1.080189347,-1.263381004,2.735762835,2024-06-05 15:55:18.329162
51.3696704,1.296293259,1.24965477,-0.1626214981,2024-06-05 15:55:18.369670
51.41006983,1.345222712,2.515436172,-0.9716967344,2024-06-05 15:55:18.410070
51.45061723,0.3077282906,-5.828975677,-0.4646501541,2024-06-05 15:55:18.450617
51.49107238,0.9602868557,-4.542401314,0.1610131264,2024-06-05 15:55:18.491072
51.53162796,2.558018208,4.682731152,1.590052366,2024-06-05 15:55:18.531628
51.57204014,2.071321964,3.700780869,-4.795593739,2024-06-05 15:55:18.572040
51.61256816,3.244867325,-1.524318695,-3.239877224,2024-06-05 15:55:18.612568
51.65301587,2.075182199,-0.860452652,2.271174192,2024-06-05 15:55:18.653016
51.69351754,2.151194811,0.2714748383,-0.4918602109,2024-06-05 15:55:18.693518
51.73407816,1.688145638,0.02610588074,-1.944694877,2024-06-05 15:55:18.734078
51.77454941,0.7235708237,0.6078596115,-2.364398479,2024-06-05 15:55:18.774549
51.81504566,1.277873755,0.2134428024,-2.266400099,2024-06-05 15:55:18.815046
51.85551025,0.6754466891,0.01397895813,-2.256577253,2024-06-05 15:55:18.855510
51.89603103,-0.7353804111,-0.2747936249,-1.651142478,2024-06-05 15:55:18.896031
51.93650994,-2.745126247,0.003339767456,-0.3894013166,2024-06-05 15:55:18.936510
51.97692764,-3.468872309,-0.4196681976,2.52596283,2024-06-05 15:55:18.976928
52.01746494,-2.165418625,-0.8842201233,3.895135164,2024-06-05 15:55:19.017465
52.05791957,-0.6269396544,-1.059921265,3.348212719,2024-06-05 15:55:19.057920
52.09844827,-0.5767590404,-0.6509475708,3.64450264,2024-06-05 15:55:19.098448
52.13896858,-0.260014236,-1.543806076,4.532199383,2024-06-05 15:55:19.138969
52.17935118,-1.764546871,-4.036793709,4.221919537,2024-06-05 15:55:19.179351
52.21994056,2.81074357,-1.892659187,6.777112961,2024-06-05 15:55:19.219941
52.26039009,7.324575901,-4.35551548,-2.649355888,2024-06-05 15:55:19.260390
52.30084379,8.954004288,-4.649603844,-5.98735714,2024-06-05 15:55:19.300844
52.34134509,3.043729067,-0.8632478714,-1.773187637,2024-06-05 15:55:19.341345
52.38183494,-3.470166683,-1.608161926,-6.210124016,2024-06-05 15:55:19.381835
52.42232754,-1.21254611,2.783150673,-3.654479504,2024-06-05 15:55:19.422328
52.46280421,0.4868460596,4.304993629,-5.676457882,2024-06-05 15:55:19.462804
52.50330577,0.8590574265,5.757176399,-5.562745094,2024-06-05 15:55:19.503306
52.54383014,1.66717875,4.73062849,-1.510507345,2024-06-05 15:55:19.543830
52.58429811,0.1038603187,-0.3651971817,3.099756241,2024-06-05 15:55:19.584298
52.62481629,-2.721752167,-5.472532272,10.46670914,2024-06-05 15:55:19.624816
52.66524905,-1.211408496,-2.249346733,4.273173332,2024-06-05 15:55:19.665249
52.70574587,5.999909878,1.69165802,-0.9133398533,2024-06-05 15:55:19.705746
52.74629119,6.161032677,-5.464242935,-4.256120682,2024-06-05 15:55:19.746291
52.78676473,1.272058249,2.53851223,0.7351350784,2024-06-05 15:55:19.786765
52.82723978,2.450763226,5.26634264,-5.005775928,2024-06-05 15:55:19.827240
52.86773077,1.34926796,-0.8422994614,-3.614928246,2024-06-05 15:55:19.867731
52.90822441,-3.123989105,-4.772386551,-7.695559025,2024-06-05 15:55:19.908224
52.9487241,-3.421776772,0.08256816864,3.544082165,2024-06-05 15:55:19.948724
52.98921207,-2.718731642,-0.9717216492,4.125194073,2024-06-05 15:55:19.989212
53.02971499,0.6555689573,-0.1541881561,1.191131711,2024-06-05 15:55:20.029715
53.07015952,2.074167728,2.259006023,1.076758385,2024-06-05 15:55:20.070160
53.11063337,1.5441432,0.5855054855,-1.624613523,2024-06-05 15:55:20.110633
53.15113905,-1.806408167,-1.336093903,4.366253853,2024-06-05 15:55:20.151139
53.19163894,-3.736505032,-1.069805145,6.294805527,2024-06-05 15:55:20.191639
53.23211811,-4.369761944,-1.471554756,0.7190099955,2024-06-05 15:55:20.232118
53.27259895,-2.34526968,-3.561891556,3.210953951,2024-06-05 15:55:20.272599
53.3130929,-1.438164949,-3.509705544,6.614953041,2024-06-05 15:55:20.313093
53.35357322,-0.2114223838,-1.883962631,3.399018526,2024-06-05 15:55:20.353573
53.39404827,4.403161049,-4.031628609,-2.64125061,2024-06-05 15:55:20.394048
53.43453228,5.564873219,-4.110776901,-1.800058842,2024-06-05 15:55:20.434532
53.47502014,2.322987795,-0.4810657501,-3.500801325,2024-06-05 15:55:20.475020
53.51552462,-2.889158964,-0.5039520264,-5.715461731,2024-06-05 15:55:20.515525
53.55601957,-2.182644367,1.997727394,-3.839520454,2024-06-05 15:55:20.556020
53.59650941,3.098058701,5.646922588,-5.884083748,2024-06-05 15:55:20.596509
53.63703228,4.987429142,6.028969765,-6.491599083,2024-06-05 15:55:20.637032
53.6774566,2.898861885,3.931001663,-1.585909128,2024-06-05 15:55:20.677457
53.71794921,0.1084779501,-2.400152206,5.957884789,2024-06-05 15:55:20.717949
53.75848217,-4.774130344,-9.492308617,10.00959587,2024-06-05 15:55:20.758482
53.798959,2.034487247,3.021585464,0.6545445919,2024-06-05 15:55:20.798959
53.83948014,7.46751976,-2.568171501,-5.901697636,2024-06-05 15:55:20.839480
53.87996223,0.7606012225,-4.59383297,2.968716145,2024-06-05 15:55:20.879962
53.92045551,3.413904905,5.75232029,-10.06698895,2024-06-05 15:55:20.920456
53.96087858,3.445752621,2.907896042,-3.257890224,2024-06-05 15:55:20.960879
54.00139697,-0.05199587345,-6.393452644,-7.826039791,2024-06-05 15:55:21.001397
54.04187348,-5.970842838,-0.9822864532,6.443845272,2024-06-05 15:55:21.041873
54.0823904,-1.075622082,0.472495079,-1.959381342,2024-06-05 15:55:21.082390
54.12286264,2.116126537,1.197925568,2.653015137,2024-06-05 15:55:21.122863
54.16337139,1.378281116,1.538581848,1.934003115,2024-06-05 15:55:21.163371
54.20384353,-1.171671271,0.7724246979,-1.068292618,2024-06-05 15:55:21.203844
54.24432389,-1.594066024,-0.794631958,4.090135574,2024-06-05 15:55:21.244324
54.28487452,-4.181228638,-1.592214584,5.525308132,2024-06-05 15:55:21.284875
54.32529098,-5.775634766,-1.589032173,-0.05389499664,2024-06-05 15:55:21.325291
54.36577676,-1.447261691,-3.199048042,5.39904356,2024-06-05 15:55:21.365777
54.40627509,-1.867222548,-3.29180336,6.711727142,2024-06-05 15:55:21.406275
54.44676306,-1.111603975,-2.537247658,0.8560265899,2024-06-05 15:55:21.446763
54.48727165,4.384362221,-5.909316063,-3.345104218,2024-06-05 15:55:21.487272
54.52775249,7.135849953,-4.11666584,-5.493260384,2024-06-05 15:55:21.527752
54.56829879,0.462193042,-0.1313810349,-1.16296196,2024-06-05 15:55:21.568299
54.60878733,-3.656047821,0.3160238266,-4.656340599,2024-06-05 15:55:21.608787
54.64923728,-0.2101986706,2.508203506,-6.436095715,2024-06-05 15:55:21.649237
54.68967342,4.117842197,5.438301086,-6.182034492,2024-06-05 15:55:21.689673
54.73014061,4.063945293,5.724660873,-5.850639343,2024-06-05 15:55:21.730141
54.77073895,2.624737501,3.34195137,-1.775470734,2024-06-05 15:55:21.770739
54.81115436,-0.3302739263,-4.761787415,6.721563339,2024-06-05 15:55:21.811154
54.85168275,-2.138669014,-6.963364601,9.817667007,2024-06-05 15:55:21.851683
54.89215051,3.042826176,3.236955166,-0.1985189915,2024-06-05 15:55:21.892151
54.9326577,5.601354122,-5.241781235,-4.285878658,2024-06-05 15:55:21.932658
54.97317108,-0.4864406288,-1.68699646,-0.06567049026,2024-06-05 15:55:21.973171
55.01360374,2.461128473,5.042429447,-10.61004066,2024-06-05 15:55:22.013604
55.05412842,1.99031961,-0.134355545,-2.669130087,2024-06-05 15:55:22.054128
55.0946154,-5.896008492,-4.429309845,1.059324861,2024-06-05 15:55:22.094615
55.13509613,-2.881598949,0.468870163,-1.989165545,2024-06-05 15:55:22.135096
55.17560598,2.371747971,0.9566688538,-0.2528967261,2024-06-05 15:55:22.175606
55.21611082,2.667589664,0.6873416901,5.708173275,2024-06-05 15:55:22.216111
55.25654452,0.6597208977,0.9566488266,0.1456243098,2024-06-05 15:55:22.256545
55.29705103,-1.859260917,0.4559726715,-2.890726566,2024-06-05 15:55:22.297051
55.33753504,-1.162179589,-0.5191707611,0.7835871577,2024-06-05 15:55:22.337535
55.37803384,-0.9975064993,-0.5313520432,6.784344673,2024-06-05 15:55:22.378034
55.41856223,-2.853318214,-1.287519455,0.2544871569,2024-06-05 15:55:22.418562
55.45902967,-2.272276402,-4.126826286,2.519722223,2024-06-05 15:55:22.459030
55.49947447,1.612967253,-2.853041649,7.327441692,2024-06-05 15:55:22.499474
55.53996915,3.533791542,-1.045586586,2.128056765,2024-06-05 15:55:22.539969
55.58040806,6.254005909,-3.257252693,-4.487426758,2024-06-05 15:55:22.580408
55.62096957,2.78597331,-1.680541992,-6.427536964,2024-06-05 15:55:22.620970
55.66145842,-1.770642638,-0.9680252075,-1.575025558,2024-06-05 15:55:22.661458
55.70196717,-0.2633962035,0.3530273438,-3.476598501,2024-06-05 15:55:22.701967
55.74244379,-0.1847099662,1.869837761,-3.924880505,2024-06-05 15:55:22.742444
55.78292967,1.272188783,2.782905102,-3.06208992,2024-06-05 15:55:22.782930
55.82342426,2.264759541,2.683598042,-1.870634556,2024-06-05 15:55:22.823424
55.86393842,1.115892768,0.7308158875,0.4043035507,2024-06-05 15:55:22.863938
55.90443254,1.378184557,-1.001466751,3.024221897,2024-06-05 15:55:22.904433
55.94488275,0.806812048,0.6905326843,1.312205553,2024-06-05 15:55:22.944883
55.98534967,-0.1058753729,1.066997528,1.18416667,2024-06-05 15:55:22.985350
56.02586108,0.5916671753,-0.5747833252,-0.7793941498,2024-06-05 15:55:23.025861
56.06636785,5.519111633,1.371052265,-6.255329132,2024-06-05 15:55:23.066368
56.10682707,4.21539259,-0.8026094437,-1.113084555,2024-06-05 15:55:23.106827
56.1473441,-2.041793585,-2.957310677,-1.567076683,2024-06-05 15:55:23.147344
56.18785025,-0.5343352556,-0.8003358841,-1.391443014,2024-06-05 15:55:23.187850
56.22831436,-0.06452488899,-0.005519866943,-1.789885044,2024-06-05 15:55:23.228314
56.26878014,-0.8744318485,-0.9312543869,-0.5534085035,2024-06-05 15:55:23.268780
56.30929764,-1.444946647,-0.3172063828,-0.949454546,2024-06-05 15:55:23.309298
56.34981915,-1.218083501,0.01381206512,-1.329225183,2024-06-05 15:55:23.349819
56.39028462,-1.503951669,-0.9477996826,0.2109965086,2024-06-05 15:55:23.390285
56.43077947,0.246968627,0.1598777771,-0.1935155392,2024-06-05 15:55:23.430779
56.47122629,1.696497917,1.183278084,0.1504914761,2024-06-05 15:55:23.471226
56.51171483,-1.383347988,-0.2000808716,0.5826007128,2024-06-05 15:55:23.511715
56.55221244,-1.634270549,-0.2132129669,1.974355817,2024-06-05 15:55:23.552212
56.59271014,-0.374330014,-0.6799850464,0.5924241543,2024-06-05 15:55:23.592710
56.63319744,-0.7064448595,0.006547927856,-0.1028907299,2024-06-05 15:55:23.633197
56.67364863,-0.05468046665,0.4573001862,-0.8961789608,2024-06-05 15:55:23.673649
56.71415921,-0.7435205579,0.1702785492,0.7291246057,2024-06-05 15:55:23.714159
56.75465624,0.01518905163,-0.2820577621,2.350340605,2024-06-05 15:55:23.754656
56.79515197,0.5183587074,0.1761903763,0.8707478642,2024-06-05 15:55:23.795152
56.83565608,0.07506549358,0.07646179199,-0.00257986784,2024-06-05 15:55:23.835656
56.87612478,-0.7662434578,-0.1440668106,0.200632751,2024-06-05 15:55:23.876125
56.91661035,-0.9936306477,-0.1187438965,-0.1345967054,2024-06-05 15:55:23.916610
56.95710316,-0.6205772161,0.02143001556,0.1517751217,2024-06-05 15:55:23.957103
56.9975991,-0.4964034259,-0.330329895,1.654899716,2024-06-05 15:55:23.997599
57.03809014,-0.2373188436,0.238286972,-1.219486952,2024-06-05 15:55:24.038090
57.07860738,0.1475542784,0.1358251572,-0.7396736145,2024-06-05 15:55:24.078607
57.11903436,-0.306217134,-0.1677007675,0.6747970581,2024-06-05 15:55:24.119034
57.15953421,0.6758615971,-0.1017637253,0.2893809378,2024-06-05 15:55:24.159534
57.20006473,-0.1982790828,0.4558982849,-0.252884537,2024-06-05 15:55:24.200065
57.24057223,-1.932091475,-0.2673444748,0.5352352262,2024-06-05 15:55:24.240572
57.28099228,-1.122365475,-0.09752464294,1.021013737,2024-06-05 15:55:24.280992
57.32151535,-0.5984485149,0.4192352295,0.3969155848,2024-06-05 15:55:24.321515
57.36198744,-1.337632537,0.1312379837,0.6607445478,2024-06-05 15:55:24.361987
57.40246973,0.0489923358,0.3930892944,1.020144582,2024-06-05 15:55:24.402470
57.44294202,-0.06912237406,0.626791954,0.01199188828,2024-06-05 15:55:24.442942
57.48342733,-0.31355232,0.2889976501,0.1921740472,2024-06-05 15:55:24.483427
57.52395895,-0.2249842882,0.1821146011,1.202450871,2024-06-05 15:55:24.523959
57.56443129,-0.8757904768,0.1884374619,0.197825253,2024-06-05 15:55:24.564431
57.60492275,-0.9746051431,-0.2394666672,-0.1488502026,2024-06-05 15:55:24.604923
57.64539697,-1.342821717,-0.145149231,-0.03550934792,2024-06-05 15:55:24.645397
57.68587457,-1.302665472,-0.2706375122,0.5774595737,2024-06-05 15:55:24.685875
57.72639827,-0.8429210186,-0.5123434067,1.084700584,2024-06-05 15:55:24.726398
57.7668904,-0.6100792289,-1.854340553,1.88308239,2024-06-05 15:55:24.766890
57.80737634,-1.31098938,-3.085011482,2.199799538,2024-06-05 15:55:24.807376
57.84784728,-0.544765234,-2.296460152,3.593632698,2024-06-05 15:55:24.847847
57.88840764,0.6524201632,-0.9766044617,5.647111893,2024-06-05 15:55:24.888408
57.92888723,0.1233376861,0.6047401428,1.376461148,2024-06-05 15:55:24.928887
57.96933707,0.4057919383,-0.002267837524,1.312610865,2024-06-05 15:55:24.969337
58.00979983,3.385090351,-2.839151382,-2.568241596,2024-06-05 15:55:25.009800
58.050319,2.979504585,-2.903313637,-4.6266222,2024-06-05 15:55:25.050319
58.09082988,1.161909699,-0.7843828201,-0.9984676838,2024-06-05 15:55:25.090830
58.13126363,1.282219529,0.4679193497,-1.777687311,2024-06-05 15:55:25.131264
58.17175827,1.79650116,1.608431339,-3.457389832,2024-06-05 15:55:25.171758
58.21223051,2.56358552,3.665605068,-2.888162136,2024-06-05 15:55:25.212231
58.25275514,0.709908247,4.199193478,-2.648789883,2024-06-05 15:55:25.252755
58.29322212,-1.366676331,2.400057316,-1.034425735,2024-06-05 15:55:25.293222
58.33371561,-0.4368626773,1.3533144,1.37319994,2024-06-05 15:55:25.333716
58.37419389,-0.858784318,-0.3721485138,2.735409498,2024-06-05 15:55:25.374194
58.41469264,-1.307159662,-2.996975899,4.077088833,2024-06-05 15:55:25.414693
58.45523207,1.906852484,2.049798012,2.182173491,2024-06-05 15:55:25.455232
58.49568566,6.421673298,-2.623363495,-0.9976993799,2024-06-05 15:55:25.495686
58.53616223,2.832014799,-6.156506538,2.722901344,2024-06-05 15:55:25.536162
58.57665264,1.482826829,4.191383362,-3.74925375,2024-06-05 15:55:25.576653
58.61716894,1.655383825,5.063914299,-3.817000389,2024-06-05 15:55:25.617169
58.65767874,1.045033574,-1.868759155,-4.344997883,2024-06-05 15:55:25.657679
58.69809478,-4.283409119,-4.077822685,-1.999595761,2024-06-05 15:55:25.698095
58.73864384,-1.564599752,0.4015026093,4.093673706,2024-06-05 15:55:25.738644
58.77910629,1.658374786,-0.1071901321,-0.534820199,2024-06-05 15:55:25.779106
58.81959514,0.6844083667,0.8954372406,-1.208008766,2024-06-05 15:55:25.819595
58.86006582,0.4066504836,1.536948204,-1.132954121,2024-06-05 15:55:25.860066
58.90060884,-0.137665391,0.6592445374,-0.2200633287,2024-06-05 15:55:25.900609
58.94110978,-0.9351445436,-0.5268201828,1.157988667,2024-06-05 15:55:25.941110
58.98156889,-1.897058249,-0.9141225815,4.225605011,2024-06-05 15:55:25.981569
59.02203061,-4.63088131,-1.814667702,4.098305225,2024-06-05 15:55:26.022031
59.062519,-2.450059414,-1.971663475,3.133213043,2024-06-05 15:55:26.062519
59.10302139,-0.7997338772,-2.729665756,5.572155952,2024-06-05 15:55:26.103021
59.14352962,-1.791459203,-3.259483337,4.804161549,2024-06-05 15:55:26.143530
59.18393415,-0.7492539883,-1.360639572,2.829372644,2024-06-05 15:55:26.183934
59.22448191,3.398662567,-5.217118263,-0.8927515149,2024-06-05 15:55:26.224482
59.26501004,8.317661285,-4.373553276,-6.008275032,2024-06-05 15:55:26.265010
59.30551035,1.545241952,0.08276176453,-2.646317959,2024-06-05 15:55:26.305510
59.34594952,-2.52764225,0.2146673203,-3.252268553,2024-06-05 15:55:26.345950
59.38644785,-0.4523002505,1.990194321,-5.524927616,2024-06-05 15:55:26.386448
59.42693744,1.134915829,3.823701859,-5.043353081,2024-06-05 15:55:26.426937
59.46745217,3.534781456,5.764122963,-5.655163288,2024-06-05 15:55:26.467452
59.50792764,2.455877066,4.013480663,-3.44312644,2024-06-05 15:55:26.507928
59.54844952,1.060212135,-0.004249572754,1.231012344,2024-06-05 15:55:26.548450
59.58889478,-2.956784487,-5.872506142,10.06237698,2024-06-05 15:55:26.588895
59.62932546,-1.106579065,-3.762956619,5.793246269,2024-06-05 15:55:26.629325
59.66983009,4.788260937,2.188365936,0.7651646137,2024-06-05 15:55:26.669830
59.71034879,4.708963394,-4.941431046,-4.19686842,2024-06-05 15:55:26.710349
59.75082353,2.346553802,0.3098783493,-4.885194778,2024-06-05 15:55:26.750824
59.79133238,2.224643707,4.629655838,-4.440256119,2024-06-05 15:55:26.791332
59.83183874,1.488320947,0.04778957367,-2.472486019,2024-06-05 15:55:26.831839
59.8723252,-2.018025398,-3.922269821,-3.269710541,2024-06-05 15:55:26.872325
59.9128127,-3.671410084,0.05499076843,1.167402387,2024-06-05 15:55:26.912813
59.95327894,-0.704726398,-0.01688098907,1.899859548,2024-06-05 15:55:26.953279
59.99377655,0.9476675987,0.1060523987,3.35043478,2024-06-05 15:55:26.993777
60.03427165,1.438036919,1.689357758,0.07678633928,2024-06-05 15:55:27.034272
60.07476368,-0.9458936453,0.7197122574,-1.911360502,2024-06-05 15:55:27.074764
60.11527046,-1.749917865,-0.4676942825,1.503646255,2024-06-05 15:55:27.115270
60.15572217,-1.722137213,-0.4469070435,5.687654018,2024-06-05 15:55:27.155722
60.19620889,-2.606429577,-1.248338699,0.9593108892,2024-06-05 15:55:27.196209
60.23669379,-1.729243755,-2.684545517,1.445082545,2024-06-05 15:55:27.236694
60.27719551,-0.320245862,-3.149796486,3.200520992,2024-06-05 15:55:27.277196
60.31768223,0.4629651308,-2.555102348,6.980316162,2024-06-05 15:55:27.317682
60.35819837,4.38953495,-1.796016693,3.503938198,2024-06-05 15:55:27.358198
60.39871962,6.777158737,-3.146251678,-6.777275562,2024-06-05 15:55:27.398720
60.4391603,4.195394993,-1.924641609,-6.326477051,2024-06-05 15:55:27.439160
60.4796216,-2.15941906,-1.450022697,-1.717324018,2024-06-05 15:55:27.479622
60.52011129,-1.660393,1.026108742,-4.794332981,2024-06-05 15:55:27.520111
60.56062181,-1.221340656,2.967092991,-4.806807995,2024-06-05 15:55:27.560622
60.60110827,1.008236289,4.034780979,-4.497974873,2024-06-05 15:55:27.601108
60.64159676,1.680280924,3.529589176,-2.894836426,2024-06-05 15:55:27.641597
60.68205608,0.05100214481,0.04247379303,0.5868275166,2024-06-05 15:55:27.682056
60.72255915,-1.149095178,-2.363195419,4.687137604,2024-06-05 15:55:27.722559
60.76306645,-0.7979559302,-0.07649898529,3.32458353,2024-06-05 15:55:27.763066
60.80355374,1.84588623,1.012361526,1.478832483,2024-06-05 15:55:27.803554
60.84406785,0.4616827965,-2.182757378,-0.7289946079,2024-06-05 15:55:27.844068
60.88453546,2.140356302,-5.111145973,-2.434993267,2024-06-05 15:55:27.884535
60.92495509,2.207767487,2.916874409,-5.162639141,2024-06-05 15:55:27.924955
60.96547941,-0.7336206436,1.081156731,-4.541642189,2024-06-05 15:55:27.965479
61.00601467,0.8501104116,-0.4424257278,1.708914638,2024-06-05 15:55:28.006015
61.04648931,-0.1209182739,-1.056407928,5.95001173,2024-06-05 15:55:28.046489
61.08697582,-0.1703132689,0.08829116821,-2.537080288,2024-06-05 15:55:28.086976
61.12746473,1.001058459,0.3214893341,-1.336851835,2024-06-05 15:55:28.127465
61.16795384,0.6770797372,-0.4297399521,0.5456295013,2024-06-05 15:55:28.167954
61.20846926,1.012041807,0.0648317337,-0.4247950315,2024-06-05 15:55:28.208469
61.24897796,0.9292439222,0.3382778168,-0.4994050264,2024-06-05 15:55:28.248978
61.2894328,0.3901507854,0.05952739716,-0.1420192122,2024-06-05 15:55:28.289433
61.32990249,0.2849730849,-0.02424526215,-0.1142840385,2024-06-05 15:55:28.329902
61.37039191,0.4364517629,0.1621570587,-0.3995531797,2024-06-05 15:55:28.370392
61.41086259,0.7778913975,0.2862997055,-0.2076690197,2024-06-05 15:55:28.410863
61.45141217,0.6025183201,-0.001668930054,-0.2389829159,2024-06-05 15:55:28.451412
61.49185816,-0.1479936838,-0.3079986572,-0.9104868174,2024-06-05 15:55:28.491858
61.53235056,-0.2292660028,-0.4471817017,-0.108864069,2024-06-05 15:55:28.532351
61.57284759,0.1074502617,-0.4257354736,0.04747307301,2024-06-05 15:55:28.572848
61.61333822,0.6130565405,0.1410732269,-0.3059546947,2024-06-05 15:55:28.613338
61.65388296,0.7905493379,0.3392457962,-0.7828474045,2024-06-05 15:55:28.653883
61.69435801,0.7902108431,0.3830680847,-1.289571047,2024-06-05 15:55:28.694358
61.73482754,0.1141409874,0.5410614014,-1.478806973,2024-06-05 15:55:28.734828
61.77529671,-0.5416600704,0.3059864044,-0.8351079226,2024-06-05 15:55:28.775297
61.81583967,-0.421769321,0.359837532,0.1652274132,2024-06-05 15:55:28.815840
61.85629926,-0.003587841988,0.02867603302,-0.4555835724,2024-06-05 15:55:28.856299
61.89675473,0.387986958,0.314084053,-0.8850773573,2024-06-05 15:55:28.896755
61.93724405,-0.4701387882,0.8026256561,-0.7127432823,2024-06-05 15:55:28.937244
61.97769931,-0.7725679874,-0.1335840225,-0.1682975292,2024-06-05 15:55:28.977699
62.01826655,-0.5894907117,-0.2733774185,2.106393814,2024-06-05 15:55:29.018267
62.05872577,-0.3116414547,0.04762935638,2.894757032,2024-06-05 15:55:29.058726
62.09924139,-1.338025928,-0.3885364532,0.71251297,2024-06-05 15:55:29.099241
62.13973066,-3.486383915,-2.424521446,-0.851701498,2024-06-05 15:55:29.139731
62.18021999,-2.031261683,-1.908102989,0.6922079325,2024-06-05 15:55:29.180220
62.22071811,2.927138329,-1.396739006,8.219369888,2024-06-05 15:55:29.220718
62.2611928,1.724656105,-1.1945858,4.41745615,2024-06-05 15:55:29.261193
62.30162728,-1.916422606,-0.7442789078,-0.5990793705,2024-06-05 15:55:29.301627
62.34211202,-0.5243451595,-1.176146507,1.216925859,2024-06-05 15:55:29.342112
62.38263264,0.8495067358,-1.533678055,-1.423924923,2024-06-05 15:55:29.382633
62.42317249,-0.07539236546,-1.003715515,-0.2776317596,2024-06-05 15:55:29.423172
62.46365379,0.9414718747,-2.249808311,-0.8729947209,2024-06-05 15:55:29.463654
62.5040903,-0.2967514694,-0.6441078186,-3.042345047,2024-06-05 15:55:29.504090
62.54458035,-1.790746927,0.7419462204,-3.530190945,2024-06-05 15:55:29.544580
62.58507629,-0.03764218092,1.7389431,-2.459733963,2024-06-05 15:55:29.585076
62.62557301,0.7600020766,3.567393303,-3.43530798,2024-06-05 15:55:29.625573
62.66607275,0.2660955191,4.129554749,-2.261857986,2024-06-05 15:55:29.666073
62.70655962,-0.1746072769,1.219815254,2.7171731,2024-06-05 15:55:29.706560
62.74705832,-0.5893996954,-2.669480324,5.795920372,2024-06-05 15:55:29.747058
62.78750598,0.3108357191,-0.02147674561,3.14375782,2024-06-05 15:55:29.787506
62.8279878,1.655034423,-5.642739296,-2.326735258,2024-06-05 15:55:29.827988
62.86853801,-1.231979609,1.025197029,-5.79372406,2024-06-05 15:55:29.868538
62.90902691,-2.516695976,0.8714132309,-9.787914276,2024-06-05 15:55:29.909027
62.94951582,0.651321888,-1.183633804,-1.921313405,2024-06-05 15:55:29.949516
