Time (s),Acceleration x (m/s^2),Acceleration y (m/s^2),Acceleration z (m/s^2),Datetime
0.0,3.023032188,5.318048477,5.995815277,2024-06-04 14:06:23.000000
0.019826784,5.334797859,5.236692429,8.96889782,2024-06-04 14:06:23.019827
0.059826784,0.0,0.0,0.0,2024-06-04 14:06:23.059827
0.099826784,3.274577856,4.781457901,7.3540411,2024-06-04 14:06:23.099827
0.139826784,3.274577856,4.781457901,7.3540411,2024-06-04 14:06:23.139827
0.179826784,3.274577856,4.781457901,7.3540411,2024-06-04 14:06:23.179827
0.219826784,3.274577856,4.781457901,7.3540411,2024-06-04 14:06:23.219827
0.259826784,3.274577856,4.781457901,7.3540411,2024-06-04 14:06:23.259827
0.299826784,3.274577856,4.781457901,7.3540411,2024-06-04 14:06:23.299827
0.339826784,2.112862349,4.123730659,7.494320393,2024-06-04 14:06:23.339827
0.379826784,2.112862349,4.123730659,7.494320393,2024-06-04 14:06:23.379827
0.419826784,2.112862349,4.123730659,7.494320393,2024-06-04 14:06:23.419827
0.459826784,2.112862349,4.123730659,7.494320393,2024-06-04 14:06:23.459827
0.499826784,2.112862349,4.123730659,7.494320393,2024-06-04 14:06:23.499827
0.539826784,2.112862349,4.123730659,7.494320393,2024-06-04 14:06:23.539827
0.579826784,2.112862349,4.123730659,7.494320393,2024-06-04 14:06:23.579827
0.619826784,2.112862349,4.123730659,7.494320393,2024-06-04 14:06:23.619827
0.659826784,2.112862349,4.123730659,7.494320393,2024-06-04 14:06:23.659827
0.699826784,2.112862349,4.123730659,7.494320393,2024-06-04 14:06:23.699827
0.739826784,2.112862349,4.123730659,7.494320393,2024-06-04 14:06:23.739827
0.779826784,2.112862349,4.123730659,7.494320393,2024-06-04 14:06:23.779827
0.819826784,2.112862349,4.123730659,7.494320393,2024-06-04 14:06:23.819827
0.859826784,2.112862349,4.123730659,7.494320393,2024-06-04 14:06:23.859827
0.899826784,2.112862349,4.123730659,7.494320393,2024-06-04 14:06:23.899827
0.939826784,2.112862349,4.123730659,7.494320393,2024-06-04 14:06:23.939827
0.979826784,2.112862349,4.123730659,7.494320393,2024-06-04 14:06:23.979827
1.019826784,2.112862349,4.123730659,7.494320393,2024-06-04 14:06:24.019827
1.059826784,2.112862349,4.123730659,7.494320393,2024-06-04 14:06:24.059827
1.099826784,2.112862349,4.123730659,7.494320393,2024-06-04 14:06:24.099827
1.139826784,2.112862349,4.123730659,7.494320393,2024-06-04 14:06:24.139827
1.179826784,2.112862349,4.123730659,7.494320393,2024-06-04 14:06:24.179827
1.219826784,2.112862349,4.123730659,7.494320393,2024-06-04 14:06:24.219827
1.259826784,2.112862349,4.123730659,7.494320393,2024-06-04 14:06:24.259827
1.299826784,2.362015009,5.447260857,10.0899353,2024-06-04 14:06:24.299827
1.339826784,1.973779559,5.230710506,9.192625999,2024-06-04 14:06:24.339827
1.379826784,2.108076811,5.102395058,7.514659405,2024-06-04 14:06:24.379827
1.419826784,2.450549603,4.764708042,7.066603661,2024-06-04 14:06:24.419827
1.459826784,2.275873423,4.516751766,7.41176796,2024-06-04 14:06:24.459827
1.499826784,2.645863533,4.39800787,8.177172661,2024-06-04 14:06:24.499827
1.539826784,2.324926376,4.446163654,8.370990753,2024-06-04 14:06:24.539827
1.579826784,2.114058733,4.356133461,7.76500845,2024-06-04 14:06:24.579827
1.619826784,2.114058733,4.356133461,7.76500845,2024-06-04 14:06:24.619827
1.659826784,2.114058733,4.356133461,7.76500845,2024-06-04 14:06:24.659827
1.699826784,2.114058733,4.356133461,7.76500845,2024-06-04 14:06:24.699827
1.739826784,2.114058733,4.356133461,7.76500845,2024-06-04 14:06:24.739827
1.779826784,2.114058733,4.356133461,7.76500845,2024-06-04 14:06:24.779827
1.819826784,2.114058733,4.356133461,7.76500845,2024-06-04 14:06:24.819827
1.859826784,2.114058733,4.356133461,7.76500845,2024-06-04 14:06:24.859827
1.899826784,2.114058733,4.356133461,7.76500845,2024-06-04 14:06:24.899827
1.939826784,2.114058733,4.356133461,7.76500845,2024-06-04 14:06:24.939827
1.979826784,2.114058733,4.356133461,7.76500845,2024-06-04 14:06:24.979827
2.019826784,2.114058733,4.356133461,7.76500845,2024-06-04 14:06:25.019827
2.059826784,2.114058733,4.356133461,7.76500845,2024-06-04 14:06:25.059827
2.099826784,2.114058733,4.356133461,7.76500845,2024-06-04 14:06:25.099827
2.139826784,2.114058733,4.356133461,7.76500845,2024-06-04 14:06:25.139827
2.179826784,2.114058733,4.356133461,7.76500845,2024-06-04 14:06:25.179827
2.219826784,2.114058733,4.356133461,7.76500845,2024-06-04 14:06:25.219827
2.259826784,2.114058733,4.356133461,7.76500845,2024-06-04 14:06:25.259827
2.299826784,2.114058733,4.356133461,7.76500845,2024-06-04 14:06:25.299827
2.339826784,2.114058733,4.356133461,7.76500845,2024-06-04 14:06:25.339827
2.379826784,2.114058733,4.356133461,7.76500845,2024-06-04 14:06:25.379827
2.419826784,2.114058733,4.356133461,7.76500845,2024-06-04 14:06:25.419827
2.459826784,2.114058733,4.356133461,7.76500845,2024-06-04 14:06:25.459827
2.499826784,2.114058733,4.356133461,7.76500845,2024-06-04 14:06:25.499827
2.539826784,2.114058733,4.356133461,7.76500845,2024-06-04 14:06:25.539827
2.579826784,2.114058733,4.356133461,7.76500845,2024-06-04 14:06:25.579827
2.619826784,2.114058733,4.356133461,7.76500845,2024-06-04 14:06:25.619827
2.659826784,2.114058733,4.356133461,7.76500845,2024-06-04 14:06:25.659827
2.699826784,2.114058733,4.356133461,7.76500845,2024-06-04 14:06:25.699827
2.739826784,2.114058733,4.356133461,7.76500845,2024-06-04 14:06:25.739827
2.779826784,2.114058733,4.356133461,7.76500845,2024-06-04 14:06:25.779827
2.819826784,2.114058733,4.356133461,7.76500845,2024-06-04 14:06:25.819827
2.859826784,2.114058733,4.356133461,7.76500845,2024-06-04 14:06:25.859827
2.899826784,2.114058733,4.356133461,7.76500845,2024-06-04 14:06:25.899827
2.939826784,1.366600871,3.231507063,6.596114635,2024-06-04 14:06:25.939827
2.979826784,0.03230310604,2.680559635,7.715955734,2024-06-04 14:06:25.979827
3.019826784,3.630510092,3.226721287,9.56770134,2024-06-04 14:06:26.019827
3.059826784,0.1256231815,2.614757061,5.642574787,2024-06-04 14:06:26.059827
3.099826784,4.546662331,4.532305241,12.66610718,2024-06-04 14:06:26.099827
3.139826784,4.958825588,3.251846075,13.91187096,2024-06-04 14:06:26.139827
3.179826784,4.145266056,2.656631231,13.80897903,2024-06-04 14:06:26.179827
3.219826784,2.779861689,2.647060156,8.944669724,2024-06-04 14:06:26.219827
3.259826784,4.141676903,2.419442892,7.27866745,2024-06-04 14:06:26.259827
3.299826784,4.141676903,2.419442892,7.27866745,2024-06-04 14:06:26.299827
3.339826784,4.141676903,2.419442892,7.27866745,2024-06-04 14:06:26.339827
3.379826784,4.141676903,2.419442892,7.27866745,2024-06-04 14:06:26.379827
3.419826784,4.141676903,2.419442892,7.27866745,2024-06-04 14:06:26.419827
3.459826784,4.141676903,2.419442892,7.27866745,2024-06-04 14:06:26.459827
3.499826784,4.141676903,2.419442892,7.27866745,2024-06-04 14:06:26.499827
3.539826784,4.141676903,2.419442892,7.27866745,2024-06-04 14:06:26.539827
3.579826784,4.141676903,2.419442892,7.27866745,2024-06-04 14:06:26.579827
3.619826784,4.141676903,2.419442892,7.27866745,2024-06-04 14:06:26.619827
3.659826784,4.141676903,2.419442892,7.27866745,2024-06-04 14:06:26.659827
3.699826784,4.141676903,2.419442892,7.27866745,2024-06-04 14:06:26.699827
3.739826784,4.141676903,2.419442892,7.27866745,2024-06-04 14:06:26.739827
3.779826784,4.141676903,2.419442892,7.27866745,2024-06-04 14:06:26.779827
3.819826784,4.141676903,2.419442892,7.27866745,2024-06-04 14:06:26.819827
3.859826784,4.141676903,2.419442892,7.27866745,2024-06-04 14:06:26.859827
3.899826784,4.141676903,2.419442892,7.27866745,2024-06-04 14:06:26.899827
3.939826784,4.141676903,2.419442892,7.27866745,2024-06-04 14:06:26.939827
3.979826784,4.141676903,2.419442892,7.27866745,2024-06-04 14:06:26.979827
4.019826784,4.141676903,2.419442892,7.27866745,2024-06-04 14:06:27.019827
4.059826784,4.141676903,2.419442892,7.27866745,2024-06-04 14:06:27.059827
4.099826784,2.126022816,5.040181637,6.29790926,2024-06-04 14:06:27.099827
4.139826784,2.126022816,5.040181637,6.29790926,2024-06-04 14:06:27.139827
4.179826784,2.126022816,5.040181637,6.29790926,2024-06-04 14:06:27.179827
4.219826784,2.126022816,5.040181637,6.29790926,2024-06-04 14:06:27.219827
4.259826784,2.126022816,5.040181637,6.29790926,2024-06-04 14:06:27.259827
4.299826784,2.126022816,5.040181637,6.29790926,2024-06-04 14:06:27.299827
4.339826784,2.126022816,5.040181637,6.29790926,2024-06-04 14:06:27.339827
4.379826784,2.126022816,5.040181637,6.29790926,2024-06-04 14:06:27.379827
4.419826784,2.126022816,5.040181637,6.29790926,2024-06-04 14:06:27.419827
4.459826784,2.126022816,5.040181637,6.29790926,2024-06-04 14:06:27.459827
4.499826784,2.126022816,5.040181637,6.29790926,2024-06-04 14:06:27.499827
4.539826784,2.126022816,5.040181637,6.29790926,2024-06-04 14:06:27.539827
4.579826784,2.126022816,5.040181637,6.29790926,2024-06-04 14:06:27.579827
4.619826784,0.8503493667,4.289134502,6.373282909,2024-06-04 14:06:27.619827
4.659826784,0.9125627279,5.398207664,5.157430172,2024-06-04 14:06:27.659827
4.699826784,2.389532566,6.185147285,7.520641804,2024-06-04 14:06:27.699827
4.739826784,-0.01076770201,4.95015192,11.59651566,2024-06-04 14:06:27.739827
4.779826784,2.296212435,5.828317642,8.970093727,2024-06-04 14:06:27.779827
4.819826784,2.923730135,5.796014786,10.44676495,2024-06-04 14:06:27.819827
4.859826784,2.092523336,4.800600529,6.169594288,2024-06-04 14:06:27.859827
4.899826784,2.006082773,3.707080364,6.494120598,2024-06-04 14:06:27.899827
4.939826784,4.456931114,2.964408159,12.38704491,2024-06-04 14:06:27.939827
4.979826784,4.456931114,2.964408159,12.38704491,2024-06-04 14:06:27.979827
5.019826784,4.456931114,2.964408159,12.38704491,2024-06-04 14:06:28.019827
5.059826784,4.456931114,2.964408159,12.38704491,2024-06-04 14:06:28.059827
5.099826784,4.456931114,2.964408159,12.38704491,2024-06-04 14:06:28.099827
5.139826784,4.456931114,2.964408159,12.38704491,2024-06-04 14:06:28.139827
5.179826784,4.456931114,2.964408159,12.38704491,2024-06-04 14:06:28.179827
5.219826784,4.456931114,2.964408159,12.38704491,2024-06-04 14:06:28.219827
5.259826784,4.456931114,2.964408159,12.38704491,2024-06-04 14:06:28.259827
5.299826784,4.456931114,2.964408159,12.38704491,2024-06-04 14:06:28.299827
5.339826784,0.147457689,3.445963621,9.239585876,2024-06-04 14:06:28.339827
5.379826784,0.147457689,3.445963621,9.239585876,2024-06-04 14:06:28.379827
5.419826784,0.147457689,3.445963621,9.239585876,2024-06-04 14:06:28.419827
5.459826784,0.147457689,3.445963621,9.239585876,2024-06-04 14:06:28.459827
5.499826784,0.147457689,3.445963621,9.239585876,2024-06-04 14:06:28.499827
5.539826784,0.147457689,3.445963621,9.239585876,2024-06-04 14:06:28.539827
5.579826784,0.147457689,3.445963621,9.239585876,2024-06-04 14:06:28.579827
5.619826784,0.147457689,3.445963621,9.239585876,2024-06-04 14:06:28.619827
5.659826784,0.147457689,3.445963621,9.239585876,2024-06-04 14:06:28.659827
5.699826784,0.147457689,3.445963621,9.239585876,2024-06-04 14:06:28.699827
5.739826784,0.147457689,3.445963621,9.239585876,2024-06-04 14:06:28.739827
5.779826784,0.147457689,3.445963621,9.239585876,2024-06-04 14:06:28.779827
5.819826784,0.147457689,3.445963621,9.239585876,2024-06-04 14:06:28.819827
5.859826784,0.147457689,3.445963621,9.239585876,2024-06-04 14:06:28.859827
5.899826784,0.147457689,3.445963621,9.239585876,2024-06-04 14:06:28.899827
5.939826784,0.147457689,3.445963621,9.239585876,2024-06-04 14:06:28.939827
5.979826784,0.147457689,3.445963621,9.239585876,2024-06-04 14:06:28.979827
6.019826784,0.147457689,3.445963621,9.239585876,2024-06-04 14:06:29.019827
6.059826784,0.147457689,3.445963621,9.239585876,2024-06-04 14:06:29.059827
6.099826784,0.147457689,3.445963621,9.239585876,2024-06-04 14:06:29.099827
6.139826784,0.147457689,3.445963621,9.239585876,2024-06-04 14:06:29.139827
6.179826784,0.147457689,3.445963621,9.239585876,2024-06-04 14:06:29.179827
6.219826784,0.147457689,3.445963621,9.239585876,2024-06-04 14:06:29.219827
6.259826784,0.147457689,3.445963621,9.239585876,2024-06-04 14:06:29.259827
6.299826784,2.208575249,4.115355968,7.554141045,2024-06-04 14:06:29.299827
6.339826784,0.5976074338,4.289134502,5.800800323,2024-06-04 14:06:29.339827
6.379826784,1.778764486,5.251049519,6.715755939,2024-06-04 14:06:29.379827
6.419826784,0.5820540786,5.387440205,8.676374435,2024-06-04 14:06:29.419827
6.459826784,1.26490593,4.550251484,11.64586735,2024-06-04 14:06:29.459827
6.499826784,0.8335995674,4.295116425,11.80499077,2024-06-04 14:06:29.499827
6.539826784,1.112662554,5.562415123,10.11147022,2024-06-04 14:06:29.539827
6.579826784,2.354836702,4.030410767,13.12971687,2024-06-04 14:06:29.579827
6.619826784,2.354836702,4.030410767,13.12971687,2024-06-04 14:06:29.619827
6.659826784,2.354836702,4.030410767,13.12971687,2024-06-04 14:06:29.659827
6.699826784,2.354836702,4.030410767,13.12971687,2024-06-04 14:06:29.699827
6.739826784,-0.3448655605,0.8288139701,8.229814529,2024-06-04 14:06:29.739827
6.779826784,-0.3448655605,0.8288139701,8.229814529,2024-06-04 14:06:29.779827
6.819826784,-0.3448655605,0.8288139701,8.229814529,2024-06-04 14:06:29.819827
6.859826784,-0.3448655605,0.8288139701,8.229814529,2024-06-04 14:06:29.859827
6.899826784,-0.3448655605,0.8288139701,8.229814529,2024-06-04 14:06:29.899827
6.939826784,-0.3448655605,0.8288139701,8.229814529,2024-06-04 14:06:29.939827
6.979826784,3.689134359,4.377668858,7.919644833,2024-06-04 14:06:29.979827
7.019826784,3.689134359,4.377668858,7.919644833,2024-06-04 14:06:30.019827
7.059826784,3.689134359,4.377668858,7.919644833,2024-06-04 14:06:30.059827
7.099826784,3.689134359,4.377668858,7.919644833,2024-06-04 14:06:30.099827
7.139826784,3.689134359,4.377668858,7.919644833,2024-06-04 14:06:30.139827
7.179826784,3.689134359,4.377668858,7.919644833,2024-06-04 14:06:30.179827
7.219826784,2.451745987,0.7905287743,10.50778198,2024-06-04 14:06:30.219827
7.259826784,2.451745987,0.7905287743,10.50778198,2024-06-04 14:06:30.259827
7.299826784,2.451745987,0.7905287743,10.50778198,2024-06-04 14:06:30.299827
7.339826784,2.451745987,0.7905287743,10.50778198,2024-06-04 14:06:30.339827
7.379826784,2.451745987,0.7905287743,10.50778198,2024-06-04 14:06:30.379827
7.419826784,2.451745987,0.7905287743,10.50778198,2024-06-04 14:06:30.419827
7.459826784,2.451745987,0.7905287743,10.50778198,2024-06-04 14:06:30.459827
7.499826784,2.451745987,0.7905287743,10.50778198,2024-06-04 14:06:30.499827
7.539826784,2.451745987,0.7905287743,10.50778198,2024-06-04 14:06:30.539827
7.579826784,2.451745987,0.7905287743,10.50778198,2024-06-04 14:06:30.579827
7.619826784,2.451745987,0.7905287743,10.50778198,2024-06-04 14:06:30.619827
7.659826784,2.451745987,0.7905287743,10.50778198,2024-06-04 14:06:30.659827
7.699826784,2.451745987,0.7905287743,10.50778198,2024-06-04 14:06:30.699827
7.739826784,2.451745987,0.7905287743,10.50778198,2024-06-04 14:06:30.739827
7.779826784,2.451745987,0.7905287743,10.50778198,2024-06-04 14:06:30.779827
7.819826784,2.451745987,0.7905287743,10.50778198,2024-06-04 14:06:30.819827
7.859826784,2.451745987,0.7905287743,10.50778198,2024-06-04 14:06:30.859827
7.899826784,2.451745987,0.7905287743,10.50778198,2024-06-04 14:06:30.899827
7.939826784,10.07198906,-13.82572937,3.965804338,2024-06-04 14:06:30.939827
7.979826784,23.06023026,-8.171190262,8.268099785,2024-06-04 14:06:30.979827
8.019826784,20.43350983,-2.726023197,3.594318628,2024-06-04 14:06:31.019827
8.059826784,13.1201458,-3.83270359,1.627717614,2024-06-04 14:06:31.059827
8.099826784,12.38943768,-4.236492634,1.759621978,2024-06-04 14:06:31.099827
8.139826784,12.84586811,-5.532505035,2.897409201,2024-06-04 14:06:31.139827
8.179826784,9.135198593,-9.689735413,0.6634100676,2024-06-04 14:06:31.179827
8.219826784,4.671088696,-10.75334454,-0.913759172,2024-06-04 14:06:31.219827
8.259826784,7.028318405,-11.39791203,-1.263709426,2024-06-04 14:06:31.259827
8.299826784,7.028318405,-11.39791203,-1.263709426,2024-06-04 14:06:31.299827
8.339826784,7.028318405,-11.39791203,-1.263709426,2024-06-04 14:06:31.339827
8.379826784,7.028318405,-11.39791203,-1.263709426,2024-06-04 14:06:31.379827
8.419826784,7.028318405,-11.39791203,-1.263709426,2024-06-04 14:06:31.419827
8.459826784,7.028318405,-11.39791203,-1.263709426,2024-06-04 14:06:31.459827
8.499826784,7.028318405,-11.39791203,-1.263709426,2024-06-04 14:06:31.499827
8.539826784,7.028318405,-11.39791203,-1.263709426,2024-06-04 14:06:31.539827
8.579826784,7.028318405,-11.39791203,-1.263709426,2024-06-04 14:06:31.579827
8.619826784,7.028318405,-11.39791203,-1.263709426,2024-06-04 14:06:31.619827
8.659826784,7.028318405,-11.39791203,-1.263709426,2024-06-04 14:06:31.659827
8.699826784,7.028318405,-11.39791203,-1.263709426,2024-06-04 14:06:31.699827
8.739826784,7.028318405,-11.39791203,-1.263709426,2024-06-04 14:06:31.739827
8.779826784,7.028318405,-11.39791203,-1.263709426,2024-06-04 14:06:31.779827
8.819826784,7.028318405,-11.39791203,-1.263709426,2024-06-04 14:06:31.819827
8.859826784,7.028318405,-11.39791203,-1.263709426,2024-06-04 14:06:31.859827
8.899826784,7.028318405,-11.39791203,-1.263709426,2024-06-04 14:06:31.899827
8.939826784,7.028318405,-11.39791203,-1.263709426,2024-06-04 14:06:31.939827
8.979826784,7.028318405,-11.39791203,-1.263709426,2024-06-04 14:06:31.979827
9.019826784,7.028318405,-11.39791203,-1.263709426,2024-06-04 14:06:32.019827
9.059826784,7.028318405,-11.39791203,-1.263709426,2024-06-04 14:06:32.059827
9.099826784,7.028318405,-11.39791203,-1.263709426,2024-06-04 14:06:32.099827
9.139826784,7.028318405,-11.39791203,-1.263709426,2024-06-04 14:06:32.139827
9.179826784,7.028318405,-11.39791203,-1.263709426,2024-06-04 14:06:32.179827
9.219826784,7.028318405,-11.39791203,-1.263709426,2024-06-04 14:06:32.219827
9.259826784,7.028318405,-11.39791203,-1.263709426,2024-06-04 14:06:32.259827
9.299826784,7.028318405,-11.39791203,-1.263709426,2024-06-04 14:06:32.299827
9.339826784,7.028318405,-11.39791203,-1.263709426,2024-06-04 14:06:32.339827
9.379826784,7.028318405,-11.39791203,-1.263709426,2024-06-04 14:06:32.379827
9.419826784,7.028318405,-11.39791203,-1.263709426,2024-06-04 14:06:32.419827
9.459826784,7.028318405,-11.39791203,-1.263709426,2024-06-04 14:06:32.459827
9.499826784,7.028318405,-11.39791203,-1.263709426,2024-06-04 14:06:32.499827
9.539826784,7.028318405,-11.39791203,-1.263709426,2024-06-04 14:06:32.539827
9.579826784,7.028318405,-11.39791203,-1.263709426,2024-06-04 14:06:32.579827
9.619826784,6.50010252,-2.500798702,-0.5102694035,2024-06-04 14:06:32.619827
9.659826784,5.264209747,-2.351247311,-1.274477124,2024-06-04 14:06:32.659827
9.699826784,9.749555588,-0.8659027219,-0.04905286431,2024-06-04 14:06:32.699827
9.739826784,11.83250809,-0.8371888399,3.752544165,2024-06-04 14:06:32.739827
9.779826784,12.34636688,-1.785943031,4.732405186,2024-06-04 14:06:32.779827
9.819826784,14.04706573,-1.238584876,8.967700958,2024-06-04 14:06:32.819827
9.859826784,15.1154604,-5.928816319,8.711369514,2024-06-04 14:06:32.859827
9.899826784,10.48026371,-7.776972771,7.507481098,2024-06-04 14:06:32.899827
9.939826784,13.8735857,-4.192225456,9.421440125,2024-06-04 14:06:32.939827
9.979826784,11.95005512,-4.665106773,10.61456108,2024-06-04 14:06:32.979827
10.01982678,11.95005512,-4.665106773,10.61456108,2024-06-04 14:06:33.019827
10.05982678,11.95005512,-4.665106773,10.61456108,2024-06-04 14:06:33.059827
10.09982678,11.95005512,-4.665106773,10.61456108,2024-06-04 14:06:33.099827
10.13982678,11.95005512,-4.665106773,10.61456108,2024-06-04 14:06:33.139827
10.17982678,11.95005512,-4.665106773,10.61456108,2024-06-04 14:06:33.179827
10.21982678,2.418246269,-0.2072782665,6.423532486,2024-06-04 14:06:33.219827
10.25982678,2.418246269,-0.2072782665,6.423532486,2024-06-04 14:06:33.259827
10.29982678,2.418246269,-0.2072782665,6.423532486,2024-06-04 14:06:33.299827
10.33982678,2.418246269,-0.2072782665,6.423532486,2024-06-04 14:06:33.339827
10.37982678,2.418246269,-0.2072782665,6.423532486,2024-06-04 14:06:33.379827
10.41982678,2.418246269,-0.2072782665,6.423532486,2024-06-04 14:06:33.419827
10.45982678,2.418246269,-0.2072782665,6.423532486,2024-06-04 14:06:33.459827
10.49982678,2.418246269,-0.2072782665,6.423532486,2024-06-04 14:06:33.499827
10.53982678,2.418246269,-0.2072782665,6.423532486,2024-06-04 14:06:33.539827
10.57982678,2.418246269,-0.2072782665,6.423532486,2024-06-04 14:06:33.579827
10.61982678,2.418246269,-0.2072782665,6.423532486,2024-06-04 14:06:33.619827
10.65982678,2.418246269,-0.2072782665,6.423532486,2024-06-04 14:06:33.659827
10.69982678,2.418246269,-0.2072782665,6.423532486,2024-06-04 14:06:33.699827
10.73982678,2.418246269,-0.2072782665,6.423532486,2024-06-04 14:06:33.739827
10.77982678,2.418246269,-0.2072782665,6.423532486,2024-06-04 14:06:33.779827
10.81982678,2.418246269,-0.2072782665,6.423532486,2024-06-04 14:06:33.819827
10.85982678,2.418246269,-0.2072782665,6.423532486,2024-06-04 14:06:33.859827
10.89982678,2.418246269,-0.2072782665,6.423532486,2024-06-04 14:06:33.899827
10.93982678,2.418246269,-0.2072782665,6.423532486,2024-06-04 14:06:33.939827
10.97982678,2.418246269,-0.2072782665,6.423532486,2024-06-04 14:06:33.979827
11.01982678,2.418246269,-0.2072782665,6.423532486,2024-06-04 14:06:34.019827
11.05982678,2.418246269,-0.2072782665,6.423532486,2024-06-04 14:06:34.059827
11.09982678,2.418246269,-0.2072782665,6.423532486,2024-06-04 14:06:34.099827
11.13982678,2.418246269,-0.2072782665,6.423532486,2024-06-04 14:06:34.139827
11.17982678,2.418246269,-0.2072782665,6.423532486,2024-06-04 14:06:34.179827
11.21982678,6.50369215,4.98275423,7.618747234,2024-06-04 14:06:34.219827
11.25982678,4.145266056,4.713262558,6.501298904,2024-06-04 14:06:34.259827
11.29982678,0.2371885478,3.848257065,5.030610561,2024-06-04 14:06:34.299827
11.33982678,3.343969584,4.35852623,5.37188673,2024-06-04 14:06:34.339827
11.37982678,3.361018419,4.33340168,6.707380772,2024-06-04 14:06:34.379827
11.41982678,3.793222189,5.506184101,5.607879162,2024-06-04 14:06:34.419827
11.45982678,4.277170658,6.036792278,6.806683064,2024-06-04 14:06:34.459827
11.49982678,4.375276089,5.760122299,7.123134136,2024-06-04 14:06:34.499827
11.53982678,4.866403103,6.32303381,7.439285755,2024-06-04 14:06:34.539827
11.57982678,5.365904808,6.171987057,7.273881912,2024-06-04 14:06:34.579827
11.61982678,5.365904808,6.171987057,7.273881912,2024-06-04 14:06:34.619827
11.65982678,5.365904808,6.171987057,7.273881912,2024-06-04 14:06:34.659827
11.69982678,5.365904808,6.171987057,7.273881912,2024-06-04 14:06:34.699827
11.73982678,5.365904808,6.171987057,7.273881912,2024-06-04 14:06:34.739827
11.77982678,5.365904808,6.171987057,7.273881912,2024-06-04 14:06:34.779827
11.81982678,5.365904808,6.171987057,7.273881912,2024-06-04 14:06:34.819827
11.85982678,5.365904808,6.171987057,7.273881912,2024-06-04 14:06:34.859827
11.89982678,5.365904808,6.171987057,7.273881912,2024-06-04 14:06:34.899827
11.93982678,5.365904808,6.171987057,7.273881912,2024-06-04 14:06:34.939827
11.97982678,5.365904808,6.171987057,7.273881912,2024-06-04 14:06:34.979827
12.01982678,5.365904808,6.171987057,7.273881912,2024-06-04 14:06:35.019827
12.05982678,5.365904808,6.171987057,7.273881912,2024-06-04 14:06:35.059827
12.09982678,5.365904808,6.171987057,7.273881912,2024-06-04 14:06:35.099827
12.13982678,5.365904808,6.171987057,7.273881912,2024-06-04 14:06:35.139827
12.17982678,5.365904808,6.171987057,7.273881912,2024-06-04 14:06:35.179827
12.21982678,5.365904808,6.171987057,7.273881912,2024-06-04 14:06:35.219827
12.25982678,5.365904808,6.171987057,7.273881912,2024-06-04 14:06:35.259827
12.29982678,5.365904808,6.171987057,7.273881912,2024-06-04 14:06:35.299827
12.33982678,5.365904808,6.171987057,7.273881912,2024-06-04 14:06:35.339827
12.37982678,5.365904808,6.171987057,7.273881912,2024-06-04 14:06:35.379827
12.41982678,5.365904808,6.171987057,7.273881912,2024-06-04 14:06:35.419827
12.45982678,5.365904808,6.171987057,7.273881912,2024-06-04 14:06:35.459827
12.49982678,5.365904808,6.171987057,7.273881912,2024-06-04 14:06:35.499827
12.53982678,5.365904808,6.171987057,7.273881912,2024-06-04 14:06:35.539827
12.57982678,5.365904808,6.171987057,7.273881912,2024-06-04 14:06:35.579827
12.61982678,5.365904808,6.171987057,7.273881912,2024-06-04 14:06:35.619827
12.65982678,5.365904808,6.171987057,7.273881912,2024-06-04 14:06:35.659827
12.69982678,5.365904808,6.171987057,7.273881912,2024-06-04 14:06:35.699827
12.73982678,5.365904808,6.171987057,7.273881912,2024-06-04 14:06:35.739827
12.77982678,5.365904808,6.171987057,7.273881912,2024-06-04 14:06:35.779827
12.81982678,5.365904808,6.171987057,7.273881912,2024-06-04 14:06:35.819827
12.85982678,5.365904808,6.171987057,7.273881912,2024-06-04 14:06:35.859827
12.89982678,5.365904808,6.171987057,7.273881912,2024-06-04 14:06:35.899827
12.93982678,2.98713994,1.23978126,7.762615681,2024-06-04 14:06:35.939827
12.97982678,-0.4109672904,3.842274904,7.355237484,2024-06-04 14:06:35.979827
13.01982678,0.6816553473,4.811367989,7.496713161,2024-06-04 14:06:36.019827
13.05982678,1.379761338,3.594318628,7.403393269,2024-06-04 14:06:36.059827
13.09982678,1.498505235,4.296313286,7.67527771,2024-06-04 14:06:36.099827
13.13982678,2.66739893,5.424529076,8.133802414,2024-06-04 14:06:36.139827
13.17982678,1.47457695,4.200600147,9.516255379,2024-06-04 14:06:36.179827
13.21982678,0.8455637097,3.032603502,9.741181374,2024-06-04 14:06:36.219827
13.25982678,0.8455637097,3.032603502,9.741181374,2024-06-04 14:06:36.259827
13.29982678,0.8455637097,3.032603502,9.741181374,2024-06-04 14:06:36.299827
13.33982678,0.8455637097,3.032603502,9.741181374,2024-06-04 14:06:36.339827
13.37982678,0.8455637097,3.032603502,9.741181374,2024-06-04 14:06:36.379827
13.41982678,0.8455637097,3.032603502,9.741181374,2024-06-04 14:06:36.419827
13.45982678,0.8455637097,3.032603502,9.741181374,2024-06-04 14:06:36.459827
13.49982678,0.8455637097,3.032603502,9.741181374,2024-06-04 14:06:36.499827
13.53982678,0.8455637097,3.032603502,9.741181374,2024-06-04 14:06:36.539827
13.57982678,0.8455637097,3.032603502,9.741181374,2024-06-04 14:06:36.579827
13.61982678,0.8455637097,3.032603502,9.741181374,2024-06-04 14:06:36.619827
13.65982678,0.8455637097,3.032603502,9.741181374,2024-06-04 14:06:36.659827
13.69982678,0.8455637097,3.032603502,9.741181374,2024-06-04 14:06:36.699827
13.73982678,0.8455637097,3.032603502,9.741181374,2024-06-04 14:06:36.739827
13.77982678,0.8455637097,3.032603502,9.741181374,2024-06-04 14:06:36.779827
13.81982678,0.8455637097,3.032603502,9.741181374,2024-06-04 14:06:36.819827
13.85982678,0.8455637097,3.032603502,9.741181374,2024-06-04 14:06:36.859827
13.89982678,0.8455637097,3.032603502,9.741181374,2024-06-04 14:06:36.899827
13.93982678,0.8455637097,3.032603502,9.741181374,2024-06-04 14:06:36.939827
13.97982678,5.788836002,3.457927704,10.6109724,2024-06-04 14:06:36.979827
14.01982678,5.788836002,3.457927704,10.6109724,2024-06-04 14:06:37.019827
14.05982678,5.788836002,3.457927704,10.6109724,2024-06-04 14:06:37.059827
14.09982678,5.788836002,3.457927704,10.6109724,2024-06-04 14:06:37.099827
14.13982678,5.788836002,3.457927704,10.6109724,2024-06-04 14:06:37.139827
14.17982678,5.788836002,3.457927704,10.6109724,2024-06-04 14:06:37.179827
14.21982678,5.788836002,3.457927704,10.6109724,2024-06-04 14:06:37.219827
14.25982678,5.788836002,3.457927704,10.6109724,2024-06-04 14:06:37.259827
14.29982678,5.788836002,3.457927704,10.6109724,2024-06-04 14:06:37.299827
14.33982678,5.788836002,3.457927704,10.6109724,2024-06-04 14:06:37.339827
14.37982678,5.788836002,3.457927704,10.6109724,2024-06-04 14:06:37.379827
14.41982678,5.788836002,3.457927704,10.6109724,2024-06-04 14:06:37.419827
14.45982678,5.788836002,3.457927704,10.6109724,2024-06-04 14:06:37.459827
14.49982678,5.788836002,3.457927704,10.6109724,2024-06-04 14:06:37.499827
14.53982678,5.788836002,3.457927704,10.6109724,2024-06-04 14:06:37.539827
14.57982678,5.788836002,3.457927704,10.6109724,2024-06-04 14:06:37.579827
14.61982678,1.131805062,4.354937077,9.104091644,2024-06-04 14:06:37.619827
14.65982678,0.561715126,4.028017998,7.055835724,2024-06-04 14:06:37.659827
14.69982678,0.536590457,3.463909864,6.879963398,2024-06-04 14:06:37.699827
14.73982678,0.5796613097,3.414856911,7.828418255,2024-06-04 14:06:37.739827
14.77982678,1.306780219,4.539483547,6.355337143,2024-06-04 14:06:37.779827
14.81982678,1.957029819,5.520540714,7.505088329,2024-06-04 14:06:37.819827
14.85982678,3.142972469,6.350551128,8.943473816,2024-06-04 14:06:37.859827
14.89982678,0.6538388133,4.788636208,9.256335258,2024-06-04 14:06:37.899827
14.93982678,0.6538388133,4.788636208,9.256335258,2024-06-04 14:06:37.939827
14.97982678,0.6538388133,4.788636208,9.256335258,2024-06-04 14:06:37.979827
15.01982678,0.6538388133,4.788636208,9.256335258,2024-06-04 14:06:38.019827
15.05982678,0.6538388133,4.788636208,9.256335258,2024-06-04 14:06:38.059827
15.09982678,0.6538388133,4.788636208,9.256335258,2024-06-04 14:06:38.099827
15.13982678,0.6538388133,4.788636208,9.256335258,2024-06-04 14:06:38.139827
15.17982678,0.6538388133,4.788636208,9.256335258,2024-06-04 14:06:38.179827
15.21982678,0.6538388133,4.788636208,9.256335258,2024-06-04 14:06:38.219827
15.25982678,0.6538388133,4.788636208,9.256335258,2024-06-04 14:06:38.259827
15.29982678,0.6538388133,4.788636208,9.256335258,2024-06-04 14:06:38.299827
15.33982678,0.6538388133,4.788636208,9.256335258,2024-06-04 14:06:38.339827
15.37982678,0.6538388133,4.788636208,9.256335258,2024-06-04 14:06:38.379827
15.41982678,0.6538388133,4.788636208,9.256335258,2024-06-04 14:06:38.419827
15.45982678,0.6538388133,4.788636208,9.256335258,2024-06-04 14:06:38.459827
15.49982678,0.6538388133,4.788636208,9.256335258,2024-06-04 14:06:38.499827
15.53982678,0.6538388133,4.788636208,9.256335258,2024-06-04 14:06:38.539827
15.57982678,0.6538388133,4.788636208,9.256335258,2024-06-04 14:06:38.579827
15.61982678,0.6538388133,4.788636208,9.256335258,2024-06-04 14:06:38.619827
15.65982678,0.6538388133,4.788636208,9.256335258,2024-06-04 14:06:38.659827
15.69982678,0.6538388133,4.788636208,9.256335258,2024-06-04 14:06:38.699827
15.73982678,0.6538388133,4.788636208,9.256335258,2024-06-04 14:06:38.739827
15.77982678,0.6538388133,4.788636208,9.256335258,2024-06-04 14:06:38.779827
15.81982678,0.6538388133,4.788636208,9.256335258,2024-06-04 14:06:38.819827
15.85982678,0.6538388133,4.788636208,9.256335258,2024-06-04 14:06:38.859827
15.89982678,0.6538388133,4.788636208,9.256335258,2024-06-04 14:06:38.899827
15.93982678,0.6538388133,4.788636208,9.256335258,2024-06-04 14:06:38.939827
15.97982678,0.6538388133,4.788636208,9.256335258,2024-06-04 14:06:38.979827
16.01982678,0.6538388133,4.788636208,9.256335258,2024-06-04 14:06:39.019827
16.05982678,0.6538388133,4.788636208,9.256335258,2024-06-04 14:06:39.059827
16.09982678,0.6538388133,4.788636208,9.256335258,2024-06-04 14:06:39.099827
16.13982678,0.6538388133,4.788636208,9.256335258,2024-06-04 14:06:39.139827
16.17982678,0.6538388133,4.788636208,9.256335258,2024-06-04 14:06:39.179827
16.21982678,0.6538388133,4.788636208,9.256335258,2024-06-04 14:06:39.219827
16.25982678,2.704487801,5.108377457,12.7381916,2024-06-04 14:06:39.259827
16.29982678,0.2407777756,2.924926519,5.037788868,2024-06-04 14:06:39.299827
16.33982678,0.2407777756,2.924926519,5.037788868,2024-06-04 14:06:39.339827
16.37982678,-1.196411371,4.277170658,7.836793423,2024-06-04 14:06:39.379827
16.41982678,1.280459166,5.729912758,6.687041759,2024-06-04 14:06:39.419827
16.45982678,0.8587242365,5.274977684,6.606882572,2024-06-04 14:06:39.459827
16.49982678,1.106680512,5.389832973,8.012965202,2024-06-04 14:06:39.499827
16.53982678,1.116251707,5.751448154,6.25094986,2024-06-04 14:06:39.539827
16.57982678,-0.1582254022,5.062913418,7.628617764,2024-06-04 14:06:39.579827
16.61982678,-0.1582254022,5.062913418,7.628617764,2024-06-04 14:06:39.619827
16.65982678,-0.1582254022,5.062913418,7.628617764,2024-06-04 14:06:39.659827
16.69982678,-0.1582254022,5.062913418,7.628617764,2024-06-04 14:06:39.699827
16.73982678,-1.155733347,3.471088409,13.23141193,2024-06-04 14:06:39.739827
16.77982678,-1.155733347,3.471088409,13.23141193,2024-06-04 14:06:39.779827
16.81982678,-1.155733347,3.471088409,13.23141193,2024-06-04 14:06:39.819827
16.85982678,-1.155733347,3.471088409,13.23141193,2024-06-04 14:06:39.859827
16.89982678,-1.155733347,3.471088409,13.23141193,2024-06-04 14:06:39.899827
16.93982678,-1.155733347,3.471088409,13.23141193,2024-06-04 14:06:39.939827
16.97982678,0.7725825906,2.678166628,8.717351913,2024-06-04 14:06:39.979827
17.01982678,0.7725825906,2.678166628,8.717351913,2024-06-04 14:06:40.019827
17.05982678,0.7725825906,2.678166628,8.717351913,2024-06-04 14:06:40.059827
17.09982678,0.7725825906,2.678166628,8.717351913,2024-06-04 14:06:40.099827
17.13982678,0.7725825906,2.678166628,8.717351913,2024-06-04 14:06:40.139827
17.17982678,0.7725825906,2.678166628,8.717351913,2024-06-04 14:06:40.179827
17.21982678,0.7725825906,2.678166628,8.717351913,2024-06-04 14:06:40.219827
17.25982678,0.7725825906,2.678166628,8.717351913,2024-06-04 14:06:40.259827
17.29982678,0.7725825906,2.678166628,8.717351913,2024-06-04 14:06:40.299827
17.33982678,0.7725825906,2.678166628,8.717351913,2024-06-04 14:06:40.339827
17.37982678,0.7725825906,2.678166628,8.717351913,2024-06-04 14:06:40.379827
17.41982678,0.7725825906,2.678166628,8.717351913,2024-06-04 14:06:40.419827
17.45982678,0.7725825906,2.678166628,8.717351913,2024-06-04 14:06:40.459827
17.49982678,0.7725825906,2.678166628,8.717351913,2024-06-04 14:06:40.499827
17.53982678,0.7725825906,2.678166628,8.717351913,2024-06-04 14:06:40.539827
17.57982678,0.7725825906,2.678166628,8.717351913,2024-06-04 14:06:40.579827
17.61982678,0.7725825906,2.678166628,8.717351913,2024-06-04 14:06:40.619827
17.65982678,0.7725825906,2.678166628,8.717351913,2024-06-04 14:06:40.659827
17.69982678,0.7725825906,2.678166628,8.717351913,2024-06-04 14:06:40.699827
17.73982678,0.7725825906,2.678166628,8.717351913,2024-06-04 14:06:40.739827
17.77982678,0.7725825906,2.678166628,8.717351913,2024-06-04 14:06:40.779827
17.81982678,0.7725825906,2.678166628,8.717351913,2024-06-04 14:06:40.819827
17.85982678,0.7725825906,2.678166628,8.717351913,2024-06-04 14:06:40.859827
17.89982678,0.7725825906,2.678166628,8.717351913,2024-06-04 14:06:40.899827
17.93982678,-0.4396811724,4.244867325,7.6896348,2024-06-04 14:06:40.939827
17.97982678,-0.2000997961,3.471088409,10.25862885,2024-06-04 14:06:40.979827
18.01982678,0.561715126,3.698705673,8.634500504,2024-06-04 14:06:41.019827
18.05982678,-0.2850449979,2.751147747,8.018946648,2024-06-04 14:06:41.059827
18.09982678,-0.03708875179,3.196810961,7.327720165,2024-06-04 14:06:41.099827
18.13982678,0.6828517914,4.781457901,6.895516872,2024-06-04 14:06:41.139827
18.17982678,0.7091727853,5.679663658,8.145766258,2024-06-04 14:06:41.179827
18.21982678,0.9978070259,5.574379444,8.487341881,2024-06-04 14:06:41.219827
18.25982678,0.9978070259,5.574379444,8.487341881,2024-06-04 14:06:41.259827
18.29982678,0.9978070259,5.574379444,8.487341881,2024-06-04 14:06:41.299827
18.33982678,0.9978070259,5.574379444,8.487341881,2024-06-04 14:06:41.339827
18.37982678,0.9978070259,5.574379444,8.487341881,2024-06-04 14:06:41.379827
18.41982678,0.9978070259,5.574379444,8.487341881,2024-06-04 14:06:41.419827
18.45982678,0.9978070259,5.574379444,8.487341881,2024-06-04 14:06:41.459827
18.49982678,0.9978070259,5.574379444,8.487341881,2024-06-04 14:06:41.499827
18.53982678,0.9978070259,5.574379444,8.487341881,2024-06-04 14:06:41.539827
18.57982678,0.9978070259,5.574379444,8.487341881,2024-06-04 14:06:41.579827
18.61982678,0.9978070259,5.574379444,8.487341881,2024-06-04 14:06:41.619827
18.65982678,0.9978070259,5.574379444,8.487341881,2024-06-04 14:06:41.659827
18.69982678,0.9978070259,5.574379444,8.487341881,2024-06-04 14:06:41.699827
18.73982678,0.9978070259,5.574379444,8.487341881,2024-06-04 14:06:41.739827
18.77982678,0.9978070259,5.574379444,8.487341881,2024-06-04 14:06:41.779827
18.81982678,0.9978070259,5.574379444,8.487341881,2024-06-04 14:06:41.819827
18.85982678,0.9978070259,5.574379444,8.487341881,2024-06-04 14:06:41.859827
18.89982678,0.9978070259,5.574379444,8.487341881,2024-06-04 14:06:41.899827
18.93982678,0.9978070259,5.574379444,8.487341881,2024-06-04 14:06:41.939827
18.97982678,0.9978070259,5.574379444,8.487341881,2024-06-04 14:06:41.979827
19.01982678,0.9978070259,5.574379444,8.487341881,2024-06-04 14:06:42.019827
19.05982678,0.9978070259,5.574379444,8.487341881,2024-06-04 14:06:42.059827
19.09982678,0.9978070259,5.574379444,8.487341881,2024-06-04 14:06:42.099827
19.13982678,0.9978070259,5.574379444,8.487341881,2024-06-04 14:06:42.139827
19.17982678,0.9978070259,5.574379444,8.487341881,2024-06-04 14:06:42.179827
19.21982678,0.9978070259,5.574379444,8.487341881,2024-06-04 14:06:42.219827
19.25982678,0.9978070259,5.574379444,8.487341881,2024-06-04 14:06:42.259827
19.29982678,0.9978070259,5.574379444,8.487341881,2024-06-04 14:06:42.299827
19.33982678,0.9978070259,5.574379444,8.487341881,2024-06-04 14:06:42.339827
19.37982678,0.9978070259,5.574379444,8.487341881,2024-06-04 14:06:42.379827
19.41982678,0.9978070259,5.574379444,8.487341881,2024-06-04 14:06:42.419827
19.45982678,0.9978070259,5.574379444,8.487341881,2024-06-04 14:06:42.459827
19.49982678,0.9978070259,5.574379444,8.487341881,2024-06-04 14:06:42.499827
19.53982678,0.9978070259,5.574379444,8.487341881,2024-06-04 14:06:42.539827
19.57982678,1.701895118,4.797011375,8.343473434,2024-06-04 14:06:42.579827
19.61982678,0.9293124676,2.525923491,14.29143238,2024-06-04 14:06:42.619827
19.65982678,4.388436794,3.055335522,13.03041458,2024-06-04 14:06:42.659827
19.69982678,3.280559778,3.844667673,5.448457241,2024-06-04 14:06:42.699827
19.73982678,-0.1354935765,3.734597921,2.875873804,2024-06-04 14:06:42.739827
19.77982678,-0.2587239444,4.013660908,5.690431118,2024-06-04 14:06:42.779827
19.81982678,1.98813653,4.721637249,7.79372263,2024-06-04 14:06:42.819827
19.85982678,2.300997972,5.114359379,7.32891655,2024-06-04 14:06:42.859827
19.89982678,0.6888338327,4.866403103,6.775576591,2024-06-04 14:06:42.899827
19.93982678,0.6888338327,4.866403103,6.775576591,2024-06-04 14:06:42.939827
19.97982678,1.390529037,5.030610561,9.0418787,2024-06-04 14:06:42.979827
20.01982678,1.390529037,5.030610561,9.0418787,2024-06-04 14:06:43.019827
20.05982678,1.390529037,5.030610561,9.0418787,2024-06-04 14:06:43.059827
20.09982678,1.700698733,6.005386829,9.391530037,2024-06-04 14:06:43.099827
20.13982678,1.942672849,5.297709465,10.02622604,2024-06-04 14:06:43.139827
20.17982678,-0.7701897621,2.345265388,14.56451321,2024-06-04 14:06:43.179827
20.21982678,1.372582912,3.684348583,10.64686394,2024-06-04 14:06:43.219827
20.25982678,0.04546362907,3.61615324,9.010771751,2024-06-04 14:06:43.259827
20.29982678,0.7151548862,3.539283752,9.03828907,2024-06-04 14:06:43.299827
20.33982678,0.9559326172,3.803989887,8.379365921,2024-06-04 14:06:43.339827
20.37982678,0.7390831113,3.428017616,7.573283672,2024-06-04 14:06:43.379827
20.41982678,-0.2024926096,2.946461916,7.366304398,2024-06-04 14:06:43.419827
20.45982678,1.044467092,4.628017902,6.412764549,2024-06-04 14:06:43.459827
20.49982678,1.927119493,5.531308651,7.506284714,2024-06-04 14:06:43.499827
20.53982678,1.907976985,5.43649292,7.368697166,2024-06-04 14:06:43.539827
20.57982678,1.930708766,4.92143774,9.451350212,2024-06-04 14:06:43.579827
20.61982678,1.930708766,4.92143774,9.451350212,2024-06-04 14:06:43.619827
20.65982678,1.930708766,4.92143774,9.451350212,2024-06-04 14:06:43.659827
20.69982678,1.930708766,4.92143774,9.451350212,2024-06-04 14:06:43.699827
20.73982678,1.930708766,4.92143774,9.451350212,2024-06-04 14:06:43.739827
20.77982678,1.930708766,4.92143774,9.451350212,2024-06-04 14:06:43.779827
20.81982678,1.930708766,4.92143774,9.451350212,2024-06-04 14:06:43.819827
20.85982678,1.930708766,4.92143774,9.451350212,2024-06-04 14:06:43.859827
20.89982678,1.930708766,4.92143774,9.451350212,2024-06-04 14:06:43.899827
20.93982678,1.930708766,4.92143774,9.451350212,2024-06-04 14:06:43.939827
20.97982678,1.930708766,4.92143774,9.451350212,2024-06-04 14:06:43.979827
21.01982678,1.930708766,4.92143774,9.451350212,2024-06-04 14:06:44.019827
21.05982678,1.930708766,4.92143774,9.451350212,2024-06-04 14:06:44.059827
21.09982678,1.930708766,4.92143774,9.451350212,2024-06-04 14:06:44.099827
21.13982678,1.930708766,4.92143774,9.451350212,2024-06-04 14:06:44.139827
21.17982678,1.930708766,4.92143774,9.451350212,2024-06-04 14:06:44.179827
21.21982678,-2.222932339,4.356133461,12.58953762,2024-06-04 14:06:44.219827
21.25982678,-3.363411427,5.873781204,10.45155048,2024-06-04 14:06:44.259827
21.29982678,1.117448211,3.578765392,13.3022995,2024-06-04 14:06:44.299827
21.33982678,0.2730808854,3.541676521,14.3886404,2024-06-04 14:06:44.339827
21.37982678,-0.8706883192,2.575275421,15.38255978,2024-06-04 14:06:44.379827
21.41982678,-1.560718536,2.009970903,7.796115398,2024-06-04 14:06:44.419827
21.45982678,0.09571290761,4.911866665,4.535894394,2024-06-04 14:06:44.459827
21.49982678,-3.808775425,4.039981842,3.903591156,2024-06-04 14:06:44.499827
21.53982678,-1.316351533,3.790829182,4.871188641,2024-06-04 14:06:44.539827
21.57982678,-0.5330012441,4.486841679,7.432106972,2024-06-04 14:06:44.579827
21.61982678,-0.36161533,4.422235489,9.45972538,2024-06-04 14:06:44.619827
21.65982678,-0.2084746659,6.142076492,6.07148838,2024-06-04 14:06:44.659827
21.69982678,-1.508076429,5.029414177,5.92642355,2024-06-04 14:06:44.699827
21.73982678,-1.524826288,4.947759151,12.81595802,2024-06-04 14:06:44.739827
21.77982678,-0.1677966863,7.770990849,7.229614735,2024-06-04 14:06:44.779827
21.81982678,0.6768696904,7.9782691,10.9869442,2024-06-04 14:06:44.819827
21.85982678,-4.567001343,5.479563713,6.485745907,2024-06-04 14:06:44.859827
21.89982678,-4.567001343,5.479563713,6.485745907,2024-06-04 14:06:44.899827
21.93982678,-4.567001343,5.479563713,6.485745907,2024-06-04 14:06:44.939827
21.97982678,-1.582253933,4.668695927,8.506484032,2024-06-04 14:06:44.979827
22.01982678,-0.7187440991,5.733502388,3.072085142,2024-06-04 14:06:45.019827
22.05982678,-0.8491529226,5.228317261,6.999604225,2024-06-04 14:06:45.059827
22.09982678,-1.340279818,4.471288204,6.448657036,2024-06-04 14:06:45.099827
22.13982678,-1.764407635,4.663910389,5.580361366,2024-06-04 14:06:45.139827
22.17982678,-1.178465128,5.276174068,7.485945702,2024-06-04 14:06:45.179827
22.21982678,-2.912962437,3.648456335,8.939884186,2024-06-04 14:06:45.219827
22.25982678,-3.860221148,4.047160625,12.29372501,2024-06-04 14:06:45.259827
22.29982678,-3.860221148,4.047160625,12.29372501,2024-06-04 14:06:45.299827
22.33982678,-3.860221148,4.047160625,12.29372501,2024-06-04 14:06:45.339827
22.37982678,-3.860221148,4.047160625,12.29372501,2024-06-04 14:06:45.379827
22.41982678,-3.860221148,4.047160625,12.29372501,2024-06-04 14:06:45.419827
22.45982678,-3.860221148,4.047160625,12.29372501,2024-06-04 14:06:45.459827
22.49982678,-3.860221148,4.047160625,12.29372501,2024-06-04 14:06:45.499827
22.53982678,-3.860221148,4.047160625,12.29372501,2024-06-04 14:06:45.539827
22.57982678,-3.860221148,4.047160625,12.29372501,2024-06-04 14:06:45.579827
22.61982678,-3.860221148,4.047160625,12.29372501,2024-06-04 14:06:45.619827
22.65982678,-3.860221148,4.047160625,12.29372501,2024-06-04 14:06:45.659827
22.69982678,-3.860221148,4.047160625,12.29372501,2024-06-04 14:06:45.699827
22.73982678,-3.860221148,4.047160625,12.29372501,2024-06-04 14:06:45.739827
22.77982678,-3.860221148,4.047160625,12.29372501,2024-06-04 14:06:45.779827
22.81982678,-3.860221148,4.047160625,12.29372501,2024-06-04 14:06:45.819827
22.85982678,-3.860221148,4.047160625,12.29372501,2024-06-04 14:06:45.859827
22.89982678,-3.860221148,4.047160625,12.29372501,2024-06-04 14:06:45.899827
22.93982678,1.200000525,6.303891182,4.204189301,2024-06-04 14:06:45.939827
22.97982678,6.264110565,5.495416164,13.29751396,2024-06-04 14:06:45.979827
23.01982678,5.616253853,4.220939159,13.19193077,2024-06-04 14:06:46.019827
23.05982678,3.419642687,4.198207378,6.490531445,2024-06-04 14:06:46.059827
23.09982678,0.5928218365,3.435195923,5.818746567,2024-06-04 14:06:46.099827
23.13982678,1.173679471,4.966004372,5.949155331,2024-06-04 14:06:46.139827
23.17982678,2.645863533,5.231906891,7.269095898,2024-06-04 14:06:46.179827
23.21982678,2.285444736,4.980361462,8.792725563,2024-06-04 14:06:46.219827
23.25982678,2.473281384,5.417350292,6.039185047,2024-06-04 14:06:46.259827
23.29982678,2.114058733,5.556433201,6.256932259,2024-06-04 14:06:46.299827
23.33982678,2.4158535,5.747859001,7.319345474,2024-06-04 14:06:46.339827
23.37982678,2.30339098,5.705984592,7.955537319,2024-06-04 14:06:46.379827
23.41982678,2.118844509,5.359922886,9.664610863,2024-06-04 14:06:46.419827
23.45982678,1.329512119,6.574579239,7.302595615,2024-06-04 14:06:46.459827
23.49982678,2.740380049,7.981858253,7.211668491,2024-06-04 14:06:46.499827
23.53982678,0.5246263742,4.136891365,12.55484104,2024-06-04 14:06:46.539827
23.57982678,0.4935196638,3.968197346,11.38953686,2024-06-04 14:06:46.579827
23.61982678,0.3699901998,4.185046673,10.4599247,2024-06-04 14:06:46.619827
23.65982678,1.735394597,3.689134359,10.62293625,2024-06-04 14:06:46.659827
23.69982678,0.4289134443,3.778865099,7.41176796,2024-06-04 14:06:46.699827
23.73982678,-0.3424727321,3.475873947,6.889534473,2024-06-04 14:06:46.739827
23.77982678,-0.2611167729,3.1405797,6.757630348,2024-06-04 14:06:46.779827
23.81982678,1.972583175,4.630411148,7.959126472,2024-06-04 14:06:46.819827
23.85982678,0.7558328509,3.637688637,7.977072716,2024-06-04 14:06:46.859827
23.89982678,1.209870934,5.248656273,7.327720165,2024-06-04 14:06:46.899827
23.93982678,1.4479568,4.157529354,9.335298538,2024-06-04 14:06:46.939827
23.97982678,0.8946165442,4.516751766,7.434499741,2024-06-04 14:06:46.979827
24.01982678,0.8946165442,4.516751766,7.434499741,2024-06-04 14:06:47.019827
24.05982678,0.8946165442,4.516751766,7.434499741,2024-06-04 14:06:47.059827
24.09982678,0.8946165442,4.516751766,7.434499741,2024-06-04 14:06:47.099827
24.13982678,0.8946165442,4.516751766,7.434499741,2024-06-04 14:06:47.139827
24.17982678,0.8946165442,4.516751766,7.434499741,2024-06-04 14:06:47.179827
24.21982678,0.8946165442,4.516751766,7.434499741,2024-06-04 14:06:47.219827
24.25982678,0.8946165442,4.516751766,7.434499741,2024-06-04 14:06:47.259827
24.29982678,0.8946165442,4.516751766,7.434499741,2024-06-04 14:06:47.299827
24.33982678,0.8946165442,4.516751766,7.434499741,2024-06-04 14:06:47.339827
24.37982678,0.8946165442,4.516751766,7.434499741,2024-06-04 14:06:47.379827
24.41982678,0.8946165442,4.516751766,7.434499741,2024-06-04 14:06:47.419827
24.45982678,0.8946165442,4.516751766,7.434499741,2024-06-04 14:06:47.459827
24.49982678,0.8946165442,4.516751766,7.434499741,2024-06-04 14:06:47.499827
24.53982678,0.8946165442,4.516751766,7.434499741,2024-06-04 14:06:47.539827
24.57982678,1.183250785,4.854438782,7.590033531,2024-06-04 14:06:47.579827
24.61982678,3.677170277,5.591129303,8.550751686,2024-06-04 14:06:47.619827
24.65982678,-0.5210371017,5.39701128,5.952744484,2024-06-04 14:06:47.659827
24.69982678,2.26241374,5.741877079,6.889534473,2024-06-04 14:06:47.699827
24.73982678,2.054238319,2.600399971,19.77009964,2024-06-04 14:06:47.739827
24.77982678,-0.4528416991,3.820739508,10.26102161,2024-06-04 14:06:47.779827
24.81982678,0.2491526604,3.293720484,9.668199539,2024-06-04 14:06:47.819827
24.85982678,0.2072782665,2.775076151,8.793922424,2024-06-04 14:06:47.859827
24.89982678,0.8132606149,2.739183664,9.169894218,2024-06-04 14:06:47.899827
24.93982678,1.125823021,3.241078377,8.109873772,2024-06-04 14:06:47.939827
24.97982678,0.5868397355,3.569194078,7.642974854,2024-06-04 14:06:47.979827
25.01982678,0.908973515,3.931108475,7.77936554,2024-06-04 14:06:48.019827
25.05982678,1.223031521,5.08684206,7.161418915,2024-06-04 14:06:48.059827
25.09982678,0.7953144312,4.776672363,8.054839134,2024-06-04 14:06:48.099827
25.13982678,1.318744421,4.880760193,8.712566376,2024-06-04 14:06:48.139827
25.17982678,1.028913736,5.431707382,8.992825508,2024-06-04 14:06:48.179827
25.21982678,1.864906192,5.649753571,9.641879082,2024-06-04 14:06:48.219827
25.25982678,3.014657497,5.989833355,8.236992836,2024-06-04 14:06:48.259827
25.29982678,2.026720762,4.248456478,10.92353439,2024-06-04 14:06:48.299827
25.33982678,3.405285835,2.853141785,10.16171932,2024-06-04 14:06:48.339827
25.37982678,4.028017998,3.548855066,8.336295128,2024-06-04 14:06:48.379827
25.41982678,2.607578516,2.814856768,9.078967094,2024-06-04 14:06:48.419827
25.45982678,1.662413478,3.292523861,7.992625713,2024-06-04 14:06:48.459827
25.49982678,1.176072359,3.600300789,7.815258026,2024-06-04 14:06:48.499827
25.53982678,1.964208245,3.758526087,6.801897526,2024-06-04 14:06:48.539827
25.57982678,1.823031783,3.981357813,7.57806921,2024-06-04 14:06:48.579827
25.61982678,1.823031783,3.981357813,7.57806921,2024-06-04 14:06:48.619827
25.65982678,1.823031783,3.981357813,7.57806921,2024-06-04 14:06:48.659827
25.69982678,1.823031783,3.981357813,7.57806921,2024-06-04 14:06:48.699827
25.73982678,1.823031783,3.981357813,7.57806921,2024-06-04 14:06:48.739827
25.77982678,1.823031783,3.981357813,7.57806921,2024-06-04 14:06:48.779827
25.81982678,1.823031783,3.981357813,7.57806921,2024-06-04 14:06:48.819827
25.85982678,1.823031783,3.981357813,7.57806921,2024-06-04 14:06:48.859827
25.89982678,1.823031783,3.981357813,7.57806921,2024-06-04 14:06:48.899827
25.93982678,1.823031783,3.981357813,7.57806921,2024-06-04 14:06:48.939827
25.97982678,1.823031783,3.981357813,7.57806921,2024-06-04 14:06:48.979827
26.01982678,1.823031783,3.981357813,7.57806921,2024-06-04 14:06:49.019827
26.05982678,1.823031783,3.981357813,7.57806921,2024-06-04 14:06:49.059827
26.09982678,1.823031783,3.981357813,7.57806921,2024-06-04 14:06:49.099827
26.13982678,1.823031783,3.981357813,7.57806921,2024-06-04 14:06:49.139827
26.17982678,1.823031783,3.981357813,7.57806921,2024-06-04 14:06:49.179827
26.21982678,1.284048438,3.569194078,7.373483181,2024-06-04 14:06:49.219827
26.25982678,1.256531,3.771686792,7.203293324,2024-06-04 14:06:49.259827
26.29982678,1.585843205,4.004089355,8.052446365,2024-06-04 14:06:49.299827
26.33982678,2.092523336,3.647259951,9.386744499,2024-06-04 14:06:49.339827
26.37982678,2.566900492,3.626920938,9.803693771,2024-06-04 14:06:49.379827
26.41982678,2.560918331,4.1129632,10.07557774,2024-06-04 14:06:49.419827
26.45982678,1.130608678,3.011068106,12.64457226,2024-06-04 14:06:49.459827
26.49982678,0.9547362328,1.799103498,12.26979637,2024-06-04 14:06:49.499827
26.53982678,2.32851553,1.695913076,9.863513947,2024-06-04 14:06:49.539827
26.57982678,1.765604019,1.27328074,10.23230743,2024-06-04 14:06:49.579827
26.61982678,1.190429211,1.118644595,10.53051376,2024-06-04 14:06:49.619827
26.65982678,-0.8599206209,2.43021059,8.677571297,2024-06-04 14:06:49.659827
26.69982678,-0.8395816684,2.389532566,8.971290588,2024-06-04 14:06:49.699827
26.73982678,-0.5868397355,3.021835804,8.40688324,2024-06-04 14:06:49.739827
26.77982678,-0.08614161611,3.211168051,6.649953365,2024-06-04 14:06:49.779827
26.81982678,-0.3975076675,3.508177042,6.412764549,2024-06-04 14:06:49.819827
26.85982678,-0.5126622319,3.990929127,6.914659023,2024-06-04 14:06:49.859827
26.89982678,-0.8252246976,4.581357956,8.429615021,2024-06-04 14:06:49.899827
26.93982678,-2.600399971,3.628117323,8.720941544,2024-06-04 14:06:49.939827
26.97982678,-2.302194595,4.097409725,9.045467377,2024-06-04 14:06:49.979827
27.01982678,-3.351447105,4.936991215,9.100502968,2024-06-04 14:06:50.019827
27.05982678,-4.285545349,5.834300041,10.99890804,2024-06-04 14:06:50.059827
27.09982678,-4.35852623,5.062913418,12.29492092,2024-06-04 14:06:50.099827
27.13982678,-2.865106106,3.546462297,9.946066856,2024-06-04 14:06:50.139827
27.17982678,-3.160918713,-0.07896314561,6.138487339,2024-06-04 14:06:50.179827
27.21982678,-0.8778668046,0.9511470199,1.418046474,2024-06-04 14:06:50.219827
27.25982678,1.227817178,0.1172483116,6.804290295,2024-06-04 14:06:50.259827
27.29982678,1.227817178,0.1172483116,6.804290295,2024-06-04 14:06:50.299827
27.33982678,1.227817178,0.1172483116,6.804290295,2024-06-04 14:06:50.339827
27.37982678,1.227817178,0.1172483116,6.804290295,2024-06-04 14:06:50.379827
27.41982678,1.227817178,0.1172483116,6.804290295,2024-06-04 14:06:50.419827
27.45982678,1.227817178,0.1172483116,6.804290295,2024-06-04 14:06:50.459827
27.49982678,1.227817178,0.1172483116,6.804290295,2024-06-04 14:06:50.499827
27.53982678,1.227817178,0.1172483116,6.804290295,2024-06-04 14:06:50.539827
27.57982678,1.227817178,0.1172483116,6.804290295,2024-06-04 14:06:50.579827
27.61982678,1.227817178,0.1172483116,6.804290295,2024-06-04 14:06:50.619827
27.65982678,1.227817178,0.1172483116,6.804290295,2024-06-04 14:06:50.659827
27.69982678,1.227817178,0.1172483116,6.804290295,2024-06-04 14:06:50.699827
27.73982678,1.227817178,0.1172483116,6.804290295,2024-06-04 14:06:50.739827
27.77982678,1.227817178,0.1172483116,6.804290295,2024-06-04 14:06:50.779827
27.81982678,1.227817178,0.1172483116,6.804290295,2024-06-04 14:06:50.819827
27.85982678,1.227817178,0.1172483116,6.804290295,2024-06-04 14:06:50.859827
27.89982678,-9.043074608,-4.932205677,5.34676218,2024-06-04 14:06:50.899827
27.93982678,-10.83978558,-1.231406331,8.287241936,2024-06-04 14:06:50.939827
27.97982678,-8.640482903,-1.452742457,6.799504757,2024-06-04 14:06:50.979827
28.01982678,-7.418946743,-2.625524759,1.101894855,2024-06-04 14:06:51.019827
28.05982678,-0.385543555,-3.905983925,-5.423332691,2024-06-04 14:06:51.059827
28.09982678,-3.196810961,-7.442874908,4.158725739,2024-06-04 14:06:51.099827
28.13982678,-4.871188641,-1.901994944,8.725727081,2024-06-04 14:06:51.139827
28.17982678,-6.221039772,-6.351747513,7.769794464,2024-06-04 14:06:51.179827
28.21982678,-4.142873287,-6.954140663,-3.665206194,2024-06-04 14:06:51.219827
28.25982678,-4.76949358,-13.44467258,8.082356453,2024-06-04 14:06:51.259827
28.29982678,-4.389633179,-4.994718075,-4.614857674,2024-06-04 14:06:51.299827
28.33982678,-5.747859001,-11.86959648,0.8012964725,2024-06-04 14:06:51.339827
28.37982678,-15.41516209,-10.57747269,0.1893320978,2024-06-04 14:06:51.379827
28.41982678,-1.243370414,-0.6203392744,0.2982055247,2024-06-04 14:06:51.419827
28.45982678,1.688734531,-4.847260475,-3.978965044,2024-06-04 14:06:51.459827
28.49982678,-2.277069807,-6.985247612,-1.537986755,2024-06-04 14:06:51.499827
28.53982678,-3.40648222,-20.94258118,-1.221835017,2024-06-04 14:06:51.539827
28.57982678,1.076770186,-9.692128181,0.2276172489,2024-06-04 14:06:51.579827
28.61982678,2.161915302,-10.63370419,-3.359822035,2024-06-04 14:06:51.619827
28.65982678,-2.167897224,-10.28016472,4.73360157,2024-06-04 14:06:51.659827
28.69982678,-2.682952404,-11.48644638,-1.185643673,2024-06-04 14:06:51.699827
28.73982678,0.6780661345,-11.01446152,1.636092424,2024-06-04 14:06:51.739827
28.77982678,-2.233700037,-14.6198473,-0.3173480928,2024-06-04 14:06:51.779827
28.81982678,-3.126222849,-12.84108257,1.954637051,2024-06-04 14:06:51.819827
28.85982678,0.2635096014,-11.98594761,5.413761139,2024-06-04 14:06:51.859827
28.89982678,5.068895817,-10.97258759,-2.771486759,2024-06-04 14:06:51.899827
28.93982678,5.068895817,-10.97258759,-2.771486759,2024-06-04 14:06:51.939827
28.97982678,5.068895817,-10.97258759,-2.771486759,2024-06-04 14:06:51.979827
29.01982678,5.068895817,-10.97258759,-2.771486759,2024-06-04 14:06:52.019827
29.05982678,5.068895817,-10.97258759,-2.771486759,2024-06-04 14:06:52.059827
29.09982678,5.068895817,-10.97258759,-2.771486759,2024-06-04 14:06:52.099827
29.13982678,5.068895817,-10.97258759,-2.771486759,2024-06-04 14:06:52.139827
29.17982678,5.068895817,-10.97258759,-2.771486759,2024-06-04 14:06:52.179827
29.21982678,5.068895817,-10.97258759,-2.771486759,2024-06-04 14:06:52.219827
29.25982678,5.068895817,-10.97258759,-2.771486759,2024-06-04 14:06:52.259827
29.29982678,5.068895817,-10.97258759,-2.771486759,2024-06-04 14:06:52.299827
29.33982678,5.068895817,-10.97258759,-2.771486759,2024-06-04 14:06:52.339827
29.37982678,5.068895817,-10.97258759,-2.771486759,2024-06-04 14:06:52.379827
29.41982678,5.068895817,-10.97258759,-2.771486759,2024-06-04 14:06:52.419827
29.45982678,5.068895817,-10.97258759,-2.771486759,2024-06-04 14:06:52.459827
29.49982678,5.068895817,-10.97258759,-2.771486759,2024-06-04 14:06:52.499827
29.53982678,5.068895817,-10.97258759,-2.771486759,2024-06-04 14:06:52.539827
29.57982678,-0.7438687682,-10.11505985,9.372386932,2024-06-04 14:06:52.579827
29.61982678,-0.01914258115,-8.337491035,-0.9726824164,2024-06-04 14:06:52.619827
29.65982678,2.684148788,-8.216653824,-2.580060959,2024-06-04 14:06:52.659827
29.69982678,-0.8575277925,-8.282456398,-1.292423368,2024-06-04 14:06:52.699827
29.73982678,-2.651845694,-10.84696388,1.363011599,2024-06-04 14:06:52.739827
29.77982678,-0.4636093974,-10.92353439,2.341675997,2024-06-04 14:06:52.779827
29.81982678,-0.1438684613,-9.541379929,4.770689964,2024-06-04 14:06:52.819827
29.85982678,-4.431806564,-11.050354,-6.030810356,2024-06-04 14:06:52.859827
29.89982678,1.292423368,-10.82752228,-1.826620936,2024-06-04 14:06:52.899827
29.93982678,-1.244566917,-12.81715488,10.66720295,2024-06-04 14:06:52.939827
29.97982678,-3.729812384,-15.1408844,3.353840113,2024-06-04 14:06:52.979827
30.01982678,0.5330012441,-12.34158134,-4.332205296,2024-06-04 14:06:53.019827
30.05982678,3.73699069,-12.50818157,-1.36899364,2024-06-04 14:06:53.059827
30.09982678,0.2539383173,-14.41137218,-0.06460621208,2024-06-04 14:06:53.099827
30.13982678,0.5724828243,-9.728020668,-2.017149448,2024-06-04 14:06:53.139827
30.17982678,-0.2168495506,-7.446464062,-0.9559326172,2024-06-04 14:06:53.179827
30.21982678,0.3173480928,-4.703691006,-1.32113719,2024-06-04 14:06:53.219827
30.25982678,2.697309256,-1.80508554,-0.8347960114,2024-06-04 14:06:53.259827
30.29982678,2.321336985,-3.73699069,0.3568296731,2024-06-04 14:06:53.299827
30.33982678,2.636292458,-7.275078297,1.610967875,2024-06-04 14:06:53.339827
30.37982678,1.856531262,-16.28704643,12.5428772,2024-06-04 14:06:53.379827
30.41982678,-3.753740549,-14.1490593,8.272885323,2024-06-04 14:06:53.419827
30.45982678,0.7869395614,-2.799004316,2.203789711,2024-06-04 14:06:53.459827
30.49982678,6.296712875,-14.82563019,-2.419442892,2024-06-04 14:06:53.499827
30.53982678,-1.543968797,-17.71825409,1.189232826,2024-06-04 14:06:53.539827
30.57982678,4.000500202,-4.141676903,-5.39701128,2024-06-04 14:06:53.579827
30.61982678,4.000500202,-4.141676903,-5.39701128,2024-06-04 14:06:53.619827
30.65982678,4.000500202,-4.141676903,-5.39701128,2024-06-04 14:06:53.659827
30.69982678,4.000500202,-4.141676903,-5.39701128,2024-06-04 14:06:53.699827
30.73982678,4.000500202,-4.141676903,-5.39701128,2024-06-04 14:06:53.739827
30.77982678,1.537986755,-8.880064011,-0.2371885478,2024-06-04 14:06:53.779827
30.81982678,1.537986755,-8.880064011,-0.2371885478,2024-06-04 14:06:53.819827
30.85982678,1.537986755,-8.880064011,-0.2371885478,2024-06-04 14:06:53.859827
30.89982678,1.537986755,-8.880064011,-0.2371885478,2024-06-04 14:06:53.899827
30.93982678,1.537986755,-8.880064011,-0.2371885478,2024-06-04 14:06:53.939827
30.97982678,1.537986755,-8.880064011,-0.2371885478,2024-06-04 14:06:53.979827
31.01982678,1.537986755,-8.880064011,-0.2371885478,2024-06-04 14:06:54.019827
31.05982678,1.537986755,-8.880064011,-0.2371885478,2024-06-04 14:06:54.059827
31.09982678,1.537986755,-8.880064011,-0.2371885478,2024-06-04 14:06:54.099827
31.13982678,1.537986755,-8.880064011,-0.2371885478,2024-06-04 14:06:54.139827
31.17982678,1.537986755,-8.880064011,-0.2371885478,2024-06-04 14:06:54.179827
31.21982678,1.537986755,-8.880064011,-0.2371885478,2024-06-04 14:06:54.219827
31.25982678,3.839882135,-12.48903847,-0.8539385796,2024-06-04 14:06:54.259827
31.29982678,-0.6948158741,-7.774580002,0.1749751568,2024-06-04 14:06:54.299827
31.33982678,-0.4600201547,-6.617650032,-4.602893353,2024-06-04 14:06:54.339827
31.37982678,-0.4085744619,-5.402993679,-1.529611826,2024-06-04 14:06:54.379827
31.41982678,2.845963478,-2.239681959,-1.147358418,2024-06-04 14:06:54.419827
31.45982678,2.120040894,-2.537887573,1.249352574,2024-06-04 14:06:54.459827
31.49982678,1.582253933,-7.986643791,3.128615618,2024-06-04 14:06:54.499827
31.53982678,-0.8659027219,-25.77907562,19.98694801,2024-06-04 14:06:54.539827
31.57982678,0.3293122053,-6.519245148,4.147658825,2024-06-04 14:06:54.579827
31.61982678,5.303691387,-11.13320541,0.2108674943,2024-06-04 14:06:54.619827
31.65982678,2.473281384,-19.01905251,2.979961395,2024-06-04 14:06:54.659827
31.69982678,5.324030399,-1.687538147,-7.942376614,2024-06-04 14:06:54.699827
31.73982678,3.957429647,-6.459424496,-1.528415442,2024-06-04 14:06:54.739827
31.77982678,-0.752243638,-17.88006783,-0.2324029058,2024-06-04 14:06:54.779827
31.81982678,-2.837588549,-10.23828983,-0.8288139701,2024-06-04 14:06:54.819827
31.85982678,-0.2036890239,-7.670492172,4.124927044,2024-06-04 14:06:54.859827
31.89982678,-0.4229314029,-9.161520004,-2.825624466,2024-06-04 14:06:54.899827
31.93982678,1.760818362,-9.005986214,-0.1869392693,2024-06-04 14:06:54.939827
31.97982678,1.248156071,-8.494520187,3.101098061,2024-06-04 14:06:54.979827
32.01982678,-1.133001566,-10.27896786,1.336690545,2024-06-04 14:06:55.019827
32.05982678,0.9894321561,-9.427422523,-2.190629244,2024-06-04 14:06:55.059827
32.09982678,-1.585843205,-11.24447155,3.241078377,2024-06-04 14:06:55.099827
32.13982678,0.3125624657,-11.41825008,-1.616949916,2024-06-04 14:06:55.139827
32.17982678,1.481755376,-11.37398338,2.603989124,2024-06-04 14:06:55.179827
32.21982678,-1.960619092,-13.05673599,3.497409344,2024-06-04 14:06:55.219827
32.25982678,-1.960619092,-13.05673599,3.497409344,2024-06-04 14:06:55.259827
32.29982678,-1.960619092,-13.05673599,3.497409344,2024-06-04 14:06:55.299827
32.33982678,-1.960619092,-13.05673599,3.497409344,2024-06-04 14:06:55.339827
32.37982678,-1.960619092,-13.05673599,3.497409344,2024-06-04 14:06:55.379827
32.41982678,-1.960619092,-13.05673599,3.497409344,2024-06-04 14:06:55.419827
32.45982678,-1.960619092,-13.05673599,3.497409344,2024-06-04 14:06:55.459827
32.49982678,-1.960619092,-13.05673599,3.497409344,2024-06-04 14:06:55.499827
32.53982678,-1.960619092,-13.05673599,3.497409344,2024-06-04 14:06:55.539827
32.57982678,-1.960619092,-13.05673599,3.497409344,2024-06-04 14:06:55.579827
32.61982678,-1.960619092,-13.05673599,3.497409344,2024-06-04 14:06:55.619827
32.65982678,-1.960619092,-13.05673599,3.497409344,2024-06-04 14:06:55.659827
32.69982678,-1.960619092,-13.05673599,3.497409344,2024-06-04 14:06:55.699827
32.73982678,-1.960619092,-13.05673599,3.497409344,2024-06-04 14:06:55.739827
32.77982678,-1.650449395,-15.98405552,8.264510155,2024-06-04 14:06:55.779827
32.81982678,-1.650449395,-15.98405552,8.264510155,2024-06-04 14:06:55.819827
32.85982678,-1.650449395,-15.98405552,8.264510155,2024-06-04 14:06:55.859827
32.89982678,10.86251736,-6.5288167,-2.971586704,2024-06-04 14:06:55.899827
32.93982678,-4.561018944,-23.77897453,7.200900555,2024-06-04 14:06:55.939827
32.97982678,-6.139683723,-11.802598,2.366800785,2024-06-04 14:06:55.979827
33.01982678,0.4839483798,-8.120641708,-2.365604401,2024-06-04 14:06:56.019827
33.05982678,1.467099428,-8.925527573,3.177668571,2024-06-04 14:06:56.059827
33.09982678,1.266102314,-7.554141045,0.1124626622,2024-06-04 14:06:56.099827
33.13982678,1.488933921,-7.674081326,-0.728315413,2024-06-04 14:06:56.139827
33.17982678,2.621935368,-9.304191589,-4.041178226,2024-06-04 14:06:56.179827
33.21982678,-0.01196411345,-9.839586258,6.063113689,2024-06-04 14:06:56.219827
33.25982678,-3.211168051,-12.11157131,3.037389278,2024-06-04 14:06:56.259827
33.29982678,0.728315413,-10.93190956,-2.182254314,2024-06-04 14:06:56.299827
33.33982678,-1.590628862,-11.59771252,6.290730953,2024-06-04 14:06:56.339827
33.37982678,-2.264806747,-15.09751415,3.536890984,2024-06-04 14:06:56.379827
33.41982678,0.06101697683,-14.23400497,0.9391828775,2024-06-04 14:06:56.419827
33.45982678,5.589932919,-15.04606915,-0.2084746659,2024-06-04 14:06:56.459827
33.49982678,5.243870735,-13.94895935,-2.317747831,2024-06-04 14:06:56.499827
33.53982678,-1.520040631,-10.59900761,0.446859628,2024-06-04 14:06:56.539827
33.57982678,-2.635095835,-9.936494827,-5.962316036,2024-06-04 14:06:56.579827
33.61982678,0.6864410043,-5.141876698,-2.959622622,2024-06-04 14:06:56.619827
33.65982678,2.989532709,-2.08534503,-1.425225019,2024-06-04 14:06:56.659827
33.69982678,3.341576815,-1.221835017,-0.643071115,2024-06-04 14:06:56.699827
33.73982678,3.370589733,-1.854138494,1.221835017,2024-06-04 14:06:56.739827
33.77982678,6.115755558,-8.354241371,2.635095835,2024-06-04 14:06:56.779827
33.81982678,-5.823532104,-26.09911537,16.87627983,2024-06-04 14:06:56.819827
33.85982678,-2.73798728,-7.009175777,4.018446445,2024-06-04 14:06:56.859827
33.89982678,1.082752228,-2.066202402,0.6550351977,2024-06-04 14:06:56.899827
33.93982678,9.535398483,-19.11476517,-2.784647465,2024-06-04 14:06:56.939827
33.97982678,9.535398483,-19.11476517,-2.784647465,2024-06-04 14:06:56.979827
34.01982678,9.535398483,-19.11476517,-2.784647465,2024-06-04 14:06:57.019827
34.05982678,9.535398483,-19.11476517,-2.784647465,2024-06-04 14:06:57.059827
34.09982678,9.535398483,-19.11476517,-2.784647465,2024-06-04 14:06:57.099827
34.13982678,9.535398483,-19.11476517,-2.784647465,2024-06-04 14:06:57.139827
34.17982678,9.535398483,-19.11476517,-2.784647465,2024-06-04 14:06:57.179827
34.21982678,9.535398483,-19.11476517,-2.784647465,2024-06-04 14:06:57.219827
34.25982678,9.535398483,-19.11476517,-2.784647465,2024-06-04 14:06:57.259827
34.29982678,9.535398483,-19.11476517,-2.784647465,2024-06-04 14:06:57.299827
34.33982678,9.535398483,-19.11476517,-2.784647465,2024-06-04 14:06:57.339827
34.37982678,9.535398483,-19.11476517,-2.784647465,2024-06-04 14:06:57.379827
34.41982678,9.535398483,-19.11476517,-2.784647465,2024-06-04 14:06:57.419827
34.45982678,9.535398483,-19.11476517,-2.784647465,2024-06-04 14:06:57.459827
34.49982678,9.535398483,-19.11476517,-2.784647465,2024-06-04 14:06:57.499827
34.53982678,9.535398483,-19.11476517,-2.784647465,2024-06-04 14:06:57.539827
34.57982678,3.404089212,-13.61007595,-3.298506021,2024-06-04 14:06:57.579827
34.61982678,5.393422127,-14.10838127,-1.777568102,2024-06-04 14:06:57.619827
34.65982678,5.135894775,-14.46760368,-1.052842021,2024-06-04 14:06:57.659827
34.69982678,-4.563411713,-12.6625185,-1.462313771,2024-06-04 14:06:57.699827
34.73982678,-0.1725823283,-7.392625332,-4.679463863,2024-06-04 14:06:57.739827
34.77982678,0.2958126962,-4.05912447,-2.122433662,2024-06-04 14:06:57.779827
34.81982678,3.36700058,-0.704387188,-1.234995604,2024-06-04 14:06:57.819827
34.85982678,2.812463999,-1.040877819,-0.01076770201,2024-06-04 14:06:57.859827
34.89982678,3.200400352,-4.365705013,2.694916487,2024-06-04 14:06:57.899827
34.93982678,2.127219439,-18.6359005,10.18086243,2024-06-04 14:06:57.939827
34.97982678,-3.675973892,-12.17886925,7.355237484,2024-06-04 14:06:57.979827
35.01982678,3.733401537,-17.34467316,3.614956856,2024-06-04 14:06:58.019827
35.05982678,-1.645663738,-16.56371689,10.11386299,2024-06-04 14:06:58.059827
35.09982678,4.19581461,2.542972326,-11.99312592,2024-06-04 14:06:58.099827
35.13982678,6.537191391,-2.097309113,-2.699702263,2024-06-04 14:06:58.139827
35.17982678,6.524031162,-12.61466217,5.792425632,2024-06-04 14:06:58.179827
35.21982678,-11.00848007,-16.8595295,-6.994818687,2024-06-04 14:06:58.219827
35.25982678,-1.700698733,-9.507881165,4.671088696,2024-06-04 14:06:58.259827
35.29982678,0.6900302172,-8.860920906,-0.5006981492,2024-06-04 14:06:58.299827
35.33982678,1.582253933,-8.659625053,0.2096710801,2024-06-04 14:06:58.339827
35.37982678,0.8647062778,-6.974479675,0.3388835192,2024-06-04 14:06:58.379827
35.41982678,3.569194078,-7.968697548,-0.6948158741,2024-06-04 14:06:58.419827
35.45982678,-0.03589234129,-10.14257717,-2.080559254,2024-06-04 14:06:58.459827
35.49982678,-3.809971809,-10.90439224,6.63679266,2024-06-04 14:06:58.499827
35.53982678,-0.147457689,-9.956833839,-3.612264872,2024-06-04 14:06:58.539827
35.57982678,-0.513858676,-13.23859024,7.955537319,2024-06-04 14:06:58.579827
35.61982678,-0.513858676,-13.23859024,7.955537319,2024-06-04 14:06:58.619827
35.65982678,-0.513858676,-13.23859024,7.955537319,2024-06-04 14:06:58.659827
35.69982678,-0.513858676,-13.23859024,7.955537319,2024-06-04 14:06:58.699827
35.73982678,-0.513858676,-13.23859024,7.955537319,2024-06-04 14:06:58.739827
35.77982678,0.855134964,-10.3223381,6.120541096,2024-06-04 14:06:58.779827
35.81982678,0.855134964,-10.3223381,6.120541096,2024-06-04 14:06:58.819827
35.85982678,0.855134964,-10.3223381,6.120541096,2024-06-04 14:06:58.859827
35.89982678,0.855134964,-10.3223381,6.120541096,2024-06-04 14:06:58.899827
35.93982678,0.855134964,-10.3223381,6.120541096,2024-06-04 14:06:58.939827
35.97982678,0.855134964,-10.3223381,6.120541096,2024-06-04 14:06:58.979827
36.01982678,0.855134964,-10.3223381,6.120541096,2024-06-04 14:06:59.019827
36.05982678,0.855134964,-10.3223381,6.120541096,2024-06-04 14:06:59.059827
36.09982678,0.855134964,-10.3223381,6.120541096,2024-06-04 14:06:59.099827
36.13982678,0.855134964,-10.3223381,6.120541096,2024-06-04 14:06:59.139827
36.17982678,0.855134964,-10.3223381,6.120541096,2024-06-04 14:06:59.179827
36.21982678,2.19780755,-16.97079468,-6.219843388,2024-06-04 14:06:59.219827
36.25982678,3.341576815,-2.348854542,-5.876173973,2024-06-04 14:06:59.259827
36.29982678,4.402793884,-6.12173748,-0.584446907,2024-06-04 14:06:59.299827
36.33982678,0.7534400225,-20.39641953,-0.5772684813,2024-06-04 14:06:59.339827
36.37982678,-4.490430832,-12.35115242,1.073180914,2024-06-04 14:06:59.379827
36.41982678,-1.172483087,-6.836892605,0.7031907439,2024-06-04 14:06:59.419827
36.45982678,1.694716692,-8.707780838,1.762014747,2024-06-04 14:06:59.459827
36.49982678,1.834995866,-6.490531445,0.6239284873,2024-06-04 14:06:59.499827
36.53982678,3.080759048,-7.099205494,-1.171286702,2024-06-04 14:06:59.539827
36.57982678,-0.7319046259,-11.35214901,-3.638885021,2024-06-04 14:06:59.579827
36.61982678,-1.92353034,-11.39073277,8.027321815,2024-06-04 14:06:59.619827
36.65982678,-1.881655931,-12.56800175,1.173679471,2024-06-04 14:06:59.659827
36.69982678,2.872284412,-10.34148026,-1.254138112,2024-06-04 14:06:59.699827
36.73982678,-4.162314892,-17.14457512,5.038985252,2024-06-04 14:06:59.739827
36.77982678,-1.288834095,-14.33480263,3.559622765,2024-06-04 14:06:59.779827
36.81982678,2.609971285,-12.8889389,-2.437388897,2024-06-04 14:06:59.819827
36.85982678,4.605286121,-16.08934021,-0.8467600942,2024-06-04 14:06:59.859827
36.89982678,2.705684185,-13.88196087,-1.372582912,2024-06-04 14:06:59.899827
36.93982678,-2.544168711,-11.08983612,-0.7893323898,2024-06-04 14:06:59.939827
36.97982678,-1.528415442,-8.767601013,-8.559126854,2024-06-04 14:06:59.979827
37.01982678,1.122233868,-1.467099428,-0.9643075466,2024-06-04 14:07:00.019827
37.05982678,3.952643871,-0.5521438122,-0.537786901,2024-06-04 14:07:00.059827
37.09982678,3.648456335,-0.8994022012,0.4612165689,2024-06-04 14:07:00.099827
37.13982678,3.679563046,-4.927420139,1.57866478,2024-06-04 14:07:00.139827
37.17982678,-1.315155149,-23.79452705,19.10639,2024-06-04 14:07:00.179827
37.21982678,-4.440181732,-9.427422523,5.056931496,2024-06-04 14:07:00.219827
37.25982678,-4.440181732,-9.427422523,5.056931496,2024-06-04 14:07:00.259827
37.29982678,-4.440181732,-9.427422523,5.056931496,2024-06-04 14:07:00.299827
37.33982678,-4.440181732,-9.427422523,5.056931496,2024-06-04 14:07:00.339827
37.37982678,-4.440181732,-9.427422523,5.056931496,2024-06-04 14:07:00.379827
37.41982678,-4.440181732,-9.427422523,5.056931496,2024-06-04 14:07:00.419827
37.45982678,-4.440181732,-9.427422523,5.056931496,2024-06-04 14:07:00.459827
37.49982678,-4.440181732,-9.427422523,5.056931496,2024-06-04 14:07:00.499827
37.53982678,-4.440181732,-9.427422523,5.056931496,2024-06-04 14:07:00.539827
37.57982678,-4.440181732,-9.427422523,5.056931496,2024-06-04 14:07:00.579827
37.61982678,-4.440181732,-9.427422523,5.056931496,2024-06-04 14:07:00.619827
37.65982678,-4.440181732,-9.427422523,5.056931496,2024-06-04 14:07:00.659827
37.69982678,-4.440181732,-9.427422523,5.056931496,2024-06-04 14:07:00.699827
37.73982678,-4.440181732,-9.427422523,5.056931496,2024-06-04 14:07:00.739827
37.77982678,-3.342773199,-12.11994553,-3.900001764,2024-06-04 14:07:00.779827
37.81982678,-3.342773199,-12.11994553,-3.900001764,2024-06-04 14:07:00.819827
37.85982678,-3.342773199,-12.11994553,-3.900001764,2024-06-04 14:07:00.859827
37.89982678,-1.202393413,-14.04586887,5.16221571,2024-06-04 14:07:00.899827
37.93982678,-0.7701897621,-14.1490593,-1.200000525,2024-06-04 14:07:00.939827
37.97982678,4.825725079,-15.0281229,0.2682952285,2024-06-04 14:07:00.979827
38.01982678,7.944769382,-14.98983765,-3.381357431,2024-06-04 14:07:01.019827
38.05982678,-0.2694916427,-9.757930756,3.514159203,2024-06-04 14:07:01.059827
38.09982678,-3.885644913,-9.80249691,-7.514659405,2024-06-04 14:07:01.099827
38.13982678,-0.180957213,-6.293123722,-2.977568626,2024-06-04 14:07:01.139827
38.17982678,3.742972851,-2.322533369,-2.153540373,2024-06-04 14:07:01.179827
38.21982678,3.738187075,-0.8910273314,-0.6334998012,2024-06-04 14:07:01.219827
38.25982678,2.704487801,-2.486441851,1.124626637,2024-06-04 14:07:01.259827
38.29982678,5.357530117,-9.435796738,5.401797295,2024-06-04 14:07:01.299827
38.33982678,-6.739684105,-23.22563362,12.84227943,2024-06-04 14:07:01.339827
38.37982678,-1.116251707,-5.790032387,3.414856911,2024-06-04 14:07:01.379827
38.41982678,4.086641788,-12.67926788,1.242174029,2024-06-04 14:07:01.419827
38.45982678,3.968197346,-21.78335953,7.145865917,2024-06-04 14:07:01.459827
38.49982678,6.678667068,-1.919941068,-7.537391186,2024-06-04 14:07:01.499827
38.53982678,5.429314613,-3.855435371,-0.9161519408,2024-06-04 14:07:01.539827
38.57982678,3.287738323,-15.02453327,2.266003132,2024-06-04 14:07:01.579827
38.61982678,-5.059324265,-14.67847157,-6.466603279,2024-06-04 14:07:01.619827
38.65982678,-1.275673628,-7.479963779,11.55583763,2024-06-04 14:07:01.659827
38.69982678,0.6876373887,-8.926724434,-2.468495607,2024-06-04 14:07:01.699827
38.73982678,1.230209947,-7.57806921,-0.2312064916,2024-06-04 14:07:01.739827
38.77982678,1.782353759,-8.35663414,-0.2491526604,2024-06-04 14:07:01.779827
38.81982678,2.068595171,-9.264710426,0.936490953,2024-06-04 14:07:01.819827
38.85982678,-0.3029911816,-10.26939678,0.1268195957,2024-06-04 14:07:01.859827
38.89982678,-3.394518137,-11.0563364,2.4158535,2024-06-04 14:07:01.899827
38.93982678,1.027717352,-10.75334454,-0.5497509837,2024-06-04 14:07:01.939827
38.97982678,1.027717352,-10.75334454,-0.5497509837,2024-06-04 14:07:01.979827
39.01982678,1.027717352,-10.75334454,-0.5497509837,2024-06-04 14:07:02.019827
39.05982678,1.027717352,-10.75334454,-0.5497509837,2024-06-04 14:07:02.059827
39.09982678,1.027717352,-10.75334454,-0.5497509837,2024-06-04 14:07:02.099827
39.13982678,1.027717352,-10.75334454,-0.5497509837,2024-06-04 14:07:02.139827
39.17982678,1.027717352,-10.75334454,-0.5497509837,2024-06-04 14:07:02.179827
39.21982678,1.027717352,-10.75334454,-0.5497509837,2024-06-04 14:07:02.219827
39.25982678,1.027717352,-10.75334454,-0.5497509837,2024-06-04 14:07:02.259827
39.29982678,1.027717352,-10.75334454,-0.5497509837,2024-06-04 14:07:02.299827
39.33982678,1.027717352,-10.75334454,-0.5497509837,2024-06-04 14:07:02.339827
39.37982678,1.027717352,-10.75334454,-0.5497509837,2024-06-04 14:07:02.379827
39.41982678,1.027717352,-10.75334454,-0.5497509837,2024-06-04 14:07:02.419827
39.45982678,1.027717352,-10.75334454,-0.5497509837,2024-06-04 14:07:02.459827
39.49982678,1.027717352,-10.75334454,-0.5497509837,2024-06-04 14:07:02.499827
39.53982678,1.027717352,-10.75334454,-0.5497509837,2024-06-04 14:07:02.539827
39.57982678,5.03300333,-24.45913315,10.7114706,2024-06-04 14:07:02.579827
39.61982678,1.833799481,-1.282852054,-12.35354519,2024-06-04 14:07:02.619827
39.65982678,4.909473896,-2.575275421,-3.609872103,2024-06-04 14:07:02.659827
39.69982678,5.251049519,-9.425029755,-1.033699393,2024-06-04 14:07:02.699827
39.73982678,-7.809275627,-19.1509552,-6.103791237,2024-06-04 14:07:02.739827
39.77982678,0.1390828192,-8.418847084,5.301298618,2024-06-04 14:07:02.779827
39.81982678,1.663609982,-9.445367813,0.6708876491,2024-06-04 14:07:02.819827
39.85982678,2.30339098,-6.678667068,0.8312067389,2024-06-04 14:07:02.859827
39.89982678,2.918944597,-6.289534092,-1.003789067,2024-06-04 14:07:02.899827
39.93982678,0.8479565382,-9.77378273,-4.467699051,2024-06-04 14:07:02.939827
39.97982678,-1.776371717,-11.96082306,7.362715244,2024-06-04 14:07:02.979827
40.01982678,-3.861417532,-12.22672558,2.128415823,2024-06-04 14:07:03.019827
40.05982678,0.7115656137,-10.62293625,-5.509773254,2024-06-04 14:07:03.059827
40.09982678,0.879063189,-12.64217949,5.252245903,2024-06-04 14:07:03.099827
40.13982678,-1.091127157,-14.50828171,4.69411993,2024-06-04 14:07:03.139827
40.17982678,-0.07776673883,-13.16919899,1.388136268,2024-06-04 14:07:03.179827
40.21982678,4.854438782,-14.23280811,-2.414657116,2024-06-04 14:07:03.219827
40.25982678,6.773183823,-13.08305645,-1.890030742,2024-06-04 14:07:03.259827
40.29982678,0.1280160099,-9.349655151,-3.843471289,2024-06-04 14:07:03.299827
40.33982678,-0.9726824164,-9.454939842,0.5928218365,2024-06-04 14:07:03.339827
40.37982678,0.5198407173,-5.981458187,-3.734597921,2024-06-04 14:07:03.379827
40.41982678,2.013560295,-3.681955814,-0.9439685345,2024-06-04 14:07:03.419827
40.45982678,2.877070189,-2.703291416,-1.174875975,2024-06-04 14:07:03.459827
40.49982678,1.753639936,-4.84845686,0.6011967063,2024-06-04 14:07:03.499827
40.53982678,2.625524759,-10.5233345,7.163811684,2024-06-04 14:07:03.539827
40.57982678,0.7426723242,-20.97608185,12.17139149,2024-06-04 14:07:03.579827
40.61982678,0.7426723242,-20.97608185,12.17139149,2024-06-04 14:07:03.619827
40.65982678,0.7426723242,-20.97608185,12.17139149,2024-06-04 14:07:03.659827
40.69982678,0.7426723242,-20.97608185,12.17139149,2024-06-04 14:07:03.699827
40.73982678,0.7426723242,-20.97608185,12.17139149,2024-06-04 14:07:03.739827
40.77982678,0.7426723242,-20.97608185,12.17139149,2024-06-04 14:07:03.779827
40.81982678,0.7426723242,-20.97608185,12.17139149,2024-06-04 14:07:03.819827
40.85982678,0.7426723242,-20.97608185,12.17139149,2024-06-04 14:07:03.859827
40.89982678,0.7426723242,-20.97608185,12.17139149,2024-06-04 14:07:03.899827
40.93982678,0.7426723242,-20.97608185,12.17139149,2024-06-04 14:07:03.939827
40.97982678,0.7426723242,-20.97608185,12.17139149,2024-06-04 14:07:03.979827
41.01982678,0.7426723242,-20.97608185,12.17139149,2024-06-04 14:07:04.019827
41.05982678,0.7426723242,-20.97608185,12.17139149,2024-06-04 14:07:04.059827
41.09982678,0.7426723242,-20.97608185,12.17139149,2024-06-04 14:07:04.099827
41.13982678,0.7426723242,-20.97608185,12.17139149,2024-06-04 14:07:04.139827
41.17982678,0.7426723242,-20.97608185,12.17139149,2024-06-04 14:07:04.179827
41.21982678,2.189432621,-11.41825008,2.261217356,2024-06-04 14:07:04.219827
41.25982678,-1.452742457,-13.98724461,3.92392993,2024-06-04 14:07:04.259827
41.29982678,-0.6071787477,-13.66511059,4.63639307,2024-06-04 14:07:04.299827
41.33982678,0.6681957245,-12.02782249,-4.038785458,2024-06-04 14:07:04.339827
41.37982678,3.265006542,-12.6625185,0.5940182209,2024-06-04 14:07:04.379827
41.41982678,5.501398563,-12.80519009,-1.330708504,2024-06-04 14:07:04.419827
41.45982678,-1.367797256,-9.637093544,-2.506780863,2024-06-04 14:07:04.459827
41.49982678,-2.918944597,-8.983254433,-6.08584547,2024-06-04 14:07:04.499827
41.53982678,0.6454638839,-4.830510616,-0.446859628,2024-06-04 14:07:04.539827
41.57982678,3.748954773,-2.48883462,-1.818246126,2024-06-04 14:07:04.579827
41.61982678,2.322533369,-2.484049082,-0.1124626622,2024-06-04 14:07:04.619827
41.65982678,3.370589733,-5.71435976,2.530709028,2024-06-04 14:07:04.659827
41.69982678,2.66739893,-20.89233208,13.42074394,2024-06-04 14:07:04.699827
41.73982678,-2.872284412,-11.2755785,8.368597984,2024-06-04 14:07:04.739827
41.77982678,3.557229996,-8.924330711,3.760919094,2024-06-04 14:07:04.779827
41.81982678,3.702294827,-20.87438583,9.004789352,2024-06-04 14:07:04.819827
41.85982678,2.975175858,-1.121037364,-11.78824043,2024-06-04 14:07:04.859827
41.89982678,6.612864494,-4.180261135,-1.770389676,2024-06-04 14:07:04.899827
41.93982678,5.178965569,-12.48544979,1.815853238,2024-06-04 14:07:04.939827
41.97982678,-5.404190063,-15.56232071,-6.614060879,2024-06-04 14:07:04.979827
42.01982678,-1.296012521,-7.611568928,4.909473896,2024-06-04 14:07:05.019827
42.05982678,0.8874381185,-8.539983749,-1.494915962,2024-06-04 14:07:05.059827
42.09982678,3.725026608,-7.090531826,1.680359721,2024-06-04 14:07:05.099827
42.13982678,3.967000723,-7.243971348,-1.313958764,2024-06-04 14:07:05.139827
42.17982678,0.07178468257,-10.72104168,-3.746562004,2024-06-04 14:07:05.179827
42.21982678,-2.306980133,-11.61924744,9.022735596,2024-06-04 14:07:05.219827
42.25982678,-2.306980133,-11.61924744,9.022735596,2024-06-04 14:07:05.259827
42.29982678,-2.306980133,-11.61924744,9.022735596,2024-06-04 14:07:05.299827
42.33982678,-2.306980133,-11.61924744,9.022735596,2024-06-04 14:07:05.339827
42.37982678,-2.306980133,-11.61924744,9.022735596,2024-06-04 14:07:05.379827
42.41982678,-2.306980133,-11.61924744,9.022735596,2024-06-04 14:07:05.419827
42.45982678,-2.306980133,-11.61924744,9.022735596,2024-06-04 14:07:05.459827
42.49982678,-2.306980133,-11.61924744,9.022735596,2024-06-04 14:07:05.499827
42.53982678,-2.306980133,-11.61924744,9.022735596,2024-06-04 14:07:05.539827
42.57982678,-2.306980133,-11.61924744,9.022735596,2024-06-04 14:07:05.579827
42.61982678,-2.306980133,-11.61924744,9.022735596,2024-06-04 14:07:05.619827
42.65982678,-2.306980133,-11.61924744,9.022735596,2024-06-04 14:07:05.659827
42.69982678,-2.306980133,-11.61924744,9.022735596,2024-06-04 14:07:05.699827
42.73982678,-2.306980133,-11.61924744,9.022735596,2024-06-04 14:07:05.739827
42.77982678,-0.5796613097,-22.94298172,19.24308014,2024-06-04 14:07:05.779827
42.81982678,-0.5796613097,-22.94298172,19.24308014,2024-06-04 14:07:05.819827
42.85982678,-0.5796613097,-22.94298172,19.24308014,2024-06-04 14:07:05.859827
42.89982678,8.57228756,-12.96550941,2.371586323,2024-06-04 14:07:05.899827
42.93982678,3.162115097,-17.58545113,-0.5318048596,2024-06-04 14:07:05.939827
42.97982678,6.169594288,-3.172882795,-6.405586243,2024-06-04 14:07:05.979827
43.01982678,4.303491592,-7.641777992,0.6669993401,2024-06-04 14:07:06.019827
43.05982678,0.2156531364,-17.48465347,-3.025425196,2024-06-04 14:07:06.059827
43.09982678,-7.306184769,-13.50209999,4.340580463,2024-06-04 14:07:06.099827
43.13982678,1.336690545,-6.454638958,-0.1450648755,2024-06-04 14:07:06.139827
43.17982678,0.5748756528,-8.14696312,-0.4971089065,2024-06-04 14:07:06.179827
43.21982678,1.291226864,-6.206682682,0.8060821295,2024-06-04 14:07:06.219827
43.25982678,3.212364435,-6.72413063,-1.348654628,2024-06-04 14:07:06.259827
43.29982678,1.112662554,-11.59173012,-4.285545349,2024-06-04 14:07:06.299827
43.33982678,-3.468695641,-12.71545982,17.5950222,2024-06-04 14:07:06.339827
43.37982678,-1.807478428,-12.74656582,-3.28414917,2024-06-04 14:07:06.379827
43.41982678,4.328616142,-10.50658512,4.526323318,2024-06-04 14:07:06.419827
43.45982678,-2.369193554,-16.07857132,4.479662895,2024-06-04 14:07:06.459827
43.49982678,-0.1450648755,-13.72493172,3.869792461,2024-06-04 14:07:06.499827
43.53982678,1.973779559,-13.51675606,-3.419642687,2024-06-04 14:07:06.539827
43.57982678,7.38664341,-14.61027622,-2.922533751,2024-06-04 14:07:06.579827
43.61982678,-0.2587239444,-11.21695423,-3.489034414,2024-06-04 14:07:06.619827
43.65982678,-1.154536963,-8.275278091,0.5557330847,2024-06-04 14:07:06.659827
43.69982678,-1.843370795,-7.159026146,-7.657331467,2024-06-04 14:07:06.699827
43.73982678,2.885445118,-1.840977907,-0.3723830283,2024-06-04 14:07:06.739827
43.77982678,2.902194738,-1.998904228,-1.082752228,2024-06-04 14:07:06.779827
43.81982678,2.219342947,-3.719044685,0.8527421951,2024-06-04 14:07:06.819827
43.85982678,4.345366001,-14.26750374,9.202198029,2024-06-04 14:07:06.859827
43.89982678,-1.353440285,-17.42602921,9.589237213,2024-06-04 14:07:06.899827
43.93982678,0.8431708813,-3.276970625,0.4600201547,2024-06-04 14:07:06.939827
43.97982678,0.8431708813,-3.276970625,0.4600201547,2024-06-04 14:07:06.979827
44.01982678,0.8431708813,-3.276970625,0.4600201547,2024-06-04 14:07:07.019827
44.05982678,0.8431708813,-3.276970625,0.4600201547,2024-06-04 14:07:07.059827
44.09982678,0.8431708813,-3.276970625,0.4600201547,2024-06-04 14:07:07.099827
44.13982678,0.8431708813,-3.276970625,0.4600201547,2024-06-04 14:07:07.139827
44.17982678,0.8431708813,-3.276970625,0.4600201547,2024-06-04 14:07:07.179827
44.21982678,0.8431708813,-3.276970625,0.4600201547,2024-06-04 14:07:07.219827
44.25982678,0.8431708813,-3.276970625,0.4600201547,2024-06-04 14:07:07.259827
44.29982678,0.8431708813,-3.276970625,0.4600201547,2024-06-04 14:07:07.299827
44.33982678,0.8431708813,-3.276970625,0.4600201547,2024-06-04 14:07:07.339827
44.37982678,0.8431708813,-3.276970625,0.4600201547,2024-06-04 14:07:07.379827
44.41982678,0.8431708813,-3.276970625,0.4600201547,2024-06-04 14:07:07.419827
44.45982678,0.8431708813,-3.276970625,0.4600201547,2024-06-04 14:07:07.459827
44.49982678,0.8431708813,-3.276970625,0.4600201547,2024-06-04 14:07:07.499827
44.53982678,0.8431708813,-3.276970625,0.4600201547,2024-06-04 14:07:07.539827
44.57982678,0.01316052489,-13.23739433,3.444767237,2024-06-04 14:07:07.579827
44.61982678,1.729412556,-13.61964703,-5.096413136,2024-06-04 14:07:07.619827
44.65982678,7.350451946,-14.85942841,-1.918744683,2024-06-04 14:07:07.659827
44.69982678,2.72961235,-11.57378387,1.394118309,2024-06-04 14:07:07.699827
44.73982678,-3.486641645,-9.653842926,-0.01196411345,2024-06-04 14:07:07.739827
44.77982678,-0.698405087,-6.25453949,-7.699205875,2024-06-04 14:07:07.779827
44.81982678,1.127019525,-3.589533091,-1.650449395,2024-06-04 14:07:07.819827
44.85982678,3.105883837,-0.9149555564,-1.274477124,2024-06-04 14:07:07.859827
44.89982678,2.382354021,-2.647060156,0.6720840335,2024-06-04 14:07:07.899827
44.93982678,3.972982883,-11.11525917,8.433503151,2024-06-04 14:07:07.939827
44.97982678,-0.804885745,-20.26122665,11.19541931,2024-06-04 14:07:07.979827
45.01982678,0.9209375978,-5.407779217,1.094716311,2024-06-04 14:07:08.019827
45.05982678,3.453142166,-13.22184086,5.83310318,2024-06-04 14:07:08.059827
45.09982678,6.305087566,-19.33759689,3.65563488,2024-06-04 14:07:08.099827
45.13982678,5.581557751,-1.077966571,-8.931509972,2024-06-04 14:07:08.139827
45.17982678,4.887938499,-5.503791332,0.5880361795,2024-06-04 14:07:08.179827
45.21982678,1.220638633,-15.75643826,-0.09212367237,2024-06-04 14:07:08.219827
45.25982678,-6.876374245,-13.34776306,-0.9329017401,2024-06-04 14:07:08.259827
45.29982678,-0.3496512175,-8.180761337,2.221735716,2024-06-04 14:07:08.299827
45.33982678,0.9906286001,-9.17109108,0.1004985496,2024-06-04 14:07:08.339827
45.37982678,2.535494804,-7.019943237,0.5126622319,2024-06-04 14:07:08.379827
45.41982678,3.131008387,-6.867999077,-1.380957723,2024-06-04 14:07:08.419827
45.45982678,0.7977072597,-10.75334454,-5.509773254,2024-06-04 14:07:08.459827
45.49982678,-2.472084999,-12.56919861,16.96242142,2024-06-04 14:07:08.499827
45.53982678,-2.13559413,-12.76451206,-2.656631231,2024-06-04 14:07:08.539827
45.57982678,4.135694981,-10.42642593,5.042574406,2024-06-04 14:07:08.579827
45.61982678,4.135694981,-10.42642593,5.042574406,2024-06-04 14:07:08.619827
45.65982678,4.135694981,-10.42642593,5.042574406,2024-06-04 14:07:08.659827
45.69982678,4.135694981,-10.42642593,5.042574406,2024-06-04 14:07:08.699827
45.73982678,4.135694981,-10.42642593,5.042574406,2024-06-04 14:07:08.739827
45.77982678,4.135694981,-10.42642593,5.042574406,2024-06-04 14:07:08.779827
45.81982678,4.135694981,-10.42642593,5.042574406,2024-06-04 14:07:08.819827
45.85982678,4.135694981,-10.42642593,5.042574406,2024-06-04 14:07:08.859827
45.89982678,4.135694981,-10.42642593,5.042574406,2024-06-04 14:07:08.899827
45.93982678,4.135694981,-10.42642593,5.042574406,2024-06-04 14:07:08.939827
45.97982678,4.135694981,-10.42642593,5.042574406,2024-06-04 14:07:08.979827
46.01982678,4.135694981,-10.42642593,5.042574406,2024-06-04 14:07:09.019827
46.05982678,4.135694981,-10.42642593,5.042574406,2024-06-04 14:07:09.059827
46.09982678,4.135694981,-10.42642593,5.042574406,2024-06-04 14:07:09.099827
46.13982678,4.135694981,-10.42642593,5.042574406,2024-06-04 14:07:09.139827
46.17982678,4.135694981,-10.42642593,5.042574406,2024-06-04 14:07:09.179827
46.21982678,4.051946163,-0.7689933777,-10.40249729,2024-06-04 14:07:09.219827
46.25982678,6.299105644,-5.019842625,-0.6816553473,2024-06-04 14:07:09.259827
46.29982678,7.148258686,-15.50728512,3.356232882,2024-06-04 14:07:09.299827
46.33982678,-6.388836384,-14.92283821,-5.987440586,2024-06-04 14:07:09.339827
46.37982678,-2.036292076,-6.011368752,5.12273407,2024-06-04 14:07:09.379827
46.41982678,1.183250785,-9.001200676,-1.16769743,2024-06-04 14:07:09.419827
46.45982678,3.025425196,-7.482356548,-0.05623133108,2024-06-04 14:07:09.459827
46.49982678,4.438984871,-6.6260252,-0.05144568533,2024-06-04 14:07:09.499827
46.53982678,-0.2048854381,-10.97856903,-0.7031907439,2024-06-04 14:07:09.539827
46.57982678,-3.505784273,-11.94766235,6.128916264,2024-06-04 14:07:09.579827
46.61982678,-1.04685986,-11.802598,-4.61126852,2024-06-04 14:07:09.619827
46.65982678,3.70588398,-11.04078293,4.118945122,2024-06-04 14:07:09.659827
46.69982678,-2.692523718,-15.32034588,4.117748737,2024-06-04 14:07:09.699827
46.73982678,-1.246959686,-13.53589821,2.936890602,2024-06-04 14:07:09.739827
46.77982678,3.195614576,-12.23510075,-3.31525588,2024-06-04 14:07:09.779827
46.81982678,4.513162613,-14.60907936,-0.4683950245,2024-06-04 14:07:09.819827
46.85982678,4.797011375,-10.42762184,-0.3795614839,2024-06-04 14:07:09.859827
46.89982678,-0.88504529,-9.512666702,0.4971089065,2024-06-04 14:07:09.899827
46.93982678,-1.147358418,-7.671688557,-4.248456478,2024-06-04 14:07:09.939827
46.97982678,0.1244267747,-4.396811485,-2.517548561,2024-06-04 14:07:09.979827
47.01982678,3.133401155,-1.829013824,-1.511665702,2024-06-04 14:07:10.019827
47.05982678,2.370389938,-2.548954248,-0.2575275302,2024-06-04 14:07:10.059827
47.09982678,2.98713994,-8.253742218,5.324030399,2024-06-04 14:07:10.099827
47.13982678,-0.4683950245,-25.20060921,16.28824234,2024-06-04 14:07:10.139827
47.17982678,1.40847528,-5.117948532,3.26141715,2024-06-04 14:07:10.179827
47.21982678,5.325226784,-14.41017628,3.669991732,2024-06-04 14:07:10.219827
47.25982678,5.325226784,-14.41017628,3.669991732,2024-06-04 14:07:10.259827
47.29982678,5.325226784,-14.41017628,3.669991732,2024-06-04 14:07:10.299827
47.33982678,5.325226784,-14.41017628,3.669991732,2024-06-04 14:07:10.339827
47.37982678,5.325226784,-14.41017628,3.669991732,2024-06-04 14:07:10.379827
47.41982678,5.325226784,-14.41017628,3.669991732,2024-06-04 14:07:10.419827
47.45982678,5.325226784,-14.41017628,3.669991732,2024-06-04 14:07:10.459827
47.49982678,5.325226784,-14.41017628,3.669991732,2024-06-04 14:07:10.499827
47.53982678,5.325226784,-14.41017628,3.669991732,2024-06-04 14:07:10.539827
47.57982678,5.325226784,-14.41017628,3.669991732,2024-06-04 14:07:10.579827
47.61982678,5.325226784,-14.41017628,3.669991732,2024-06-04 14:07:10.619827
47.65982678,5.325226784,-14.41017628,3.669991732,2024-06-04 14:07:10.659827
47.69982678,5.325226784,-14.41017628,3.669991732,2024-06-04 14:07:10.699827
47.73982678,5.325226784,-14.41017628,3.669991732,2024-06-04 14:07:10.739827
47.77982678,-0.7821539044,-14.68684673,4.329812527,2024-06-04 14:07:10.779827
47.81982678,-0.7821539044,-14.68684673,4.329812527,2024-06-04 14:07:10.819827
47.85982678,-0.7821539044,-14.68684673,4.329812527,2024-06-04 14:07:10.859827
47.89982678,5.254638672,-14.35992718,-1.178465128,2024-06-04 14:07:10.899827
47.93982678,5.309673309,-11.76311588,-0.6323033571,2024-06-04 14:07:10.939827
47.97982678,-3.39810729,-9.584450722,-0.446859628,2024-06-04 14:07:10.979827
48.01982678,-1.60977149,-7.047461033,-6.29790926,2024-06-04 14:07:11.019827
48.05982678,0.8826524615,-3.467499018,-2.703291416,2024-06-04 14:07:11.059827
48.09982678,3.115455151,-1.83619225,-1.309173107,2024-06-04 14:07:11.099827
48.13982678,3.343969584,-1.710269928,-0.1232303679,2024-06-04 14:07:11.139827
48.17982678,4.477270126,-8.773583412,5.325226784,2024-06-04 14:07:11.179827
48.21982678,-2.388336182,-26.09432983,15.63051605,2024-06-04 14:07:11.219827
48.25982678,-0.3664009571,-5.560022354,3.115455151,2024-06-04 14:07:11.259827
48.29982678,5.224728107,-12.4109726,2.908176899,2024-06-04 14:07:11.299827
48.33982678,5.778068542,-20.40120506,6.853642464,2024-06-04 14:07:11.339827
48.37982678,4.449752808,-0.2108674943,-9.474081993,2024-06-04 14:07:11.379827
48.41982678,6.780362129,-5.843871117,-0.3364906907,2024-06-04 14:07:11.419827
48.45982678,3.07836628,-17.07877159,4.222135544,2024-06-04 14:07:11.459827
48.49982678,-5.050949574,-14.17777348,-5.367101192,2024-06-04 14:07:11.499827
48.53982678,-3.214757204,-6.127719879,6.295516491,2024-06-04 14:07:11.539827
48.57982678,1.372582912,-8.712566376,-1.141376376,2024-06-04 14:07:11.579827
48.61982678,2.550150633,-6.673881531,-0.0933200866,2024-06-04 14:07:11.619827
48.65982678,6.270092487,-6.903891563,-3.159722328,2024-06-04 14:07:11.659827
48.69982678,-2.556132793,-12.29492092,7.108777046,2024-06-04 14:07:11.699827
48.73982678,-3.698705673,-12.34038448,1.377368569,2024-06-04 14:07:11.739827
48.77982678,-1.276870012,-11.62881851,-3.806382656,2024-06-04 14:07:11.779827
48.81982678,1.826620936,-12.04098225,3.585943937,2024-06-04 14:07:11.819827
48.85982678,-1.824228168,-14.95394516,3.649652719,2024-06-04 14:07:11.859827
48.89982678,0.003589233849,-12.81476212,3.968197346,2024-06-04 14:07:11.899827
48.93982678,0.003589233849,-12.81476212,3.968197346,2024-06-04 14:07:11.939827
48.97982678,0.003589233849,-12.81476212,3.968197346,2024-06-04 14:07:11.979827
49.01982678,0.003589233849,-12.81476212,3.968197346,2024-06-04 14:07:12.019827
49.05982678,0.003589233849,-12.81476212,3.968197346,2024-06-04 14:07:12.059827
49.09982678,0.003589233849,-12.81476212,3.968197346,2024-06-04 14:07:12.099827
49.13982678,0.003589233849,-12.81476212,3.968197346,2024-06-04 14:07:12.139827
49.17982678,0.003589233849,-12.81476212,3.968197346,2024-06-04 14:07:12.179827
49.21982678,0.003589233849,-12.81476212,3.968197346,2024-06-04 14:07:12.219827
49.25982678,0.003589233849,-12.81476212,3.968197346,2024-06-04 14:07:12.259827
49.29982678,0.003589233849,-12.81476212,3.968197346,2024-06-04 14:07:12.299827
49.33982678,0.003589233849,-12.81476212,3.968197346,2024-06-04 14:07:12.339827
49.37982678,0.003589233849,-12.81476212,3.968197346,2024-06-04 14:07:12.379827
49.41982678,0.003589233849,-12.81476212,3.968197346,2024-06-04 14:07:12.419827
49.45982678,0.003589233849,-12.81476212,3.968197346,2024-06-04 14:07:12.459827
49.49982678,0.003589233849,-12.81476212,3.968197346,2024-06-04 14:07:12.499827
49.53982678,0.003589233849,-12.81476212,3.968197346,2024-06-04 14:07:12.539827
49.57982678,-2.592025042,-19.55444527,-5.561218739,2024-06-04 14:07:12.579827
49.61982678,-3.59790802,-12.34277725,2.098505497,2024-06-04 14:07:12.619827
49.65982678,-1.795514345,-7.093223572,1.048056364,2024-06-04 14:07:12.659827
49.69982678,1.192822099,-8.391329765,-0.1438684613,2024-06-04 14:07:12.699827
49.73982678,4.665106773,-6.884748936,0.2694916427,2024-06-04 14:07:12.739827
49.77982678,1.141376376,-9.273084641,0.4743770957,2024-06-04 14:07:12.779827
49.81982678,-1.497308731,-11.25643635,1.296012521,2024-06-04 14:07:12.819827
49.85982678,-4.631607533,-12.98255825,3.055335522,2024-06-04 14:07:12.859827
49.89982678,1.104287624,-11.49601746,-1.563111424,2024-06-04 14:07:12.899827
49.93982678,1.379761338,-11.35454178,3.838685751,2024-06-04 14:07:12.939827
49.97982678,-1.008574724,-13.33819199,3.870988846,2024-06-04 14:07:12.979827
50.01982678,-1.545165181,-13.29751396,0.6478567123,2024-06-04 14:07:13.019827
50.05982678,3.673580885,-13.01725388,-4.013660908,2024-06-04 14:07:13.059827
50.09982678,6.585347176,-15.09631824,-0.8204390407,2024-06-04 14:07:13.099827
50.13982678,2.71286273,-11.10419273,0.5030909777,2024-06-04 14:07:13.139827
50.17982678,-1.563111424,-9.408279419,-1.026520967,2024-06-04 14:07:13.179827
50.21982678,-0.3197409213,-5.82233572,-8.300402641,2024-06-04 14:07:13.219827
50.25982678,1.111466169,-3.170490026,-0.1606182158,2024-06-04 14:07:13.259827
50.29982678,3.752544165,-1.473380566,-1.021735311,2024-06-04 14:07:13.299827
50.33982678,1.960619092,-2.825624466,0.8168498278,2024-06-04 14:07:13.339827
50.37982678,4.39800787,-10.77129078,4.78385067,2024-06-04 14:07:13.379827
50.41982678,0.07776673883,-22.61845589,15.89641857,2024-06-04 14:07:13.419827
50.45982678,1.473380566,-6.108577251,2.159522533,2024-06-04 14:07:13.459827
50.49982678,4.386044025,-13.12253857,5.781657696,2024-06-04 14:07:13.499827
50.53982678,1.379761338,-18.94487381,7.085746288,2024-06-04 14:07:13.539827
50.57982678,1.379761338,-18.94487381,7.085746288,2024-06-04 14:07:13.579827
50.61982678,1.379761338,-18.94487381,7.085746288,2024-06-04 14:07:13.619827
50.65982678,1.379761338,-18.94487381,7.085746288,2024-06-04 14:07:13.659827
50.69982678,1.379761338,-18.94487381,7.085746288,2024-06-04 14:07:13.699827
50.73982678,1.379761338,-18.94487381,7.085746288,2024-06-04 14:07:13.739827
50.77982678,1.379761338,-18.94487381,7.085746288,2024-06-04 14:07:13.779827
50.81982678,1.379761338,-18.94487381,7.085746288,2024-06-04 14:07:13.819827
50.85982678,1.379761338,-18.94487381,7.085746288,2024-06-04 14:07:13.859827
50.89982678,1.379761338,-18.94487381,7.085746288,2024-06-04 14:07:13.899827
50.93982678,1.379761338,-18.94487381,7.085746288,2024-06-04 14:07:13.939827
50.97982678,1.379761338,-18.94487381,7.085746288,2024-06-04 14:07:13.979827
51.01982678,1.379761338,-18.94487381,7.085746288,2024-06-04 14:07:14.019827
51.05982678,1.379761338,-18.94487381,7.085746288,2024-06-04 14:07:14.059827
51.09982678,1.379761338,-18.94487381,7.085746288,2024-06-04 14:07:14.099827
51.13982678,1.379761338,-18.94487381,7.085746288,2024-06-04 14:07:14.139827
51.17982678,1.379761338,-18.94487381,7.085746288,2024-06-04 14:07:14.179827
51.21982678,3.465106249,-14.01715469,-2.67338109,2024-06-04 14:07:14.219827
51.25982678,0.5485545993,-11.25164986,-1.38574338,2024-06-04 14:07:14.259827
51.29982678,0.704387188,-9.562915802,-0.560518682,2024-06-04 14:07:14.299827
51.33982678,-0.01794617064,-6.306283951,-2.518744946,2024-06-04 14:07:14.339827
51.37982678,-0.4037888348,-4.761118889,-0.8994022012,2024-06-04 14:07:14.379827
51.41982678,2.14995122,-2.761915445,-0.6924230456,2024-06-04 14:07:14.419827
51.45982678,2.075773716,-3.497409344,0.485144794,2024-06-04 14:07:14.459827
51.49982678,2.715255499,-7.090531826,2.357229471,2024-06-04 14:07:14.499827
51.53982678,-0.4229314029,-22.71656036,21.63739777,2024-06-04 14:07:14.539827
51.57982678,0.9595218897,-8.575876236,4.940580368,2024-06-04 14:07:14.579827
51.61982678,6.280860424,-9.074181557,1.56191504,2024-06-04 14:07:14.619827
51.65982678,5.473581791,-20.5366993,12.35115242,2024-06-04 14:07:14.659827
51.69982678,3.318845034,-0.5976074338,-11.2253294,2024-06-04 14:07:14.699827
51.73982678,5.168197632,-3.119044304,-3.291327477,2024-06-04 14:07:14.739827
51.77982678,3.429214001,-11.31625652,-1.693520188,2024-06-04 14:07:14.779827
51.81982678,-9.283852577,-16.94686699,2.544168711,2024-06-04 14:07:14.819827
51.85982678,2.015953064,-7.869096279,-0.5569294691,2024-06-04 14:07:14.859827
51.89982678,0.3675973713,-9.102895737,-1.159322619,2024-06-04 14:07:14.899827
51.93982678,1.650449395,-7.96391201,1.553540111,2024-06-04 14:07:14.939827
51.97982678,2.535494804,-6.746862411,-0.4348955154,2024-06-04 14:07:14.979827
52.01982678,2.921337366,-8.379365921,-3.189632654,2024-06-04 14:07:15.019827
52.05982678,0.7558328509,-11.23370457,-2.179861546,2024-06-04 14:07:15.059827
52.09982678,-2.438585281,-11.9153595,13.17518044,2024-06-04 14:07:15.099827
52.13982678,-2.139183521,-12.62542915,-3.388535976,2024-06-04 14:07:15.139827
52.17982678,0.04546362907,-14.17179108,-0.7247261405,2024-06-04 14:07:15.179827
52.21982678,-1.888834357,-14.8459692,5.210072041,2024-06-04 14:07:15.219827
52.25982678,-1.888834357,-14.8459692,5.210072041,2024-06-04 14:07:15.259827
52.29982678,-1.888834357,-14.8459692,5.210072041,2024-06-04 14:07:15.299827
52.33982678,-1.888834357,-14.8459692,5.210072041,2024-06-04 14:07:15.339827
52.37982678,-1.888834357,-14.8459692,5.210072041,2024-06-04 14:07:15.379827
52.41982678,-1.888834357,-14.8459692,5.210072041,2024-06-04 14:07:15.419827
52.45982678,-1.888834357,-14.8459692,5.210072041,2024-06-04 14:07:15.459827
52.49982678,-1.888834357,-14.8459692,5.210072041,2024-06-04 14:07:15.499827
52.53982678,-1.888834357,-14.8459692,5.210072041,2024-06-04 14:07:15.539827
52.57982678,-1.888834357,-14.8459692,5.210072041,2024-06-04 14:07:15.579827
52.61982678,-1.888834357,-14.8459692,5.210072041,2024-06-04 14:07:15.619827
52.65982678,-1.888834357,-14.8459692,5.210072041,2024-06-04 14:07:15.659827
52.69982678,-1.888834357,-14.8459692,5.210072041,2024-06-04 14:07:15.699827
52.73982678,-1.888834357,-14.8459692,5.210072041,2024-06-04 14:07:15.739827
52.77982678,1.04685986,-7.539783955,-3.892823458,2024-06-04 14:07:15.779827
52.81982678,1.04685986,-7.539783955,-3.892823458,2024-06-04 14:07:15.819827
52.85982678,1.04685986,-7.539783955,-3.892823458,2024-06-04 14:07:15.859827
52.89982678,-0.5940182209,-13.19073391,-4.165904045,2024-06-04 14:07:15.899827
52.93982678,-7.669295788,-15.46301842,-10.78086281,2024-06-04 14:07:15.939827
52.97982678,1.250548959,-8.190332413,5.629414558,2024-06-04 14:07:15.979827
53.01982678,0.4767699242,-9.039485931,-0.7091727853,2024-06-04 14:07:16.019827
53.05982678,0.566500783,-7.584051132,0.7941179872,2024-06-04 14:07:16.059827
53.09982678,2.8519454,-7.384250641,-1.101894855,2024-06-04 14:07:16.099827
53.13982678,2.232503414,-8.203493118,-0.8084749579,2024-06-04 14:07:16.139827
53.17982678,0.7677969933,-9.824032784,-1.500898004,2024-06-04 14:07:16.179827
53.21982678,-3.577569008,-11.46132183,9.69811058,2024-06-04 14:07:16.219827
53.25982678,-1.363011599,-12.74058437,-1.49132669,2024-06-04 14:07:16.259827
53.29982678,3.578765392,-10.93190956,-4.570590496,2024-06-04 14:07:16.299827
53.33982678,-0.8395816684,-14.98983765,7.971090317,2024-06-04 14:07:16.339827
53.37982678,-2.845963478,-16.57567978,2.019542217,2024-06-04 14:07:16.379827
53.41982678,4.366901398,-10.63729286,3.229114056,2024-06-04 14:07:16.419827
53.45982678,5.405386448,-13.27478218,-0.5425725579,2024-06-04 14:07:16.459827
53.49982678,4.413561344,-11.88754272,-2.531905413,2024-06-04 14:07:16.499827
53.53982678,-4.326223373,-12.01944733,-5.055735111,2024-06-04 14:07:16.539827
53.57982678,-1.802692771,-9.202198029,-0.9882357717,2024-06-04 14:07:16.579827
53.61982678,0.9559326172,-5.01864624,-4.89631319,2024-06-04 14:07:16.619827
53.65982678,1.75722909,-3.133401155,-1.494915962,2024-06-04 14:07:16.659827
53.69982678,2.515155792,-1.535593987,-0.1148554832,2024-06-04 14:07:16.699827
53.73982678,2.346461773,-3.953840256,0.8192426562,2024-06-04 14:07:16.739827
53.77982678,2.315355062,-15.02573013,12.94038486,2024-06-04 14:07:16.779827
53.81982678,-2.383550406,-16.96361732,6.479763508,2024-06-04 14:07:16.819827
53.85982678,4.892724037,-3.831507206,2.19780755,2024-06-04 14:07:16.859827
53.89982678,4.050749779,-21.49951172,7.21406126,2024-06-04 14:07:16.899827
53.93982678,4.050749779,-21.49951172,7.21406126,2024-06-04 14:07:16.939827
53.97982678,4.050749779,-21.49951172,7.21406126,2024-06-04 14:07:16.979827
54.01982678,4.050749779,-21.49951172,7.21406126,2024-06-04 14:07:17.019827
54.05982678,4.050749779,-21.49951172,7.21406126,2024-06-04 14:07:17.059827
54.09982678,4.050749779,-21.49951172,7.21406126,2024-06-04 14:07:17.099827
54.13982678,4.050749779,-21.49951172,7.21406126,2024-06-04 14:07:17.139827
54.17982678,4.050749779,-21.49951172,7.21406126,2024-06-04 14:07:17.179827
54.21982678,4.050749779,-21.49951172,7.21406126,2024-06-04 14:07:17.219827
54.25982678,4.050749779,-21.49951172,7.21406126,2024-06-04 14:07:17.259827
54.29982678,4.050749779,-21.49951172,7.21406126,2024-06-04 14:07:17.299827
54.33982678,4.050749779,-21.49951172,7.21406126,2024-06-04 14:07:17.339827
54.37982678,4.050749779,-21.49951172,7.21406126,2024-06-04 14:07:17.379827
54.41982678,4.050749779,-21.49951172,7.21406126,2024-06-04 14:07:17.419827
54.45982678,4.050749779,-21.49951172,7.21406126,2024-06-04 14:07:17.459827
54.49982678,4.050749779,-21.49951172,7.21406126,2024-06-04 14:07:17.499827
54.53982678,3.496212959,-12.41934776,2.065006018,2024-06-04 14:07:17.539827
54.57982678,5.214858055,-15.21745491,-1.567897081,2024-06-04 14:07:17.579827
54.61982678,6.126523495,-11.65663528,-1.451546073,2024-06-04 14:07:17.619827
54.65982678,-1.712662816,-10.6420784,-0.9391828775,2024-06-04 14:07:17.659827
54.69982678,-0.4432703853,-8.583054543,-3.910769463,2024-06-04 14:07:17.699827
54.73982678,0.008374879137,-4.556233406,-2.847159863,2024-06-04 14:07:17.739827
54.77982678,1.646860242,-3.121437073,-1.340279818,2024-06-04 14:07:17.779827
54.81982678,2.067398787,-2.066202402,-1.517647743,2024-06-04 14:07:17.819827
54.85982678,1.546361685,-3.926322937,1.3522439,2024-06-04 14:07:17.859827
54.89982678,3.076870918,-16.8978138,16.26311874,2024-06-04 14:07:17.899827
54.93982678,-2.978765011,-14.78734493,5.574379444,2024-06-04 14:07:17.939827
54.97982678,2.385943174,-0.6598208547,1.769193292,2024-06-04 14:07:17.979827
55.01982678,6.623631954,-14.42812252,-2.897409201,2024-06-04 14:07:18.019827
55.05982678,5.852245808,-20.03959084,-2.724826813,2024-06-04 14:07:18.059827
55.09982678,4.407579422,-3.01226449,-6.693024158,2024-06-04 14:07:18.099827
55.13982678,3.824328899,-5.773283005,2.126022816,2024-06-04 14:07:18.139827
55.17982678,-0.2718844712,-19.76890182,-0.2754737139,2024-06-04 14:07:18.179827
55.21982678,-3.570390463,-12.30209923,-3.575176239,2024-06-04 14:07:18.219827
55.25982678,-2.293819666,-5.319244862,9.335298538,2024-06-04 14:07:18.259827
55.29982678,-0.5760720372,-9.512666702,-1.747657895,2024-06-04 14:07:18.299827
55.33982678,2.978765011,-7.420143127,-0.3376871049,2024-06-04 14:07:18.339827
55.37982678,2.292623281,-8.178368568,3.587140322,2024-06-04 14:07:18.379827
55.41982678,-0.6780661345,-10.57986546,-0.3963112533,2024-06-04 14:07:18.419827
55.45982678,-3.172882795,-11.61805153,2.528316259,2024-06-04 14:07:18.459827
55.49982678,0.4695914388,-11.56062317,-2.572882652,2024-06-04 14:07:18.499827
55.53982678,2.332104683,-11.65304661,2.458924294,2024-06-04 14:07:18.539827
55.57982678,2.332104683,-11.65304661,2.458924294,2024-06-04 14:07:18.579827
55.61982678,2.332104683,-11.65304661,2.458924294,2024-06-04 14:07:18.619827
55.65982678,2.332104683,-11.65304661,2.458924294,2024-06-04 14:07:18.659827
55.69982678,2.332104683,-11.65304661,2.458924294,2024-06-04 14:07:18.699827
55.73982678,2.332104683,-11.65304661,2.458924294,2024-06-04 14:07:18.739827
55.77982678,2.332104683,-11.65304661,2.458924294,2024-06-04 14:07:18.779827
55.81982678,2.332104683,-11.65304661,2.458924294,2024-06-04 14:07:18.819827
55.85982678,2.332104683,-11.65304661,2.458924294,2024-06-04 14:07:18.859827
55.89982678,2.332104683,-11.65304661,2.458924294,2024-06-04 14:07:18.899827
55.93982678,2.332104683,-11.65304661,2.458924294,2024-06-04 14:07:18.939827
55.97982678,2.332104683,-11.65304661,2.458924294,2024-06-04 14:07:18.979827
56.01982678,2.332104683,-11.65304661,2.458924294,2024-06-04 14:07:19.019827
56.05982678,2.332104683,-11.65304661,2.458924294,2024-06-04 14:07:19.059827
56.09982678,2.332104683,-11.65304661,2.458924294,2024-06-04 14:07:19.099827
56.13982678,2.332104683,-11.65304661,2.458924294,2024-06-04 14:07:19.139827
56.17982678,2.332104683,-11.65304661,2.458924294,2024-06-04 14:07:19.179827
56.21982678,5.630610943,-0.3269194067,-4.962415218,2024-06-04 14:07:19.219827
56.25982678,6.775576591,-4.635196686,-1.821835399,2024-06-04 14:07:19.259827
56.29982678,-3.038585663,-27.29313278,0.2132603228,2024-06-04 14:07:19.299827
56.33982678,-2.845963478,-11.50319576,0.2084746659,2024-06-04 14:07:19.339827
56.37982678,-0.8754739761,-8.444271088,0.1642074585,2024-06-04 14:07:19.379827
56.41982678,-0.1292124242,-8.196314812,-0.07298108935,2024-06-04 14:07:19.419827
56.45982678,1.517647743,-6.870391846,0.8587242365,2024-06-04 14:07:19.459827
56.49982678,3.717848301,-8.568697929,-1.622931957,2024-06-04 14:07:19.499827
56.53982678,0.4073780477,-9.742377281,1.361815214,2024-06-04 14:07:19.539827
56.57982678,0.5676971674,-10.2347002,1.457528114,2024-06-04 14:07:19.579827
56.61982678,-1.66600275,-12.06132126,1.192822099,2024-06-04 14:07:19.619827
56.65982678,-1.406082392,-12.06132126,0.1450648755,2024-06-04 14:07:19.659827
56.69982678,2.278266191,-11.16550827,4.077070713,2024-06-04 14:07:19.699827
56.73982678,-3.189632654,-16.06780434,3.698705673,2024-06-04 14:07:19.739827
56.77982678,0.294616282,-13.63161182,3.099901676,2024-06-04 14:07:19.779827
56.81982678,4.886742115,-13.34537029,-3.908376694,2024-06-04 14:07:19.819827
56.85982678,7.596015453,-14.62343693,-2.358425856,2024-06-04 14:07:19.859827
56.89982678,1.818246126,-12.15105247,1.704287887,2024-06-04 14:07:19.899827
56.93982678,-1.025324464,-8.725727081,0.7594220638,2024-06-04 14:07:19.939827
56.97982678,-0.5270192027,-5.365904808,-4.856831551,2024-06-04 14:07:19.979827
57.01982678,1.018146038,-3.778865099,-1.194018483,2024-06-04 14:07:20.019827
57.05982678,3.667598963,-2.133201361,-0.9774680734,2024-06-04 14:07:20.059827
57.09982678,2.082952023,-4.350151539,2.691327333,2024-06-04 14:07:20.099827
57.13982678,1.936690807,-11.71645641,8.440681458,2024-06-04 14:07:20.139827
57.17982678,0.6876373887,-12.39302635,10.86012459,2024-06-04 14:07:20.179827
57.21982678,-0.1797607988,-9.515059471,5.044967651,2024-06-04 14:07:20.219827
57.25982678,-0.1797607988,-9.515059471,5.044967651,2024-06-04 14:07:20.259827
57.29982678,-0.1797607988,-9.515059471,5.044967651,2024-06-04 14:07:20.299827
57.33982678,-0.1797607988,-9.515059471,5.044967651,2024-06-04 14:07:20.339827
57.37982678,-0.1797607988,-9.515059471,5.044967651,2024-06-04 14:07:20.379827
57.41982678,-0.1797607988,-9.515059471,5.044967651,2024-06-04 14:07:20.419827
57.45982678,-0.1797607988,-9.515059471,5.044967651,2024-06-04 14:07:20.459827
57.49982678,-0.1797607988,-9.515059471,5.044967651,2024-06-04 14:07:20.499827
57.53982678,-0.1797607988,-9.515059471,5.044967651,2024-06-04 14:07:20.539827
57.57982678,-0.1797607988,-9.515059471,5.044967651,2024-06-04 14:07:20.579827
57.61982678,-0.1797607988,-9.515059471,5.044967651,2024-06-04 14:07:20.619827
57.65982678,-0.1797607988,-9.515059471,5.044967651,2024-06-04 14:07:20.659827
57.69982678,-0.1797607988,-9.515059471,5.044967651,2024-06-04 14:07:20.699827
57.73982678,-0.1797607988,-9.515059471,5.044967651,2024-06-04 14:07:20.739827
57.77982678,-1.166501045,-12.38824081,-4.732405186,2024-06-04 14:07:20.779827
57.81982678,-1.166501045,-12.38824081,-4.732405186,2024-06-04 14:07:20.819827
57.85982678,-1.166501045,-12.38824081,-4.732405186,2024-06-04 14:07:20.859827
57.89982678,-1.546361685,-14.91326714,2.978765011,2024-06-04 14:07:20.899827
57.93982678,2.952444077,-11.54387379,1.839781523,2024-06-04 14:07:20.939827
57.97982678,5.019842625,-13.93220997,-2.389532566,2024-06-04 14:07:20.979827
58.01982678,7.397411346,-13.07827091,-2.263610125,2024-06-04 14:07:21.019827
58.05982678,-0.6768696904,-10.14257717,0.8814560175,2024-06-04 14:07:21.059827
58.09982678,-0.8934201598,-8.69192791,-4.559822559,2024-06-04 14:07:21.099827
58.13982678,-0.8718847632,-5.39701128,-3.514159203,2024-06-04 14:07:21.139827
58.17982678,0.4911268353,-3.97776866,-1.001396298,2024-06-04 14:07:21.179827
58.21982678,2.848356247,-2.607578516,-1.190429211,2024-06-04 14:07:21.219827
58.25982678,1.73060894,-3.873381615,1.232602715,2024-06-04 14:07:21.259827
58.29982678,2.706880569,-9.72323513,8.706583977,2024-06-04 14:07:21.299827
58.33982678,-0.4791627228,-18.03679848,10.68275642,2024-06-04 14:07:21.339827
58.37982678,-0.2527419031,-7.715955734,3.704687595,2024-06-04 14:07:21.379827
58.41982678,6.492924213,-13.69980717,5.25942421,2024-06-04 14:07:21.419827
58.45982678,4.746761799,-20.16641045,3.727419376,2024-06-04 14:07:21.459827
58.49982678,5.42572546,-0.993021369,-7.107580662,2024-06-04 14:07:21.499827
58.53982678,4.673481941,-4.392025948,-1.357029557,2024-06-04 14:07:21.539827
58.57982678,2.194218397,-18.97358894,-1.183250785,2024-06-04 14:07:21.579827
58.61982678,-5.751448154,-13.79821205,-12.96431351,2024-06-04 14:07:21.619827
58.65982678,-3.448356628,-8.002197266,11.34138107,2024-06-04 14:07:21.659827
58.69982678,0.2371885478,-8.512466431,-1.821835399,2024-06-04 14:07:21.699827
58.73982678,1.349851131,-6.90030241,0.9918249846,2024-06-04 14:07:21.739827
58.77982678,3.20518589,-6.471388817,-1.330708504,2024-06-04 14:07:21.779827
58.81982678,4.029214382,-9.609575272,-2.521137714,2024-06-04 14:07:21.819827
58.85982678,-2.68175602,-11.89472103,11.24925709,2024-06-04 14:07:21.859827
58.89982678,-6.100202084,-13.08784294,-0.9954141974,2024-06-04 14:07:21.899827
58.93982678,-6.100202084,-13.08784294,-0.9954141974,2024-06-04 14:07:21.939827
58.97982678,-6.100202084,-13.08784294,-0.9954141974,2024-06-04 14:07:21.979827
59.01982678,-6.100202084,-13.08784294,-0.9954141974,2024-06-04 14:07:22.019827
59.05982678,-6.100202084,-13.08784294,-0.9954141974,2024-06-04 14:07:22.059827
59.09982678,-6.100202084,-13.08784294,-0.9954141974,2024-06-04 14:07:22.099827
59.13982678,-6.100202084,-13.08784294,-0.9954141974,2024-06-04 14:07:22.139827
59.17982678,-6.100202084,-13.08784294,-0.9954141974,2024-06-04 14:07:22.179827
59.21982678,-6.100202084,-13.08784294,-0.9954141974,2024-06-04 14:07:22.219827
59.25982678,-6.100202084,-13.08784294,-0.9954141974,2024-06-04 14:07:22.259827
59.29982678,-6.100202084,-13.08784294,-0.9954141974,2024-06-04 14:07:22.299827
59.33982678,-6.100202084,-13.08784294,-0.9954141974,2024-06-04 14:07:22.339827
59.37982678,-6.100202084,-13.08784294,-0.9954141974,2024-06-04 14:07:22.379827
59.41982678,-6.100202084,-13.08784294,-0.9954141974,2024-06-04 14:07:22.419827
59.45982678,-6.100202084,-13.08784294,-0.9954141974,2024-06-04 14:07:22.459827
59.49982678,-6.100202084,-13.08784294,-0.9954141974,2024-06-04 14:07:22.499827
59.53982678,5.025825024,-21.1893425,6.903891563,2024-06-04 14:07:22.539827
59.57982678,2.905783892,-7.420143127,-8.075178146,2024-06-04 14:07:22.579827
59.61982678,6.017350674,-0.3640081584,-5.270191669,2024-06-04 14:07:22.619827
59.65982678,6.442675114,-4.91067028,-1.410868049,2024-06-04 14:07:22.659827
59.69982678,-4.788636208,-28.52334404,-1.56191504,2024-06-04 14:07:22.699827
59.73982678,-6.317051888,-11.16550827,9.56770134,2024-06-04 14:07:22.739827
59.77982678,1.010967612,-8.535198212,-1.664806366,2024-06-04 14:07:22.779827
59.81982678,0.6478567123,-8.624929428,1.083948612,2024-06-04 14:07:22.819827
59.85982678,3.316452265,-6.562615395,0.1797607988,2024-06-04 14:07:22.859827
59.89982678,4.859224796,-6.655935287,-4.556233406,2024-06-04 14:07:22.899827
59.93982678,-0.1594218016,-11.08504963,1.746461391,2024-06-04 14:07:22.939827
59.97982678,-0.7402794957,-11.55703449,6.653542519,2024-06-04 14:07:22.979827
60.01982678,-2.525923491,-11.81216908,-2.69850564,2024-06-04 14:07:23.019827
60.05982678,1.602592945,-12.72144127,0.1004985496,2024-06-04 14:07:23.059827
60.09982678,-3.759722471,-16.22961807,0.4372883439,2024-06-04 14:07:23.099827
60.13982678,-0.1256231815,-13.1835556,3.10947299,2024-06-04 14:07:23.139827
60.17982678,4.28315258,-10.62532902,2.269592285,2024-06-04 14:07:23.179827
60.21982678,3.083152056,-14.78854084,-1.508076429,2024-06-04 14:07:23.219827
60.25982678,4.936991215,-12.60867977,-3.114258766,2024-06-04 14:07:23.259827
60.29982678,1.545165181,-10.06720352,1.106680512,2024-06-04 14:07:23.299827
60.33982678,0.4911268353,-8.887242317,-3.39810729,2024-06-04 14:07:23.339827
60.37982678,-2.23728919,-6.891927242,-1.882852316,2024-06-04 14:07:23.379827
60.41982678,1.599003673,-2.678166628,-0.05383851007,2024-06-04 14:07:23.419827
60.45982678,4.476073742,-2.10209465,-1.130608678,2024-06-04 14:07:23.459827
60.49982678,3.31525588,-2.788236618,0.05982056633,2024-06-04 14:07:23.499827
60.53982678,0.8192426562,-7.316952705,4.696512699,2024-06-04 14:07:23.539827
60.57982678,0.8192426562,-7.316952705,4.696512699,2024-06-04 14:07:23.579827
60.61982678,0.8192426562,-7.316952705,4.696512699,2024-06-04 14:07:23.619827
60.65982678,0.8192426562,-7.316952705,4.696512699,2024-06-04 14:07:23.659827
60.69982678,0.8192426562,-7.316952705,4.696512699,2024-06-04 14:07:23.699827
60.73982678,0.8192426562,-7.316952705,4.696512699,2024-06-04 14:07:23.739827
60.77982678,6.590132713,-1.921137452,-3.199203968,2024-06-04 14:07:23.779827
60.81982678,6.590132713,-1.921137452,-3.199203968,2024-06-04 14:07:23.819827
60.85982678,6.590132713,-1.921137452,-3.199203968,2024-06-04 14:07:23.859827
60.89982678,6.590132713,-1.921137452,-3.199203968,2024-06-04 14:07:23.899827
60.93982678,6.590132713,-1.921137452,-3.199203968,2024-06-04 14:07:23.939827
60.97982678,6.590132713,-1.921137452,-3.199203968,2024-06-04 14:07:23.979827
61.01982678,6.590132713,-1.921137452,-3.199203968,2024-06-04 14:07:24.019827
61.05982678,6.590132713,-1.921137452,-3.199203968,2024-06-04 14:07:24.059827
61.09982678,6.590132713,-1.921137452,-3.199203968,2024-06-04 14:07:24.099827
61.13982678,6.590132713,-1.921137452,-3.199203968,2024-06-04 14:07:24.139827
61.17982678,6.590132713,-1.921137452,-3.199203968,2024-06-04 14:07:24.179827
61.21982678,2.475674152,-10.31396294,-1.685145378,2024-06-04 14:07:24.219827
61.25982678,0.2455634177,-11.80977631,3.61615324,2024-06-04 14:07:24.259827
61.29982678,-1.376172066,-14.90608883,4.380061626,2024-06-04 14:07:24.299827
61.33982678,0.675673306,-12.36311626,2.060220242,2024-06-04 14:07:24.339827
61.37982678,4.486841679,-13.62084389,-4.960022449,2024-06-04 14:07:24.379827
61.41982678,8.779565811,-14.48196125,-1.703091502,2024-06-04 14:07:24.419827
61.45982678,2.696112871,-10.83470058,3.486641645,2024-06-04 14:07:24.459827
61.49982678,-3.905983925,-10.06720352,-2.730808735,2024-06-04 14:07:24.499827
61.53982678,-0.2898306549,-5.813961029,-2.457727909,2024-06-04 14:07:24.539827
61.57982678,1.62652123,-3.306880951,-2.847159863,2024-06-04 14:07:24.579827
61.61982678,4.382454872,-1.604985833,-1.275673628,2024-06-04 14:07:24.619827
61.65982678,3.120240688,-3.417249918,0.1390828192,2024-06-04 14:07:24.659827
61.69982678,3.520141125,-7.98903656,4.279563427,2024-06-04 14:07:24.699827
61.73982678,-0.907777071,-21.98106766,18.64427567,2024-06-04 14:07:24.739827
61.77982678,-2.766701221,-9.072985649,4.700101852,2024-06-04 14:07:24.779827
61.81982678,5.406582832,-5.531308651,3.656831264,2024-06-04 14:07:24.819827
61.85982678,6.128916264,-25.83082008,13.87597847,2024-06-04 14:07:24.859827
61.89982678,3.461517096,-1.33788693,-16.00678635,2024-06-04 14:07:24.899827
61.93982678,5.518147945,-2.631506681,-2.785843849,2024-06-04 14:07:24.939827
61.97982678,7.493124008,-8.945866585,1.100698471,2024-06-04 14:07:24.979827
