Time (s),Gyroscope x (rad/s),Gyroscope y (rad/s),Gyroscope z (rad/s),Datetime
0.081459076,-0.3014609516,0.05033225939,0.07456631213,2024-06-04 14:06:23.081459
0.166426732,-0.2913412452,0.07030537724,-0.0114512546,2024-06-04 14:06:23.166427
0.206845066,-0.1571218669,0.1451379955,-0.02956021577,2024-06-04 14:06:23.206845
0.247397774,-0.09959928691,0.2668408751,0.04820179567,2024-06-04 14:06:23.247398
0.287809805,-0.01930734888,0.3754946291,-0.1268958896,2024-06-04 14:06:23.287810
0.328302618,-0.1400781423,0.3917394578,0.1416759938,2024-06-04 14:06:23.328303
0.368852982,-0.1768286824,0.302526176,0.1834863871,2024-06-04 14:06:23.368853
0.40924767,-0.1392792165,0.3520595133,-0.02130465955,2024-06-04 14:06:23.409248
0.449744128,-0.1890788674,0.2511286736,-0.1103847697,2024-06-04 14:06:23.449744
0.490285378,-0.4023917615,0.437011838,0.1478010863,2024-06-04 14:06:23.490285
0.530714389,-0.6423355341,0.8014547229,0.09240896255,2024-06-04 14:06:23.530714
0.571255378,-0.6489931941,0.429821521,0.02796236612,2024-06-04 14:06:23.571255
0.611511524,-0.5587147474,0.325695008,0.08974587917,2024-06-04 14:06:23.611512
0.652202566,-0.3182383776,0.3938699067,0.04607132822,2024-06-04 14:06:23.652203
0.692226212,-0.3201025128,0.117974557,0.06977276504,2024-06-04 14:06:23.692226
0.733156055,-0.3366136253,0.1177082509,0.09134373069,2024-06-04 14:06:23.733156
0.773179701,-0.1991985738,-0.002663082443,-0.06204982474,2024-06-04 14:06:23.773180
0.813978034,-0.155790329,0.3017272651,-0.02423405088,2024-06-04 14:06:23.813978
0.854499753,0.1593854874,0.4173050225,-0.07536523789,2024-06-04 14:06:23.854500
0.894979389,0.471232444,0.07403369248,-0.1287600398,2024-06-04 14:06:23.894979
0.935464076,0.5893401504,0.2572537661,-0.1631138027,2024-06-04 14:06:23.935464
0.975952514,0.5762910843,0.3201025128,-0.33807832,2024-06-04 14:06:23.975953
1.016451107,0.581084609,0.09081111848,-0.273365438,2024-06-04 14:06:24.016451
1.056926316,0.5371437669,-0.1753639877,-0.2318213433,2024-06-04 14:06:24.056926
1.097413087,0.1601844132,-0.01251648832,-0.03914731368,2024-06-04 14:06:24.097413
1.138024753,-0.1304910481,0.1131810099,-0.1114500016,2024-06-04 14:06:24.138025
1.178048451,0.02995967865,0.03994623944,0.1805569977,2024-06-04 14:06:24.178048
1.218869493,0.08801487833,-0.3412740231,0.221035853,2024-06-04 14:06:24.218869
1.259417253,-0.3944025338,-0.2523270845,0.5860112906,2024-06-04 14:06:24.259417
1.299845795,-0.352858454,0.04766917601,0.6190335155,2024-06-04 14:06:24.299846
1.340341837,0.1055912226,-0.01731003635,0.4133104086,2024-06-04 14:06:24.340342
1.380365482,0.06085143611,0.01944050193,0.2260957062,2024-06-04 14:06:24.380365
1.421370899,-0.2386122048,0.2015953511,0.08575125784,2024-06-04 14:06:24.421371
1.461820482,-0.3576519787,0.07456631213,0.03089175746,2024-06-04 14:06:24.461820
1.502136472,-0.3579182923,0.1821548492,0.06897383928,2024-06-04 14:06:24.502136
1.542848972,-0.3073197305,0.3645760119,0.0822892487,2024-06-04 14:06:24.542849
1.583258243,-0.4013265371,0.3667064607,-0.02343512699,2024-06-04 14:06:24.583258
1.623887201,-0.6138405204,0.5463314056,-0.1423417628,2024-06-04 14:06:24.623887
1.664321055,-0.7612421513,0.6059844494,-0.04074516147,2024-06-04 14:06:24.664321
1.70474793,-0.8009220958,0.4135767221,0.2276935577,2024-06-04 14:06:24.704748
1.745251212,-0.7449973226,0.140877068,0.5133091807,2024-06-04 14:06:24.745251
1.785748034,-0.04274247587,0.336081028,0.3150426745,2024-06-04 14:06:24.785748
1.826247462,0.1828206182,0.3728315532,0.1600512564,2024-06-04 14:06:24.826247
1.866758712,-0.2535254657,0.3446028829,0.2580527067,2024-06-04 14:06:24.866759
1.907210482,-0.2386122048,0.5463314056,0.2657756507,2024-06-04 14:06:24.907210
1.947675482,0.1378145218,0.3038577139,0.2154433727,2024-06-04 14:06:24.947675
1.988174909,0.04460663348,0.234617576,0.3126458824,2024-06-04 14:06:24.988175
2.028666993,-0.4505935609,-0.09001219273,0.2367480397,2024-06-04 14:06:25.028667
2.069159701,-0.4836157858,-0.4006607831,0.5734948516,2024-06-04 14:06:25.069160
2.109523451,0.4635095298,-0.1511299312,0.6640396118,2024-06-04 14:06:25.109523
2.150142409,0.7437989712,-0.4746944606,0.6600450277,2024-06-04 14:06:25.150142
2.190606264,0.4347482324,-0.4174381793,0.6182346344,2024-06-04 14:06:25.190606
2.231100587,0.03368799388,-0.1924077123,0.7543181181,2024-06-04 14:06:25.231101
2.271620378,0.1359503716,-0.542336762,0.6776213646,2024-06-04 14:06:25.271620
2.312097201,0.2792242169,-0.7571143508,0.3584509194,2024-06-04 14:06:25.312097
2.352413139,0.127961114,-0.5860112906,-0.01597849466,2024-06-04 14:06:25.352413
2.39278793,-0.1123820841,-0.597196281,-0.3442034125,2024-06-04 14:06:25.392788
2.433421159,0.2121145278,-0.1545919478,-0.3287575543,2024-06-04 14:06:25.433421
2.473921732,-0.3672390878,-0.2193048447,-0.6187672615,2024-06-04 14:06:25.473922
2.514549597,-1.127948642,0.1552577168,-0.2805557549,2024-06-04 14:06:25.514550
2.555041889,-0.2031932026,-0.4328840673,-0.1934729517,2024-06-04 14:06:25.555042
2.595581055,1.428344369,-0.06950645149,-0.2760285139,2024-06-04 14:06:25.595581
2.635977097,1.223819613,-0.4816184938,-0.573228538,2024-06-04 14:06:25.635977
2.676482149,0.09254211932,-0.05858781561,-0.803984642,2024-06-04 14:06:25.676482
2.717016628,-0.4484631121,0.3672390878,-0.6163704395,2024-06-04 14:06:25.717017
2.75749793,-0.2327534109,-0.347132802,-0.1982664913,2024-06-04 14:06:25.757498
2.797947566,-0.06404713541,-0.1806901544,-0.3681711555,2024-06-04 14:06:25.797948
2.838421159,0.164179042,-0.3354152441,-0.7416685224,2024-06-04 14:06:25.838421
2.878940222,0.2001306564,-0.1094526947,-0.652854681,2024-06-04 14:06:25.878940
2.919413139,-0.0929415822,0.03861469775,-0.3769593239,2024-06-04 14:06:25.919413
2.959928034,0.009720250964,-0.7659025192,-0.07376738638,2024-06-04 14:06:25.959928
3.00039418,0.5517907143,-0.9613727927,-0.06817491353,2024-06-04 14:06:26.000394
3.040866055,-0.2695039511,-0.1495320797,0.1501978636,2024-06-04 14:06:26.040866
3.081367409,-1.291461945,-0.2920069993,0.7934654355,2024-06-04 14:06:26.081367
3.121798816,-0.9705604315,-0.1615159512,0.3371462524,2024-06-04 14:06:26.121799
3.162298712,-0.478289634,0.134485662,0.2242315561,2024-06-04 14:06:26.162299
3.202796264,0.07496577501,0.1251648813,0.1616491079,2024-06-04 14:06:26.202796
3.243313087,-0.2489982247,-0.4975969791,-0.07829462737,2024-06-04 14:06:26.243313
3.283853816,-0.9455274343,0.1123820841,-0.4131772518,2024-06-04 14:06:26.283854
3.324322097,-1.27628231,0.591337502,-0.536477983,2024-06-04 14:06:26.324322
3.364513295,-0.6766892672,0.8682980537,-0.3644428551,2024-06-04 14:06:26.364513
3.405265587,0.2802894413,0.7668346167,0.1821548492,2024-06-04 14:06:26.405266
3.445745743,0.7541849613,0.07270215452,0.3712337017,2024-06-04 14:06:26.445746
3.486244232,0.6103785038,0.0487344116,0.07696308941,2024-06-04 14:06:26.486244
3.526731993,0.2286256403,-0.4608464241,-0.08601756394,2024-06-04 14:06:26.526732
3.567208972,0.02942706272,-0.3580514491,-0.618500948,2024-06-04 14:06:26.567209
3.607459337,0.2800231278,0.1968017966,-0.8631050587,2024-06-04 14:06:26.607459
3.648199389,0.6684337258,0.5785546899,-0.8857412338,2024-06-04 14:06:26.648199
3.688701212,0.4443353117,0.3054555655,-0.5812177658,2024-06-04 14:06:26.688701
3.729176628,-0.9479242563,0.5202331543,-1.250583529,2024-06-04 14:06:26.729177
3.769646472,-0.8991898298,0.3933372796,-1.667755485,2024-06-04 14:06:26.769646
3.810143764,0.687607944,-0.7834789157,-0.6547188759,2024-06-04 14:06:26.810144
3.850619857,1.928604364,-0.5900059342,-0.566837132,2024-06-04 14:06:26.850620
3.891156784,1.06656456,-0.4880098701,-0.9062470198,2024-06-04 14:06:26.891157
3.931650066,0.2336854935,-0.4438027143,-0.2965342402,2024-06-04 14:06:26.931650
3.972146316,0.4810858667,0.1131810099,-0.1639127284,2024-06-04 14:06:26.972146
4.012650587,0.3625786901,-0.5673697591,-0.2965342402,2024-06-04 14:06:27.012651
4.053075639,0.1154446304,0.1533935517,-0.3055887222,2024-06-04 14:06:27.053076
4.093585066,0.3745625615,0.9990554452,-0.3199693561,2024-06-04 14:06:27.093585
4.134015066,0.420101285,-0.4280905128,-0.8769530654,2024-06-04 14:06:27.134015
4.174458191,0.4786891043,-0.7781527042,-0.603853941,2024-06-04 14:06:27.174458
4.214979024,0.416905582,0.0980014354,0.2215684652,2024-06-04 14:06:27.214979
4.255503399,-0.6737598777,0.071104303,0.7987915874,2024-06-04 14:06:27.255503
4.295907514,-1.856168509,0.1363498271,0.3509942889,2024-06-04 14:06:27.295908
4.336427045,-1.478277087,0.9684299827,0.108920075,2024-06-04 14:06:27.336427
4.376724962,-0.140877068,0.4335498512,0.7143719196,2024-06-04 14:06:27.376725
4.417406055,0.861507237,0.2295577228,0.6720288992,2024-06-04 14:06:27.417406
4.457874753,0.7371412516,0.4777570069,0.3640433848,2024-06-04 14:06:27.457875
4.498360274,0.5414046645,0.5495271087,0.4117125571,2024-06-04 14:06:27.498360
4.538859649,0.7153039575,0.1584534049,0.5042546988,2024-06-04 14:06:27.538860
4.579359962,0.7978595495,-0.1191729456,0.643800199,2024-06-04 14:06:27.579360
4.619781368,0.7206301689,0.01597849466,0.5553858876,2024-06-04 14:06:27.619781
4.660360534,0.1255643368,-0.1113168523,0.3704347908,2024-06-04 14:06:27.660361
4.700833191,-0.507317245,-0.09613727778,-0.1713693589,2024-06-04 14:06:27.700833
4.74128017,0.02223674022,-0.09507204592,0.04660394415,2024-06-04 14:06:27.741280
4.78181392,0.3854812086,-0.7212958932,-0.05858781561,2024-06-04 14:06:27.781814
4.822281472,0.5007926822,-0.4661726058,-0.2376801223,2024-06-04 14:06:27.822281
4.862617097,-0.1187734827,-0.5726959109,-0.1985328048,2024-06-04 14:06:27.862617
4.902952722,-1.222488046,-0.8527190089,0.2503297627,2024-06-04 14:06:27.902953
4.943723139,-0.5949326158,-0.2102503628,0.2013290375,2024-06-04 14:06:27.943723
4.984146628,0.7659025192,-0.334882617,-0.3689700961,2024-06-04 14:06:27.984147
5.024711837,0.3468665183,-0.4507267177,-0.5926690102,2024-06-04 14:06:28.024712
5.065209962,-0.6026555896,0.1347519755,-0.3508611321,2024-06-04 14:06:28.065210
5.105655326,-0.8949288726,0.12117026,0.05033225939,2024-06-04 14:06:28.105655
5.146196524,-0.4364792407,0.4636426866,-0.224897325,2024-06-04 14:06:28.146197
5.186664701,-0.04141093418,0.3398093283,-0.4392754734,2024-06-04 14:06:28.186665
5.227155743,-0.009720250964,0.208785668,-0.3644428551,2024-06-04 14:06:28.227156
5.267647722,-0.2673735023,0.4593817294,-0.3782908916,2024-06-04 14:06:28.267648
5.308126107,-0.4934692085,0.4572512805,-0.2531259954,2024-06-04 14:06:28.308126
5.348577982,-0.5877423286,0.3073197305,0.1342193633,2024-06-04 14:06:28.348578
5.389016003,-0.605052352,0.0713706091,0.5556522012,2024-06-04 14:06:28.389016
5.429576784,-0.7732260227,0.05166380107,0.4015928507,2024-06-04 14:06:28.429577
5.470074545,-1.106643915,-0.1487331539,0.2748301327,2024-06-04 14:06:28.470075
5.51054892,-0.3632444739,-0.1948044896,0.4742949903,2024-06-04 14:06:28.510549
5.551068034,-0.02782921307,-0.3913399875,0.3730978668,2024-06-04 14:06:28.551068
5.591585899,0.142874375,-0.01118494663,0.2748301327,2024-06-04 14:06:28.591586
5.632044128,0.4512593448,0.2327534109,0.4191691875,2024-06-04 14:06:28.632044
5.672522357,0.959774971,0.09720251709,0.5710980296,2024-06-04 14:06:28.672522
5.713032045,1.226216316,0.08042509109,0.2529928386,2024-06-04 14:06:28.713032
5.753524649,0.9808133245,0.1243659556,0.343803972,2024-06-04 14:06:28.753525
5.793972409,0.5296871066,0.2756290436,0.302526176,2024-06-04 14:06:28.793972
5.834468295,-0.007323476952,0.07882724702,0.1840189993,2024-06-04 14:06:28.834468
5.874979232,-0.03821523488,0.05912043154,0.08947957307,2024-06-04 14:06:28.874979
5.915427566,0.2387453467,0.03808208182,0.02716344222,2024-06-04 14:06:28.915428
5.955894284,0.4986622036,-0.369769007,0.4687025249,2024-06-04 14:06:28.955894
5.996403295,-0.1688394397,-0.7696308494,0.4636426866,2024-06-04 14:06:28.996403
6.036896837,-1.099187374,-0.3013277948,-0.06870753318,2024-06-04 14:06:29.036897
6.077415482,0.07256899774,0.464707911,0.108920075,2024-06-04 14:06:29.077415
6.117931576,0.904915452,-0.03675054014,0.001065233024,2024-06-04 14:06:29.117932
6.158392045,0.03688369319,-0.08468602598,-0.530619204,2024-06-04 14:06:29.158392
6.198885691,-0.3485974967,0.2556559145,-0.1817553788,2024-06-04 14:06:29.198886
6.239318399,0.0126496423,-0.1529940963,0.1110505462,2024-06-04 14:06:29.239318
6.279823347,0.1865489334,0.05379426852,-0.2970668674,2024-06-04 14:06:29.279823
6.320300847,0.1221023351,0.2793573737,-0.2810883522,2024-06-04 14:06:29.320301
6.360775014,-0.1877473146,0.2282261699,-0.1569887102,2024-06-04 14:06:29.360775
6.40128142,-0.5161054134,0.2657756507,-0.1857500076,2024-06-04 14:06:29.401281
6.441787566,-0.2213021666,0.04953333735,-0.01597849466,2024-06-04 14:06:29.441788
6.482223139,0.06804175675,0.2591179311,0.155790329,2024-06-04 14:06:29.482223
6.522752253,-0.1294258088,-0.0977351293,0.4820179343,2024-06-04 14:06:29.522752
6.563251889,-0.5009258389,-0.04926702753,0.1478010863,2024-06-04 14:06:29.563252
6.603753503,-0.1994648874,0.276694268,0.1541924775,2024-06-04 14:06:29.603754
6.644230847,0.3601819277,-0.5532553792,0.5814840794,2024-06-04 14:06:29.644231
6.684703451,0.5270240307,-0.7191654444,0.612642169,2024-06-04 14:06:29.684703
6.725149545,-0.1209039465,0.07190322876,0.7870740294,2024-06-04 14:06:29.725150
6.765694493,-0.4362129271,0.3520595133,1.10557878,2024-06-04 14:06:29.765694
6.806127253,-0.03874785081,0.3805544972,1.234072447,2024-06-04 14:06:29.806127
6.846614076,0.4989285171,0.3030588031,1.313964963,2024-06-04 14:06:29.846614
6.887159753,0.593334794,0.272167027,1.434602618,2024-06-04 14:06:29.887160
6.927605482,0.5173037648,0.1017297506,1.353644848,2024-06-04 14:06:29.927605
6.968156576,0.5382089615,0.09161003679,0.9713593721,2024-06-04 14:06:29.968157
7.008638451,0.176429227,-0.02263620123,0.6706973314,2024-06-04 14:06:30.008638
7.049056368,-0.1336867511,0.3885437548,0.5625761747,2024-06-04 14:06:30.049056
7.089610743,0.01424749196,1.121690392,0.5311518312,2024-06-04 14:06:30.089611
7.13008392,-0.3123795986,0.2862813771,0.1520620137,2024-06-04 14:06:30.130084
7.170529024,-0.6447322965,-0.1081211492,-0.489341408,2024-06-04 14:06:30.170529
7.211013034,-0.5006595254,0.4973306656,-0.6848116517,2024-06-04 14:06:30.211013
7.251535274,-0.08135717362,0.3683043122,-0.6025224328,2024-06-04 14:06:30.251535
7.291978972,-0.03368799388,-0.08894696087,-1.883731484,2024-06-04 14:06:30.291979
7.332452357,-0.01691057347,-0.401992321,-1.546052575,2024-06-04 14:06:30.332452
7.373006732,-0.1741656065,-1.33447063,-0.7483261824,2024-06-04 14:06:30.373007
7.413451107,0.1282274276,-0.3963998258,-0.9589760303,2024-06-04 14:06:30.413451
7.453900691,0.001731003635,-0.07430000603,-0.5471302867,2024-06-04 14:06:30.453901
7.494395847,-0.1941387206,-0.9147688746,-1.019960642,2024-06-04 14:06:30.494396
7.534918347,-0.3965329826,-0.4390091598,-0.8452624083,2024-06-04 14:06:30.534918
7.575386368,-0.1909430176,-1.31742692,-0.8870728016,2024-06-04 14:06:30.575386
7.615880066,0.08535179496,-2.849098921,-1.02794981,2024-06-04 14:06:30.615880
7.656362305,0.5461982489,-2.126205206,-0.5567173958,2024-06-04 14:06:30.656362
7.696815899,0.1372819096,-3.551220655,-0.4928034246,2024-06-04 14:06:30.696816
7.737383816,-1.212102056,-3.352021933,1.837926388,2024-06-04 14:06:30.737384
7.777863712,-1.870282888,-3.27905345,2.879324913,2024-06-04 14:06:30.777864
7.818304545,-1.715824127,-3.85547781,3.253088474,2024-06-04 14:06:30.818305
7.85884793,-2.016352892,-3.595161438,3.785838127,2024-06-04 14:06:30.858848
7.89928293,-1.570153475,-4.405004978,4.745746136,2024-06-04 14:06:30.899283
7.939813451,-0.5057193637,-5.090349197,6.297124863,2024-06-04 14:06:30.939813
7.980309337,1.16416657,-3.250292301,4.693816185,2024-06-04 14:06:30.980309
8.020777097,1.600379467,-2.101971149,1.803572655,2024-06-04 14:06:31.020777
8.061210899,0.9704272747,-1.707169056,0.7487256527,2024-06-04 14:06:31.061211
8.101749909,0.7770875096,-1.295057058,-0.3679048419,2024-06-04 14:06:31.101750
8.142214337,1.154845715,-0.8857412338,-1.842187405,2024-06-04 14:06:31.142214
8.182715222,1.026085734,-0.2536586225,-2.071611881,2024-06-04 14:06:31.182715
8.223182618,0.1482005417,1.263898969,-0.9637695551,2024-06-04 14:06:31.223183
8.263713868,-0.5981283188,1.822746873,-0.2225005478,2024-06-04 14:06:31.263714
8.304133816,0.5090482235,0.6672353148,0.1605838835,2024-06-04 14:06:31.304134
8.344612201,1.405708075,-0.548728168,-0.9589760303,2024-06-04 14:06:31.344612
8.385106107,0.02170412242,-0.1234338731,-1.561764717,2024-06-04 14:06:31.385106
8.425610118,-1.659100413,1.279877424,-0.8673660159,2024-06-04 14:06:31.425610
8.466098139,-1.429010153,1.452445269,0.211981371,2024-06-04 14:06:31.466098
8.506568347,-0.486012578,0.3187709749,0.8720263839,2024-06-04 14:06:31.506568
8.547074493,-0.4055874646,-0.6597787142,0.9180977345,2024-06-04 14:06:31.547074
8.587594284,-0.5539211631,-0.7210295796,1.237268209,2024-06-04 14:06:31.587594
8.628059857,-0.6881405115,-0.2491313666,1.45777142,2024-06-04 14:06:31.628060
8.668558295,-0.586943388,0.7178338766,0.9833432436,2024-06-04 14:06:31.668558
8.709051107,-0.2785584331,0.7868077159,0.3009283245,2024-06-04 14:06:31.709051
8.749538607,-0.007856093347,0.2588516176,0.3017272651,2024-06-04 14:06:31.749539
8.78997543,0.04993279651,-0.1287600398,-0.1567224115,2024-06-04 14:06:31.789975
8.830476316,-0.6660369635,0.8200962543,0.339276731,2024-06-04 14:06:31.830476
8.870958712,0.4533897936,-0.7890713811,0.3145100474,2024-06-04 14:06:31.870959
8.91146767,0.8455287218,-2.227668524,-0.913969934,2024-06-04 14:06:31.911468
8.951951889,0.2222342342,-1.422219276,-0.9427312016,2024-06-04 14:06:31.951952
8.99239267,-0.3555215299,-0.6459306479,-1.0947932,2024-06-04 14:06:31.992393
9.032928816,-0.2695039511,0.07509893179,-1.560433269,2024-06-04 14:06:32.032929
9.073426159,0.6604444981,0.1193061024,-1.600379467,2024-06-04 14:06:32.073426
9.113895899,1.29039669,-0.5087819099,-1.489861488,2024-06-04 14:06:32.113896
9.154370274,1.141796589,-0.8583115339,-1.101717234,2024-06-04 14:06:32.154370
9.194869389,0.5762910843,-0.5165048838,-0.6808170676,2024-06-04 14:06:32.194869
9.235336993,0.4304873049,-0.2728328109,-0.3766930401,2024-06-04 14:06:32.235337
9.275817305,0.3367467821,-0.2059894353,-0.007722939365,2024-06-04 14:06:32.275817
9.316303659,0.0467370972,-0.3106485903,0.1986659616,2024-06-04 14:06:32.316304
9.356785899,-0.535279572,-0.07270215452,0.2063889056,2024-06-04 14:06:32.356786
9.397281264,-0.9263532758,0.3121132851,0.7663019896,2024-06-04 14:06:32.397281
9.437771264,0.176429227,-0.09161003679,0.619299829,2024-06-04 14:06:32.437771
9.478243034,0.7584459186,-0.3505948186,-0.5636414289,2024-06-04 14:06:32.478243
9.51873043,-0.6814828515,0.4005276263,-0.8103760481,2024-06-04 14:06:32.518730
9.55923168,-1.618887901,1.29958427,-0.06444659829,2024-06-04 14:06:32.559232
9.599731524,-1.060572624,1.150717974,0.1190397888,2024-06-04 14:06:32.599732
9.640226264,-0.9702941179,0.6222292185,-0.03462007269,2024-06-04 14:06:32.640226
9.68072418,-2.055766582,1.71489203,0.24234052,2024-06-04 14:06:32.680724
9.721215222,-2.696104765,2.956421137,-0.4139761925,2024-06-04 14:06:32.721215
9.76171142,-2.02221179,3.295431614,-0.9624380469,2024-06-04 14:06:32.761711
9.802160482,-1.35604167,3.309812069,-1.351381302,2024-06-04 14:06:32.802160
9.842687357,-0.254058063,4.760792732,-1.842453718,2024-06-04 14:06:32.842687
9.883131472,0.8748226166,3.682776928,-1.257507563,2024-06-04 14:06:32.883131
9.923621003,1.585199952,1.782800674,-0.5812177658,2024-06-04 14:06:32.923621
9.964148191,2.048176765,2.10529995,-1.132342696,2024-06-04 14:06:32.964148
10.00464866,2.051372528,2.756024122,-0.9983896613,2024-06-04 14:06:33.004649
10.04506897,1.880935192,2.026472569,-0.5702991486,2024-06-04 14:06:33.045069
10.08558824,1.807434082,1.534734488,-0.5588479042,2024-06-04 14:06:33.085588
10.12603001,1.0947932,1.847247243,-0.3519263566,2024-06-04 14:06:33.126030
10.16653152,0.8764204979,1.151783228,-0.08974587917,2024-06-04 14:06:33.166532
10.20705158,1.441926003,0.7119750977,0.08708280325,2024-06-04 14:06:33.207052
10.24755012,1.456040382,0.4497946501,0.2117150575,2024-06-04 14:06:33.247550
10.28798038,0.950720489,0.2956021726,0.07909355313,2024-06-04 14:06:33.287980
10.32846548,0.7965279818,0.3552552164,-0.1049254537,2024-06-04 14:06:33.328465
10.3689858,1.000253797,0.2601831555,-0.3058550358,2024-06-04 14:06:33.368986
10.40945168,0.5816172361,0.6491263509,0.04074516147,2024-06-04 14:06:33.409452
10.44995918,0.4193023443,0.3446028829,0.3499290347,2024-06-04 14:06:33.449959
10.49040736,0.62049824,-0.2664414048,0.08947957307,2024-06-04 14:06:33.490407
10.53092392,-0.3001294136,0.2841508985,0.172567755,2024-06-04 14:06:33.530924
10.57145668,0.2153102309,0.7812152505,0.1848179251,2024-06-04 14:06:33.571457
10.61192569,1.580938935,0.554586947,-0.08601756394,2024-06-04 14:06:33.611926
10.65233163,1.306375146,0.2668408751,-0.4989285171,2024-06-04 14:06:33.652332
10.69289803,0.07150376588,0.1741656065,-0.1426080763,2024-06-04 14:06:33.692898
10.73338106,-0.02090519853,0.06018566713,0.268971324,2024-06-04 14:06:33.733381
10.77388741,0.52622509,-0.2438052148,-0.03861469775,2024-06-04 14:06:33.773887
10.81431616,0.5920032263,-0.2129134536,0.06977276504,2024-06-04 14:06:33.814316
10.85482371,0.3351489305,-0.09320788831,0.8003894687,2024-06-04 14:06:33.854824
10.89533022,-0.1611164957,-0.2379464209,0.515173316,2024-06-04 14:06:33.895330
10.93577996,-0.6628412604,-0.1054580659,0.2279598713,2024-06-04 14:06:33.935780
10.97628262,-0.4793548584,0.472430855,0.5535216928,2024-06-04 14:06:33.976283
11.01680944,-0.1259638071,0.5322170258,0.5404726267,2024-06-04 14:06:34.016809
11.05723022,0.3950682878,-0.4224980474,0.2711018026,2024-06-04 14:06:34.057230
11.09773574,-0.6042534113,-0.4581833482,0.7114425302,2024-06-04 14:06:34.097736
11.13820356,-0.1411433816,0.4141093493,0.3339505494,2024-06-04 14:06:34.138204
11.17871632,1.037803292,-0.3410077095,0.4258269072,2024-06-04 14:06:34.178716
11.21917944,1.176949382,-0.9571118951,0.3097164929,2024-06-04 14:06:34.219179
11.25972168,0.6884068251,-0.04527240247,-0.1354177445,2024-06-04 14:06:34.259722
11.30014939,0.01824211515,0.214644447,0.1515294015,2024-06-04 14:06:34.300149
11.34066007,-0.1139799356,-0.232087642,0.1294258088,2024-06-04 14:06:34.340660
11.38115152,-0.116643019,0.01544587873,0.2157096863,2024-06-04 14:06:34.381152
11.42166507,-0.1272953451,0.09427312016,0.3741630912,2024-06-04 14:06:34.421665
11.46216538,0.02889444493,-0.1956034154,0.2279598713,2024-06-04 14:06:34.462165
11.50257173,-0.04194355011,-0.1150451675,0.07776200771,2024-06-04 14:06:34.502572
11.54304335,-0.1696383655,-0.2667077184,-0.03754946589,2024-06-04 14:06:34.543043
11.58355043,-0.3938699067,0.1464695334,-0.2174406946,2024-06-04 14:06:34.583550
11.62408267,-0.3254286945,-0.3244965971,-0.2978657782,2024-06-04 14:06:34.624083
11.66456074,-0.4687025249,0.003462007269,-0.2190385461,2024-06-04 14:06:34.664561
11.70504231,-0.5528559685,0.560978353,0.000266308256,2024-06-04 14:06:34.705042
11.74550392,0.2390116602,-0.1948044896,-0.4131772518,2024-06-04 14:06:34.745504
11.78602767,0.1521951705,-0.3026593328,-0.7832126021,2024-06-04 14:06:34.786028
11.82650225,-0.6655043364,0.5106461048,-0.6744256616,2024-06-04 14:06:34.826502
11.8670359,-0.5446003675,0.3230319023,-0.4917382002,2024-06-04 14:06:34.867036
11.90749288,-0.1411433816,0.001065233024,-0.3708342612,2024-06-04 14:06:34.907493
11.94795501,-0.07922670245,0.7210295796,-0.5657718778,2024-06-04 14:06:34.947955
11.98844559,-0.01051917579,0.8999887705,-0.3772256374,2024-06-04 14:06:34.988446
12.02894819,-0.2370143533,0.9468590021,-0.1250317246,2024-06-04 14:06:35.028948
12.06939246,-0.5179695487,1.103048801,-0.2240983993,2024-06-04 14:06:35.069392
12.10988168,-0.565638721,0.5031894445,-0.4222317338,2024-06-04 14:06:35.109882
12.15037215,-0.3350157738,0.646463275,0.5250267386,2024-06-04 14:06:35.150372
12.19086225,-1.613828063,-0.02236989327,1.101317763,2024-06-04 14:06:35.190862
12.23133876,-0.7585790753,-0.2166417688,-0.5540543199,2024-06-04 14:06:35.231339
12.27186569,0.1905435622,0.1387466043,-0.4989285171,2024-06-04 14:06:35.271866
12.31231835,-0.2130466104,-0.2280930281,-0.0519301109,2024-06-04 14:06:35.312318
12.35281658,-0.06058513001,-0.3015941083,0.4609795809,2024-06-04 14:06:35.352817
12.39331996,-0.2458025217,0.06391397864,0.199731186,2024-06-04 14:06:35.393320
12.4337908,-0.1326215118,-0.2278267145,0.3627118468,2024-06-04 14:06:35.433791
12.4742573,0.03102491237,-0.6366099119,0.429821521,2024-06-04 14:06:35.474257
12.51474402,0.2531259954,-0.5308855176,0.1826874614,2024-06-04 14:06:35.514744
12.55523163,0.1599181145,-0.4179708064,-0.07882724702,2024-06-04 14:06:35.555232
12.59572356,-0.467903614,-0.3924052119,-0.3450023532,2024-06-04 14:06:35.595724
12.63620913,-0.8754884005,-0.1418091506,-1.002650619,2024-06-04 14:06:35.636209
12.67674408,-0.9444622397,0.07430000603,-1.251116157,2024-06-04 14:06:35.676744
12.71720178,-0.4157072008,0.05059856921,-0.4973306656,2024-06-04 14:06:35.717202
12.75768507,-0.0926752761,-0.2310224175,0.2535254657,2024-06-04 14:06:35.757685
12.79816434,-0.3243634701,-0.1255643368,-0.056723658,2024-06-04 14:06:35.798164
12.83869892,0.1175750941,0.2276935577,-0.3948020041,2024-06-04 14:06:35.838699
12.87917606,0.831946969,0.3414071798,-0.5159722567,2024-06-04 14:06:35.879176
12.91965876,0.657248795,0.6920019984,-1.250050902,2024-06-04 14:06:35.919659
12.96013772,0.392937839,0.3816197217,-1.024487853,2024-06-04 14:06:35.960138
13.00061012,0.3276923001,0.01011971384,-0.1894783229,2024-06-04 14:06:36.000610
13.04110934,0.07390054315,0.4500609636,-0.1067896113,2024-06-04 14:06:36.041109
13.08161699,-0.09693620354,0.8216941357,0.08628387749,2024-06-04 14:06:36.081617
13.12207902,0.0166442655,0.7194317579,-0.114113085,2024-06-04 14:06:36.122079
13.16258663,0.2025274336,0.2252967805,-0.5636414289,2024-06-04 14:06:36.162587
13.20302048,0.4661726058,0.08575125784,-0.3175725937,2024-06-04 14:06:36.203020
13.24358298,0.7744244337,-0.05539211631,-0.04207670316,2024-06-04 14:06:36.243583
13.28399382,0.8047835231,0.5766905546,0.3930709958,2024-06-04 14:06:36.283994
13.32451012,-0.214644447,-0.3250292242,-0.1130478531,2024-06-04 14:06:36.324510
13.36498382,-0.9971912503,-0.8058487773,-0.3695026934,2024-06-04 14:06:36.364984
13.40548668,-0.3957340717,0.04074516147,0.5055862069,2024-06-04 14:06:36.405487
13.44596678,0.2496639937,-0.2246310115,0.231421873,2024-06-04 14:06:36.445967
13.48642012,0.5589810014,0.07430000603,0.04713656008,2024-06-04 14:06:36.486420
13.52692199,0.4901403487,0.2820204496,0.1414096802,2024-06-04 14:06:36.526922
13.56742663,0.2741643488,0.04234301299,0.1078548431,2024-06-04 14:06:36.567427
13.60791803,0.2499302924,-0.264310956,0.1262301207,2024-06-04 14:06:36.607918
13.64837694,0.3346163332,-0.6975944638,0.3395430148,2024-06-04 14:06:36.648377
13.6889046,0.3766930401,-0.8700290918,0.2825530469,2024-06-04 14:06:36.688905
13.72937991,0.2014621943,-0.7962616682,0.1091863886,2024-06-04 14:06:36.729380
13.76983486,0.1442059278,-0.28241992,-0.1351514459,2024-06-04 14:06:36.769835
13.81032465,0.09760197252,0.1352845877,-0.1087869257,2024-06-04 14:06:36.810325
13.85083986,0.1639127284,0.1049254537,0.01278279629,2024-06-04 14:06:36.850840
13.89132746,-0.1243659556,-0.2906754613,-0.2038589716,2024-06-04 14:06:36.891327
13.93182793,-0.3517931998,-0.1676410437,0.113447316,2024-06-04 14:06:36.931828
13.97226522,0.3649754524,0.4455337226,-0.1372819096,2024-06-04 14:06:36.972265
14.01281658,0.7232932448,0.667767942,-0.5657718778,2024-06-04 14:06:37.012817
14.05329777,0.0683080703,-0.1503310055,-0.1167761683,2024-06-04 14:06:37.053298
14.09377626,-0.490539819,-0.05326165259,0.01304910425,2024-06-04 14:06:37.093776
14.13422194,-0.581084609,0.1470021605,-0.3154421151,2024-06-04 14:06:37.134222
14.17471595,-0.06511236727,0.071104303,-0.3095833361,2024-06-04 14:06:37.174716
14.21521762,0.3870790601,0.08149032295,-0.2416747361,2024-06-04 14:06:37.215218
14.25566475,0.2280930281,-0.002396774245,-0.3825518191,2024-06-04 14:06:37.255665
14.29617725,0.008388710208,-0.05885412544,-0.4414059222,2024-06-04 14:06:37.296177
14.3366548,0.06884068251,0.03248960897,-0.2728328109,2024-06-04 14:06:37.336655
14.37716319,0.1772281379,0.1999974996,0.05698996782,2024-06-04 14:06:37.377163
14.41764017,-0.243672058,0.04394086078,0.5250267386,2024-06-04 14:06:37.417640
14.45813026,-0.8155690432,-0.6390066743,0.02742975019,2024-06-04 14:06:37.458130
14.49858088,-0.2511286736,0.3896089792,0.2782921195,2024-06-04 14:06:37.498581
14.53910583,0.4477973282,0.1022623703,0.4700340629,2024-06-04 14:06:37.539106
14.57956473,0.5762910843,-0.3513937294,0.307053417,2024-06-04 14:06:37.579565
14.62008651,0.2600499988,0.3560541272,0.1731003672,2024-06-04 14:06:37.620087
14.6605952,-0.1051917598,0.4439358711,0.2234326303,2024-06-04 14:06:37.660595
14.70107078,-0.2045247406,0.1041265279,0.319303602,2024-06-04 14:06:37.701071
14.7415702,0.1042596847,0.1912093312,0.46018067,2024-06-04 14:06:37.741570
14.78206473,0.1838858575,-0.03275591508,0.3573856652,2024-06-04 14:06:37.782065
14.82249202,0.103727065,-0.1250317246,0.2170412242,2024-06-04 14:06:37.822492
14.86295343,0.06244928762,0.1307573467,-0.2406095117,2024-06-04 14:06:37.862953
14.90343729,0.1109173894,-0.08388710022,-0.037815772,2024-06-04 14:06:37.903437
14.94399526,0.4198349714,0.1094526947,0.09693620354,2024-06-04 14:06:37.943995
14.98445703,0.07123745978,-0.2312887162,-0.2667077184,2024-06-04 14:06:37.984457
15.02495942,-0.7231600881,-0.5457987785,-0.1202381775,2024-06-04 14:06:38.024959
15.0654313,-0.1339530498,0.4167724252,0.1523283273,2024-06-04 14:06:38.065431
15.10590812,0.8348763585,0.2351501882,-0.2493976802,2024-06-04 14:06:38.105908
15.14640781,0.6660369635,-0.003994623665,-0.5370106101,2024-06-04 14:06:38.146408
15.1869076,-0.4364792407,-0.001065233024,-0.158320263,2024-06-04 14:06:38.186908
15.22736348,-0.6734935641,0.1094526947,-0.03595161438,2024-06-04 14:06:38.227363
15.26789833,-0.3083849549,0.1073222235,-0.3205019832,2024-06-04 14:06:38.267898
15.3083427,0.02809552103,0.3416734934,-0.4869446456,2024-06-04 14:06:38.308343
15.34882968,-0.0544600375,0.3121132851,-0.4480636418,2024-06-04 14:06:38.348830
15.38932041,-0.02037258074,0.3523258269,-0.5457987785,2024-06-04 14:06:38.389320
15.42980156,-0.225563094,0.2492645234,-0.4909392595,2024-06-04 14:06:38.429802
15.47026859,0.2427399755,0.3094501793,-0.07696308941,2024-06-04 14:06:38.470269
15.51074843,0.2629793882,0.1675078869,0.2418078929,2024-06-04 14:06:38.510748
15.55127114,-0.8400694132,-0.5354127288,-0.09347419441,2024-06-04 14:06:38.551271
15.59179926,-0.7399374843,-0.01784265228,-0.1237001866,2024-06-04 14:06:38.591799
15.63226791,0.008655018173,0.787340343,0.3738967776,2024-06-04 14:06:38.632268
15.6727214,0.6037208438,0.1131810099,0.4788222313,2024-06-04 14:06:38.672721
15.71324452,0.4683030546,-0.3596493006,0.5761579275,2024-06-04 14:06:38.713245
15.75372828,-0.03635107726,-0.08335448056,0.327026546,2024-06-04 14:06:38.753728
15.79418952,-0.3824186623,-0.2283593267,0.2758953571,2024-06-04 14:06:38.794190
15.83465062,-0.117974557,-0.2797568142,0.4644415975,2024-06-04 14:06:38.834651
15.87518302,0.2467346042,-0.2933385372,0.473762393,2024-06-04 14:06:38.875183
15.9156765,0.2802894413,0.1366161406,0.3691032529,2024-06-04 14:06:38.915676
15.95614729,0.3106485903,0.4154408872,0.2479329854,2024-06-04 14:06:38.956147
15.99664598,0.4877435565,0.3680379987,-0.09027849883,2024-06-04 14:06:38.996646
16.03711223,0.1828206182,0.6978607774,-0.02529928461,2024-06-04 14:06:39.037112
16.07761067,-0.06537867337,0.8613740802,0.2790910602,2024-06-04 14:06:39.077611
16.11809583,0.03661738336,0.4484631121,0.2860150635,2024-06-04 14:06:39.118096
16.15857624,0.3069202602,0.1243659556,0.1645784974,2024-06-04 14:06:39.158576
16.19906197,-0.4551208019,0.4588491321,-0.05512581021,2024-06-04 14:06:39.199062
16.23954723,-0.1280942708,-0.5495271087,-0.4086500108,2024-06-04 14:06:39.239547
16.28001916,0.3636439145,-0.5820167065,-0.6451317668,2024-06-04 14:06:39.280019
16.32050776,-0.7644378543,-0.2581858635,-0.3940030634,2024-06-04 14:06:39.320508
16.36098182,-0.04806863889,-0.4334166944,-0.1873478591,2024-06-04 14:06:39.360982
16.40149161,0.3780245781,-0.8210283518,-0.1663095057,2024-06-04 14:06:39.401492
16.44201114,0.2885449827,-0.8396699429,-0.4078511,2024-06-04 14:06:39.442011
16.48243926,0.3473991156,-0.5047873259,-0.4605801404,2024-06-04 14:06:39.482439
16.52295239,0.2938711643,-0.005592473317,-0.5165048838,2024-06-04 14:06:39.522952
16.56348567,-0.07256899774,0.2354165018,-0.5588479042,2024-06-04 14:06:39.563486
16.60389182,0.028361829,0.1983996481,-0.1009308323,2024-06-04 14:06:39.603892
16.64438484,-0.1970681101,0.1091863886,0.2489982247,2024-06-04 14:06:39.644385
16.68492828,-1.162302375,-0.4485962689,-0.3631113172,2024-06-04 14:06:39.684928
16.72537739,-0.8235582709,-0.4765586257,-0.052196417,2024-06-04 14:06:39.725377
16.76590265,-0.1983996481,-0.2736317217,0.3920057416,2024-06-04 14:06:39.765903
16.8063402,0.03874785081,-0.2946700752,0.2849498391,2024-06-04 14:06:39.806340
16.84684749,-0.0683080703,0.2005301118,0.3904078901,2024-06-04 14:06:39.846847
16.88737072,-0.01850842312,0.9423317909,0.5079829693,2024-06-04 14:06:39.887371
16.92781932,-0.2250304818,0.2801562846,0.3672390878,2024-06-04 14:06:39.927819
16.96830609,0.05605788901,0.2205032408,0.4135767221,2024-06-04 14:06:39.968306
17.00883526,0.3173062801,0.2993304729,0.4793548584,2024-06-04 14:06:40.008835
17.04925176,0.1010639817,-0.08548495173,0.3882774413,2024-06-04 14:06:40.049252
17.08973546,-0.003328853287,0.139012903,-0.07776200771,2024-06-04 14:06:40.089735
17.13023713,0.0736342296,-0.1362166703,-0.07909355313,2024-06-04 14:06:40.130237
17.1707077,0.0355521515,-0.3785571754,0.05113118514,2024-06-04 14:06:40.170708
17.21122473,-0.04354140162,0.226894632,0.1957365721,2024-06-04 14:06:40.211225
17.25173744,-0.8560478687,-0.3460675776,-0.05938674137,2024-06-04 14:06:40.251737
17.29217369,-0.687874198,0.4276910722,0.3387441039,2024-06-04 14:06:40.292174
17.33263015,0.4616453648,0.5846797824,0.6206313968,2024-06-04 14:06:40.332630
17.37320796,0.4701672196,-0.8058487773,-0.3612471521,2024-06-04 14:06:40.373208
17.41368255,-1.053382277,-2.04338336,-0.9829437733,2024-06-04 14:06:40.413683
17.45416942,-3.095300913,-2.311821938,-1.000786424,2024-06-04 14:06:40.454169
17.49459984,-4.289160728,-0.3695026934,0.354189992,2024-06-04 14:06:40.494600
17.5351138,-3.263474464,-0.4651073813,1.276948094,2024-06-04 14:06:40.535114
17.57561072,-1.445521235,-0.5932016373,1.037936449,2024-06-04 14:06:40.575611
17.61611468,1.820216894,-0.1801575422,-0.08521863818,2024-06-04 14:06:40.616115
17.65657067,4.162797451,1.297720075,-0.9382039905,2024-06-04 14:06:40.656571
17.69707749,4.79820919,3.257615805,-0.1559234858,2024-06-04 14:06:40.697077
17.73753958,3.367734194,0.4973306656,0.177094996,2024-06-04 14:06:40.737540
17.77806937,1.491991997,1.116896868,-0.0596530512,2024-06-04 14:06:40.778069
17.81853114,-0.6545857191,0.6445991397,-0.04127778113,2024-06-04 14:06:40.818531
17.85901265,-0.9162335396,0.5625761747,0.6808170676,2024-06-04 14:06:40.859013
17.8995027,0.0352858454,0.1272953451,0.4687025249,2024-06-04 14:06:40.899503
17.93999531,-0.1318225861,-0.5524564981,0.294803232,2024-06-04 14:06:40.939995
17.98046869,-0.181622237,0.1049254537,0.4149082601,2024-06-04 14:06:40.980469
18.02098723,-0.03954677656,0.2460688353,0.3097164929,2024-06-04 14:06:41.020987
18.0614601,0.1239664927,0.290275991,0.4074516296,2024-06-04 14:06:41.061460
18.10196124,0.4113130867,-0.03728315607,0.4543218911,2024-06-04 14:06:41.101961
18.14238807,0.2432725877,-0.2089188248,0.3930709958,2024-06-04 14:06:41.142388
18.18294578,0.3018604219,-0.255256474,0.2665745616,2024-06-04 14:06:41.182946
18.223419,0.4448679388,-0.2837514579,0.03967992961,2024-06-04 14:06:41.223419
18.26389078,-0.007589785382,-0.2190385461,-0.118640326,2024-06-04 14:06:41.263891
18.30434515,0.09733566642,0.03701684624,0.2063889056,2024-06-04 14:06:41.304345
18.34483859,-0.05499265343,-0.3436708152,-0.008788172156,2024-06-04 14:06:41.344839
18.38533911,-0.8467270732,-0.3814865649,-0.1892120093,2024-06-04 14:06:41.385339
18.42582374,-0.1270290315,0.2071878165,0.3728315532,2024-06-04 14:06:41.425824
18.46629822,1.119027257,-0.06284874678,-0.04926702753,2024-06-04 14:06:41.466298
18.50678072,0.8670997024,-0.04473978654,-0.3862801194,2024-06-04 14:06:41.506781
18.54727989,-0.2394111156,0.2601831555,-0.1897446364,2024-06-04 14:06:41.547280
18.58777156,-0.496398598,0.1123820841,0.05246272683,2024-06-04 14:06:41.587772
18.62824151,-0.2050573528,-0.1649779677,0.08521863818,2024-06-04 14:06:41.628242
18.66875093,0.156456098,0.09134373069,-0.160983339,2024-06-04 14:06:41.668751
18.70924833,0.4081174135,-0.003994623665,-0.1311568171,2024-06-04 14:06:41.709248
18.74970494,0.07123745978,-0.2003969699,-0.3117138147,2024-06-04 14:06:41.749705
18.79018776,-0.3547225893,0.3145100474,-0.3127790391,2024-06-04 14:06:41.790188
18.83066682,0.02223674022,0.2987978756,-0.3247629106,2024-06-04 14:06:41.830667
18.87116239,0.1625811905,0.006924014539,-0.394269377,2024-06-04 14:06:41.871162
18.91168458,0.06244928762,0.5407389402,-0.01571218669,2024-06-04 14:06:41.911685
18.9521927,-0.9260869622,-0.6294195652,-0.1062569916,2024-06-04 14:06:41.952193
18.9926501,-1.280276895,0.2015953511,-0.2134460658,2024-06-04 14:06:41.992650
19.03313942,0.1133141592,0.3773587942,-0.007722939365,2024-06-04 14:06:42.033139
19.07360874,0.7653699517,-0.5178363919,0.03222329915,2024-06-04 14:06:42.073609
19.1141076,0.3093170524,-0.1479342431,0.2085193694,2024-06-04 14:06:42.114108
19.15457958,-0.3371462524,0.1624480337,0.1240996495,2024-06-04 14:06:42.154580
19.19506854,-0.3589835167,-0.127961114,0.1246322617,2024-06-04 14:06:42.195069
19.23552333,-0.001731003635,-0.1615159512,0.2985315621,2024-06-04 14:06:42.235523
19.27602452,0.084020257,-0.209451437,0.3049229383,2024-06-04 14:06:42.276025
19.31651526,-0.03954677656,0.07296846062,0.1528609395,2024-06-04 14:06:42.316515
19.35700005,0.05286218971,-0.1479342431,0.01997311972,2024-06-04 14:06:42.357000
19.3974915,-0.001464695437,-0.2419410497,-0.1692388952,2024-06-04 14:06:42.397492
19.43797916,-0.199731186,-0.218505919,-0.2073209733,2024-06-04 14:06:42.437979
19.47845562,-0.1478010863,-0.2454030514,-0.2246310115,2024-06-04 14:06:42.478456
19.51895286,0.4605801404,-0.492537111,-0.2973331809,2024-06-04 14:06:42.518953
19.5594276,-0.1387466043,-0.6869421601,-0.6219629049,2024-06-04 14:06:42.559428
19.59991255,-0.6189003587,-0.4227643609,-0.22303316,2024-06-04 14:06:42.599913
19.64041911,0.709178865,-0.2110492885,0.08868064731,2024-06-04 14:06:42.640419
19.68093677,1.203580141,-0.05485950038,-0.4390091598,2024-06-04 14:06:42.680937
19.72142338,-0.08242240548,0.248199299,-0.4829500318,2024-06-04 14:06:42.721423
19.761909,-0.8262213469,0.0817566365,0.02636451647,2024-06-04 14:06:42.761909
19.80235661,-0.5440677404,-0.08947957307,0.1555240154,2024-06-04 14:06:42.802357
19.84286427,-0.1909430176,0.1150451675,-0.1303578913,2024-06-04 14:06:42.842864
19.88334895,-0.1267627329,0.287612915,-0.2802894413,2024-06-04 14:06:42.883349
19.92385536,-0.3605813682,0.328358084,-0.1410102248,2024-06-04 14:06:42.923855
19.96430437,-0.5222305059,0.487344116,-0.09320788831,2024-06-04 14:06:42.964304
20.00483426,-0.2095845938,0.3685706258,-0.1793586165,2024-06-04 14:06:43.004834
20.04526296,0.06457975507,-0.004793548491,-0.1828206182,2024-06-04 14:06:43.045263
20.08576572,-0.08055824786,0.009853405878,0.1414096802,2024-06-04 14:06:43.085766
20.12628328,-0.2987978756,-0.4374113083,-0.3404751122,2024-06-04 14:06:43.126283
20.16676223,-0.2884118557,-0.3319532275,-0.2078536004,2024-06-04 14:06:43.166762
20.20722718,0.484814167,0.008788172156,0.2545906901,2024-06-04 14:06:43.207227
20.24770796,0.5573831797,-0.4661726058,0.004793548491,2024-06-04 14:06:43.247708
20.2882314,0.1093195379,-0.1263632625,0.09693620354,2024-06-04 14:06:43.288231
20.32873005,-0.08694964647,0.254058063,0.1025286764,2024-06-04 14:06:43.328730
20.3692065,0.1689725816,-0.03089175746,-0.1049254537,2024-06-04 14:06:43.369207
20.40970677,0.3218335211,-0.2150439173,0.06524552405,2024-06-04 14:06:43.409707
20.45018432,0.3255618513,-0.2131797522,0.2519276142,2024-06-04 14:06:43.450184
20.49066161,0.203592658,-0.2038589716,0.1411433816,2024-06-04 14:06:43.490662
20.53111052,0.1548582464,-0.2730991244,-0.1455374658,2024-06-04 14:06:43.531111
20.57161692,0.0621829778,-0.376160413,-0.2912080884,2024-06-04 14:06:43.571617
20.6120877,0.4704335332,-0.3138442934,-0.3316869438,2024-06-04 14:06:43.612088
20.6525688,0.8708279729,-0.6967955232,-0.05485950038,2024-06-04 14:06:43.652569
20.69307104,1.343125701,-0.2105166763,-0.06870753318,2024-06-04 14:06:43.693071
20.73360276,0.5789541602,-0.7789516449,-1.443523884,2024-06-04 14:06:43.733603
20.77409776,-0.623693943,-1.021824837,-0.7286193967,2024-06-04 14:06:43.774098
20.81452869,-0.02516612969,-0.4936023653,-0.2781589627,2024-06-04 14:06:43.814529
20.85501369,-0.9423317909,0.03941362351,-0.006391398143,2024-06-04 14:06:43.855014
20.8955101,-1.386134505,0.3850817382,0.5769568086,2024-06-04 14:06:43.895510
20.93598833,-0.9162335396,-0.9533835649,0.9154346585,2024-06-04 14:06:43.935988
20.976529,-0.7950633168,-0.7565817833,0.5165048838,2024-06-04 14:06:43.976529
21.01702062,-1.102383018,-0.1205044836,0.1661763489,2024-06-04 14:06:44.017021
21.05742895,-1.065898776,0.8320801258,0.3126458824,2024-06-04 14:06:44.057429
21.09792869,-1.097056866,0.7162360549,0.1704372764,2024-06-04 14:06:44.097929
21.1384488,-1.287200928,1.578941703,-1.019694328,2024-06-04 14:06:44.138449
21.17889984,-0.6825480461,1.374949574,-1.849377632,2024-06-04 14:06:44.178900
21.21941765,0.7991910577,1.730870485,-1.187468529,2024-06-04 14:06:44.219418
21.25990385,0.7912018299,0.6688331962,0.4500609636,2024-06-04 14:06:44.259904
21.30045755,0.04460663348,0.8664339185,0.6584471464,2024-06-04 14:06:44.300458
21.34082369,0.7139724493,1.070958614,0.7069152594,2024-06-04 14:06:44.340824
21.38134078,1.856967449,1.665491819,0.6547188759,2024-06-04 14:06:44.381341
21.42177109,1.927272797,1.374150634,0.7521876693,2024-06-04 14:06:44.421771
21.46234614,1.3913275,0.07509893179,-0.07962616533,2024-06-04 14:06:44.462346
21.50278645,0.3434045017,0.316107899,0.3893426657,2024-06-04 14:06:44.502786
21.54328963,-0.5339480639,-0.08841434121,0.5218310356,2024-06-04 14:06:44.543290
21.58382369,-0.2591179311,-0.08149032295,0.302526176,2024-06-04 14:06:44.583824
21.62425291,0.4565854967,0.4930697381,0.3605813682,2024-06-04 14:06:44.624253
21.66476036,0.3995955288,0.1478010863,0.03754946589,2024-06-04 14:06:44.664760
21.70523968,-0.1962691844,-0.1487331539,0.005326164886,2024-06-04 14:06:44.705240
21.74569348,0.4153077304,1.144060254,0.5122439265,2024-06-04 14:06:44.745693
21.78621578,0.8053161502,0.489208281,0.2782921195,2024-06-04 14:06:44.786216
21.82670317,0.1942718774,0.6989260316,-0.8596430421,2024-06-04 14:06:44.826703
21.86719968,-0.8166342378,0.9641690254,-0.4517919421,2024-06-04 14:06:44.867200
21.90765317,-0.2745638192,-1.647782326,-0.5418041348,2024-06-04 14:06:44.907653
21.94815723,-0.4940018058,-0.8876054287,-0.3841496706,2024-06-04 14:06:44.948157
21.98867671,-0.1888125539,-0.4105141759,-0.1508636326,2024-06-04 14:06:44.988677
22.02913499,-0.34513551,-1.553509235,-0.3252955377,2024-06-04 14:06:45.029135
22.06963057,-0.4500609636,-1.381207824,-0.4904066622,2024-06-04 14:06:45.069631
22.1101127,-0.431153059,-1.185604334,-0.4483299553,2024-06-04 14:06:45.110113
22.15057958,-0.6793523431,-1.538063288,-0.4613790512,2024-06-04 14:06:45.150580
22.19106052,-1.111437559,-1.008775711,-0.5463314056,2024-06-04 14:06:45.191061
22.23151999,-1.519554853,-0.4121120274,0.04766917601,2024-06-04 14:06:45.231520
22.27200624,-1.55870223,0.4591154456,1.222088575,2024-06-04 14:06:45.272006
22.3125263,-2.398771524,-1.668288112,2.198774099,2024-06-04 14:06:45.312526
22.35300984,-2.085859299,-1.782534361,2.902227402,2024-06-04 14:06:45.353010
22.39350901,0.7690982223,1.691057444,2.638049603,2024-06-04 14:06:45.393509
22.43401213,2.458957195,-0.06071828306,0.722627461,2024-06-04 14:06:45.434012
22.47446843,1.670684814,0.3523258269,0.65871346,2024-06-04 14:06:45.474468
22.51493901,0.675357759,0.5998593569,0.9492557645,2024-06-04 14:06:45.514939
22.55543739,0.9685631394,0.1230344176,0.7375407219,2024-06-04 14:06:45.555437
22.59595718,1.360435724,-0.5290213227,0.1528609395,2024-06-04 14:06:45.595957
22.63641036,1.411566854,-0.1676410437,0.3707011044,2024-06-04 14:06:45.636410
22.67690426,1.25178194,0.104392834,0.2868140042,2024-06-04 14:06:45.676904
22.71738328,1.025286794,-0.07270215452,0.01011971384,2024-06-04 14:06:45.717383
22.75787635,1.183607101,-0.3135779798,-0.09693620354,2024-06-04 14:06:45.757876
22.7984038,0.96563375,-0.5026568174,-0.3953346014,2024-06-04 14:06:45.798404
22.83887791,0.7461957335,-0.7930659652,-0.4150414169,2024-06-04 14:06:45.838878
22.87933374,0.4608464241,0.05113118514,0.1720351279,2024-06-04 14:06:45.879334
22.91982999,-0.4937354922,-0.6445991397,-0.03488638252,2024-06-04 14:06:45.919830
22.96031265,-1.884397268,-0.4981296062,0.290275991,2024-06-04 14:06:45.960313
23.00081828,-0.5736280084,0.2545906901,-0.3085181117,2024-06-04 14:06:46.000818
23.04131776,0.8985240459,-0.3748288751,-1.105978131,2024-06-04 14:06:46.041318
23.08178755,0.4456668794,-0.6493926644,-0.8095771074,2024-06-04 14:06:46.081788
23.1222489,-0.7892045379,0.499727428,-0.1812227666,2024-06-04 14:06:46.122249
23.16272614,-1.009175181,0.273498565,-0.1252980381,2024-06-04 14:06:46.162726
23.20322911,-0.2226337045,-0.05352795869,-0.1372819096,2024-06-04 14:06:46.203229
23.24372781,0.3655080795,0.08362079412,-0.2941374779,2024-06-04 14:06:46.243728
23.28419213,0.2057231218,-0.15512456,-0.3396761715,2024-06-04 14:06:46.284192
23.32470328,0.03262276202,-0.06631075591,-0.3210346103,2024-06-04 14:06:46.324703
23.36519151,-0.1392792165,0.07536523789,-0.3210346103,2024-06-04 14:06:46.365192
23.40565609,0.05472634733,-0.0117175635,-0.232087642,2024-06-04 14:06:46.405656
23.44615124,0.3178389072,0.3113143444,-0.001331541222,2024-06-04 14:06:46.446151
23.4866463,-0.1805569977,-0.3055887222,-0.2419410497,2024-06-04 14:06:46.486646
23.52710395,-1.053648591,0.005858781748,-0.3141105771,2024-06-04 14:06:46.527104
23.56762119,-0.9141030908,0.802786231,0.1699046642,2024-06-04 14:06:46.567621
23.60814947,-0.3155752718,-0.1308905035,0.1773612946,2024-06-04 14:06:46.608149
23.64864281,0.3122464418,-0.2523270845,0.01038602181,2024-06-04 14:06:46.648643
23.68910963,0.1561897993,0.3139774203,-0.04340824485,2024-06-04 14:06:46.689110
23.72955713,-0.332885325,0.4729634523,0.1738992929,2024-06-04 14:06:46.729557
23.77001645,-0.5256925225,0.4844147265,0.5457987785,2024-06-04 14:06:46.770016
23.8105138,-0.2215684652,-0.3226324618,0.316107899,2024-06-04 14:06:46.810514
23.85098494,-0.2324871123,0.5228962898,0.02343512699,2024-06-04 14:06:46.850985
23.89146656,0.1197055578,-0.2211690098,0.1264964193,2024-06-04 14:06:46.891467
23.93195786,0.4981296062,-0.7579132915,-0.2318213433,2024-06-04 14:06:46.931958
23.97245781,0.5342143774,-0.5473966002,-0.1484668553,2024-06-04 14:06:46.972458
24.01296916,0.2219679356,-0.6717625856,0.03595161438,2024-06-04 14:06:47.012969
24.05345281,0.6505910754,-0.5785546899,0.08122401685,2024-06-04 14:06:47.053453
24.09393614,0.1660431921,-0.6019898057,-0.2363485843,2024-06-04 14:06:47.093936
24.13446682,-0.5592473149,-0.579886198,-0.01011971384,2024-06-04 14:06:47.134467
24.17489838,-0.163513273,-0.2323539555,0.1549914032,2024-06-04 14:06:47.174898
24.21538156,1.068428755,-0.06604444981,-0.08601756394,2024-06-04 14:06:47.215382
24.25589822,1.136736751,0.267639786,-0.4312862158,2024-06-04 14:06:47.255898
24.29635036,-0.03395430371,0.2380795777,-0.0596530512,2024-06-04 14:06:47.296350
24.33687098,-0.5866770744,0.3219666779,0.1552577168,2024-06-04 14:06:47.336871
24.37734468,-0.3802881837,0.2175738513,0.07616416365,2024-06-04 14:06:47.377345
24.41782953,0.2600499988,0.3390104175,0.4798874855,2024-06-04 14:06:47.417830
24.45836499,0.3215672076,0.3816197217,-0.1561897993,2024-06-04 14:06:47.458365
24.49879765,-0.1251648813,1.045659423,-0.04314193875,2024-06-04 14:06:47.498798
24.53927739,-0.2849498391,0.6113106012,0.3240971565,2024-06-04 14:06:47.539277
24.57983015,-0.195203945,0.4591154456,0.6536536217,2024-06-04 14:06:47.579830
24.62029786,-0.4271584451,0.7825468183,0.4205007255,2024-06-04 14:06:47.620298
24.66077281,-1.238200188,0.5966636539,0.8203625679,2024-06-04 14:06:47.660773
24.70120968,-1.860163212,-0.2025274336,0.2687050402,2024-06-04 14:06:47.701210
24.74168432,-0.2082530558,0.7969274521,0.1890788674,2024-06-04 14:06:47.741684
24.78220874,0.2344844192,0.1139799356,0.65871346,2024-06-04 14:06:47.782209
24.82268598,0.360714525,-0.1431406885,0.704518497,2024-06-04 14:06:47.822686
24.86317213,-0.07789516449,0.4135767221,0.7745575905,2024-06-04 14:06:47.863172
24.90368447,-0.06990591437,0.2615146935,0.5465977192,2024-06-04 14:06:47.903684
24.94417192,0.221701622,0.04500609636,0.1731003672,2024-06-04 14:06:47.944172
24.98466124,0.392937839,-0.06444659829,0.06710968167,2024-06-04 14:06:47.984661
25.02514723,0.4792217016,-0.103061296,0.1983996481,2024-06-04 14:06:48.025147
25.06561791,0.3721657991,-0.09853405505,0.1009308323,2024-06-04 14:06:48.065618
25.10609333,0.3157084286,-0.2446041405,-0.006924014539,2024-06-04 14:06:48.106093
25.14661296,0.1852173954,-0.4390091598,-0.1372819096,2024-06-04 14:06:48.146613
25.18706145,0.156456098,-0.5551195741,-0.3633776009,2024-06-04 14:06:48.187061
25.22754171,0.5047873259,-0.9145025611,-0.5074504018,2024-06-04 14:06:48.227542
25.26806973,-0.4407401681,-0.2901428342,-0.1902772486,2024-06-04 14:06:48.268070
25.30852536,-0.8853418231,-0.056723658,0.1981333494,2024-06-04 14:06:48.308525
25.34904124,-0.6822817326,-0.1556571722,-0.0007989247679,2024-06-04 14:06:48.349041
25.38950182,-0.1235670298,0.4079842567,-0.4579170346,2024-06-04 14:06:48.389502
25.43005822,0.6476616859,0.9055812359,-0.265642494,2024-06-04 14:06:48.430058
25.4705663,0.7720276117,0.9306141734,0.1387466043,2024-06-04 14:06:48.470566
25.5109702,0.3130453527,0.2703028917,0.1800243855,2024-06-04 14:06:48.510970
25.5514763,-0.4327509105,-0.04394086078,-0.04234301299,2024-06-04 14:06:48.551476
25.59196328,-0.5568505526,-0.208119899,-0.07376738638,2024-06-04 14:06:48.591963
25.6324414,0.2419410497,-0.4472647011,-0.5809514523,2024-06-04 14:06:48.632441
25.67291473,0.5768237114,-0.06311506033,-0.3481980562,2024-06-04 14:06:48.672915
25.71342291,0.3383446336,0.2740311921,0.1129147038,2024-06-04 14:06:48.713423
25.75392255,-0.01557903271,0.2846835256,0.281221509,2024-06-04 14:06:48.753923
25.79437171,0.01850842312,0.2940043211,0.1115831584,2024-06-04 14:06:48.794372
25.83486921,-0.145404309,0.6275554299,0.3054555655,2024-06-04 14:06:48.834869
25.87534223,-0.3664401472,1.123820782,0.3201025128,2024-06-04 14:06:48.875342
25.91585536,-0.2135792226,0.177094996,0.4162397981,2024-06-04 14:06:48.915855
25.95636661,-0.1155777797,-0.1426080763,0.554586947,2024-06-04 14:06:48.956367
25.99680572,-0.1488663107,0.2167749256,0.6355446577,2024-06-04 14:06:48.996806
26.03728286,-0.1909430176,0.267639786,0.845395565,2024-06-04 14:06:49.037283
26.07776395,-0.3920057416,0.2370143533,0.7391385436,2024-06-04 14:06:49.077764
26.11826426,-0.3701684773,0.08708280325,0.4276910722,2024-06-04 14:06:49.118264
26.15877463,-0.3049229383,-0.2318213433,0.3845491111,2024-06-04 14:06:49.158775
26.19925119,-0.296667397,-0.09027849883,0.4173050225,2024-06-04 14:06:49.199251
26.23973083,-0.1304910481,-0.0458050184,0.3504616618,2024-06-04 14:06:49.239731
26.28026562,-0.3757609427,-0.05432688445,0.2700365782,2024-06-04 14:06:49.280266
26.32076307,-0.2527265251,-0.2163754553,0.1507304758,2024-06-04 14:06:49.320763
26.36117374,-0.2444709837,-0.1367492825,0.1342193633,2024-06-04 14:06:49.361174
26.40163359,-0.3243634701,0.163513273,0.02476666868,2024-06-04 14:06:49.401634
26.44212739,-0.3477985859,0.8248898387,0.1917419434,2024-06-04 14:06:49.442127
26.4826176,-0.4308867455,0.5878754854,0.5473966002,2024-06-04 14:06:49.482618
26.52312708,-0.8557815552,0.5359453559,0.3073197305,2024-06-04 14:06:49.523127
26.56362161,-0.0926752761,0.4042559266,0.07376738638,2024-06-04 14:06:49.563622
26.60408619,1.098255277,0.7186328173,0.1579207927,2024-06-04 14:06:49.604086
26.6446239,1.0591079,1.101717234,0.6171693802,2024-06-04 14:06:49.644624
26.68509276,-0.2239652425,0.8991898298,0.07243584841,2024-06-04 14:06:49.685093
26.72555369,0.1950708032,0.579087317,0.104392834,2024-06-04 14:06:49.725554
26.76605656,0.2962679267,0.6720288992,0.5268908739,2024-06-04 14:06:49.766057
26.80658255,0.3074528873,0.6720288992,0.4886756539,2024-06-04 14:06:49.806583
26.8470413,0.3636439145,0.5926690102,0.3565867543,2024-06-04 14:06:49.847041
26.88749822,0.605052352,0.2836183012,-0.2326202542,2024-06-04 14:06:49.887498
26.92798499,0.6998580694,0.6712299585,-0.3540568352,2024-06-04 14:06:49.927985
26.96851817,0.3764267266,0.5303528905,0.216508612,2024-06-04 14:06:49.968518
27.00900874,0.08109086752,0.4399412274,0.3073197305,2024-06-04 14:06:50.009009
27.04948671,-0.4535229504,1.168027997,0.3917394578,2024-06-04 14:06:50.049487
27.08993026,-0.4383433759,0.6802844405,0.5367442966,2024-06-04 14:06:50.089930
27.13042937,-0.008655018173,0.2647103965,0.3842828274,2024-06-04 14:06:50.130429
27.17089619,-0.1193061024,0.5228962898,0.6728277802,2024-06-04 14:06:50.170896
27.21136843,-1.097855806,0.2628462613,1.09439373,2024-06-04 14:06:50.211368
27.25185515,-1.72487855,0.418902874,0.3081186414,2024-06-04 14:06:50.251855
27.29236161,-1.397053123,2.005700588,-0.6097127795,2024-06-04 14:06:50.292362
27.33286385,-1.427678585,2.85082984,-1.953903675,2024-06-04 14:06:50.332864
27.37333067,-2.546972275,2.533923149,-2.673069,2024-06-04 14:06:50.373331
27.41382739,-2.355363369,1.580539465,-2.13685751,2024-06-04 14:06:50.413827
27.45433343,-2.339384794,1.342726231,-2.887447357,2024-06-04 14:06:50.454333
27.49482828,-1.512098312,1.711429954,-2.995568514,2024-06-04 14:06:50.494828
27.53528312,-1.150584817,1.070958614,-2.670406103,2024-06-04 14:06:50.535283
27.57580322,-1.252048254,0.1667089611,-2.226336956,2024-06-04 14:06:50.575803
27.61627317,-1.679339886,-0.02503297664,-2.242581844,2024-06-04 14:06:50.616273
27.65676348,-1.503842711,0.1462032348,-1.76016438,2024-06-04 14:06:50.656763
27.6972414,-1.595452785,1.048855066,-1.82993722,2024-06-04 14:06:50.697241
27.73771031,-0.4921376705,1.28254056,-1.021558523,2024-06-04 14:06:50.737710
27.77827234,0.6111774445,2.278666496,-0.8961272836,2024-06-04 14:06:50.778272
27.81876015,-0.5603125691,2.527797937,-0.1753639877,2024-06-04 14:06:50.818760
27.8591452,-0.2455362082,0.8781514764,0.9380708337,2024-06-04 14:06:50.859145
27.89968072,-0.0736342296,0.7287525535,1.241262794,2024-06-04 14:06:50.899681
27.94018546,0.6567161679,0.9505873322,2.048576355,2024-06-04 14:06:50.940185
27.98064062,1.452578425,0.7463288903,2.824465275,2024-06-04 14:06:50.980641
28.02109734,0.7352771163,0.2308892608,3.181451559,2024-06-04 14:06:51.021097
28.06160437,-1.801042676,-0.99679178,2.05257082,2024-06-04 14:06:51.061604
28.10207208,-2.048310041,-1.934862614,1.116097927,2024-06-04 14:06:51.102072
28.14260776,0.1135804728,0.1704372764,0.3571193814,2024-06-04 14:06:51.142608
28.1830526,1.228346825,1.203713298,-0.2360822707,2024-06-04 14:06:51.183053
28.22362276,-0.4689688385,1.990521073,-1.645119309,2024-06-04 14:06:51.223623
28.26411348,0.2723001838,0.9841421843,-2.866941452,2024-06-04 14:06:51.264113
28.3044977,-1.841521621,-0.7328802943,-3.969990253,2024-06-04 14:06:51.304498
28.34508156,-1.866021991,-0.3418066502,-3.365603685,2024-06-04 14:06:51.345082
28.38550166,-0.2463351339,0.1115831584,-0.5354127288,2024-06-04 14:06:51.385502
28.42599145,-1.622616172,2.076804876,-2.340050697,2024-06-04 14:06:51.425991
28.46647468,-1.082676172,0.1448716968,-4.316989899,2024-06-04 14:06:51.466475
28.50695244,-0.2841508985,-0.116643019,-3.802482367,2024-06-04 14:06:51.506952
28.54745083,-0.8443303108,-1.538862228,-2.789978504,2024-06-04 14:06:51.547451
28.58795916,-0.6434007287,-0.2962679267,-1.884530425,2024-06-04 14:06:51.587959
28.62844411,-1.279478073,-0.7395380139,-0.9211602807,2024-06-04 14:06:51.628444
28.66896302,-0.7567148805,0.01198387146,-0.4749607742,2024-06-04 14:06:51.668963
28.70942937,-0.2929390669,0.4047885537,-0.1913424879,2024-06-04 14:06:51.709429
28.7498901,0.07709623873,0.4889419675,-0.142874375,2024-06-04 14:06:51.749890
28.790409,0.7840114832,0.4066527188,0.3725652397,2024-06-04 14:06:51.790409
28.83083026,2.124607325,-0.1391460598,0.781481564,2024-06-04 14:06:51.830830
28.8713188,2.912480354,0.6784203053,0.4548544884,2024-06-04 14:06:51.871319
28.91180614,2.33871913,1.605838776,-0.1319557428,2024-06-04 14:06:51.911806
28.95228906,1.886261344,0.3400756419,-0.1681736708,2024-06-04 14:06:51.952289
28.99279052,1.146057606,-0.2179733068,0.7188991308,2024-06-04 14:06:51.992791
29.03328234,0.7701634765,-0.4818847775,1.414363146,2024-06-04 14:06:52.033282
29.07374687,0.2017285079,-0.8069140315,1.710497975,2024-06-04 14:06:52.073747
29.11425843,-0.1288931966,-1.625412464,2.147376537,2024-06-04 14:06:52.114258
29.15479796,-0.2559222281,-1.584401011,0.7918676138,2024-06-04 14:06:52.154798
29.19527645,-0.6620423198,-0.8180989623,-0.2635120153,2024-06-04 14:06:52.195276
29.23574572,-0.9942618608,-0.6382077336,-0.6328815818,2024-06-04 14:06:52.235746
29.27618822,-0.09986559302,-0.1998643428,-0.5191679597,2024-06-04 14:06:52.276188
29.31666692,0.0384815447,-0.4991948307,0.5386084318,2024-06-04 14:06:52.316667
29.35717317,-0.6252917647,0.01251648832,0.5372769237,2024-06-04 14:06:52.357173
29.39766911,-0.2756290436,-2.543510199,0.1195724085,2024-06-04 14:06:52.397669
29.43817182,-0.1158440933,-3.647624254,0.4852136374,2024-06-04 14:06:52.438172
29.47867437,-1.739259243,-2.560953379,0.6728277802,2024-06-04 14:06:52.478674
29.5191314,-2.176936865,-0.05912043154,-0.6951977015,2024-06-04 14:06:52.519131
29.55960723,-1.106377602,-0.7877398133,-0.2046578974,2024-06-04 14:06:52.559607
29.60012166,-0.778285861,1.992385268,0.33474949,2024-06-04 14:06:52.600122
29.64064619,-0.3930709958,1.219958067,0.09613727778,2024-06-04 14:06:52.640646
29.68107614,-0.9814790487,0.5039883852,-0.3892095089,2024-06-04 14:06:52.681076
29.72157515,-1.533136606,1.057643294,-0.33807832,2024-06-04 14:06:52.721575
29.76204067,-1.009707808,1.073355436,-0.2952027023,2024-06-04 14:06:52.762041
29.80250619,-0.5294207931,1.870682359,-0.5263582468,2024-06-04 14:06:52.802506
29.8429938,-0.2173075378,1.846980929,-0.3226324618,2024-06-04 14:06:52.842994
29.88350192,-0.5840139985,-1.075885296,0.018907886,2024-06-04 14:06:52.883502
29.92399182,1.202248573,-1.269491434,-0.3362141848,2024-06-04 14:06:52.923992
29.96448411,2.662949324,0.5508586168,0.107588537,2024-06-04 14:06:52.964484
30.0049802,3.151758194,-0.4406070113,0.117974557,2024-06-04 14:06:53.004980
30.04546932,2.967739105,0.3810871243,-0.4850804806,2024-06-04 14:06:53.045469
30.08592093,1.895315886,-0.2715012729,-0.1950708032,2024-06-04 14:06:53.085921
30.12644026,1.290929317,-0.8780183196,0.3531247377,2024-06-04 14:06:53.126440
30.16692807,1.323152542,-1.226349473,0.3145100474,2024-06-04 14:06:53.166928
30.20740135,0.7416685224,-2.090786219,0.5543206334,2024-06-04 14:06:53.207401
30.24786953,0.4240958989,-1.854171276,0.3858806491,2024-06-04 14:06:53.247870
30.28833702,-0.3371462524,-0.9872047305,0.16031757,2024-06-04 14:06:53.288337
30.32882145,-1.172954679,-0.3700353205,0.186149478,2024-06-04 14:06:53.328821
30.36932786,-1.492657781,-0.1964023411,0.1062569916,2024-06-04 14:06:53.369328
30.40984406,0.7049179673,-1.276681781,0.6810833812,2024-06-04 14:06:53.409844
30.45032473,0.008388710208,-1.5026443,0.7069152594,2024-06-04 14:06:53.450325
30.49078796,-0.8706948161,0.6480611563,-0.4139761925,2024-06-04 14:06:53.490788
30.53125734,1.047656655,0.2324871123,-0.8125064969,2024-06-04 14:06:53.531257
30.57176671,-0.7159697413,-0.7480598688,0.01970681176,2024-06-04 14:06:53.571767
30.61224015,-1.131676912,-0.1497983932,-0.6616428494,2024-06-04 14:06:53.612240
30.65272952,-2.251769543,2.187056541,-0.630751133,2024-06-04 14:06:53.652730
30.69320901,-3.147896767,1.158174634,0.3952014446,2024-06-04 14:06:53.693209
30.73372249,-1.132742167,1.366161346,0.8283518553,2024-06-04 14:06:53.733722
30.77424739,-1.186802745,1.121956706,0.5910711884,2024-06-04 14:06:53.774247
30.81468124,-1.120491982,1.365362406,0.2511286736,2024-06-04 14:06:53.814681
30.85514374,-0.9886693954,1.488396883,-0.2366148829,2024-06-04 14:06:53.855144
30.89564052,-1.17455256,0.314776361,-0.3804213405,2024-06-04 14:06:53.895641
30.93613676,-1.057909489,-1.090265989,-0.1282274276,2024-06-04 14:06:53.936137
30.97662692,-0.2213021666,2.044581652,0.01225017942,2024-06-04 14:06:53.976627
31.01717057,-0.311580658,0.2617810071,0.4165061116,2024-06-04 14:06:54.017171
31.05763005,0.3737636507,0.03009283356,0.208785668,2024-06-04 14:06:54.057630
31.09808843,2.060160637,1.175218344,0.3201025128,2024-06-04 14:06:54.098088
31.13860426,3.236710548,-0.7848104239,0.5034557581,2024-06-04 14:06:54.138604
31.17907447,3.25455308,0.4316856861,0.3888100684,2024-06-04 14:06:54.179074
31.21956276,2.494376183,0.7332797647,0.5513912439,2024-06-04 14:06:54.219563
31.26006005,1.645385504,-0.1242327988,0.2497971505,2024-06-04 14:06:54.260060
31.30049192,1.45364356,-0.8133054376,0.1472684592,2024-06-04 14:06:54.300492
31.34099328,0.6015903354,-2.097443819,0.3944025338,2024-06-04 14:06:54.340993
31.38150578,0.4941349626,-2.098509073,0.3762935698,2024-06-04 14:06:54.381506
31.42195911,-0.2356828004,-0.7488588095,-0.09906667471,2024-06-04 14:06:54.421959
31.462419,-1.271222472,0.4218322635,-0.151928857,2024-06-04 14:06:54.462419
31.50295182,-1.853239179,0.5362116694,-0.2978657782,2024-06-04 14:06:54.502952
31.5434688,0.5999925137,-0.4818847775,0.452457726,2024-06-04 14:06:54.543469
31.58393536,0.1995980442,-0.9880036116,0.5167711973,2024-06-04 14:06:54.583935
31.62440744,-0.08841434121,0.7990579009,-0.5615109801,2024-06-04 14:06:54.624407
31.66490145,0.9536498785,0.9071790576,-0.3532578945,2024-06-04 14:06:54.664901
31.7053801,-0.8608414531,-1.448051095,-0.4584496617,2024-06-04 14:06:54.705380
31.74588505,-1.67294848,0.2335523367,-1.143261313,2024-06-04 14:06:54.745885
31.78635395,-2.704360247,4.540156364,-0.5449998379,2024-06-04 14:06:54.786354
31.82684723,-3.216071606,2.214220047,0.3291569948,2024-06-04 14:06:54.826847
31.8673227,-1.220091224,2.438052177,0.3480648994,2024-06-04 14:06:54.867323
31.90783197,-1.310236573,0.8030525446,0.4109136462,2024-06-04 14:06:54.907832
31.94837489,-1.257108092,0.1651111245,0.1238333359,2024-06-04 14:06:54.948375
31.98882057,-0.9481905699,0.7753564715,-0.28241992,2024-06-04 14:06:54.988821
32.02931666,-0.7830794454,1.618355274,-0.1119826213,2024-06-04 14:06:55.029317
32.06975447,-0.6551182866,0.2106498331,-0.2201037705,2024-06-04 14:06:55.069754
32.11025442,-0.2711018026,0.7415353656,-0.071104303,2024-06-04 14:06:55.110254
32.15077046,-0.3395430148,0.4079842567,-0.00186415785,2024-06-04 14:06:55.150770
32.19117333,0.3274259865,-0.01757634431,-0.0146469539,2024-06-04 14:06:55.191173
32.23166947,1.658967257,-0.4379439354,0.3475322723,2024-06-04 14:06:55.231669
32.27221463,3.183981419,-1.088668108,0.3105154335,2024-06-04 14:06:55.272215
32.31269223,3.056952477,1.002251148,0.2940043211,2024-06-04 14:06:55.312692
32.3531763,2.230597973,2.207029581,0.9444622397,2024-06-04 14:06:55.353176
32.39366828,1.264564753,-1.268958807,0.686409533,2024-06-04 14:06:55.393668
32.43414343,1.696516752,-1.610499144,0.8171668649,2024-06-04 14:06:55.434143
32.47464781,1.40837121,-3.741897345,1.276948094,2024-06-04 14:06:55.474648
32.51511932,1.652043223,-3.649222136,0.5929353237,2024-06-04 14:06:55.515119
32.55562807,0.2640446424,-1.669087052,0.231421873,2024-06-04 14:06:55.555628
32.59613348,-0.9998543262,-0.3753614724,0.09533835202,2024-06-04 14:06:55.596133
32.63657114,-1.73233521,-0.4057206213,-0.204924196,2024-06-04 14:06:55.636571
32.67705598,0.08348763734,-1.370289087,-0.4427374899,2024-06-04 14:06:55.677056
32.71753604,0.7137061357,-2.058030128,0.3110480309,2024-06-04 14:06:55.717536
32.75803249,0.209451437,-0.2387453467,0.5958647132,2024-06-04 14:06:55.758032
32.79855526,1.020493269,2.501433372,0.6589797735,2024-06-04 14:06:55.798555
32.8390264,-0.878950417,0.1174419373,0.6445991397,2024-06-04 14:06:55.839026
32.87951864,-2.222209215,-0.7130403519,-1.772148252,2024-06-04 14:06:55.879519
32.91999885,-1.490793586,0.4617785215,-2.560154438,2024-06-04 14:06:55.919999
32.96049869,-2.619141579,2.727262735,0.5737611651,2024-06-04 14:06:55.960499
33.00094364,-1.778406501,1.121690392,0.6419360638,2024-06-04 14:06:56.000944
33.0414013,-1.398651004,-0.6169030666,0.323830843,2024-06-04 14:06:56.041401
33.08194937,-1.276548624,0.6411371231,0.2471340597,2024-06-04 14:06:56.081949
33.12243312,-1.198786616,0.8941299915,-0.03701684624,2024-06-04 14:06:56.122433
33.16290447,-1.508103609,0.7207632661,-0.203592658,2024-06-04 14:06:56.162904
33.20337734,-1.290929317,-1.047922969,-0.4387428463,2024-06-04 14:06:56.203377
33.24386072,-0.6423355341,1.276149154,-0.2174406946,2024-06-04 14:06:56.243861
33.28435703,-0.2213021666,0.8770862222,-0.01438064594,2024-06-04 14:06:56.284357
33.32485338,0.5842803121,-0.2147776037,-0.06444659829,2024-06-04 14:06:56.324853
33.36534651,2.058296442,0.588141799,0.5785546899,2024-06-04 14:06:56.365347
33.40583249,3.451887608,-0.9621717334,0.7394048572,2024-06-04 14:06:56.405832
33.44630286,3.56972909,0.3110480309,0.5258256793,2024-06-04 14:06:56.446303
33.48680651,2.43046236,1.348052382,0.7985253334,2024-06-04 14:06:56.486807
33.52729671,1.668820739,-0.8694964647,0.5607120395,2024-06-04 14:06:56.527297
33.56779906,1.450181603,-1.241795421,0.9212934375,2024-06-04 14:06:56.567799
33.6082964,1.086804032,-3.451887608,1.016365409,2024-06-04 14:06:56.608296
33.6488026,1.337799549,-3.58344388,0.4716319144,2024-06-04 14:06:56.648803
33.68924895,0.03075860441,-2.017018795,0.3485974967,2024-06-04 14:06:56.689249
33.72971999,-1.4993155,-0.204924196,0.4244953692,2024-06-04 14:06:56.729720
33.77024765,-2.525667429,0.1163767055,0.002929390874,2024-06-04 14:06:56.770248
33.81072171,-0.03262276202,-0.8226261735,-0.1335535944,2024-06-04 14:06:56.810722
33.85118452,0.6500584483,-2.032730818,0.7665683031,2024-06-04 14:06:56.851185
33.89162984,-0.7391385436,-0.8708279729,0.5825493336,2024-06-04 14:06:56.891630
33.93211458,-1.691057444,0.903717041,-0.2011958808,2024-06-04 14:06:56.932115
33.97263005,1.372153282,1.016099095,-0.6445991397,2024-06-04 14:06:56.972630
34.01312437,-1.117030025,-1.102516174,0.1672415882,2024-06-04 14:06:57.013124
34.05356598,-1.43620038,-0.3620460629,-0.489341408,2024-06-04 14:06:57.053566
34.09409515,-1.304777265,2.700099468,-1.279344916,2024-06-04 14:06:57.094095
34.1346038,-3.291969538,1.419422984,0.2055899799,2024-06-04 14:06:57.134604
34.17506348,-1.94871068,2.475335121,0.7455299497,2024-06-04 14:06:57.175063
34.21555364,-1.153514266,1.251648784,0.4671046734,2024-06-04 14:06:57.215554
34.25603848,-0.9817453623,1.465760589,0.09720251709,2024-06-04 14:06:57.256038
34.29649593,-0.943130672,1.420488238,-0.2515281439,2024-06-04 14:06:57.296496
34.33700656,-1.382139802,0.2103835195,-0.2890776098,2024-06-04 14:06:57.337007
34.37747588,-0.9729571939,-0.3181052208,-0.2981320918,2024-06-04 14:06:57.377476
34.41799354,-0.3454017937,1.723413825,0.1424749196,2024-06-04 14:06:57.417994
34.4585177,0.255256474,0.2186390758,0.1350182891,2024-06-04 14:06:57.458518
34.49894083,1.842586875,1.309437752,0.3808208108,2024-06-04 14:06:57.498941
34.53945999,3.434843779,-0.1239664927,1.053914905,2024-06-04 14:06:57.539460
34.5799402,3.391701937,0.01251648832,0.885608077,2024-06-04 14:06:57.579940
34.62052489,2.964543581,1.055246472,0.8802819252,2024-06-04 14:06:57.620525
34.66086874,1.776009798,-0.4952002168,0.452457726,2024-06-04 14:06:57.660869
34.70138671,1.190264702,-0.7220948339,1.148853779,2024-06-04 14:06:57.701387
34.74187296,1.304244637,-2.927127123,1.012104511,2024-06-04 14:06:57.741873
34.78236083,1.215830326,-3.833640575,0.6342130899,2024-06-04 14:06:57.782361
34.82279208,0.235283345,-2.126471519,0.02183727734,2024-06-04 14:06:57.822792
34.86331208,-1.146057606,-0.4547213614,-0.001331541222,2024-06-04 14:06:57.863312
34.90379999,-2.068283081,0.1808233112,-0.1362166703,2024-06-04 14:06:57.903800
34.94428729,-0.5515244007,-0.8876054287,0.05406057462,2024-06-04 14:06:57.944287
34.98484239,0.1471353173,-1.304644108,0.646463275,2024-06-04 14:06:57.984842
35.02533781,-0.03608476743,-0.1035939083,0.006391398143,2024-06-04 14:06:58.025338
35.06573807,1.124886036,1.382672429,0.3584509194,2024-06-04 14:06:58.065738
35.10624005,-1.068029284,0.155790329,0.3872122169,2024-06-04 14:06:58.106240
35.14676593,-2.063223124,-0.2075872868,-1.258306503,2024-06-04 14:06:58.146766
35.18721166,-0.6455312371,1.114766359,-2.677862644,2024-06-04 14:06:58.187212
35.22771791,-2.434190512,1.109972835,0.1731003672,2024-06-04 14:06:58.227718
35.26817749,-1.704106569,1.443923354,0.5892069936,2024-06-04 14:06:58.268177
35.30864062,-1.444722295,-0.3793561161,0.3262276053,2024-06-04 14:06:58.308641
35.34912942,-1.258972287,-0.1806901544,0.1597849578,2024-06-04 14:06:58.349129
35.38966614,-1.26589632,0.332885325,0.1035939083,2024-06-04 14:06:58.389666
35.43014838,-1.452178955,0.506118834,-0.3298227787,2024-06-04 14:06:58.430148
35.4706238,-1.333938003,-0.4318188429,-0.502923131,2024-06-04 14:06:58.470624
35.51105552,-0.3765598834,2.220877647,0.1081211492,2024-06-04 14:06:58.511056
35.55158229,-0.2162422985,0.003994623665,0.2711018026,2024-06-04 14:06:58.551582
35.59203588,1.452045798,0.5876091719,0.4633763731,2024-06-04 14:06:58.592036
35.63256817,3.053224087,0.2865476906,1.007843614,2024-06-04 14:06:58.632568
35.6730426,3.860004902,-0.3780245781,0.5247604251,2024-06-04 14:06:58.673043
35.71353921,2.922333717,1.099054217,0.58894068,2024-06-04 14:06:58.713539
35.75403552,2.02474165,-0.5212984085,0.1054580659,2024-06-04 14:06:58.754036
35.79453505,1.971480012,-0.2392779738,0.1954702586,2024-06-04 14:06:58.794535
35.83500807,1.176949382,-1.632336497,0.579886198,2024-06-04 14:06:58.835008
35.8754739,0.9065132737,-2.365083694,0.3744294047,2024-06-04 14:06:58.875474
35.91598088,0.1969349533,-1.51595974,-0.002929390874,2024-06-04 14:06:58.915981
35.95648015,-1.013436079,-0.5418041348,0.1637795717,2024-06-04 14:06:58.956480
35.99695604,-1.934063673,-0.4419385493,0.2822867632,2024-06-04 14:06:58.996956
36.03742776,-0.9758865833,-0.09986559302,0.00186415785,2024-06-04 14:06:59.037428
36.0779238,0.6431344151,-1.439262986,0.3760272563,2024-06-04 14:06:59.077924
36.11841609,0.01398118306,-1.013835549,0.609446466,2024-06-04 14:06:59.118416
36.15894317,-1.107975483,1.499049187,0.2407426685,2024-06-04 14:06:59.158943
36.19943244,0.8487244248,2.640180111,-0.4605801404,2024-06-04 14:06:59.199432
36.23988687,-0.7194317579,-0.2059894353,-0.09054480493,2024-06-04 14:06:59.239887
36.2803313,-1.520353794,-0.8053161502,-0.9437964559,2024-06-04 14:06:59.280331
36.32081426,-1.340329409,1.971080542,-1.68373394,2024-06-04 14:06:59.320814
36.36131671,-3.389438391,2.055233955,0.009853405878,2024-06-04 14:06:59.361317
36.40176869,-1.966819644,2.142050505,0.6877411008,2024-06-04 14:06:59.401769
36.4422551,-1.657236218,1.013169765,0.4884093404,2024-06-04 14:06:59.442255
36.48275604,-1.21316731,1.571751356,0.4641752839,2024-06-04 14:06:59.482756
36.52327619,-1.137802005,2.059761286,-0.09320788831,2024-06-04 14:06:59.523276
36.56375213,-1.397319436,0.6145063043,-0.6131747365,2024-06-04 14:06:59.563752
36.60423406,-1.456439853,-1.528476238,-0.4150414169,2024-06-04 14:06:59.604234
36.64474338,-0.2806889117,1.663361311,-0.02689713426,2024-06-04 14:06:59.644743
36.68521479,-0.09320788831,0.6411371231,0.1541924775,2024-06-04 14:06:59.685215
36.72569619,1.222488046,0.3049229383,0.2348838747,2024-06-04 14:06:59.725696
36.76618802,2.938844681,-0.1529940963,0.8592435718,2024-06-04 14:06:59.766188
36.80668354,3.875983477,-0.9635032415,0.5324833393,2024-06-04 14:06:59.806684
36.84715552,3.09210515,1.710364819,0.8304823041,2024-06-04 14:06:59.847156
36.88763557,1.69332099,0.8730916381,0.8137048483,2024-06-04 14:06:59.887636
36.92816359,1.496519208,-0.5410051942,0.9809464812,2024-06-04 14:06:59.928164
36.96867973,1.382805586,-2.041252851,1.121157765,2024-06-04 14:06:59.968680
37.00913989,1.359636784,-4.341490269,0.8714937568,2024-06-04 14:07:00.009140
37.04961114,0.8721595407,-3.07013464,0.06790860742,2024-06-04 14:07:00.049611
37.09006015,-0.729018867,-0.7861419916,-0.1159772426,2024-06-04 14:07:00.090060
37.13057234,-1.74937892,0.1350182891,-0.1668421179,2024-06-04 14:07:00.130572
37.17103958,-1.053382277,-0.6547188759,-0.2499302924,2024-06-04 14:07:00.171040
37.21150005,1.053249121,-2.16428709,0.7029206157,2024-06-04 14:07:00.211500
37.25201473,-0.3952014446,-0.8676322699,0.7812152505,2024-06-04 14:07:00.252015
37.29249239,-1.233406663,1.468956351,0.3123795986,2024-06-04 14:07:00.292492
37.33298348,1.002384305,1.838192701,-0.4762923121,2024-06-04 14:07:00.332983
37.37346078,-1.195590973,-1.289730906,-0.1079879999,2024-06-04 14:07:00.373461
37.41397109,-1.513163567,-0.4645747542,-0.9054480791,2024-06-04 14:07:00.413971
37.45447421,-0.5541874766,1.523283243,-2.055633545,2024-06-04 14:07:00.454474
37.4949588,-3.481314659,0.9412665367,-0.1202381775,2024-06-04 14:07:00.494959
37.5354463,-1.708900094,2.239519358,0.7212958932,2024-06-04 14:07:00.535446
37.57593854,-1.408238053,0.4798874855,0.331553787,2024-06-04 14:07:00.575939
37.6163839,-1.048588753,0.866700232,0.1909430176,2024-06-04 14:07:00.616384
37.65690713,-1.351780653,1.68040514,-0.06231613085,2024-06-04 14:07:00.656907
37.69737598,-1.425281763,-0.01970681176,-0.4738955498,2024-06-04 14:07:00.697376
37.7378538,-1.062170506,-0.9379376769,-0.5077167153,2024-06-04 14:07:00.737854
37.77839536,-0.3320863843,2.097310781,0.133154124,2024-06-04 14:07:00.778395
37.81886578,-0.2002638131,-0.1932066381,0.1392792165,2024-06-04 14:07:00.818866
37.85932031,1.069760323,0.3789566457,0.2303566486,2024-06-04 14:07:00.859320
37.89986114,2.906621456,-0.1508636326,0.5942668915,2024-06-04 14:07:00.899861
37.94038432,3.843760252,-1.274551272,0.750323534,2024-06-04 14:07:00.940384
37.9807777,3.379718065,1.089067578,0.9351414442,2024-06-04 14:07:00.980778
38.0212689,1.905701876,0.1486000121,0.906113863,2024-06-04 14:07:01.021269
38.06178593,1.686397076,0.2034595013,0.8113080859,2024-06-04 14:07:01.061786
38.10219942,0.7070484161,-2.567610979,1.276948094,2024-06-04 14:07:01.102199
38.14273052,1.543655753,-3.602085352,0.6118432283,2024-06-04 14:07:01.142731
38.18319265,0.8316806555,-2.477998257,0.04740286991,2024-06-04 14:07:01.183193
38.22367979,-0.9769518375,-0.7896040082,0.1382139921,2024-06-04 14:07:01.223680
38.26416505,-2.202236176,-0.1748313755,0.04340824485,2024-06-04 14:07:01.264165
38.30463869,-1.55870223,-0.3572525382,-0.3777582645,2024-06-04 14:07:01.304639
38.34514947,1.03540647,-1.913025379,0.4271584451,2024-06-04 14:07:01.345149
38.38566484,-0.2247641683,-0.9011871219,0.5713643432,2024-06-04 14:07:01.385665
38.42612244,-0.2913412452,1.45777142,0.440207541,2024-06-04 14:07:01.426122
38.46663265,0.7435326576,1.248719454,0.169372052,2024-06-04 14:07:01.466633
38.50707973,-1.083475113,-1.783599496,-0.108254306,2024-06-04 14:07:01.507080
38.54756557,-1.496918678,-1.078015804,-1.573748589,2024-06-04 14:07:01.547566
38.58809374,-1.099187374,1.450048447,-1.592656493,2024-06-04 14:07:01.588094
38.62860682,-3.990096569,1.802241087,0.1523283273,2024-06-04 14:07:01.628607
38.66903364,-1.758699775,3.290105343,0.5953320861,2024-06-04 14:07:01.669034
38.70954911,-1.328611851,0.8864070177,0.3643096983,2024-06-04 14:07:01.709549
38.7500402,-1.116497397,0.3757609427,0.1813559234,2024-06-04 14:07:01.750040
38.79059307,-1.221955419,0.1677742004,0.01704372838,2024-06-04 14:07:01.790593
38.83101656,-1.153247952,0.2292914093,-0.3934704363,2024-06-04 14:07:01.831017
38.87145239,-1.129013896,0.6547188759,-0.3532578945,2024-06-04 14:07:01.871452
38.91190583,-0.405321151,0.7007901669,-0.132488355,2024-06-04 14:07:01.911906
38.95241807,-0.3097164929,0.2916075289,0.1834863871,2024-06-04 14:07:01.952418
38.99292057,1.041265249,0.7596443295,0.3014609516,2024-06-04 14:07:01.992921
39.03343968,2.724999189,1.396786809,0.8302159905,2024-06-04 14:07:02.033440
39.07391411,3.628583193,-0.1351514459,1.023555756,2024-06-04 14:07:02.073914
39.11438979,3.297961473,1.835529685,0.9567124248,2024-06-04 14:07:02.114390
39.1549014,2.100373268,-0.209451437,0.7399374843,2024-06-04 14:07:02.154901
39.19537921,1.45737195,-0.3450023532,1.006245732,2024-06-04 14:07:02.195379
39.2358527,1.227015257,-2.657356977,1.028881907,2024-06-04 14:07:02.235853
39.2763227,1.671750069,-3.885037899,0.7239589691,2024-06-04 14:07:02.276323
39.31680255,0.7890713811,-2.968138695,0.1717688292,2024-06-04 14:07:02.316803
39.3572965,-0.8656349778,-0.8918663263,0.02236989327,2024-06-04 14:07:02.357296
39.39778854,-1.99398303,-0.4565854967,-0.07509893179,2024-06-04 14:07:02.397789
39.43830395,-1.306241989,-0.7701634765,-0.4675041437,2024-06-04 14:07:02.438304
39.47879822,0.6346125603,-1.261502266,0.4404738545,2024-06-04 14:07:02.478798
39.51926765,-0.3802881837,-0.8340774775,0.6211640239,2024-06-04 14:07:02.519268
39.55976781,-0.08947957307,1.801442146,0.1246322617,2024-06-04 14:07:02.559768
39.6002352,0.7424674034,1.02834928,0.0037283157,2024-06-04 14:07:02.600235
39.64072494,-0.9753540158,-1.264697909,-0.1838858575,2024-06-04 14:07:02.640725
39.6811601,-1.344324112,-0.7475273013,-1.607836127,2024-06-04 14:07:02.681160
39.72165458,-2.253367424,1.012104511,-0.7930659652,2024-06-04 14:07:02.721655
39.76218838,-2.366015673,1.647915483,0.9729571939,2024-06-04 14:07:02.762188
39.8026926,-1.827407241,0.8786841035,0.8057156205,2024-06-04 14:07:02.802693
39.84315265,-1.594121218,1.430075288,0.6275554299,2024-06-04 14:07:02.843153
39.88366437,-1.397319436,2.553097248,0.1707035899,2024-06-04 14:07:02.883664
39.92416682,-1.235270858,0.5772231221,-0.6190335155,2024-06-04 14:07:02.924167
39.96465999,-1.324617267,-2.219146729,-0.5149070024,2024-06-04 14:07:02.964660
40.00513083,-0.3757609427,1.907965541,-0.1727008969,2024-06-04 14:07:03.005131
40.04560744,-0.2500634491,0.4952002168,0.05272903293,2024-06-04 14:07:03.045607
40.08603609,0.133819893,-0.6997249722,0.0,2024-06-04 14:07:03.086036
40.12654916,1.399582982,0.4894745648,0.429821521,2024-06-04 14:07:03.126549
40.1670688,3.205818892,-0.9728240371,0.5111786723,2024-06-04 14:07:03.167069
40.20752645,3.308347464,0.1933397949,0.4971975088,2024-06-04 14:07:03.207526
40.24804161,2.409690142,1.88932395,0.8352758288,2024-06-04 14:07:03.248042
40.28847322,1.532204509,-0.4392754734,0.3246297538,2024-06-04 14:07:03.288473
40.3289626,1.794917703,-0.6014571786,0.3722989559,2024-06-04 14:07:03.328963
40.36946489,1.330875516,-1.864557266,0.4998605847,2024-06-04 14:07:03.369465
40.40996843,1.219292402,-2.593176603,0.2873466015,2024-06-04 14:07:03.409968
40.45044499,0.2296908647,-1.551645041,-0.05166380107,2024-06-04 14:07:03.450445
40.49090817,-1.076018453,-0.6736267209,0.03888100386,2024-06-04 14:07:03.490908
40.53140546,-2.051771879,-0.5870765448,0.03648423031,2024-06-04 14:07:03.531405
40.57189369,0.727820456,-0.8186315894,0.1983996481,2024-06-04 14:07:03.571894
40.61243317,0.5882749557,-1.320888996,0.6448654532,2024-06-04 14:07:03.612433
40.65285567,-0.4487294257,0.405321151,-0.2169080675,2024-06-04 14:07:03.652856
40.69337822,0.226228863,1.858432174,-0.409715265,2024-06-04 14:07:03.693378
40.73382348,-0.5728290677,0.1568555683,-0.1577876359,2024-06-04 14:07:03.733823
40.77432354,-1.385601878,-1.811828256,-1.228479981,2024-06-04 14:07:03.774324
40.814789,-1.584001541,1.684666038,-1.163234472,2024-06-04 14:07:03.814789
40.8552838,-3.823387623,2.242981195,0.2940043211,2024-06-04 14:07:03.855284
40.895799,-1.560033798,2.391181946,0.9226249456,2024-06-04 14:07:03.895799
40.93628374,-1.439129829,1.638328433,0.6717625856,2024-06-04 14:07:03.936284
40.97682265,-1.484934807,1.466026902,0.4865451753,2024-06-04 14:07:03.976823
41.01731109,-1.405841231,0.4375444651,-0.002396774245,2024-06-04 14:07:04.017311
41.0577401,-0.8227593303,0.8408682942,-0.3695026934,2024-06-04 14:07:04.057740
41.09818166,-0.7910686731,-0.1412765235,-0.3383446336,2024-06-04 14:07:04.098182
41.13873963,-0.4306204617,0.9322120547,-0.1298252791,2024-06-04 14:07:04.138740
41.17923276,-0.4039896131,0.1653774232,-0.06258244067,2024-06-04 14:07:04.179233
41.21968421,0.005193010904,-0.3306216896,-0.1378145218,2024-06-04 14:07:04.219684
41.26014426,1.27548337,0.6222292185,0.1888125539,2024-06-04 14:07:04.260144
41.3006376,3.152290821,-0.2848166823,0.4303541481,2024-06-04 14:07:04.300638
41.34113656,3.256949902,0.07776200771,0.6059844494,2024-06-04 14:07:04.341137
41.38162791,2.701031446,1.996113539,0.8730916381,2024-06-04 14:07:04.381628
41.42208416,1.584667325,0.199731186,0.616104126,2024-06-04 14:07:04.422084
41.4625876,1.126217604,-1.238067031,0.5955983996,2024-06-04 14:07:04.462588
41.50308968,1.044727325,-3.052025795,0.8523195982,2024-06-04 14:07:04.503090
41.54355036,1.542057991,-3.266536951,0.3427387178,2024-06-04 14:07:04.543550
41.58403666,0.4464657903,-2.062823772,0.02956021577,2024-06-04 14:07:04.584037
41.62453354,-0.9945281744,-0.7339455485,0.09640359133,2024-06-04 14:07:04.624534
41.66503067,-1.87560904,-0.5950657725,-0.1205044836,2024-06-04 14:07:04.665031
41.70551776,0.1513962448,-1.256974936,0.06071828306,2024-06-04 14:07:04.705518
41.74597984,0.5127765536,-0.9161003828,0.7686987519,2024-06-04 14:07:04.745980
41.78650041,-0.52622509,0.5055862069,0.0149132628,2024-06-04 14:07:04.786500
41.82698624,1.204645395,1.780670166,-0.05645735189,2024-06-04 14:07:04.826986
41.86743437,-0.95857656,-1.770017862,0.1126483902,2024-06-04 14:07:04.867434
41.90792432,-1.750710487,-1.818485975,-1.306508303,2024-06-04 14:07:04.907924
41.94848723,-1.410102248,1.657502532,-1.286002517,2024-06-04 14:07:04.948487
41.98896604,-3.864665508,2.296242952,0.4005276263,2024-06-04 14:07:04.988966
42.02940874,-1.60983336,1.613561749,0.9710930586,2024-06-04 14:07:05.029409
42.06988942,-1.771748781,1.046724558,0.8496564627,2024-06-04 14:07:05.069889
42.1103914,-1.390661716,1.9553684,0.3587172329,2024-06-04 14:07:05.110391
42.15089109,-1.042996287,1.074420691,-0.4949339032,2024-06-04 14:07:05.150891
42.19129942,-1.344057798,-0.665104866,-0.524227798,2024-06-04 14:07:05.191299
42.23178578,-0.4641752839,0.7564486265,-0.2619141638,2024-06-04 14:07:05.231786
42.27227526,-0.3949351311,0.7788184881,0.06977276504,2024-06-04 14:07:05.272275
42.31279765,0.3324858546,-0.5833482146,-0.04207670316,2024-06-04 14:07:05.312798
42.35330453,1.747248411,0.5175700784,0.4655068219,2024-06-04 14:07:05.353305
42.39378661,3.546693325,-1.000786424,0.6576482654,2024-06-04 14:07:05.393787
42.43426734,3.319266081,0.3568530679,0.6017234921,2024-06-04 14:07:05.434267
42.47475005,2.301169634,0.3991960883,0.6254249215,2024-06-04 14:07:05.474750
42.51524598,1.984262824,-0.1734998226,0.266308248,2024-06-04 14:07:05.515246
42.55571552,1.378544688,-1.148054838,0.3688369393,2024-06-04 14:07:05.555716
42.59620416,1.208107352,-2.243380785,0.6440665126,2024-06-04 14:07:05.596204
42.63668739,1.199319243,-3.005954504,0.4849473238,2024-06-04 14:07:05.636687
42.67718473,0.2989310026,-2.259093046,0.3355484009,2024-06-04 14:07:05.677185
42.71768515,-1.209971547,-0.8969262242,0.5215647221,2024-06-04 14:07:05.717685
42.75818687,-1.336068511,-0.6725615263,0.06657706201,2024-06-04 14:07:05.758187
42.79869249,1.53380239,-1.710631132,0.281221509,2024-06-04 14:07:05.798692
42.83913567,0.5154396296,-1.229012609,0.7862751484,2024-06-04 14:07:05.839136
42.87961952,-0.3707011044,0.7649704814,0.1533935517,2024-06-04 14:07:05.879620
42.9201176,0.819696784,2.257628202,-0.4821510911,2024-06-04 14:07:05.920118
42.96064552,-0.92741853,-0.5857450366,-0.2030600458,2024-06-04 14:07:05.960646
43.00106822,-1.795183897,-0.6661701202,-1.170158505,2024-06-04 14:07:06.001068
43.04155416,-1.593055964,2.705159187,-1.497051835,2024-06-04 14:07:06.041554
43.08203656,-3.944025278,3.559476137,-0.480286926,2024-06-04 14:07:06.082037
43.12252848,-2.223540783,2.017151833,0.7159697413,2024-06-04 14:07:06.122528
43.16301312,-1.73233521,0.9370055795,0.4870778024,2024-06-04 14:07:06.163013
43.20350723,-1.466293216,1.425281763,0.3592498302,2024-06-04 14:07:06.203507
43.24403026,-1.255776525,1.765490532,-0.1266295761,2024-06-04 14:07:06.244030
43.28446864,-1.855635881,-0.1396786869,-0.7302172184,2024-06-04 14:07:06.284469
43.32497083,-0.7785521746,-1.088135481,-0.5442008972,2024-06-04 14:07:06.324971
43.36546223,-0.2870802879,1.996113539,0.157654494,2024-06-04 14:07:06.365462
43.40598192,0.04806863889,-0.7789516449,0.1155777797,2024-06-04 14:07:06.405982
43.4464613,1.421420336,0.1153114736,0.4079842567,2024-06-04 14:07:06.446461
43.48696177,3.387973547,-0.4451342523,0.7822805047,2024-06-04 14:07:06.486962
43.52740744,3.340304375,-0.01864157803,0.829949677,2024-06-04 14:07:06.527407
43.56789744,2.752695322,1.131011128,0.8517869711,2024-06-04 14:07:06.567897
43.6084063,1.640591979,-0.8327459097,0.3986634612,2024-06-04 14:07:06.608406
43.64888093,1.783998966,-0.6339467764,0.2958684862,2024-06-04 14:07:06.648881
43.68935526,1.190797329,-2.429796457,0.5572500229,2024-06-04 14:07:06.689355
43.72982666,1.132475853,-3.033384085,0.3938699067,2024-06-04 14:07:06.729827
43.77031744,0.2251636237,-1.608635068,-0.1772281379,2024-06-04 14:07:06.770317
43.8108051,-0.9788159728,-0.4592485726,-0.1074553803,2024-06-04 14:07:06.810805
43.85130328,-2.051505566,-0.4813521802,-0.252060771,2024-06-04 14:07:06.851303
43.89175713,1.046857715,-1.020759583,0.3941362202,2024-06-04 14:07:06.891757
43.93222338,0.4749607742,-1.240730166,0.8137048483,2024-06-04 14:07:06.932223
43.97271859,-1.023023129,-0.2448704392,0.0410114713,2024-06-04 14:07:06.972719
44.01325223,0.6814828515,3.033650398,-0.3591166735,2024-06-04 14:07:07.013252
44.05367109,-1.091198087,-0.4877435565,0.2090519816,2024-06-04 14:07:07.053671
44.09417838,-1.750976801,-1.582536817,-0.6872084737,2024-06-04 14:07:07.094178
44.13473411,-1.196922421,1.451380014,-1.482404947,2024-06-04 14:07:07.134734
44.17518515,-2.673734903,1.776941895,0.1078548431,2024-06-04 14:07:07.175185
44.21564598,-1.942851901,0.7745575905,0.7961285114,2024-06-04 14:07:07.215646
44.2561488,-1.685198665,1.124353409,0.6973281503,2024-06-04 14:07:07.256149
44.29662921,-1.429010153,2.115153313,0.3488638103,2024-06-04 14:07:07.296629
44.3370964,-1.287999868,2.001972198,-0.4070521593,2024-06-04 14:07:07.337096
44.37759369,-2.063223124,-1.329677105,-0.6770887375,2024-06-04 14:07:07.377594
44.41815026,-0.418902874,-0.0713706091,-0.3114475012,2024-06-04 14:07:07.418150
44.458619,-0.2521939278,2.191317558,0.2290250957,2024-06-04 14:07:07.458619
44.49907494,0.5696333647,-0.79493016,0.02876129188,2024-06-04 14:07:07.499075
44.53955239,2.250304699,0.2125139832,0.6310173869,2024-06-04 14:07:07.539552
44.5800439,3.76786232,-1.259371758,0.6928009391,2024-06-04 14:07:07.580044
44.62053067,3.205552578,0.5929353237,0.6659038067,2024-06-04 14:07:07.620531
44.66101697,2.224206448,0.07163692266,0.3403419554,2024-06-04 14:07:07.661017
44.70150317,1.627010345,-0.3159747422,0.3824186623,2024-06-04 14:07:07.701503
44.7420027,1.468024254,-0.7250242233,0.625158608,2024-06-04 14:07:07.742003
44.7824751,1.270956159,-2.777728319,0.5812177658,2024-06-04 14:07:07.782475
44.82299432,0.8391373158,-2.797967672,0.417571336,2024-06-04 14:07:07.822994
44.86343015,-0.2364817262,-1.608368754,0.1619154215,2024-06-04 14:07:07.863430
44.90394489,-1.469222665,-0.6579145193,0.1531272531,2024-06-04 14:07:07.903945
44.94442776,-0.7228937745,-1.002650619,-0.1444722265,2024-06-04 14:07:07.944428
44.98492057,0.84020257,-1.198387146,0.7364754677,2024-06-04 14:07:07.984921
45.02537687,-0.1794917583,-1.126750231,0.8222267628,2024-06-04 14:07:08.025377
45.06581515,-0.6822817326,1.194658875,-0.05432688445,2024-06-04 14:07:08.065815
45.10634203,0.6090469956,1.103847742,-0.104392834,2024-06-04 14:07:08.106342
45.14689197,-1.700644493,-1.364163995,-0.2382127345,2024-06-04 14:07:08.146892
45.18735452,-1.809830904,0.04367455468,-1.314231277,2024-06-04 14:07:08.187355
45.22783484,-1.574148059,2.061625481,-1.526079416,2024-06-04 14:07:08.227835
45.26836489,-3.246430874,1.929802775,0.515173316,2024-06-04 14:07:08.268365
45.30875317,-1.806368947,2.041385889,1.000386953,2024-06-04 14:07:08.308753
45.34927911,-1.653774261,2.071745157,0.8014547229,2024-06-04 14:07:08.349279
45.38976885,-1.370155931,2.011293173,0.3893426657,2024-06-04 14:07:08.389769
45.43024088,-1.21689558,1.260969639,-0.4805532396,2024-06-04 14:07:08.430241
45.47073119,-1.786662102,-1.156843066,-0.5500596762,2024-06-04 14:07:08.470731
45.51117479,-0.3094501793,0.9915987849,-0.2017285079,2024-06-04 14:07:08.511175
45.55166161,-0.2724333405,0.8786841035,0.1659100503,2024-06-04 14:07:08.551662
45.59218692,0.6306179762,-0.2414084375,0.01517957076,2024-06-04 14:07:08.592187
45.63265562,2.20290184,0.4978632927,0.4953333437,2024-06-04 14:07:08.632656
45.67316947,3.662404299,-1.242860675,0.7415353656,2024-06-04 14:07:08.673169
45.71365109,3.281450272,0.008255556226,0.5894733071,2024-06-04 14:07:08.713651
45.75413979,2.233527422,-0.056723658,0.4218322635,2024-06-04 14:07:08.754140
45.79464369,1.432072639,-0.2288919389,0.5910711884,2024-06-04 14:07:08.794644
45.83511739,1.288798809,-1.073754907,0.6643059254,2024-06-04 14:07:08.835117
45.87558776,1.473883033,-3.380783319,0.5516575575,2024-06-04 14:07:08.875588
45.91609484,1.378811002,-2.71993947,-0.1346188188,2024-06-04 14:07:08.916095
45.95658869,-0.1307573467,-1.149386406,0.07749570161,2024-06-04 14:07:08.956589
45.99707567,-1.851641297,-0.2978657782,0.3967992961,2024-06-04 14:07:08.997076
46.0375563,-0.851254344,-0.859110415,0.08814803511,2024-06-04 14:07:09.037556
46.07803218,0.984541595,-1.442724943,0.5471302867,2024-06-04 14:07:09.078032
46.11851937,-0.3581846058,-0.609446466,0.4212996662,2024-06-04 14:07:09.118519
46.15904838,1.087869167,1.887459755,-0.4898740351,2024-06-04 14:07:09.159048
46.19952145,-0.4543218911,-0.6073159575,0.2189053893,2024-06-04 14:07:09.199521
46.23997906,-1.988124251,-1.263100028,-0.4685693681,2024-06-04 14:07:09.239979
46.2804601,-1.253912449,1.094127417,-2.243380785,2024-06-04 14:07:09.280460
46.32095015,-3.191571236,3.145499945,-0.3625786901,2024-06-04 14:07:09.320950
46.36144083,-2.61035347,1.671350598,0.8384715319,2024-06-04 14:07:09.361441
46.40189223,-1.669752717,1.380808353,0.8520532846,2024-06-04 14:07:09.401892
46.44238479,-1.668953896,1.375215888,0.6653711796,2024-06-04 14:07:09.442385
46.48290942,-1.601045251,1.28626883,0.0490007177,2024-06-04 14:07:09.482909
46.52340312,-1.195058346,-0.09933298081,-0.619299829,2024-06-04 14:07:09.523403
46.56388906,-0.5818835497,0.4271584451,-0.3569862247,2024-06-04 14:07:09.563889
46.60436666,-0.4026580751,1.124087095,0.03595161438,2024-06-04 14:07:09.604367
46.64483968,-0.1307573467,-0.3468665183,-0.1268958896,2024-06-04 14:07:09.644840
46.68531838,0.8641703129,0.3960003853,0.1352845877,2024-06-04 14:07:09.685318
46.72581734,2.7793262,-0.5924026966,0.6118432283,2024-06-04 14:07:09.725817
46.76629666,3.458012819,-0.4302209914,0.6030550599,2024-06-04 14:07:09.766297
46.80678338,2.764945507,1.545386791,0.7239589691,2024-06-04 14:07:09.806783
46.8472676,1.979735613,-0.006391398143,0.4910724163,2024-06-04 14:07:09.847268
46.8877615,1.619819999,-0.7360759974,0.234617576,2024-06-04 14:07:09.887762
46.92828312,1.298119545,-1.009574652,0.452457726,2024-06-04 14:07:09.928283
46.96877057,0.950720489,-2.306229591,0.5231625438,2024-06-04 14:07:09.968771
47.00925031,0.5584484339,-2.340050697,0.2846835256,2024-06-04 14:07:10.009250
47.0497364,-0.5975957513,-1.46402967,0.1113168523,2024-06-04 14:07:10.049736
47.09021713,-1.667356014,-0.8063814044,0.01358172111,2024-06-04 14:07:10.090217
47.13069426,0.4296883643,-0.8947957158,0.181622237,2024-06-04 14:07:10.130694
47.17116739,0.7792179585,-1.731669426,0.95857656,2024-06-04 14:07:10.171167
47.2116214,-0.5621767044,-0.3197030723,0.145404309,2024-06-04 14:07:10.211621
47.25216229,1.517291307,2.194513083,-0.3588503897,2024-06-04 14:07:10.252162
47.29259947,-0.7362091541,-1.249252081,0.1616491079,2024-06-04 14:07:10.292599
47.33313385,-2.074674368,-1.112635851,-0.7095783353,2024-06-04 14:07:10.333134
47.37358281,-1.078947902,1.675345182,-2.185059309,2024-06-04 14:07:10.373583
47.41408161,-3.959204912,2.931920767,-0.5244941115,2024-06-04 14:07:10.414082
47.45458312,-2.076005936,1.838725328,0.8507217169,2024-06-04 14:07:10.454583
47.49505755,-1.75683558,0.7585790753,0.7798837423,2024-06-04 14:07:10.495058
47.53553859,-1.454841971,1.922612429,0.6105116606,2024-06-04 14:07:10.535539
47.5760338,-1.372819066,1.541658521,-0.149265781,2024-06-04 14:07:10.576034
47.61649854,-1.727009058,-0.8758878708,-0.7978595495,2024-06-04 14:07:10.616499
47.65704843,-0.6362104416,0.02902759984,-0.4174381793,2024-06-04 14:07:10.657048
47.69748187,-0.2085193694,1.172022581,0.009320789017,2024-06-04 14:07:10.697482
47.73796567,0.4089163244,-0.3836170435,0.005858781748,2024-06-04 14:07:10.737966
47.77847531,1.874011159,0.1856168509,0.5524564981,2024-06-04 14:07:10.778475
47.81896151,3.668262959,-1.12595129,0.6520557404,2024-06-04 14:07:10.818962
47.85941499,3.254020691,0.7460625768,0.621696651,2024-06-04 14:07:10.859415
47.89993072,2.346308947,0.7338123918,1.006778359,2024-06-04 14:07:10.899931
47.94041145,1.65257585,-0.3982639909,0.4268921316,2024-06-04 14:07:10.940411
47.98086124,1.040998936,-0.4789553881,0.7316819429,2024-06-04 14:07:10.980861
48.02134744,0.8609746099,-2.811016798,0.9210271239,2024-06-04 14:07:11.021347
48.06181041,1.220357537,-3.032585382,0.3936035931,2024-06-04 14:07:11.061810
48.10231984,0.0842865631,-1.909563303,0.2964010835,2024-06-04 14:07:11.102320
48.14281307,-1.383205056,-0.8828118443,0.266308248,2024-06-04 14:07:11.142813
48.18330833,-1.368558168,-0.2254299372,-0.001065233024,2024-06-04 14:07:11.183308
48.22386411,1.266162634,-1.443790197,0.6810833812,2024-06-04 14:07:11.223864
48.26428515,-0.0384815447,-1.145125508,0.7210295796,2024-06-04 14:07:11.264285
48.30476307,-0.5360785127,1.491326213,-0.1945381761,2024-06-04 14:07:11.304763
48.34523354,1.335669041,1.178946614,-0.492537111,2024-06-04 14:07:11.345234
48.38574562,-1.588528752,-2.581991673,-0.08868064731,2024-06-04 14:07:11.385746
48.426249,-2.169480324,-0.7568480372,-1.44991529,2024-06-04 14:07:11.426249
48.46672166,-1.338199019,3.274393082,-1.609433889,2024-06-04 14:07:11.466722
48.50719364,-3.7047472,2.237122536,0.1970681101,2024-06-04 14:07:11.507194
48.5476938,-1.680138826,2.030467272,1.095725298,2024-06-04 14:07:11.547694
48.58820723,-1.934862614,2.04298377,0.7937317491,2024-06-04 14:07:11.588207
48.62871114,-1.535267115,1.722082376,0.4625774324,2024-06-04 14:07:11.628711
48.6691551,-1.594653845,-0.3079854846,-0.6754909158,2024-06-04 14:07:11.669155
48.70965671,-0.6732272506,-0.3338173926,-0.5500596762,2024-06-04 14:07:11.709657
48.750134,-0.3933372796,1.386134505,-0.1479342431,2024-06-04 14:07:11.750134
48.79063088,-0.2284924835,-0.3410077095,0.0146469539,2024-06-04 14:07:11.790631
48.8310889,0.4874772727,0.222367391,0.08468602598,2024-06-04 14:07:11.831089
48.87157546,2.069481373,-0.00798924733,0.60678339,2024-06-04 14:07:11.871575
48.91204276,3.509676456,-0.7760222554,0.7125077248,2024-06-04 14:07:11.912043
48.9525251,3.028457403,1.081344724,0.6147726178,2024-06-04 14:07:11.952525
48.99305723,2.052970409,0.9620385766,0.7505898476,2024-06-04 14:07:11.993057
49.03360026,1.503975868,-0.3998618424,0.2884118557,2024-06-04 14:07:12.033600
49.07400838,1.487464786,-0.5524564981,0.3126458824,2024-06-04 14:07:12.074008
49.11448437,1.180943966,-2.911681414,0.3800218701,2024-06-04 14:07:12.114484
49.15501536,1.11849463,-2.564149141,0.213312909,2024-06-04 14:07:12.155015
49.19552333,-0.1169093251,-1.391860127,0.1653774232,2024-06-04 14:07:12.195523
49.23600312,-1.333671689,-0.5663045049,0.3565867543,2024-06-04 14:07:12.236003
49.27646109,-1.487864256,-0.2318213433,0.02503297664,2024-06-04 14:07:12.276461
49.31692052,1.104380369,-0.9539161921,0.5015916228,2024-06-04 14:07:12.316921
49.35741276,0.2225005478,-1.837393761,0.7018554211,2024-06-04 14:07:12.357413
49.39790906,-1.341394663,0.6200987697,0.1006645188,2024-06-04 14:07:12.397909
49.4384364,1.159905553,2.734719515,-0.4448679388,2024-06-04 14:07:12.438436
49.47889515,-0.9167661667,-1.925009251,-0.2025274336,2024-06-04 14:07:12.478895
49.51936609,-1.659899354,-1.620352626,-0.899056673,2024-06-04 14:07:12.519366
49.55987395,-1.16789484,2.334724426,-1.378012061,2024-06-04 14:07:12.559874
49.60037078,-4.19568634,1.935927868,-0.07802832127,2024-06-04 14:07:12.600371
49.64083166,-1.699845552,2.025939941,0.7734923363,2024-06-04 14:07:12.640832
49.68131776,-1.799711227,1.253779292,0.9090432525,2024-06-04 14:07:12.681318
49.72180364,-1.687861681,1.817687035,0.8616403341,2024-06-04 14:07:12.721804
49.76228187,-1.15750885,0.3842828274,-0.4358134568,2024-06-04 14:07:12.762282
49.8027601,-1.064833522,0.1667089611,-0.4816184938,2024-06-04 14:07:12.802760
49.84323921,-0.4335498512,0.3555215299,-0.3809539676,2024-06-04 14:07:12.843239
49.88376942,-0.169372052,0.2356828004,-0.01864157803,2024-06-04 14:07:12.883769
49.92427505,0.3601819277,-0.5244941115,-0.05459319428,2024-06-04 14:07:12.924275
49.96476182,1.59691751,0.6203650832,0.4173050225,2024-06-04 14:07:12.964762
50.00523468,3.259613037,-0.9736229777,0.7093120217,2024-06-04 14:07:13.005235
50.04563979,3.368799448,-0.5977289081,0.6355446577,2024-06-04 14:07:13.045640
50.08613984,2.702096701,1.033409238,0.618500948,2024-06-04 14:07:13.086140
50.1266601,1.587330341,0.2330197245,0.5018579364,2024-06-04 14:07:13.126660
50.167154,1.273885489,-0.2001306564,0.4282236695,2024-06-04 14:07:13.167154
50.20762395,0.8141043186,-1.978936672,0.5620435476,2024-06-04 14:07:13.207624
50.24814572,1.190264702,-3.655613422,0.2213021666,2024-06-04 14:07:13.248146
50.28859906,0.6170362234,-2.047111511,-0.2715012729,2024-06-04 14:07:13.288599
50.32912302,-0.6958634853,-0.4206338823,-0.2011958808,2024-06-04 14:07:13.329123
50.36961239,-1.886793971,-0.250729233,-0.0820229426,2024-06-04 14:07:13.369612
50.41007124,0.1412765235,-0.6813496947,0.1446053833,2024-06-04 14:07:13.410071
50.4505489,0.831148088,-1.425681233,0.4958659708,2024-06-04 14:07:13.450549
50.49100124,-0.6026555896,-0.3402087986,-0.1924077123,2024-06-04 14:07:13.491001
50.53151458,0.7837451696,2.212622166,-0.4326177537,2024-06-04 14:07:13.531515
50.57201494,-0.2090519816,0.2918738425,0.006657706574,2024-06-04 14:07:13.572015
50.6124752,-1.264032125,-1.199718714,-0.6461969614,2024-06-04 14:07:13.612475
50.65300067,-1.494521976,1.148321152,-1.436866164,2024-06-04 14:07:13.653001
50.69345452,-3.442167282,1.616224766,0.3701684773,2024-06-04 14:07:13.693455
50.73396593,-1.468956351,1.028082967,0.8539174199,2024-06-04 14:07:13.733966
50.77446651,-1.84817934,0.4170387387,0.897059381,2024-06-04 14:07:13.774467
50.81493927,-1.48440218,1.489195824,0.5335485935,2024-06-04 14:07:13.814939
50.85539052,-1.483603239,2.196909904,-0.1247654185,2024-06-04 14:07:13.855391
50.895914,-1.452445269,-0.9129046798,-0.859110415,2024-06-04 14:07:13.895914
50.93641244,-0.7910686731,-1.78173542,-0.382019192,2024-06-04 14:07:13.936412
50.97687078,-0.3957340717,3.741364717,0.1275616586,2024-06-04 14:07:13.976871
51.01736119,-0.1853505522,-0.6525883675,-0.07696308941,2024-06-04 14:07:14.017361
51.05783776,0.5709648728,-0.6147726178,0.27536273,2024-06-04 14:07:14.057838
51.09830338,2.145911932,-1.55830276,0.6200987697,2024-06-04 14:07:14.098303
51.13886859,3.419131756,-0.7957290411,0.06391397864,2024-06-04 14:07:14.138869
51.1793115,2.739646196,2.515015125,0.1217028722,2024-06-04 14:07:14.179311
51.21982239,2.17547226,1.563229442,0.4276910722,2024-06-04 14:07:14.219822
51.26029734,1.632869124,-0.2198374718,0.349662751,2024-06-04 14:07:14.260297
51.30073473,1.606238246,-0.9664326906,0.3371462524,2024-06-04 14:07:14.300735
51.34123906,1.352180123,-2.344577789,0.268971324,2024-06-04 14:07:14.341239
51.38168015,0.623693943,-2.083063126,0.3475322723,2024-06-04 14:07:14.381680
51.42224265,-0.1613828093,-1.055645943,0.1009308323,2024-06-04 14:07:14.422243
51.46269645,-0.9801475406,-0.4504604042,0.1147788614,2024-06-04 14:07:14.462696
51.50321093,-1.612762809,-0.551923871,-0.0005326165119,2024-06-04 14:07:14.503211
51.54370104,0.8998556137,-1.183473945,0.2782921195,2024-06-04 14:07:14.543701
51.58415671,0.3559209704,-2.13765645,0.6752246022,2024-06-04 14:07:14.584157
51.62466161,-0.5027899742,-0.1540593207,-0.1391460598,2024-06-04 14:07:14.624662
51.66514312,1.066298246,1.757501364,-0.2661750913,2024-06-04 14:07:14.665143
51.70562557,-0.8717600703,0.2995967865,0.1254311949,2024-06-04 14:07:14.705626
51.74611515,-1.573349118,-0.8556483984,-0.9919982553,2024-06-04 14:07:14.746115
51.78659588,-1.814358115,1.284404755,-1.515693426,2024-06-04 14:07:14.786596
51.82705718,-2.613016605,1.73273468,0.7103772759,2024-06-04 14:07:14.827057
51.86756906,-1.55124557,1.082409859,0.6712299585,2024-06-04 14:07:14.867569
51.90806046,-1.624480367,0.6517894268,0.6808170676,2024-06-04 14:07:14.908060
51.94859739,-1.25843966,1.152049541,0.4138430357,2024-06-04 14:07:14.948597
51.98905864,-1.399982452,2.542178631,0.03142437339,2024-06-04 14:07:14.989059
52.02951234,-1.589327693,0.331553787,-0.5844134688,2024-06-04 14:07:15.029512
52.0699815,-1.309703946,-2.555893421,-0.5521901846,2024-06-04 14:07:15.069981
52.11059796,-0.3390104175,2.592244625,-0.1348851323,2024-06-04 14:07:15.110598
52.15097437,-0.01584534161,0.9133041501,0.2742975056,2024-06-04 14:07:15.150974
52.19141661,1.016232252,-1.514361858,0.3246297538,2024-06-04 14:07:15.191417
52.23193104,2.786250114,-0.9195623994,0.6653711796,2024-06-04 14:07:15.231931
52.27242114,3.385576963,-0.2089188248,0.3840165138,2024-06-04 14:07:15.272421
52.31292838,2.378265858,3.004622936,0.5037220716,2024-06-04 14:07:15.312928
52.3534364,1.961892962,1.045925617,0.4564523399,2024-06-04 14:07:15.353436
52.39391343,1.73193574,-0.9927971959,0.4593817294,2024-06-04 14:07:15.393913
52.43440036,1.498117089,-0.4083836973,0.3185046613,2024-06-04 14:07:15.434400
52.47488619,0.9264864326,-2.900230169,0.3680379987,2024-06-04 14:07:15.474886
52.51536062,0.834343791,-2.228733778,0.2580527067,2024-06-04 14:07:15.515361
52.55582802,-0.2154433727,-1.286002517,0.02103835158,2024-06-04 14:07:15.555828
52.5963251,-1.275217056,-1.072423339,-0.03275591508,2024-06-04 14:07:15.596325
52.63683276,-1.162036061,-0.5836145282,-0.1940055639,2024-06-04 14:07:15.636833
52.67730953,0.3532578945,-1.581471562,0.2756290436,2024-06-04 14:07:15.677310
52.71776968,0.3857475221,-1.051651359,0.4812190235,2024-06-04 14:07:15.717770
52.75827171,0.7200975418,0.8704285622,-0.4366123974,2024-06-04 14:07:15.758272
52.79879151,0.03155753016,1.050985575,-0.2347507328,2024-06-04 14:07:15.798792
52.83925286,-1.156177282,-0.05485950038,-0.7382065058,2024-06-04 14:07:15.839253
52.87974265,-1.652975321,1.316361666,-1.593455434,2024-06-04 14:07:15.879743
52.92025515,-2.854025602,1.680138826,-0.3311543167,2024-06-04 14:07:15.920255
52.96075869,-2.133528709,1.059773684,0.9244890809,2024-06-04 14:07:15.960759
53.00120192,-1.589061379,0.9849410653,0.7431331873,2024-06-04 14:07:16.001202
53.04169432,-1.435934067,1.507570982,0.6973281503,2024-06-04 14:07:16.041694
53.08213369,-1.30997026,1.819018483,0.3334179223,2024-06-04 14:07:16.082134
53.12262838,-1.490260959,0.8978582621,-0.3133116663,2024-06-04 14:07:16.122628
53.16314588,-1.163101315,-1.369223952,-0.7106435895,2024-06-04 14:07:16.163146
53.20363583,-0.7298177481,-0.6778876781,-0.4256937504,2024-06-04 14:07:16.203636
53.2441252,-0.2940043211,2.225138664,0.07216953486,2024-06-04 14:07:16.244125
53.28456432,-0.3485974967,-0.3543231487,0.1944050342,2024-06-04 14:07:16.284564
53.32506921,0.5866770744,-0.9525846243,-0.06071828306,2024-06-04 14:07:16.325069
53.36558416,2.216217279,0.4936023653,0.4689688385,2024-06-04 14:07:16.365584
53.40605822,3.472925901,-0.4675041437,0.5236951709,2024-06-04 14:07:16.406058
53.44653078,2.793706656,2.466280699,0.3153089881,2024-06-04 14:07:16.446531
53.48704088,2.112889767,1.984662294,0.5370106101,2024-06-04 14:07:16.487041
53.52752593,1.531405568,-0.394269377,0.3384777904,2024-06-04 14:07:16.527526
53.56802869,1.480540752,-0.1766955256,0.83314538,2024-06-04 14:07:16.568029
53.60851963,1.177215695,-1.953371048,0.6693658233,2024-06-04 14:07:16.608520
53.64898072,0.7821473479,-2.875996113,0.4910724163,2024-06-04 14:07:16.648981
53.68946901,-0.1640458852,-1.769218922,0.04953333735,2024-06-04 14:07:16.689469
53.72997708,-1.299184799,-1.074287534,-0.1758965999,2024-06-04 14:07:16.729977
53.770444,-1.673481107,-0.9541825056,-0.3782908916,2024-06-04 14:07:16.770444
53.8109552,0.8210283518,-1.326481462,0.4849473238,2024-06-04 14:07:16.810955
53.85141666,0.08908011019,-1.311568141,0.7852098942,2024-06-04 14:07:16.851417
53.89186552,-0.453789264,0.7061163187,-0.3700353205,2024-06-04 14:07:16.891866
53.93237843,1.354576945,1.163767099,-0.4517919421,2024-06-04 14:07:16.932378
53.97287202,-0.8459281921,-1.321687818,-0.1418091506,2024-06-04 14:07:16.972872
54.01334161,-1.607170343,-0.7472609878,-1.517823935,2024-06-04 14:07:17.013342
54.0538401,-1.278679132,2.951893806,-1.378012061,2024-06-04 14:07:17.053840
54.09431244,-4.64880991,-0.2123808414,0.2748301327,2024-06-04 14:07:17.094312
54.13486302,-1.311035514,2.719007254,0.9647016525,2024-06-04 14:07:17.134863
54.17531843,-1.622083545,1.342193604,0.8917331696,2024-06-04 14:07:17.175318
54.21577749,-1.285070539,1.053914905,0.3600487709,2024-06-04 14:07:17.215777
54.25625057,-1.016365409,1.119559884,-0.3375457227,2024-06-04 14:07:17.256251
54.2967465,-1.25551033,-0.3473991156,-0.5402063131,2024-06-04 14:07:17.296746
54.33723557,-0.7702966332,-0.5870765448,-0.3585840762,2024-06-04 14:07:17.337236
54.3777163,-0.3067871034,1.482804418,-0.08468602598,2024-06-04 14:07:17.377716
54.41820921,0.07123745978,-0.4816184938,-0.05246272683,2024-06-04 14:07:17.418209
54.45873255,1.378012061,0.6166367531,0.455653429,2024-06-04 14:07:17.458733
54.49922656,3.133915663,-1.137136221,0.8145037889,2024-06-04 14:07:17.499227
54.53969109,3.546427011,-0.2485987544,0.5647066832,2024-06-04 14:07:17.539691
54.58019744,2.493843555,1.83073616,0.7753564715,2024-06-04 14:07:17.580197
54.62062729,1.794917703,-0.02130465955,0.3904078901,2024-06-04 14:07:17.620627
54.66111223,1.6347332,-0.4352808297,0.4607132971,2024-06-04 14:07:17.661112
54.70157921,1.210237861,-1.354044318,0.6059844494,2024-06-04 14:07:17.701579
54.7421014,1.089999676,-2.562284946,0.6019898057,2024-06-04 14:07:17.742101
54.78256531,0.4216991365,-1.949909091,0.3629781604,2024-06-04 14:07:17.782565
54.82305182,-0.7924002409,-1.358837843,0.3312874734,2024-06-04 14:07:17.823052
54.86355874,-1.891853809,-0.7829462886,0.2599168718,2024-06-04 14:07:17.863559
54.90402999,0.05872096866,-0.4818847775,0.1041265279,2024-06-04 14:07:17.904030
54.94455437,0.9078448415,-2.103569031,0.9753540158,2024-06-04 14:07:17.944554
54.98504557,-0.6734935641,-0.1126483902,0.5788210034,2024-06-04 14:07:17.985046
55.02550447,-0.2572537661,2.717941999,-0.4981296062,2024-06-04 14:07:18.025504
55.06599802,0.6535204649,-0.4573844373,-0.6147726178,2024-06-04 14:07:18.065998
55.10648296,-1.813825488,-2.542178631,-0.5002600551,2024-06-04 14:07:18.106483
55.14699406,-1.650844932,0.9905335307,-1.300116897,2024-06-04 14:07:18.146994
55.18746947,-2.047777414,4.669049263,-1.293459177,2024-06-04 14:07:18.187469
55.22795156,-3.882241726,1.318492174,0.1240996495,2024-06-04 14:07:18.227952
55.2684965,-1.549381375,2.649500847,0.8893364072,2024-06-04 14:07:18.268496
55.30887479,-1.752308369,2.119148016,0.7487256527,2024-06-04 14:07:18.308875
55.34939786,-1.56535995,0.9332773089,0.2756290436,2024-06-04 14:07:18.349398
55.38990874,-0.860308826,0.2492645234,-0.5886744261,2024-06-04 14:07:18.389909
55.43039734,-0.8850755095,0.263112545,-0.530619204,2024-06-04 14:07:18.430397
55.47086421,-0.3246297538,0.3384777904,-0.2930722237,2024-06-04 14:07:18.470864
55.5113039,-0.3097164929,0.01651111245,0.07563154399,2024-06-04 14:07:18.511304
55.55184833,0.3961335421,0.3123795986,0.1251648813,2024-06-04 14:07:18.551848
55.592304,1.945115447,-0.2238320857,0.6025224328,2024-06-04 14:07:18.592304
55.63279656,3.394098759,-0.363910228,0.8408682942,2024-06-04 14:07:18.632797
55.67328281,2.831788778,0.6416697502,0.6411371231,2024-06-04 14:07:18.673283
55.71376145,2.571605682,1.271089315,0.8930647373,2024-06-04 14:07:18.713761
55.75426057,1.399582982,0.1595186442,0.3712337017,2024-06-04 14:07:18.754261
55.79476921,1.47814393,-0.08734910935,0.4753602445,2024-06-04 14:07:18.794769
55.83520729,1.061771035,-2.460422039,0.5298202634,2024-06-04 14:07:18.835207
55.87572067,1.087869167,-2.712482691,0.4455337226,2024-06-04 14:07:18.875721
55.91620885,0.05872096866,-1.598248959,-0.006924014539,2024-06-04 14:07:18.916209
55.95669176,-1.042197347,-0.8279523849,-0.07749570161,2024-06-04 14:07:18.956692
55.99717494,-1.804771066,-0.8159685135,-0.3247629106,2024-06-04 14:07:18.997175
56.03767302,0.7669677734,-0.9568455815,0.2609820962,2024-06-04 14:07:19.037673
56.0781538,0.6982602477,-1.856567979,1.056844354,2024-06-04 14:07:19.078154
56.11863296,-0.2298240215,-0.386546433,0.09613727778,2024-06-04 14:07:19.118633
56.15917124,1.37348485,1.421819806,-0.1625811905,2024-06-04 14:07:19.159171
56.19966026,-0.771894455,-0.2296908647,0.09134373069,2024-06-04 14:07:19.199660
56.24016343,-1.683600783,-0.5340812206,-1.255909681,2024-06-04 14:07:19.240163
56.28059317,-1.199319243,1.86855185,-2.357626915,2024-06-04 14:07:19.280593
56.32107203,-3.794093609,1.339796782,-0.2374138087,2024-06-04 14:07:19.321072
56.36158536,-1.830603004,1.88186729,0.7433995008,2024-06-04 14:07:19.361585
56.40209265,-1.831934452,0.6893389225,0.5399399996,2024-06-04 14:07:19.402093
56.44254895,-1.532603979,1.172555208,0.6118432283,2024-06-04 14:07:19.442549
56.48303291,-1.58240366,1.285736203,0.1877473146,2024-06-04 14:07:19.483033
56.52350192,-1.247787356,-0.05006595328,-0.3772256374,2024-06-04 14:07:19.523502
56.56397557,-0.8744231462,0.1411433816,-0.3830844164,2024-06-04 14:07:19.563976
56.60447416,-0.6644390821,0.2681724131,-0.2965342402,2024-06-04 14:07:19.604474
56.64495364,-0.1965354979,0.7793511152,-0.01331541315,2024-06-04 14:07:19.644954
56.68543927,0.2211690098,0.08308817446,0.1126483902,2024-06-04 14:07:19.685439
56.7259415,1.740058184,0.7524539828,0.4268921316,2024-06-04 14:07:19.725941
56.76643796,3.468398809,-0.7608426809,0.9535167217,2024-06-04 14:07:19.766438
56.80691692,3.534176826,0.1592523307,0.7426005602,2024-06-04 14:07:19.806917
56.84739458,2.670406103,1.248186827,0.9833432436,2024-06-04 14:07:19.847395
56.88788661,1.780537009,-0.9067795873,0.427957356,2024-06-04 14:07:19.887887
56.92840015,1.70823431,-0.02077204362,0.4945344329,2024-06-04 14:07:19.928400
56.96887036,1.025286794,-2.223141432,0.6179683208,2024-06-04 14:07:19.968870
57.0093402,1.334071159,-2.929790258,0.3403419554,2024-06-04 14:07:20.009340
57.04982546,0.5717638135,-1.942851901,0.1153114736,2024-06-04 14:07:20.049825
57.09031432,-0.5850792527,-1.095325828,0.1541924775,2024-06-04 14:07:20.090314
57.13079026,-0.8533847928,-0.8798824549,0.2442046702,2024-06-04 14:07:20.130790
57.17124963,0.1801575422,-1.199186087,0.01970681176,2024-06-04 14:07:20.171250
57.21172661,0.4906729758,-1.687728524,0.3129121959,2024-06-04 14:07:20.211727
57.25229317,-0.07416684926,-1.393724203,0.4942681193,2024-06-04 14:07:20.252293
57.2927438,-1.656703711,1.422618747,0.219171688,2024-06-04 14:07:20.292744
57.33322208,0.6822817326,2.113289118,-0.6427350044,2024-06-04 14:07:20.333222
57.37373338,-1.617023706,0.9705604315,-0.1308905035,2024-06-04 14:07:20.373733
57.41420057,-1.548049927,0.8842765689,-0.9608401656,2024-06-04 14:07:20.414201
57.45467828,-1.271222472,2.174540043,-1.800909638,2024-06-04 14:07:20.454678
57.49520203,-3.694893837,1.249518394,-0.09826774895,2024-06-04 14:07:20.495202
57.53564526,-1.815157056,1.782268047,0.8166342378,2024-06-04 14:07:20.535645
57.57615661,-1.673214793,0.7457962632,0.7306166887,2024-06-04 14:07:20.576157
57.61661947,-1.560566425,2.106631517,0.6627081037,2024-06-04 14:07:20.616619
57.65710848,-1.586930871,1.674013734,-0.0229025092,2024-06-04 14:07:20.657108
57.69759046,-1.574947,-1.261235952,-0.8833444715,2024-06-04 14:07:20.697590
57.73810953,-0.7804163694,0.237813279,-0.2153102309,2024-06-04 14:07:20.738110
57.77860901,-0.3275591433,1.537397504,0.06577813625,2024-06-04 14:07:20.778609
57.81904609,0.009187635034,-0.2848166823,-0.1229012609,2024-06-04 14:07:20.819046
57.85955322,1.054847002,-0.006391398143,0.3752283454,2024-06-04 14:07:20.859553
57.90004093,2.866142511,-1.003183246,0.766035676,2024-06-04 14:07:20.900041
57.94052426,3.583577156,-0.6579145193,0.3501953483,2024-06-04 14:07:20.940524
57.98100447,2.78145647,1.209305763,0.6030550599,2024-06-04 14:07:20.981004
58.02149067,2.001839161,-0.005592473317,0.4159734845,2024-06-04 14:07:21.021491
58.06197442,1.859896898,0.018907886,0.2471340597,2024-06-04 14:07:21.061974
58.10249192,1.268293023,-1.157375693,0.3965329826,2024-06-04 14:07:21.102492
58.1429415,1.100651979,-2.619274855,0.5223636627,2024-06-04 14:07:21.142941
58.18344416,0.7376738787,-2.434323788,0.3856143653,2024-06-04 14:07:21.183444
58.22392416,-0.0977351293,-1.422751904,0.1749645174,2024-06-04 14:07:21.223924
58.26440166,-1.179612398,-0.7997236848,0.2868140042,2024-06-04 14:07:21.264402
58.30486718,-0.8203625679,-0.5130428672,0.07669677585,2024-06-04 14:07:21.304867
58.3453801,0.7986584306,-1.727941155,0.4058537781,2024-06-04 14:07:21.345380
58.38589708,0.2712349594,-1.358571529,0.6360772848,2024-06-04 14:07:21.385897
58.42635426,-0.113447316,1.264697909,-0.03701684624,2024-06-04 14:07:21.426354
58.46684026,0.7041190267,1.09812212,-0.2829525173,2024-06-04 14:07:21.466840
58.50733661,-1.385069251,-0.351660043,-0.4592485726,2024-06-04 14:07:21.507337
58.54780729,-1.701709747,0.4564523399,-1.653907418,2024-06-04 14:07:21.547807
58.58834828,-1.4993155,3.340703964,-1.574547529,2024-06-04 14:07:21.588348
58.62882015,-4.468253136,1.271621943,-0.1046591476,2024-06-04 14:07:21.628820
58.66932151,-1.641257763,1.975874066,0.7489919662,2024-06-04 14:07:21.669322
58.7097651,-1.743253827,0.9109073877,0.6541862488,2024-06-04 14:07:21.709765
58.75025786,-1.344324112,1.308372498,0.4383433759,2024-06-04 14:07:21.750258
58.79074911,-1.423950195,1.165098667,-0.1101184636,2024-06-04 14:07:21.790749
58.8311952,-1.712095737,-0.8503222466,-0.8484581113,2024-06-04 14:07:21.831195
58.87167145,-0.47056669,0.09427312016,-0.4856131077,2024-06-04 14:07:21.871671
58.9122327,-0.4191691875,1.567490339,0.1270290315,2024-06-04 14:07:21.912233
58.95267541,0.01291595027,-0.4243622124,0.002663082443,2024-06-04 14:07:21.952675
58.99317739,1.267227888,0.03595161438,0.575891614,2024-06-04 14:07:21.993177
59.03365838,3.320331335,-0.5652392507,0.8959941268,2024-06-04 14:07:22.033658
59.07413942,3.460409403,0.128626883,0.7231600881,2024-06-04 14:07:22.074139
59.1146389,2.697835684,1.361900449,0.9796149135,2024-06-04 14:07:22.114639
59.15513588,1.788259983,-0.2712349594,0.3571193814,2024-06-04 14:07:22.155136
59.19560572,1.454442501,0.03515268862,0.5292876363,2024-06-04 14:07:22.195606
59.23608718,1.140731454,-2.112090826,0.6818822622,2024-06-04 14:07:22.236087
59.27656552,1.492524624,-3.138576031,0.3853480518,2024-06-04 14:07:22.276566
59.31703635,0.489341408,-1.828871965,0.06045197323,2024-06-04 14:07:22.317036
59.35753041,-0.9290163517,-0.8884043694,0.116643019,2024-06-04 14:07:22.357530
59.39803411,-1.769085765,-0.9334104657,-0.03994623944,2024-06-04 14:07:22.398034
59.43855968,0.8143706322,-1.469622135,0.05326165259,2024-06-04 14:07:22.438560
59.47905296,0.5760247707,-2.099840641,0.778285861,2024-06-04 14:07:22.479053
59.51952702,-0.4404738545,-0.09027849883,0.12117026,2024-06-04 14:07:22.519527
59.56003291,1.151916385,2.510754347,-0.1268958896,2024-06-04 14:07:22.560033
59.6005389,-1.05950737,-0.1150451675,-0.06764229387,2024-06-04 14:07:22.600539
59.64092635,-1.886527658,-0.4469984174,-1.387066603,2024-06-04 14:07:22.640926
59.68141161,-1.251515627,1.926074505,-2.23485899,2024-06-04 14:07:22.681412
59.72190197,-3.646692038,1.328611851,0.1270290315,2024-06-04 14:07:22.721902
59.7624352,-1.801575303,1.696383595,1.05657804,2024-06-04 14:07:22.762435
59.80294614,-1.794651389,0.9055812359,0.8224930763,2024-06-04 14:07:22.802946
59.84337124,-1.613295436,1.940188766,0.8062482476,2024-06-04 14:07:22.843371
59.88387526,-1.351514339,0.9633701444,-0.147401616,2024-06-04 14:07:22.883875
59.92439697,-1.427944899,-1.399050474,-0.710909903,2024-06-04 14:07:22.924397
59.96485281,-0.7982590199,0.3912068307,-0.2254299372,2024-06-04 14:07:22.964853
60.00536249,-0.4354139864,1.473217249,-0.1009308323,2024-06-04 14:07:23.005362
60.04587192,-0.1821548492,-0.1142462417,-0.1790923029,2024-06-04 14:07:23.045872
60.08629203,0.5246272683,0.2079867423,0.2260957062,2024-06-04 14:07:23.086292
60.12679583,2.182662487,-0.7098446488,0.7093120217,2024-06-04 14:07:23.126796
60.16727104,3.38531065,-1.303046346,0.3517931998,2024-06-04 14:07:23.167271
60.20775473,2.94550252,1.273486137,0.327026546,2024-06-04 14:07:23.207755
60.24827692,2.092383862,1.668953896,0.836341083,2024-06-04 14:07:23.248277
60.28870692,1.698380947,-0.05592473224,0.7671009302,2024-06-04 14:07:23.288707
60.32922781,2.158162117,-1.013302922,0.349662751,2024-06-04 14:07:23.329228
60.36974572,1.400381923,-2.059894323,0.7122414112,2024-06-04 14:07:23.369746
60.41028229,1.032743454,-2.463617563,0.6499252915,2024-06-04 14:07:23.410282
60.45070786,0.4382102489,-1.382006645,0.006125089712,2024-06-04 14:07:23.450708
60.49119822,-0.6274222732,-0.4773575366,-0.1756303012,2024-06-04 14:07:23.491198
60.53166515,-1.683068156,-0.570032835,-0.104392834,2024-06-04 14:07:23.531665
60.57212427,-0.7676335573,0.06418029219,0.09826774895,2024-06-04 14:07:23.572124
60.61262291,0.6207645535,-1.713294148,0.3400756419,2024-06-04 14:07:23.612623
60.65310947,-0.2229000032,-1.783599496,0.4926702678,2024-06-04 14:07:23.653109
60.69360776,-0.9604407549,0.8334116936,0.06071828306,2024-06-04 14:07:23.693608
60.73408385,0.7690982223,1.979336143,-0.173233524,2024-06-04 14:07:23.734084
60.77462494,-1.622882485,-0.28241992,-0.2350170314,2024-06-04 14:07:23.774625
60.81509036,-1.813825488,-0.009054481052,-1.704239726,2024-06-04 14:07:23.815090
60.85554026,-1.519821167,2.32913208,-1.819817424,2024-06-04 14:07:23.855540
60.89603317,-2.805024862,1.61436069,-0.03089175746,2024-06-04 14:07:23.896033
60.93652406,-1.741389632,0.9143694043,0.8573794365,2024-06-04 14:07:23.936524
60.97701364,-1.369889617,0.2892107666,0.6187672615,2024-06-04 14:07:23.977014
61.01750291,-1.198253989,1.163500786,0.6491263509,2024-06-04 14:07:24.017503
61.05798583,-1.419689298,1.511033058,0.1414096802,2024-06-04 14:07:24.057986
61.09842583,-1.568555593,-0.071104303,-0.570032835,2024-06-04 14:07:24.098426
61.13899364,-0.8243572116,-0.3367467821,-0.3777582645,2024-06-04 14:07:24.138994
61.17942624,-0.348331213,1.820350051,0.1853505522,2024-06-04 14:07:24.179426
