Time (s),Linear Acceleration x (m/s^2),Linear Acceleration y (m/s^2),Linear Acceleration z (m/s^2),Datetime
0.081459076,-0.5455539227,-0.07818317413,-0.7162060738,2024-06-04 14:06:23.081459
0.166426732,-0.2457938194,0.0611281395,-0.4297156334,2024-06-04 14:06:23.166427
0.206845066,0.2670054436,0.1937336922,0.2965164185,2024-06-04 14:06:23.206845
0.247397774,-0.3946721554,-0.2487707138,0.4276857376,2024-06-04 14:06:23.247398
0.287809805,0.5066635609,0.2188262939,-0.2544870377,2024-06-04 14:06:23.287810
0.328302618,-0.2901902199,-0.2740998268,-0.4013872147,2024-06-04 14:06:23.328303
0.368852982,-0.2552266121,-0.2460951805,-0.4756231308,2024-06-04 14:06:23.368853
0.40924767,0.527733326,0.3138742447,0.03199672699,2024-06-04 14:06:23.409248
0.449744128,0.4228789806,0.4685115814,-0.1517276764,2024-06-04 14:06:23.449744
0.490285378,-0.2441990376,-0.01715803146,-0.0687456131,2024-06-04 14:06:23.490285
0.530714389,0.2679553032,0.2924971581,0.01716136932,2024-06-04 14:06:23.530714
0.571255378,0.1520214081,0.4104061127,-0.3591890335,2024-06-04 14:06:23.571255
0.611511524,-0.5623348951,-0.2950353622,-0.1863107681,2024-06-04 14:06:23.611512
0.652202566,-0.2711100578,-0.2095687389,0.3145551682,2024-06-04 14:06:23.652203
0.692226212,-0.3027080297,0.2411718369,-0.2478199005,2024-06-04 14:06:23.692226
0.733156055,-0.4124270678,0.09452462196,-0.2345132828,2024-06-04 14:06:23.733156
0.773179701,-0.4847766161,0.247625351,0.1582736969,2024-06-04 14:06:23.773180
0.813978034,-0.6565773487,-0.08054018021,0.9189949036,2024-06-04 14:06:23.813978
0.854499753,-0.269800663,-0.02841305733,1.398740768,2024-06-04 14:06:23.854500
0.894979389,-0.4433544278,0.1322755814,0.4873065948,2024-06-04 14:06:23.894979
0.935464076,-0.122983098,-0.1853086948,0.3576507568,2024-06-04 14:06:23.935464
0.975952514,0.2411385775,-0.3729071617,-0.3085031509,2024-06-04 14:06:23.975953
1.016451107,-0.1211374402,-0.5924863815,-0.8437805176,2024-06-04 14:06:24.016451
1.056926316,-0.4010425806,-0.9511146545,-0.8724775314,2024-06-04 14:06:24.056926
1.097413087,-0.6843861938,-0.9000873566,-1.407280922,2024-06-04 14:06:24.097413
1.138024753,0.2044215798,-0.4841771126,-1.27526474,2024-06-04 14:06:24.138025
1.178048451,-0.5144937038,-0.4689874649,-0.2636880875,2024-06-04 14:06:24.178048
1.218869493,0.737154603,0.3241353035,-0.09736919403,2024-06-04 14:06:24.218869
1.259417253,0.6075222492,1.129771709,-0.906955719,2024-06-04 14:06:24.259417
1.299845795,0.7680233717,1.381353855,0.6090297699,2024-06-04 14:06:24.299846
1.340341837,0.585506916,1.086834431,0.9101486206,2024-06-04 14:06:24.340342
1.380365482,0.4226680994,0.8372235298,-0.9486761093,2024-06-04 14:06:24.380365
1.421370899,0.7824604511,0.5976428986,-1.640930176,2024-06-04 14:06:24.421371
1.461820482,0.7057795525,0.5375900269,-1.457255363,2024-06-04 14:06:24.461820
1.502136472,0.9775071144,0.4994540215,-0.8636732101,2024-06-04 14:06:24.502136
1.542848972,0.9842077494,0.6129179001,-0.4631786346,2024-06-04 14:06:24.542849
1.583258243,0.7075173855,0.6946668625,-1.145111561,2024-06-04 14:06:24.583258
1.623887201,0.8891056776,0.7100818157,-1.066814899,2024-06-04 14:06:24.623887
1.664321055,0.7236655951,0.8304436207,-0.8588008881,2024-06-04 14:06:24.664321
1.70474793,0.1784428358,1.256675243,-0.3145866394,2024-06-04 14:06:24.704748
1.745251212,-0.2685601115,1.104329824,1.343729973,2024-06-04 14:06:24.745251
1.785748034,-0.120061636,0.0894408226,5.065717697,2024-06-04 14:06:24.785748
1.826247462,-0.8184891939,0.01477789879,2.217213631,2024-06-04 14:06:24.826247
1.866758712,-0.8967702389,-0.1568205357,-1.334741592,2024-06-04 14:06:24.866759
1.907210482,-0.4607766569,-0.588394165,-0.540719986,2024-06-04 14:06:24.907210
1.947675482,-0.5267133713,-0.9839363098,0.2539653778,2024-06-04 14:06:24.947675
1.988174909,-0.9884054065,-0.9214930534,-1.132536888,2024-06-04 14:06:24.988175
2.028666993,-1.203674674,-0.1769580841,-1.445991516,2024-06-04 14:06:25.028667
2.069159701,-2.087840557,0.17425704,0.3059597015,2024-06-04 14:06:25.069160
2.109523451,-1.956675529,-0.1764700413,4.143216133,2024-06-04 14:06:25.109523
2.150142409,-1.193026423,0.170388937,-0.2587280273,2024-06-04 14:06:25.150142
2.190606264,-1.0241431,0.3284249306,-2.463571548,2024-06-04 14:06:25.190606
2.231100587,-0.7991588116,0.5246748924,-2.267430305,2024-06-04 14:06:25.231101
2.271620378,-0.9309794903,0.5465731621,-1.356294155,2024-06-04 14:06:25.271620
2.312097201,-0.2823524475,0.86485672,0.4784317017,2024-06-04 14:06:25.312097
2.352413139,0.6573886871,0.6907305717,0.2652435303,2024-06-04 14:06:25.352413
2.39278793,0.3671450615,-0.1277816296,-0.9957313538,2024-06-04 14:06:25.392788
2.433421159,-0.3146744967,0.2732872963,2.494569778,2024-06-04 14:06:25.433421
2.473921732,1.298855901,1.505627155,0.7299041748,2024-06-04 14:06:25.473922
2.514549597,0.4120733738,1.613469124,0.1038255692,2024-06-04 14:06:25.514550
2.555041889,1.391456366,-0.7402187586,4.451491356,2024-06-04 14:06:25.555042
2.595581055,2.376214266,-2.075442314,7.058285713,2024-06-04 14:06:25.595581
2.635977097,1.886237621,-2.869454861,-2.424955368,2024-06-04 14:06:25.635977
2.676482149,1.057139874,-2.480487347,-5.647627354,2024-06-04 14:06:25.676482
2.717016628,-0.2187401056,-1.598471642,-2.955601215,2024-06-04 14:06:25.717017
2.75749793,-1.636943936,-0.4832684994,-1.072663307,2024-06-04 14:06:25.757498
2.797947566,0.2484519482,0.2472624779,-0.3016700745,2024-06-04 14:06:25.797948
2.838421159,0.9200327396,0.6736316681,-1.331288815,2024-06-04 14:06:25.838421
2.878940222,0.1615940332,-0.09002423286,-1.296619892,2024-06-04 14:06:25.878940
2.919413139,-0.7632386684,-0.5692369938,-2.126522541,2024-06-04 14:06:25.919413
2.959928034,-1.190352917,-0.6429417133,-2.316818237,2024-06-04 14:06:25.959928
3.00039418,-1.378397465,-1.01369977,0.1510009766,2024-06-04 14:06:26.000394
3.040866055,0.366050005,-0.7040657997,-0.1174612045,2024-06-04 14:06:26.040866
3.081367409,-1.859658718,-0.1859362125,-1.634370804,2024-06-04 14:06:26.081367
3.121798816,2.196134567,1.455164433,4.377309799,2024-06-04 14:06:26.121799
3.162298712,1.951169014,0.4047949314,5.126879692,2024-06-04 14:06:26.162299
3.202796264,0.8040194511,-0.007640838623,3.60157299,2024-06-04 14:06:26.202796
3.243313087,0.01706409454,0.1571974754,-0.9826059341,2024-06-04 14:06:26.243313
3.283853816,1.177622795,-0.2782394886,-1.220238209,2024-06-04 14:06:26.283854
3.324322097,0.3209319115,-1.06021595,-0.4453992844,2024-06-04 14:06:26.324322
3.364513295,-0.8329901695,-1.368135929,1.034300804,2024-06-04 14:06:26.364513
3.405265587,-1.271908998,-1.822009206,1.761324883,2024-06-04 14:06:26.405266
3.445745743,-0.9737102985,-1.307522297,-0.5522184372,2024-06-04 14:06:26.445746
3.486244232,1.136842012,0.04098272324,-1.117986679,2024-06-04 14:06:26.486244
3.526731993,0.3783557415,0.479776144,-2.45112896,2024-06-04 14:06:26.526732
3.567208972,2.096725225,0.6569228172,-1.072767258,2024-06-04 14:06:26.567209
3.607459337,2.014604568,-0.1848444939,0.9548616409,2024-06-04 14:06:26.607459
3.648199389,1.560028911,-0.2020664215,2.436808586,2024-06-04 14:06:26.648199
3.688701212,-0.5284546614,0.4690349102,0.8195953369,2024-06-04 14:06:26.688701
3.729176628,1.890806913,2.193606615,-1.065249443,2024-06-04 14:06:26.729177
3.769646472,2.381313801,0.5281667709,3.275519371,2024-06-04 14:06:26.769646
3.810143764,-2.545868874,-3.806097984,5.562490463,2024-06-04 14:06:26.810144
3.850619857,0.7167321444,-4.232801437,5.417675018,2024-06-04 14:06:26.850620
3.891156784,1.166567564,-2.512218952,-2.102025986,2024-06-04 14:06:26.891157
3.931650066,-3.194424152,-1.692466497,-4.443604946,2024-06-04 14:06:26.931650
3.972146316,-1.492158294,-1.052318811,-0.7571697235,2024-06-04 14:06:26.972146
4.012650587,-1.549563169,-0.4882628918,-3.581284523,2024-06-04 14:06:27.012651
4.053075639,-1.072527647,-0.5108861923,-4.048035145,2024-06-04 14:06:27.053076
4.093585066,0.3506879807,-0.3969531059,-0.2550792694,2024-06-04 14:06:27.093585
4.134015066,0.9979381561,0.5689229965,-2.732403278,2024-06-04 14:06:27.134015
4.174458191,-0.1345947981,-0.3230175972,-0.9252614975,2024-06-04 14:06:27.174458
4.214979024,-0.4188405275,-1.020397663,1.61230278,2024-06-04 14:06:27.214979
4.255503399,-1.430047035,1.021879196,-1.202241898,2024-06-04 14:06:27.255503
4.295907514,0.8738149405,3.362794876,-0.8472185135,2024-06-04 14:06:27.295908
4.336427045,1.976325154,0.5817286968,5.133178711,2024-06-04 14:06:27.336427
4.376724962,-1.735863924,-1.939092755,5.927117348,2024-06-04 14:06:27.376725
4.417406055,-0.2488649487,-1.905823827,4.603987694,2024-06-04 14:06:27.417406
4.457874753,1.120993495,-1.353696346,1.31882,2024-06-04 14:06:27.457875
4.498360274,0.1251623631,-1.7453866,-1.19927454,2024-06-04 14:06:27.498360
4.538859649,-0.7018623352,-2.104369164,-1.949714184,2024-06-04 14:06:27.538860
4.579359962,-0.9914347529,-1.732540607,-2.557750225,2024-06-04 14:06:27.579360
4.619781368,-0.2317893505,-0.8599638939,-2.365321159,2024-06-04 14:06:27.619781
4.660360534,-0.3619285822,0.1906642914,-2.844659328,2024-06-04 14:06:27.660361
4.700833191,1.050962448,1.452010632,-2.109967709,2024-06-04 14:06:27.700833
4.74128017,-0.6105425954,0.4538202286,2.366408348,2024-06-04 14:06:27.741280
4.78181392,0.2576768398,0.7018713951,1.366054535,2024-06-04 14:06:27.781814
4.822281472,1.282772064,0.8727865219,1.476121902,2024-06-04 14:06:27.822281
4.862617097,0.7444666624,-0.03236484528,-0.6742916107,2024-06-04 14:06:27.862617
4.902952722,-0.2960065603,-0.5208535194,-2.757662296,2024-06-04 14:06:27.902953
4.943723139,1.706156731,-1.290765524,2.588049889,2024-06-04 14:06:27.943723
4.984146628,2.779834509,-1.656211376,3.802483559,2024-06-04 14:06:27.984147
5.024711837,1.475717545,-1.026761532,-1.760056973,2024-06-04 14:06:28.024712
5.065209962,-0.1086039543,-0.699649334,-3.437369823,2024-06-04 14:06:28.065210
5.105655326,-1.29740715,-0.5992054939,-2.629323006,2024-06-04 14:06:28.105655
5.146196524,1.051060677,-0.07334661484,-0.5066242218,2024-06-04 14:06:28.146197
5.186664701,0.6021221876,-0.4308953285,-0.9955015182,2024-06-04 14:06:28.186665
5.227155743,-0.6487538218,-0.02509737015,-1.974237442,2024-06-04 14:06:28.227156
5.267647722,0.1463097334,0.5516467094,-1.80151844,2024-06-04 14:06:28.267648
5.308126107,-0.2531764507,0.5571036339,-1.038951874,2024-06-04 14:06:28.308126
5.348577982,-0.896378696,-0.1532526016,-0.266368866,2024-06-04 14:06:28.348578
5.389016003,-1.518257022,0.3912489414,1.528486252,2024-06-04 14:06:28.389016
5.429576784,0.3109952211,0.4597659111,1.135735512,2024-06-04 14:06:28.429577
5.470074545,0.2209790945,0.117708683,0.5823469162,2024-06-04 14:06:28.470075
5.51054892,-0.9374349713,-1.162221789,4.393788338,2024-06-04 14:06:28.510549
5.551068034,-0.9854925275,-0.8658053875,3.814394951,2024-06-04 14:06:28.551068
5.591585899,-0.8851519823,-0.7655408382,3.607431412,2024-06-04 14:06:28.591586
5.632044128,-1.469229698,-1.075457573,2.998898506,2024-06-04 14:06:28.632044
5.672522357,-1.595929146,-1.471885085,1.507400513,2024-06-04 14:06:28.672522
5.713032045,0.4359146357,-1.314251423,-0.2365636826,2024-06-04 14:06:28.713032
5.753524649,-0.7174881697,-1.371976137,-2.145054817,2024-06-04 14:06:28.753525
5.793972409,-0.6772203445,-0.6907024384,-2.471232891,2024-06-04 14:06:28.793972
5.834468295,-0.3907259703,0.2984392643,-2.513376236,2024-06-04 14:06:28.834468
5.874979232,-0.3348904848,0.2414250374,-0.6865272522,2024-06-04 14:06:28.874979
5.915427566,0.1110883951,-0.03460407257,0.829079628,2024-06-04 14:06:28.915428
5.955894284,-1.709436774,-0.3139748573,0.4091348648,2024-06-04 14:06:28.955894
5.996403295,-0.5532708168,0.6369271278,-1.117581367,2024-06-04 14:06:28.996403
6.036896837,2.2776196,1.594004393,-0.2523078918,2024-06-04 14:06:29.036897
6.077415482,1.655717611,-1.505463123,5.560692787,2024-06-04 14:06:29.077415
6.117931576,1.341664314,-2.305611849,2.77624321,2024-06-04 14:06:29.117932
6.158392045,2.203447104,-1.011930466,-2.965624332,2024-06-04 14:06:29.158392
6.198885691,-0.7613221407,-1.200136423,-2.494731903,2024-06-04 14:06:29.198886
6.239318399,-1.772873044,-0.846334219,-1.593054771,2024-06-04 14:06:29.239318
6.279823347,0.6420365572,0.1033167839,-1.288629532,2024-06-04 14:06:29.279823
6.320300847,-0.08947968483,0.00385427475,-1.682225704,2024-06-04 14:06:29.320301
6.360775014,-0.6721256375,0.4805870056,-2.824405193,2024-06-04 14:06:29.360775
6.40128142,0.1459641457,1.510508299,-1.930786133,2024-06-04 14:06:29.401281
6.441787566,-0.7543433905,1.347982645,0.9441814423,2024-06-04 14:06:29.441788
6.482223139,0.02729904652,0.5469107628,2.778829575,2024-06-04 14:06:29.482223
6.522752253,-1.010210514,0.8396611214,1.941791534,2024-06-04 14:06:29.522752
6.563251889,0.5341476202,1.737672806,2.07901001,2024-06-04 14:06:29.563252
6.603753503,-0.07885479927,-0.1432299614,3.645130157,2024-06-04 14:06:29.603754
6.644230847,-2.858333111,-1.942847371,1.284208298,2024-06-04 14:06:29.644231
6.684703451,-2.578145266,-2.142967463,0.7993412018,2024-06-04 14:06:29.684703
6.725149545,-1.962097526,-2.426094055,-0.2973108292,2024-06-04 14:06:29.725150
6.765694493,-2.530438423,-2.600483894,-0.7461605072,2024-06-04 14:06:29.765694
6.806127253,-1.731775284,-2.599695683,0.3549833298,2024-06-04 14:06:29.806127
6.846614076,-1.214581966,-2.04075408,0.1774320602,2024-06-04 14:06:29.846614
6.887159753,-1.123712897,-1.173805237,-0.8974313736,2024-06-04 14:06:29.887160
6.927605482,-0.05572152138,-0.2665007114,-1.342151642,2024-06-04 14:06:29.927605
6.968156576,1.092454433,0.3230783939,-0.4820413589,2024-06-04 14:06:29.968157
7.008638451,1.16007781,1.083673954,-1.020173073,2024-06-04 14:06:30.008638
7.049056368,2.125477552,1.168291807,-0.2259378433,2024-06-04 14:06:30.049056
7.089610743,3.309360504,1.20068574,2.38262558,2024-06-04 14:06:30.089611
7.13008392,3.347702265,2.34323287,0.0569858551,2024-06-04 14:06:30.130084
7.170529024,3.516086578,2.076022625,0.5576686859,2024-06-04 14:06:30.170529
7.211013034,4.001239777,-0.1296365261,2.833278656,2024-06-04 14:06:30.211013
7.251535274,1.308533549,-2.125704527,0.105799675,2024-06-04 14:06:30.251535
7.291978972,4.71036005,-0.6012604237,-1.901083469,2024-06-04 14:06:30.291979
7.332452357,0.7900838852,-2.493110418,-1.565628052,2024-06-04 14:06:30.332452
7.373006732,-3.737167835,-2.357691765,-4.058146477,2024-06-04 14:06:30.373007
7.413451107,1.593858719,-0.6839396954,-0.8570537567,2024-06-04 14:06:30.413451
7.453900691,-1.51402235,-1.874484062,-1.782046318,2024-06-04 14:06:30.453901
7.494395847,-0.1909408569,0.3630955219,-4.696668148,2024-06-04 14:06:30.494396
7.534918347,-0.4151087999,-0.3883459568,-2.233082294,2024-06-04 14:06:30.534918
7.575386368,-1.338043451,-0.2750992775,-1.129999161,2024-06-04 14:06:30.575386
7.615880066,0.1073908806,-0.2646172047,-2.858302116,2024-06-04 14:06:30.615880
7.656362305,-1.621595383,-2.489907026,2.514178276,2024-06-04 14:06:30.656362
7.696815899,0.6141366959,-0.134655714,-4.09781456,2024-06-04 14:06:30.696816
7.737383816,-7.001105309,-2.806699753,-4.777693748,2024-06-04 14:06:30.737384
7.777863712,-1.470739365,-4.961841583,-2.711581707,2024-06-04 14:06:30.777864
7.818304545,2.187635422,-5.665346146,-0.7502965927,2024-06-04 14:06:30.818305
7.85884793,1.948515892,-6.874857426,0.4797267914,2024-06-04 14:06:30.858848
7.89928293,2.224458694,-7.629628181,2.221822739,2024-06-04 14:06:30.899283
7.939813451,1.272513866,-8.094394684,3.256170988,2024-06-04 14:06:30.939813
7.980309337,12.62098694,-3.200181961,8.0844841,2024-06-04 14:06:30.980309
8.020777097,16.75865936,4.551609039,5.82144928,2024-06-04 14:06:31.020777
8.061210899,8.412125587,3.921280861,2.057137966,2024-06-04 14:06:31.061211
8.101749909,6.160365105,3.286476612,2.251965284,2024-06-04 14:06:31.101750
8.142214337,6.5850811,1.985677719,3.731153727,2024-06-04 14:06:31.142214
8.182715222,3.016125679,-1.696345329,1.360712409,2024-06-04 14:06:31.182715
8.223182618,-2.439512253,-4.149795532,-0.5903335214,2024-06-04 14:06:31.223183
8.263713868,-1.041327477,-5.131413937,-2.081615448,2024-06-04 14:06:31.263714
8.304133816,-1.052268982,-1.428168297,0.08394575119,2024-06-04 14:06:31.304134
8.344612201,1.933332443,0.267636776,-0.4329349399,2024-06-04 14:06:31.344612
8.385106107,-0.5697345734,-1.446630001,-3.537507534,2024-06-04 14:06:31.385106
8.425610118,-4.779747963,-2.513870716,-3.897254467,2024-06-04 14:06:31.425610
8.466098139,-5.962310791,-2.131340504,-0.7937115431,2024-06-04 14:06:31.466098
8.506568347,-5.518070221,0.9040622711,0.478946805,2024-06-04 14:06:31.506568
8.547074493,-3.226649761,2.398394585,-1.143970251,2024-06-04 14:06:31.547074
8.587594284,-2.643068314,2.219223976,-0.2023469508,2024-06-04 14:06:31.587594
8.628059857,-1.281609535,1.529928684,0.889182806,2024-06-04 14:06:31.628060
8.668558295,2.292019367,1.148794174,1.406509042,2024-06-04 14:06:31.668558
8.709051107,4.575260162,1.35763073,0.4740237892,2024-06-04 14:06:31.709051
8.749538607,3.846745968,-0.7458949089,-1.278234482,2024-06-04 14:06:31.749539
8.78997543,5.160672665,-0.3113546371,-1.060367942,2024-06-04 14:06:31.789975
8.830476316,4.494394302,-3.058028221,-1.913607121,2024-06-04 14:06:31.830476
8.870958712,3.02952528,-0.15072155,0.9474824071,2024-06-04 14:06:31.870959
8.91146767,5.672020912,1.574738026,0.4991053343,2024-06-04 14:06:31.911468
8.951951889,1.596792698,-0.4717941284,1.402532935,2024-06-04 14:06:31.951952
8.99239267,0.6926012039,-0.4269533157,2.090658426,2024-06-04 14:06:31.992393
9.032928816,0.8000593185,0.4755415916,3.325502872,2024-06-04 14:06:32.032929
9.073426159,-1.606151581,0.1395998001,4.312299728,2024-06-04 14:06:32.073426
9.113895899,-2.617659092,-0.4562325478,2.204118967,2024-06-04 14:06:32.113896
9.154370274,-3.901286125,-1.032864571,0.3594934344,2024-06-04 14:06:32.154370
9.194869389,-3.88538599,-1.382094383,-0.3327043355,2024-06-04 14:06:32.194869
9.235336993,-2.934055328,-1.696736336,0.06520459056,2024-06-04 14:06:32.235337
9.275817305,-2.422339439,-2.343505859,-0.1109507382,2024-06-04 14:06:32.275817
9.316303659,-1.778475285,-1.894540787,-0.8778572083,2024-06-04 14:06:32.316304
9.356785899,-0.1921520233,-2.87245369,-1.119920254,2024-06-04 14:06:32.356786
9.397281264,-0.4828920364,-4.076357365,-0.6202454567,2024-06-04 14:06:32.397281
9.437771264,0.4614162445,-1.77391243,2.076847553,2024-06-04 14:06:32.437771
9.478243034,3.793913841,-1.460413933,0.8705823421,2024-06-04 14:06:32.478243
9.51873043,0.07756900787,-3.101264477,-3.100888252,2024-06-04 14:06:32.518730
9.55923168,-4.555469036,-2.591465473,-2.399278641,2024-06-04 14:06:32.559232
9.599731524,-4.108102322,0.5936102867,0.6168903112,2024-06-04 14:06:32.599732
9.640226264,-2.483459473,2.383711576,-0.561694026,2024-06-04 14:06:32.640226
9.68072418,-2.417206764,2.851111412,-0.9579588175,2024-06-04 14:06:32.680724
9.721215222,1.833569527,3.876323462,0.3507691026,2024-06-04 14:06:32.721215
9.76171142,3.421298981,3.378024101,3.064903736,2024-06-04 14:06:32.761711
9.802160482,3.517507553,2.393986702,2.903952837,2024-06-04 14:06:32.802160
9.842687357,6.672154427,1.02538228,5.639997482,2024-06-04 14:06:32.842687
9.883131472,5.541711807,-4.058244705,2.849815369,2024-06-04 14:06:32.883131
9.923621003,3.435752869,-4.926697731,1.692816734,2024-06-04 14:06:32.923621
9.964148191,6.586310863,-2.631856441,3.40295887,2024-06-04 14:06:32.964148
10.00464866,3.826411724,-4.506301403,1.655969143,2024-06-04 14:06:33.004649
10.04506897,0.7705755234,-4.893270493,-1.801277161,2024-06-04 14:06:33.045069
10.08558824,1.176220417,-4.214119434,-1.7439394,2024-06-04 14:06:33.085588
10.12603001,0.5520644188,-3.568247318,-3.507776737,2024-06-04 14:06:33.126030
10.16653152,-1.14837718,-2.635499001,-4.152517796,2024-06-04 14:06:33.166532
10.20705158,-0.8385081291,-2.668951988,-1.661091805,2024-06-04 14:06:33.207052
10.24755012,-1.437979221,-2.326915741,-3.037642956,2024-06-04 14:06:33.247550
10.28798038,-1.057276487,-1.007733583,-4.388174534,2024-06-04 14:06:33.287980
10.32846548,-0.6946957111,-0.7784283161,-2.193315983,2024-06-04 14:06:33.328465
10.3689858,0.1580672264,-0.7317619324,-0.7723369598,2024-06-04 14:06:33.368986
10.40945168,-1.214304447,-1.254009962,-1.023776054,2024-06-04 14:06:33.409452
10.44995918,-1.373220563,-0.2077314854,-0.9825720787,2024-06-04 14:06:33.449959
10.49040736,0.5899100304,0.6135869026,1.299340248,2024-06-04 14:06:33.490407
10.53092392,0.5910861492,1.263341904,0.04056453705,2024-06-04 14:06:33.530924
10.57145668,2.202013493,-0.9126586914,3.062306404,2024-06-04 14:06:33.571457
10.61192569,2.891296148,-2.556337833,4.005600929,2024-06-04 14:06:33.611926
10.65233163,2.637270451,-2.228373766,-1.706109524,2024-06-04 14:06:33.652332
10.69289803,-0.6669253111,-1.809989214,-5.860983849,2024-06-04 14:06:33.692898
10.73338106,-1.844622254,-1.04130888,-3.448521137,2024-06-04 14:06:33.733381
10.77388741,0.4187302589,-0.1465482712,-1.547886372,2024-06-04 14:06:33.773887
10.81431616,-0.3168029785,-0.9555511475,-2.866268158,2024-06-04 14:06:33.814316
10.85482371,-3.566636562,-1.550907135,-3.899394989,2024-06-04 14:06:33.854824
10.89533022,-0.4391598701,0.1934275627,-3.895512342,2024-06-04 14:06:33.895330
10.93577996,0.8971803188,1.418489933,-2.811440945,2024-06-04 14:06:33.935780
10.97628262,-0.004248380661,0.3530654907,1.819543839,2024-06-04 14:06:33.976283
11.01680944,1.41552496,0.8999385834,3.110467911,2024-06-04 14:06:34.016809
11.05723022,0.6307213306,2.252868652,1.957846642,2024-06-04 14:06:34.057230
11.09773574,0.5976130962,1.800195694,2.673930168,2024-06-04 14:06:34.097736
11.13820356,2.692533731,0.5328431129,4.155581474,2024-06-04 14:06:34.138204
11.17871632,-1.373403549,-2.023201466,4.516388416,2024-06-04 14:06:34.178716
11.21917944,-1.546390533,-1.033397675,-0.1321530342,2024-06-04 14:06:34.219179
11.25972168,1.210942268,-0.3424263,-0.3418488503,2024-06-04 14:06:34.259722
11.30014939,-2.143784523,-1.030389786,-2.3422966,2024-06-04 14:06:34.300149
11.34066007,-1.958256245,-1.069303036,-2.529346466,2024-06-04 14:06:34.340660
11.38115152,-0.8062562943,-0.7983746529,-1.066501141,2024-06-04 14:06:34.381152
11.42166507,-0.6157901287,0.1658763885,-1.430855274,2024-06-04 14:06:34.421665
11.46216538,-0.1485438347,1.124736786,-1.064357281,2024-06-04 14:06:34.462165
11.50257173,0.1050972939,0.9531216621,-0.02276802063,2024-06-04 14:06:34.502572
11.54304335,0.2688241005,1.256048679,-0.3269205093,2024-06-04 14:06:34.543043
11.58355043,0.6959762573,1.384512424,0.3863124847,2024-06-04 14:06:34.583550
11.62408267,1.62592268,1.631561756,0.5604424477,2024-06-04 14:06:34.624083
11.66456074,1.972916603,1.44871664,3.219865322,2024-06-04 14:06:34.664561
11.70504231,0.8530173302,-0.4438228607,2.933704376,2024-06-04 14:06:34.705042
11.74550392,2.313519955,-1.30305481,1.274032116,2024-06-04 14:06:34.745504
11.78602767,2.15482235,-1.708783627,-0.06997823715,2024-06-04 14:06:34.786028
11.82650225,0.2028975487,-1.497145891,-2.568850994,2024-06-04 14:06:34.826502
11.8670359,-0.9611928463,-0.9562528133,-2.050386906,2024-06-04 14:06:34.867036
11.90749288,-1.140259504,-0.2290277481,-1.301739216,2024-06-04 14:06:34.907493
11.94795501,0.8606901169,0.2513422966,-0.9505624771,2024-06-04 14:06:34.947955
11.98844559,-0.2693173885,0.1568989754,-1.460010529,2024-06-04 14:06:34.988446
12.02894819,-0.4820201397,0.7250537872,-2.296515465,2024-06-04 14:06:35.028948
12.06939246,0.8988132477,0.7225251198,-1.116477966,2024-06-04 14:06:35.069392
12.10988168,1.100683928,0.7292866707,-0.7517566681,2024-06-04 14:06:35.109882
12.15037215,-1.736077666,0.05381584167,1.260293961,2024-06-04 14:06:35.150372
12.19086225,-3.699081898,0.828836441,-2.289383888,2024-06-04 14:06:35.190862
12.23133876,5.625258446,1.894121647,4.365868568,2024-06-04 14:06:35.231339
12.27186569,0.1360281706,-0.9076988697,5.71157074,2024-06-04 14:06:35.271866
12.31231835,-2.415490627,-1.142587662,-1.737069607,2024-06-04 14:06:35.312318
12.35281658,-3.239934921,-1.62671876,0.06153774261,2024-06-04 14:06:35.352817
12.39331996,-0.1342321634,-0.3190264702,-0.2092056274,2024-06-04 14:06:35.393320
12.4337908,-1.066356778,-0.7936143875,-0.8698663712,2024-06-04 14:06:35.433791
12.4742573,-1.345639467,-1.037657261,-1.609870911,2024-06-04 14:06:35.474257
12.51474402,-0.4930131435,-0.177208662,-2.333361149,2024-06-04 14:06:35.514744
12.55523163,-0.5248558521,0.2719209194,-1.911793232,2024-06-04 14:06:35.555232
12.59572356,-0.6946036816,0.6910512447,-2.588307381,2024-06-04 14:06:35.595724
12.63620913,-0.08928632736,0.7412486076,-1.425999165,2024-06-04 14:06:35.636209
12.67674408,1.097766876,-0.3441061974,1.117023468,2024-06-04 14:06:35.676744
12.71720178,-0.4742715359,-0.498487711,2.776758194,2024-06-04 14:06:35.717202
12.75768507,-0.7646379471,-0.1366140842,3.055368423,2024-06-04 14:06:35.757685
12.79816434,0.7786462307,0.4021954536,2.551691055,2024-06-04 14:06:35.798164
12.83869892,2.655640841,-0.6329789162,3.157363892,2024-06-04 14:06:35.838699
12.87917606,1.922729254,-1.497618437,2.034684181,2024-06-04 14:06:35.879176
12.91965876,3.209247112,-0.6508824825,-1.140902519,2024-06-04 14:06:35.919659
12.96013772,0.1744642258,-1.47156024,-1.79743433,2024-06-04 14:06:35.960138
13.00061012,-2.244338751,0.7584857941,-1.542974472,2024-06-04 14:06:36.000610
13.04110934,0.1609698534,0.8025557995,-1.745818615,2024-06-04 14:06:36.041109
13.08161699,-0.2130446434,0.2788338661,-1.537470341,2024-06-04 14:06:36.081617
13.12207902,0.6992075443,1.027785063,-1.376361847,2024-06-04 14:06:36.122079
13.16258663,1.587162256,1.677363634,-0.7740869522,2024-06-04 14:06:36.162587
13.20302048,0.3331146836,-0.01939702034,0.5252037048,2024-06-04 14:06:36.203020
13.24358298,0.3944285512,-0.8485786915,1.102887154,2024-06-04 14:06:36.243583
13.28399382,-0.4913046956,0.2348308563,1.346556664,2024-06-04 14:06:36.283994
13.32451012,0.4747545719,2.18307209,-2.395747662,2024-06-04 14:06:36.324510
13.36498382,0.6092870235,1.191204548,-0.2494401932,2024-06-04 14:06:36.364984
13.40548668,-2.914348602,-1.828830957,3.552226067,2024-06-04 14:06:36.405487
13.44596678,-0.6025401354,-0.4010944366,2.342401505,2024-06-04 14:06:36.445967
13.48642012,0.07274925709,-0.6323969364,2.038097382,2024-06-04 14:06:36.486420
13.52692199,-1.090479255,-1.040774822,0.004081726074,2024-06-04 14:06:36.526922
13.56742663,-1.067400694,-0.9393389225,-2.024331093,2024-06-04 14:06:36.567427
13.60791803,-1.058409452,-1.454596043,-1.819039345,2024-06-04 14:06:36.607918
13.64837694,-1.959155798,-1.330070019,-1.594764233,2024-06-04 14:06:36.648377
13.6889046,-1.523507953,-0.1302375793,-0.7697820663,2024-06-04 14:06:36.688905
13.72937991,-0.3514597416,1.191017151,-0.4017715454,2024-06-04 14:06:36.729380
13.76983486,0.887663126,1.089278221,1.004335403,2024-06-04 14:06:36.769835
13.81032465,0.4806642532,0.4717955589,1.540218353,2024-06-04 14:06:36.810325
13.85083986,-0.4304075241,0.1241950989,1.545705795,2024-06-04 14:06:36.850840
13.89132746,-0.0703151226,0.5580663681,1.129862785,2024-06-04 14:06:36.891327
13.93182793,0.7416629791,-0.9253687859,2.502968788,2024-06-04 14:06:36.931828
13.97226522,3.411525965,-1.178989172,4.005555153,2024-06-04 14:06:36.972265
14.01281658,3.111715317,-1.725707531,0.725522995,2024-06-04 14:06:37.012817
14.05329777,-1.048944354,-1.798842907,-4.235844135,2024-06-04 14:06:37.053298
14.09377626,-1.049355745,0.01961374283,-3.477023125,2024-06-04 14:06:37.093776
14.13422194,1.169739842,0.518348217,-2.521167755,2024-06-04 14:06:37.134222
14.17471595,-0.01977217197,-0.4038677216,-1.826926708,2024-06-04 14:06:37.174716
14.21521762,-0.5497971773,-0.2883768082,-1.373602867,2024-06-04 14:06:37.215218
14.25566475,0.1533352137,0.7560176849,-2.106444359,2024-06-04 14:06:37.255665
14.29617725,0.1237522364,0.9710211754,-1.39504385,2024-06-04 14:06:37.296177
14.3366548,-0.2421889305,0.2738895416,0.05160808563,2024-06-04 14:06:37.336655
14.37716319,-0.01169121265,-0.3885951042,1.085486412,2024-06-04 14:06:37.377163
14.41763979,-1.570549011,0.6071014404,0.7581825256,2024-06-04 14:06:37.417640
14.45813026,0.5979003906,2.107982159,0.6217927933,2024-06-04 14:06:37.458130
14.49858088,0.3087098598,-0.2607645988,4.726959229,2024-06-04 14:06:37.498581
14.53910583,-1.262100339,-1.153080463,2.640097618,2024-06-04 14:06:37.539106
14.57956473,-1.699114919,-0.7039203644,0.3165330887,2024-06-04 14:06:37.579565
14.62008651,-0.3871059418,-0.5904364586,0.8337125778,2024-06-04 14:06:37.620087
14.6605952,-0.9394547939,-0.8339934349,-0.8076238632,2024-06-04 14:06:37.660595
14.70107078,-0.8807784915,-1.184388876,-1.772967339,2024-06-04 14:06:37.701071
14.7415702,-1.008621931,-1.522964478,-0.7635712624,2024-06-04 14:06:37.741570
14.78206473,-0.3650302887,-0.6153459549,-1.633600235,2024-06-04 14:06:37.782065
14.82249202,0.03341376781,0.3441252708,-1.411047935,2024-06-04 14:06:37.822492
14.86295343,1.436165929,1.39031601,0.5034713745,2024-06-04 14:06:37.862953
14.90343729,-0.3572719097,0.2596168518,0.6064357758,2024-06-04 14:06:37.903437
14.94399526,-0.6339230537,0.3361492157,1.827911377,2024-06-04 14:06:37.943995
14.98445703,0.7269320488,1.264485836,0.751657486,2024-06-04 14:06:37.984457
15.02495942,-0.08385360241,0.03294610977,0.5860309601,2024-06-04 14:06:38.024959
15.0654313,1.406836152,-0.9511804581,6.216905594,2024-06-04 14:06:38.065431
15.10590812,3.405581951,-0.9902696609,3.499933243,2024-06-04 14:06:38.105908
15.14640781,2.302767754,-1.663985252,-1.328472614,2024-06-04 14:06:38.146408
15.1869076,-0.5790880919,-1.402302742,-4.420266151,2024-06-04 14:06:38.186908
15.22736348,-0.8185332417,-0.02165365219,-2.985717773,2024-06-04 14:06:38.227363
15.26789833,0.7280348539,0.4758253098,-1.737210274,2024-06-04 14:06:38.267898
15.3083427,0.3889836073,-0.08110284805,-1.276920319,2024-06-04 14:06:38.308343
15.34882968,-0.0573810339,0.2672080994,-2.838347912,2024-06-04 14:06:38.348830
15.38932041,0.2452598214,1.064354897,-1.122194767,2024-06-04 14:06:38.389320
15.42980156,0.1349891424,1.098855495,-1.330495834,2024-06-04 14:06:38.429802
15.47026859,-0.7874779105,-0.4305200577,0.8095226288,2024-06-04 14:06:38.470269
15.51074843,-0.9139373302,-0.3663134575,0.4842948914,2024-06-04 14:06:38.510748
15.55127114,0.3895871639,2.326408386,-1.692567348,2024-06-04 14:06:38.551271
15.59179926,-0.2431173921,1.603783607,4.492105484,2024-06-04 14:06:38.591799
15.63226791,-1.214719296,-1.319653034,5.999155045,2024-06-04 14:06:38.632268
15.6727214,-0.776751399,-1.133645058,1.987103462,2024-06-04 14:06:38.672721
15.71324452,-1.699584961,-1.502295494,-0.9708862305,2024-06-04 14:06:38.713245
15.75372828,-0.2193963826,-0.9632411003,-1.173944473,2024-06-04 14:06:38.753728
15.79418952,-0.8206861615,-0.7821471691,-2.23045969,2024-06-04 14:06:38.794190
15.83465062,-1.386808395,-1.307845592,-0.6025047302,2024-06-04 14:06:38.834651
15.87518302,-0.7238978148,-1.33758378,-0.1930007935,2024-06-04 14:06:38.875183
15.9156765,-0.3288379908,-0.3755073547,-0.5700798035,2024-06-04 14:06:38.915676
15.95614729,-0.04610002041,0.5530834198,-0.3453559875,2024-06-04 14:06:38.956147
15.99664598,1.067538023,0.5566926003,-0.04165172577,2024-06-04 14:06:38.996646
16.03711223,1.029889107,-0.3932723999,-0.4060192108,2024-06-04 14:06:39.037112
16.07761067,-0.5584415793,-0.3022389412,0.1962356567,2024-06-04 14:06:39.077611
16.11809583,-0.6524230242,1.044375896,0.857378006,2024-06-04 14:06:39.118096
16.15857624,1.573402643,1.149938583,1.755707741,2024-06-04 14:06:39.158576
16.19906197,1.025145292,1.337718964,1.801379204,2024-06-04 14:06:39.199062
16.23954723,1.745298862,0.07086467743,-0.1517190933,2024-06-04 14:06:39.239547
16.28001916,2.331798077,-0.3664536476,3.683914185,2024-06-04 14:06:39.280019
16.32050776,-0.6414132118,-1.387603283,-3.454162598,2024-06-04 14:06:39.320508
16.36098182,-0.959094882,-0.4473500252,0.03271198273,2024-06-04 14:06:39.360982
16.40149161,-1.252584934,-0.1652703285,-0.9044389725,2024-06-04 14:06:39.401492
16.44201114,0.2532913685,0.3386969566,-1.946285248,2024-06-04 14:06:39.442011
16.48243926,-0.1260877848,-0.02780342102,-1.292205334,2024-06-04 14:06:39.482439
16.52295239,-0.02627807856,0.1313042641,-0.6438789368,2024-06-04 14:06:39.522952
16.56348567,0.3088794351,0.292432785,-1.573602676,2024-06-04 14:06:39.563486
16.60389182,-1.068885088,-0.6462488174,-0.1997318268,2024-06-04 14:06:39.603892
16.64438484,-1.032498717,-0.463953495,0.05253791809,2024-06-04 14:06:39.644385
16.68492828,1.387029648,2.65588665,-1.530992985,2024-06-04 14:06:39.684928
16.72537739,-0.6225696802,0.9388837814,4.188101768,2024-06-04 14:06:39.725377
16.76590265,-1.467743039,-1.003757954,4.180900574,2024-06-04 14:06:39.765903
16.8063402,-0.4987914562,-0.7281751633,2.297880173,2024-06-04 14:06:39.806340
16.84684749,-0.5734832287,-0.8691170216,1.619243622,2024-06-04 14:06:39.846847
16.88737072,-0.6045820713,-0.9015011787,1.255440712,2024-06-04 14:06:39.887371
16.92781932,-0.2966672182,-0.7462086678,-3.085878849,2024-06-04 14:06:39.927819
16.96830609,-0.5921025276,-1.731553555,-1.467915535,2024-06-04 14:06:39.968306
17.00883526,-0.3482904136,-1.507525444,-0.7558603287,2024-06-04 14:06:40.008835
17.04925176,-0.9874495268,-0.01438522339,-2.63142395,2024-06-04 14:06:40.049252
17.08973546,0.9394834042,1.265431404,-0.6155996323,2024-06-04 14:06:40.089735
17.13023713,-0.01317602396,0.4292702675,0.05969715118,2024-06-04 14:06:40.130237
17.1707077,-0.7059234381,-0.03359222412,-0.06620407104,2024-06-04 14:06:40.170708
17.21122473,-0.3324500322,0.3752756119,2.014930725,2024-06-04 14:06:40.211225
17.25173744,0.2054626942,1.162873745,-0.2672023773,2024-06-04 14:06:40.251737
17.29217369,0.1982668638,0.3470323086,4.480114937,2024-06-04 14:06:40.292174
17.33263015,1.069483995,-1.61998415,5.538058281,2024-06-04 14:06:40.332630
17.37320796,3.521114349,-0.07597255707,-2.091069221,2024-06-04 14:06:40.373208
17.41368255,0.9891009331,-0.7241077423,-7.211625099,2024-06-04 14:06:40.413683
17.45416942,-1.22419703,1.206073046,-6.275076866,2024-06-04 14:06:40.454169
17.49459984,-1.739871025,0.5880873203,-1.62865448,2024-06-04 14:06:40.494600
17.5351138,-2.184716702,-0.7194782495,4.02673912,2024-06-04 14:06:40.535114
17.57561072,0.2739434242,0.5243054628,2.799165726,2024-06-04 14:06:40.575611
17.61611468,3.060961962,-0.250964433,6.794937134,2024-06-04 14:06:40.616115
17.65657067,2.074559927,-4.117870331,5.269491196,2024-06-04 14:06:40.656571
17.69707749,1.983226418,-4.551307678,3.023714066,2024-06-04 14:06:40.697077
17.73753958,0.7046124935,-3.594230175,-4.98043108,2024-06-04 14:06:40.737540
17.77806937,1.581113815,0.8835391998,-4.3589077,2024-06-04 14:06:40.778069
17.81853114,0.6531854868,1.62019968,-5.63009882,2024-06-04 14:06:40.818531
17.85901265,-2.18715024,-1.10226655,0.107378006,2024-06-04 14:06:40.859013
17.8995027,-0.5889194012,-0.8358695507,3.463677406,2024-06-04 14:06:40.899503
17.93999531,-0.949137032,-0.11297369,-0.7195529938,2024-06-04 14:06:40.939995
17.98046869,-1.063796997,-0.9010779858,0.9911251068,2024-06-04 14:06:40.980469
18.02098723,-0.2729687095,-0.7244412899,0.2800207138,2024-06-04 14:06:41.020987
18.0614601,-0.6845950484,-1.447969913,-0.6425628662,2024-06-04 14:06:41.061460
18.10196124,-0.9436659813,-1.554645538,-0.9741849899,2024-06-04 14:06:41.101961
18.14238807,-0.4674566984,-0.1929779053,-1.809626579,2024-06-04 14:06:41.142388
18.18294578,-0.7476893663,0.3546290398,-1.153232098,2024-06-04 14:06:41.182946
18.223419,0.004619121552,0.7200303078,0.123090744,2024-06-04 14:06:41.223419
18.26389078,0.3123604059,1.046956539,-1.568257332,2024-06-04 14:06:41.263891
18.30434515,-0.9477496147,0.09205102921,1.021138191,2024-06-04 14:06:41.304345
18.34483859,-0.4786230326,1.600827217,0.7709751129,2024-06-04 14:06:41.344839
18.38533911,0.6846917868,2.017148972,0.5420436859,2024-06-04 14:06:41.385339
18.42582374,-0.1456022263,-1.511315107,6.309421539,2024-06-04 14:06:41.425824
18.46629822,2.615455151,-1.44485116,4.923898697,2024-06-04 14:06:41.466298
18.50678072,2.594818592,-1.391377687,-0.2758636475,2024-06-04 14:06:41.506781
18.54727989,0.2725515366,-1.539808989,-3.749595642,2024-06-04 14:06:41.547280
18.58777156,-0.7150039673,-0.7071409225,-2.953799725,2024-06-04 14:06:41.587772
18.62824151,-0.6862607598,-0.008403778076,-1.818840981,2024-06-04 14:06:41.628242
18.66875093,0.985834837,0.1561098099,-0.5621328354,2024-06-04 14:06:41.668751
18.70924833,-0.007983565331,-0.11830616,-1.030667305,2024-06-04 14:06:41.709248
18.74970494,0.6874995232,0.5404005051,-2.384585381,2024-06-04 14:06:41.749705
18.79018776,0.9104623795,0.7776474953,-1.557257652,2024-06-04 14:06:41.790188
18.83066682,0.4285045862,0.5560932159,0.5746116638,2024-06-04 14:06:41.830667
18.87116239,0.5821089149,0.4615530968,-0.1415939331,2024-06-04 14:06:41.871162
18.91168458,-0.2943321168,0.1608586311,1.099490166,2024-06-04 14:06:41.911685
18.9521927,-0.7411078811,1.807142258,-2.474625587,2024-06-04 14:06:41.952193
18.9926501,0.7155080438,1.203861713,2.286194801,2024-06-04 14:06:41.992650
19.03313942,-0.2784164846,-1.469974279,7.10255146,2024-06-04 14:06:42.033139
19.07360874,-1.090279937,-1.685754299,2.174544334,2024-06-04 14:06:42.073609
19.1141076,-1.158395052,-1.646439075,0.07341003418,2024-06-04 14:06:42.114108
19.15457958,0.04411298037,-0.717895031,-1.766015053,2024-06-04 14:06:42.154580
19.19506854,-0.5760681629,-0.555719614,-1.994052887,2024-06-04 14:06:42.195069
19.23552333,-0.8954967856,-1.05292201,-0.5706014633,2024-06-04 14:06:42.235523
19.27602452,-0.3484843969,-0.3549985886,-0.9553494453,2024-06-04 14:06:42.276025
19.31651526,0.4256409407,0.567085743,-1.479336262,2024-06-04 14:06:42.316515
19.35700005,-0.04495131969,0.6442303658,-1.280607224,2024-06-04 14:06:42.357000
19.3974915,0.2307784557,0.8396258354,-0.7981915474,2024-06-04 14:06:42.397492
19.43797916,0.2614089251,0.6397423744,-0.3693304062,2024-06-04 14:06:42.437979
19.47845562,0.4669975042,0.4583249092,0.9685621262,2024-06-04 14:06:42.478456
19.51895286,-0.2079344988,0.5711407661,2.725672722,2024-06-04 14:06:42.518953
19.5594276,0.8489831686,1.218732357,0.3867511749,2024-06-04 14:06:42.559428
19.59991255,-0.4813001156,-0.363902092,1.266401291,2024-06-04 14:06:42.599913
19.64041911,0.03190219402,-2.19119525,6.12195015,2024-06-04 14:06:42.640419
19.68093677,2.66576767,-1.801553249,2.639772415,2024-06-04 14:06:42.680937
19.72142338,0.8675192595,-1.240537643,-4.02905941,2024-06-04 14:06:42.721423
19.761909,-2.004650593,-1.06027317,-4.875016689,2024-06-04 14:06:42.761909
19.80235661,-1.312700987,-0.3879785538,-2.103440762,2024-06-04 14:06:42.802357
19.84286427,0.7392600775,0.3307642937,-0.9169216156,2024-06-04 14:06:42.842864
19.88334895,0.4691426754,0.5189294815,-1.402950287,2024-06-04 14:06:42.883349
19.92385536,-0.5894209146,0.518433094,-1.935696602,2024-06-04 14:06:42.923855
19.96430437,0.0455518961,0.8838062286,-1.330739498,2024-06-04 14:06:42.964304
20.00483426,0.6214236617,0.7954335213,0.2898683548,2024-06-04 14:06:43.004834
20.04526296,0.8149776459,-0.006495952606,0.4793872833,2024-06-04 14:06:43.045263
20.08576572,-0.5954908133,0.07861280441,0.6788778305,2024-06-04 14:06:43.085766
20.12628328,1.046499014,2.090044975,0.608259201,2024-06-04 14:06:43.126283
20.16676223,-0.05670833588,0.2492723465,2.396388054,2024-06-04 14:06:43.166762
20.20722718,-1.236807942,-1.564285517,5.035951614,2024-06-04 14:06:43.207227
20.24770796,-0.2741667032,-0.5856342316,1.265469551,2024-06-04 14:06:43.247708
20.2882314,-1.117962956,-0.8864407539,0.2879047394,2024-06-04 14:06:43.288231
20.32873005,-0.473302722,-0.7432234287,0.026014328,2024-06-04 14:06:43.328730
20.3692065,-0.1479773521,-0.5543866158,-0.5443153381,2024-06-04 14:06:43.369207
20.40970677,-0.9715300202,-1.287018061,-1.215602875,2024-06-04 14:06:43.409707
20.45018432,-1.290253282,-1.255445004,-1.530213356,2024-06-04 14:06:43.450184
20.49066161,-0.2273184061,0.2762246132,-1.853547096,2024-06-04 14:06:43.490662
20.53111052,0.4024859667,0.8460216522,-0.9630651474,2024-06-04 14:06:43.531111
20.57161692,0.1877690554,0.5893287659,-0.7373843193,2024-06-04 14:06:43.571617
20.6120877,0.1059169769,-0.05781745911,1.622089386,2024-06-04 14:06:43.612088
20.6525688,-0.9848502874,-0.2572302818,1.705073357,2024-06-04 14:06:43.652569
20.69307104,0.1824010611,-0.2813196182,2.903044224,2024-06-04 14:06:43.693071
20.73360276,2.898272753,1.64552021,0.7871279716,2024-06-04 14:06:43.733603
20.77409776,-0.7642879486,-0.4127717018,-0.7822337151,2024-06-04 14:06:43.774098
20.81452869,-0.04551267624,-1.374351501,2.940873146,2024-06-04 14:06:43.814529
20.85501369,1.420738935,-1.126648426,-2.782936573,2024-06-04 14:06:43.855014
20.8955101,-0.9136254787,-1.716579914,-3.265573502,2024-06-04 14:06:43.895510
20.93598833,-3.00903511,-1.09964776,-4.279232025,2024-06-04 14:06:43.935988
20.976529,-0.9374818802,0.4480996132,-3.334809303,2024-06-04 14:06:43.976529
21.01702062,-0.4876589775,0.4991929531,-2.306718349,2024-06-04 14:06:44.017021
21.05742895,-2.004478931,-1.180223942,-2.51335144,2024-06-04 14:06:44.057429
21.09792869,-0.5996243954,-1.131515026,-0.2928848267,2024-06-04 14:06:44.097929
21.1384488,3.587590218,3.140347242,1.514375687,2024-06-04 14:06:44.138449
21.17889984,3.565558672,-0.1350398064,2.979438782,2024-06-04 14:06:44.178900
21.21941765,0.4157466888,0.2608444691,5.81742382,2024-06-04 14:06:44.219418
21.25990385,-2.94102025,1.880489349,2.239210129,2024-06-04 14:06:44.259904
21.30045755,1.14274478,0.7844791412,2.419093132,2024-06-04 14:06:44.300458
21.34082369,-0.1474126279,-0.1334059238,5.320836067,2024-06-04 14:06:44.340824
21.38134078,0.3256034255,-1.42812109,5.502916336,2024-06-04 14:06:44.381341
21.42177109,-0.2828637362,-3.032050848,2.042346001,2024-06-04 14:06:44.421771
21.46234614,1.221125126,-1.050958633,-3.858948708,2024-06-04 14:06:44.462346
21.50278645,-1.688776374,-1.068309784,-3.203626633,2024-06-04 14:06:44.502786
21.54328963,-0.7272485495,-1.808777571,-4.709321022,2024-06-04 14:06:44.543290
21.58382369,0.2628036737,-0.657687664,-0.8018341064,2024-06-04 14:06:44.583824
21.62425291,0.7720332146,-0.9049129486,0.766210556,2024-06-04 14:06:44.624253
21.66476036,0.8379973173,0.07514381409,-0.5218625069,2024-06-04 14:06:44.664760
21.70523968,0.130636096,0.01415920258,-2.803198814,2024-06-04 14:06:44.705240
21.74569348,-0.2034351826,-0.990521431,3.343652248,2024-06-04 14:06:44.745693
21.78621578,0.6334390044,1.230074406,1.93904686,2024-06-04 14:06:44.786216
21.82670317,3.121897221,2.350349903,0.5334415436,2024-06-04 14:06:44.826703
21.86719968,-1.322150469,0.1340360641,1.835561275,2024-06-04 14:06:44.867200
21.90765317,-0.5990197659,1.029215813,-0.3116970062,2024-06-04 14:06:44.907653
21.94815723,1.192070246,-0.1592831612,1.775283813,2024-06-04 14:06:44.948157
21.98867671,0.2630940676,-0.7207226753,1.58343029,2024-06-04 14:06:44.988677
22.02913499,0.0817322731,0.4525847435,-4.37055397,2024-06-04 14:06:45.029135
22.06963057,0.00396323204,0.5025134087,-2.640822411,2024-06-04 14:06:45.069631
22.1101127,-0.7255613804,-0.2298326492,-1.613797188,2024-06-04 14:06:45.110113
22.15057958,-1.675724149,0.01106500626,-3.11495924,2024-06-04 14:06:45.150580
22.19106052,-1.425291419,1.027563095,-1.841544628,2024-06-04 14:06:45.191061
22.23151999,-2.800495386,0.3737635612,-0.9407596588,2024-06-04 14:06:45.231520
22.27200624,-4.687924385,0.9548168182,2.963803291,2024-06-04 14:06:45.272006
22.3125263,-3.068234921,-0.4467135668,0.308177948,2024-06-04 14:06:45.312526
22.35300984,-0.1287136078,-1.824112415,3.068334579,2024-06-04 14:06:45.353010
22.39350901,2.799466133,-3.46158123,13.53206921,2024-06-04 14:06:45.393509
22.43401213,3.476370096,-2.948379517,4.116140366,2024-06-04 14:06:45.434012
22.47446843,-1.226446867,-2.395926952,0.6020174026,2024-06-04 14:06:45.474468
22.51493901,-0.2452622652,-2.621764183,-3.026053429,2024-06-04 14:06:45.514939
22.55543739,0.2051301003,-0.5364122391,-2.544534206,2024-06-04 14:06:45.555437
22.59595718,-0.05414867401,-0.9858806133,-2.577065468,2024-06-04 14:06:45.595957
22.63641036,-0.6543204784,-2.018164873,-0.773270607,2024-06-04 14:06:45.636410
22.67690426,-0.2413846254,-1.388446808,-0.846496582,2024-06-04 14:06:45.676904
22.71738328,-0.1135329008,-0.2740983963,-1.510711193,2024-06-04 14:06:45.717383
22.75787635,-0.6946591139,-0.6172127724,-0.4774909019,2024-06-04 14:06:45.757876
22.7984038,0.4723367691,-0.2192544937,-0.4473028183,2024-06-04 14:06:45.798404
22.83887791,0.2442688942,0.04128980637,-0.6765232086,2024-06-04 14:06:45.838878
22.87933374,-0.9747211933,-0.7971587181,0.7325921059,2024-06-04 14:06:45.879334
22.91982999,0.2304360867,1.012352943,-2.789212704,2024-06-04 14:06:45.919830
22.96031265,-0.6508173943,0.6968727112,-2.329209805,2024-06-04 14:06:45.960313
23.00081828,3.935724258,0.2937855721,6.799599648,2024-06-04 14:06:46.000818
23.04131776,2.958434582,-0.9681334496,3.215591431,2024-06-04 14:06:46.041318
23.08178755,-0.1921052933,-1.90631938,-1.731377125,2024-06-04 14:06:46.081788
23.1222489,-1.177974939,-1.536243677,-2.230728149,2024-06-04 14:06:46.122249
23.16272614,-0.3528684378,0.178937912,-2.074272156,2024-06-04 14:06:46.162726
23.20322911,0.3303086758,0.1198334694,-0.5191364288,2024-06-04 14:06:46.203229
23.24372781,0.6095448732,-0.03866958618,0.09408473969,2024-06-04 14:06:46.243728
23.28419213,0.2312396765,0.1345710754,-2.241731644,2024-06-04 14:06:46.284192
23.32470328,0.3210449219,0.3685202599,-1.4817276,2024-06-04 14:06:46.324703
23.36519151,0.5496919155,0.5921554565,-0.79733181,2024-06-04 14:06:46.365192
23.40565609,0.5162597895,0.2651104927,0.3216018677,2024-06-04 14:06:46.405656
23.44615124,0.056442976,0.2158088684,1.440578461,2024-06-04 14:06:46.446151
23.4866463,0.001966834068,1.767794132,-1.538249016,2024-06-04 14:06:46.486646
23.52710395,0.6316742897,1.873639584,0.4698190689,2024-06-04 14:06:46.527104
23.56762119,-0.8241075873,-0.6912479401,4.118998528,2024-06-04 14:06:46.567621
23.60814947,-1.171698093,-0.5442457199,1.956651688,2024-06-04 14:06:46.608149
23.64864281,-0.6465204954,-0.709826231,2.270054817,2024-06-04 14:06:46.648643
23.68910963,0.04214525223,-1.067241907,1.16682148,2024-06-04 14:06:46.689110
23.72955713,-1.238066792,-0.8936715126,-1.476194382,2024-06-04 14:06:46.729557
23.77001645,-1.487445712,-1.024127245,-1.966004372,2024-06-04 14:06:46.770016
23.8105138,-0.914711833,-0.4192252159,-1.945668221,2024-06-04 14:06:46.810514
23.85098494,1.046835542,0.2462968826,-0.3231468201,2024-06-04 14:06:46.850985
23.89146656,-0.9573138952,-0.3845825195,-1.490551949,2024-06-04 14:06:46.891467
23.93195786,0.1150324345,0.6762075424,-0.4555473328,2024-06-04 14:06:46.931958
23.97245781,-0.3071913719,-0.4544262886,0.2040643692,2024-06-04 14:06:46.972458
24.01296916,-0.9988916516,-0.01153898239,-0.4908437729,2024-06-04 14:06:47.012969
24.05345281,-0.7834267616,0.3696637154,2.006979942,2024-06-04 14:06:47.053453
24.09393614,1.069587708,1.169743538,0.2838973999,2024-06-04 14:06:47.093936
24.13446682,-0.9415296316,0.5580854416,0.8195009232,2024-06-04 14:06:47.134467
24.17489838,1.013551712,-0.9479384422,4.893331528,2024-06-04 14:06:47.174898
24.21538156,2.372997999,-1.981607199,5.48386097,2024-06-04 14:06:47.215382
24.25589822,1.884986877,-1.923903942,0.4674477577,2024-06-04 14:06:47.255898
24.29635036,-1.221898913,-0.9610056877,-3.684216499,2024-06-04 14:06:47.296350
24.33687098,-1.860160947,-0.004347801208,-2.654995918,2024-06-04 14:06:47.336871
24.37734468,-0.5061733723,0.252102375,-0.9468097687,2024-06-04 14:06:47.377345
24.41782953,-1.61226511,-0.7939686775,-0.0296087265,2024-06-04 14:06:47.417830
24.45836499,0.1698768139,0.1486473083,-1.468162537,2024-06-04 14:06:47.458365
24.49879765,-0.4473474026,-0.1669192314,-1.652439117,2024-06-04 14:06:47.498798
24.53927739,-0.9776152372,0.2209396362,-1.859838486,2024-06-04 14:06:47.539277
24.57983015,-0.9024143815,-0.232026577,-0.6077370644,2024-06-04 14:06:47.579830
24.62029786,2.269686222,0.8234829903,-0.09456634521,2024-06-04 14:06:47.620298
24.66077281,-0.9966286421,0.9321556091,-1.846169472,2024-06-04 14:06:47.660773
24.70120968,0.1487402916,2.253241301,-2.669220924,2024-06-04 14:06:47.701210
24.74168432,3.334240437,0.2100703716,10.89301968,2024-06-04 14:06:47.741684
24.78220874,-1.862511635,-0.5599300861,1.406477928,2024-06-04 14:06:47.782209
24.82268598,-1.354038715,-0.427077055,0.4223899841,2024-06-04 14:06:47.822686
24.86317213,-0.5041511059,-0.7708566189,-0.02538204193,2024-06-04 14:06:47.863172
24.90368447,-0.8811646104,-0.7302799225,-0.09969139099,2024-06-04 14:06:47.903684
24.94417192,-0.1747757196,-0.7558784485,-0.6330375671,2024-06-04 14:06:47.944172
24.98466124,-0.333948493,-0.2953293324,-1.396500111,2024-06-04 14:06:47.984661
25.02514723,-0.4879279137,-0.04620742798,-1.202729702,2024-06-04 14:06:48.025147
25.06561791,-0.2688918114,0.6021671295,-1.521997929,2024-06-04 14:06:48.065618
25.10609333,-0.3710505962,0.6579465866,-0.8060255051,2024-06-04 14:06:48.106093
25.14661296,-0.687412262,0.3588547707,0.0089635849,2024-06-04 14:06:48.146613
25.18706145,-0.4916112423,0.7849607468,0.3243103027,2024-06-04 14:06:48.187061
25.22754171,-0.4758915901,0.830145359,1.17423439,2024-06-04 14:06:48.227542
25.26806973,0.8136208057,1.480106831,0.05514812469,2024-06-04 14:06:48.268070
25.30852536,-0.06363177299,0.723628521,1.721227646,2024-06-04 14:06:48.308525
25.34904124,0.855297327,-0.9852333069,1.746851921,2024-06-04 14:06:48.349041
25.38950182,2.11200428,-0.5165379047,-0.1914157867,2024-06-04 14:06:48.389502
25.43005822,1.697790384,-1.176342964,0.2468214035,2024-06-04 14:06:48.430058
25.4705663,0.5269258022,-1.276858091,-0.4508323669,2024-06-04 14:06:48.470566
25.5109702,-0.08503270149,-1.059463024,-0.8194050789,2024-06-04 14:06:48.510970
25.5514763,0.657356739,-0.6217136383,-1.523563385,2024-06-04 14:06:48.551476
25.59196328,0.5914070606,-0.2223608494,-1.478188515,2024-06-04 14:06:48.591963
25.6324414,0.7041805983,-0.07590103149,-0.3339185715,2024-06-04 14:06:48.632441
25.67291473,0.3085095882,-0.02729654312,-0.452922821,2024-06-04 14:06:48.672915
25.71342291,-0.03032064438,0.5575499535,-0.9076542854,2024-06-04 14:06:48.713423
25.75392255,-0.05470979214,0.3559527397,-0.8111433983,2024-06-04 14:06:48.753923
25.79437171,0.2430950403,0.5238280296,-0.148150444,2024-06-04 14:06:48.794372
25.83486921,0.2862868309,0.4932971001,0.2369737625,2024-06-04 14:06:48.834869
25.87534223,-0.3526017964,0.03180599213,2.0778265,2024-06-04 14:06:48.875342
25.91585536,-2.073105097,-0.468265295,3.424880981,2024-06-04 14:06:48.915855
25.95636661,-1.965116024,-0.6574485302,1.734687805,2024-06-04 14:06:48.956367
25.99680572,-1.411066294,-0.8573794365,-0.02114963531,2024-06-04 14:06:48.996806
26.03728286,-1.457767248,-1.331783295,0.01222515106,2024-06-04 14:06:49.037283
26.07776395,-0.1687452197,-1.006705761,-0.6706628799,2024-06-04 14:06:49.077764
26.11826426,0.02835166454,-0.3332810402,-1.067941189,2024-06-04 14:06:49.118264
26.15877463,-0.4539566636,0.265586853,-1.115791798,2024-06-04 14:06:49.158775
26.19925119,-0.2606521845,0.5554733276,-1.734015465,2024-06-04 14:06:49.199251
26.23973083,0.09121739864,0.1640889645,-1.677177906,2024-06-04 14:06:49.239731
26.28026562,0.050167799,0.5644729137,-1.794873714,2024-06-04 14:06:49.280266
26.32076307,0.4384080172,0.6858778,-0.6173706055,2024-06-04 14:06:49.320763
26.36117374,0.7142238617,0.593993187,0.1993694305,2024-06-04 14:06:49.361174
26.40163359,1.239222884,0.6705200672,0.8000545502,2024-06-04 14:06:49.401634
26.44212739,1.191686511,1.096571207,1.301971436,2024-06-04 14:06:49.442127
26.4826176,-0.03020817041,-0.1883027554,3.551400185,2024-06-04 14:06:49.482618
26.52312708,0.4330384731,-0.6213693619,1.651423454,2024-06-04 14:06:49.523127
26.56362161,1.72315383,-0.8579118252,0.1621046066,2024-06-04 14:06:49.563622
26.60408619,1.173434615,-1.502581716,0.7517976761,2024-06-04 14:06:49.604086
26.6446239,0.6897424459,-1.834017277,0.8414068222,2024-06-04 14:06:49.644624
26.68509276,-0.2367425561,-0.7576127052,-0.3302755356,2024-06-04 14:06:49.685093
26.72555369,-0.4891349077,-0.4973313808,-0.4584350586,2024-06-04 14:06:49.725554
26.76605656,0.005922734737,-0.1879785061,-1.327784538,2024-06-04 14:06:49.766057
26.80658255,1.060474038,-0.1560761929,-2.786417007,2024-06-04 14:06:49.806583
26.8470413,0.3743541241,0.2340240479,-2.551962852,2024-06-04 14:06:49.847041
26.88749822,0.5222654939,0.4443798065,-1.597441673,2024-06-04 14:06:49.887498
26.92798499,0.4869027138,0.4716567993,-0.3707990646,2024-06-04 14:06:49.927985
26.96851817,-1.115481615,-0.4411771297,0.01539039612,2024-06-04 14:06:49.968518
27.00900874,-0.3945589066,0.1025896072,0.4699440002,2024-06-04 14:06:50.009009
27.04948671,-1.536502123,1.24772501,0.694196701,2024-06-04 14:06:50.049487
27.08993026,-2.108894825,1.703396559,2.825106621,2024-06-04 14:06:50.089930
27.13042937,-1.671376228,0.7507925034,3.271852493,2024-06-04 14:06:50.130429
27.17089619,-0.06870532036,-1.044593573,0.2331342697,2024-06-04 14:06:50.170896
27.21136843,-0.5256550312,-2.66227293,-4.659403801,2024-06-04 14:06:50.211368
27.25185515,3.334187984,-3.121032476,-5.824579239,2024-06-04 14:06:50.251855
27.29236161,4.347655773,-1.931583405,-1.696424484,2024-06-04 14:06:50.292362
27.33286385,6.716295719,-2.944158077,-2.072797775,2024-06-04 14:06:50.332864
27.37333067,6.862519264,-2.781204462,-5.666307926,2024-06-04 14:06:50.373331
27.41382739,-1.196371555,-4.458705425,-1.176896572,2024-06-04 14:06:50.413827
27.45433343,1.493204594,-2.31196332,-0.158519268,2024-06-04 14:06:50.454333
27.49482828,-2.691534519,-2.286352634,2.796974182,2024-06-04 14:06:50.494828
27.53528312,-4.337119102,-1.900768757,0.6938033104,2024-06-04 14:06:50.535283
27.57580322,-6.657092571,-2.169071674,-0.9268651009,2024-06-04 14:06:50.575803
27.61627317,-5.203953743,-1.574314594,-2.023886204,2024-06-04 14:06:50.616273
27.65676348,-6.92455101,-2.922737598,0.8654851913,2024-06-04 14:06:50.656763
27.6972414,-4.813303947,-1.031197071,0.9372215271,2024-06-04 14:06:50.697241
27.73771031,-5.214046001,-0.3260169029,2.865150928,2024-06-04 14:06:50.737710
27.77827234,-4.305475235,-0.5352606773,4.414489746,2024-06-04 14:06:50.778272
27.81876015,-5.139216423,-1.586120605,-0.6172637939,2024-06-04 14:06:50.818760
27.8591452,-5.393089294,-0.6212944984,3.020900011,2024-06-04 14:06:50.859145
27.89968072,-2.978049278,2.109584332,3.172162294,2024-06-04 14:06:50.899681
27.94018546,-3.406122684,5.067001343,4.336184502,2024-06-04 14:06:50.940185
27.98064062,-1.845549583,4.714660168,5.246943474,2024-06-04 14:06:50.980641
28.02109734,-0.02476024628,2.207562685,-1.343040586,2024-06-04 14:06:51.021097
28.06160437,5.664803505,1.085316181,-6.49689436,2024-06-04 14:06:51.061604
28.10207208,11.10033226,-1.612046242,-10.04895878,2024-06-04 14:06:51.102072
28.14260776,5.889225483,2.555527687,10.99039936,2024-06-04 14:06:51.142608
28.1830526,0.0174369812,-2.279118538,5.407371521,2024-06-04 14:06:51.183053
28.22362276,2.285151482,-2.313808441,-2.126709461,2024-06-04 14:06:51.223623
28.26411348,4.317939281,-6.619538307,1.120665789,2024-06-04 14:06:51.264113
28.3044977,0.5999622345,0.3019890785,-4.056680202,2024-06-04 14:06:51.304498
28.34508156,1.651643753,-1.465001106,-3.911864758,2024-06-04 14:06:51.345082
28.38550166,-11.2542038,-6.851913452,-1.401563048,2024-06-04 14:06:51.385502
28.42599145,1.280627012,6.880903721,-0.2305703461,2024-06-04 14:06:51.425991
28.46647468,4.702280521,5.464355469,-2.39198041,2024-06-04 14:06:51.466475
28.50695244,0.3433289528,3.454307079,-0.8253850937,2024-06-04 14:06:51.506952
28.54745083,-3.291276932,-7.573904991,-1.457355618,2024-06-04 14:06:51.547451
28.58795916,1.062909484,-3.191789627,1.233226061,2024-06-04 14:06:51.587959
28.62844411,0.9926424026,0.06061649323,-1.395923615,2024-06-04 14:06:51.628444
28.66896302,-1.945697308,-1.596152306,3.098721504,2024-06-04 14:06:51.668963
28.70942937,-3.790175676,-1.581458092,2.925380707,2024-06-04 14:06:51.709429
28.7498901,-0.7535613775,-1.358214378,2.280229807,2024-06-04 14:06:51.749890
28.790409,-1.591037393,-3.588835716,2.008123159,2024-06-04 14:06:51.790409
28.83083026,-3.221840858,-3.531435966,1.799191594,2024-06-04 14:06:51.830830
28.8713188,-0.8424817324,-2.307828903,4.31489706,2024-06-04 14:06:51.871319
28.91180614,4.11645937,-1.210737228,-2.20629096,2024-06-04 14:06:51.911806
28.95228906,1.81467545,-0.5385532379,-4.767486572,2024-06-04 14:06:51.952289
28.99279052,0.5575985909,-2.859210968,-3.147183418,2024-06-04 14:06:51.992791
29.03328234,0.9614298344,-0.250957489,-3.791106462,2024-06-04 14:06:52.033282
29.07374687,1.700224996,0.541891098,-4.557115555,2024-06-04 14:06:52.073747
29.11425843,0.2972952127,1.105870247,-4.115260601,2024-06-04 14:06:52.114258
29.15479796,3.923193932,5.054932117,-4.139945984,2024-06-04 14:06:52.154798
29.19527645,4.879317284,5.383399963,-2.138694048,2024-06-04 14:06:52.195276
29.23574572,2.24581337,2.210564613,0.02387595177,2024-06-04 14:06:52.235746
29.27618822,-2.014536858,-2.504105568,5.617016315,2024-06-04 14:06:52.276188
29.31666692,-7.089591026,-4.772074699,5.396670341,2024-06-04 14:06:52.316667
29.35717317,0.3808460236,2.68593502,-0.04312252998,2024-06-04 14:06:52.357173
29.39766911,0.09217178822,-1.195270538,-9.317079544,2024-06-04 14:06:52.397669
29.43817182,-0.7698410749,-6.006250381,6.80487299,2024-06-04 14:06:52.438172
29.47867437,2.002714157,1.559579849,-12.34998417,2024-06-04 14:06:52.478674
29.5191314,6.479522705,0.2610092163,-4.094448566,2024-06-04 14:06:52.519131
29.55960723,0.9828715324,-1.838779449,-0.3863508701,2024-06-04 14:06:52.559607
29.60012166,-0.06217157841,0.04124736786,5.459684372,2024-06-04 14:06:52.600122
29.64064619,0.934705317,2.413388252,-0.5698416829,2024-06-04 14:06:52.640646
29.68107614,2.26167345,1.881136894,-2.230661869,2024-06-04 14:06:52.681076
29.72157515,-1.130759239,0.5108966827,0.3177565932,2024-06-04 14:06:52.721575
29.76204067,-2.044879198,-1.028324127,3.156086445,2024-06-04 14:06:52.762041
29.80250619,-0.08145041764,-1.084015846,4.245598793,2024-06-04 14:06:52.802506
29.8429938,-2.683479786,-0.2865362167,3.833525658,2024-06-04 14:06:52.842994
29.88350192,-3.646460772,-1.800618172,-2.867054939,2024-06-04 14:06:52.883502
29.92399182,1.611641884,-1.353300095,4.915518284,2024-06-04 14:06:52.923992
29.96448411,-2.15931201,-3.504192352,7.647815704,2024-06-04 14:06:52.964484
30.0049802,-2.610147953,-4.032962799,0.5772304535,2024-06-04 14:06:53.004980
30.04546932,0.8809697032,-2.880200386,-4.650589943,2024-06-04 14:06:53.045469
30.08592093,2.519621372,-3.310495377,-4.357398033,2024-06-04 14:06:53.085921
30.12644026,0.4206958115,-3.534578323,-4.439208508,2024-06-04 14:06:53.126440
30.16692807,-0.4344577789,0.2145795822,-4.819858551,2024-06-04 14:06:53.166928
30.20740135,-0.9490783215,2.254833221,-7.250846863,2024-06-04 14:06:53.207401
30.24786953,0.0950512886,4.974526882,-4.966095924,2024-06-04 14:06:53.247870
30.28833702,1.678447247,6.764575005,-4.420157909,2024-06-04 14:06:53.288337
30.32882145,1.457304001,4.873008251,-2.560973167,2024-06-04 14:06:53.328821
30.36932786,2.167441368,-0.1771669388,0.2295897007,2024-06-04 14:06:53.369328
30.40984406,-0.8136155605,-8.29767704,11.38140202,2024-06-04 14:06:53.409844
30.45032473,-3.475387812,-1.673347473,3.275500059,2024-06-04 14:06:53.450325
30.49078796,1.986031532,4.751826286,-0.9945098162,2024-06-04 14:06:53.490788
30.53125734,6.342067719,-8.832727432,-1.211609125,2024-06-04 14:06:53.531257
30.57176671,-1.34521091,-1.325139999,-6.623579025,2024-06-04 14:06:53.571767
30.61224015,2.688497543,5.27895689,-5.861891747,2024-06-04 14:06:53.612240
30.65272952,-0.6404137611,-0.6747341156,-3.885523319,2024-06-04 14:06:53.652730
30.69320901,-4.19485569,-4.975294113,-4.063305378,2024-06-04 14:06:53.693209
30.73372249,-2.646495342,2.14769125,6.814943314,2024-06-04 14:06:53.733722
30.77424739,1.309415579,0.6632595062,0.08767586946,2024-06-04 14:06:53.774247
30.81468124,1.303884506,1.306059837,0.6036699414,2024-06-04 14:06:53.814681
30.85514374,0.8870950341,2.701980114,0.8384099007,2024-06-04 14:06:53.855144
30.89564052,-0.9524751902,-0.006675720215,-0.03732991219,2024-06-04 14:06:53.895641
30.93613676,-1.796925306,-1.884595871,-0.302798748,2024-06-04 14:06:53.936137
30.97662692,-1.702634692,-1.340630531,10.38604259,2024-06-04 14:06:53.976627
31.01717057,-1.96043992,-2.551381111,-0.4289782047,2024-06-04 14:06:54.017171
31.05763005,2.897453308,-0.4717159271,2.823855162,2024-06-04 14:06:54.057630
31.09808843,-0.8734184504,-2.714883804,7.632403374,2024-06-04 14:06:54.098088
31.13860426,-3.68258667,-5.136042595,1.469516993,2024-06-04 14:06:54.138604
31.17907447,0.4351121783,-3.316521645,-3.306497097,2024-06-04 14:06:54.179074
31.21956276,5.267570019,-3.40743351,-3.838932514,2024-06-04 14:06:54.219563
31.26006005,4.405469418,-3.495833397,-4.303508759,2024-06-04 14:06:54.260060
31.30049192,-0.4928605556,0.2212781906,-4.446899891,2024-06-04 14:06:54.300492
31.34099328,-0.773637414,2.22795105,-8.074466705,2024-06-04 14:06:54.340993
31.38150578,-1.499692202,2.974025726,-5.573777676,2024-06-04 14:06:54.381506
31.42195911,2.149585962,7.027887344,-4.472135544,2024-06-04 14:06:54.421959
31.462419,1.52387321,6.546334267,-2.837682486,2024-06-04 14:06:54.462419
31.50295182,0.8393365145,3.310937881,0.07245850563,2024-06-04 14:06:54.502952
31.5434688,-0.5922455788,-11.75660515,13.37474728,2024-06-04 14:06:54.543469
31.58393536,-1.736250997,-1.537380219,3.11103034,2024-06-04 14:06:54.583935
31.62440744,3.96296382,1.535928726,-1.761888742,2024-06-04 14:06:54.624407
31.66490145,3.464211941,-9.973549843,0.9812104702,2024-06-04 14:06:54.664901
31.7053801,1.801362991,5.483960152,-11.71802521,2024-06-04 14:06:54.705380
31.74588505,3.369717598,4.633868694,-5.402051449,2024-06-04 14:06:54.745885
31.78635395,-2.634219646,-5.692008018,-2.17275548,2024-06-04 14:06:54.786354
31.82684723,-4.020845413,-2.826330185,-4.501870155,2024-06-04 14:06:54.826847
31.8673227,-1.965369463,2.304666519,6.76279211,2024-06-04 14:06:54.867323
31.90783197,-1.756796598,0.6446075439,-2.111308336,2024-06-04 14:06:54.907832
31.94837489,0.4723143578,0.8332443237,0.3292191029,2024-06-04 14:06:54.948375
31.98882057,0.9868835211,1.171840668,3.664359331,2024-06-04 14:06:54.988821
32.02931666,-2.292717934,-0.1301460266,4.128844261,2024-06-04 14:06:55.029317
32.06975447,-0.7488242388,-0.2832078934,0.4011628628,2024-06-04 14:06:55.069754
32.11025442,-2.171487808,-1.158427238,3.576717854,2024-06-04 14:06:55.110254
32.15077046,-2.124238968,-2.06815052,1.042695642,2024-06-04 14:06:55.150770
32.19117333,1.052153587,-1.527338028,3.360640764,2024-06-04 14:06:55.191173
32.23166947,-4.047528267,-4.016546249,4.020467758,2024-06-04 14:06:55.231669
32.27221463,-2.006995916,-3.001839638,4.072455883,2024-06-04 14:06:55.272215
32.31269223,1.480253458,-2.601583481,-1.431471109,2024-06-04 14:06:55.312692
32.3531763,1.907492638,-4.391023636,-2.627910614,2024-06-04 14:06:55.353176
32.39366828,2.087165594,-2.786787987,-8.231049538,2024-06-04 14:06:55.393668
32.43414343,-0.5970433354,-1.559681892,-1.794841051,2024-06-04 14:06:55.434143
32.47464781,-3.081322908,-1.701910019,-7.695354462,2024-06-04 14:06:55.474648
32.51511932,-0.2470245957,2.894164085,-5.289588451,2024-06-04 14:06:55.515119
32.55562807,2.803354263,6.168962002,-4.81056118,2024-06-04 14:06:55.555628
32.59613348,2.770252228,7.678727627,-3.660018682,2024-06-04 14:06:55.596133
32.63657114,1.338653088,4.998585224,-1.355742097,2024-06-04 14:06:55.636571
32.67705598,1.989581227,-2.680913925,5.56711483,2024-06-04 14:06:55.677056
32.71753604,-1.109969616,-6.685815811,5.86481905,2024-06-04 14:06:55.717536
32.75803249,-0.1024060249,-5.065568924,1.38322401,2024-06-04 14:06:55.758032
32.79855526,-2.050229311,-10.94600296,5.26449585,2024-06-04 14:06:55.798555
32.8390264,4.076099873,10.68175125,-13.77681732,2024-06-04 14:06:55.839026
32.87951864,6.393202305,8.00113678,-6.878920555,2024-06-04 14:06:55.879519
32.91999885,6.585041046,-0.8565444946,-3.3984797,2024-06-04 14:06:55.919999
32.96049869,-9.254770279,-10.63072014,1.709493041,2024-06-04 14:06:55.960499
33.00094364,-4.708208561,-0.5199279785,2.089456081,2024-06-04 14:06:56.000944
33.0414013,-0.7029947042,1.13674736,-0.7139405608,2024-06-04 14:06:56.041401
33.08194937,0.4215772152,1.237303734,2.757155418,2024-06-04 14:06:56.081949
33.12243312,0.1229612827,2.265787125,0.6545174718,2024-06-04 14:06:56.122433
33.16290447,0.309217453,1.739805222,-0.05453002453,2024-06-04 14:06:56.162904
33.20337734,0.9233134985,0.07131767273,-0.5635974407,2024-06-04 14:06:56.203377
33.24386072,-3.132980824,-1.397288322,7.282093048,2024-06-04 14:06:56.243861
33.28435703,-4.250533104,-2.278323174,3.178290367,2024-06-04 14:06:56.284357
33.32485338,-0.2765549421,-1.239295006,2.288240194,2024-06-04 14:06:56.324853
33.36534651,-4.486083508,-3.910573006,6.718891621,2024-06-04 14:06:56.365347
33.40583249,-3.203453302,-5.014484406,2.800369024,2024-06-04 14:06:56.405832
33.44630286,0.9250699282,-5.125774384,-2.078592777,2024-06-04 14:06:56.446303
33.48680651,4.535415649,-5.492637634,-3.86739254,2024-06-04 14:06:56.486807
33.52729671,3.849552155,-4.440270424,-6.599379539,2024-06-04 14:06:56.527297
33.56779906,-2.916886091,-1.056842804,-2.674337864,2024-06-04 14:06:56.567799
33.6082964,-1.623244405,0.3469848633,-9.328163147,2024-06-04 14:06:56.608296
33.6488026,0.3600047231,4.118969917,-7.502420425,2024-06-04 14:06:56.648803
33.68924895,2.134714842,6.962400436,-5.935783386,2024-06-04 14:06:56.689249
33.72971999,2.31627655,7.501278877,-3.849512815,2024-06-04 14:06:56.729720
33.77024765,2.676407814,6.265393257,-1.844796181,2024-06-04 14:06:56.770248
33.81072171,3.403577805,-4.195633888,5.324347019,2024-06-04 14:06:56.810722
33.85118452,-6.15895319,-10.23806667,8.109800339,2024-06-04 14:06:56.851185
33.89162984,-2.099055767,4.681422234,-0.2125627995,2024-06-04 14:06:56.891630
33.93211458,2.212294102,4.429350853,-3.855340719,2024-06-04 14:06:56.932115
33.97263005,8.303692818,-19.09272003,10.04864788,2024-06-04 14:06:56.972630
34.01312437,-0.871507287,2.711071968,-13.9600935,2024-06-04 14:06:57.013124
34.05356598,2.630548,7.075611115,-4.288916111,2024-06-04 14:06:57.053566
34.09409515,2.050815821,-0.5879554749,0.1506649256,2024-06-04 14:06:57.094095
34.1346038,-4.880971909,-5.532618523,-5.644248009,2024-06-04 14:06:57.134604
34.17506348,-4.119503498,1.607584,4.163265228,2024-06-04 14:06:57.175063
34.21555364,0.2420531511,1.135069847,2.878059387,2024-06-04 14:06:57.215554
34.25603848,0.8900517225,1.220020294,1.669180393,2024-06-04 14:06:57.256038
34.29649593,-0.7107927203,2.223483562,1.209586978,2024-06-04 14:06:57.296496
34.33700656,-1.260155678,0.005784988403,-0.2498903275,2024-06-04 14:06:57.337007
34.37747588,-1.366689682,-1.652869225,0.5157701969,2024-06-04 14:06:57.377476
34.41799354,-3.05762434,-2.617745399,10.02603817,2024-06-04 14:06:57.417994
34.4585177,-0.646920681,-1.351888657,1.059853673,2024-06-04 14:06:57.458518
34.49894083,-0.8873856068,-2.181968689,7.772607327,2024-06-04 14:06:57.498941
34.53945999,-4.135447025,-6.000811577,3.015124559,2024-06-04 14:06:57.539460
34.5799402,-0.4197545648,-4.84627533,-2.719035625,2024-06-04 14:06:57.579940
34.62052489,5.105357647,-4.384734154,-2.892276525,2024-06-04 14:06:57.620525
34.66086874,4.985948563,-4.940833092,-5.649476528,2024-06-04 14:06:57.660869
34.70138671,-2.639971972,-4.139822006,-4.188695908,2024-06-04 14:06:57.701387
34.74187296,-0.630109787,0.8954639435,-6.996832848,2024-06-04 14:06:57.741873
34.78236083,-0.4387823343,3.777031422,-8.606590271,2024-06-04 14:06:57.782361
34.82279208,2.059298515,7.84806633,-5.551272392,2024-06-04 14:06:57.822792
34.86331208,2.544804573,8.208886147,-4.160525799,2024-06-04 14:06:57.863312
34.90379999,2.063279867,5.710306168,-0.920650959,2024-06-04 14:06:57.903800
34.94428729,2.390950203,-4.233807564,4.581063271,2024-06-04 14:06:57.944287
34.98484239,-5.532213211,-8.726559639,7.011814594,2024-06-04 14:06:57.984842
35.02533781,1.164698124,-4.451008797,1.069752932,2024-06-04 14:06:58.025338
35.06573807,0.5258408189,-11.27034473,4.974586487,2024-06-04 14:06:58.065738
35.10624005,2.893950939,10.63742065,-12.1837883,2024-06-04 14:06:58.106240
35.14676593,5.055804253,8.641399384,-5.615195751,2024-06-04 14:06:58.146766
35.18721166,4.851672173,0.1160516739,1.679797053,2024-06-04 14:06:58.187212
35.22771791,-6.561317921,-9.058828354,-2.8349998,2024-06-04 14:06:58.227718
35.26817749,-4.881189823,-1.045380592,3.052956104,2024-06-04 14:06:58.268177
35.30864062,-1.591431141,1.059885979,-1.555205345,2024-06-04 14:06:58.308641
35.34912942,0.922596097,1.013432503,2.493360043,2024-06-04 14:06:58.349129
35.38966614,-0.1855264902,2.241057396,1.126831412,2024-06-04 14:06:58.389666
35.43014838,1.318462849,1.827852726,1.426272273,2024-06-04 14:06:58.430148
35.4706238,-0.454852581,0.3989944458,-0.06176495552,2024-06-04 14:06:58.470624
35.51105552,-5.534099102,-1.350971222,10.16228676,2024-06-04 14:06:58.511056
35.55158229,-4.303977013,-1.518079758,-1.932527304,2024-06-04 14:06:58.551582
35.59203588,0.2607876062,-2.032917976,7.456186295,2024-06-04 14:06:58.592036
35.63256817,-3.935234785,-7.361169815,6.138343811,2024-06-04 14:06:58.632568
35.6730426,2.867820263,-4.420438766,1.374633074,2024-06-04 14:06:58.673043
35.71353921,6.450388908,-5.557411194,-4.573642254,2024-06-04 14:06:58.713539
35.75403552,6.507840157,-5.274172783,-6.285943031,2024-06-04 14:06:58.754036
35.79453505,0.08014833927,-2.167402267,-0.3856537342,2024-06-04 14:06:58.794535
35.83500807,-2.250030518,-0.2910089493,-8.342283249,2024-06-04 14:06:58.835008
35.8754739,-0.09719997644,3.824894428,-7.62787056,2024-06-04 14:06:58.875474
35.91598088,1.435881615,7.62827301,-5.312675476,2024-06-04 14:06:58.915981
35.95648015,0.5734294653,6.029605389,-5.120946884,2024-06-04 14:06:58.956480
35.99695604,0.04796826839,5.146131992,-2.29008007,2024-06-04 14:06:58.996956
36.03742776,1.351269484,-0.1723022461,4.049505234,2024-06-04 14:06:59.037428
36.0779238,-0.5678892732,-9.156655312,10.77849674,2024-06-04 14:06:59.077924
36.11841609,-1.670935154,-0.01510715485,2.262081623,2024-06-04 14:06:59.118416
36.15894317,3.78332448,4.155516624,0.03933882713,2024-06-04 14:06:59.158943
36.19943244,7.294559479,-9.966442108,5.925912857,2024-06-04 14:06:59.199432
36.23988687,1.05632019,-0.4931058884,-12.16646385,2024-06-04 14:06:59.239887
36.2803313,2.537604094,6.849871635,-6.533958912,2024-06-04 14:06:59.280331
36.32081426,2.498147011,0.4765548706,-1.89853549,2024-06-04 14:06:59.320814
36.36131671,-4.953680038,-9.368691444,-4.286828041,2024-06-04 14:06:59.361317
36.40176869,-4.940142155,-0.2127199173,5.052620888,2024-06-04 14:06:59.401769
36.4422551,-1.416013241,2.079170704,0.0200009346,2024-06-04 14:06:59.442255
36.48275604,-0.07504022121,1.471036911,2.773116112,2024-06-04 14:06:59.482756
36.52327619,1.05137217,3.179102421,1.699235082,2024-06-04 14:06:59.523276
36.56375213,0.6068147421,1.230609894,0.1012471914,2024-06-04 14:06:59.563752
36.60423406,-2.361693859,-2.038619041,-0.8544826508,2024-06-04 14:06:59.604234
36.64474338,-3.76538229,-2.294148445,11.98460007,2024-06-04 14:06:59.644743
36.68521479,-2.247179508,-2.690061569,2.049513817,2024-06-04 14:06:59.685215
36.72569619,0.4549384117,-1.699906349,4.345657825,2024-06-04 14:06:59.725696
36.76618802,-5.02711153,-7.370802879,4.493309021,2024-06-04 14:06:59.766188
36.80668354,-0.8561952114,-3.467345238,1.69354248,2024-06-04 14:06:59.806684
36.84715552,2.064101696,-3.688645363,-3.80896759,2024-06-04 14:06:59.847156
36.88763557,6.06599474,-6.815592766,-4.977462769,2024-06-04 14:06:59.887636
36.92816359,0.5012814403,-3.269715309,-4.166254997,2024-06-04 14:06:59.928164
36.96867973,-1.875008225,-1.358620644,-5.256558418,2024-06-04 14:06:59.968680
37.00913989,-0.6023768187,2.246296883,-10.89128304,2024-06-04 14:07:00.009140
37.04961114,1.149662495,7.569898605,-5.418272495,2024-06-04 14:07:00.049611
37.09006015,3.2433424,8.604460716,-4.285961628,2024-06-04 14:07:00.090060
37.13057234,2.424328089,7.400038719,-2.697643757,2024-06-04 14:07:00.130572
37.17103958,2.902924061,1.453722,1.010033846,2024-06-04 14:07:00.171040
37.21150005,-5.607158661,-14.50046635,11.73045444,2024-06-04 14:07:00.211500
37.25201473,-4.265925407,2.518810272,-0.2581374645,2024-06-04 14:07:00.252015
37.29249239,1.206907749,4.78350544,-2.56733489,2024-06-04 14:07:00.292492
37.33298348,8.086224556,-15.00414658,10.08807278,2024-06-04 14:07:00.332983
37.37346078,1.951039076,2.842632294,-15.17300224,2024-06-04 14:07:00.373461
37.41397109,2.949982882,6.301901817,-4.169321537,2024-06-04 14:07:00.413971
37.45447421,3.393781424,0.1973686218,-0.06987535954,2024-06-04 14:07:00.454474
37.4949588,-6.713712692,-6.894645691,-7.36320591,2024-06-04 14:07:00.494959
37.5354463,-4.007503986,-0.1562652588,7.736136436,2024-06-04 14:07:00.535446
37.57593854,-0.05735480785,1.143460274,-0.9244554043,2024-06-04 14:07:00.575939
37.6163839,-0.6760995388,1.189795494,1.530939221,2024-06-04 14:07:00.616384
37.65690713,0.1073687077,2.953710556,0.9100986719,2024-06-04 14:07:00.656907
37.69737598,0.6004089117,1.226980209,0.5613101721,2024-06-04 14:07:00.697376
37.7378538,-0.9174356461,-1.337655067,0.7006223202,2024-06-04 14:07:00.737854
37.77839536,-5.815700054,-2.711330414,10.83385944,2024-06-04 14:07:00.778395
37.81886578,-2.596209288,-2.012525558,-1.484141111,2024-06-04 14:07:00.818866
37.85932031,0.7585670948,-1.294675827,6.82510376,2024-06-04 14:07:00.859320
37.89986114,-3.888748646,-5.11225605,5.388963699,2024-06-04 14:07:00.899861
37.94038432,-3.072922707,-4.183633804,0.4514553547,2024-06-04 14:07:00.940384
37.9807777,2.407742023,-5.420452118,-3.308478832,2024-06-04 14:07:00.980778
38.0212689,5.956701756,-5.616014481,-5.299686432,2024-06-04 14:07:01.021269
38.06178593,2.245365381,-2.961156845,-1.995066643,2024-06-04 14:07:01.061786
38.10219942,-3.258912086,-0.4336977005,-7.961469173,2024-06-04 14:07:01.102199
38.14273052,-0.8665033579,1.9516325,-7.273757935,2024-06-04 14:07:01.142731
38.18319265,2.66435957,5.963252544,-5.898087025,2024-06-04 14:07:01.183193
38.22367979,3.175084114,7.633254051,-5.215247154,2024-06-04 14:07:01.223680
38.26416505,1.850718737,7.236872673,-2.54286623,2024-06-04 14:07:01.264165
38.30463869,2.844486713,1.80791378,0.776614666,2024-06-04 14:07:01.304639
38.34514947,-3.915875435,-12.60111713,12.00621796,2024-06-04 14:07:01.345149
38.38566484,-3.996322155,1.115206718,1.926984787,2024-06-04 14:07:01.385665
38.42612244,3.227020979,0.5500431061,-1.076541662,2024-06-04 14:07:01.426122
38.46663265,3.639208317,-13.4448719,6.045717239,2024-06-04 14:07:01.466633
38.50707973,3.638737679,6.501442909,-13.51031685,2024-06-04 14:07:01.507080
38.54756557,4.394095421,6.338119507,-4.064439774,2024-06-04 14:07:01.547566
38.58809374,2.357160568,-1.848748207,0.01867246628,2024-06-04 14:07:01.588094
38.62860682,-6.149857998,-6.615598679,-6.940971851,2024-06-04 14:07:01.628607
38.66903364,-3.510133505,0.5680894852,9.208480835,2024-06-04 14:07:01.669034
38.70954911,-1.399321318,1.261691093,-1.489180088,2024-06-04 14:07:01.709549
38.7500402,-0.3712114096,1.726135254,0.5935871601,2024-06-04 14:07:01.750040
38.79059307,0.1160200834,1.560377121,1.276604414,2024-06-04 14:07:01.790593
38.83101656,0.6270519495,0.5565052032,2.413692713,2024-06-04 14:07:01.831017
38.87145239,-1.493383765,-0.808637619,2.772202969,2024-06-04 14:07:01.871452
38.91190583,-4.412969112,-1.272128105,5.144522667,2024-06-04 14:07:01.911906
38.95241807,-2.139643908,-2.006259918,1.865059614,2024-06-04 14:07:01.952418
38.99292057,0.3421547413,-1.744714737,5.711320877,2024-06-04 14:07:01.992921
39.03343968,-3.399505377,-6.555171013,5.781745911,2024-06-04 14:07:02.033440
39.07391411,-2.727838993,-5.385961533,1.884730339,2024-06-04 14:07:02.073914
39.11438979,4.218880177,-4.039517403,-2.301537514,2024-06-04 14:07:02.114390
39.1549014,4.582993031,-4.134121895,-5.81325531,2024-06-04 14:07:02.154901
39.19537921,0.03066445887,-3.564381599,-4.024517059,2024-06-04 14:07:02.195379
39.2358527,-3.372151852,-1.095778465,-6.175368309,2024-06-04 14:07:02.235853
39.2763227,-0.2316405326,1.797158241,-7.532822609,2024-06-04 14:07:02.276323
39.31680255,2.173178673,6.311909676,-7.036432266,2024-06-04 14:07:02.316803
39.3572965,3.391760111,8.234386444,-4.545051575,2024-06-04 14:07:02.357296
39.39778854,1.739431977,6.577915192,-2.866343737,2024-06-04 14:07:02.397789
39.43830395,2.399465561,1.120192528,1.560232878,2024-06-04 14:07:02.438304
39.47879822,-1.176378965,-8.704474449,9.558667183,2024-06-04 14:07:02.478798
39.51926765,-3.612098694,-1.817883492,3.816210747,2024-06-04 14:07:02.519268
39.55976781,2.826525688,-1.364075661,0.9619221687,2024-06-04 14:07:02.559768
39.6002352,2.884623528,-11.35508347,3.887084246,2024-06-04 14:07:02.600235
39.64072494,2.071629763,8.147006989,-12.93610764,2024-06-04 14:07:02.640725
39.6811601,3.069150925,5.837207317,-4.527606964,2024-06-04 14:07:02.681160
39.72165458,-1.436706424,-5.416304588,-3.133478165,2024-06-04 14:07:02.721655
39.76218838,-6.705233574,-5.014925957,1.89524436,2024-06-04 14:07:02.762188
39.8026926,-0.4432142377,0.7895355225,1.907532454,2024-06-04 14:07:02.802693
39.84315265,1.065657854,1.078769684,1.750037193,2024-06-04 14:07:02.843153
39.88366437,1.590860128,3.150911331,2.014372826,2024-06-04 14:07:02.883664
39.92416682,1.148272872,2.662142754,-0.2547744513,2024-06-04 14:07:02.924167
39.96465999,-0.9632176757,-1.256393433,-1.782718658,2024-06-04 14:07:02.964660
40.00513083,-2.322249413,-1.674387932,12.34651852,2024-06-04 14:07:03.005131
40.04560744,-5.015854836,-2.353614807,1.37723732,2024-06-04 14:07:03.045607
40.08603609,0.2880688906,-1.282123566,0.5430471897,2024-06-04 14:07:03.086036
40.12654916,-2.012325525,-4.392915726,6.370134354,2024-06-04 14:07:03.126549
40.1670688,-2.845240593,-4.524482727,3.355396748,2024-06-04 14:07:03.167069
40.20752645,0.165974021,-3.185598373,-0.4659132659,2024-06-04 14:07:03.207526
40.24804161,4.698866367,-4.926175117,-3.3562994,2024-06-04 14:07:03.248042
40.28847322,5.382074356,-2.339223862,-4.675095558,2024-06-04 14:07:03.288473
40.3289626,-0.976159811,0.1766366959,-3.2914114,2024-06-04 14:07:03.328963
40.36946489,-1.504269004,0.3296175003,-6.620550156,2024-06-04 14:07:03.369465
40.40996843,0.03014642,3.654276848,-6.706395149,2024-06-04 14:07:03.409968
40.45044499,1.504279494,5.894632339,-4.902441502,2024-06-04 14:07:03.450445
40.49090817,1.348437905,5.899600983,-4.158103466,2024-06-04 14:07:03.490908
40.53140546,0.473039031,3.679687977,-1.345492125,2024-06-04 14:07:03.531405
40.57189369,0.3764960766,-5.915724754,11.44832611,2024-06-04 14:07:03.571894
40.61243317,-0.6362181902,-6.498322487,5.320380211,2024-06-04 14:07:03.612433
40.65285567,3.481283426,4.248157501,-0.9561430216,2024-06-04 14:07:03.652856
40.69337822,4.433757782,-5.69400692,2.36090827,2024-06-04 14:07:03.693378
40.73382348,0.2617410421,-1.106509209,-7.324412346,2024-06-04 14:07:03.733823
40.77432354,3.076538801,5.864254475,-7.958102226,2024-06-04 14:07:03.774324
40.814789,-0.5641788244,1.156831741,-2.594673634,2024-06-04 14:07:03.814789
40.8552838,-6.441818237,-8.933308601,-5.334492207,2024-06-04 14:07:03.855284
40.895799,-3.165822268,0.5072135925,9.269845009,2024-06-04 14:07:03.895799
40.93628374,0.4005764723,1.364331245,-0.7942770123,2024-06-04 14:07:03.936284
40.97682265,0.0627052784,2.195200443,0.3372346163,2024-06-04 14:07:03.976823
41.01731109,1.446248174,1.030470848,0.5464345217,2024-06-04 14:07:04.017311
41.0577401,-0.9411466122,0.5176210403,4.662970543,2024-06-04 14:07:04.057740
41.09818166,-1.101212025,-0.3712368011,1.710581779,2024-06-04 14:07:04.098182
41.13873963,-2.868778944,-1.204031944,4.569115639,2024-06-04 14:07:04.138740
41.17923276,-2.421952724,-2.2081604,1.328228235,2024-06-04 14:07:04.179233
41.21968421,-0.2049760818,-1.680570602,1.858772874,2024-06-04 14:07:04.219684
41.26014426,-1.561862826,-3.251491547,6.695855141,2024-06-04 14:07:04.260144
41.3006376,-1.919034123,-4.462425232,4.715047359,2024-06-04 14:07:04.300638
41.34113656,-1.164742231,-2.734225273,-1.41578126,2024-06-04 14:07:04.341137
41.38162791,1.601493835,-3.261929512,-2.651874065,2024-06-04 14:07:04.381628
41.42208416,4.17726469,-3.614611626,-4.389221191,2024-06-04 14:07:04.422084
41.4625876,0.4193522334,-1.027133942,-5.276470661,2024-06-04 14:07:04.462588
41.50308968,-3.541792631,0.1086263657,-6.552650452,2024-06-04 14:07:04.503090
41.54355036,-0.8874269724,3.024360657,-5.143979073,2024-06-04 14:07:04.543550
41.58403666,2.110061169,6.156475544,-5.165056705,2024-06-04 14:07:04.584037
41.62453354,1.564398646,6.718947411,-3.847952366,2024-06-04 14:07:04.624534
41.66503067,1.564317346,4.669834137,-0.7194266319,2024-06-04 14:07:04.665031
41.70551776,2.34347105,-6.644967079,7.284872055,2024-06-04 14:07:04.705518
41.74597984,-3.808923721,-6.386515617,7.852399826,2024-06-04 14:07:04.745980
41.78650041,0.6094617844,1.771116734,1.815949917,2024-06-04 14:07:04.786500
41.82698624,3.010530472,-9.553770065,2.764691353,2024-06-04 14:07:04.826986
41.86743437,1.023631334,5.148627281,-13.29139423,2024-06-04 14:07:04.867434
41.90792432,4.158252239,6.295508385,-5.546427727,2024-06-04 14:07:04.907924
41.94848723,3.10720253,-0.5028009415,-0.2838805914,2024-06-04 14:07:04.948487
41.98896604,-7.75762558,-8.050271988,-6.133175373,2024-06-04 14:07:04.988966
42.02940874,-3.837878227,0.8244771957,8.87428093,2024-06-04 14:07:05.029409
42.06988942,0.1574412584,1.159484863,-0.8720152378,2024-06-04 14:07:05.069889
42.1103914,1.753115654,2.202470303,2.644572735,2024-06-04 14:07:05.110391
42.15089109,2.744361401,2.552579403,1.488850474,2024-06-04 14:07:05.150891
42.19129942,-0.9020082355,-0.5833959579,-0.9046003819,2024-06-04 14:07:05.191299
42.23178578,-3.923309088,-2.043870926,6.871903419,2024-06-04 14:07:05.231786
42.27227526,-5.591462135,-3.451647758,3.448485136,2024-06-04 14:07:05.272275
42.31279765,-0.1475681067,-1.916706085,1.969675183,2024-06-04 14:07:05.312798
42.35330453,-2.685695648,-3.798884392,6.770501614,2024-06-04 14:07:05.353305
42.39378661,-2.026281118,-4.229491234,4.379918098,2024-06-04 14:07:05.393787
42.43426734,-0.6931294203,-3.204499245,-2.444263458,2024-06-04 14:07:05.434267
42.47475005,4.370810032,-5.545805931,-4.836560726,2024-06-04 14:07:05.474750
42.51524598,5.131173134,-3.00155735,-1.410287857,2024-06-04 14:07:05.515246
42.55571552,-1.475828052,-0.6140050888,-5.920526028,2024-06-04 14:07:05.555716
42.59620416,-2.220928431,1.389395714,-6.054098129,2024-06-04 14:07:05.596204
42.63668739,-1.520164251,4.30207777,-7.601576805,2024-06-04 14:07:05.636687
42.67718473,0.8302385807,6.377590179,-5.791584492,2024-06-04 14:07:05.677185
42.71768515,1.399413347,6.665584564,-3.405497313,2024-06-04 14:07:05.717685
42.75818687,2.127553463,3.006821632,0.4227216244,2024-06-04 14:07:05.758187
42.79869249,-0.01774346828,-9.840275764,12.36701679,2024-06-04 14:07:05.798692
42.83913567,-2.011407375,-3.445103645,2.546832561,2024-06-04 14:07:05.839136
42.87961952,3.549242496,6.860006332,0.8466534615,2024-06-04 14:07:05.879620
42.9201176,6.326889515,-8.828039169,1.798592091,2024-06-04 14:07:05.920118
42.96064552,2.098596573,-0.803645134,-11.4321661,2024-06-04 14:07:05.960646
43.00106822,4.201892376,5.710559845,-6.589378357,2024-06-04 14:07:06.001068
43.04155416,0.752904892,0.447883606,-2.104062319,2024-06-04 14:07:06.041554
43.08203656,-4.930956841,-10.31298733,-6.946784019,2024-06-04 14:07:06.082037
43.12252848,-6.810023308,-0.8685503006,6.902886868,2024-06-04 14:07:06.122528
43.16301312,-0.2076925039,2.565188408,0.1353830993,2024-06-04 14:07:06.163013
43.20350723,-1.009359837,1.677137375,1.161520004,2024-06-04 14:07:06.203507
43.24403026,0.1187397242,3.591579914,1.715868592,2024-06-04 14:07:06.244030
43.28446864,1.361932874,1.452373505,-0.4903216362,2024-06-04 14:07:06.284469
43.32497083,-2.155189991,-2.404676437,2.107285738,2024-06-04 14:07:06.324971
43.36546223,-5.891829014,-4.028438568,11.7956419,2024-06-04 14:07:06.365462
43.40598192,-1.495983124,-2.465473175,-1.457483768,2024-06-04 14:07:06.405982
43.4464613,-0.7303076386,-3.173814774,6.342226028,2024-06-04 14:07:06.446461
43.48696177,-2.939578533,-5.555534363,5.457711697,2024-06-04 14:07:06.486962
43.52740744,-0.3555295467,-3.284996033,-1.460510612,2024-06-04 14:07:06.527407
43.56789744,3.008281708,-3.809174538,-3.630074024,2024-06-04 14:07:06.567897
43.6084063,6.461061478,-4.236675262,-4.466681957,2024-06-04 14:07:06.608406
43.64888093,-0.723698318,-0.4486255646,-3.745995522,2024-06-04 14:07:06.648881
43.68935526,-1.633197784,1.235868454,-6.6977005,2024-06-04 14:07:06.689355
43.72982666,-1.714156985,3.301012039,-7.510983944,2024-06-04 14:07:06.729827
43.77031744,1.967720985,7.296535492,-4.851075172,2024-06-04 14:07:06.770317
43.8108051,1.168880463,6.711579323,-3.752086639,2024-06-04 14:07:06.810805
43.85130328,1.301709414,3.870999813,-1.22285676,2024-06-04 14:07:06.851303
43.89175713,1.498190761,-10.83308697,12.86812878,2024-06-04 14:07:06.891757
43.93222338,-2.169309616,-3.23342514,3.724398613,2024-06-04 14:07:06.932223
43.97271859,1.054443359,6.377609253,-1.762536764,2024-06-04 14:07:06.972719
44.01325223,3.223847866,-6.162717819,3.582326651,2024-06-04 14:07:07.013252
44.05367109,2.346902847,-3.998329163,-8.803033829,2024-06-04 14:07:07.053671
44.09417838,3.653952599,6.057097435,-7.398940086,2024-06-04 14:07:07.094178
44.13473411,1.172536612,2.249577522,0.129835844,2024-06-04 14:07:07.134734
44.17518515,-6.767447472,-8.410394669,-3.17830348,2024-06-04 14:07:07.175185
44.21564598,-3.37041378,0.880979538,2.170007706,2024-06-04 14:07:07.215646
44.2561488,0.5567929745,1.213302612,1.380649447,2024-06-04 14:07:07.256149
44.29662921,0.4464945793,1.848436356,1.977031827,2024-06-04 14:07:07.296629
44.3370964,1.456916928,3.35682869,1.251736641,2024-06-04 14:07:07.337096
44.37759369,0.4357202053,0.3561582565,-2.737099171,2024-06-04 14:07:07.377594
44.41815026,-3.058542728,-3.177593231,7.671852112,2024-06-04 14:07:07.418150
44.458619,-4.615361214,-3.800637245,8.927523613,2024-06-04 14:07:07.458619
44.49907494,-0.4058018923,-1.727965355,-1.130606174,2024-06-04 14:07:07.499075
44.53955239,-4.335636139,-4.90724659,7.133325577,2024-06-04 14:07:07.539552
44.5800439,-2.18198514,-4.326593399,3.288259983,2024-06-04 14:07:07.580044
44.62053067,0.5350593328,-3.280657768,-4.640450478,2024-06-04 14:07:07.620531
44.66101697,5.278846741,-4.965928078,-3.930236101,2024-06-04 14:07:07.661017
44.70150317,4.068843365,-3.132831573,-2.347780466,2024-06-04 14:07:07.701503
44.7420027,-3.473992825,-0.840681076,-5.456283569,2024-06-04 14:07:07.742003
44.7824751,-1.332125425,2.104963303,-8.468129158,2024-06-04 14:07:07.782475
44.82299432,-0.06738054752,5.203614235,-6.255973339,2024-06-04 14:07:07.822994
44.86343015,1.39755559,7.627757072,-5.030684471,2024-06-04 14:07:07.863430
44.90394489,1.29573524,7.071671009,-2.84889102,2024-06-04 14:07:07.903945
44.94442776,2.076524258,1.050409317,2.842677593,2024-06-04 14:07:07.944428
44.98492057,-0.9263542891,-12.33793163,11.0860939,2024-06-04 14:07:07.984921
45.02537687,-0.03765952587,1.774179935,0.158946991,2024-06-04 14:07:08.025377
45.06581515,2.197896481,0.7418060303,1.332532406,2024-06-04 14:07:08.065815
45.10634203,4.286027908,-11.84078407,2.727356434,2024-06-04 14:07:08.106342
45.14689197,2.961335659,8.201446533,-14.0094614,2024-06-04 14:07:08.146892
45.18735452,3.093635559,5.056000233,-2.758430004,2024-06-04 14:07:08.187355
45.22783484,0.3725678921,-3.147594452,-0.9952525496,2024-06-04 14:07:08.227835
45.26836489,-7.899198532,-6.268839836,-4.498618603,2024-06-04 14:07:08.268365
45.30875317,-3.252611637,1.130491257,5.61862421,2024-06-04 14:07:08.308753
45.34927911,-0.3097242117,0.6530294418,1.204931855,2024-06-04 14:07:08.349279
45.38976885,0.3262625933,1.857822895,1.831251621,2024-06-04 14:07:08.389769
45.43024088,1.653357148,3.006883144,0.9772905707,2024-06-04 14:07:08.430241
45.47073119,-0.4700341225,-0.528678894,-1.50019908,2024-06-04 14:07:08.470731
45.51117479,-3.723004341,-2.985042572,10.38166142,2024-06-04 14:07:08.511175
45.55166161,-4.739963055,-3.952066422,3.524040699,2024-06-04 14:07:08.551662
45.59218692,1.495091319,-1.645866394,2.88765049,2024-06-04 14:07:08.592187
45.63265562,-3.287436247,-4.177937508,7.143748283,2024-06-04 14:07:08.632656
45.67316947,-3.058426857,-4.113314629,2.010452032,2024-06-04 14:07:08.673169
45.71365109,-1.03817606,-3.603819847,-5.813509464,2024-06-04 14:07:08.713651
45.75413979,4.248392105,-5.545283318,-3.442158937,2024-06-04 14:07:08.754140
45.79464369,4.961322308,-2.864618301,-1.359728336,2024-06-04 14:07:08.794644
45.83511739,-2.271176338,0.4836759567,-5.71161747,2024-06-04 14:07:08.835117
45.87558776,-3.093866348,2.230649948,-9.31520462,2024-06-04 14:07:08.875588
45.91609484,-0.4920723438,6.215209961,-4.993748188,2024-06-04 14:07:08.916095
45.95658869,1.955466747,6.730960846,-5.241579533,2024-06-04 14:07:08.956589
45.99707567,1.820507765,5.819911003,-2.216283321,2024-06-04 14:07:08.997076
46.0375563,2.566184282,-0.1036472321,2.994712353,2024-06-04 14:07:09.037556
46.07803218,-0.8418328762,-10.25402451,11.77992821,2024-06-04 14:07:09.078032
46.11851937,-2.431551456,1.671004295,1.218419313,2024-06-04 14:07:09.118519
46.15904838,4.366311073,-6.594346046,1.094179869,2024-06-04 14:07:09.159048
46.19952145,2.358402729,-2.980175972,-8.456438065,2024-06-04 14:07:09.199521
46.23997906,3.341421366,7.503292084,-9.020578384,2024-06-04 14:07:09.239979
46.2804601,4.165441036,2.736242294,-1.605727673,2024-06-04 14:07:09.280460
46.32095015,-4.667973042,-9.151471138,-3.120977879,2024-06-04 14:07:09.320950
46.36144083,-6.657823563,-1.985115051,0.4993766546,2024-06-04 14:07:09.361441
46.40189223,-2.056803703,2.641757011,2.752289295,2024-06-04 14:07:09.401892
46.44238479,0.2104450464,1.002664566,0.6736563444,2024-06-04 14:07:09.442385
46.48290942,2.031048059,2.280840397,1.372197866,2024-06-04 14:07:09.482909
46.52340312,1.500620484,1.7189188,1.970837355,2024-06-04 14:07:09.523403
46.56388906,-2.99718523,-1.616479874,4.980692863,2024-06-04 14:07:09.563889
46.60436666,-5.687077522,-3.099381447,4.948743343,2024-06-04 14:07:09.604367
46.64483968,-1.047561288,-1.850557327,0.07634544373,2024-06-04 14:07:09.644840
46.68531838,-0.7094507217,-3.153798103,5.525043488,2024-06-04 14:07:09.685318
46.72581734,-3.632754326,-4.990442276,4.932857513,2024-06-04 14:07:09.725817
46.76629666,-1.053686738,-3.173615456,1.969308019,2024-06-04 14:07:09.766297
46.80678338,2.968794107,-3.358507156,-4.617050648,2024-06-04 14:07:09.806783
46.8472676,4.654364109,-3.885937691,-3.218132973,2024-06-04 14:07:09.847268
46.8877615,2.018066168,-0.7875642776,-3.992218256,2024-06-04 14:07:09.887762
46.92828312,-1.713016033,0.1702423096,-4.25276041,2024-06-04 14:07:09.928283
46.96877057,-1.683557034,2.708057404,-7.470369339,2024-06-04 14:07:09.968771
47.00925031,-0.6283183098,5.167190075,-5.715816498,2024-06-04 14:07:10.009250
47.0497364,1.744325042,7.091282845,-4.727917671,2024-06-04 14:07:10.049736
47.09021713,0.7873598337,5.741001129,-1.767249823,2024-06-04 14:07:10.090217
47.13069426,0.8944410086,-4.302854538,8.449248314,2024-06-04 14:07:10.130694
47.17116739,-1.997425079,-8.981028557,7.771186829,2024-06-04 14:07:10.171167
47.2116214,2.062294006,5.106082439,0.4927918911,2024-06-04 14:07:10.211621
47.25216229,3.926914215,-10.83584023,4.618940353,2024-06-04 14:07:10.252162
47.29259947,1.976383805,0.3585338593,-14.10382175,2024-06-04 14:07:10.292599
47.33313385,3.883607388,7.182931423,-7.839170456,2024-06-04 14:07:10.333134
47.37358281,3.98933363,2.202726364,-1.233194113,2024-06-04 14:07:10.373583
47.41408161,-5.842673302,-10.38422775,-6.175757885,2024-06-04 14:07:10.414082
47.45458312,-7.125229359,-2.509643555,8.158366203,2024-06-04 14:07:10.454583
47.49505755,-2.174573898,2.306875229,0.3070687056,2024-06-04 14:07:10.495058
47.53553859,-0.05629491806,2.430724144,2.298511028,2024-06-04 14:07:10.535539
47.5760338,2.280119419,3.386173725,1.243267417,2024-06-04 14:07:10.576034
47.61649854,2.086752176,1.362763882,-2.033409119,2024-06-04 14:07:10.616499
47.65704843,-2.301096916,-3.473325729,6.772244453,2024-06-04 14:07:10.657048
47.69748187,-6.700662136,-3.688761711,7.162693024,2024-06-04 14:07:10.697482
47.73796567,-1.554839492,-2.667785645,1.05453074,2024-06-04 14:07:10.737966
47.77847531,-3.92847681,-4.897675514,5.524827957,2024-06-04 14:07:10.778475
47.81896151,-2.457285404,-4.503936768,3.873072863,2024-06-04 14:07:10.818962
47.85941499,1.28990674,-3.035642624,-2.186572313,2024-06-04 14:07:10.859415
47.89993072,3.9911201,-4.424014091,-4.579906464,2024-06-04 14:07:10.899931
47.94041145,6.031803131,-3.006923676,-4.259762764,2024-06-04 14:07:10.940411
47.98086124,-2.489879847,-0.2420663834,-3.178242445,2024-06-04 14:07:10.980861
48.02134744,-3.03038764,1.213112831,-8.55192852,2024-06-04 14:07:11.021347
48.06181041,0.01874488592,5.356608868,-6.154458046,2024-06-04 14:07:11.061810
48.10231984,1.562399387,6.830738068,-5.237007141,2024-06-04 14:07:11.102320
48.14281307,2.207482338,7.524507523,-3.660587072,2024-06-04 14:07:11.142813
48.18330833,2.386008263,2.838362694,0.9764676094,2024-06-04 14:07:11.183308
48.22386411,-0.5576195121,-13.73594952,12.94068146,2024-06-04 14:07:11.223864
48.26428515,-2.393428326,0.7185258865,0.8785226345,2024-06-04 14:07:11.264285
48.30476307,3.722549438,1.469550133,-0.1035859585,2024-06-04 14:07:11.304763
48.34523354,4.583399773,-12.04120445,4.768288612,2024-06-04 14:07:11.345234
48.38574562,1.802964211,7.520068645,-16.81015205,2024-06-04 14:07:11.385746
48.426249,4.47261858,5.071810246,-3.600306034,2024-06-04 14:07:11.426249
48.46672166,2.575005531,-3.542259216,1.477852702,2024-06-04 14:07:11.466722
48.50719364,-7.625216007,-7.597683907,-5.941367626,2024-06-04 14:07:11.507194
48.5476938,-5.947757721,1.916809559,6.66359663,2024-06-04 14:07:11.547694
48.58820723,0.1829892397,1.65841198,-0.1427038312,2024-06-04 14:07:11.588207
48.62871114,0.466603756,2.369003296,1.2720052,2024-06-04 14:07:11.628711
48.6691551,4.050877094,2.881720066,-0.3350174427,2024-06-04 14:07:11.669155
48.70965671,-1.924776554,-1.770775795,5.098229408,2024-06-04 14:07:11.709657
48.750134,-5.547396183,-2.542319298,6.92605114,2024-06-04 14:07:11.750134
48.79063088,-4.592088223,-2.594441414,-1.272226572,2024-06-04 14:07:11.790631
48.8310889,1.297090292,-2.212903976,5.604633808,2024-06-04 14:07:11.831089
48.87157546,-3.652653217,-4.935082436,4.397813797,2024-06-04 14:07:11.871575
48.91204276,-2.25331378,-3.980050087,2.997413874,2024-06-04 14:07:11.912043
48.9525251,2.875954628,-2.658283234,-1.947149038,2024-06-04 14:07:11.952525
48.99305723,5.381343842,-4.551120758,-4.735056877,2024-06-04 14:07:11.993057
49.03360026,4.064707279,-1.897548676,-3.197210789,2024-06-04 14:07:12.033600
49.07400838,-1.859759331,-0.05334758759,-2.562587261,2024-06-04 14:07:12.074008
49.11448437,-2.206790686,2.13886261,-9.521450996,2024-06-04 14:07:12.114484
49.15501536,-1.050756693,4.832707405,-5.411931038,2024-06-04 14:07:12.155015
49.19552333,1.761945248,6.368383884,-4.998296738,2024-06-04 14:07:12.195523
49.23600312,1.645578623,5.930534363,-3.327932119,2024-06-04 14:07:12.236003
49.27646109,1.610995889,2.505178928,0.9944384098,2024-06-04 14:07:12.276461
49.31692052,-0.06183612347,-11.41287708,13.75077152,2024-06-04 14:07:12.316921
49.35741276,-1.24618268,-0.5024242401,0.6940357685,2024-06-04 14:07:12.357413
49.39790906,1.184044957,5.852723598,0.2909440994,2024-06-04 14:07:12.397909
49.4384364,4.633265972,-8.819906235,3.645676374,2024-06-04 14:07:12.438436
49.47889515,3.391594887,-1.589222908,-11.52413177,2024-06-04 14:07:12.478895
49.51936609,2.656805515,5.785183907,-5.527773857,2024-06-04 14:07:12.519366
49.55987395,2.084527254,1.311450005,0.2789132595,2024-06-04 14:07:12.559874
49.60037078,-5.695569038,-8.157222748,-7.561980247,2024-06-04 14:07:12.600371
49.64083166,-5.423372269,-0.08256721497,7.100525379,2024-06-04 14:07:12.640832
49.68131776,-2.49320364,1.739543915,0.3094484806,2024-06-04 14:07:12.681318
49.72180364,0.5624827147,1.72944355,1.737245321,2024-06-04 14:07:12.721804
49.76228187,4.745697021,2.807347298,2.139971256,2024-06-04 14:07:12.762282
49.8027601,-1.555471897,-0.9381933212,2.883087635,2024-06-04 14:07:12.802760
49.84323921,-3.804237843,-2.12198925,5.2491436,2024-06-04 14:07:12.843239
49.88376942,-6.333054543,-3.621154785,3.450150967,2024-06-04 14:07:12.883769
49.92427505,0.9235248566,-1.899864197,2.623487234,2024-06-04 14:07:12.924275
49.96476182,-1.569617748,-2.718296051,6.011126995,2024-06-04 14:07:12.964762
50.00523468,-2.914157867,-3.489278793,2.976710558,2024-06-04 14:07:13.005235
50.04563979,-1.218287706,-3.223198891,-1.57609129,2024-06-04 14:07:13.045640
50.08613984,3.759060383,-4.175528526,-4.346698761,2024-06-04 14:07:13.086140
50.1266601,6.330431461,-4.775578499,-3.26492238,2024-06-04 14:07:13.126660
50.167154,0.3389112353,-0.7155885696,-2.791977882,2024-06-04 14:07:13.167154
50.20762395,-1.703582644,0.6434679031,-5.684877872,2024-06-04 14:07:13.207624
50.24814572,-0.8338790536,4.100642204,-9.490833282,2024-06-04 14:07:13.248146
50.28859906,0.871861577,6.576165676,-4.393710136,2024-06-04 14:07:13.288599
50.32912302,1.852888107,7.458116531,-3.859221935,2024-06-04 14:07:13.329123
50.36961239,0.5905406475,4.932458878,-1.275308132,2024-06-04 14:07:13.369612
50.41007124,2.240739346,-7.040528297,8.598583221,2024-06-04 14:07:13.410071
50.4505489,-0.91143471,-7.102477074,7.441712379,2024-06-04 14:07:13.450549
50.49100124,1.595447302,3.879531384,-0.8309569359,2024-06-04 14:07:13.491001
50.53151458,3.619152784,-7.67269516,3.222146749,2024-06-04 14:07:13.531515
50.57201494,-0.5169820786,-1.85413456,-5.803882599,2024-06-04 14:07:13.572015
50.6124752,1.545858383,7.82125473,-8.76130867,2024-06-04 14:07:13.612475
50.65300067,1.727255583,2.924193382,-3.473096848,2024-06-04 14:07:13.653001
50.69345452,-6.522793293,-10.01425266,-5.458798409,2024-06-04 14:07:13.693455
50.73396593,-3.819813251,0.0748128891,8.504348755,2024-06-04 14:07:13.733966
50.77446651,-0.3476282954,0.5906028748,-1.492458344,2024-06-04 14:07:13.774467
50.81493927,0.6490733624,1.857931137,2.866321564,2024-06-04 14:07:13.814939
50.85539052,2.569331646,3.045544147,1.347404957,2024-06-04 14:07:13.855391
50.895914,2.31351614,2.437005997,-1.532448292,2024-06-04 14:07:13.895914
50.93641244,-1.562701702,-2.405754089,1.064270377,2024-06-04 14:07:13.936412
50.97687078,-3.304636002,-3.058064461,14.06047344,2024-06-04 14:07:13.976871
51.01736119,-3.814431667,-1.592728615,-4.290265083,2024-06-04 14:07:14.017361
51.05783776,-2.273518562,-4.7101717,2.131710768,2024-06-04 14:07:14.057838
51.09830338,-3.341747284,-5.719335556,3.081837654,2024-06-04 14:07:14.098303
51.13886859,2.95633173,-0.4339532852,6.268078327,2024-06-04 14:07:14.138869
51.1793115,4.64739275,-1.498790741,-0.2293504477,2024-06-04 14:07:14.179311
51.21982239,3.577166557,-3.965297699,-4.970627785,2024-06-04 14:07:14.219822
51.26029734,0.3998833299,-2.321854591,-5.492384434,2024-06-04 14:07:14.260297
51.30073473,0.3289283514,-0.463145256,-3.842275143,2024-06-04 14:07:14.300735
51.34123906,-1.028043509,1.843131065,-7.408694267,2024-06-04 14:07:14.341239
51.38168015,-1.798067927,4.050949097,-4.940284252,2024-06-04 14:07:14.381680
51.42224265,0.6787708998,6.254310131,-3.291015863,2024-06-04 14:07:14.422243
51.46269645,0.9123040438,5.833189011,-2.904989719,2024-06-04 14:07:14.462696
51.50321093,0.8772099018,3.472030163,-0.8824920654,2024-06-04 14:07:14.503211
51.54370104,-0.3432697058,-8.20339489,13.28059006,2024-06-04 14:07:14.543701
51.58415671,-0.6962498426,-4.09540081,3.110768318,2024-06-04 14:07:14.584157
51.62466161,3.149936676,2.507036209,-1.089357376,2024-06-04 14:07:14.624662
51.66514312,3.829578638,-10.92842197,5.234327316,2024-06-04 14:07:14.665143
51.70562557,-0.09606897831,5.60931778,-11.89170837,2024-06-04 14:07:14.705626
51.74611515,3.32075119,7.013400555,-6.753092289,2024-06-04 14:07:14.746115
51.78659588,2.418231487,0.628484726,-2.983374596,2024-06-04 14:07:14.786596
51.82705718,-8.415433884,-10.32746029,-1.296258688,2024-06-04 14:07:14.827057
51.86756906,-1.511099815,1.201545715,4.966057301,2024-06-04 14:07:14.867569
51.90806046,-0.4298343062,0.5552721024,-0.8475914001,2024-06-04 14:07:14.908060
51.94859739,0.05222904682,1.519499779,2.683916807,2024-06-04 14:07:14.948597
51.98905864,0.7151305676,2.740061283,1.449494481,2024-06-04 14:07:14.989059
52.02951234,1.425748348,1.53954792,-0.781511426,2024-06-04 14:07:15.029512
52.0699815,-0.2118993998,-1.37010479,-0.5226502419,2024-06-04 14:07:15.069981
52.11059796,-3.95517993,-2.365412712,13.91475677,2024-06-04 14:07:15.110598
52.15097437,-5.469257832,-3.516540527,2.36181879,2024-06-04 14:07:15.150974
52.19141661,-0.1106286049,-3.048948288,-1.62386179,2024-06-04 14:07:15.191417
52.23193104,-3.733864784,-5.672719955,5.856781483,2024-06-04 14:07:15.231931
52.27242114,1.865303993,-2.170625687,3.095909357,2024-06-04 14:07:15.272421
52.31292838,5.912403107,-2.744171143,-1.745795727,2024-06-04 14:07:15.312928
52.3534364,4.812961578,-3.864180565,-4.762089729,2024-06-04 14:07:15.353436
52.39391343,-1.140172005,-1.163529396,-5.74354887,2024-06-04 14:07:15.393913
52.43440036,-0.05794987082,-0.1398029327,-2.855947971,2024-06-04 14:07:15.434400
52.47488619,-0.2853605747,3.033560276,-9.167243004,2024-06-04 14:07:15.474886
52.51536062,0.003671228886,4.208957195,-4.442903996,2024-06-04 14:07:15.515361
52.55582802,1.935269356,5.44870472,-3.548217297,2024-06-04 14:07:15.555828
52.5963251,0.3038160801,5.940903664,-2.760261774,2024-06-04 14:07:15.596325
52.63683276,0.1035380363,2.563354492,3.051144361,2024-06-04 14:07:15.636833
52.67730953,1.042070866,-7.683423042,10.09376812,2024-06-04 14:07:15.677310
52.71776968,-1.418637514,-3.116832733,3.327831745,2024-06-04 14:07:15.717770
52.75827171,5.080488682,-4.635925293,1.598631859,2024-06-04 14:07:15.758272
52.79879151,3.484325886,-3.077671051,-2.368332386,2024-06-04 14:07:15.798792
52.83925286,1.97470665,7.843766212,-10.47552299,2024-06-04 14:07:15.839253
52.87974265,1.789986134,3.939509869,-5.174637318,2024-06-04 14:07:15.879743
52.92025515,-4.458942413,-9.667457581,-5.315029621,2024-06-04 14:07:15.920255
52.96075869,-6.497000694,-2.596581459,3.43234396,2024-06-04 14:07:15.960759
53.00120192,-0.1254371405,0.6547670364,2.51139164,2024-06-04 14:07:16.001202
53.04169432,-0.8446524739,1.183077812,0.7434870601,2024-06-04 14:07:16.041694
53.08213369,0.18443501,2.348299503,1.548499346,2024-06-04 14:07:16.082134
53.12262838,2.043619156,1.878353119,-0.1525225639,2024-06-04 14:07:16.122628
53.16314588,0.3161917925,0.8945713043,1.021947145,2024-06-04 14:07:16.163146
53.20363583,-2.036094904,-0.9422092438,4.12541151,2024-06-04 14:07:16.203636
53.2441252,-5.512141228,-2.567625046,8.768657684,2024-06-04 14:07:16.244125
53.28456432,-1.818493128,-2.54598999,-1.376538515,2024-06-04 14:07:16.284564
53.32506921,2.602662563,-1.582812309,1.485375524,2024-06-04 14:07:16.325069
53.36558416,-2.8290205,-5.978751183,7.42241478,2024-06-04 14:07:16.365584
53.40605822,-2.022838354,-4.251005173,2.322454214,2024-06-04 14:07:16.406058
53.44653078,4.488776207,-1.255104065,-0.4281564951,2024-06-04 14:07:16.446531
53.48704088,4.824436188,-3.645805359,-3.19918251,2024-06-04 14:07:16.487041
53.52752593,2.429811001,-1.741812706,-5.195820808,2024-06-04 14:07:16.527526
53.56802869,-4.131673813,-1.900362015,-4.443977356,2024-06-04 14:07:16.568029
53.60851963,-0.8282213211,1.159264565,-6.643146515,2024-06-04 14:07:16.608520
53.64898072,0.8196504712,4.763404846,-6.893292427,2024-06-04 14:07:16.648981
53.68946901,1.49821496,6.689964294,-4.525876999,2024-06-04 14:07:16.689469
53.72997708,1.302475214,7.165798187,-2.981908321,2024-06-04 14:07:16.729977
53.770444,1.62969625,3.792125702,-0.2146897316,2024-06-04 14:07:16.770444
53.8109552,-0.9225358367,-10.98654747,12.60735703,2024-06-04 14:07:16.810955
53.85141666,-2.027094364,-2.719731331,2.099709988,2024-06-04 14:07:16.851417
53.89186552,4.183790207,1.951115608,0.009588956833,2024-06-04 14:07:16.891866
53.93237843,2.886442184,-12.02807713,5.639172554,2024-06-04 14:07:16.932378
53.97287202,0.16708529,6.120942116,-14.86213303,2024-06-04 14:07:16.972872
54.01334161,3.17317152,7.068145752,-4.993623257,2024-06-04 14:07:17.013342
54.0538401,1.62348938,-1.670075417,-1.992237091,2024-06-04 14:07:17.053840
54.09431244,-6.732488632,-8.678750038,-10.47726631,2024-06-04 14:07:17.094312
54.13486302,-3.462373734,0.0807390213,15.28159809,2024-06-04 14:07:17.134863
54.17531843,-1.855497122,0.7943735123,-1.458179712,2024-06-04 14:07:17.175318
54.21577749,0.7329543829,1.971261978,1.857270122,2024-06-04 14:07:17.215777
54.25625057,2.802861214,1.905868053,2.273454428,2024-06-04 14:07:17.256251
54.2967465,-0.657292366,0.6335783005,-0.6244983673,2024-06-04 14:07:17.296746
54.33723557,-1.895869613,-1.013171196,2.587773323,2024-06-04 14:07:17.337236
54.3777163,-5.191396713,-2.539669991,8.351987839,2024-06-04 14:07:17.377716
54.41820921,-1.890952468,-2.331267357,-0.765329361,2024-06-04 14:07:17.418209
54.45873255,-2.510889769,-3.950671196,6.645818233,2024-06-04 14:07:17.458733
54.49922656,-3.780549526,-4.761461258,2.736513138,2024-06-04 14:07:17.499227
54.53969109,0.6530281305,-3.207183838,1.621973157,2024-06-04 14:07:17.539691
54.58019744,4.642557621,-4.516305923,-3.535000563,2024-06-04 14:07:17.580197
54.62062729,6.052379131,-3.290222168,-4.956695557,2024-06-04 14:07:17.620627
54.66111223,-0.1872024536,-1.115623474,-3.543532372,2024-06-04 14:07:17.661112
54.70157921,-1.691187143,0.0355348587,-4.841624737,2024-06-04 14:07:17.701579
54.7421014,-0.7270895839,3.524816036,-8.505322456,2024-06-04 14:07:17.742101
54.78256531,0.4842778444,5.540984631,-4.868472099,2024-06-04 14:07:17.782565
54.82305182,1.291297197,7.027201176,-4.860171795,2024-06-04 14:07:17.823052
54.86355874,0.4162945747,5.990231514,-2.342905521,2024-06-04 14:07:17.863559
54.90402999,2.143398762,-2.714064598,8.13856411,2024-06-04 14:07:17.904030
54.94455437,-3.860625505,-12.66818619,8.384529114,2024-06-04 14:07:17.944554
54.98504557,0.5478041768,5.808865547,-0.06842660904,2024-06-04 14:07:17.985046
55.02550447,4.902966499,0.4688529968,-3.449804783,2024-06-04 14:07:18.025504
55.06599802,7.243619919,-12.48740673,4.239930153,2024-06-04 14:07:18.065998
55.10648296,1.808775544,6.289633751,-14.73313713,2024-06-04 14:07:18.106483
55.14699406,2.341275215,4.851334095,-1.364261627,2024-06-04 14:07:18.146994
55.18746947,-0.5361940861,-5.806218147,0.3135166168,2024-06-04 14:07:18.187469
55.22795156,-5.957877636,-5.314065933,-8.038433075,2024-06-04 14:07:18.227952
55.2684965,-4.605101109,3.436870575,8.341808319,2024-06-04 14:07:18.268496
55.30887479,-1.664184451,0.3101816177,-0.1088366508,2024-06-04 14:07:18.308875
55.34939786,0.9006927013,1.831785202,1.224012375,2024-06-04 14:07:18.349398
55.38990874,2.059481144,2.005046368,4.148908615,2024-06-04 14:07:18.389909
55.43039734,-3.110403299,-1.130231857,2.907364368,2024-06-04 14:07:18.430397
55.47086421,-3.620654583,-1.487763405,3.529304743,2024-06-04 14:07:18.470864
55.5113039,-3.781318903,-2.576562881,1.496080875,2024-06-04 14:07:18.511304
55.55184833,1.210318565,-1.874082565,4.65631485,2024-06-04 14:07:18.551848
55.592304,-3.263230801,-5.100754738,3.388442516,2024-06-04 14:07:18.592304
55.63279656,-2.281758785,-4.163422585,3.993081808,2024-06-04 14:07:18.632797
55.67328281,2.415901423,-2.234653473,-2.287941933,2024-06-04 14:07:18.673283
55.71376145,4.541741371,-3.700223923,-2.366233826,2024-06-04 14:07:18.713761
55.75426057,4.454957008,-2.302459717,-4.609014511,2024-06-04 14:07:18.754261
55.79476921,-1.206009746,-0.8181600571,-3.268054247,2024-06-04 14:07:18.794769
55.83520729,-0.3231883645,1.281035423,-7.927150249,2024-06-04 14:07:18.835207
55.87572067,-0.1686086655,3.368269444,-5.9036026,2024-06-04 14:07:18.875721
55.91620885,1.580590725,6.225061417,-4.757946491,2024-06-04 14:07:18.916209
55.95669176,1.287463188,6.391633034,-3.657042503,2024-06-04 14:07:18.956692
55.99717494,0.7670856714,4.541937828,-0.8143863678,2024-06-04 14:07:18.997175
56.03767302,0.04241037369,-6.360590935,10.42934799,2024-06-04 14:07:19.037673
56.0781538,-4.483394623,-8.057598114,5.346539497,2024-06-04 14:07:19.078154
56.11863296,3.85859704,2.922577381,-0.01832556725,2024-06-04 14:07:19.118633
56.15917124,2.710363865,-12.41722202,5.889106274,2024-06-04 14:07:19.159171
56.19966026,2.115106583,7.302887917,-13.21918964,2024-06-04 14:07:19.199660
56.24016343,4.200567245,8.317363739,-5.840908051,2024-06-04 14:07:19.240163
56.28059317,5.046077728,1.158231735,-3.487624645,2024-06-04 14:07:19.280593
56.32107203,-6.647956848,-12.77377701,-7.075129509,2024-06-04 14:07:19.321072
56.36158536,-5.033514023,-0.7529315948,9.64018631,2024-06-04 14:07:19.361585
56.40209265,-1.70281136,1.067747116,-1.31185019,2024-06-04 14:07:19.402093
56.44254895,-1.639580131,1.871174812,1.465907574,2024-06-04 14:07:19.442549
56.48303291,0.578717947,2.414218903,1.580418468,2024-06-04 14:07:19.483033
56.52350192,1.510308862,0.9721574783,1.138653755,2024-06-04 14:07:19.523502
56.56397557,-1.601290941,-0.6574993134,3.995505333,2024-06-04 14:07:19.563976
56.60447416,-1.759498477,-1.312088013,3.302987099,2024-06-04 14:07:19.604474
56.64495364,-4.405533791,-2.738517761,4.42573452,2024-06-04 14:07:19.644954
56.68543927,-1.365043402,-2.611330986,2.600002289,2024-06-04 14:07:19.685439
56.7259415,-1.900330424,-2.976346016,6.4610219,2024-06-04 14:07:19.725941
56.76643796,-4.263148308,-5.749702454,3.287535429,2024-06-04 14:07:19.766438
56.80691692,0.7608081102,-3.474476814,-0.2939115167,2024-06-04 14:07:19.806917
56.84739458,3.764778614,-4.32957077,-4.957287312,2024-06-04 14:07:19.847395
56.88788661,6.705069065,-4.822135925,-4.848004341,2024-06-04 14:07:19.887887
56.92840015,-0.9103872776,-1.945949554,-1.566669941,2024-06-04 14:07:19.928400
56.96887036,-1.76124835,1.163824081,-7.42108345,2024-06-04 14:07:19.968870
57.0093402,-1.014810801,4.214696884,-7.083670616,2024-06-04 14:07:20.009340
57.04982546,1.110192299,5.714344025,-5.047518253,2024-06-04 14:07:20.049825
57.09031432,1.913840175,6.417888165,-4.252809525,2024-06-04 14:07:20.090314
57.13079026,0.04204940796,2.798568249,0.4350268841,2024-06-04 14:07:20.130790
57.17124963,0.4055460691,-2.929784775,6.562553883,2024-06-04 14:07:20.171250
57.21172661,-1.37105906,-3.164169312,5.341979027,2024-06-04 14:07:20.211727
57.25229317,-1.569599748,1.625505447,0.6484236717,2024-06-04 14:07:20.252293
57.2927438,0.5617008209,6.514492035,1.025923729,2024-06-04 14:07:20.292744
57.33322208,12.70913506,-14.33078384,3.891419649,2024-06-04 14:07:20.333222
57.37373338,-1.399119377,0.5833072662,-12.12313271,2024-06-04 14:07:20.373733
57.41420057,3.004236221,5.274918556,-5.098667145,2024-06-04 14:07:20.414201
57.45467828,1.889528036,0.4982643127,-1.718819141,2024-06-04 14:07:20.454678
57.49520203,-7.816679478,-9.267807007,-8.390264511,2024-06-04 14:07:20.495202
57.53564526,-5.646053791,1.225093842,7.966576099,2024-06-04 14:07:20.535645
57.57615661,-1.302095056,0.7304430008,-0.2930567265,2024-06-04 14:07:20.576157
57.61661947,0.6370120049,1.047754288,2.220005035,2024-06-04 14:07:20.616619
57.65710848,1.476299286,2.721687794,0.4717546701,2024-06-04 14:07:20.657108
57.69759046,2.559649467,2.59663868,-1.1498878,2024-06-04 14:07:20.697590
57.73810953,-3.715907574,-3.198142052,6.591081619,2024-06-04 14:07:20.738110
57.77860901,-4.455832481,-3.355892181,8.441157341,2024-06-04 14:07:20.778609
57.81904609,-1.81223917,-2.506364822,-0.1471612453,2024-06-04 14:07:20.819046
57.85955322,-3.24503231,-3.823369026,4.508943558,2024-06-04 14:07:20.859553
57.90004093,-3.489216328,-5.598966599,2.865590096,2024-06-04 14:07:20.900041
57.94052426,0.5437904596,-2.295619965,2.059425831,2024-06-04 14:07:20.940524
57.98100447,3.8663311,-3.207885742,-3.713796616,2024-06-04 14:07:20.981004
58.02149067,6.569493771,-4.181248665,-4.81147337,2024-06-04 14:07:21.021491
58.06197442,0.5572319031,-0.8511199951,-2.078187227,2024-06-04 14:07:21.061974
58.10249192,-1.315431356,0.3226928711,-5.433788776,2024-06-04 14:07:21.102492
58.1429415,-1.843866706,2.857136726,-7.952156544,2024-06-04 14:07:21.142941
58.18344416,-1.411888599,4.507920742,-6.178015709,2024-06-04 14:07:21.183444
58.22392416,1.726645589,6.758379936,-4.213394642,2024-06-04 14:07:21.223924
58.26440166,0.8123451471,5.709170341,-2.667807102,2024-06-04 14:07:21.264402
58.30486718,1.230266452,1.394421101,3.29640007,2024-06-04 14:07:21.304867
58.3453801,-0.6799446344,-7.81522274,10.15355015,2024-06-04 14:07:21.345380
58.38589708,-1.927594662,-1.244794846,0.859940052,2024-06-04 14:07:21.385897
58.42635426,4.24893856,-0.3373708725,1.628534555,2024-06-04 14:07:21.426354
58.46684026,6.306679726,-12.00690174,2.582893848,2024-06-04 14:07:21.466840
58.50733661,2.437084198,8.911911011,-13.86175346,2024-06-04 14:07:21.507337
58.54780729,2.719514132,6.163467407,-4.377151489,2024-06-04 14:07:21.547807
58.58834828,1.024102926,-4.785595894,-3.288451195,2024-06-04 14:07:21.588348
58.62882015,-7.369047165,-8.316308022,-9.828032494,2024-06-04 14:07:21.628820
58.66932151,-5.516436577,0.4041585922,12.61576176,2024-06-04 14:07:21.669322
58.7097651,-1.019995332,1.142033577,-1.540333748,2024-06-04 14:07:21.709765
58.75025786,-0.8860141039,2.426770687,1.460597038,2024-06-04 14:07:21.750258
58.79074911,1.141320944,3.128482342,1.262850881,2024-06-04 14:07:21.790749
58.8311952,2.57416296,0.7966804504,0.03352689743,2024-06-04 14:07:21.831195
58.87167145,-2.667990923,-2.409718513,7.381479263,2024-06-04 14:07:21.871671
58.9122327,-6.524653912,-3.2914114,5.85360384,2024-06-04 14:07:21.912233
58.95267541,-2.020045519,-1.821586609,-0.8979187012,2024-06-04 14:07:21.952675
58.99317739,-2.221479654,-4.020245552,5.128257751,2024-06-04 14:07:21.993177
59.03365838,-2.785052299,-5.988361359,5.558431625,2024-06-04 14:07:22.033658
59.07413942,0.9732087851,-2.808831215,0.403100729,2024-06-04 14:07:22.074139
59.1146389,3.950525761,-4.022496223,-4.585968018,2024-06-04 14:07:22.114639
59.15513588,7.335147381,-4.328322411,-3.924515486,2024-06-04 14:07:22.155136
59.19560572,-0.8204677105,-1.043148994,-3.776733875,2024-06-04 14:07:22.195606
59.23608718,-1.896202803,1.072545052,-5.798436165,2024-06-04 14:07:22.236087
59.27656552,-1.077873349,3.740069389,-8.076337814,2024-06-04 14:07:22.276566
59.31703635,1.21682322,6.440526485,-4.647347927,2024-06-04 14:07:22.317036
59.35753041,1.908995986,7.251776218,-4.504356384,2024-06-04 14:07:22.357530
59.39803411,0.3053798676,5.461305618,-1.749334574,2024-06-04 14:07:22.398034
59.43855968,0.1959326267,-7.644636154,12.04997921,2024-06-04 14:07:22.438560
59.47905296,-2.679690838,-6.477794647,3.814985275,2024-06-04 14:07:22.479053
59.51952702,2.9601717,3.35064888,0.02755093575,2024-06-04 14:07:22.519527
59.56003291,4.22110939,-13.55671024,5.784181595,2024-06-04 14:07:22.560033
59.6005389,2.92622304,6.60306263,-13.67782116,2024-06-04 14:07:22.600539
59.64092635,3.786175728,8.119924545,-6.061559677,2024-06-04 14:07:22.640926
59.68141161,4.136769772,0.5170345306,-2.705125093,2024-06-04 14:07:22.681412
59.72190197,-8.468519211,-13.26889038,-7.628534794,2024-06-04 14:07:22.721902
59.7624352,-7.161212921,0.3081359863,8.85898304,2024-06-04 14:07:22.762435
59.80294614,-0.2879302502,0.7405443192,-0.3969268501,2024-06-04 14:07:22.802946
59.84337124,-0.2021483183,1.624968529,1.761550426,2024-06-04 14:07:22.843371
59.88387526,3.535763264,3.562011719,0.8336722255,2024-06-04 14:07:22.883875
59.92439697,1.663473964,1.344083786,-1.96382165,2024-06-04 14:07:22.924397
59.96485281,-2.420853138,-1.92552948,7.198023796,2024-06-04 14:07:22.964853
60.00536249,-2.874134541,-2.555615425,6.265679359,2024-06-04 14:07:23.005362
60.04587192,-2.932283401,-2.348052979,0.05717206001,2024-06-04 14:07:23.045872
60.08629203,-1.680738926,-4.077647209,3.76213026,2024-06-04 14:07:23.086292
60.12679583,-4.756062031,-6.049035072,2.565166473,2024-06-04 14:07:23.126796
60.16727104,0.2020725012,-2.002737999,3.166878223,2024-06-04 14:07:23.167271
60.20775473,3.151972055,-1.782104492,-0.1663150787,2024-06-04 14:07:23.207755
60.24827692,2.845099926,-5.226092339,-4.338186264,2024-06-04 14:07:23.248277
60.28870692,2.825852394,-2.457037926,-5.416547298,2024-06-04 14:07:23.288707
60.32922781,1.577145576,-0.2248830795,-2.317309618,2024-06-04 14:07:23.329228
60.36974572,-1.127876759,0.3304080963,-6.679713249,2024-06-04 14:07:23.369746
60.41028229,-2.409819126,3.172623634,-6.300830841,2024-06-04 14:07:23.410282
60.45070786,1.971654058,6.430340767,-4.565495968,2024-06-04 14:07:23.450708
60.49119822,3.368396282,6.795365334,-4.729667664,2024-06-04 14:07:23.491198
60.53166515,1.625224113,5.291688442,-2.85397172,2024-06-04 14:07:23.531665
60.57212427,-0.3995808363,0.3786287308,4.245990276,2024-06-04 14:07:23.572124
60.61262291,-0.9017224908,-7.39581871,8.129369736,2024-06-04 14:07:23.612623
60.65310947,-3.911204338,-0.7631511688,1.27763629,2024-06-04 14:07:23.653109
60.69360776,2.658076763,1.533773899,-1.151287913,2024-06-04 14:07:23.693608
60.73408385,6.141617775,-15.60937786,7.788850784,2024-06-04 14:07:23.734084
60.77462494,4.277153015,9.41829586,-13.53320885,2024-06-04 14:07:23.774625
60.81509036,4.568971634,6.312124252,-3.427759171,2024-06-04 14:07:23.815090
60.85554026,-0.8058159351,-3.134646416,-2.681714535,2024-06-04 14:07:23.855540
60.89603317,-8.182141304,-6.73306179,-3.617800236,2024-06-04 14:07:23.896033
60.93652406,-5.401717663,0.4292974472,4.309660435,2024-06-04 14:07:23.936524
60.97701364,0.2222163677,0.4254264832,-0.04231315851,2024-06-04 14:07:23.977014
61.01750291,-0.3729931116,1.403934479,2.447040319,2024-06-04 14:07:24.017503
61.05798583,1.223210812,2.246716976,1.287024736,2024-06-04 14:07:24.057986
61.09842583,2.055470943,1.601255417,0.4384710789,2024-06-04 14:07:24.098426
61.13899364,-1.694356561,-1.045366287,3.050474644,2024-06-04 14:07:24.138994
61.17942624,-5.211292267,-2.916757584,8.12114048,2024-06-04 14:07:24.179426
61.21992218,-1.483706236,-1.864460945,-0.8559832573,2024-06-04 14:07:24.219922
61.26039578,0.3244899511,-1.428183556,5.534285069,2024-06-04 14:07:24.260396
61.3008702,-3.699965715,-5.545416832,4.731759071,2024-06-04 14:07:24.300870
61.34147218,-1.972753763,-3.390516281,1.529205203,2024-06-04 14:07:24.341472
61.38185161,3.623452663,-2.894475937,-4.311396122,2024-06-04 14:07:24.381852
61.4223688,6.453969002,-4.519675255,-3.168170929,2024-06-04 14:07:24.422369
61.46283062,3.973032951,-2.56668663,-1.732133508,2024-06-04 14:07:24.462831
61.50331781,-3.116078615,-0.5880203247,-4.651922703,2024-06-04 14:07:24.503318
61.54382692,-1.266804099,2.201662064,-5.975595474,2024-06-04 14:07:24.543827
61.58429176,0.619535327,5.418532372,-6.438816547,2024-06-04 14:07:24.584292
61.62477973,3.199133873,7.376145363,-3.9745965,2024-06-04 14:07:24.624780
61.66528989,2.627268314,6.492641449,-3.395304918,2024-06-04 14:07:24.665290
61.70576421,1.714383483,2.673723221,0.5338709354,2024-06-04 14:07:24.705764
61.74623281,-0.1263478994,-8.890561104,11.39220142,2024-06-04 14:07:24.746233
61.78673952,-4.387294292,-3.356453896,3.561896086,2024-06-04 14:07:24.786740
61.82722364,2.07488966,4.473109245,0.3470160961,2024-06-04 14:07:24.827224
61.86767124,4.479569435,-11.68808365,5.393456459,2024-06-04 14:07:24.867671
61.90818057,2.213781595,0.5121583939,-11.2244854,2024-06-04 14:07:24.908181
61.94871286,4.540616989,7.718373775,-6.882838726,2024-06-04 14:07:24.948713
61.98914093,4.030442238,2.704454422,-1.23925209,2024-06-04 14:07:24.989141
62.02965671,-7.386046886,-10.36155701,-7.803309917,2024-06-04 14:07:25.029657
62.0701664,-5.600855827,-1.112413406,7.331881523,2024-06-04 14:07:25.070166
