Time (s),Acceleration x (m/s^2),Acceleration y (m/s^2),Acceleration z (m/s^2),Datetime
0.0,3.190829039,7.6896348,5.488237858,2024-06-04 14:17:41.000000
0.017200522,2.553740025,7.390232563,6.719345093,2024-06-04 14:17:41.017201
0.057200522,2.82682085,7.310970306,6.333801746,2024-06-04 14:17:41.057201
0.097200522,3.468695641,7.098009109,5.202893734,2024-06-04 14:17:41.097201
0.137200522,2.299801588,7.569694519,5.095216751,2024-06-04 14:17:41.137201
0.177200522,2.865106106,6.194718838,5.217250824,2024-06-04 14:17:41.177201
0.217200522,2.865106106,6.194718838,5.217250824,2024-06-04 14:17:41.217201
0.257200522,4.697709084,7.656135082,6.58654356,2024-06-04 14:17:41.257201
0.297200522,-0.07298108935,4.681856632,6.060720444,2024-06-04 14:17:41.297201
0.337200522,-1.906780601,3.790829182,14.22682571,2024-06-04 14:17:41.337201
0.377200522,-1.45633173,6.537191391,9.922138214,2024-06-04 14:17:41.377201
0.417200522,-0.4791627228,6.183950901,7.928019524,2024-06-04 14:17:41.417201
0.457200522,1.58703959,3.673580885,5.030610561,2024-06-04 14:17:41.457201
0.497200522,0.9882357717,4.458127499,8.465806961,2024-06-04 14:17:41.497201
0.537200522,0.9882357717,4.458127499,8.465806961,2024-06-04 14:17:41.537201
0.577200522,0.9882357717,4.458127499,8.465806961,2024-06-04 14:17:41.577201
0.617200522,0.9882357717,4.458127499,8.465806961,2024-06-04 14:17:41.617201
0.657200522,0.9882357717,4.458127499,8.465806961,2024-06-04 14:17:41.657201
0.697200522,0.9882357717,4.458127499,8.465806961,2024-06-04 14:17:41.697201
0.737200522,0.9882357717,4.458127499,8.465806961,2024-06-04 14:17:41.737201
0.777200522,0.9882357717,4.458127499,8.465806961,2024-06-04 14:17:41.777201
0.817200522,0.9882357717,4.458127499,8.465806961,2024-06-04 14:17:41.817201
0.857200522,0.9882357717,4.458127499,8.465806961,2024-06-04 14:17:41.857201
0.897200522,0.9882357717,4.458127499,8.465806961,2024-06-04 14:17:41.897201
0.937200522,0.9882357717,4.458127499,8.465806961,2024-06-04 14:17:41.937201
0.977200522,0.9882357717,4.458127499,8.465806961,2024-06-04 14:17:41.977201
1.017200522,0.9882357717,4.458127499,8.465806961,2024-06-04 14:17:42.017201
1.057200522,0.9882357717,4.458127499,8.465806961,2024-06-04 14:17:42.057201
1.097200522,0.9882357717,4.458127499,8.465806961,2024-06-04 14:17:42.097201
1.137200522,0.9882357717,4.458127499,8.465806961,2024-06-04 14:17:42.137201
1.177200522,0.9882357717,4.458127499,8.465806961,2024-06-04 14:17:42.177201
1.217200522,0.9882357717,4.458127499,8.465806961,2024-06-04 14:17:42.217201
1.257200522,0.9882357717,4.458127499,8.465806961,2024-06-04 14:17:42.257201
1.297200522,0.8682954907,5.87258482,8.566305161,2024-06-04 14:17:42.297201
1.337200522,-0.5258227587,6.840481758,7.662117004,2024-06-04 14:17:42.337201
1.377200522,1.737787485,9.208179474,8.443074226,2024-06-04 14:17:42.377201
1.417200522,-1.297209024,5.255835056,7.477570534,2024-06-04 14:17:42.417201
1.457200522,2.809772015,6.969694138,4.735994339,2024-06-04 14:17:42.457201
1.497200522,-0.08374879509,6.036792278,5.330012321,2024-06-04 14:17:42.497201
1.537200522,3.410071373,5.139483929,8.752047539,2024-06-04 14:17:42.537201
1.577200522,0.7618148923,4.843671322,7.72911644,2024-06-04 14:17:42.577201
1.617200522,1.709073544,4.678267479,8.838189125,2024-06-04 14:17:42.617201
1.657200522,2.889034271,4.926223755,6.720541477,2024-06-04 14:17:42.657201
1.697200522,3.060121059,6.720541477,6.11097002,2024-06-04 14:17:42.697201
1.737200522,4.352544308,5.895316601,5.752644539,2024-06-04 14:17:42.737201
1.777200522,2.446960211,3.869792461,8.77836895,2024-06-04 14:17:42.777201
1.817200522,3.335594654,2.93090868,8.166404724,2024-06-04 14:17:42.817201
1.857200522,5.006682396,3.164507866,7.453642368,2024-06-04 14:17:42.857201
1.897200522,2.467299223,2.940479994,6.333801746,2024-06-04 14:17:42.897201
1.937200522,0.5222335458,3.451945782,3.251846075,2024-06-04 14:17:42.937201
1.977200522,-0.803689301,3.195614576,4.663910389,2024-06-04 14:17:42.977201
2.017200522,-1.557129383,3.335594654,7.276274681,2024-06-04 14:17:43.017201
2.057200522,-5.575575829,2.976372242,8.11824894,2024-06-04 14:17:43.057201
2.097200522,-6.633203506,2.875873804,6.405586243,2024-06-04 14:17:43.097201
2.137200522,-10.90439224,1.716252089,5.070092201,2024-06-04 14:17:43.137201
2.177200522,-12.33799171,2.48883462,3.299702406,2024-06-04 14:17:43.177201
2.217200522,-12.33799171,2.48883462,3.299702406,2024-06-04 14:17:43.217201
2.257200522,-12.33799171,2.48883462,3.299702406,2024-06-04 14:17:43.257201
2.297200522,-12.33799171,2.48883462,3.299702406,2024-06-04 14:17:43.297201
2.337200522,-12.33799171,2.48883462,3.299702406,2024-06-04 14:17:43.337201
2.377200522,-12.33799171,2.48883462,3.299702406,2024-06-04 14:17:43.377201
2.417200522,-12.33799171,2.48883462,3.299702406,2024-06-04 14:17:43.417201
2.457200522,-12.33799171,2.48883462,3.299702406,2024-06-04 14:17:43.457201
2.497200522,-12.33799171,2.48883462,3.299702406,2024-06-04 14:17:43.497201
2.537200522,-12.33799171,2.48883462,3.299702406,2024-06-04 14:17:43.537201
2.577200522,-12.33799171,2.48883462,3.299702406,2024-06-04 14:17:43.577201
2.617200522,-12.33799171,2.48883462,3.299702406,2024-06-04 14:17:43.617201
2.657200522,-12.33799171,2.48883462,3.299702406,2024-06-04 14:17:43.657201
2.697200522,-12.33799171,2.48883462,3.299702406,2024-06-04 14:17:43.697201
2.737200522,-12.33799171,2.48883462,3.299702406,2024-06-04 14:17:43.737201
2.777200522,-12.33799171,2.48883462,3.299702406,2024-06-04 14:17:43.777201
2.817200522,-12.33799171,2.48883462,3.299702406,2024-06-04 14:17:43.817201
2.857200522,-12.33799171,2.48883462,3.299702406,2024-06-04 14:17:43.857201
2.897200522,-12.33799171,2.48883462,3.299702406,2024-06-04 14:17:43.897201
2.937200522,-3.863810301,-1.754836321,4.317848682,2024-06-04 14:17:43.937201
2.977200522,-11.30309582,-3.786043644,5.501398563,2024-06-04 14:17:43.977201
3.017200522,-10.5293169,-6.233004093,4.549055099,2024-06-04 14:17:44.017201
3.057200522,-7.393822193,-7.159026146,5.796014786,2024-06-04 14:17:44.057201
3.097200522,-7.984251022,-5.167001247,5.566004753,2024-06-04 14:17:44.097201
3.137200522,-3.868596077,-0.7019943595,5.931209087,2024-06-04 14:17:44.137201
3.177200522,-7.366304398,-2.817249537,6.030810356,2024-06-04 14:17:44.177201
3.217200522,-7.355237484,-2.651845694,6.532405853,2024-06-04 14:17:44.217201
3.257200522,-6.873981476,-1.500898004,7.121937275,2024-06-04 14:17:44.257201
3.297200522,-7.282256603,0.4803591371,6.466603279,2024-06-04 14:17:44.297201
3.337200522,-8.571090698,-3.914358854,6.852446079,2024-06-04 14:17:44.337201
3.377200522,-6.701398849,-1.19880414,5.752644539,2024-06-04 14:17:44.377201
3.417200522,-5.503791332,0.8862416744,6.133701801,2024-06-04 14:17:44.417201
3.457200522,-7.990232944,-3.097508907,7.798508167,2024-06-04 14:17:44.457201
3.497200522,-6.866802692,1.009771109,6.223432541,2024-06-04 14:17:44.497201
3.537200522,-7.092027187,-2.627917528,6.442675114,2024-06-04 14:17:44.537201
3.577200522,-7.85234642,1.582253933,6.34815836,2024-06-04 14:17:44.577201
3.617200522,-5.102395058,0.7474579811,9.101698875,2024-06-04 14:17:44.617201
3.657200522,-5.652146339,-2.369193554,5.606682777,2024-06-04 14:17:44.657201
3.697200522,-11.13559818,-6.457031727,6.845267296,2024-06-04 14:17:44.697201
3.737200522,-8.777172089,-4.256831646,7.212864876,2024-06-04 14:17:44.737201
3.777200522,-6.664309978,-3.721437454,4.940580368,2024-06-04 14:17:44.777201
3.817200522,-7.350451946,-3.618546009,4.464109898,2024-06-04 14:17:44.817201
3.857200522,-7.350451946,-3.618546009,4.464109898,2024-06-04 14:17:44.857201
3.897200522,-7.350451946,-3.618546009,4.464109898,2024-06-04 14:17:44.897201
3.937200522,-7.350451946,-3.618546009,4.464109898,2024-06-04 14:17:44.937201
3.977200522,-7.350451946,-3.618546009,4.464109898,2024-06-04 14:17:44.977201
4.017200522,-7.350451946,-3.618546009,4.464109898,2024-06-04 14:17:45.017201
4.057200522,-7.350451946,-3.618546009,4.464109898,2024-06-04 14:17:45.057201
4.097200522,-7.350451946,-3.618546009,4.464109898,2024-06-04 14:17:45.097201
4.137200522,-7.350451946,-3.618546009,4.464109898,2024-06-04 14:17:45.137201
4.177200522,-7.350451946,-3.618546009,4.464109898,2024-06-04 14:17:45.177201
4.217200522,-7.350451946,-3.618546009,4.464109898,2024-06-04 14:17:45.217201
4.257200522,-7.350451946,-3.618546009,4.464109898,2024-06-04 14:17:45.257201
4.297200522,-7.350451946,-3.618546009,4.464109898,2024-06-04 14:17:45.297201
4.337200522,-7.350451946,-3.618546009,4.464109898,2024-06-04 14:17:45.337201
4.377200522,-7.350451946,-3.618546009,4.464109898,2024-06-04 14:17:45.377201
4.417200522,-7.350451946,-3.618546009,4.464109898,2024-06-04 14:17:45.417201
4.457200522,-7.350451946,-3.618546009,4.464109898,2024-06-04 14:17:45.457201
4.497200522,-7.350451946,-3.618546009,4.464109898,2024-06-04 14:17:45.497201
4.537200522,-7.350451946,-3.618546009,4.464109898,2024-06-04 14:17:45.537201
4.577200522,-6.609275341,-2.63389945,6.707380772,2024-06-04 14:17:45.577201
4.617200522,-7.042675018,-2.249253273,6.318248272,2024-06-04 14:17:45.617201
4.657200522,-6.942176819,-2.011167526,7.099205494,2024-06-04 14:17:45.657201
4.697200522,-6.302694798,-1.93190515,5.823532104,2024-06-04 14:17:45.697201
4.737200522,-7.402196884,-2.691327333,5.852245808,2024-06-04 14:17:45.737201
4.777200522,-7.48833847,-2.436192513,6.417550564,2024-06-04 14:17:45.777201
4.817200522,-6.858428001,-2.324926376,5.82233572,2024-06-04 14:17:45.817201
4.857200522,-7.070192814,-2.26241374,6.331408501,2024-06-04 14:17:45.857201
4.897200522,-7.450053215,-2.390728951,5.900102615,2024-06-04 14:17:45.897201
4.937200522,-6.771986961,-3.35862565,5.892923832,2024-06-04 14:17:45.937201
4.977200522,-7.167401314,-3.241078377,7.222435951,2024-06-04 14:17:45.977201
5.017200522,-8.081160545,-3.693919897,7.861917973,2024-06-04 14:17:46.017201
5.057200522,-7.810472012,-2.997907639,7.515855789,2024-06-04 14:17:46.057201
5.097200522,-9.889835358,-2.44935298,7.48833847,2024-06-04 14:17:46.097201
5.137200522,-7.176972389,-2.091326952,4.037589073,2024-06-04 14:17:46.137201
5.177200522,-4.381258488,-0.1666002721,3.956233025,2024-06-04 14:17:46.177201
5.217200522,-5.871388435,-1.3522439,5.504987717,2024-06-04 14:17:46.217201
5.257200522,-6.480959892,-0.9798609018,6.204289913,2024-06-04 14:17:46.257201
5.297200522,-6.731309414,-0.9173483849,6.228218079,2024-06-04 14:17:46.297201
5.337200522,-8.148159027,-1.033699393,8.09671402,2024-06-04 14:17:46.337201
5.377200522,-7.916055679,-0.8312067389,5.754140377,2024-06-04 14:17:46.377201
5.417200522,-6.345765591,-0.6634100676,6.658328056,2024-06-04 14:17:46.417201
5.457200522,-8.050053596,-1.242174029,5.890531063,2024-06-04 14:17:46.457201
5.497200522,-8.050053596,-1.242174029,5.890531063,2024-06-04 14:17:46.497201
5.537200522,-8.050053596,-1.242174029,5.890531063,2024-06-04 14:17:46.537201
5.577200522,-8.050053596,-1.242174029,5.890531063,2024-06-04 14:17:46.577201
5.617200522,-7.7398839,-0.9149555564,5.868995667,2024-06-04 14:17:46.617201
5.657200522,-7.7398839,-0.9149555564,5.868995667,2024-06-04 14:17:46.657201
5.697200522,-7.7398839,-0.9149555564,5.868995667,2024-06-04 14:17:46.697201
5.737200522,-7.7398839,-0.9149555564,5.868995667,2024-06-04 14:17:46.737201
5.777200522,-7.7398839,-0.9149555564,5.868995667,2024-06-04 14:17:46.777201
5.817200522,-7.7398839,-0.9149555564,5.868995667,2024-06-04 14:17:46.817201
5.857200522,-7.272685528,-0.8527421951,6.004190445,2024-06-04 14:17:46.857201
5.897200522,-7.272685528,-0.8527421951,6.004190445,2024-06-04 14:17:46.897201
5.937200522,-7.272685528,-0.8527421951,6.004190445,2024-06-04 14:17:46.937201
5.977200522,-7.272685528,-0.8527421951,6.004190445,2024-06-04 14:17:46.977201
6.017200522,-7.272685528,-0.8527421951,6.004190445,2024-06-04 14:17:47.017201
6.057200522,-7.272685528,-0.8527421951,6.004190445,2024-06-04 14:17:47.057201
6.097200522,-7.272685528,-0.8527421951,6.004190445,2024-06-04 14:17:47.097201
6.137200522,-7.272685528,-0.8527421951,6.004190445,2024-06-04 14:17:47.137201
6.177200522,-7.272685528,-0.8527421951,6.004190445,2024-06-04 14:17:47.177201
6.217200522,-7.272685528,-0.8527421951,6.004190445,2024-06-04 14:17:47.217201
6.257200522,-7.612765312,-0.7115656137,6.035595894,2024-06-04 14:17:47.257201
6.297200522,-7.662117004,-0.751047194,5.983851433,2024-06-04 14:17:47.297201
6.337200522,-7.588837147,-0.8144569993,6.069095612,2024-06-04 14:17:47.337201
6.377200522,-7.500302792,-0.8802596331,6.119344711,2024-06-04 14:17:47.377201
6.417200522,-7.424928665,-0.8994022012,6.236593246,2024-06-04 14:17:47.417201
6.457200522,-7.288238525,-0.8754739761,6.336194515,2024-06-04 14:17:47.457201
6.497200522,-7.217650414,-0.8682954907,6.394818306,2024-06-04 14:17:47.497201
6.537200522,-7.371089935,-0.9041878581,6.610471725,2024-06-04 14:17:47.537201
6.577200522,-8.386544228,-1.43359983,7.26431036,2024-06-04 14:17:47.577201
6.617200522,-8.023732185,-0.7666005492,5.14785862,2024-06-04 14:17:47.617201
6.657200522,-7.23918581,-0.06340979785,4.285545349,2024-06-04 14:17:47.657201
6.697200522,-7.973483086,-0.2862414122,5.432903767,2024-06-04 14:17:47.697201
6.737200522,-8.091927528,-0.5952146053,5.347958565,2024-06-04 14:17:47.737201
6.777200522,-7.97467947,-0.7486543655,5.729912758,2024-06-04 14:17:47.777201
6.817200522,-7.597211838,-0.5988038778,6.206682682,2024-06-04 14:17:47.817201
6.857200522,-7.686045647,-0.9125627279,6.205486298,2024-06-04 14:17:47.857201
6.897200522,-7.379465103,-0.6179464459,5.459224701,2024-06-04 14:17:47.897201
6.937200522,-7.034300327,-0.1689931005,5.71435976,2024-06-04 14:17:47.937201
6.977200522,-7.17457962,-0.6912266612,5.842674732,2024-06-04 14:17:47.977201
7.017200522,-7.657331467,-1.453938842,6.746862411,2024-06-04 14:17:48.017201
7.057200522,-6.90030241,-0.3652045429,6.429514408,2024-06-04 14:17:48.057201
7.097200522,-7.130312443,-0.8347960114,6.148058891,2024-06-04 14:17:48.097201
7.137200522,-7.961519241,-1.164108157,6.088238239,2024-06-04 14:17:48.137201
7.177200522,-7.961519241,-1.164108157,6.088238239,2024-06-04 14:17:48.177201
7.217200522,-7.961519241,-1.164108157,6.088238239,2024-06-04 14:17:48.217201
7.257200522,-7.961519241,-1.164108157,6.088238239,2024-06-04 14:17:48.257201
7.297200522,-7.961519241,-1.164108157,6.088238239,2024-06-04 14:17:48.297201
7.337200522,-7.961519241,-1.164108157,6.088238239,2024-06-04 14:17:48.337201
7.377200522,-7.961519241,-1.164108157,6.088238239,2024-06-04 14:17:48.377201
7.417200522,-7.961519241,-1.164108157,6.088238239,2024-06-04 14:17:48.417201
7.457200522,-7.961519241,-1.164108157,6.088238239,2024-06-04 14:17:48.457201
7.497200522,-7.961519241,-1.164108157,6.088238239,2024-06-04 14:17:48.497201
7.537200522,-7.961519241,-1.164108157,6.088238239,2024-06-04 14:17:48.537201
7.577200522,-7.961519241,-1.164108157,6.088238239,2024-06-04 14:17:48.577201
7.617200522,-7.961519241,-1.164108157,6.088238239,2024-06-04 14:17:48.617201
7.657200522,-7.961519241,-1.164108157,6.088238239,2024-06-04 14:17:48.657201
7.697200522,-7.961519241,-1.164108157,6.088238239,2024-06-04 14:17:48.697201
7.737200522,-7.961519241,-1.164108157,6.088238239,2024-06-04 14:17:48.737201
7.777200522,-7.961519241,-1.164108157,6.088238239,2024-06-04 14:17:48.777201
7.817200522,-7.961519241,-1.164108157,6.088238239,2024-06-04 14:17:48.817201
7.857200522,-7.961519241,-1.164108157,6.088238239,2024-06-04 14:17:48.857201
7.897200522,-7.517052174,-1.394118309,6.08225584,2024-06-04 14:17:48.897201
7.937200522,-7.121937275,-1.279262781,6.09661293,2024-06-04 14:17:48.937201
7.977200522,-7.270292282,-1.343868971,6.276074886,2024-06-04 14:17:48.977201
8.017200522,-7.5421772,-1.290030479,6.209075451,2024-06-04 14:17:49.017201
8.057200522,-7.452445984,-1.40847528,6.024828434,2024-06-04 14:17:49.057201
8.097200522,-7.350451946,-1.533201098,6.128916264,2024-06-04 14:17:49.097201
8.137200522,-7.363911629,-1.458724499,6.302694798,2024-06-04 14:17:49.137201
8.177200522,-7.252346516,-1.573879123,6.120541096,2024-06-04 14:17:49.177201
8.217200522,-7.316952705,-1.101894855,6.206682682,2024-06-04 14:17:49.217201
8.257200522,-7.464410305,-1.104287624,6.143272877,2024-06-04 14:17:49.257201
8.297200522,-7.568498135,-1.388136268,6.088238239,2024-06-04 14:17:49.297201
8.337200522,-7.403393269,-1.490130305,5.99940443,2024-06-04 14:17:49.337201
8.377200522,-7.333702087,-1.588235974,6.047560215,2024-06-04 14:17:49.377201
8.417200522,-7.333702087,-1.573879123,6.075077534,2024-06-04 14:17:49.417201
8.457200522,-7.360322475,-1.478166223,6.242575169,2024-06-04 14:17:49.457201
8.497200522,-7.261917591,-1.349851131,6.20070076,2024-06-04 14:17:49.497201
8.537200522,-7.409375191,-1.347458243,6.112166405,2024-06-04 14:17:49.537201
8.577200522,-7.35763073,-1.346261859,6.142076492,2024-06-04 14:17:49.577201
8.617200522,-7.463213921,-1.516451359,6.128916264,2024-06-04 14:17:49.617201
8.657200522,-7.4010005,-1.680359721,6.087041855,2024-06-04 14:17:49.657201
8.697200522,-7.399804115,-1.637288928,6.099005699,2024-06-04 14:17:49.697201
8.737200522,-7.428517818,-1.697109461,6.02363205,2024-06-04 14:17:49.737201
8.777200522,-7.166204929,-1.661217093,6.008975983,2024-06-04 14:17:49.777201
8.817200522,-7.166204929,-1.661217093,6.008975983,2024-06-04 14:17:49.817201
8.857200522,-7.332505703,-1.257727385,6.142076492,2024-06-04 14:17:49.857201
8.897200522,-7.332505703,-1.257727385,6.142076492,2024-06-04 14:17:49.897201
8.937200522,-7.332505703,-1.257727385,6.142076492,2024-06-04 14:17:49.937201
8.977200522,-7.332505703,-1.257727385,6.142076492,2024-06-04 14:17:49.977201
9.017200522,-7.332505703,-1.257727385,6.142076492,2024-06-04 14:17:50.017201
9.057200522,-7.332505703,-1.257727385,6.142076492,2024-06-04 14:17:50.057201
9.097200522,-7.332505703,-1.257727385,6.142076492,2024-06-04 14:17:50.097201
9.137200522,-7.332505703,-1.257727385,6.142076492,2024-06-04 14:17:50.137201
9.177200522,-7.332505703,-1.257727385,6.142076492,2024-06-04 14:17:50.177201
9.217200522,-7.332505703,-1.257727385,6.142076492,2024-06-04 14:17:50.217201
9.257200522,-7.332505703,-1.257727385,6.142076492,2024-06-04 14:17:50.257201
9.297200522,-7.332505703,-1.257727385,6.142076492,2024-06-04 14:17:50.297201
9.337200522,-7.332505703,-1.257727385,6.142076492,2024-06-04 14:17:50.337201
9.377200522,-7.332505703,-1.257727385,6.142076492,2024-06-04 14:17:50.377201
9.417200522,-7.332505703,-1.257727385,6.142076492,2024-06-04 14:17:50.417201
9.457200522,-7.332505703,-1.257727385,6.142076492,2024-06-04 14:17:50.457201
9.497200522,-7.332505703,-1.257727385,6.142076492,2024-06-04 14:17:50.497201
9.537200522,-7.332505703,-1.257727385,6.142076492,2024-06-04 14:17:50.537201
9.577200522,-7.247560501,-1.625324726,6.267699718,2024-06-04 14:17:50.577201
9.617200522,-7.184150696,-1.901994944,6.241378784,2024-06-04 14:17:50.617201
9.657200522,-7.331309319,-1.607378602,5.968297958,2024-06-04 14:17:50.657201
9.697200522,-7.349255562,-1.5224334,6.131309032,2024-06-04 14:17:50.697201
9.737200522,-7.512266636,-1.520040631,6.054738522,2024-06-04 14:17:50.737201
9.777200522,-7.599604607,-1.597807288,6.014957905,2024-06-04 14:17:50.777201
9.817200522,-7.255935669,-1.497308731,5.93719101,2024-06-04 14:17:50.817201
9.857200522,-7.380661488,-1.57866478,6.042774677,2024-06-04 14:17:50.857201
9.897200522,-7.346862793,-1.552343726,6.122933865,2024-06-04 14:17:50.897201
9.937200522,-7.172186852,-1.53080833,6.077470303,2024-06-04 14:17:50.937201
9.977200522,-7.312166691,-1.475773335,6.095416546,2024-06-04 14:17:50.977201
10.01720052,-7.483552933,-1.5224334,5.932405472,2024-06-04 14:17:51.017201
10.05720052,-7.330112934,-1.485344648,6.155237198,2024-06-04 14:17:51.057201
10.09720052,-7.568498135,-1.66600275,6.25453949,2024-06-04 14:17:51.097201
10.13720052,-7.247560501,-1.536790371,6.039185047,2024-06-04 14:17:51.137201
10.17720052,-7.218846798,-1.664806366,6.25453949,2024-06-04 14:17:51.177201
10.21720052,-7.322934628,-1.595414519,6.334998131,2024-06-04 14:17:51.217201
10.25720052,-7.178168774,-1.615753531,6.235396862,2024-06-04 14:17:51.257201
10.29720052,-7.230811119,-1.558325768,6.276074886,2024-06-04 14:17:51.297201
10.33720052,-7.237989426,-1.554736495,6.149255276,2024-06-04 14:17:51.337201
10.37720052,-7.258328438,-1.557129383,6.273681641,2024-06-04 14:17:51.377201
10.41720052,-7.378268719,-1.582253933,6.174379826,2024-06-04 14:17:51.417201
10.45720052,-7.064210415,-1.508076429,6.143272877,2024-06-04 14:17:51.457201
10.49720052,-7.064210415,-1.508076429,6.143272877,2024-06-04 14:17:51.497201
10.53720052,-7.064210415,-1.508076429,6.143272877,2024-06-04 14:17:51.537201
10.57720052,-7.064210415,-1.508076429,6.143272877,2024-06-04 14:17:51.577201
10.61720052,-7.018746853,-1.339083314,6.384050846,2024-06-04 14:17:51.617201
10.65720052,-7.018746853,-1.339083314,6.384050846,2024-06-04 14:17:51.657201
10.69720052,-7.018746853,-1.339083314,6.384050846,2024-06-04 14:17:51.697201
10.73720052,-7.018746853,-1.339083314,6.384050846,2024-06-04 14:17:51.737201
10.77720052,-7.018746853,-1.339083314,6.384050846,2024-06-04 14:17:51.777201
10.81720052,-7.018746853,-1.339083314,6.384050846,2024-06-04 14:17:51.817201
10.85720052,-7.172186852,-1.443171144,6.155237198,2024-06-04 14:17:51.857201
10.89720052,-7.172186852,-1.443171144,6.155237198,2024-06-04 14:17:51.897201
10.93720052,-7.172186852,-1.443171144,6.155237198,2024-06-04 14:17:51.937201
10.97720052,-7.172186852,-1.443171144,6.155237198,2024-06-04 14:17:51.977201
11.01720052,-7.172186852,-1.443171144,6.155237198,2024-06-04 14:17:52.017201
11.05720052,-7.172186852,-1.443171144,6.155237198,2024-06-04 14:17:52.057201
11.09720052,-7.172186852,-1.443171144,6.155237198,2024-06-04 14:17:52.097201
11.13720052,-7.172186852,-1.443171144,6.155237198,2024-06-04 14:17:52.137201
11.17720052,-7.172186852,-1.443171144,6.155237198,2024-06-04 14:17:52.177201
11.21720052,-6.665506363,-1.74047935,6.446264267,2024-06-04 14:17:52.217201
11.25720052,-6.524031162,-2.218146563,6.671488762,2024-06-04 14:17:52.257201
11.29720052,-6.779165745,-2.193022013,6.938587666,2024-06-04 14:17:52.297201
11.33720052,-6.642774582,-2.221735716,6.578168392,2024-06-04 14:17:52.337201
11.37720052,-6.682256222,-2.146361828,6.334998131,2024-06-04 14:17:52.377201
11.41720052,-7.019943237,-2.147558212,6.065506458,2024-06-04 14:17:52.417201
11.45720052,-7.275078297,-2.002493382,6.277271271,2024-06-04 14:17:52.457201
11.49720052,-7.668099403,-1.976172447,6.258128643,2024-06-04 14:17:52.497201
11.53720052,-7.849953651,-1.642074585,5.841478348,2024-06-04 14:17:52.537201
11.57720052,-7.730312824,-1.473380566,5.664110184,2024-06-04 14:17:52.577201
11.61720052,-7.851150036,-1.614557028,5.711966991,2024-06-04 14:17:52.617201
11.65720052,-7.525427341,-1.667199135,5.971887112,2024-06-04 14:17:52.657201
11.69720052,-7.656135082,-1.616949916,5.921638012,2024-06-04 14:17:52.697201
11.73720052,-7.482356548,-1.564307809,5.99940443,2024-06-04 14:17:52.737201
11.77720052,-7.321738243,-1.693520188,6.17557621,2024-06-04 14:17:52.777201
11.81720052,-7.493124008,-1.715055585,6.25453949,2024-06-04 14:17:52.817201
11.85720052,-7.36151886,-1.643270969,6.403193474,2024-06-04 14:17:52.857201
11.89720052,-7.706384659,-2.021935225,5.629414558,2024-06-04 14:17:52.897201
11.93720052,-6.961319447,-1.664806366,6.508477688,2024-06-04 14:17:52.937201
11.97720052,-7.042675018,-1.74885428,6.446264267,2024-06-04 14:17:52.977201
12.01720052,-7.10159874,-1.801496387,6.340980053,2024-06-04 14:17:53.017201
12.05720052,-7.167401314,-1.754836321,6.274878502,2024-06-04 14:17:53.057201
12.09720052,-7.322934628,-1.669592023,6.16121912,2024-06-04 14:17:53.097201
12.13720052,-7.322934628,-1.669592023,6.16121912,2024-06-04 14:17:53.137201
12.17720052,-7.322934628,-1.669592023,6.16121912,2024-06-04 14:17:53.177201
12.21720052,-7.322934628,-1.669592023,6.16121912,2024-06-04 14:17:53.217201
12.25720052,-7.322934628,-1.669592023,6.16121912,2024-06-04 14:17:53.257201
12.29720052,-7.322934628,-1.669592023,6.16121912,2024-06-04 14:17:53.297201
12.33720052,-7.322934628,-1.669592023,6.16121912,2024-06-04 14:17:53.337201
12.37720052,-7.322934628,-1.669592023,6.16121912,2024-06-04 14:17:53.377201
12.41720052,-7.322934628,-1.669592023,6.16121912,2024-06-04 14:17:53.417201
12.45720052,-7.322934628,-1.669592023,6.16121912,2024-06-04 14:17:53.457201
12.49720052,-7.322934628,-1.669592023,6.16121912,2024-06-04 14:17:53.497201
12.53720052,-7.322934628,-1.669592023,6.16121912,2024-06-04 14:17:53.537201
12.57720052,-7.322934628,-1.669592023,6.16121912,2024-06-04 14:17:53.577201
12.61720052,-7.322934628,-1.669592023,6.16121912,2024-06-04 14:17:53.617201
12.65720052,-7.322934628,-1.669592023,6.16121912,2024-06-04 14:17:53.657201
12.69720052,-7.322934628,-1.669592023,6.16121912,2024-06-04 14:17:53.697201
12.73720052,-7.322934628,-1.669592023,6.16121912,2024-06-04 14:17:53.737201
12.77720052,-7.322934628,-1.669592023,6.16121912,2024-06-04 14:17:53.777201
12.81720052,-7.322934628,-1.669592023,6.16121912,2024-06-04 14:17:53.817201
12.85720052,-7.197311401,-1.756032705,6.46421051,2024-06-04 14:17:53.857201
12.89720052,-7.17457962,-1.668395638,6.453442574,2024-06-04 14:17:53.897201
12.93720052,-7.102795124,-1.709073544,6.421139717,2024-06-04 14:17:53.937201
12.97720052,-7.113562584,-1.74885428,6.398407936,2024-06-04 14:17:53.977201
13.01720052,-7.019943237,-1.703091502,6.521637917,2024-06-04 14:17:54.017201
13.05720052,-7.024729252,-1.773978829,6.538387775,2024-06-04 14:17:54.057201
13.09720052,-6.95055151,-1.766800404,6.552744865,2024-06-04 14:17:54.097201
13.13720052,-6.897909641,-1.75722909,6.515655994,2024-06-04 14:17:54.137201
13.17720052,-6.86082077,-1.808674812,6.632007122,2024-06-04 14:17:54.177201
13.21720052,-6.739684105,-1.79671073,6.563811779,2024-06-04 14:17:54.217201
13.25720052,-6.652346134,-1.753639936,6.75284481,2024-06-04 14:17:54.257201
13.29720052,-6.857231617,-1.753639936,6.664309978,2024-06-04 14:17:54.297201
13.33720052,-7.143472672,-1.887637973,6.29790926,2024-06-04 14:17:54.337201
13.37720052,-6.993622303,-1.763211131,6.277271271,2024-06-04 14:17:54.377201
13.41720052,-7.054639339,-1.833799481,6.530013084,2024-06-04 14:17:54.417201
13.45720052,-6.932605267,-1.707877159,6.63679266,2024-06-04 14:17:54.457201
13.49720052,-6.961319447,-1.668395638,6.417550564,2024-06-04 14:17:54.497201
13.53720052,-7.060621262,-1.728216171,6.495316982,2024-06-04 14:17:54.537201
13.57720052,-7.013961315,-1.77996099,6.498906136,2024-06-04 14:17:54.577201
13.61720052,-6.95055151,-1.85294199,6.445067883,2024-06-04 14:17:54.617201
13.65720052,-7.034300327,-1.849352837,6.421139717,2024-06-04 14:17:54.657201
13.69720052,-7.153044224,-1.736590981,6.344569206,2024-06-04 14:17:54.697201
13.73720052,-7.205686092,-1.62652123,6.397211552,2024-06-04 14:17:54.737201
13.77720052,-7.205686092,-1.62652123,6.397211552,2024-06-04 14:17:54.777201
13.81720052,-7.205686092,-1.62652123,6.397211552,2024-06-04 14:17:54.817201
13.85720052,-7.205686092,-1.62652123,6.397211552,2024-06-04 14:17:54.857201
13.89720052,-7.205686092,-1.62652123,6.397211552,2024-06-04 14:17:54.897201
13.93720052,-7.205686092,-1.62652123,6.397211552,2024-06-04 14:17:54.937201
13.97720052,-7.205686092,-1.62652123,6.397211552,2024-06-04 14:17:54.977201
14.01720052,-7.205686092,-1.62652123,6.397211552,2024-06-04 14:17:55.017201
14.05720052,-7.205686092,-1.62652123,6.397211552,2024-06-04 14:17:55.057201
14.09720052,-7.205686092,-1.62652123,6.397211552,2024-06-04 14:17:55.097201
14.13720052,-7.205686092,-1.62652123,6.397211552,2024-06-04 14:17:55.137201
14.17720052,-7.205686092,-1.62652123,6.397211552,2024-06-04 14:17:55.177201
14.21720052,-7.205686092,-1.62652123,6.397211552,2024-06-04 14:17:55.217201
14.25720052,-7.205686092,-1.62652123,6.397211552,2024-06-04 14:17:55.257201
14.29720052,-7.205686092,-1.62652123,6.397211552,2024-06-04 14:17:55.297201
14.33720052,-7.205686092,-1.62652123,6.397211552,2024-06-04 14:17:55.337201
14.37720052,-7.205686092,-1.62652123,6.397211552,2024-06-04 14:17:55.377201
14.41720052,-7.205686092,-1.62652123,6.397211552,2024-06-04 14:17:55.417201
14.45720052,-7.205686092,-1.62652123,6.397211552,2024-06-04 14:17:55.457201
14.49720052,-7.205686092,-1.62652123,6.397211552,2024-06-04 14:17:55.497201
14.53720052,-7.193722248,-1.737787485,6.356533527,2024-06-04 14:17:55.537201
14.57720052,-7.080960274,-1.760818362,6.425925255,2024-06-04 14:17:55.577201
14.61720052,-6.99003315,-1.744068623,6.403193474,2024-06-04 14:17:55.617201
14.65720052,-6.993622303,-1.866102576,6.343372822,2024-06-04 14:17:55.657201
14.69720052,-7.154240608,-1.825424552,6.271288872,2024-06-04 14:17:55.697201
14.73720052,-7.327720165,-1.724626899,6.270092487,2024-06-04 14:17:55.737201
14.77720052,-7.414160728,-1.700698733,6.122933865,2024-06-04 14:17:55.777201
14.81720052,-7.14945507,-1.721037745,6.271288872,2024-06-04 14:17:55.817201
14.85720052,-7.033103943,-1.849352837,6.355337143,2024-06-04 14:17:55.857201
14.89720052,-6.943373203,-1.801496387,6.400800705,2024-06-04 14:17:55.897201
14.93720052,-6.980462074,-1.850549221,6.445067883,2024-06-04 14:17:55.937201
14.97720052,-6.878767014,-1.706680775,6.535995007,2024-06-04 14:17:55.977201
15.01720052,-7.058228493,-1.680359721,6.441478729,2024-06-04 14:17:56.017201
15.05720052,-7.254739285,-1.770389676,6.331408501,2024-06-04 14:17:56.057201
15.09720052,-7.314559937,-1.763211131,6.163611889,2024-06-04 14:17:56.097201
15.13720052,-7.35763073,-1.868495345,6.160022736,2024-06-04 14:17:56.137201
15.17720052,-7.095616341,-1.766800404,6.260521412,2024-06-04 14:17:56.177201
15.21720052,-7.277471066,-1.759621978,6.286842346,2024-06-04 14:17:56.217201
15.25720052,-7.277471066,-1.794317842,6.201897144,2024-06-04 14:17:56.257201
15.29720052,-7.175776005,-1.703091502,6.167201042,2024-06-04 14:17:56.297201
15.33720052,-7.186543941,-1.703091502,6.382854462,2024-06-04 14:17:56.337201
15.37720052,-7.057032108,-1.74047935,6.421139717,2024-06-04 14:17:56.377201
15.41720052,-7.070192814,-1.756032705,6.379265308,2024-06-04 14:17:56.417201
15.45720052,-7.070192814,-1.756032705,6.379265308,2024-06-04 14:17:56.457201
15.49720052,-7.070192814,-1.756032705,6.379265308,2024-06-04 14:17:56.497201
15.53720052,-7.070192814,-1.756032705,6.379265308,2024-06-04 14:17:56.537201
15.57720052,-7.070192814,-1.756032705,6.379265308,2024-06-04 14:17:56.577201
15.61720052,-7.197311401,-1.710269928,6.373282909,2024-06-04 14:17:56.617201
15.65720052,-7.197311401,-1.710269928,6.373282909,2024-06-04 14:17:56.657201
15.69720052,-7.197311401,-1.710269928,6.373282909,2024-06-04 14:17:56.697201
15.73720052,-7.197311401,-1.710269928,6.373282909,2024-06-04 14:17:56.737201
15.77720052,-7.197311401,-1.710269928,6.373282909,2024-06-04 14:17:56.777201
15.81720052,-7.197311401,-1.710269928,6.373282909,2024-06-04 14:17:56.817201
15.85720052,-6.751648426,-1.925923109,6.437889099,2024-06-04 14:17:56.857201
15.89720052,-6.751648426,-1.925923109,6.437889099,2024-06-04 14:17:56.897201
15.93720052,-6.751648426,-1.925923109,6.437889099,2024-06-04 14:17:56.937201
15.97720052,-6.751648426,-1.925923109,6.437889099,2024-06-04 14:17:56.977201
16.01720052,-6.751648426,-1.925923109,6.437889099,2024-06-04 14:17:57.017201
16.05720052,-6.751648426,-1.925923109,6.437889099,2024-06-04 14:17:57.057201
16.09720052,-6.751648426,-1.925923109,6.437889099,2024-06-04 14:17:57.097201
16.13720052,-6.751648426,-1.925923109,6.437889099,2024-06-04 14:17:57.137201
16.17720052,-7.025925636,-1.824228168,6.485745907,2024-06-04 14:17:57.177201
16.21720052,-7.346862793,-1.888834357,6.109773636,2024-06-04 14:17:57.217201
16.25720052,-7.324131012,-1.652842283,6.087041855,2024-06-04 14:17:57.257201
16.29720052,-7.147062302,-1.669592023,6.369693756,2024-06-04 14:17:57.297201
16.33720052,-7.124330521,-1.800299883,6.50010252,2024-06-04 14:17:57.337201
16.37720052,-7.182954311,-1.750050664,6.13609457,2024-06-04 14:17:57.377201
16.41720052,-7.258328438,-1.879263043,6.130112648,2024-06-04 14:17:57.417201
16.45720052,-7.156633377,-1.770389676,6.311069489,2024-06-04 14:17:57.457201
16.49720052,-7.180561543,-1.837388635,6.458228111,2024-06-04 14:17:57.497201
16.53720052,-6.984051228,-1.772782445,6.25094986,2024-06-04 14:17:57.537201
16.57720052,-7.180561543,-1.894816399,6.282056808,2024-06-04 14:17:57.577201
16.61720052,-7.167401314,-1.878066659,6.31226635,2024-06-04 14:17:57.617201
16.65720052,-7.105187893,-1.744068623,6.285645962,2024-06-04 14:17:57.657201
16.69720052,-7.166204929,-1.776371717,6.253343105,2024-06-04 14:17:57.697201
16.73720052,-7.235596657,-1.677966833,6.236593246,2024-06-04 14:17:57.737201
16.77720052,-7.263113976,-1.745265007,6.206682682,2024-06-04 14:17:57.777201
16.81720052,-7.181757927,-1.727019787,6.291927338,2024-06-04 14:17:57.817201
16.85720052,-7.221239567,-1.778764486,6.197111607,2024-06-04 14:17:57.857201
16.89720052,-7.179365158,-1.838585138,6.277271271,2024-06-04 14:17:57.897201
16.93720052,-7.17457962,-1.851745605,6.309873104,2024-06-04 14:17:57.937201
16.97720052,-6.963712215,-1.806282043,6.346961975,2024-06-04 14:17:57.977201
17.01720052,-7.086942673,-1.869691849,6.372086525,2024-06-04 14:17:58.017201
17.05720052,-7.129116058,-1.809871197,6.313462734,2024-06-04 14:17:58.057201
17.09720052,-7.129116058,-1.809871197,6.313462734,2024-06-04 14:17:58.097201
17.13720052,-7.129116058,-1.809871197,6.313462734,2024-06-04 14:17:58.137201
17.17720052,-7.129116058,-1.809871197,6.313462734,2024-06-04 14:17:58.177201
17.21720052,-7.129116058,-1.809871197,6.313462734,2024-06-04 14:17:58.217201
17.25720052,-7.129116058,-1.809871197,6.313462734,2024-06-04 14:17:58.257201
17.29720052,-7.129116058,-1.809871197,6.313462734,2024-06-04 14:17:58.297201
17.33720052,-7.129116058,-1.809871197,6.313462734,2024-06-04 14:17:58.337201
17.37720052,-7.129116058,-1.809871197,6.313462734,2024-06-04 14:17:58.377201
17.41720052,-7.129116058,-1.809871197,6.313462734,2024-06-04 14:17:58.417201
17.45720052,-7.129116058,-1.809871197,6.313462734,2024-06-04 14:17:58.457201
17.49720052,-7.129116058,-1.809871197,6.313462734,2024-06-04 14:17:58.497201
17.53720052,-7.129116058,-1.809871197,6.313462734,2024-06-04 14:17:58.537201
17.57720052,-7.129116058,-1.809871197,6.313462734,2024-06-04 14:17:58.577201
17.61720052,-7.129116058,-1.809871197,6.313462734,2024-06-04 14:17:58.617201
17.65720052,-7.129116058,-1.809871197,6.313462734,2024-06-04 14:17:58.657201
17.69720052,-7.129116058,-1.809871197,6.313462734,2024-06-04 14:17:58.697201
17.73720052,-7.129116058,-1.809871197,6.313462734,2024-06-04 14:17:58.737201
17.77720052,-7.129116058,-1.809871197,6.313462734,2024-06-04 14:17:58.777201
17.81720052,-7.17457962,-1.854138494,6.246164322,2024-06-04 14:17:58.817201
17.85720052,-7.156633377,-1.82781744,6.299105644,2024-06-04 14:17:58.857201
17.89720052,-7.190133095,-1.765604019,6.26530695,2024-06-04 14:17:58.897201
17.93720052,-7.165008068,-1.790728688,6.258128643,2024-06-04 14:17:58.937201
17.97720052,-7.093223572,-1.797907114,6.325426579,2024-06-04 14:17:58.977201
18.01720052,-7.096812725,-1.813460469,6.30867672,2024-06-04 14:17:59.017201
18.05720052,-7.131508827,-1.85294199,6.299105644,2024-06-04 14:17:59.057201
18.09720052,-7.228417873,-1.83619225,6.258128643,2024-06-04 14:17:59.097201
18.13720052,-7.276274681,-1.855334878,6.211468697,2024-06-04 14:17:59.137201
18.17720052,-7.263113976,-1.806282043,6.224628925,2024-06-04 14:17:59.177201
18.21720052,-7.235596657,-1.834995866,6.173183441,2024-06-04 14:17:59.217201
18.25720052,-7.248756886,-1.840977907,6.155237198,2024-06-04 14:17:59.257201
18.29720052,-7.148258686,-1.795514345,6.262914181,2024-06-04 14:17:59.297201
18.33720052,-6.895516872,-1.744068623,6.394818306,2024-06-04 14:17:59.337201
18.37720052,-7.114758968,-1.840977907,6.36251545,2024-06-04 14:17:59.377201
18.41720052,-7.102795124,-1.85892415,6.234200478,2024-06-04 14:17:59.417201
18.45720052,-7.22482872,-1.872084618,6.266503334,2024-06-04 14:17:59.457201
18.49720052,-7.255935669,-1.893620014,6.285645962,2024-06-04 14:17:59.497201
18.53720052,-7.065407276,-1.800299883,6.235396862,2024-06-04 14:17:59.537201
18.57720052,-7.270292282,-1.790728688,6.243771553,2024-06-04 14:17:59.577201
18.61720052,-7.232007504,-1.725823283,6.262914181,2024-06-04 14:17:59.617201
18.65720052,-7.117151737,-1.752443433,6.294320107,2024-06-04 14:17:59.657201
18.69720052,-7.138687134,-1.815853238,6.284449577,2024-06-04 14:17:59.697201
18.73720052,-7.138687134,-1.815853238,6.284449577,2024-06-04 14:17:59.737201
18.77720052,-7.138687134,-1.815853238,6.284449577,2024-06-04 14:17:59.777201
18.81720052,-7.138687134,-1.815853238,6.284449577,2024-06-04 14:17:59.817201
18.85720052,-7.138687134,-1.815853238,6.284449577,2024-06-04 14:17:59.857201
18.89720052,-7.138687134,-1.815853238,6.284449577,2024-06-04 14:17:59.897201
18.93720052,-7.138687134,-1.815853238,6.284449577,2024-06-04 14:17:59.937201
18.97720052,-7.138687134,-1.815853238,6.284449577,2024-06-04 14:17:59.977201
19.01720052,-7.138687134,-1.815853238,6.284449577,2024-06-04 14:18:00.017201
19.05720052,-7.138687134,-1.815853238,6.284449577,2024-06-04 14:18:00.057201
19.09720052,-7.138687134,-1.815853238,6.284449577,2024-06-04 14:18:00.097201
19.13720052,-7.138687134,-1.815853238,6.284449577,2024-06-04 14:18:00.137201
19.17720052,-7.138687134,-1.815853238,6.284449577,2024-06-04 14:18:00.177201
19.21720052,-7.138687134,-1.815853238,6.284449577,2024-06-04 14:18:00.217201
19.25720052,-7.138687134,-1.815853238,6.284449577,2024-06-04 14:18:00.257201
19.29720052,-7.138687134,-1.815853238,6.284449577,2024-06-04 14:18:00.297201
19.33720052,-7.138687134,-1.815853238,6.284449577,2024-06-04 14:18:00.337201
19.37720052,-7.138687134,-1.815853238,6.284449577,2024-06-04 14:18:00.377201
19.41720052,-7.138687134,-1.815853238,6.284449577,2024-06-04 14:18:00.417201
19.45720052,-7.138687134,-1.815853238,6.284449577,2024-06-04 14:18:00.457201
19.49720052,-7.137490749,-1.789532185,6.234200478,2024-06-04 14:18:00.497201
19.53720052,-7.049853802,-1.797907114,6.295516491,2024-06-04 14:18:00.537201
19.57720052,-7.096812725,-1.799103498,6.338587284,2024-06-04 14:18:00.577201
19.61720052,-7.170990467,-1.94028008,6.315855503,2024-06-04 14:18:00.617201
19.65720052,-7.203293324,-2.000100613,6.223432541,2024-06-04 14:18:00.657201
19.69720052,-7.200900555,-2.009970903,6.271288872,2024-06-04 14:18:00.697201
19.73720052,-7.046264648,-1.910369754,6.223432541,2024-06-04 14:18:00.737201
19.77720052,-6.987640381,-1.880459547,6.20070076,2024-06-04 14:18:00.777201
19.81720052,-7.131508827,-1.625324726,6.101398468,2024-06-04 14:18:00.817201
19.85720052,-7.35763073,-1.563111424,6.212665081,2024-06-04 14:18:00.857201
19.89720052,-7.570890903,-1.727019787,6.300302029,2024-06-04 14:18:00.897201
19.93720052,-7.463213921,-1.861316919,6.077470303,2024-06-04 14:18:00.937201
19.97720052,-7.220043182,-1.839781523,6.035595894,2024-06-04 14:18:00.977201
20.01720052,-7.326523781,-2.011167526,6.181558132,2024-06-04 14:18:01.017201
20.05720052,-7.080960274,-1.928315997,6.338587284,2024-06-04 14:18:01.057201
20.09720052,-7.054639339,-1.826620936,6.334998131,2024-06-04 14:18:01.097201
20.13720052,-7.130312443,-1.820638895,6.290730953,2024-06-04 14:18:01.137201
20.17720052,-7.153044224,-1.737787485,6.241378784,2024-06-04 14:18:01.177201
20.21720052,-7.234400272,-1.775175333,6.26530695,2024-06-04 14:18:01.217201
20.25720052,-7.197311401,-1.824228168,6.203093529,2024-06-04 14:18:01.257201
20.29720052,-7.215257645,-1.823031783,6.148058891,2024-06-04 14:18:01.297201
20.33720052,-7.334898949,-1.867298961,6.154040813,2024-06-04 14:18:01.337201
20.37720052,-7.334898949,-1.867298961,6.154040813,2024-06-04 14:18:01.377201
20.41720052,-7.334898949,-1.867298961,6.154040813,2024-06-04 14:18:01.417201
20.45720052,-7.334898949,-1.867298961,6.154040813,2024-06-04 14:18:01.457201
20.49720052,-7.334898949,-1.867298961,6.154040813,2024-06-04 14:18:01.497201
20.53720052,-7.334898949,-1.867298961,6.154040813,2024-06-04 14:18:01.537201
20.57720052,-7.334898949,-1.867298961,6.154040813,2024-06-04 14:18:01.577201
20.61720052,-7.334898949,-1.867298961,6.154040813,2024-06-04 14:18:01.617201
20.65720052,-7.334898949,-1.867298961,6.154040813,2024-06-04 14:18:01.657201
20.69720052,-7.334898949,-1.867298961,6.154040813,2024-06-04 14:18:01.697201
20.73720052,-7.334898949,-1.867298961,6.154040813,2024-06-04 14:18:01.737201
20.77720052,-7.334898949,-1.867298961,6.154040813,2024-06-04 14:18:01.777201
20.81720052,-7.334898949,-1.867298961,6.154040813,2024-06-04 14:18:01.817201
20.85720052,-7.334898949,-1.867298961,6.154040813,2024-06-04 14:18:01.857201
20.89720052,-7.334898949,-1.867298961,6.154040813,2024-06-04 14:18:01.897201
20.93720052,-7.334898949,-1.867298961,6.154040813,2024-06-04 14:18:01.937201
20.97720052,-7.334898949,-1.867298961,6.154040813,2024-06-04 14:18:01.977201
21.01720052,-7.334898949,-1.867298961,6.154040813,2024-06-04 14:18:02.017201
21.05720052,-7.334898949,-1.867298961,6.154040813,2024-06-04 14:18:02.057201
21.09720052,-7.334898949,-1.867298961,6.154040813,2024-06-04 14:18:02.097201
21.13720052,-7.2535429,-1.719841242,6.231807709,2024-06-04 14:18:02.137201
21.17720052,-7.206882477,-1.756032705,6.162415504,2024-06-04 14:18:02.177201
21.21720052,-7.396214962,-1.927119493,6.12173748,2024-06-04 14:18:02.217201
21.25720052,-7.100401878,-1.917548299,6.075077534,2024-06-04 14:18:02.257201
21.29720052,-7.223632336,-1.982154489,6.290730953,2024-06-04 14:18:02.297201
21.33720052,-7.106384277,-1.901994944,6.343372822,2024-06-04 14:18:02.337201
21.37720052,-7.060621262,-1.867298961,6.248557091,2024-06-04 14:18:02.377201
21.41720052,-7.287042141,-1.959422588,6.212665081,2024-06-04 14:18:02.417201
21.45720052,-7.124330521,-1.927119493,6.155237198,2024-06-04 14:18:02.457201
21.49720052,-7.297810078,-1.87567389,6.156433582,2024-06-04 14:18:02.497201
21.53720052,-7.215257645,-1.872084618,6.054738522,2024-06-04 14:18:02.537201
21.57720052,-7.279863834,-1.760818362,6.155237198,2024-06-04 14:18:02.577201
21.61720052,-7.228417873,-1.753639936,6.176772594,2024-06-04 14:18:02.617201
21.65720052,-7.132705212,-1.825424552,6.203093529,2024-06-04 14:18:02.657201
21.69720052,-7.257132053,-1.959422588,6.197111607,2024-06-04 14:18:02.697201
21.73720052,-7.172186852,-1.888834357,6.083452702,2024-06-04 14:18:02.737201
21.77720052,-7.332505703,-1.904387712,6.019743443,2024-06-04 14:18:02.777201
21.81720052,-7.410571575,-1.880459547,5.962316036,2024-06-04 14:18:02.817201
21.85720052,-7.56730175,-1.759621978,6.137290955,2024-06-04 14:18:02.857201
21.89720052,-7.526623726,-1.837388635,6.016154289,2024-06-04 14:18:02.897201
21.93720052,-7.392625332,-1.800299883,5.950351715,2024-06-04 14:18:02.937201
21.97720052,-7.230811119,-1.764407635,6.069095612,2024-06-04 14:18:02.977201
22.01720052,-7.377072334,-1.876870275,6.112166405,2024-06-04 14:18:03.017201
22.05720052,-7.377072334,-1.876870275,6.112166405,2024-06-04 14:18:03.057201
22.09720052,-7.377072334,-1.876870275,6.112166405,2024-06-04 14:18:03.097201
22.13720052,-7.377072334,-1.876870275,6.112166405,2024-06-04 14:18:03.137201
22.17720052,-7.377072334,-1.876870275,6.112166405,2024-06-04 14:18:03.177201
22.21720052,-7.377072334,-1.876870275,6.112166405,2024-06-04 14:18:03.217201
22.25720052,-7.377072334,-1.876870275,6.112166405,2024-06-04 14:18:03.257201
22.29720052,-7.377072334,-1.876870275,6.112166405,2024-06-04 14:18:03.297201
22.33720052,-7.377072334,-1.876870275,6.112166405,2024-06-04 14:18:03.337201
22.37720052,-7.377072334,-1.876870275,6.112166405,2024-06-04 14:18:03.377201
22.41720052,-7.377072334,-1.876870275,6.112166405,2024-06-04 14:18:03.417201
22.45720052,-7.377072334,-1.876870275,6.112166405,2024-06-04 14:18:03.457201
22.49720052,-7.377072334,-1.876870275,6.112166405,2024-06-04 14:18:03.497201
22.53720052,-7.377072334,-1.876870275,6.112166405,2024-06-04 14:18:03.537201
22.57720052,-7.377072334,-1.876870275,6.112166405,2024-06-04 14:18:03.577201
22.61720052,-7.377072334,-1.876870275,6.112166405,2024-06-04 14:18:03.617201
22.65720052,-7.377072334,-1.876870275,6.112166405,2024-06-04 14:18:03.657201
22.69720052,-7.377072334,-1.876870275,6.112166405,2024-06-04 14:18:03.697201
22.73720052,-7.377072334,-1.876870275,6.112166405,2024-06-04 14:18:03.737201
22.77720052,-7.434499741,-1.866102576,5.977869034,2024-06-04 14:18:03.777201
22.81720052,-7.366304398,-1.823031783,6.047560215,2024-06-04 14:18:03.817201
22.85720052,-7.331309319,-1.775175333,6.006583214,2024-06-04 14:18:03.857201
22.89720052,-7.226025105,-1.73898387,6.125326633,2024-06-04 14:18:03.897201
22.93720052,-7.556533813,-1.776371717,6.029613972,2024-06-04 14:18:03.937201
22.97720052,-7.512266636,-1.87567389,5.898906231,2024-06-04 14:18:03.977201
23.01720052,-7.616354465,-1.89242363,5.793622017,2024-06-04 14:18:04.017201
23.05720052,-7.374679565,-1.837388635,5.922834396,2024-06-04 14:18:04.057201
23.09720052,-7.482356548,-1.754836321,6.08225584,2024-06-04 14:18:04.097201
23.13720052,-7.24995327,-1.683948994,5.944369793,2024-06-04 14:18:04.137201
23.17720052,-7.290631294,-1.785943031,6.05713129,2024-06-04 14:18:04.177201
23.21720052,-7.159026146,-1.801496387,6.070291996,2024-06-04 14:18:04.217201
23.25720052,-7.349255562,-1.87567389,6.130112648,2024-06-04 14:18:04.257201
23.29720052,-7.333702087,-1.881655931,6.016154289,2024-06-04 14:18:04.297201
23.33720052,-7.405786037,-1.843370795,6.094220161,2024-06-04 14:18:04.337201
23.37720052,-7.294220924,-1.777568102,6.014957905,2024-06-04 14:18:04.377201
23.41720052,-7.417750359,-1.803889155,6.054738522,2024-06-04 14:18:04.417201
23.45720052,-7.366304398,-1.829013824,6.006583214,2024-06-04 14:18:04.457201
23.49720052,-7.32891655,-1.772782445,6.052345753,2024-06-04 14:18:04.497201
23.53720052,-7.334898949,-1.893620014,6.006583214,2024-06-04 14:18:04.537201
23.57720052,-7.403393269,-1.911566138,6.049952984,2024-06-04 14:18:04.577201
23.61720052,-7.452445984,-1.943869352,6.077470303,2024-06-04 14:18:04.617201
23.65720052,-7.438089371,-1.772782445,5.99940443,2024-06-04 14:18:04.657201
23.69720052,-7.334898949,-1.752443433,6.061916828,2024-06-04 14:18:04.697201
23.73720052,-7.334898949,-1.752443433,6.061916828,2024-06-04 14:18:04.737201
23.77720052,-7.334898949,-1.752443433,6.061916828,2024-06-04 14:18:04.777201
23.81720052,-7.334898949,-1.752443433,6.061916828,2024-06-04 14:18:04.817201
23.85720052,-7.334898949,-1.752443433,6.061916828,2024-06-04 14:18:04.857201
23.89720052,-7.334898949,-1.752443433,6.061916828,2024-06-04 14:18:04.897201
23.93720052,-7.334898949,-1.752443433,6.061916828,2024-06-04 14:18:04.937201
23.97720052,-7.334898949,-1.752443433,6.061916828,2024-06-04 14:18:04.977201
24.01720052,-7.334898949,-1.752443433,6.061916828,2024-06-04 14:18:05.017201
24.05720052,-7.334898949,-1.752443433,6.061916828,2024-06-04 14:18:05.057201
24.09720052,-7.334898949,-1.752443433,6.061916828,2024-06-04 14:18:05.097201
24.13720052,-7.334898949,-1.752443433,6.061916828,2024-06-04 14:18:05.137201
24.17720052,-7.334898949,-1.752443433,6.061916828,2024-06-04 14:18:05.177201
24.21720052,-7.334898949,-1.752443433,6.061916828,2024-06-04 14:18:05.217201
24.25720052,-7.334898949,-1.752443433,6.061916828,2024-06-04 14:18:05.257201
24.29720052,-7.334898949,-1.752443433,6.061916828,2024-06-04 14:18:05.297201
24.33720052,-7.334898949,-1.752443433,6.061916828,2024-06-04 14:18:05.337201
24.37720052,-7.334898949,-1.752443433,6.061916828,2024-06-04 14:18:05.377201
24.41720052,-7.334898949,-1.752443433,6.061916828,2024-06-04 14:18:05.417201
24.45720052,-7.21406126,-1.613360643,6.361319065,2024-06-04 14:18:05.457201
24.49720052,-7.14945507,-1.751247048,6.271288872,2024-06-04 14:18:05.497201
24.53720052,-7.13509798,-1.753639936,6.274878502,2024-06-04 14:18:05.537201
24.57720052,-6.91106987,-1.862513304,6.44985342,2024-06-04 14:18:05.577201
24.61720052,-6.961319447,-1.92353034,6.482156754,2024-06-04 14:18:05.617201
24.65720052,-6.902695179,-1.893620014,6.413960934,2024-06-04 14:18:05.657201
24.69720052,-6.91106987,-1.849352837,6.58654356,2024-06-04 14:18:05.697201
24.73720052,-6.932605267,-1.737787485,6.599703789,2024-06-04 14:18:05.737201
24.77720052,-7.006783009,-1.777568102,6.541976929,2024-06-04 14:18:05.777201
24.81720052,-7.061817646,-1.728216171,6.502495766,2024-06-04 14:18:05.817201
24.85720052,-7.022336483,-1.790728688,6.5288167,2024-06-04 14:18:05.857201
24.89720052,-7.099205494,-1.866102576,6.380461693,2024-06-04 14:18:05.897201
24.93720052,-7.051050186,-1.7883358,6.39601469,2024-06-04 14:18:05.937201
24.97720052,-7.10159874,-1.767996788,6.47497797,2024-06-04 14:18:05.977201
25.01720052,-7.024729252,-1.631306887,6.593721867,2024-06-04 14:18:06.017201
25.05720052,-6.901498795,-1.735394597,6.653542519,2024-06-04 14:18:06.057201
25.09720052,-6.719345093,-1.771586061,6.471388817,2024-06-04 14:18:06.097201
25.13720052,-6.83569622,-2.170290232,6.440282345,2024-06-04 14:18:06.137201
25.17720052,-6.315855503,-1.946262121,6.591329098,2024-06-04 14:18:06.177201
25.21720052,-6.797111988,-2.008774519,6.739684105,2024-06-04 14:18:06.217201
25.25720052,-6.657131672,-2.146361828,6.509674072,2024-06-04 14:18:06.257201
25.29720052,-6.519245148,-2.001296997,6.533602238,2024-06-04 14:18:06.297201
25.33720052,-6.697809696,-1.917548299,6.65114975,2024-06-04 14:18:06.337201
25.37720052,-6.697809696,-1.917548299,6.65114975,2024-06-04 14:18:06.377201
25.41720052,-6.697809696,-1.917548299,6.65114975,2024-06-04 14:18:06.417201
25.45720052,-6.697809696,-1.917548299,6.65114975,2024-06-04 14:18:06.457201
25.49720052,-6.697809696,-1.917548299,6.65114975,2024-06-04 14:18:06.497201
25.53720052,-6.697809696,-1.917548299,6.65114975,2024-06-04 14:18:06.537201
25.57720052,-6.697809696,-1.917548299,6.65114975,2024-06-04 14:18:06.577201
25.61720052,-6.697809696,-1.917548299,6.65114975,2024-06-04 14:18:06.617201
25.65720052,-6.697809696,-1.917548299,6.65114975,2024-06-04 14:18:06.657201
25.69720052,-6.697809696,-1.917548299,6.65114975,2024-06-04 14:18:06.697201
25.73720052,-6.697809696,-1.917548299,6.65114975,2024-06-04 14:18:06.737201
25.77720052,-6.697809696,-1.917548299,6.65114975,2024-06-04 14:18:06.777201
25.81720052,-6.697809696,-1.917548299,6.65114975,2024-06-04 14:18:06.817201
25.85720052,-7.282256603,-1.791925073,6.125326633,2024-06-04 14:18:06.857201
25.89720052,-7.282256603,-1.791925073,6.125326633,2024-06-04 14:18:06.897201
25.93720052,-7.282256603,-1.791925073,6.125326633,2024-06-04 14:18:06.937201
25.97720052,-7.282256603,-1.791925073,6.125326633,2024-06-04 14:18:06.977201
26.01720052,-7.282256603,-1.791925073,6.125326633,2024-06-04 14:18:07.017201
26.05720052,-7.282256603,-1.791925073,6.125326633,2024-06-04 14:18:07.057201
26.09720052,-7.366304398,-1.917548299,6.083452702,2024-06-04 14:18:07.097201
26.13720052,-7.006783009,-1.74885428,6.192326069,2024-06-04 14:18:07.137201
26.17720052,-7.208079338,-1.787139416,6.346961975,2024-06-04 14:18:07.177201
26.21720052,-7.190133095,-1.799103498,6.231807709,2024-06-04 14:18:07.217201
26.25720052,-7.194918633,-1.80508554,6.221039772,2024-06-04 14:18:07.257201
26.29720052,-7.260721207,-1.77996099,6.224628925,2024-06-04 14:18:07.297201
26.33720052,-7.26431036,-1.709073544,6.173183441,2024-06-04 14:18:07.337201
26.37720052,-7.294220924,-1.75722909,6.252146244,2024-06-04 14:18:07.377201
26.41720052,-7.275078297,-1.840977907,6.131309032,2024-06-04 14:18:07.417201
26.45720052,-7.089335442,-1.694716692,6.235396862,2024-06-04 14:18:07.457201
26.49720052,-7.304988384,-1.758425593,6.218647003,2024-06-04 14:18:07.497201
26.53720052,-7.309773922,-1.735394597,6.168397903,2024-06-04 14:18:07.537201
26.57720052,-7.374679565,-1.823031783,6.181558132,2024-06-04 14:18:07.577201
26.61720052,-7.228417873,-1.885245085,6.133701801,2024-06-04 14:18:07.617201
26.65720052,-7.26431036,-1.829013824,6.168397903,2024-06-04 14:18:07.657201
26.69720052,-7.258328438,-1.832603097,6.128916264,2024-06-04 14:18:07.697201
26.73720052,-7.190133095,-1.812264085,6.212665081,2024-06-04 14:18:07.737201
26.77720052,-7.19970417,-1.693520188,6.303891182,2024-06-04 14:18:07.777201
26.81720052,-7.269095898,-1.771586061,6.160022736,2024-06-04 14:18:07.817201
26.85720052,-7.163811684,-1.767996788,6.149255276,2024-06-04 14:18:07.857201
26.89720052,-7.271489143,-1.881655931,6.168397903,2024-06-04 14:18:07.897201
26.93720052,-7.208079338,-1.869691849,6.203093529,2024-06-04 14:18:07.937201
26.97720052,-7.247560501,-1.870888233,6.119344711,2024-06-04 14:18:07.977201
27.01720052,-7.247560501,-1.870888233,6.119344711,2024-06-04 14:18:08.017201
27.05720052,-7.247560501,-1.870888233,6.119344711,2024-06-04 14:18:08.057201
27.09720052,-7.247560501,-1.870888233,6.119344711,2024-06-04 14:18:08.097201
27.13720052,-7.247560501,-1.870888233,6.119344711,2024-06-04 14:18:08.137201
27.17720052,-7.247560501,-1.870888233,6.119344711,2024-06-04 14:18:08.177201
27.21720052,-7.247560501,-1.870888233,6.119344711,2024-06-04 14:18:08.217201
27.25720052,-7.247560501,-1.870888233,6.119344711,2024-06-04 14:18:08.257201
27.29720052,-7.247560501,-1.870888233,6.119344711,2024-06-04 14:18:08.297201
27.33720052,-7.247560501,-1.870888233,6.119344711,2024-06-04 14:18:08.337201
27.37720052,-7.247560501,-1.870888233,6.119344711,2024-06-04 14:18:08.377201
27.41720052,-7.247560501,-1.870888233,6.119344711,2024-06-04 14:18:08.417201
27.45720052,-7.247560501,-1.870888233,6.119344711,2024-06-04 14:18:08.457201
27.49720052,-7.247560501,-1.870888233,6.119344711,2024-06-04 14:18:08.497201
27.53720052,-7.247560501,-1.870888233,6.119344711,2024-06-04 14:18:08.537201
27.57720052,-7.247560501,-1.870888233,6.119344711,2024-06-04 14:18:08.577201
27.61720052,-7.247560501,-1.870888233,6.119344711,2024-06-04 14:18:08.617201
27.65720052,-7.247560501,-1.870888233,6.119344711,2024-06-04 14:18:08.657201
27.69720052,-7.247560501,-1.870888233,6.119344711,2024-06-04 14:18:08.697201
27.73720052,-7.196115017,-1.661217093,6.221039772,2024-06-04 14:18:08.737201
27.77720052,-7.285845757,-1.880459547,6.194718838,2024-06-04 14:18:08.777201
27.81720052,-7.402196884,-1.723430514,6.118148327,2024-06-04 14:18:08.817201
27.85720052,-7.315756321,-1.48295188,6.149255276,2024-06-04 14:18:08.857201
27.89720052,-7.210472107,-1.56191504,6.260521412,2024-06-04 14:18:08.897201
27.93720052,-7.2535429,-1.595414519,6.25453949,2024-06-04 14:18:08.937201
27.97720052,-7.223632336,-1.681556106,6.093023777,2024-06-04 14:18:08.977201
28.01720052,-7.324131012,-1.821835399,6.145665646,2024-06-04 14:18:09.017201
28.05720052,-7.344470024,-1.837388635,6.199504375,2024-06-04 14:18:09.057201
28.09720052,-7.209275723,-1.717448473,6.212665081,2024-06-04 14:18:09.097201
28.13720052,-7.234400272,-1.642074585,6.203093529,2024-06-04 14:18:09.137201
28.17720052,-7.294220924,-1.648056626,6.174379826,2024-06-04 14:18:09.177201
28.21720052,-7.259524822,-1.599003673,6.169594288,2024-06-04 14:18:09.217201
28.25720052,-7.327720165,-1.718644857,6.15045166,2024-06-04 14:18:09.257201
28.29720052,-7.300202847,-1.703091502,6.118148327,2024-06-04 14:18:09.297201
28.33720052,-7.287042141,-1.717448473,6.180361748,2024-06-04 14:18:09.337201
28.37720052,-7.216454029,-1.655235052,6.157629967,2024-06-04 14:18:09.377201
28.41720052,-7.130312443,-1.631306887,6.221039772,2024-06-04 14:18:09.417201
28.45720052,-7.374679565,-1.762014747,6.209075451,2024-06-04 14:18:09.457201
28.49720052,-7.310970306,-1.675574064,6.094220161,2024-06-04 14:18:09.497201
28.53720052,-7.299006462,-1.644467354,6.132505417,2024-06-04 14:18:09.537201
28.57720052,-7.269095898,-1.595414519,6.213861465,2024-06-04 14:18:09.577201
28.61720052,-7.218846798,-1.643270969,6.238986015,2024-06-04 14:18:09.617201
28.65720052,-7.218846798,-1.643270969,6.238986015,2024-06-04 14:18:09.657201
28.69720052,-7.218846798,-1.643270969,6.238986015,2024-06-04 14:18:09.697201
28.73720052,-7.218846798,-1.643270969,6.238986015,2024-06-04 14:18:09.737201
28.77720052,-7.218846798,-1.643270969,6.238986015,2024-06-04 14:18:09.777201
28.81720052,-7.218846798,-1.643270969,6.238986015,2024-06-04 14:18:09.817201
28.85720052,-7.218846798,-1.643270969,6.238986015,2024-06-04 14:18:09.857201
28.89720052,-7.218846798,-1.643270969,6.238986015,2024-06-04 14:18:09.897201
28.93720052,-7.218846798,-1.643270969,6.238986015,2024-06-04 14:18:09.937201
28.97720052,-7.218846798,-1.643270969,6.238986015,2024-06-04 14:18:09.977201
29.01720052,-7.218846798,-1.643270969,6.238986015,2024-06-04 14:18:10.017201
29.05720052,-7.218846798,-1.643270969,6.238986015,2024-06-04 14:18:10.057201
29.09720052,-7.218846798,-1.643270969,6.238986015,2024-06-04 14:18:10.097201
29.13720052,-7.218846798,-1.643270969,6.238986015,2024-06-04 14:18:10.137201
29.17720052,-7.218846798,-1.643270969,6.238986015,2024-06-04 14:18:10.177201
29.21720052,-7.218846798,-1.643270969,6.238986015,2024-06-04 14:18:10.217201
29.25720052,-7.218846798,-1.643270969,6.238986015,2024-06-04 14:18:10.257201
29.29720052,-7.218846798,-1.643270969,6.238986015,2024-06-04 14:18:10.297201
29.33720052,-7.218846798,-1.643270969,6.238986015,2024-06-04 14:18:10.337201
29.37720052,-7.218846798,-1.643270969,6.238986015,2024-06-04 14:18:10.377201
29.41720052,-7.232007504,-1.704287887,6.216254234,2024-06-04 14:18:10.417201
29.45720052,-7.223632336,-1.644467354,6.179165363,2024-06-04 14:18:10.457201
29.49720052,-7.282256603,-1.675574064,6.22582531,2024-06-04 14:18:10.497201
29.53720052,-7.295417309,-1.681556106,6.230610847,2024-06-04 14:18:10.537201
29.57720052,-7.281060219,-1.73060894,6.127719879,2024-06-04 14:18:10.577201
29.61720052,-7.203293324,-1.673181176,6.149255276,2024-06-04 14:18:10.617201
29.65720052,-7.261917591,-1.668395638,6.261717796,2024-06-04 14:18:10.657201
29.69720052,-7.258328438,-1.668395638,6.262914181,2024-06-04 14:18:10.697201
29.73720052,-7.252346516,-1.687538147,6.249753475,2024-06-04 14:18:10.737201
29.77720052,-7.252346516,-1.624128342,6.217450619,2024-06-04 14:18:10.777201
29.81720052,-7.299006462,-1.766800404,6.21505785,2024-06-04 14:18:10.817201
29.85720052,-7.18534708,-1.520040631,6.179165363,2024-06-04 14:18:10.857201
29.89720052,-7.260721207,-1.79671073,6.230610847,2024-06-04 14:18:10.897201
29.93720052,-7.342077255,-1.667199135,6.213861465,2024-06-04 14:18:10.937201
29.97720052,-7.235596657,-1.676770449,6.103791237,2024-06-04 14:18:10.977201
30.01720052,-7.303792,-1.692323804,6.195915222,2024-06-04 14:18:11.017201
30.05720052,-7.302595615,-1.366600871,6.282056808,2024-06-04 14:18:11.057201
30.09720052,-7.340880871,-1.717448473,6.199504375,2024-06-04 14:18:11.097201
30.13720052,-7.378268719,-1.751247048,6.055934906,2024-06-04 14:18:11.137201
30.17720052,-7.261917591,-1.648056626,6.075077534,2024-06-04 14:18:11.177201
30.21720052,-7.255935669,-1.521237016,6.187540054,2024-06-04 14:18:11.217201
30.25720052,-7.279863834,-1.733001828,6.286842346,2024-06-04 14:18:11.257201
30.29720052,-7.159026146,-1.773978829,6.213861465,2024-06-04 14:18:11.297201
30.33720052,-7.159026146,-1.773978829,6.213861465,2024-06-04 14:18:11.337201
30.37720052,-7.159026146,-1.773978829,6.213861465,2024-06-04 14:18:11.377201
30.41720052,-7.159026146,-1.773978829,6.213861465,2024-06-04 14:18:11.417201
30.45720052,-7.159026146,-1.773978829,6.213861465,2024-06-04 14:18:11.457201
30.49720052,-7.159026146,-1.773978829,6.213861465,2024-06-04 14:18:11.497201
30.53720052,-7.159026146,-1.773978829,6.213861465,2024-06-04 14:18:11.537201
30.57720052,-7.159026146,-1.773978829,6.213861465,2024-06-04 14:18:11.577201
30.61720052,-7.159026146,-1.773978829,6.213861465,2024-06-04 14:18:11.617201
30.65720052,-7.159026146,-1.773978829,6.213861465,2024-06-04 14:18:11.657201
30.69720052,-7.159026146,-1.773978829,6.213861465,2024-06-04 14:18:11.697201
30.73720052,-7.159026146,-1.773978829,6.213861465,2024-06-04 14:18:11.737201
30.77720052,-7.159026146,-1.773978829,6.213861465,2024-06-04 14:18:11.777201
30.81720052,-7.159026146,-1.773978829,6.213861465,2024-06-04 14:18:11.817201
30.85720052,-7.159026146,-1.773978829,6.213861465,2024-06-04 14:18:11.857201
30.89720052,-7.159026146,-1.773978829,6.213861465,2024-06-04 14:18:11.897201
30.93720052,-7.159026146,-1.773978829,6.213861465,2024-06-04 14:18:11.937201
30.97720052,-7.159026146,-1.773978829,6.213861465,2024-06-04 14:18:11.977201
31.01720052,-7.159026146,-1.773978829,6.213861465,2024-06-04 14:18:12.017201
31.05720052,-7.36151886,-1.727019787,6.179165363,2024-06-04 14:18:12.057201
31.09720052,-7.23918581,-1.67437768,6.191129684,2024-06-04 14:18:12.097201
31.13720052,-7.27866745,-1.695913076,6.191129684,2024-06-04 14:18:12.137201
31.17720052,-7.313363075,-1.691127419,6.210271835,2024-06-04 14:18:12.177201
31.21720052,-7.202096939,-1.668395638,6.148058891,2024-06-04 14:18:12.217201
31.25720052,-7.216454029,-1.691127419,6.218647003,2024-06-04 14:18:12.257201
31.29720052,-7.252346516,-1.695913076,6.236593246,2024-06-04 14:18:12.297201
31.33720052,-7.24995327,-1.7138592,6.167201042,2024-06-04 14:18:12.337201
31.37720052,-7.307381153,-1.688734531,6.18634367,2024-06-04 14:18:12.377201
31.41720052,-7.360322475,-1.710269928,6.116951942,2024-06-04 14:18:12.417201
31.45720052,-7.276274681,-1.691127419,6.108577251,2024-06-04 14:18:12.457201
31.49720052,-7.282256603,-1.636092424,6.2401824,2024-06-04 14:18:12.497201
31.53720052,-7.186543941,-1.669592023,6.194718838,2024-06-04 14:18:12.537201
31.57720052,-7.283452988,-1.7138592,6.181558132,2024-06-04 14:18:12.577201
31.61720052,-7.339684486,-1.813460469,6.171987057,2024-06-04 14:18:12.617201
31.65720052,-7.245167732,-1.688734531,6.158826351,2024-06-04 14:18:12.657201
31.69720052,-7.255935669,-1.675574064,6.209075451,2024-06-04 14:18:12.697201
31.73720052,-7.269095898,-1.65164578,6.16121912,2024-06-04 14:18:12.737201
31.77720052,-7.290631294,-1.724626899,6.145665646,2024-06-04 14:18:12.777201
31.81720052,-7.299006462,-1.692323804,6.169594288,2024-06-04 14:18:12.817201
31.85720052,-7.271489143,-1.70548439,6.176772594,2024-06-04 14:18:12.857201
31.89720052,-7.2535429,-1.731805444,6.176772594,2024-06-04 14:18:12.897201
31.93720052,-7.350451946,-1.846959949,6.278467655,2024-06-04 14:18:12.937201
31.97720052,-7.350451946,-1.846959949,6.278467655,2024-06-04 14:18:12.977201
32.01720052,-7.350451946,-1.846959949,6.278467655,2024-06-04 14:18:13.017201
32.05720052,-7.350451946,-1.846959949,6.278467655,2024-06-04 14:18:13.057201
32.09720052,-7.350451946,-1.846959949,6.278467655,2024-06-04 14:18:13.097201
32.13720052,-7.350451946,-1.846959949,6.278467655,2024-06-04 14:18:13.137201
32.17720052,-7.350451946,-1.846959949,6.278467655,2024-06-04 14:18:13.177201
32.21720052,-7.350451946,-1.846959949,6.278467655,2024-06-04 14:18:13.217201
32.25720052,-7.350451946,-1.846959949,6.278467655,2024-06-04 14:18:13.257201
32.29720052,-7.350451946,-1.846959949,6.278467655,2024-06-04 14:18:13.297201
32.33720052,-7.350451946,-1.846959949,6.278467655,2024-06-04 14:18:13.337201
32.37720052,-7.350451946,-1.846959949,6.278467655,2024-06-04 14:18:13.377201
32.41720052,-7.350451946,-1.846959949,6.278467655,2024-06-04 14:18:13.417201
32.45720052,-7.350451946,-1.846959949,6.278467655,2024-06-04 14:18:13.457201
32.49720052,-7.350451946,-1.846959949,6.278467655,2024-06-04 14:18:13.497201
32.53720052,-7.350451946,-1.846959949,6.278467655,2024-06-04 14:18:13.537201
32.57720052,-7.350451946,-1.846959949,6.278467655,2024-06-04 14:18:13.577201
32.61720052,-7.350451946,-1.846959949,6.278467655,2024-06-04 14:18:13.617201
32.65720052,-7.350451946,-1.846959949,6.278467655,2024-06-04 14:18:13.657201
32.69720052,-7.762615681,-0.5700899959,5.671288967,2024-06-04 14:18:13.697201
32.73720052,-7.713562965,-0.3903291821,5.406582832,2024-06-04 14:18:13.737201
32.77720052,-7.882256985,-0.7007979155,5.606682777,2024-06-04 14:18:13.777201
32.81720052,-7.962715626,-0.5353940725,5.431707382,2024-06-04 14:18:13.817201
32.85720052,-7.782954693,-0.7378866673,5.863013744,2024-06-04 14:18:13.857201
32.89720052,-7.782954693,-0.803689301,5.845067501,2024-06-04 14:18:13.897201
32.93720052,-7.9782691,-0.6768696904,5.658128262,2024-06-04 14:18:13.937201
32.97720052,-7.639385223,-0.456430912,5.481956482,2024-06-04 14:18:13.977201
33.01720052,-7.707581043,-0.8706883192,5.859424591,2024-06-04 14:18:14.017201
33.05720052,-7.344470024,-0.6035895348,5.935994625,2024-06-04 14:18:14.057201
33.09720052,-7.151847839,-0.803689301,6.192326069,2024-06-04 14:18:14.097201
33.13720052,-7.629814148,-1.061216831,6.15045166,2024-06-04 14:18:14.137201
33.17720052,-7.864310741,-1.160519004,6.234200478,2024-06-04 14:18:14.177201
33.21720052,-7.36151886,-0.8934201598,5.947958946,2024-06-04 14:18:14.217201
33.25720052,-7.346862793,-1.075573802,6.149255276,2024-06-04 14:18:14.257201
33.29720052,-7.518248558,-1.229013562,6.289534092,2024-06-04 14:18:14.297201
33.33720052,-7.445267677,-1.306780219,6.236593246,2024-06-04 14:18:14.337201
33.37720052,-7.222435951,-1.248156071,6.334998131,2024-06-04 14:18:14.377201
33.41720052,-7.260721207,-1.252941728,6.264110565,2024-06-04 14:18:14.417201
33.45720052,-7.243971348,-1.280459166,6.156433582,2024-06-04 14:18:14.457201
33.49720052,-7.098009109,-1.131805062,5.924030781,2024-06-04 14:18:14.497201
33.53720052,-6.706184387,-0.9846464992,6.138487339,2024-06-04 14:18:14.537201
33.57720052,-7.161418915,-1.451546073,6.183950901,2024-06-04 14:18:14.577201
33.61720052,-6.997211456,-1.509272933,6.345765591,2024-06-04 14:18:14.617201
33.65720052,-6.997211456,-1.509272933,6.345765591,2024-06-04 14:18:14.657201
33.69720052,-6.997211456,-1.509272933,6.345765591,2024-06-04 14:18:14.697201
33.73720052,-6.997211456,-1.509272933,6.345765591,2024-06-04 14:18:14.737201
33.77720052,-6.997211456,-1.509272933,6.345765591,2024-06-04 14:18:14.777201
33.81720052,-6.997211456,-1.509272933,6.345765591,2024-06-04 14:18:14.817201
33.85720052,-6.839285374,-1.905584097,6.466603279,2024-06-04 14:18:14.857201
33.89720052,-6.839285374,-1.905584097,6.466603279,2024-06-04 14:18:14.897201
33.93720052,-6.839285374,-1.905584097,6.466603279,2024-06-04 14:18:14.937201
33.97720052,-6.839285374,-1.905584097,6.466603279,2024-06-04 14:18:14.977201
34.01720052,-6.839285374,-1.905584097,6.466603279,2024-06-04 14:18:15.017201
34.05720052,-6.839285374,-1.905584097,6.466603279,2024-06-04 14:18:15.057201
34.09720052,-6.839285374,-1.905584097,6.466603279,2024-06-04 14:18:15.097201
34.13720052,-6.839285374,-1.905584097,6.466603279,2024-06-04 14:18:15.137201
34.17720052,-6.839285374,-1.905584097,6.466603279,2024-06-04 14:18:15.177201
34.21720052,-6.839285374,-1.905584097,6.466603279,2024-06-04 14:18:15.217201
34.25720052,-6.839285374,-1.905584097,6.466603279,2024-06-04 14:18:15.257201
34.29720052,-6.839285374,-1.905584097,6.466603279,2024-06-04 14:18:15.297201
34.33720052,-6.839285374,-1.905584097,6.466603279,2024-06-04 14:18:15.337201
34.37720052,-6.945765972,-2.199003935,6.399604321,2024-06-04 14:18:15.377201
34.41720052,-7.046264648,-2.184647083,6.246164322,2024-06-04 14:18:15.417201
34.45720052,-7.154240608,-2.082952023,6.197111607,2024-06-04 14:18:15.457201
34.49720052,-7.17457962,-2.036292076,6.114559174,2024-06-04 14:18:15.497201
34.53720052,-7.208079338,-2.044667006,6.107380867,2024-06-04 14:18:15.537201
34.57720052,-7.161418915,-2.086541414,6.180361748,2024-06-04 14:18:15.577201
34.61720052,-7.102795124,-2.115255117,6.267699718,2024-06-04 14:18:15.617201
34.65720052,-6.994818687,-2.172683001,6.331408501,2024-06-04 14:18:15.657201
34.69720052,-6.968497753,-2.201396942,6.406782627,2024-06-04 14:18:15.697201
34.73720052,-6.951747894,-2.189432621,6.397211552,2024-06-04 14:18:15.737201
34.77720052,-6.956533432,-2.140379906,6.388836384,2024-06-04 14:18:15.777201
34.81720052,-7.028318405,-2.134397745,6.346961975,2024-06-04 14:18:15.817201
34.85720052,-7.070192814,-2.11046958,6.277271271,2024-06-04 14:18:15.857201
34.89720052,-7.070192814,-2.123630047,6.229414463,2024-06-04 14:18:15.897201
34.93720052,-7.086942673,-2.103291035,6.266503334,2024-06-04 14:18:15.937201
34.97720052,-7.057032108,-2.128415823,6.272485256,2024-06-04 14:18:15.977201
35.01720052,-7.037889481,-2.14995122,6.303891182,2024-06-04 14:18:16.017201
35.05720052,-7.022336483,-2.14995122,6.370890141,2024-06-04 14:18:16.057201
35.09720052,-7.000801086,-2.147558212,6.332605362,2024-06-04 14:18:16.097201
35.13720052,-7.021139622,-2.139183521,6.325426579,2024-06-04 14:18:16.137201
35.17720052,-7.055835724,-2.155933142,6.270092487,2024-06-04 14:18:16.177201
35.21720052,-7.068996429,-2.118844509,6.280860424,2024-06-04 14:18:16.217201
35.25720052,-7.02951479,-2.100898266,6.318248272,2024-06-04 14:18:16.257201
35.29720052,-7.02951479,-2.100898266,6.318248272,2024-06-04 14:18:16.297201
35.33720052,-7.02951479,-2.100898266,6.318248272,2024-06-04 14:18:16.337201
35.37720052,-7.02951479,-2.100898266,6.318248272,2024-06-04 14:18:16.377201
35.41720052,-7.02951479,-2.100898266,6.318248272,2024-06-04 14:18:16.417201
35.45720052,-7.02951479,-2.100898266,6.318248272,2024-06-04 14:18:16.457201
35.49720052,-7.02951479,-2.100898266,6.318248272,2024-06-04 14:18:16.497201
35.53720052,-7.02951479,-2.100898266,6.318248272,2024-06-04 14:18:16.537201
35.57720052,-7.02951479,-2.100898266,6.318248272,2024-06-04 14:18:16.577201
35.61720052,-7.02951479,-2.100898266,6.318248272,2024-06-04 14:18:16.617201
35.65720052,-7.02951479,-2.100898266,6.318248272,2024-06-04 14:18:16.657201
35.69720052,-7.02951479,-2.100898266,6.318248272,2024-06-04 14:18:16.697201
35.73720052,-7.02951479,-2.100898266,6.318248272,2024-06-04 14:18:16.737201
35.77720052,-7.02951479,-2.100898266,6.318248272,2024-06-04 14:18:16.777201
35.81720052,-7.02951479,-2.100898266,6.318248272,2024-06-04 14:18:16.817201
35.85720052,-7.02951479,-2.100898266,6.318248272,2024-06-04 14:18:16.857201
35.89720052,-7.02951479,-2.100898266,6.318248272,2024-06-04 14:18:16.897201
35.93720052,-7.02951479,-2.100898266,6.318248272,2024-06-04 14:18:16.937201
35.97720052,-7.02951479,-2.100898266,6.318248272,2024-06-04 14:18:16.977201
36.01720052,-7.010372162,-2.134397745,6.339783669,2024-06-04 14:18:17.017201
36.05720052,-6.986443996,-2.154736757,6.378068924,2024-06-04 14:18:17.057201
36.09720052,-7.001997471,-2.112862349,6.388836384,2024-06-04 14:18:17.097201
36.13720052,-7.009175777,-2.147558212,6.309873104,2024-06-04 14:18:17.137201
36.17720052,-7.057032108,-2.120040894,6.306283951,2024-06-04 14:18:17.177201
36.21720052,-7.073781967,-2.139183521,6.234200478,2024-06-04 14:18:17.217201
36.25720052,-7.076174736,-2.134397745,6.272485256,2024-06-04 14:18:17.257201
36.29720052,-7.109973431,-2.151147604,6.256932259,2024-06-04 14:18:17.297201
36.33720052,-7.035496712,-2.120040894,6.282056808,2024-06-04 14:18:17.337201
36.37720052,-7.013961315,-2.123630047,6.36251545,2024-06-04 14:18:17.377201
36.41720052,-6.993622303,-2.182254314,6.330212116,2024-06-04 14:18:17.417201
36.45720052,-7.00439024,-2.139183521,6.311069489,2024-06-04 14:18:17.457201
36.49720052,-7.040282249,-2.143969059,6.295516491,2024-06-04 14:18:17.497201
36.53720052,-7.058228493,-2.114058733,6.291927338,2024-06-04 14:18:17.537201
36.57720052,-7.080960274,-2.111665964,6.274878502,2024-06-04 14:18:17.577201
36.61720052,-7.078567505,-2.139183521,6.25453949,2024-06-04 14:18:17.617201
36.65720052,-7.057032108,-2.133201361,6.29790926,2024-06-04 14:18:17.657201
36.69720052,-7.007979393,-2.137987137,6.305087566,2024-06-04 14:18:17.697201
36.73720052,-7.080960274,-2.10209465,6.296712875,2024-06-04 14:18:17.737201
36.77720052,-7.041478634,-2.120040894,6.291927338,2024-06-04 14:18:17.777201
36.81720052,-6.988836765,-2.137987137,6.343372822,2024-06-04 14:18:17.817201
36.85720052,-6.986443996,-2.148754835,6.346961975,2024-06-04 14:18:17.857201
36.89720052,-7.047461033,-2.167897224,6.313462734,2024-06-04 14:18:17.897201
36.93720052,-7.047461033,-2.167897224,6.313462734,2024-06-04 14:18:17.937201
36.97720052,-7.047461033,-2.167897224,6.313462734,2024-06-04 14:18:17.977201
37.01720052,-7.047461033,-2.167897224,6.313462734,2024-06-04 14:18:18.017201
37.05720052,-7.047461033,-2.167897224,6.313462734,2024-06-04 14:18:18.057201
37.09720052,-7.047461033,-2.167897224,6.313462734,2024-06-04 14:18:18.097201
37.13720052,-7.047461033,-2.167897224,6.313462734,2024-06-04 14:18:18.137201
37.17720052,-7.047461033,-2.167897224,6.313462734,2024-06-04 14:18:18.177201
37.21720052,-7.047461033,-2.167897224,6.313462734,2024-06-04 14:18:18.217201
37.25720052,-7.047461033,-2.167897224,6.313462734,2024-06-04 14:18:18.257201
37.29720052,-7.047461033,-2.167897224,6.313462734,2024-06-04 14:18:18.297201
37.33720052,-7.047461033,-2.167897224,6.313462734,2024-06-04 14:18:18.337201
37.37720052,-7.047461033,-2.167897224,6.313462734,2024-06-04 14:18:18.377201
37.41720052,-7.047461033,-2.167897224,6.313462734,2024-06-04 14:18:18.417201
37.45720052,-7.047461033,-2.167897224,6.313462734,2024-06-04 14:18:18.457201
37.49720052,-7.047461033,-2.167897224,6.313462734,2024-06-04 14:18:18.497201
37.53720052,-7.047461033,-2.167897224,6.313462734,2024-06-04 14:18:18.537201
37.57720052,-7.047461033,-2.167897224,6.313462734,2024-06-04 14:18:18.577201
37.61720052,-7.047461033,-2.167897224,6.313462734,2024-06-04 14:18:18.617201
37.65720052,-7.052246571,-2.159522533,6.289534092,2024-06-04 14:18:18.657201
37.69720052,-7.042675018,-2.134397745,6.319444656,2024-06-04 14:18:18.697201
37.73720052,-7.028318405,-2.111665964,6.309873104,2024-06-04 14:18:18.737201
37.77720052,-7.0151577,-2.105684042,6.334998131,2024-06-04 14:18:18.777201
37.81720052,-7.066603661,-2.164308071,6.311069489,2024-06-04 14:18:18.817201
37.85720052,-7.016354084,-2.137987137,6.260521412,2024-06-04 14:18:18.857201
37.89720052,-7.114758968,-2.163111687,6.288038731,2024-06-04 14:18:18.897201
37.93720052,-7.052246571,-2.142772675,6.277271271,2024-06-04 14:18:18.937201
37.97720052,-7.030711174,-2.145165443,6.302694798,2024-06-04 14:18:18.977201
38.01720052,-7.006783009,-2.103291035,6.338587284,2024-06-04 14:18:19.017201
38.05720052,-6.999604225,-2.073380709,6.318248272,2024-06-04 14:18:19.057201
38.09720052,-7.065407276,-2.126022816,6.274878502,2024-06-04 14:18:19.097201
38.13720052,-7.089335442,-2.16670084,6.273681641,2024-06-04 14:18:19.137201
38.17720052,-7.066603661,-2.164308071,6.266503334,2024-06-04 14:18:19.177201
38.21720052,-7.027122021,-2.139183521,6.31226635,2024-06-04 14:18:19.217201
38.25720052,-7.011568546,-2.123630047,6.336194515,2024-06-04 14:18:19.257201
38.29720052,-7.031907558,-2.127219439,6.320641041,2024-06-04 14:18:19.297201
38.33720052,-7.046264648,-2.134397745,6.306283951,2024-06-04 14:18:19.337201
38.37720052,-7.031907558,-2.112862349,6.307480335,2024-06-04 14:18:19.377201
38.41720052,-7.058228493,-2.14157629,6.277271271,2024-06-04 14:18:19.417201
38.45720052,-7.067800045,-2.139183521,6.276074886,2024-06-04 14:18:19.457201
38.49720052,-7.049853802,-2.130808592,6.311069489,2024-06-04 14:18:19.497201
38.53720052,-7.024729252,-2.122433662,6.314659119,2024-06-04 14:18:19.537201
38.57720052,-7.024729252,-2.122433662,6.314659119,2024-06-04 14:18:19.577201
38.61720052,-7.024729252,-2.122433662,6.314659119,2024-06-04 14:18:19.617201
38.65720052,-7.024729252,-2.122433662,6.314659119,2024-06-04 14:18:19.657201
38.69720052,-7.024729252,-2.122433662,6.314659119,2024-06-04 14:18:19.697201
38.73720052,-7.024729252,-2.122433662,6.314659119,2024-06-04 14:18:19.737201
38.77720052,-7.024729252,-2.122433662,6.314659119,2024-06-04 14:18:19.777201
38.81720052,-7.024729252,-2.122433662,6.314659119,2024-06-04 14:18:19.817201
38.85720052,-7.024729252,-2.122433662,6.314659119,2024-06-04 14:18:19.857201
38.89720052,-7.024729252,-2.122433662,6.314659119,2024-06-04 14:18:19.897201
38.93720052,-7.024729252,-2.122433662,6.314659119,2024-06-04 14:18:19.937201
38.97720052,-7.024729252,-2.122433662,6.314659119,2024-06-04 14:18:19.977201
39.01720052,-7.024729252,-2.122433662,6.314659119,2024-06-04 14:18:20.017201
39.05720052,-7.024729252,-2.122433662,6.314659119,2024-06-04 14:18:20.057201
39.09720052,-7.024729252,-2.122433662,6.314659119,2024-06-04 14:18:20.097201
39.13720052,-7.024729252,-2.122433662,6.314659119,2024-06-04 14:18:20.137201
39.17720052,-7.024729252,-2.122433662,6.314659119,2024-06-04 14:18:20.177201
39.21720052,-7.024729252,-2.122433662,6.314659119,2024-06-04 14:18:20.217201
39.25720052,-7.024729252,-2.122433662,6.314659119,2024-06-04 14:18:20.257201
39.29720052,-7.024729252,-2.122433662,6.314659119,2024-06-04 14:18:20.297201
39.33720052,-7.036693096,-2.108076811,6.321837425,2024-06-04 14:18:20.337201
39.37720052,-7.070192814,-2.158325911,6.258128643,2024-06-04 14:18:20.377201
39.41720052,-7.071389198,-2.106880426,6.295516491,2024-06-04 14:18:20.417201
39.45720052,-7.055835724,-2.157129526,6.277271271,2024-06-04 14:18:20.457201
39.49720052,-7.060621262,-2.122433662,6.317051888,2024-06-04 14:18:20.497201
39.53720052,-7.009175777,-2.14995122,6.338587284,2024-06-04 14:18:20.537201
39.57720052,-6.997211456,-2.105684042,6.34815836,2024-06-04 14:18:20.577201
39.61720052,-6.998407841,-2.075773716,6.350551128,2024-06-04 14:18:20.617201
39.65720052,-7.016354084,-2.093719721,6.3373909,2024-06-04 14:18:20.657201
39.69720052,-7.022336483,-2.094916344,6.318248272,2024-06-04 14:18:20.697201
39.73720052,-7.033103943,-2.140379906,6.301498413,2024-06-04 14:18:20.737201
39.77720052,-7.051050186,-2.139183521,6.32303381,2024-06-04 14:18:20.777201
39.81720052,-7.018746853,-2.140379906,6.318248272,2024-06-04 14:18:20.817201
39.85720052,-7.024729252,-2.120040894,6.346961975,2024-06-04 14:18:20.857201
39.89720052,-7.006783009,-2.100898266,6.34815836,2024-06-04 14:18:20.897201
39.93720052,-7.030711174,-2.084148407,6.326622963,2024-06-04 14:18:20.937201
39.97720052,-7.040282249,-2.122433662,6.307480335,2024-06-04 14:18:20.977201
40.01720052,-7.019943237,-2.124826431,6.302694798,2024-06-04 14:18:21.017201
40.05720052,-7.00439024,-2.142772675,6.314659119,2024-06-04 14:18:21.057201
40.09720052,-7.016354084,-2.117648125,6.351747513,2024-06-04 14:18:21.097201
40.13720052,-7.030711174,-2.100898266,6.3373909,2024-06-04 14:18:21.137201
40.17720052,-7.022336483,-2.093719721,6.352943897,2024-06-04 14:18:21.177201
40.21720052,-6.987640381,-2.126022816,6.346961975,2024-06-04 14:18:21.217201
40.25720052,-6.987640381,-2.126022816,6.346961975,2024-06-04 14:18:21.257201
40.29720052,-6.987640381,-2.126022816,6.346961975,2024-06-04 14:18:21.297201
40.33720052,-6.987640381,-2.126022816,6.346961975,2024-06-04 14:18:21.337201
40.37720052,-6.987640381,-2.126022816,6.346961975,2024-06-04 14:18:21.377201
40.41720052,-6.987640381,-2.126022816,6.346961975,2024-06-04 14:18:21.417201
40.45720052,-6.987640381,-2.126022816,6.346961975,2024-06-04 14:18:21.457201
40.49720052,-6.987640381,-2.126022816,6.346961975,2024-06-04 14:18:21.497201
40.53720052,-6.987640381,-2.126022816,6.346961975,2024-06-04 14:18:21.537201
40.57720052,-6.987640381,-2.126022816,6.346961975,2024-06-04 14:18:21.577201
40.61720052,-6.987640381,-2.126022816,6.346961975,2024-06-04 14:18:21.617201
40.65720052,-6.987640381,-2.126022816,6.346961975,2024-06-04 14:18:21.657201
40.69720052,-6.987640381,-2.126022816,6.346961975,2024-06-04 14:18:21.697201
40.73720052,-6.987640381,-2.126022816,6.346961975,2024-06-04 14:18:21.737201
40.77720052,-6.987640381,-2.126022816,6.346961975,2024-06-04 14:18:21.777201
40.81720052,-6.987640381,-2.126022816,6.346961975,2024-06-04 14:18:21.817201
40.85720052,-7.070192814,-2.093719721,6.314659119,2024-06-04 14:18:21.857201
40.89720052,-7.070192814,-2.093719721,6.314659119,2024-06-04 14:18:21.897201
40.93720052,-7.070192814,-2.093719721,6.314659119,2024-06-04 14:18:21.937201
40.97720052,-6.997211456,-2.176272154,6.311069489,2024-06-04 14:18:21.977201
41.01720052,-7.012764931,-2.177468538,6.344569206,2024-06-04 14:18:22.017201
41.05720052,-7.003193855,-2.108076811,6.355337143,2024-06-04 14:18:22.057201
41.09720052,-7.061817646,-2.11645174,6.311069489,2024-06-04 14:18:22.097201
41.13720052,-7.16022253,-2.111665964,6.268896103,2024-06-04 14:18:22.137201
41.17720052,-7.095616341,-2.073380709,6.183950901,2024-06-04 14:18:22.177201
41.21720052,-7.065407276,-2.108076811,6.243771553,2024-06-04 14:18:22.217201
41.25720052,-6.97567606,-2.140379906,6.351747513,2024-06-04 14:18:22.257201
41.29720052,-6.908677101,-2.160718918,6.401997089,2024-06-04 14:18:22.297201
41.33720052,-7.028318405,-2.146361828,6.428318024,2024-06-04 14:18:22.337201
41.37720052,-7.010372162,-2.11645174,6.326622963,2024-06-04 14:18:22.377201
41.41720052,-7.059424877,-2.103291035,6.27966404,2024-06-04 14:18:22.417201
41.45720052,-7.105187893,-2.117648125,6.222236156,2024-06-04 14:18:22.457201
41.49720052,-7.095616341,-2.154736757,6.198307991,2024-06-04 14:18:22.497201
41.53720052,-7.058228493,-2.132004976,6.25094986,2024-06-04 14:18:22.537201
41.57720052,-6.998407841,-2.127219439,6.349354744,2024-06-04 14:18:22.577201
41.61720052,-6.99003315,-2.120040894,6.400800705,2024-06-04 14:18:22.617201
41.65720052,-6.978068829,-2.122433662,6.361319065,2024-06-04 14:18:22.657201
41.69720052,-7.036693096,-2.129612207,6.345765591,2024-06-04 14:18:22.697201
41.73720052,-7.035496712,-2.117648125,6.280860424,2024-06-04 14:18:22.737201
41.77720052,-7.083353043,-2.132004976,6.255735874,2024-06-04 14:18:22.777201
41.81720052,-7.094419956,-2.100898266,6.25453949,2024-06-04 14:18:22.817201
41.85720052,-7.072585583,-2.098505497,6.283253193,2024-06-04 14:18:22.857201
41.89720052,-7.072585583,-2.098505497,6.283253193,2024-06-04 14:18:22.897201
41.93720052,-7.072585583,-2.098505497,6.283253193,2024-06-04 14:18:22.937201
41.97720052,-7.072585583,-2.098505497,6.283253193,2024-06-04 14:18:22.977201
42.01720052,-7.072585583,-2.098505497,6.283253193,2024-06-04 14:18:23.017201
42.05720052,-7.072585583,-2.098505497,6.283253193,2024-06-04 14:18:23.057201
42.09720052,-7.072585583,-2.098505497,6.283253193,2024-06-04 14:18:23.097201
42.13720052,-7.072585583,-2.098505497,6.283253193,2024-06-04 14:18:23.137201
42.17720052,-7.072585583,-2.098505497,6.283253193,2024-06-04 14:18:23.177201
42.21720052,-7.072585583,-2.098505497,6.283253193,2024-06-04 14:18:23.217201
42.25720052,-7.072585583,-2.098505497,6.283253193,2024-06-04 14:18:23.257201
42.29720052,-7.072585583,-2.098505497,6.283253193,2024-06-04 14:18:23.297201
42.33720052,-7.072585583,-2.098505497,6.283253193,2024-06-04 14:18:23.337201
42.37720052,-7.072585583,-2.098505497,6.283253193,2024-06-04 14:18:23.377201
42.41720052,-7.072585583,-2.098505497,6.283253193,2024-06-04 14:18:23.417201
42.45720052,-7.072585583,-2.098505497,6.283253193,2024-06-04 14:18:23.457201
42.49720052,-7.072585583,-2.098505497,6.283253193,2024-06-04 14:18:23.497201
42.53720052,-7.072585583,-2.098505497,6.283253193,2024-06-04 14:18:23.537201
42.57720052,-7.072585583,-2.098505497,6.283253193,2024-06-04 14:18:23.577201
42.61720052,-7.046264648,-2.14157629,6.317051888,2024-06-04 14:18:23.617201
42.65720052,-7.027122021,-2.130808592,6.291927338,2024-06-04 14:18:23.657201
42.69720052,-7.053442955,-2.130808592,6.320641041,2024-06-04 14:18:23.697201
42.73720052,-7.013961315,-2.123630047,6.315855503,2024-06-04 14:18:23.737201
42.77720052,-7.046264648,-2.145165443,6.321837425,2024-06-04 14:18:23.777201
42.81720052,-7.071389198,-2.096112728,6.285645962,2024-06-04 14:18:23.817201
42.85720052,-7.024729252,-2.096112728,6.307480335,2024-06-04 14:18:23.857201
42.89720052,-7.025925636,-2.133201361,6.301498413,2024-06-04 14:18:23.897201
42.93720052,-7.046264648,-2.105684042,6.334998131,2024-06-04 14:18:23.937201
42.97720052,-7.005586624,-2.117648125,6.307480335,2024-06-04 14:18:23.977201
43.01720052,-7.055835724,-2.143969059,6.320641041,2024-06-04 14:18:24.017201
43.05720052,-7.001997471,-2.137987137,6.307480335,2024-06-04 14:18:24.057201
43.09720052,-7.045068264,-2.124826431,6.325426579,2024-06-04 14:18:24.097201
43.13720052,-7.079763889,-2.103291035,6.293123722,2024-06-04 14:18:24.137201
43.17720052,-7.048657417,-2.092523336,6.255735874,2024-06-04 14:18:24.177201
43.21720052,-7.088139057,-2.112862349,6.313462734,2024-06-04 14:18:24.217201
43.25720052,-7.012764931,-2.167897224,6.318248272,2024-06-04 14:18:24.257201
43.29720052,-6.976872444,-2.172683001,6.343372822,2024-06-04 14:18:24.297201
43.33720052,-7.036693096,-2.159522533,6.345765591,2024-06-04 14:18:24.337201
43.37720052,-7.025925636,-2.099701881,6.317051888,2024-06-04 14:18:24.377201
43.41720052,-7.04387188,-2.108076811,6.295516491,2024-06-04 14:18:24.417201
43.45720052,-7.071389198,-2.123630047,6.267699718,2024-06-04 14:18:24.457201
43.49720052,-7.095616341,-2.137987137,6.2401824,2024-06-04 14:18:24.497201
43.53720052,-7.095616341,-2.137987137,6.2401824,2024-06-04 14:18:24.537201
43.57720052,-7.095616341,-2.137987137,6.2401824,2024-06-04 14:18:24.577201
43.61720052,-7.003193855,-2.128415823,6.334998131,2024-06-04 14:18:24.617201
43.65720052,-7.003193855,-2.128415823,6.334998131,2024-06-04 14:18:24.657201
43.69720052,-7.003193855,-2.128415823,6.334998131,2024-06-04 14:18:24.697201
43.73720052,-7.003193855,-2.128415823,6.334998131,2024-06-04 14:18:24.737201
43.77720052,-7.003193855,-2.128415823,6.334998131,2024-06-04 14:18:24.777201
43.81720052,-7.003193855,-2.128415823,6.334998131,2024-06-04 14:18:24.817201
43.85720052,-7.023532867,-2.132004976,6.317051888,2024-06-04 14:18:24.857201
43.89720052,-7.023532867,-2.132004976,6.317051888,2024-06-04 14:18:24.897201
43.93720052,-7.023532867,-2.132004976,6.317051888,2024-06-04 14:18:24.937201
43.97720052,-7.023532867,-2.132004976,6.317051888,2024-06-04 14:18:24.977201
44.01720052,-7.023532867,-2.132004976,6.317051888,2024-06-04 14:18:25.017201
44.05720052,-7.023532867,-2.132004976,6.317051888,2024-06-04 14:18:25.057201
44.09720052,-7.023532867,-2.132004976,6.317051888,2024-06-04 14:18:25.097201
44.13720052,-7.023532867,-2.132004976,6.317051888,2024-06-04 14:18:25.137201
44.17720052,-7.023532867,-2.132004976,6.317051888,2024-06-04 14:18:25.177201
44.21720052,-7.023532867,-2.132004976,6.317051888,2024-06-04 14:18:25.217201
44.25720052,-7.023532867,-2.132004976,6.317051888,2024-06-04 14:18:25.257201
44.29720052,-6.993622303,-2.127219439,6.351747513,2024-06-04 14:18:25.297201
44.33720052,-7.045068264,-2.151147604,6.333801746,2024-06-04 14:18:25.337201
44.37720052,-7.001997471,-2.090130568,6.306283951,2024-06-04 14:18:25.377201
44.41720052,-7.053442955,-2.128415823,6.319444656,2024-06-04 14:18:25.417201
44.45720052,-7.046264648,-2.121237278,6.284449577,2024-06-04 14:18:25.457201
44.49720052,-7.048657417,-2.132004976,6.273681641,2024-06-04 14:18:25.497201
44.53720052,-7.035496712,-2.165504456,6.321837425,2024-06-04 14:18:25.537201
44.57720052,-7.025925636,-2.13559413,6.331408501,2024-06-04 14:18:25.577201
44.61720052,-7.042675018,-2.109273195,6.331408501,2024-06-04 14:18:25.617201
44.65720052,-7.036693096,-2.11046958,6.314659119,2024-06-04 14:18:25.657201
44.69720052,-7.025925636,-2.112862349,6.349354744,2024-06-04 14:18:25.697201
44.73720052,-7.016354084,-2.121237278,6.303891182,2024-06-04 14:18:25.737201
44.77720052,-7.0151577,-2.066202402,6.334998131,2024-06-04 14:18:25.777201
44.81720052,-7.006783009,-2.127219439,6.319444656,2024-06-04 14:18:25.817201
44.85720052,-7.003193855,-2.096112728,6.345765591,2024-06-04 14:18:25.857201
44.89720052,-7.052246571,-2.151147604,6.313462734,2024-06-04 14:18:25.897201
44.93720052,-7.051050186,-2.140379906,6.291927338,2024-06-04 14:18:25.937201
44.97720052,-7.057032108,-2.171486616,6.301498413,2024-06-04 14:18:25.977201
45.01720052,-7.033103943,-2.100898266,6.32303381,2024-06-04 14:18:26.017201
45.05720052,-7.022336483,-2.112862349,6.320641041,2024-06-04 14:18:26.057201
45.09720052,-7.010372162,-2.171486616,6.307480335,2024-06-04 14:18:26.097201
45.13720052,-7.037889481,-2.137987137,6.346961975,2024-06-04 14:18:26.137201
45.17720052,-7.010372162,-2.063809633,6.343372822,2024-06-04 14:18:26.177201
45.21720052,-7.010372162,-2.063809633,6.343372822,2024-06-04 14:18:26.217201
45.25720052,-7.010372162,-2.063809633,6.343372822,2024-06-04 14:18:26.257201
45.29720052,-7.010372162,-2.063809633,6.343372822,2024-06-04 14:18:26.297201
45.33720052,-7.010372162,-2.063809633,6.343372822,2024-06-04 14:18:26.337201
45.37720052,-7.010372162,-2.063809633,6.343372822,2024-06-04 14:18:26.377201
45.41720052,-7.010372162,-2.063809633,6.343372822,2024-06-04 14:18:26.417201
45.45720052,-7.010372162,-2.063809633,6.343372822,2024-06-04 14:18:26.457201
45.49720052,-7.010372162,-2.063809633,6.343372822,2024-06-04 14:18:26.497201
45.53720052,-7.010372162,-2.063809633,6.343372822,2024-06-04 14:18:26.537201
45.57720052,-7.010372162,-2.063809633,6.343372822,2024-06-04 14:18:26.577201
45.61720052,-7.010372162,-2.063809633,6.343372822,2024-06-04 14:18:26.617201
45.65720052,-7.010372162,-2.063809633,6.343372822,2024-06-04 14:18:26.657201
45.69720052,-7.010372162,-2.063809633,6.343372822,2024-06-04 14:18:26.697201
45.73720052,-7.010372162,-2.063809633,6.343372822,2024-06-04 14:18:26.737201
45.77720052,-7.010372162,-2.063809633,6.343372822,2024-06-04 14:18:26.777201
45.81720052,-7.010372162,-2.063809633,6.343372822,2024-06-04 14:18:26.817201
45.85720052,-7.010372162,-2.063809633,6.343372822,2024-06-04 14:18:26.857201
45.89720052,-7.010372162,-2.063809633,6.343372822,2024-06-04 14:18:26.897201
45.93720052,-7.02951479,-2.121237278,6.326622963,2024-06-04 14:18:26.937201
45.97720052,-7.013961315,-2.147558212,6.319444656,2024-06-04 14:18:26.977201
46.01720052,-7.033103943,-2.132004976,6.330212116,2024-06-04 14:18:27.017201
46.05720052,-7.034300327,-2.123630047,6.338587284,2024-06-04 14:18:27.057201
46.09720052,-7.052246571,-2.152343988,6.283253193,2024-06-04 14:18:27.097201
46.13720052,-7.02951479,-2.092523336,6.318248272,2024-06-04 14:18:27.137201
46.17720052,-7.011568546,-2.051845312,6.338587284,2024-06-04 14:18:27.177201
46.21720052,-7.030711174,-2.112862349,6.32303381,2024-06-04 14:18:27.217201
46.25720052,-6.998407841,-2.170290232,6.329015732,2024-06-04 14:18:27.257201
46.29720052,-7.049853802,-2.214557409,6.296712875,2024-06-04 14:18:27.297201
46.33720052,-7.024729252,-2.142772675,6.3373909,2024-06-04 14:18:27.337201
46.37720052,-7.045068264,-2.184647083,6.338587284,2024-06-04 14:18:27.377201
46.41720052,-7.042675018,-2.097309113,6.295516491,2024-06-04 14:18:27.417201
46.45720052,-7.112366199,-2.109273195,6.229414463,2024-06-04 14:18:27.457201
46.49720052,-7.088139057,-2.018345833,6.299105644,2024-06-04 14:18:27.497201
46.53720052,-7.031907558,-2.079362869,6.283253193,2024-06-04 14:18:27.537201
46.57720052,-7.006783009,-2.079362869,6.366104603,2024-06-04 14:18:27.577201
46.61720052,-7.042675018,-2.153540373,6.373282909,2024-06-04 14:18:27.617201
46.65720052,-7.024729252,-2.268395901,6.301498413,2024-06-04 14:18:27.657201
46.69720052,-6.987640381,-2.204986095,6.299105644,2024-06-04 14:18:27.697201
46.73720052,-7.030711174,-2.143969059,6.338587284,2024-06-04 14:18:27.737201
46.77720052,-7.059424877,-2.048256159,6.306283951,2024-06-04 14:18:27.777201
46.81720052,-7.095616341,-2.039881229,6.237789631,2024-06-04 14:18:27.817201
46.85720052,-7.064210415,-2.114058733,6.253343105,2024-06-04 14:18:27.857201
46.89720052,-7.064210415,-2.114058733,6.253343105,2024-06-04 14:18:27.897201
46.93720052,-7.064210415,-2.114058733,6.253343105,2024-06-04 14:18:27.937201
46.97720052,-7.064210415,-2.114058733,6.253343105,2024-06-04 14:18:27.977201
47.01720052,-7.064210415,-2.114058733,6.253343105,2024-06-04 14:18:28.017201
47.05720052,-7.064210415,-2.114058733,6.253343105,2024-06-04 14:18:28.057201
47.09720052,-7.064210415,-2.114058733,6.253343105,2024-06-04 14:18:28.097201
47.13720052,-7.064210415,-2.114058733,6.253343105,2024-06-04 14:18:28.137201
47.17720052,-7.064210415,-2.114058733,6.253343105,2024-06-04 14:18:28.177201
47.21720052,-7.064210415,-2.114058733,6.253343105,2024-06-04 14:18:28.217201
47.25720052,-7.064210415,-2.114058733,6.253343105,2024-06-04 14:18:28.257201
47.29720052,-7.064210415,-2.114058733,6.253343105,2024-06-04 14:18:28.297201
47.33720052,-7.064210415,-2.114058733,6.253343105,2024-06-04 14:18:28.337201
47.37720052,-7.064210415,-2.114058733,6.253343105,2024-06-04 14:18:28.377201
47.41720052,-7.064210415,-2.114058733,6.253343105,2024-06-04 14:18:28.417201
47.45720052,-7.064210415,-2.114058733,6.253343105,2024-06-04 14:18:28.457201
47.49720052,-7.064210415,-2.114058733,6.253343105,2024-06-04 14:18:28.497201
47.53720052,-7.064210415,-2.114058733,6.253343105,2024-06-04 14:18:28.537201
47.57720052,-7.047461033,-2.130808592,6.284449577,2024-06-04 14:18:28.577201
47.61720052,-7.049853802,-2.11046958,6.288038731,2024-06-04 14:18:28.617201
47.65720052,-7.061817646,-2.14995122,6.294320107,2024-06-04 14:18:28.657201
47.69720052,-7.046264648,-2.121237278,6.295516491,2024-06-04 14:18:28.697201
47.73720052,-7.028318405,-2.123630047,6.340980053,2024-06-04 14:18:28.737201
47.77720052,-7.00439024,-2.134397745,6.342176437,2024-06-04 14:18:28.777201
47.81720052,-7.035496712,-2.132004976,6.320641041,2024-06-04 14:18:28.817201
47.85720052,-7.04387188,-2.094916344,6.290730953,2024-06-04 14:18:28.857201
47.89720052,-7.066603661,-2.147558212,6.293123722,2024-06-04 14:18:28.897201
47.93720052,-7.021139622,-2.11645174,6.301498413,2024-06-04 14:18:28.937201
47.97720052,-7.047461033,-2.132004976,6.299105644,2024-06-04 14:18:28.977201
48.01720052,-7.053442955,-2.112862349,6.317051888,2024-06-04 14:18:29.017201
48.05720052,-7.045068264,-2.114058733,6.311069489,2024-06-04 14:18:29.057201
48.09720052,-7.018746853,-2.124826431,6.32303381,2024-06-04 14:18:29.097201
48.13720052,-7.027122021,-2.14995122,6.314659119,2024-06-04 14:18:29.137201
48.17720052,-7.021139622,-2.122433662,6.305087566,2024-06-04 14:18:29.177201
48.21720052,-7.02951479,-2.115255117,6.313462734,2024-06-04 14:18:29.217201
48.25720052,-7.082156658,-2.104487419,6.324230194,2024-06-04 14:18:29.257201
48.29720052,-7.025925636,-2.130808592,6.285645962,2024-06-04 14:18:29.297201
48.33720052,-7.080960274,-2.122433662,6.294320107,2024-06-04 14:18:29.337201
48.37720052,-7.0151577,-2.126022816,6.247360706,2024-06-04 14:18:29.377201
48.41720052,-7.089335442,-2.151147604,6.317051888,2024-06-04 14:18:29.417201
48.45720052,-7.058228493,-2.165504456,6.286842346,2024-06-04 14:18:29.457201
48.49720052,-7.011568546,-2.127219439,6.340980053,2024-06-04 14:18:29.497201
48.53720052,-7.011568546,-2.127219439,6.340980053,2024-06-04 14:18:29.537201
48.57720052,-7.011568546,-2.127219439,6.340980053,2024-06-04 14:18:29.577201
48.61720052,-7.011568546,-2.127219439,6.340980053,2024-06-04 14:18:29.617201
48.65720052,-7.011568546,-2.127219439,6.340980053,2024-06-04 14:18:29.657201
48.69720052,-7.011568546,-2.127219439,6.340980053,2024-06-04 14:18:29.697201
48.73720052,-7.011568546,-2.127219439,6.340980053,2024-06-04 14:18:29.737201
48.77720052,-7.011568546,-2.127219439,6.340980053,2024-06-04 14:18:29.777201
48.81720052,-7.011568546,-2.127219439,6.340980053,2024-06-04 14:18:29.817201
48.85720052,-7.011568546,-2.127219439,6.340980053,2024-06-04 14:18:29.857201
48.89720052,-7.011568546,-2.127219439,6.340980053,2024-06-04 14:18:29.897201
48.93720052,-7.011568546,-2.127219439,6.340980053,2024-06-04 14:18:29.937201
48.97720052,-7.011568546,-2.127219439,6.340980053,2024-06-04 14:18:29.977201
49.01720052,-7.011568546,-2.127219439,6.340980053,2024-06-04 14:18:30.017201
49.05720052,-7.011568546,-2.127219439,6.340980053,2024-06-04 14:18:30.057201
49.09720052,-7.011568546,-2.127219439,6.340980053,2024-06-04 14:18:30.097201
49.13720052,-7.011568546,-2.127219439,6.340980053,2024-06-04 14:18:30.137201
49.17720052,-7.011568546,-2.127219439,6.340980053,2024-06-04 14:18:30.177201
49.21720052,-7.011568546,-2.127219439,6.340980053,2024-06-04 14:18:30.217201
49.25720052,-7.016354084,-2.133201361,6.305087566,2024-06-04 14:18:30.257201
49.29720052,-7.092027187,-2.118844509,6.236593246,2024-06-04 14:18:30.297201
49.33720052,-7.111169815,-2.109273195,6.261717796,2024-06-04 14:18:30.337201
49.37720052,-7.037889481,-2.11645174,6.289534092,2024-06-04 14:18:30.377201
49.41720052,-7.017550468,-2.145165443,6.324230194,2024-06-04 14:18:30.417201
49.45720052,-7.003193855,-2.171486616,6.345765591,2024-06-04 14:18:30.457201
49.49720052,-7.040282249,-2.14995122,6.326622963,2024-06-04 14:18:30.497201
49.53720052,-7.053442955,-2.133201361,6.313462734,2024-06-04 14:18:30.537201
49.57720052,-7.052246571,-2.124826431,6.301498413,2024-06-04 14:18:30.577201
49.61720052,-7.061817646,-2.109273195,6.261717796,2024-06-04 14:18:30.617201
49.65720052,-7.065407276,-2.124826431,6.236593246,2024-06-04 14:18:30.657201
49.69720052,-7.048657417,-2.154736757,6.301498413,2024-06-04 14:18:30.697201
49.73720052,-7.006783009,-2.133201361,6.340980053,2024-06-04 14:18:30.737201
49.77720052,-7.007979393,-2.134397745,6.355337143,2024-06-04 14:18:30.777201
49.81720052,-7.027122021,-2.133201361,6.336194515,2024-06-04 14:18:30.817201
49.85720052,-7.041478634,-2.136790514,6.301498413,2024-06-04 14:18:30.857201
49.89720052,-7.059424877,-2.142772675,6.273681641,2024-06-04 14:18:30.897201
49.93720052,-7.068996429,-2.13559413,6.283253193,2024-06-04 14:18:30.937201
49.97720052,-7.041478634,-2.120040894,6.327819347,2024-06-04 14:18:30.977201
50.01720052,-7.024729252,-2.134397745,6.331408501,2024-06-04 14:18:31.017201
50.05720052,-7.027122021,-2.137987137,6.321837425,2024-06-04 14:18:31.057201
50.09720052,-7.028318405,-2.152343988,6.305087566,2024-06-04 14:18:31.097201
50.13720052,-7.048657417,-2.136790514,6.299105644,2024-06-04 14:18:31.137201
50.17720052,-7.048657417,-2.136790514,6.299105644,2024-06-04 14:18:31.177201
50.21720052,-7.048657417,-2.136790514,6.299105644,2024-06-04 14:18:31.217201
50.25720052,-7.048657417,-2.136790514,6.299105644,2024-06-04 14:18:31.257201
50.29720052,-7.048657417,-2.136790514,6.299105644,2024-06-04 14:18:31.297201
50.33720052,-7.048657417,-2.136790514,6.299105644,2024-06-04 14:18:31.337201
50.37720052,-7.048657417,-2.136790514,6.299105644,2024-06-04 14:18:31.377201
50.41720052,-7.048657417,-2.136790514,6.299105644,2024-06-04 14:18:31.417201
50.45720052,-7.048657417,-2.136790514,6.299105644,2024-06-04 14:18:31.457201
50.49720052,-7.048657417,-2.136790514,6.299105644,2024-06-04 14:18:31.497201
50.53720052,-7.048657417,-2.136790514,6.299105644,2024-06-04 14:18:31.537201
50.57720052,-7.048657417,-2.136790514,6.299105644,2024-06-04 14:18:31.577201
50.61720052,-7.048657417,-2.136790514,6.299105644,2024-06-04 14:18:31.617201
50.65720052,-7.048657417,-2.136790514,6.299105644,2024-06-04 14:18:31.657201
50.69720052,-7.048657417,-2.136790514,6.299105644,2024-06-04 14:18:31.697201
50.73720052,-7.048657417,-2.136790514,6.299105644,2024-06-04 14:18:31.737201
50.77720052,-7.048657417,-2.136790514,6.299105644,2024-06-04 14:18:31.777201
50.81720052,-7.048657417,-2.136790514,6.299105644,2024-06-04 14:18:31.817201
50.85720052,-7.027122021,-2.121237278,6.327819347,2024-06-04 14:18:31.857201
50.89720052,-7.023532867,-2.136790514,6.329015732,2024-06-04 14:18:31.897201
50.93720052,-7.072585583,-2.193022013,6.256932259,2024-06-04 14:18:31.937201
50.97720052,-7.099205494,-2.121237278,6.276074886,2024-06-04 14:18:31.977201
51.01720052,-7.019943237,-2.082952023,6.295516491,2024-06-04 14:18:32.017201
51.05720052,-7.012764931,-2.094916344,6.301498413,2024-06-04 14:18:32.057201
51.09720052,-7.036693096,-2.171486616,6.329015732,2024-06-04 14:18:32.097201
51.13720052,-7.007979393,-2.177468538,6.331408501,2024-06-04 14:18:32.137201
51.17720052,-7.034300327,-2.14995122,6.311069489,2024-06-04 14:18:32.177201
51.21720052,-7.049853802,-2.127219439,6.290730953,2024-06-04 14:18:32.217201
51.25720052,-7.084549427,-2.048256159,6.282056808,2024-06-04 14:18:32.257201
51.29720052,-7.079763889,-2.099701881,6.258128643,2024-06-04 14:18:32.297201
51.33720052,-7.064210415,-2.13559413,6.295516491,2024-06-04 14:18:32.337201
51.37720052,-7.027122021,-2.145165443,6.30867672,2024-06-04 14:18:32.377201
51.41720052,-7.007979393,-2.132004976,6.336194515,2024-06-04 14:18:32.417201
51.45720052,-7.005586624,-2.111665964,6.356533527,2024-06-04 14:18:32.457201
51.49720052,-7.017550468,-2.129612207,6.336194515,2024-06-04 14:18:32.497201
51.53720052,-7.040282249,-2.118844509,6.299105644,2024-06-04 14:18:32.537201
51.57720052,-7.058228493,-2.130808592,6.255735874,2024-06-04 14:18:32.577201
51.61720052,-7.092027187,-2.139183521,6.291927338,2024-06-04 14:18:32.617201
51.65720052,-7.041478634,-2.143969059,6.294320107,2024-06-04 14:18:32.657201
51.69720052,-7.012764931,-2.097309113,6.34815836,2024-06-04 14:18:32.697201
51.73720052,-7.027122021,-2.126022816,6.318248272,2024-06-04 14:18:32.737201
51.77720052,-7.02951479,-2.143969059,6.325426579,2024-06-04 14:18:32.777201
51.81720052,-7.024729252,-2.136790514,6.280860424,2024-06-04 14:18:32.817201
51.85720052,-7.028318405,-2.108076811,6.305087566,2024-06-04 14:18:32.857201
51.89720052,-7.079763889,-2.155933142,6.268896103,2024-06-04 14:18:32.897201
51.93720052,-6.949355125,-2.039881229,6.409175396,2024-06-04 14:18:32.937201
51.97720052,-6.949355125,-2.039881229,6.409175396,2024-06-04 14:18:32.977201
52.01720052,-6.949355125,-2.039881229,6.409175396,2024-06-04 14:18:33.017201
52.05720052,-6.949355125,-2.039881229,6.409175396,2024-06-04 14:18:33.057201
52.09720052,-6.949355125,-2.039881229,6.409175396,2024-06-04 14:18:33.097201
52.13720052,-6.949355125,-2.039881229,6.409175396,2024-06-04 14:18:33.137201
52.17720052,-7.0151577,-2.23130703,6.370890141,2024-06-04 14:18:33.177201
52.21720052,-7.0151577,-2.23130703,6.370890141,2024-06-04 14:18:33.217201
52.25720052,-7.0151577,-2.23130703,6.370890141,2024-06-04 14:18:33.257201
52.29720052,-7.0151577,-2.23130703,6.370890141,2024-06-04 14:18:33.297201
52.33720052,-7.0151577,-2.23130703,6.370890141,2024-06-04 14:18:33.337201
52.37720052,-7.0151577,-2.23130703,6.370890141,2024-06-04 14:18:33.377201
52.41720052,-7.0151577,-2.23130703,6.370890141,2024-06-04 14:18:33.417201
52.45720052,-7.0151577,-2.23130703,6.370890141,2024-06-04 14:18:33.457201
52.49720052,-7.0151577,-2.23130703,6.370890141,2024-06-04 14:18:33.497201
52.53720052,-7.04387188,-2.196611166,6.293123722,2024-06-04 14:18:33.537201
52.57720052,-7.033103943,-2.16670084,6.315855503,2024-06-04 14:18:33.577201
52.61720052,-6.970890522,-2.191825628,6.338587284,2024-06-04 14:18:33.617201
52.65720052,-7.018746853,-2.145165443,6.350551128,2024-06-04 14:18:33.657201
52.69720052,-7.030711174,-2.164308071,6.276074886,2024-06-04 14:18:33.697201
52.73720052,-7.067800045,-2.146361828,6.291927338,2024-06-04 14:18:33.737201
52.77720052,-7.033103943,-2.177468538,6.278467655,2024-06-04 14:18:33.777201
52.81720052,-7.04387188,-2.170290232,6.234200478,2024-06-04 14:18:33.817201
52.85720052,-7.092027187,-2.160718918,6.291927338,2024-06-04 14:18:33.857201
52.89720052,-6.993622303,-2.194218397,6.295516491,2024-06-04 14:18:33.897201
52.93720052,-6.944569588,-2.155933142,6.39601469,2024-06-04 14:18:33.937201
52.97720052,-6.972086906,-2.187039852,6.3373909,2024-06-04 14:18:33.977201
53.01720052,-7.025925636,-2.175075769,6.326622963,2024-06-04 14:18:34.017201
53.05720052,-7.054639339,-2.185843468,6.291927338,2024-06-04 14:18:34.057201
53.09720052,-7.054639339,-2.185843468,6.291927338,2024-06-04 14:18:34.097201
53.13720052,-7.060621262,-2.143969059,6.27966404,2024-06-04 14:18:34.137201
53.17720052,-7.065407276,-2.118844509,6.282056808,2024-06-04 14:18:34.177201
53.21720052,-7.028318405,-2.163111687,6.285645962,2024-06-04 14:18:34.217201
53.25720052,-7.039085865,-2.176272154,6.284449577,2024-06-04 14:18:34.257201
53.29720052,-7.037889481,-2.177468538,6.315855503,2024-06-04 14:18:34.297201
53.33720052,-7.0151577,-2.173879385,6.336194515,2024-06-04 14:18:34.337201
53.37720052,-7.027122021,-2.158325911,6.336194515,2024-06-04 14:18:34.377201
53.41720052,-7.006783009,-2.132004976,6.32303381,2024-06-04 14:18:34.417201
53.45720052,-7.023532867,-2.139183521,6.324230194,2024-06-04 14:18:34.457201
53.49720052,-7.041478634,-2.173879385,6.294320107,2024-06-04 14:18:34.497201
53.53720052,-7.048657417,-2.171486616,6.282056808,2024-06-04 14:18:34.537201
53.57720052,-7.041478634,-2.158325911,6.276074886,2024-06-04 14:18:34.577201
53.61720052,-7.019943237,-2.161915302,6.306283951,2024-06-04 14:18:34.617201
53.65720052,-7.019943237,-2.161915302,6.306283951,2024-06-04 14:18:34.657201
53.69720052,-7.019943237,-2.161915302,6.306283951,2024-06-04 14:18:34.697201
53.73720052,-7.019943237,-2.161915302,6.306283951,2024-06-04 14:18:34.737201
53.77720052,-7.019943237,-2.161915302,6.306283951,2024-06-04 14:18:34.777201
53.81720052,-7.019943237,-2.161915302,6.306283951,2024-06-04 14:18:34.817201
53.85720052,-7.040282249,-2.159522533,6.29790926,2024-06-04 14:18:34.857201
53.85720052,-7.040282249,-2.159522533,6.29790926,2024-06-04 14:18:34.857201
53.93720052,-7.040282249,-2.159522533,6.29790926,2024-06-04 14:18:34.937201
53.97720052,-7.040282249,-2.159522533,6.29790926,2024-06-04 14:18:34.977201
54.01720052,-7.040282249,-2.159522533,6.29790926,2024-06-04 14:18:35.017201
54.05720052,-7.040282249,-2.159522533,6.29790926,2024-06-04 14:18:35.057201
54.09720052,-7.040282249,-2.159522533,6.29790926,2024-06-04 14:18:35.097201
54.13720052,-7.040282249,-2.159522533,6.29790926,2024-06-04 14:18:35.137201
54.17720052,-7.040282249,-2.159522533,6.29790926,2024-06-04 14:18:35.177201
54.21720052,-7.04387188,-2.170290232,6.317051888,2024-06-04 14:18:35.217201
54.25720052,-7.001997471,-2.171486616,6.317051888,2024-06-04 14:18:35.257201
54.29720052,-7.017550468,-2.126022816,6.313462734,2024-06-04 14:18:35.297201
54.33720052,-7.055835724,-2.165504456,6.282056808,2024-06-04 14:18:35.337201
54.37720052,-7.054639339,-2.16670084,6.262914181,2024-06-04 14:18:35.377201
54.41720052,-7.012764931,-2.137987137,6.3373909,2024-06-04 14:18:35.417201
54.45720052,-6.982854843,-2.182254314,6.352943897,2024-06-04 14:18:35.457201
54.49720052,-7.036693096,-2.280659199,6.320641041,2024-06-04 14:18:35.497201
54.53720052,-7.034300327,-2.16670084,6.344569206,2024-06-04 14:18:35.537201
54.57720052,-7.003193855,-2.087737799,6.271288872,2024-06-04 14:18:35.577201
54.61720052,-7.042675018,-2.073380709,6.300302029,2024-06-04 14:18:35.617201
54.65720052,-7.054639339,-2.056631088,6.283253193,2024-06-04 14:18:35.657201
54.69720052,-7.053442955,-2.11645174,6.260521412,2024-06-04 14:18:35.697201
54.73720052,-7.06301403,-2.140379906,6.3373909,2024-06-04 14:18:35.737201
54.77720052,-6.942176819,-2.159522533,6.393621922,2024-06-04 14:18:35.777201
54.81720052,-6.851249218,-2.224128723,6.465406895,2024-06-04 14:18:35.817201
54.85720052,-6.902695179,-2.194218397,6.480959892,2024-06-04 14:18:35.857201
54.89720052,-7.007979393,-2.163111687,6.401997089,2024-06-04 14:18:35.897201
54.93720052,-7.071389198,-2.012363911,6.343372822,2024-06-04 14:18:35.937201
54.97720052,-7.065407276,-2.080559254,6.227021694,2024-06-04 14:18:35.977201
55.01720052,-7.111169815,-2.114058733,6.243771553,2024-06-04 14:18:36.017201
55.05720052,-6.998407841,-2.164308071,6.293123722,2024-06-04 14:18:36.057201
55.09720052,-6.884748936,-2.249253273,6.433103561,2024-06-04 14:18:36.097201
55.13720052,-6.912266254,-2.207378864,6.484549522,2024-06-04 14:18:36.137201
55.17720052,-6.962515831,-2.175075769,6.400800705,2024-06-04 14:18:36.177201
55.21720052,-7.041478634,-2.164308071,6.29790926,2024-06-04 14:18:36.217201
55.25720052,-7.078567505,-2.137987137,6.242575169,2024-06-04 14:18:36.257201
55.29720052,-7.078567505,-2.137987137,6.242575169,2024-06-04 14:18:36.297201
55.33720052,-7.078567505,-2.137987137,6.242575169,2024-06-04 14:18:36.337201
55.37720052,-7.078567505,-2.137987137,6.242575169,2024-06-04 14:18:36.377201
55.41720052,-7.078567505,-2.137987137,6.242575169,2024-06-04 14:18:36.417201
55.45720052,-7.078567505,-2.137987137,6.242575169,2024-06-04 14:18:36.457201
55.49720052,-7.078567505,-2.137987137,6.242575169,2024-06-04 14:18:36.497201
55.53720052,-7.078567505,-2.137987137,6.242575169,2024-06-04 14:18:36.537201
55.57720052,-7.078567505,-2.137987137,6.242575169,2024-06-04 14:18:36.577201
55.61720052,-7.078567505,-2.137987137,6.242575169,2024-06-04 14:18:36.617201
55.65720052,-7.078567505,-2.137987137,6.242575169,2024-06-04 14:18:36.657201
55.69720052,-7.078567505,-2.137987137,6.242575169,2024-06-04 14:18:36.697201
55.73720052,-7.078567505,-2.137987137,6.242575169,2024-06-04 14:18:36.737201
55.77720052,-7.078567505,-2.137987137,6.242575169,2024-06-04 14:18:36.777201
55.81720052,-7.078567505,-2.137987137,6.242575169,2024-06-04 14:18:36.817201
55.85720052,-7.018746853,-2.120040894,6.355337143,2024-06-04 14:18:36.857201
55.89720052,-7.030711174,-2.086541414,6.325426579,2024-06-04 14:18:36.897201
55.93720052,-7.016354084,-2.07098794,6.276074886,2024-06-04 14:18:36.937201
55.97720052,-7.052246571,-2.13559413,6.272485256,2024-06-04 14:18:36.977201
56.01720052,-7.031907558,-2.148754835,6.276074886,2024-06-04 14:18:37.017201
56.05720052,-7.040282249,-2.147558212,6.327819347,2024-06-04 14:18:37.057201
56.09720052,-7.007979393,-2.143969059,6.329015732,2024-06-04 14:18:37.097201
56.13720052,-6.980462074,-2.154736757,6.350551128,2024-06-04 14:18:37.137201
56.17720052,-7.025925636,-2.139183521,6.330212116,2024-06-04 14:18:37.177201
56.21720052,-6.997211456,-2.175075769,6.302694798,2024-06-04 14:18:37.217201
56.25720052,-6.997211456,-2.175075769,6.302694798,2024-06-04 14:18:37.257201
56.25720052,-7.017550468,-2.178664923,6.334998131,2024-06-04 14:18:37.257201
56.33720052,-6.980462074,-2.208575249,6.351747513,2024-06-04 14:18:37.337201
56.37720052,-6.982854843,-2.14995122,6.412764549,2024-06-04 14:18:37.377201
56.41720052,-6.955337048,-2.082952023,6.357729912,2024-06-04 14:18:37.417201
56.45720052,-7.071389198,-2.091326952,6.345765591,2024-06-04 14:18:37.457201
56.49720052,-7.030711174,-2.134397745,6.267699718,2024-06-04 14:18:37.497201
56.53720052,-7.051050186,-2.081755638,6.300302029,2024-06-04 14:18:37.537201
56.57720052,-7.073781967,-2.145165443,6.311069489,2024-06-04 14:18:37.577201
56.61720052,-6.945765972,-2.159522533,6.305087566,2024-06-04 14:18:37.617201
56.65720052,-7.028318405,-2.224128723,6.356533527,2024-06-04 14:18:37.657201
56.69720052,-6.9649086,-2.145165443,6.352943897,2024-06-04 14:18:37.697201
56.73720052,-7.006783009,-2.126022816,6.360122681,2024-06-04 14:18:37.737201
56.77720052,-7.040282249,-2.122433662,6.315855503,2024-06-04 14:18:37.777201
56.81720052,-7.007979393,-2.143969059,6.311069489,2024-06-04 14:18:37.817201
56.85720052,-7.003193855,-2.142772675,6.309873104,2024-06-04 14:18:37.857201
56.89720052,-7.040282249,-2.14995122,6.314659119,2024-06-04 14:18:37.897201
56.93720052,-7.040282249,-2.14995122,6.314659119,2024-06-04 14:18:37.937201
56.97720052,-7.040282249,-2.14995122,6.314659119,2024-06-04 14:18:37.977201
57.01720052,-7.040282249,-2.14995122,6.314659119,2024-06-04 14:18:38.017201
57.05720052,-7.040282249,-2.14995122,6.314659119,2024-06-04 14:18:38.057201
57.09720052,-7.040282249,-2.14995122,6.314659119,2024-06-04 14:18:38.097201
57.13720052,-7.040282249,-2.14995122,6.314659119,2024-06-04 14:18:38.137201
57.17720052,-7.040282249,-2.14995122,6.314659119,2024-06-04 14:18:38.177201
57.21720052,-7.040282249,-2.14995122,6.314659119,2024-06-04 14:18:38.217201
57.25720052,-7.040282249,-2.14995122,6.314659119,2024-06-04 14:18:38.257201
57.29720052,-7.040282249,-2.14995122,6.314659119,2024-06-04 14:18:38.297201
57.33720052,-7.040282249,-2.14995122,6.314659119,2024-06-04 14:18:38.337201
57.37720052,-7.040282249,-2.14995122,6.314659119,2024-06-04 14:18:38.377201
57.41720052,-7.040282249,-2.14995122,6.314659119,2024-06-04 14:18:38.417201
57.45720052,-7.040282249,-2.14995122,6.314659119,2024-06-04 14:18:38.457201
57.49720052,-7.0151577,-2.163111687,6.331408501,2024-06-04 14:18:38.497201
57.53720052,-7.012764931,-2.133201361,6.3373909,2024-06-04 14:18:38.537201
57.57720052,-7.010372162,-2.169093609,6.32303381,2024-06-04 14:18:38.577201
57.61720052,-6.997211456,-2.151147604,6.329015732,2024-06-04 14:18:38.617201
57.65720052,-7.028318405,-2.136790514,6.329015732,2024-06-04 14:18:38.657201
57.69720052,-7.024729252,-2.132004976,6.314659119,2024-06-04 14:18:38.697201
57.73720052,-7.027122021,-2.158325911,6.293123722,2024-06-04 14:18:38.737201
57.77720052,-7.031907558,-2.147558212,6.320641041,2024-06-04 14:18:38.777201
57.81720052,-7.024729252,-2.154736757,6.331408501,2024-06-04 14:18:38.817201
57.85720052,-7.011568546,-2.14995122,6.339783669,2024-06-04 14:18:38.857201
57.89720052,-7.006783009,-2.122433662,6.329015732,2024-06-04 14:18:38.897201
57.93720052,-7.022336483,-2.154736757,6.330212116,2024-06-04 14:18:38.937201
57.97720052,-7.046264648,-2.151147604,6.318248272,2024-06-04 14:18:38.977201
58.01720052,-7.001997471,-2.136790514,6.315855503,2024-06-04 14:18:39.017201
58.05720052,-7.00439024,-2.132004976,6.349354744,2024-06-04 14:18:39.057201
58.09720052,-7.019943237,-2.14157629,6.346961975,2024-06-04 14:18:39.097201
58.13720052,-6.999604225,-2.117648125,6.326622963,2024-06-04 14:18:39.137201
58.17720052,-7.040282249,-2.14995122,6.307480335,2024-06-04 14:18:39.177201
58.21720052,-7.009175777,-2.152343988,6.31226635,2024-06-04 14:18:39.217201
58.25720052,-7.013961315,-2.145165443,6.343372822,2024-06-04 14:18:39.257201
58.29720052,-7.02951479,-2.122433662,6.336194515,2024-06-04 14:18:39.297201
58.33720052,-7.021139622,-2.136790514,6.331408501,2024-06-04 14:18:39.337201
58.37720052,-7.003193855,-2.145165443,6.344569206,2024-06-04 14:18:39.377201
58.41720052,-7.0151577,-2.155933142,6.336194515,2024-06-04 14:18:39.417201
58.45720052,-7.028318405,-2.130808592,6.344569206,2024-06-04 14:18:39.457201
58.49720052,-7.016354084,-2.120040894,6.340980053,2024-06-04 14:18:39.497201
58.53720052,-7.021139622,-2.148754835,6.318248272,2024-06-04 14:18:39.537201
58.57720052,-7.017550468,-2.146361828,6.334998131,2024-06-04 14:18:39.577201
58.61720052,-7.017550468,-2.146361828,6.334998131,2024-06-04 14:18:39.617201
58.65720052,-7.017550468,-2.146361828,6.334998131,2024-06-04 14:18:39.657201
58.69720052,-7.017550468,-2.146361828,6.334998131,2024-06-04 14:18:39.697201
58.73720052,-7.017550468,-2.146361828,6.334998131,2024-06-04 14:18:39.737201
58.77720052,-7.017550468,-2.146361828,6.334998131,2024-06-04 14:18:39.777201
58.81720052,-7.017550468,-2.146361828,6.334998131,2024-06-04 14:18:39.817201
58.85720052,-7.024729252,-2.127219439,6.332605362,2024-06-04 14:18:39.857201
58.89720052,-7.024729252,-2.127219439,6.332605362,2024-06-04 14:18:39.897201
58.93720052,-7.024729252,-2.127219439,6.332605362,2024-06-04 14:18:39.937201
58.97720052,-7.024729252,-2.127219439,6.332605362,2024-06-04 14:18:39.977201
59.01720052,-7.024729252,-2.127219439,6.332605362,2024-06-04 14:18:40.017201
59.05720052,-7.024729252,-2.127219439,6.332605362,2024-06-04 14:18:40.057201
59.09720052,-7.024729252,-2.127219439,6.332605362,2024-06-04 14:18:40.097201
59.13720052,-7.024729252,-2.127219439,6.332605362,2024-06-04 14:18:40.137201
59.17720052,-7.024729252,-2.136790514,6.319444656,2024-06-04 14:18:40.177201
59.21720052,-7.02951479,-2.148754835,6.342176437,2024-06-04 14:18:40.217201
59.25720052,-7.000801086,-2.13559413,6.336194515,2024-06-04 14:18:40.257201
59.29720052,-7.006783009,-2.132004976,6.349354744,2024-06-04 14:18:40.297201
59.33720052,-7.013961315,-2.14157629,6.324230194,2024-06-04 14:18:40.337201
59.37720052,-7.010372162,-2.139183521,6.334998131,2024-06-04 14:18:40.377201
59.41720052,-7.010372162,-2.145165443,6.339783669,2024-06-04 14:18:40.417201
59.45720052,-7.022336483,-2.13559413,6.329015732,2024-06-04 14:18:40.457201
59.49720052,-7.010372162,-2.140379906,6.339783669,2024-06-04 14:18:40.497201
59.53720052,-7.023532867,-2.145165443,6.34815836,2024-06-04 14:18:40.537201
59.57720052,-7.00439024,-2.126022816,6.325426579,2024-06-04 14:18:40.577201
59.61720052,-7.0151577,-2.136790514,6.3373909,2024-06-04 14:18:40.617201
59.65720052,-7.028318405,-2.13559413,6.349354744,2024-06-04 14:18:40.657201
59.69720052,-6.996015072,-2.133201361,6.314659119,2024-06-04 14:18:40.697201
59.73720052,-7.012764931,-2.133201361,6.360122681,2024-06-04 14:18:40.737201
59.77720052,-7.016354084,-2.124826431,6.334998131,2024-06-04 14:18:40.777201
59.81720052,-7.0151577,-2.143969059,6.330212116,2024-06-04 14:18:40.817201
59.85720052,-7.013961315,-2.136790514,6.346961975,2024-06-04 14:18:40.857201
59.89720052,-7.024729252,-2.143969059,6.331408501,2024-06-04 14:18:40.897201
59.93720052,-7.00439024,-2.142772675,6.32303381,2024-06-04 14:18:40.937201
59.97720052,-7.023532867,-2.134397745,6.339783669,2024-06-04 14:18:40.977201
60.01720052,-7.010372162,-2.132004976,6.343372822,2024-06-04 14:18:41.017201
60.05720052,-6.996015072,-2.142772675,6.3373909,2024-06-04 14:18:41.057201
60.09720052,-7.016354084,-2.122433662,6.339783669,2024-06-04 14:18:41.097201
60.13720052,-7.007979393,-2.153540373,6.329015732,2024-06-04 14:18:41.137201
60.17720052,-7.001997471,-2.134397745,6.338587284,2024-06-04 14:18:41.177201
60.21720052,-6.998407841,-2.129612207,6.339783669,2024-06-04 14:18:41.217201
60.25720052,-6.998407841,-2.129612207,6.339783669,2024-06-04 14:18:41.257201
60.29720052,-6.998407841,-2.129612207,6.339783669,2024-06-04 14:18:41.297201
60.33720052,-6.998407841,-2.129612207,6.339783669,2024-06-04 14:18:41.337201
60.37720052,-6.998407841,-2.129612207,6.339783669,2024-06-04 14:18:41.377201
60.41720052,-6.998407841,-2.129612207,6.339783669,2024-06-04 14:18:41.417201
60.45720052,-6.998407841,-2.129612207,6.339783669,2024-06-04 14:18:41.457201
60.49720052,-6.998407841,-2.129612207,6.339783669,2024-06-04 14:18:41.497201
60.53720052,-6.998407841,-2.129612207,6.339783669,2024-06-04 14:18:41.537201
60.57720052,-6.998407841,-2.129612207,6.339783669,2024-06-04 14:18:41.577201
60.61720052,-6.998407841,-2.129612207,6.339783669,2024-06-04 14:18:41.617201
60.65720052,-6.998407841,-2.129612207,6.339783669,2024-06-04 14:18:41.657201
60.69720052,-6.998407841,-2.129612207,6.339783669,2024-06-04 14:18:41.697201
60.73720052,-6.998407841,-2.129612207,6.339783669,2024-06-04 14:18:41.737201
60.77720052,-6.998407841,-2.129612207,6.339783669,2024-06-04 14:18:41.777201
60.81720052,-6.986443996,-2.140379906,6.342176437,2024-06-04 14:18:41.817201
60.85720052,-7.025925636,-2.139183521,6.361319065,2024-06-04 14:18:41.857201
60.89720052,-7.035496712,-2.142772675,6.345765591,2024-06-04 14:18:41.897201
60.93720052,-6.996015072,-2.140379906,6.293123722,2024-06-04 14:18:41.937201
60.97720052,-6.972086906,-2.124826431,6.349354744,2024-06-04 14:18:41.977201
61.01720052,-7.041478634,-2.14995122,6.315855503,2024-06-04 14:18:42.017201
61.05720052,-6.968497753,-2.152343988,6.30867672,2024-06-04 14:18:42.057201
61.09720052,-7.003193855,-2.122433662,6.364908218,2024-06-04 14:18:42.097201
61.13720052,-7.06301403,-2.10209465,6.382854462,2024-06-04 14:18:42.137201
61.17720052,-7.036693096,-2.094916344,6.300302029,2024-06-04 14:18:42.177201
61.21720052,-7.02951479,-2.159522533,6.235396862,2024-06-04 14:18:42.217201
61.25720052,-7.007979393,-2.201396942,6.32303381,2024-06-04 14:18:42.257201
61.29720052,-6.992425919,-2.143969059,6.386443615,2024-06-04 14:18:42.297201
61.33720052,-7.024729252,-2.157129526,6.366104603,2024-06-04 14:18:42.337201
61.37720052,-6.9649086,-2.137987137,6.334998131,2024-06-04 14:18:42.377201
61.41720052,-7.021139622,-2.133201361,6.327819347,2024-06-04 14:18:42.417201
61.45720052,-7.003193855,-2.115255117,6.27966404,2024-06-04 14:18:42.457201
61.49720052,-7.068996429,-2.137987137,6.285645962,2024-06-04 14:18:42.497201
61.53720052,-7.030711174,-2.124826431,6.302694798,2024-06-04 14:18:42.537201
61.57720052,-7.048657417,-2.163111687,6.351747513,2024-06-04 14:18:42.577201
61.61720052,-7.001997471,-2.170290232,6.349354744,2024-06-04 14:18:42.617201
61.65720052,-6.942176819,-2.157129526,6.354140759,2024-06-04 14:18:42.657201
61.69720052,-7.019943237,-2.118844509,6.370890141,2024-06-04 14:18:42.697201
61.73720052,-6.996015072,-2.137987137,6.317051888,2024-06-04 14:18:42.737201
61.77720052,-7.010372162,-2.145165443,6.342176437,2024-06-04 14:18:42.777201
61.81720052,-7.068996429,-2.10209465,6.30867672,2024-06-04 14:18:42.817201
61.85720052,-7.046264648,-2.139183521,6.274878502,2024-06-04 14:18:42.857201
61.89720052,-7.046264648,-2.139183521,6.274878502,2024-06-04 14:18:42.897201
61.93720052,-7.046264648,-2.139183521,6.274878502,2024-06-04 14:18:42.937201
61.97720052,-7.046264648,-2.139183521,6.274878502,2024-06-04 14:18:42.977201
62.01720052,-7.046264648,-2.139183521,6.274878502,2024-06-04 14:18:43.017201
62.05720052,-7.046264648,-2.139183521,6.274878502,2024-06-04 14:18:43.057201
62.09720052,-7.046264648,-2.139183521,6.274878502,2024-06-04 14:18:43.097201
62.13720052,-7.046264648,-2.139183521,6.274878502,2024-06-04 14:18:43.137201
62.17720052,-7.046264648,-2.139183521,6.274878502,2024-06-04 14:18:43.177201
62.21720052,-7.046264648,-2.139183521,6.274878502,2024-06-04 14:18:43.217201
62.25720052,-7.046264648,-2.139183521,6.274878502,2024-06-04 14:18:43.257201
62.29720052,-7.046264648,-2.139183521,6.274878502,2024-06-04 14:18:43.297201
62.33720052,-7.046264648,-2.139183521,6.274878502,2024-06-04 14:18:43.337201
62.37720052,-7.046264648,-2.139183521,6.274878502,2024-06-04 14:18:43.377201
62.41720052,-7.046264648,-2.139183521,6.274878502,2024-06-04 14:18:43.417201
62.45720052,-6.95055151,-2.196611166,6.244967937,2024-06-04 14:18:43.457201
