Time (s),Gyroscope x (rad/s),Gyroscope y (rad/s),Gyroscope z (rad/s),Datetime
0.047696355,-0.2231663167,0.3171731234,0.1789591461,2024-06-04 14:17:41.047696
0.088183751,-0.3797555864,0.560978353,0.1901440918,2024-06-04 14:17:41.088184
0.128707762,-0.8057156205,1.029680848,0.2918738425,2024-06-04 14:17:41.128708
0.169194272,-1.09439373,0.1280942708,0.5085155964,2024-06-04 14:17:41.169194
0.244686616,-0.845395565,0.5785546899,-1.337533236,2024-06-04 14:17:41.244687
0.28519396,-1.61436069,0.2500634491,-1.082276702,2024-06-04 14:17:41.285194
0.32572948,-0.8845428824,2.143648386,-0.118640326,2024-06-04 14:17:41.325729
0.36622448,0.3029256463,0.1587197185,0.02956021577,2024-06-04 14:17:41.366224
0.406678126,0.6612433791,-0.6163704395,0.3621792197,2024-06-04 14:17:41.406678
0.447112449,-0.1999974996,0.408516854,0.4617785215,2024-06-04 14:17:41.447112
0.487669949,-0.5304860473,0.3382114768,0.5955983996,2024-06-04 14:17:41.487670
0.528124272,0.1908098608,0.1233007237,0.1267627329,2024-06-04 14:17:41.528124
0.568603803,0.5111786723,0.0487344116,-0.07563154399,2024-06-04 14:17:41.568604
0.609094793,0.4706998467,-0.3308880031,0.1126483902,2024-06-04 14:17:41.609095
0.64961573,0.1276948154,-0.3210346103,0.2010627389,2024-06-04 14:17:41.649616
0.690073803,-0.02170412242,-0.1213034093,0.2079867423,2024-06-04 14:17:41.690074
0.730570366,0.2336854935,0.1163767055,0.4585828185,2024-06-04 14:17:41.730570
0.771091408,0.5706986189,0.7031869292,0.1994648874,2024-06-04 14:17:41.771091
0.811577814,0.9033176303,2.00357008,0.3371462524,2024-06-04 14:17:41.811578
0.852032137,0.9757534266,1.404243469,1.204512239,2024-06-04 14:17:41.852032
0.892542241,0.8553821445,1.183207631,1.416493654,2024-06-04 14:17:41.892542
0.93309172,-0.3374125659,1.508103609,1.307573557,2024-06-04 14:17:41.933092
0.973581303,-0.8382052183,0.7998568416,0.479621172,2024-06-04 14:17:41.973581
1.014021772,-0.2711018026,0.6142399907,0.2607157826,2024-06-04 14:17:42.014022
1.054477137,-1.380808353,0.6659038067,0.4604469836,2024-06-04 14:17:42.054477
1.094989168,-0.6806839108,0.01624480449,0.02929390781,2024-06-04 14:17:42.094989
1.135481564,0.401992321,-0.1237001866,0.2055899799,2024-06-04 14:17:42.135482
1.176032137,0.5304860473,-0.1910761744,0.09613727778,2024-06-04 14:17:42.176032
1.216512553,-0.04434032366,0.3435376585,0.1738992929,2024-06-04 14:17:42.216513
1.257018543,0.4571181238,-0.08628387749,0.1941387206,2024-06-04 14:17:42.257019
1.297437397,1.128081799,-1.083874583,0.4977301359,2024-06-04 14:17:42.297437
1.337897397,1.26882565,-1.142196059,0.3557878435,2024-06-04 14:17:42.337897
1.378468074,0.7081136703,0.5953320861,0.0221035853,2024-06-04 14:17:42.378468
1.418876928,0.9371387362,-0.3860138059,0.6089138389,2024-06-04 14:17:42.418877
1.459358126,0.3372794092,-0.2312887162,0.2340849638,2024-06-04 14:17:42.459358
1.49986646,-0.2103835195,0.3667064607,-0.06258244067,2024-06-04 14:17:42.499866
1.540350001,-0.06884068251,0.3592498302,-0.3766930401,2024-06-04 14:17:42.540350
1.580859897,-0.02117150649,0.3480648994,-0.1796249151,2024-06-04 14:17:42.580860
1.62133547,-0.1171756312,0.3153089881,0.1264964193,2024-06-04 14:17:42.621335
1.661896303,-0.4399412274,-0.8231588006,0.4790885448,2024-06-04 14:17:42.661896
1.70227797,-0.8738905191,-1.282274246,0.5346138477,2024-06-04 14:17:42.702278
1.74279646,-1.42208612,-0.6701647043,0.05619104207,2024-06-04 14:17:42.742796
1.783300887,-1.213433623,-0.1958697289,-0.02343512699,2024-06-04 14:17:42.783301
1.823856043,-1.084274054,0.2849498391,-0.2334191799,2024-06-04 14:17:42.823856
1.864335158,-1.092263341,1.222354889,-1.029015064,2024-06-04 14:17:42.864335
1.904821199,-1.209705234,2.216616869,-1.815556526,2024-06-04 14:17:42.904821
1.945257033,-1.620485783,2.30716157,-2.125406265,2024-06-04 14:17:42.945257
1.985789637,-1.812227726,1.82620883,-2.138189077,2024-06-04 14:17:42.985790
2.026247033,-1.50970149,1.838192701,-2.381328344,2024-06-04 14:17:43.026247
2.066705522,-1.223020673,2.927926064,-2.509422779,2024-06-04 14:17:43.066706
2.107163595,-1.132209539,2.631391764,-2.403165817,2024-06-04 14:17:43.107164
2.147690574,-1.373618007,1.418890357,-1.772148252,2024-06-04 14:17:43.147691
2.188173387,-2.343645811,0.2860150635,-0.8809477091,2024-06-04 14:17:43.188173
2.228672762,-1.34858501,1.23433876,-0.9198287129,2024-06-04 14:17:43.228673
2.269180574,-2.451766968,0.9681636691,0.0599193573,2024-06-04 14:17:43.269181
2.309705314,-1.465760589,0.2884118557,0.6579145193,2024-06-04 14:17:43.309705
2.350175783,-1.386134505,0.7844109535,0.3778914213,2024-06-04 14:17:43.350176
2.390680574,-1.454841971,-0.1655105799,0.6933335662,2024-06-04 14:17:43.390681
2.431126824,-1.712894678,-1.222887516,1.778539658,2024-06-04 14:17:43.431127
2.471598543,-2.305830002,1.072290182,0.4788222313,2024-06-04 14:17:43.471599
2.512113178,0.2286256403,1.34858501,-0.2525933683,2024-06-04 14:17:43.512113
2.55265047,0.2089188248,-0.1078548431,0.2993304729,2024-06-04 14:17:43.552650
2.593125626,0.229424566,0.8216941357,0.6379414201,2024-06-04 14:17:43.593126
2.633574949,0.8918663263,0.456984967,1.699046731,2024-06-04 14:17:43.633575
2.674064272,1.002650619,0.4965317547,1.523283243,2024-06-04 14:17:43.674064
2.714537501,0.9275516272,0.8536511064,1.66629076,2024-06-04 14:17:43.714538
2.755053803,0.3236976862,-0.01784265228,1.0914644,2024-06-04 14:17:43.755054
2.795581564,0.3250292242,-0.388410598,-0.382019192,2024-06-04 14:17:43.795582
2.836031928,0.1229012609,-0.3902747631,-1.175750971,2024-06-04 14:17:43.836032
2.876531876,0.1362166703,-0.02689713426,-1.012770295,2024-06-04 14:17:43.876532
2.917012605,0.006524552125,-0.5199668407,-2.332593918,2024-06-04 14:17:43.917013
2.957499533,-0.08921326697,-1.060705781,-2.371741295,2024-06-04 14:17:43.957500
2.998004741,-0.05179695413,-0.4022586346,-1.131011128,2024-06-04 14:17:43.998005
3.03853698,-0.06671021879,0.05912043154,-0.1035939083,2024-06-04 14:17:44.038537
3.078975366,0.01238333434,0.4655068219,0.469235152,2024-06-04 14:17:44.078975
3.119454168,0.7395380139,-0.600391984,0.4146419466,2024-06-04 14:17:44.119454
3.159931095,0.6071828008,-0.003994623665,-0.6933335662,2024-06-04 14:17:44.159931
3.20039646,0.6487269402,-0.2587184608,-0.7480598688,2024-06-04 14:17:44.200396
3.240907501,0.7541849613,-0.1721682847,-0.0519301109,2024-06-04 14:17:44.240908
3.281442605,0.6045197248,-0.2845503688,0.2564548552,2024-06-04 14:17:44.281443
3.321955105,0.7126408815,-0.2166417688,-0.06897383928,2024-06-04 14:17:44.321955
3.362445626,0.01744319126,-0.04047885537,-0.07323476672,2024-06-04 14:17:44.362446
3.402914949,-0.08508548886,-0.0117175635,-0.4118457139,2024-06-04 14:17:44.402915
3.443384116,-0.7559159994,-0.02583190054,-0.8300828338,2024-06-04 14:17:44.443384
3.48384573,0.1205044836,0.1991985738,0.1067896113,2024-06-04 14:17:44.483846
3.524359168,0.2331528813,0.1805569977,-0.2896102369,2024-06-04 14:17:44.524359
3.56488073,-0.09214265645,0.3621792197,-0.1548582464,2024-06-04 14:17:44.564881
3.605335991,-0.1054580659,0.4933360517,0.518369019,2024-06-04 14:17:44.605336
3.645835835,0.6854774356,1.113701105,0.08947957307,2024-06-04 14:17:44.645836
3.686265574,0.3157084286,1.599979997,-1.099853039,2024-06-04 14:17:44.686266
3.726754741,0.8820129633,-0.04234301299,0.9239565134,2024-06-04 14:17:44.726755
3.767263855,0.9730903506,-0.071104303,1.127016544,2024-06-04 14:17:44.767264
3.807761668,0.837805748,-0.2169080675,0.781481564,2024-06-04 14:17:44.807762
3.848304845,0.4706998467,-0.2467346042,-0.03834838793,2024-06-04 14:17:44.848305
3.888754428,0.1316894293,-0.3396761715,-0.2648435533,2024-06-04 14:17:44.888754
3.929237501,-0.1302247345,-0.1529940963,-0.1679073572,2024-06-04 14:17:44.929238
3.96976547,-0.3323526978,0.1736329794,-0.3556546867,2024-06-04 14:17:44.969765
4.01023021,-0.3153089881,-0.2187722325,-0.7021217346,2024-06-04 14:17:45.010230
4.050697658,-0.3009283245,-0.4206338823,-0.4360797703,2024-06-04 14:17:45.050698
4.091189324,-0.3350157738,-0.3740299344,-0.2003969699,2024-06-04 14:17:45.091189
4.131666147,-0.2623136342,-0.239810586,-0.04687025398,2024-06-04 14:17:45.131666
4.172229793,-0.08814803511,0.1531272531,-0.226228863,2024-06-04 14:17:45.172230
4.21271146,-0.05685681105,-0.05166380107,-0.2403431982,2024-06-04 14:17:45.212711
4.253153439,-0.1296921223,0.0114512546,-0.579087317,2024-06-04 14:17:45.253153
4.293673074,0.07736254483,-0.277892679,-0.3673722446,2024-06-04 14:17:45.293673
4.334180574,0.06378082931,-0.2086525112,-0.334882617,2024-06-04 14:17:45.334181
4.374607085,0.08109086752,-0.06924014539,-0.177760765,2024-06-04 14:17:45.374607
4.415098491,-0.02516612969,-0.01011971384,-0.1450048387,2024-06-04 14:17:45.415098
4.45559771,-0.004394086078,-0.1631138027,-0.1817553788,2024-06-04 14:17:45.455598
4.496129897,-0.02889444493,-0.1311568171,-0.1298252791,2024-06-04 14:17:45.496130
4.536597293,0.04194355011,-0.06870753318,-0.07935985923,2024-06-04 14:17:45.536597
4.577135939,0.08508548886,-0.08468602598,-0.1022623703,2024-06-04 14:17:45.577136
4.61758948,0.07150376588,-0.03994623944,-0.06311506033,2024-06-04 14:17:45.617589
4.658063022,0.09227581322,0.1496652365,-0.05805519968,2024-06-04 14:17:45.658063
4.698530574,0.02596505545,0.05459319428,-0.06977276504,2024-06-04 14:17:45.698531
4.73906948,-0.1342193633,0.1315562725,0.0114512546,2024-06-04 14:17:45.739069
4.779517241,-0.2599168718,0.1754971445,0.1611164957,2024-06-04 14:17:45.779517
4.820018543,-0.4292888939,0.2402100414,0.248199299,2024-06-04 14:17:45.820019
4.860490158,-0.5975957513,0.3536573648,0.2769605815,2024-06-04 14:17:45.860490
4.900969845,-0.5110455155,0.3163742125,0.2202369273,2024-06-04 14:17:45.900970
4.941475105,-0.3195699155,-0.01091863867,0.0487344116,2024-06-04 14:17:45.941475
4.98201797,-0.0003994623839,-0.1316894293,0.01864157803,2024-06-04 14:17:45.982018
5.022462814,0.3223661482,0.1728340536,0.1683068126,2024-06-04 14:17:46.022463
5.062946824,0.6745588183,0.4740287066,0.4442021847,2024-06-04 14:17:46.062947
5.103493283,1.034341216,0.4314193726,0.9407339096,2024-06-04 14:17:46.103493
5.143974689,0.8212946653,0.2205032408,0.766035676,2024-06-04 14:17:46.143975
5.184453439,0.5936011076,-0.2938711643,0.2466014475,2024-06-04 14:17:46.184453
5.224895053,0.3926715255,-0.2808220685,-0.06764229387,2024-06-04 14:17:46.224895
5.265385939,0.2528596818,-0.03541899845,-0.2659088075,2024-06-04 14:17:46.265386
5.305902866,0.4544550478,-0.3804213405,-0.347132802,2024-06-04 14:17:46.305903
5.346393074,0.724624753,-0.1105179265,-0.3655080795,2024-06-04 14:17:46.346393
5.386829116,0.5456656218,0.1326215118,-0.371633172,2024-06-04 14:17:46.386829
5.427389272,0.5882749557,0.2809551954,-0.4794880152,2024-06-04 14:17:46.427389
5.467805626,0.5938674212,0.2580527067,-0.4499278069,2024-06-04 14:17:46.467806
5.508294012,0.5754921436,0.02796236612,-0.334882617,2024-06-04 14:17:46.508294
5.548811512,0.5680354834,-0.08761541545,-0.3468665183,2024-06-04 14:17:46.548812
5.58933172,0.4256937504,-0.01225017942,-0.3889431953,2024-06-04 14:17:46.589332
5.62979698,0.3287575543,-0.03222329915,-0.3473991156,2024-06-04 14:17:46.629797
5.670281408,0.1995980442,0.0114512546,-0.244337827,2024-06-04 14:17:46.670281
5.710771668,-0.01424749196,-0.06577813625,-0.06684337556,2024-06-04 14:17:46.710772
5.751279845,-0.213312909,-0.05379426852,0.07989247888,2024-06-04 14:17:46.751280
5.791781408,-0.28574875,-0.009587096982,0.2093182951,2024-06-04 14:17:46.791781
5.832230887,-0.2375469655,-0.06018566713,0.2881455421,2024-06-04 14:17:46.832231
5.872714949,-0.2399437428,-0.1181077138,0.2854824364,2024-06-04 14:17:46.872715
5.913201928,-0.2173075378,-0.07403369248,0.2319544852,2024-06-04 14:17:46.913202
5.953710574,-0.162181735,-0.007722939365,0.1723014414,2024-06-04 14:17:46.953711
5.994220783,-0.08588441461,0.02370143496,0.09347419441,2024-06-04 14:17:46.994221
6.03468948,0.01344856713,-0.009853405878,-0.01278279629,2024-06-04 14:17:47.034689
6.075161199,0.07869409025,-0.008255556226,-0.07483261824,2024-06-04 14:17:47.075161
6.115631668,0.1106510833,0.02263620123,-0.1006645188,2024-06-04 14:17:47.115632
6.156138074,0.1151783243,0.03222329915,-0.108254306,2024-06-04 14:17:47.156138
6.19665172,0.09254211932,0.03488638252,-0.09107742459,2024-06-04 14:17:47.196652
6.237136303,0.05579157919,0.02370143496,-0.05725627393,2024-06-04 14:17:47.237136
6.277645314,0.007323476952,0.02583190054,-0.02023942769,2024-06-04 14:17:47.277645
6.318063387,-0.03022598661,0.01304910425,0.01970681176,2024-06-04 14:17:47.318063
6.358598126,-0.04700340703,-0.00798924733,0.03621792421,2024-06-04 14:17:47.358598
6.399098074,-0.03901416063,-0.03408745676,0.04367455468,2024-06-04 14:17:47.399098
6.439577814,-0.02223674022,-0.03435376659,0.03248960897,2024-06-04 14:17:47.439578
6.480063699,-0.003328853287,-0.02316881903,0.01517957076,2024-06-04 14:17:47.480064
6.520572033,0.01557903271,0.02157096937,0.003994623665,2024-06-04 14:17:47.520572
6.561054845,0.1026618332,0.2964010835,0.09507204592,2024-06-04 14:17:47.561055
6.601526564,0.01344856713,0.570032835,0.2471340597,2024-06-04 14:17:47.601527
6.642050053,-0.140877068,0.1989322603,0.3009283245,2024-06-04 14:17:47.642050
6.682523387,-0.2862813771,0.01624480449,0.2809551954,2024-06-04 14:17:47.682523
6.722993803,-0.3485974967,-0.007722939365,0.3240971565,2024-06-04 14:17:47.722994
6.763526303,-0.4396749437,0.07030537724,0.3595161438,2024-06-04 14:17:47.763526
6.80398896,-0.4585828185,0.1099853069,0.3699021637,2024-06-04 14:17:47.803989
6.84446573,-0.4138430357,0.0708379969,0.3358147144,2024-06-04 14:17:47.844466
6.884958178,-0.4228975177,0.04527240247,0.2958684862,2024-06-04 14:17:47.884958
6.925437658,-0.4772244096,-0.006657706574,0.2127802968,2024-06-04 14:17:47.925438
6.965928387,-0.4639089704,-0.03062544949,0.0822892487,2024-06-04 14:17:47.965928
7.006437605,-0.3275591433,-0.06977276504,0.0037283157,2024-06-04 14:17:48.006438
7.046932762,-0.1507304758,-0.1011971384,-0.05778888986,2024-06-04 14:17:48.046933
7.087403908,-0.02516612969,-0.07616416365,-0.1753639877,2024-06-04 14:17:48.087404
7.127882658,0.03075860441,-0.05379426852,-0.1948044896,2024-06-04 14:17:48.127883
7.16836896,0.06511236727,-0.01358172111,-0.1535267085,2024-06-04 14:17:48.168369
7.208876355,0.02463351376,-0.05379426852,-0.1372819096,2024-06-04 14:17:48.208876
7.249360262,-0.05286218971,-0.06364767253,-0.150597319,2024-06-04 14:17:48.249360
7.289851251,-0.08668334037,-0.07296846062,-0.1247654185,2024-06-04 14:17:48.289851
7.330385626,-0.07549838722,-0.06844121963,-0.1098521575,2024-06-04 14:17:48.330386
7.370816408,-0.04380770773,-0.06844121963,-0.08974587917,2024-06-04 14:17:48.370816
7.411323387,0.001198387123,-0.05698996782,-0.05086487532,2024-06-04 14:17:48.411323
7.451858855,0.0432750918,-0.05086487532,-0.01837527007,2024-06-04 14:17:48.451859
7.492292501,0.05712312087,-0.08868064731,-0.04979964346,2024-06-04 14:17:48.492293
7.532812605,0.06963960826,-0.1588528752,-0.1287600398,2024-06-04 14:17:48.532813
7.573259533,0.1354177445,-0.1644453406,-0.1681736708,2024-06-04 14:17:48.573260
7.613752241,0.1785596907,-0.09959928691,-0.1705704331,2024-06-04 14:17:48.613752
7.654247033,0.1620485783,-0.02183727734,-0.1535267085,2024-06-04 14:17:48.654247
7.694792605,0.1306242049,-0.01304910425,-0.1388797611,2024-06-04 14:17:48.694793
7.735281199,0.1039933711,-0.02476666868,-0.1252980381,2024-06-04 14:17:48.735281
7.775773178,0.08188978583,-0.04287562892,-0.08868064731,2024-06-04 14:17:48.775773
7.816239012,0.01637795754,-0.02130465955,-0.04820179567,2024-06-04 14:17:48.816239
7.85675198,-0.02063889056,0.01544587873,0.01438064594,2024-06-04 14:17:48.856752
7.89723896,-0.05552527308,0.04420717061,0.05406057462,2024-06-04 14:17:48.897239
7.937725991,-0.09587097168,0.04793548584,0.05459319428,2024-06-04 14:17:48.937726
7.97816396,-0.09081111848,0.07509893179,0.04527240247,2024-06-04 14:17:48.978164
8.018652501,-0.0352858454,0.04553871229,0.01118494663,2024-06-04 14:17:49.018653
8.059153126,0.01930734888,-0.03355484083,-0.01970681176,2024-06-04 14:17:49.059153
8.099620366,0.02330197208,-0.05326165259,-0.03834838793,2024-06-04 14:17:49.099620
8.140107501,0.0126496423,-0.01091863867,-0.03941362351,2024-06-04 14:17:49.140108
8.180605783,-0.00998655986,-0.005592473317,-0.03861469775,2024-06-04 14:17:49.180606
8.22110521,-0.01850842312,0.0117175635,-0.03728315607,2024-06-04 14:17:49.221105
8.261593335,-0.02170412242,0.05539211631,-0.03408745676,2024-06-04 14:17:49.261593
8.302079533,0.000932078925,0.03621792421,-0.03728315607,2024-06-04 14:17:49.302080
8.342585366,0.01398118306,-0.01091863867,-0.02689713426,2024-06-04 14:17:49.342585
8.383048022,0.01344856713,-0.02316881903,-0.02450035885,2024-06-04 14:17:49.383048
8.423572918,-0.00998655986,-0.03568530455,-0.0117175635,2024-06-04 14:17:49.423573
8.464058751,-0.04087831825,0.006391398143,-0.001065233024,2024-06-04 14:17:49.464059
8.504523595,-0.05232957378,0.04047885537,-0.0005326165119,2024-06-04 14:17:49.504524
8.545058439,-0.03741630912,0.03115806542,-0.009054481052,2024-06-04 14:17:49.545058
8.585492762,-0.01637795754,0.01917419396,-0.02476666868,2024-06-04 14:17:49.585493
8.626049741,0.007057168987,0.01997311972,-0.03621792421,2024-06-04 14:17:49.626050
8.666539324,0.01371487509,0.02450035885,-0.037815772,2024-06-04 14:17:49.666539
8.706934793,0.02010627277,0.008521864191,-0.05512581021,2024-06-04 14:17:49.706935
8.74742198,0.02489982173,-0.02023942769,-0.05006595328,2024-06-04 14:17:49.747422
8.78792521,0.01398118306,-0.06950645149,-0.04607132822,2024-06-04 14:17:49.787925
8.828432345,0.01344856713,-0.05698996782,-0.02663082629,2024-06-04 14:17:49.828432
8.868959376,-0.0006657706108,0.007722939365,-0.000266308256,2024-06-04 14:17:49.868959
8.909434168,-0.02197043039,0.01677742042,0.002396774245,2024-06-04 14:17:49.909434
8.949906303,-0.01904104091,0.01597849466,0.01225017942,2024-06-04 14:17:49.949906
8.99042948,-0.02489982173,0.02476666868,0.02316881903,2024-06-04 14:17:49.990429
9.030935783,-0.04700340703,0.052196417,0.03515268862,2024-06-04 14:17:50.030936
9.071395262,-0.05845466256,0.08575125784,0.0490007177,2024-06-04 14:17:50.071395
9.11188323,-0.04247616604,0.09134373069,0.0229025092,2024-06-04 14:17:50.111883
9.152377814,-0.004660394508,0.02583190054,-0.0005326165119,2024-06-04 14:17:50.152378
9.192875887,0.04141093418,0.02716344222,-0.0330222249,2024-06-04 14:17:50.192876
9.233347553,0.07762885839,-0.02450035885,-0.04420717061,2024-06-04 14:17:50.233348
9.273828491,0.06804175675,-0.06151720881,-0.04420717061,2024-06-04 14:17:50.273828
9.314340678,0.04567186534,-0.04473978654,-0.03009283356,2024-06-04 14:17:50.314341
9.354808855,0.008655018173,-0.04234301299,-0.01118494663,2024-06-04 14:17:50.354809
9.39528448,-0.01078548469,-0.04287562892,-0.004260932095,2024-06-04 14:17:50.395284
9.435797605,-0.01185071748,-0.04633763805,0.002396774245,2024-06-04 14:17:50.435798
9.476321668,-0.02676397935,-0.05778888986,0.01278279629,2024-06-04 14:17:50.476322
9.516769272,-0.03901416063,-0.01917419396,0.02343512699,2024-06-04 14:17:50.516769
9.557220887,-0.04007939249,0.005592473317,0.02796236612,2024-06-04 14:17:50.557221
9.59772047,-0.04726971686,0.07270215452,0.009054481052,2024-06-04 14:17:50.597720
9.638231668,0.0003994623839,0.06684337556,0.000266308256,2024-06-04 14:17:50.638232
9.678743283,0.03395430371,0.0007989247679,-0.02583190054,2024-06-04 14:17:50.678743
9.71924172,0.04620448127,-0.002663082443,-0.03488638252,2024-06-04 14:17:50.719242
9.759733022,0.03715000302,-0.01118494663,-0.02796236612,2024-06-04 14:17:50.759733
9.800210835,0.01371487509,-0.005059856921,-0.006391398143,2024-06-04 14:17:50.800211
9.840700991,-0.01531272475,0.00798924733,0.002130466048,2024-06-04 14:17:50.840701
9.881193283,-0.004127778113,0.007190322969,-0.003462007269,2024-06-04 14:17:50.881193
9.921667241,0.04167724028,-0.03089175746,-0.01118494663,2024-06-04 14:17:50.921667
9.962162553,0.06165036187,-0.07190322876,-0.02929390781,2024-06-04 14:17:50.962163
10.00265557,0.06564498693,-0.08282186836,-0.03462007269,2024-06-04 14:17:51.002656
10.04312339,0.01504641678,-0.09507204592,-0.01944050193,2024-06-04 14:17:51.043123
10.0836163,-0.03075860441,0.007190322969,0.01571218669,2024-06-04 14:17:51.083616
10.12411167,-0.03501953557,0.03994623944,0.018907886,2024-06-04 14:17:51.124112
10.16461318,0.006524552125,-0.03009283356,-0.01304910425,2024-06-04 14:17:51.164613
10.20508646,0.05978620425,-0.0599193573,-0.03994623944,2024-06-04 14:17:51.205086
10.24557604,0.07123745978,-0.0519301109,-0.03808208182,2024-06-04 14:17:51.245576
10.28611235,0.04540555924,-0.03169068322,-0.02556559257,2024-06-04 14:17:51.286112
10.32662479,0.02862813696,-0.0005326165119,-0.0114512546,2024-06-04 14:17:51.326625
10.36700917,0.003062544856,0.01198387146,0.0005326165119,2024-06-04 14:17:51.367009
10.4074974,-0.01185071748,0.05592473224,0.0114512546,2024-06-04 14:17:51.407497
10.44798563,-0.03741630912,0.07323476672,0.01757634431,2024-06-04 14:17:51.447986
10.48847391,-0.002796236658,0.03222329915,-0.01651111245,2024-06-04 14:17:51.488474
10.52905813,0.01291595027,-0.06604444981,0.001065233024,2024-06-04 14:17:51.529058
10.5694874,-0.02117150649,-0.0599193573,0.04394086078,2024-06-04 14:17:51.569487
10.60999495,-0.08055824786,0.03488638252,0.06151720881,2024-06-04 14:17:51.609995
10.65048391,-0.1038602218,0.1350182891,0.03994623944,2024-06-04 14:17:51.650484
10.6909674,-0.02543243766,0.1073222235,-0.01331541315,2024-06-04 14:17:51.690967
10.73145828,0.04460663348,-0.03355484083,-0.04154408723,2024-06-04 14:17:51.731458
10.77192172,0.06005251035,-0.116643019,-0.02263620123,2024-06-04 14:17:51.771922
10.81243167,0.02995967865,-0.01278279629,-0.009320789017,2024-06-04 14:17:51.812432
10.85293495,0.01105179265,0.02822867595,-0.007722939365,2024-06-04 14:17:51.852935
10.89342386,-0.01318225823,0.05619104207,-0.0007989247679,2024-06-04 14:17:51.893424
10.93396651,-0.07603100687,0.09400681406,0.03675054014,2024-06-04 14:17:51.933967
10.97438849,-0.1741656065,0.1451379955,0.1294258088,2024-06-04 14:17:51.974388
11.01489677,-0.327026546,0.1653774232,0.213312909,2024-06-04 14:17:52.014897
11.05536396,-0.5054530501,0.1083874628,0.2825530469,2024-06-04 14:17:52.055364
11.09589261,-0.6383408904,0.02503297664,0.33474949,2024-06-04 14:17:52.095893
11.13638209,-0.6567161679,0.04420717061,0.3651086092,2024-06-04 14:17:52.136382
11.17682334,-0.6383408904,0.08495233208,0.2905423045,2024-06-04 14:17:52.176823
11.21731281,-0.4742949903,0.03888100386,0.1792254597,2024-06-04 14:17:52.217313
11.25780224,-0.2471340597,0.006391398143,0.0977351293,2024-06-04 14:17:52.257802
11.29829172,0.03049229458,-0.0007989247679,-0.0410114713,2024-06-04 14:17:52.298292
11.33878115,0.2810883522,-0.1343525201,-0.1599181145,2024-06-04 14:17:52.338781
11.37933005,0.4784227908,-0.2331528813,-0.3002625704,2024-06-04 14:17:52.379330
11.41978318,0.5794867873,-0.2909417748,-0.4078511,2024-06-04 14:17:52.419783
11.46027834,0.6284874678,-0.2949363887,-0.4446016252,2024-06-04 14:17:52.460278
11.50074688,0.6005251408,-0.1790923029,-0.3881442845,2024-06-04 14:17:52.500747
11.54126479,0.4805532396,-0.06231613085,-0.2944037914,2024-06-04 14:17:52.541265
11.58177052,0.334882617,-0.02370143496,-0.2115819156,2024-06-04 14:17:52.581771
11.62220813,0.1982664913,-0.007190322969,-0.1189066395,2024-06-04 14:17:52.622208
11.66275979,0.08481918275,0.01225017942,-0.05832150951,2024-06-04 14:17:52.662760
11.70318802,0.001731003635,0.0260982085,-0.01358172111,2024-06-04 14:17:52.703188
11.74367823,-0.03821523488,-0.0007989247679,0.003195699072,2024-06-04 14:17:52.743678
11.78423052,-0.04620448127,-0.06311506033,0.01677742042,2024-06-04 14:17:52.784231
11.82466511,-0.05312849581,-0.107588537,0.04713656008,2024-06-04 14:17:52.824665
11.86514979,-0.03768261895,0.02716344222,0.02343512699,2024-06-04 14:17:52.865150
11.90561599,-0.03794892505,-0.02822867595,0.01118494663,2024-06-04 14:17:52.905616
11.94617229,-0.005459319334,0.04154408723,-0.01970681176,2024-06-04 14:17:52.946172
11.98663177,0.02197043039,0.02077204362,-0.03222329915,2024-06-04 14:17:52.986632
12.02712052,0.0576557368,0.02023942769,-0.05139749497,2024-06-04 14:17:53.027121
12.06760922,0.09121058136,-0.02689713426,-0.06977276504,2024-06-04 14:17:53.067609
12.10804594,0.1125152409,-0.07909355313,-0.08362079412,2024-06-04 14:17:53.108046
12.148545,0.1151783243,-0.1197055578,-0.09880036116,2024-06-04 14:17:53.148545
12.18905516,0.08481918275,-0.1343525201,-0.07270215452,2024-06-04 14:17:53.189055
12.22954813,0.05499265343,-0.1391460598,-0.03541899845,2024-06-04 14:17:53.229548
12.27004797,-0.01185071748,-0.0929415822,0.00186415785,2024-06-04 14:17:53.270048
12.31053797,-0.04114462435,-0.06950645149,-0.006391398143,2024-06-04 14:17:53.310538
12.35101959,-0.009720250964,-0.0599193573,-0.01970681176,2024-06-04 14:17:53.351020
12.39151438,-0.02410089783,-0.07296846062,-0.01651111245,2024-06-04 14:17:53.391514
12.43201594,-0.05659050494,-0.05166380107,0.03142437339,2024-06-04 14:17:53.432016
12.47250052,-0.06031882018,-0.03648423031,0.03035914153,2024-06-04 14:17:53.472501
12.51299797,-0.03794892505,-0.04394086078,0.01011971384,2024-06-04 14:17:53.512998
12.55349047,-0.0355521515,-0.02769605815,0.03648423031,2024-06-04 14:17:53.553490
12.5939575,-0.05792204663,0.02556559257,0.03035914153,2024-06-04 14:17:53.593958
12.63444828,-0.03635107726,0.04260931909,0.02742975019,2024-06-04 14:17:53.634448
12.67493906,-0.006790860556,0.03462007269,0.01118494663,2024-06-04 14:17:53.674939
12.71542334,0.007589785382,0.04820179567,-0.001597849536,2024-06-04 14:17:53.715423
12.75594417,0.01611164957,0.06418029219,-0.01784265228,2024-06-04 14:17:53.755944
12.79647516,0.03661738336,0.04340824485,-0.02902759984,2024-06-04 14:17:53.796475
12.83696292,0.03821523488,0.01864157803,-0.01997311972,2024-06-04 14:17:53.836963
12.87745203,0.02037258074,0.01011971384,-0.0117175635,2024-06-04 14:17:53.877452
12.91794104,0.001198387123,0.01358172111,-0.004793548491,2024-06-04 14:17:53.917941
12.95840214,-0.005725627299,0.002396774245,-0.001331541222,2024-06-04 14:17:53.958402
12.99886594,-0.008388710208,-0.02130465955,0.006657706574,2024-06-04 14:17:53.998866
13.03935375,-0.02090519853,-0.01225017942,0.007722939365,2024-06-04 14:17:54.039354
13.07985276,-0.02223674022,-0.0117175635,0.004527240526,2024-06-04 14:17:54.079853
13.12034787,-0.009453942999,-0.0146469539,-0.000266308256,2024-06-04 14:17:54.120348
13.16081323,-0.003861469682,-0.01651111245,-0.002929390874,2024-06-04 14:17:54.160813
13.20131865,0.004926702939,-0.004260932095,0.004793548491,2024-06-04 14:17:54.201319
13.24181719,-0.00599193573,0.04394086078,0.0,2024-06-04 14:17:54.241817
13.28229745,-0.01957365684,0.09107742459,0.004793548491,2024-06-04 14:17:54.282297
13.32279365,0.002529928461,0.07616416365,-0.009320789017,2024-06-04 14:17:54.322794
13.36323875,0.0432750918,-0.0149132628,-0.01864157803,2024-06-04 14:17:54.363239
13.40374698,0.03581846133,-0.03488638252,-0.01411433797,2024-06-04 14:17:54.403747
13.44425464,-0.01424749196,0.02130465955,0.02023942769,2024-06-04 14:17:54.444255
13.48474188,-0.01584534161,0.04660394415,0.01251648832,2024-06-04 14:17:54.484742
13.52524516,0.004127778113,0.02663082629,-0.002130466048,2024-06-04 14:17:54.525245
13.56575432,0.0171768833,0.03648423031,-0.0149132628,2024-06-04 14:17:54.565754
13.6062463,0.01691057347,0.03248960897,-0.01304910425,2024-06-04 14:17:54.606246
13.64669406,0.00998655986,0.01944050193,-0.01597849466,2024-06-04 14:17:54.646694
13.6871638,0.01185071748,-0.001597849536,-0.008788172156,2024-06-04 14:17:54.687164
13.72765375,0.01105179265,-0.01731003635,-0.008255556226,2024-06-04 14:17:54.727654
13.76814375,-0.002263620263,0.002663082443,-0.002929390874,2024-06-04 14:17:54.768144
13.8086337,-0.01105179265,0.02236989327,-0.002130466048,2024-06-04 14:17:54.808634
13.84913078,0.000932078925,0.002130466048,-0.01278279629,2024-06-04 14:17:54.849131
13.88962073,0.01930734888,-0.03009283356,-0.0221035853,2024-06-04 14:17:54.889621
13.93010943,0.01850842312,-0.009320789017,-0.01757634431,2024-06-04 14:17:54.930109
13.97064063,-0.005459319334,0.03275591508,-0.000266308256,2024-06-04 14:17:54.970641
14.01109818,-0.01185071748,0.04181039706,0.01038602181,2024-06-04 14:17:55.011098
14.05160292,0.006524552125,0.01677742042,0.0007989247679,2024-06-04 14:17:55.051603
14.09208115,-0.004127778113,0.05406057462,0.001065233024,2024-06-04 14:17:55.092081
14.13257042,-0.0355521515,0.1233007237,0.01651111245,2024-06-04 14:17:55.132570
14.17305625,-0.01185071748,0.09081111848,-0.005059856921,2024-06-04 14:17:55.173056
14.21355651,0.0355521515,0.001331541222,-0.02450035885,2024-06-04 14:17:55.213557
14.25402932,0.05339480564,-0.03994623944,-0.02929390781,2024-06-04 14:17:55.254029
14.29453453,0.03874785081,-0.03648423031,-0.01624480449,2024-06-04 14:17:55.294535
14.33498724,0.003595161485,-0.01757634431,-0.005858781748,2024-06-04 14:17:55.334987
14.37546193,-0.0275629051,0.02130465955,0.0146469539,2024-06-04 14:17:55.375462
14.41604302,-0.04913387448,0.03861469775,0.0181089621,2024-06-04 14:17:55.416043
14.45654917,-0.028361829,0.03408745676,0.01917419396,2024-06-04 14:17:55.456549
14.49699172,0.004394086078,-0.01651111245,0.0007989247679,2024-06-04 14:17:55.496992
14.53748094,0.03049229458,-0.02716344222,-0.01091863867,2024-06-04 14:17:55.537481
14.57791042,0.01584534161,-0.0005326165119,-0.006924014539,2024-06-04 14:17:55.577910
14.61842526,-0.01158440951,0.04633763805,-0.002929390874,2024-06-04 14:17:55.618425
14.65891375,-0.03342168778,0.07989247888,0.002929390874,2024-06-04 14:17:55.658914
14.69940229,-0.01797580719,0.04287562892,-0.004793548491,2024-06-04 14:17:55.699402
14.73991198,0.02623136342,-0.0221035853,-0.02130465955,2024-06-04 14:17:55.739912
14.78040203,0.04087831825,-0.07243584841,-0.02183727734,2024-06-04 14:17:55.780402
14.82090537,0.01504641678,-0.05352795869,0.000266308256,2024-06-04 14:17:55.820905
14.86144547,-0.02383458801,-0.03009283356,0.02183727734,2024-06-04 14:17:55.861445
14.90193401,-0.04913387448,0.002130466048,0.03089175746,2024-06-04 14:17:55.901934
14.94235328,-0.05099803209,0.03062544949,0.03994623944,2024-06-04 14:17:55.942353
14.98284891,-0.0275629051,0.07243584841,0.01944050193,2024-06-04 14:17:55.982849
15.02334948,0.007856093347,0.07882724702,-0.01517957076,2024-06-04 14:17:56.023349
15.0638213,0.03981308267,0.03967992961,-0.02769605815,2024-06-04 14:17:56.063821
15.10429136,0.03715000302,-0.01091863867,-0.02849498391,2024-06-04 14:17:56.104291
15.14478005,0.02676397935,-0.0114512546,-0.008788172156,2024-06-04 14:17:56.144780
15.1852874,-0.0171768833,-0.007722939365,0.01251648832,2024-06-04 14:17:56.185287
15.22576516,-0.03715000302,0.01704372838,0.02956021577,2024-06-04 14:17:56.225765
15.2663099,-0.0384815447,-0.009587096982,0.03515268862,2024-06-04 14:17:56.266310
15.30679958,-0.01691057347,-0.05645735189,0.02556559257,2024-06-04 14:17:56.306800
15.34726349,-0.01051917579,-0.04713656008,0.01065232977,2024-06-04 14:17:56.347263
15.38771969,-0.007589785382,-0.02556559257,0.003462007269,2024-06-04 14:17:56.387720
15.42821547,0.008122402243,-0.0260982085,-0.01065232977,2024-06-04 14:17:56.428215
15.46871209,0.00599193573,-0.02077204362,-0.0074566314,2024-06-04 14:17:56.468712
15.50923667,-0.007323476952,-0.008521864191,0.01038602181,2024-06-04 14:17:56.509237
15.5497438,-0.009720250964,-0.008788172156,0.02556559257,2024-06-04 14:17:56.549744
15.59018896,-0.01611164957,0.002929390874,0.007722939365,2024-06-04 14:17:56.590189
15.63067943,0.000932078925,0.01251648832,-0.003195699072,2024-06-04 14:17:56.630679
15.67118313,0.02303566411,-0.03115806542,-0.02023942769,2024-06-04 14:17:56.671183
15.71168068,0.0352858454,-0.05166380107,-0.03142437339,2024-06-04 14:17:56.711681
15.7521501,0.03475322574,-0.05432688445,-0.01624480449,2024-06-04 14:17:56.752150
15.79266271,-0.01478010789,-0.03861469775,0.005326164886,2024-06-04 14:17:56.792663
15.83311656,-0.05712312087,0.01118494663,0.02902759984,2024-06-04 14:17:56.833117
15.87360604,-0.05206326395,0.01544587873,0.02023942769,2024-06-04 14:17:56.873606
15.91411396,0.005725627299,-0.04953333735,-0.01331541315,2024-06-04 14:17:56.914114
15.95462323,0.02809552103,-0.03035914153,-0.02423405088,2024-06-04 14:17:56.954623
15.99508313,0.001731003635,0.06258244067,-0.007190322969,2024-06-04 14:17:56.995083
16.03559459,-0.01185071748,0.08468602598,-0.001065233024,2024-06-04 14:17:57.035595
16.07610891,-0.007323476952,0.07296846062,-0.008521864191,2024-06-04 14:17:57.076109
16.11659854,-0.009453942999,0.04127778113,0.01358172111,2024-06-04 14:17:57.116599
16.15708912,-0.04966649041,0.1049254537,0.0221035853,2024-06-04 14:17:57.157089
16.19757938,-0.01398118306,0.07376738638,-0.0074566314,2024-06-04 14:17:57.197579
16.23806964,0.06404713541,-0.05326165259,-0.04660394415,2024-06-04 14:17:57.238070
16.27855511,0.05818835273,-0.05033225939,-0.04420717061,2024-06-04 14:17:57.278555
16.31900854,0.01105179265,0.01704372838,-0.01358172111,2024-06-04 14:17:57.319009
16.35948208,-0.007589785382,0.05938674137,-0.005326164886,2024-06-04 14:17:57.359482
16.39998802,-0.007057168987,-0.002663082443,0.004527240526,2024-06-04 14:17:57.399988
16.44046505,-0.006258244161,-0.018907886,0.01384802908,2024-06-04 14:17:57.440465
16.48095401,-0.01611164957,0.01438064594,0.01038602181,2024-06-04 14:17:57.480954
16.52143688,-0.006258244161,0.03701684624,-0.0037283157,2024-06-04 14:17:57.521437
16.56193339,0.01584534161,-0.004260932095,-0.01651111245,2024-06-04 14:17:57.561933
16.60243141,0.0166442655,-0.005858781748,-0.005326164886,2024-06-04 14:17:57.602431
16.64291912,0.008122402243,0.01304910425,-0.002929390874,2024-06-04 14:17:57.642919
16.68341214,0.008388710208,0.01704372838,-0.0146469539,2024-06-04 14:17:57.683412
16.72389938,0.01611164957,-0.004260932095,-0.0146469539,2024-06-04 14:17:57.723899
16.76437927,0.007057168987,-0.002663082443,-0.007190322969,2024-06-04 14:17:57.764379
16.80487328,-0.004660394508,0.001597849536,0.002130466048,2024-06-04 14:17:57.804873
16.84535443,-0.003861469682,0.001065233024,0.002929390874,2024-06-04 14:17:57.845354
16.88584042,-0.005193010904,-0.01331541315,0.001331541222,2024-06-04 14:17:57.885840
16.92637438,-0.004127778113,-0.01251648832,0.0007989247679,2024-06-04 14:17:57.926374
16.96682177,-0.006258244161,0.0,0.004793548491,2024-06-04 14:17:57.966822
17.00727969,-0.006790860556,0.01225017942,-0.001331541222,2024-06-04 14:17:58.007280
17.04776026,0.003595161485,0.001065233024,-0.002929390874,2024-06-04 14:17:58.047760
17.08829849,0.01850842312,0.005592473317,-0.01011971384,2024-06-04 14:17:58.088298
17.12878781,0.006258244161,0.0146469539,-0.01225017942,2024-06-04 14:17:58.128788
17.16929979,0.01291595027,0.009587096982,-0.01677742042,2024-06-04 14:17:58.169300
17.20978328,0.03049229458,-0.01358172111,-0.03169068322,2024-06-04 14:17:58.209783
17.25027318,0.04061200842,-0.04500609636,-0.03595161438,2024-06-04 14:17:58.250273
17.29074589,0.01983996481,-0.02157096937,-0.02236989327,2024-06-04 14:17:58.290746
17.33123151,-0.01344856713,0.000266308256,0.002130466048,2024-06-04 14:17:58.331232
17.37169193,-0.02623136342,0.001597849536,0.01304910425,2024-06-04 14:17:58.371692
17.41222474,-0.02383458801,0.02103835158,0.007722939365,2024-06-04 14:17:58.412225
17.45270057,-0.002529928461,0.0181089621,-0.01198387146,2024-06-04 14:17:58.452701
17.49321151,0.04114462435,0.01038602181,-0.04181039706,2024-06-04 14:17:58.493212
17.53370625,0.06457975507,-0.0330222249,-0.05006595328,2024-06-04 14:17:58.533706
17.57416974,0.06404713541,-0.018907886,-0.04260931909,2024-06-04 14:17:58.574170
17.61466245,0.02516612969,-0.01358172111,-0.01677742042,2024-06-04 14:17:58.614662
17.65512932,-0.006790860556,0.008788172156,0.005858781748,2024-06-04 14:17:58.655129
17.69562834,-0.02889444493,0.03222329915,0.01091863867,2024-06-04 14:17:58.695628
17.73616656,-0.01797580719,0.02876129188,0.005059856921,2024-06-04 14:17:58.736167
17.77665261,-0.004926702939,0.01651111245,-0.005059856921,2024-06-04 14:17:58.776653
17.81706787,0.007856093347,-0.005858781748,-0.005326164886,2024-06-04 14:17:58.817068
17.85755719,0.009453942999,0.002929390874,-0.0037283157,2024-06-04 14:17:58.857557
17.89804656,0.004660394508,0.0005326165119,-0.003994623665,2024-06-04 14:17:58.898047
17.93853599,-0.008122402243,0.01118494663,0.005326164886,2024-06-04 14:17:58.938536
17.97907464,-0.02197043039,0.02849498391,0.0117175635,2024-06-04 14:17:58.979075
18.01960203,-0.02649767138,0.04500609636,0.008521864191,2024-06-04 14:17:59.019602
18.06006724,-0.01131810062,0.03568530455,-0.001331541222,2024-06-04 14:17:59.060067
18.10051818,0.01105179265,0.009853405878,-0.01358172111,2024-06-04 14:17:59.100518
18.14098125,0.02489982173,-0.004793548491,-0.01757634431,2024-06-04 14:17:59.140981
18.18149974,0.03129122034,-0.01757634431,-0.01757634431,2024-06-04 14:17:59.181500
18.22201875,0.02809552103,-0.03541899845,-0.018907886,2024-06-04 14:17:59.222019
18.26248219,0.01611164957,-0.0487344116,-0.008255556226,2024-06-04 14:17:59.262482
18.30300349,-0.01824211515,-0.01278279629,0.01384802908,2024-06-04 14:17:59.303003
18.3434901,-0.05552527308,0.02876129188,0.02529928461,2024-06-04 14:17:59.343490
18.38393037,-0.03981308267,0.04234301299,0.02503297664,2024-06-04 14:17:59.383930
18.42444094,-0.007323476952,0.008788172156,0.01118494663,2024-06-04 14:17:59.424441
18.46495662,0.01797580719,-0.01065232977,-0.0005326165119,2024-06-04 14:17:59.464957
18.50543266,0.0243672058,-0.01198387146,-0.006125089712,2024-06-04 14:17:59.505433
18.54593479,0.01584534161,-0.01065232977,-0.01278279629,2024-06-04 14:17:59.545935
18.58645229,0.01904104091,-0.01677742042,-0.01198387146,2024-06-04 14:17:59.586452
18.62688771,0.007856093347,-0.006924014539,-0.0007989247679,2024-06-04 14:17:59.626888
18.66736417,-0.01291595027,0.01065232977,0.0074566314,2024-06-04 14:17:59.667364
18.7078463,-0.0166442655,0.02236989327,0.008788172156,2024-06-04 14:17:59.707846
18.74834401,-0.0003994623839,0.002130466048,0.002929390874,2024-06-04 14:17:59.748344
18.78886063,0.002796236658,-0.006391398143,0.00186415785,2024-06-04 14:17:59.788861
18.82936474,0.001731003635,0.01544587873,-0.00186415785,2024-06-04 14:17:59.829365
18.86984292,0.004660394508,0.01225017942,-0.01225017942,2024-06-04 14:17:59.869843
18.91033349,0.008921326138,0.0181089621,-0.02503297664,2024-06-04 14:17:59.910333
18.95082781,0.01744319126,-0.005592473317,-0.0260982085,2024-06-04 14:17:59.950828
18.99131537,0.02170412242,-0.0146469539,-0.02636451647,2024-06-04 14:17:59.991315
19.03183073,-0.003595161485,-0.0298265256,-0.001597849536,2024-06-04 14:18:00.031831
19.07227703,-0.02862813696,-0.005059856921,0.01251648832,2024-06-04 14:18:00.072277
19.11275078,-0.03155753016,0.004527240526,0.01571218669,2024-06-04 14:18:00.112751
19.15324604,-0.0243672058,0.01384802908,0.005059856921,2024-06-04 14:18:00.153246
19.19375703,0.002263620263,0.01651111245,-0.01011971384,2024-06-04 14:18:00.193757
19.23425516,0.02330197208,0.001065233024,-0.02130465955,2024-06-04 14:18:00.234255
19.27472677,0.03182383627,-0.002130466048,-0.02077204362,2024-06-04 14:18:00.274727
19.31522198,0.01211702544,0.01411433797,-0.01331541315,2024-06-04 14:18:00.315222
19.35569651,-0.006258244161,0.01677742042,-0.002929390874,2024-06-04 14:18:00.355697
19.39620162,-0.01131810062,0.004260932095,0.002663082443,2024-06-04 14:18:00.396202
19.43671729,-0.000133154128,-0.01917419396,0.0007989247679,2024-06-04 14:18:00.436717
19.47714516,-0.001464695437,-0.01731003635,0.001597849536,2024-06-04 14:18:00.477145
19.51763099,-0.007323476952,-0.01065232977,0.01065232977,2024-06-04 14:18:00.517631
19.55811307,-0.01744319126,0.02343512699,0.02077204362,2024-06-04 14:18:00.558113
19.59862974,-0.02330197208,0.04021254554,0.02476666868,2024-06-04 14:18:00.598630
19.63913292,-0.009187635034,0.03541899845,0.0181089621,2024-06-04 14:18:00.639133
19.67963026,0.003062544856,0.008788172156,0.01065232977,2024-06-04 14:18:00.679630
19.72011703,0.01611164957,0.02157096937,-0.003195699072,2024-06-04 14:18:00.720117
19.76061099,0.01584534161,0.01970681176,-0.02023942769,2024-06-04 14:18:00.760611
19.80108505,0.01478010789,0.01278279629,-0.03462007269,2024-06-04 14:18:00.801085
19.84158766,0.004127778113,-0.01118494663,-0.04260931909,2024-06-04 14:18:00.841588
19.88206953,0.01398118306,0.01384802908,-0.008255556226,2024-06-04 14:18:00.882070
19.92254964,0.002263620263,0.03462007269,0.0146469539,2024-06-04 14:18:00.922550
19.96304938,-0.0006657706108,-0.01065232977,0.006391398143,2024-06-04 14:18:00.963049
20.00357349,0.006790860556,-0.04740286991,-0.000266308256,2024-06-04 14:18:01.003573
20.04404594,-0.01504641678,-0.03435376659,0.01917419396,2024-06-04 14:18:01.044046
20.08452073,-0.03209014609,0.0037283157,0.02396774292,2024-06-04 14:18:01.084521
20.12501125,-0.01904104091,0.01411433797,0.006391398143,2024-06-04 14:18:01.125011
20.16548875,0.0126496423,-0.008521864191,-0.0074566314,2024-06-04 14:18:01.165489
20.20602104,0.02223674022,0.0074566314,-0.01597849466,2024-06-04 14:18:01.206021
20.24651505,0.0171768833,0.009853405878,-0.01304910425,2024-06-04 14:18:01.246515
20.28695703,0.0126496423,0.007190322969,-0.01065232977,2024-06-04 14:18:01.286957
20.32742834,-0.0003994623839,-0.005059856921,-0.003195699072,2024-06-04 14:18:01.327428
20.36794615,-0.01131810062,-0.005059856921,0.0074566314,2024-06-04 14:18:01.367946
20.40843656,-0.01398118306,-0.002929390874,0.005858781748,2024-06-04 14:18:01.408437
20.44894849,-0.008921326138,0.005326164886,0.0,2024-06-04 14:18:01.448948
20.48940412,-0.002796236658,-0.002929390874,-0.0005326165119,2024-06-04 14:18:01.489404
20.52989031,-0.002263620263,0.01065232977,-0.009587096982,2024-06-04 14:18:01.529890
20.57042167,0.001997311832,0.01038602181,-0.0037283157,2024-06-04 14:18:01.570422
20.61089875,0.004660394508,0.003462007269,-0.006657706574,2024-06-04 14:18:01.610899
20.65139266,0.01211702544,0.007190322969,-0.009853405878,2024-06-04 14:18:01.651393
20.69187641,0.02276935615,-0.02529928461,-0.006657706574,2024-06-04 14:18:01.691876
20.73236531,0.01344856713,-0.01704372838,-0.00186415785,2024-06-04 14:18:01.732365
20.77283234,-0.01051917579,0.01757634431,0.01331541315,2024-06-04 14:18:01.772832
20.81335563,-0.01930734888,0.03328853101,0.01198387146,2024-06-04 14:18:01.813356
20.85382761,-0.01504641678,0.01837527007,0.008521864191,2024-06-04 14:18:01.853828
20.89428417,-0.00599193573,0.03435376659,-0.001597849536,2024-06-04 14:18:01.894284
20.93486625,-0.002529928461,0.01544587873,-0.006924014539,2024-06-04 14:18:01.934866
20.97528198,0.01584534161,-0.0221035853,-0.008255556226,2024-06-04 14:18:01.975282
21.01579917,0.01584534161,-0.04633763805,-0.006657706574,2024-06-04 14:18:02.015799
21.05631542,-0.0006657706108,-0.018907886,0.005592473317,2024-06-04 14:18:02.056315
21.09674052,-0.01637795754,0.0146469539,0.003195699072,2024-06-04 14:18:02.096741
21.1372301,-0.01824211515,0.03621792421,-0.009587096982,2024-06-04 14:18:02.137230
21.17769,-0.01824211515,0.02236989327,-0.01944050193,2024-06-04 14:18:02.177690
21.21817922,0.0006657706108,0.01225017942,-0.02503297664,2024-06-04 14:18:02.218179
21.25866688,0.008655018173,-0.03754946589,-0.02423405088,2024-06-04 14:18:02.258667
21.2991901,0.004127778113,-0.03009283356,0.001065233024,2024-06-04 14:18:02.299190
21.33969401,-0.02010627277,0.02636451647,0.01091863867,2024-06-04 14:18:02.339694
21.38018459,-0.007057168987,0.03728315607,-0.008255556226,2024-06-04 14:18:02.380185
21.42067813,0.02250304818,0.01677742042,-0.02396774292,2024-06-04 14:18:02.420678
21.46117526,0.0171768833,0.009853405878,-0.01571218669,2024-06-04 14:18:02.461175
21.5017011,0.01797580719,0.01438064594,-0.01704372838,2024-06-04 14:18:02.501701
21.54215344,0.01957365684,-0.006657706574,0.00186415785,2024-06-04 14:18:02.542153
21.58268115,0.003328853287,0.003195699072,0.01544587873,2024-06-04 14:18:02.582681
21.62312485,-0.02543243766,0.04127778113,0.03701684624,2024-06-04 14:18:02.623125
21.66366266,-0.04300878197,0.07935985923,0.04314193875,2024-06-04 14:18:02.663663
21.70414464,-0.05179695413,0.1001319066,0.04633763805,2024-06-04 14:18:02.704145
21.74464318,-0.04300878197,0.1051917598,0.05033225939,2024-06-04 14:18:02.744643
21.78506896,0.0003994623839,0.05885412544,0.03515268862,2024-06-04 14:18:02.785069
21.82558193,0.02223674022,-0.0005326165119,0.03568530455,2024-06-04 14:18:02.825582
21.86610667,-0.001997311832,0.003195699072,0.01864157803,2024-06-04 14:18:02.866107
21.90654031,-0.01025286783,0.02929390781,0.01331541315,2024-06-04 14:18:02.906540
21.94703052,0.003595161485,-0.005326164886,0.006125089712,2024-06-04 14:18:02.947031
21.98752052,-0.001731003635,-0.02769605815,0.006924014539,2024-06-04 14:18:02.987521
22.02798323,-0.0126496423,0.001065233024,0.0149132628,2024-06-04 14:18:03.027983
22.06847573,-0.02489982173,0.006391398143,0.02023942769,2024-06-04 14:18:03.068476
22.10895844,-0.009453942999,0.03408745676,-0.003195699072,2024-06-04 14:18:03.108958
22.14945354,0.0171768833,-0.01731003635,-0.01011971384,2024-06-04 14:18:03.149454
22.18997417,0.007057168987,-0.01438064594,-0.007190322969,2024-06-04 14:18:03.189974
22.2304625,-0.005459319334,0.01944050193,0.008521864191,2024-06-04 14:18:03.230463
22.27097037,-0.004127778113,0.02157096937,0.0007989247679,2024-06-04 14:18:03.270970
22.31146042,-0.003861469682,-0.008521864191,0.007190322969,2024-06-04 14:18:03.311460
22.35191755,-0.003595161485,0.02263620123,0.002663082443,2024-06-04 14:18:03.351918
22.39240755,-0.01531272475,0.01091863867,0.009320789017,2024-06-04 14:18:03.392408
22.43292334,-0.000932078925,0.01011971384,-0.007190322969,2024-06-04 14:18:03.432923
22.47340615,0.01185071748,-0.03089175746,-0.001597849536,2024-06-04 14:18:03.473406
22.5139076,-0.001464695437,-0.01997311972,0.003462007269,2024-06-04 14:18:03.513908
22.55440302,-0.006790860556,0.009587096982,0.005592473317,2024-06-04 14:18:03.554403
22.59486781,-0.001731003635,-0.008255556226,0.002929390874,2024-06-04 14:18:03.594868
22.63536365,-0.002796236658,0.008255556226,0.005059856921,2024-06-04 14:18:03.635364
22.67587511,-0.01478010789,0.01438064594,0.0146469539,2024-06-04 14:18:03.675875
22.71639344,-0.01344856713,0.02183727734,0.009853405878,2024-06-04 14:18:03.716393
22.75686906,-0.004394086078,0.005592473317,0.004527240526,2024-06-04 14:18:03.756869
22.7972999,-0.003328853287,-0.0007989247679,0.001597849536,2024-06-04 14:18:03.797300
22.83778865,-0.005193010904,0.01970681176,0.004527240526,2024-06-04 14:18:03.837789
22.87827568,-0.02356828004,0.03568530455,0.018907886,2024-06-04 14:18:03.878276
22.91878521,-0.03129122034,0.07323476672,0.005059856921,2024-06-04 14:18:03.918785
22.95928521,0.001731003635,0.04447348043,-0.01384802908,2024-06-04 14:18:03.959285
22.99980776,0.04620448127,-0.02583190054,-0.03754946589,2024-06-04 14:18:03.999808
23.04031594,0.05232957378,-0.07430000603,-0.0298265256,2024-06-04 14:18:04.040316
23.08075016,0.0352858454,-0.07856093347,-0.03701684624,2024-06-04 14:18:04.080750
23.12118698,0.00599193573,-0.03435376659,-0.009587096982,2024-06-04 14:18:04.121187
23.16173985,-0.02010627277,-0.01411433797,-0.0007989247679,2024-06-04 14:18:04.161740
23.20224104,-0.02516612969,0.005059856921,0.01251648832,2024-06-04 14:18:04.202241
23.24271089,-0.01105179265,0.005326164886,0.003994623665,2024-06-04 14:18:04.242711
23.28320115,0.01318225823,-0.004260932095,-0.004260932095,2024-06-04 14:18:04.283201
23.32369604,0.02410089783,-0.03462007269,-0.0037283157,2024-06-04 14:18:04.323696
23.36415917,0.01850842312,-0.01438064594,0.00186415785,2024-06-04 14:18:04.364159
23.40466125,0.007856093347,-0.01544587873,-0.0037283157,2024-06-04 14:18:04.404661
23.4451488,-0.002796236658,-0.01065232977,0.008255556226,2024-06-04 14:18:04.445149
23.48567578,-0.01797580719,0.01251648832,0.01011971384,2024-06-04 14:18:04.485676
23.52618781,-0.02197043039,0.0117175635,0.005592473317,2024-06-04 14:18:04.526188
23.56663401,-0.002529928461,-0.0117175635,-0.0037283157,2024-06-04 14:18:04.566634
23.6070961,0.01105179265,-0.03808208182,-0.01091863867,2024-06-04 14:18:04.607096
23.6475661,0.01850842312,-0.06844121963,-0.001065233024,2024-06-04 14:18:04.647566
23.68806807,0.01025286783,-0.06897383928,0.009054481052,2024-06-04 14:18:04.688068
23.72856854,0.0003994623839,-0.08015878499,0.02849498391,2024-06-04 14:18:04.728569
23.7690549,-0.004127778113,-0.08761541545,0.03595161438,2024-06-04 14:18:04.769055
23.80958005,0.003861469682,-0.1327546686,0.04047885537,2024-06-04 14:18:04.809580
23.85005328,-0.000932078925,-0.1202381775,0.04047885537,2024-06-04 14:18:04.850053
23.89052563,-0.01051917579,-0.02423405088,0.00798924733,2024-06-04 14:18:04.890526
23.93102177,0.004660394508,-0.06284874678,-0.003195699072,2024-06-04 14:18:04.931022
23.97153214,0.02596505545,-0.06551183015,-0.01198387146,2024-06-04 14:18:04.971532
24.01203823,0.02782921307,-0.07989247888,-0.008255556226,2024-06-04 14:18:05.012038
24.05251396,0.01211702544,-0.05086487532,-0.009054481052,2024-06-04 14:18:05.052514
24.09300896,0.009720250964,-0.01411433797,-0.008255556226,2024-06-04 14:18:05.093009
24.13349844,0.008921326138,-0.008521864191,-0.02050573565,2024-06-04 14:18:05.133498
24.17397708,0.000133154128,0.003462007269,-0.02636451647,2024-06-04 14:18:05.173977
24.21445412,-0.02117150649,0.03169068322,-0.01864157803,2024-06-04 14:18:05.214454
24.25494307,-0.01797580719,0.04926702753,-0.04074516147,2024-06-04 14:18:05.254943
24.29545031,0.01824211515,0.02343512699,-0.05832150951,2024-06-04 14:18:05.295450
24.33599141,0.05978620425,-0.03648423031,-0.04473978654,2024-06-04 14:18:05.335991
24.37641125,0.07469946891,-0.07935985923,-0.04793548584,2024-06-04 14:18:05.376411
24.41687469,0.04700340703,-0.056723658,-0.04154408723,2024-06-04 14:18:05.416875
24.45736412,0.02356828004,-0.04473978654,-0.03435376659,2024-06-04 14:18:05.457364
24.49785557,0.0166442655,-0.04979964346,-0.018907886,2024-06-04 14:18:05.497856
24.5383463,0.01424749196,-0.07749570161,0.001331541222,2024-06-04 14:18:05.538346
24.57887427,-0.01424749196,-0.05299534276,0.01837527007,2024-06-04 14:18:05.578874
24.61934844,-0.02010627277,-0.04447348043,0.01704372838,2024-06-04 14:18:05.619348
24.65983787,-0.00998655986,-0.05592473224,0.01011971384,2024-06-04 14:18:05.659838
24.70035469,-0.01611164957,-0.0487344116,0.00186415785,2024-06-04 14:18:05.700355
24.74083974,-0.01770949923,-0.01304910425,-0.0181089621,2024-06-04 14:18:05.740840
24.78132193,0.007323476952,-0.003994623665,-0.04287562892,2024-06-04 14:18:05.781322
24.82179182,0.02463351376,-0.01757634431,-0.06418029219,2024-06-04 14:18:05.821792
24.86229026,0.02250304818,-0.005326164886,-0.07456631213,2024-06-04 14:18:05.862290
24.90277969,0.03102491237,-0.03595161438,-0.07296846062,2024-06-04 14:18:05.902780
24.94333229,0.03315537795,-0.07403369248,-0.06924014539,2024-06-04 14:18:05.943332
24.9838101,0.02330197208,-0.08708280325,-0.05832150951,2024-06-04 14:18:05.983810
25.02426214,-0.003062544856,-0.071104303,-0.04181039706,2024-06-04 14:18:06.024262
25.06474406,-0.02569874749,-0.03035914153,-0.018907886,2024-06-04 14:18:06.064744
25.10522526,-0.05472634733,0.0005326165119,-0.01278279629,2024-06-04 14:18:06.105225
25.14571453,-0.0352858454,-0.006924014539,0.0260982085,2024-06-04 14:18:06.145715
25.18625219,-0.03342168778,0.02663082629,0.02583190054,2024-06-04 14:18:06.186252
25.22673724,-0.0544600375,0.07483261824,0.006657706574,2024-06-04 14:18:06.226737
25.2671351,-0.03262276202,0.08708280325,0.01970681176,2024-06-04 14:18:06.267135
25.30768787,-0.02543243766,0.07776200771,0.02423405088,2024-06-04 14:18:06.307688
25.34811526,-0.02063889056,0.1275616586,0.02236989327,2024-06-04 14:18:06.348115
25.38863334,-0.01291595027,0.1400781423,0.007190322969,2024-06-04 14:18:06.388633
25.42915099,0.028361829,0.1083874628,-0.007722939365,2024-06-04 14:18:06.429151
25.46963714,0.03661738336,0.08868064731,0.00186415785,2024-06-04 14:18:06.469637
25.5101225,0.002263620263,0.09533835202,0.01997311972,2024-06-04 14:18:06.510123
25.55062073,-0.01691057347,0.06471290439,0.03808208182,2024-06-04 14:18:06.550621
25.59111031,-0.03901416063,0.07350108027,0.06444659829,2024-06-04 14:18:06.591110
25.6315962,-0.03635107726,0.07190322876,0.05326165259,2024-06-04 14:18:06.631596
25.6721024,0.01211702544,0.0490007177,0.02689713426,2024-06-04 14:18:06.672102
25.71262068,0.02090519853,0.01784265228,0.02370143496,2024-06-04 14:18:06.712621
25.75308823,0.002796236658,0.03621792421,0.04553871229,2024-06-04 14:18:06.753088
25.79354948,-0.028361829,0.08069140464,0.03914731368,2024-06-04 14:18:06.793549
25.83404646,-0.01318225823,0.06684337556,0.02583190054,2024-06-04 14:18:06.834046
25.87454422,0.01051917579,0.01571218669,0.002663082443,2024-06-04 14:18:06.874544
25.9150136,0.01291595027,0.0221035853,-0.005592473317,2024-06-04 14:18:06.915014
25.95550849,0.008122402243,0.02130465955,-0.006657706574,2024-06-04 14:18:06.955508
25.99600412,0.01291595027,0.01757634431,-0.01358172111,2024-06-04 14:18:06.996004
26.03651542,0.01478010789,-0.01944050193,-0.01571218669,2024-06-04 14:18:07.036515
26.07702328,0.01824211515,-0.0410114713,0.003195699072,2024-06-04 14:18:07.077023
26.11743505,-0.000133154128,-0.05432688445,0.02157096937,2024-06-04 14:18:07.117435
26.15792391,-0.01557903271,-0.02689713426,0.0146469539,2024-06-04 14:18:07.157924
26.19841505,-0.01691057347,0.009587096982,0.02023942769,2024-06-04 14:18:07.198415
26.23892964,-0.009720250964,0.0074566314,0.01358172111,2024-06-04 14:18:07.238930
26.27942646,0.000133154128,-0.01651111245,0.003994623665,2024-06-04 14:18:07.279426
26.31990912,0.001198387123,0.008255556226,0.006125089712,2024-06-04 14:18:07.319909
26.36039193,-0.002263620263,0.004793548491,-0.001331541222,2024-06-04 14:18:07.360392
26.40089214,0.01424749196,0.001597849536,-0.004260932095,2024-06-04 14:18:07.400892
26.44138182,0.001464695437,-0.004260932095,0.009587096982,2024-06-04 14:18:07.441382
26.48190151,-0.004660394508,0.03355484083,0.00186415785,2024-06-04 14:18:07.481902
26.5223888,0.00599193573,0.01571218669,-0.001065233024,2024-06-04 14:18:07.522389
26.56285865,0.004394086078,0.00798924733,-0.009054481052,2024-06-04 14:18:07.562859
26.60333307,-0.008655018173,0.01198387146,0.009587096982,2024-06-04 14:18:07.603333
26.64383245,-0.01158440951,-0.001331541222,0.005059856921,2024-06-04 14:18:07.643832
26.68431516,-0.007323476952,-0.009054481052,0.004527240526,2024-06-04 14:18:07.684315
26.72485073,-0.01158440951,-0.01624480449,0.005858781748,2024-06-04 14:18:07.724851
26.76532792,-0.01531272475,-0.002929390874,0.008788172156,2024-06-04 14:18:07.765328
26.80581813,-0.00998655986,0.02849498391,0.003195699072,2024-06-04 14:18:07.805818
26.84631875,-0.002529928461,0.01358172111,-0.005059856921,2024-06-04 14:18:07.846319
26.88678391,0.009187635034,-0.002929390874,-0.003994623665,2024-06-04 14:18:07.886784
26.92722172,-0.002796236658,0.006125089712,0.007722939365,2024-06-04 14:18:07.927222
26.96769787,-0.02090519853,0.01784265228,0.02263620123,2024-06-04 14:18:07.967698
27.0081875,-0.01185071748,-0.004793548491,0.01970681176,2024-06-04 14:18:08.008187
27.048735,0.01637795754,-0.01358172111,-0.004527240526,2024-06-04 14:18:08.048735
27.08920052,0.02010627277,-0.03355484083,-0.01011971384,2024-06-04 14:18:08.089201
27.12967391,-0.005725627299,-0.007190322969,0.006125089712,2024-06-04 14:18:08.129674
27.17019896,-0.04114462435,0.0229025092,0.01917419396,2024-06-04 14:18:08.170199
27.21070495,-0.03155753016,0.02716344222,0.01011971384,2024-06-04 14:18:08.210705
27.25118078,-0.008122402243,0.006924014539,-0.0037283157,2024-06-04 14:18:08.251181
27.29166938,0.003062544856,-0.009587096982,0.005059856921,2024-06-04 14:18:08.291669
27.33218115,-0.01158440951,0.02769605815,0.01597849466,2024-06-04 14:18:08.332181
27.37262,-0.01158440951,0.05059856921,0.02423405088,2024-06-04 14:18:08.372620
27.41312396,-0.008388710208,0.03888100386,0.01784265228,2024-06-04 14:18:08.413124
27.45360776,0.01211702544,0.006391398143,0.01597849466,2024-06-04 14:18:08.453608
27.49413901,0.01744319126,-0.03195698932,0.02796236612,2024-06-04 14:18:08.494139
27.534645,0.008921326138,-0.05539211631,0.04154408723,2024-06-04 14:18:08.534645
27.57508979,-0.005193010904,-0.03728315607,0.0458050184,2024-06-04 14:18:08.575090
27.61557917,-0.03635107726,-0.03062544949,0.06444659829,2024-06-04 14:18:08.615579
27.65612787,-0.05392742157,-0.01731003635,0.06631075591,2024-06-04 14:18:08.656128
27.69661688,-0.04513924941,-0.0005326165119,0.05912043154,2024-06-04 14:18:08.696617
27.73702219,-0.01877473295,0.0007989247679,0.04127778113,2024-06-04 14:18:08.737022
27.7775125,0.006524552125,-0.006391398143,0.01384802908,2024-06-04 14:18:08.777513
27.81801724,0.02729659714,-0.01544587873,0.0005326165119,2024-06-04 14:18:08.818017
27.85850761,0.01930734888,-0.03888100386,-0.0005326165119,2024-06-04 14:18:08.858508
27.89899797,0.00599193573,-0.01384802908,-0.003994623665,2024-06-04 14:18:08.898998
27.9395012,0.009453942999,0.02663082629,-0.009587096982,2024-06-04 14:18:08.939501
27.97998469,0.009187635034,0.01651111245,-0.004793548491,2024-06-04 14:18:08.979985
28.0205186,0.009187635034,0.0007989247679,0.001331541222,2024-06-04 14:18:09.020519
28.06098328,0.01078548469,-0.005858781748,0.001597849536,2024-06-04 14:18:09.060983
28.10144818,0.009453942999,-0.002396774245,0.0,2024-06-04 14:18:09.101448
28.1419386,0.009187635034,0.005326164886,-0.004260932095,2024-06-04 14:18:09.141939
28.18244599,0.009720250964,0.003462007269,-0.009587096982,2024-06-04 14:18:09.182446
28.22293766,0.001731003635,0.007190322969,-0.006391398143,2024-06-04 14:18:09.222938
28.26342182,-0.000133154128,0.01011971384,-0.004260932095,2024-06-04 14:18:09.263422
28.30391823,0.002529928461,-0.005592473317,-0.001065233024,2024-06-04 14:18:09.303918
28.34440172,0.006258244161,-0.01571218669,0.0037283157,2024-06-04 14:18:09.344402
28.38485167,-0.006790860556,-0.0146469539,0.001331541222,2024-06-04 14:18:09.384852
28.42536438,-0.01371487509,-0.000266308256,0.000266308256,2024-06-04 14:18:09.425364
28.46587834,-0.000133154128,0.0114512546,0.008255556226,2024-06-04 14:18:09.465878
28.50644214,0.01451379992,-0.02103835158,0.005592473317,2024-06-04 14:18:09.506442
28.54690037,0.02969337068,-0.04127778113,-0.003994623665,2024-06-04 14:18:09.546900
28.58728787,0.03715000302,-0.03408745676,-0.008521864191,2024-06-04 14:18:09.587288
28.62777172,0.01983996481,-0.02050573565,-0.01011971384,2024-06-04 14:18:09.627772
28.66826125,-0.006790860556,0.0181089621,-0.001331541222,2024-06-04 14:18:09.668261
28.70876641,-0.01158440951,0.02902759984,-0.002929390874,2024-06-04 14:18:09.708766
28.74929834,0.005193010904,0.002929390874,-0.01038602181,2024-06-04 14:18:09.749298
28.78980365,0.02303566411,-0.01411433797,-0.01731003635,2024-06-04 14:18:09.789804
28.83028422,0.02223674022,-0.01198387146,-0.01997311972,2024-06-04 14:18:09.830284
28.87078125,0.00599193573,0.01225017942,-0.018907886,2024-06-04 14:18:09.870781
28.91126719,-0.007323476952,0.02876129188,-0.008788172156,2024-06-04 14:18:09.911267
28.95176292,-0.009187635034,0.02583190054,0.001597849536,2024-06-04 14:18:09.951763
28.99224234,-0.0003994623839,0.002663082443,0.003462007269,2024-06-04 14:18:09.992242
29.03275927,0.008655018173,-0.009853405878,-0.004260932095,2024-06-04 14:18:10.032759
29.073215,0.005459319334,-0.004527240526,-0.003994623665,2024-06-04 14:18:10.073215
29.11368813,-0.001731003635,0.000266308256,-0.000266308256,2024-06-04 14:18:10.113688
29.15419068,-0.002263620263,-0.001065233024,0.003462007269,2024-06-04 14:18:10.154191
29.1946949,0.0003994623839,-0.0037283157,0.002929390874,2024-06-04 14:18:10.194695
29.23515667,0.003062544856,-0.003462007269,0.000266308256,2024-06-04 14:18:10.235157
29.275665,0.004127778113,-0.005858781748,-0.000266308256,2024-06-04 14:18:10.275665
29.31621297,0.00599193573,-0.006924014539,-0.00186415785,2024-06-04 14:18:10.316213
29.35667016,0.000133154128,-0.005858781748,-0.001065233024,2024-06-04 14:18:10.356670
29.39712219,-0.004394086078,0.007722939365,-0.000266308256,2024-06-04 14:18:10.397122
29.43760834,-0.003328853287,0.006657706574,0.002929390874,2024-06-04 14:18:10.437608
29.47809146,-0.0006657706108,-0.002130466048,0.001065233024,2024-06-04 14:18:10.478091
29.51860167,0.000932078925,-0.002663082443,0.0005326165119,2024-06-04 14:18:10.518602
29.55910042,0.005193010904,0.001597849536,-0.001597849536,2024-06-04 14:18:10.559100
29.59959396,0.007856093347,-0.01704372838,0.0,2024-06-04 14:18:10.599594
29.6400426,0.001997311832,-0.02343512699,0.004527240526,2024-06-04 14:18:10.640043
29.6805674,-0.008921326138,-0.01011971384,0.008521864191,2024-06-04 14:18:10.680567
29.72104886,-0.01078548469,0.0005326165119,0.007722939365,2024-06-04 14:18:10.721049
29.76152667,-0.003595161485,0.005326164886,0.005059856921,2024-06-04 14:18:10.761527
29.80203927,0.000133154128,0.006125089712,0.007722939365,2024-06-04 14:18:10.802039
29.84252745,0.008921326138,0.01198387146,0.004527240526,2024-06-04 14:18:10.842527
29.88301047,-0.003595161485,0.006391398143,0.002663082443,2024-06-04 14:18:10.883010
29.92352802,-0.006258244161,0.03275591508,0.01198387146,2024-06-04 14:18:10.923528
29.96402886,-0.00998655986,0.03675054014,0.004260932095,2024-06-04 14:18:10.964029
30.00452255,-0.01371487509,0.01331541315,-0.01837527007,2024-06-04 14:18:11.004523
30.04497386,-0.004394086078,0.02236989327,-0.02023942769,2024-06-04 14:18:11.044974
30.08545714,-0.001464695437,0.04473978654,-0.03728315607,2024-06-04 14:18:11.085457
30.12595354,0.0323564522,0.01091863867,-0.04953333735,2024-06-04 14:18:11.125954
30.16641182,0.05472634733,-0.04287562892,-0.04553871229,2024-06-04 14:18:11.166412
30.20690604,0.06031882018,-0.07376738638,-0.0490007177,2024-06-04 14:18:11.206906
30.24739391,0.03715000302,-0.05645735189,-0.04074516147,2024-06-04 14:18:11.247394
30.28788334,0.003861469682,-0.0221035853,-0.01651111245,2024-06-04 14:18:11.287883
30.32838943,-0.02623136342,-0.02157096937,0.01011971384,2024-06-04 14:18:11.328389
30.36885443,-0.04726971686,-0.01864157803,0.03648423031,2024-06-04 14:18:11.368854
30.40935891,-0.0541937314,0.0007989247679,0.0487344116,2024-06-04 14:18:11.409359
30.44985209,-0.04833494872,0.02689713426,0.03222329915,2024-06-04 14:18:11.449852
30.49035912,-0.03794892505,0.06418029219,0.02822867595,2024-06-04 14:18:11.490359
30.53083271,-0.01930734888,0.05858781561,0.0181089621,2024-06-04 14:18:11.530833
30.57138026,-0.008921326138,0.03595161438,0.006657706574,2024-06-04 14:18:11.571380
30.61182969,0.003861469682,0.01331541315,0.01704372838,2024-06-04 14:18:11.611830
30.65233208,-0.000932078925,-0.02450035885,0.01624480449,2024-06-04 14:18:11.652332
30.69281427,-0.006790860556,-0.02663082629,0.01970681176,2024-06-04 14:18:11.692814
30.7333049,-0.002529928461,-0.01597849466,0.01597849466,2024-06-04 14:18:11.733305
30.7737836,0.01291595027,-0.01411433797,-0.00798924733,2024-06-04 14:18:11.773784
30.81427698,0.01051917579,-0.01704372838,-0.02263620123,2024-06-04 14:18:11.814277
30.85477854,-0.001464695437,0.02157096937,-0.0117175635,2024-06-04 14:18:11.854779
30.89523172,-0.02250304818,0.03275591508,0.002130466048,2024-06-04 14:18:11.895232
30.93574271,-0.01691057347,0.03515268862,0.006391398143,2024-06-04 14:18:11.935743
30.97624172,0.003595161485,0.0074566314,-0.000266308256,2024-06-04 14:18:11.976242
31.01677224,0.01957365684,-0.02689713426,-0.01384802908,2024-06-04 14:18:12.016772
31.05726188,0.01770949923,-0.01358172111,-0.007722939365,2024-06-04 14:18:12.057262
31.09767057,0.007323476952,-0.0074566314,-0.0037283157,2024-06-04 14:18:12.097671
31.13816016,0.000133154128,-0.008521864191,-0.000266308256,2024-06-04 14:18:12.138160
31.17864979,-0.0003994623839,0.00186415785,0.00186415785,2024-06-04 14:18:12.178650
31.21917932,-0.001198387123,-0.005326164886,-0.000266308256,2024-06-04 14:18:12.219179
31.25968,-0.001464695437,-0.000266308256,-0.002396774245,2024-06-04 14:18:12.259680
31.30015031,-0.004127778113,0.0114512546,-0.001331541222,2024-06-04 14:18:12.300150
31.34062828,-0.003861469682,0.008788172156,0.000266308256,2024-06-04 14:18:12.340628
31.38110485,-0.0003994623839,0.003994623665,-0.005059856921,2024-06-04 14:18:12.381105
31.42161089,0.008921326138,-0.006391398143,-0.005858781748,2024-06-04 14:18:12.421611
31.4621524,0.003861469682,-0.02583190054,-0.0005326165119,2024-06-04 14:18:12.462152
31.50260505,-0.009720250964,0.01304910425,0.00186415785,2024-06-04 14:18:12.502605
31.54311292,-0.01185071748,0.01438064594,-0.004527240526,2024-06-04 14:18:12.543113
31.58357646,-0.0006657706108,0.009054481052,-0.01331541315,2024-06-04 14:18:12.583576
31.62407698,0.01078548469,-0.004260932095,-0.00798924733,2024-06-04 14:18:12.624077
31.66455156,0.006524552125,-0.009320789017,-0.004527240526,2024-06-04 14:18:12.664552
31.70504396,0.002263620263,0.005592473317,-0.005858781748,2024-06-04 14:18:12.705044
31.74554005,-0.004660394508,0.01038602181,-0.002396774245,2024-06-04 14:18:12.745540
31.7860575,-0.004394086078,0.003462007269,0.0007989247679,2024-06-04 14:18:12.786057
31.82656391,-0.002263620263,0.0005326165119,0.0005326165119,2024-06-04 14:18:12.826564
31.86695813,-0.001198387123,-0.002396774245,0.0,2024-06-04 14:18:12.866958
31.90744787,0.001198387123,-0.002396774245,0.002663082443,2024-06-04 14:18:12.907448
31.94793625,0.004127778113,-0.003462007269,0.002663082443,2024-06-04 14:18:12.947936
31.98846662,-0.02489982173,-0.05752258375,-0.05272903293,2024-06-04 14:18:12.988467
32.02895417,0.006790860556,0.01438064594,0.01651111245,2024-06-04 14:18:13.028954
32.06944188,0.000932078925,0.05272903293,0.02316881903,2024-06-04 14:18:13.069442
32.10992818,0.000932078925,-0.04660394415,-0.02130465955,2024-06-04 14:18:13.109928
32.15044094,-0.008921326138,0.02849498391,-0.02050573565,2024-06-04 14:18:13.150441
32.19092125,0.05659050494,0.2782921195,0.009587096982,2024-06-04 14:18:13.190921
32.23139891,0.1497983932,0.6222292185,0.230090335,2024-06-04 14:18:13.231399
32.2718951,-0.07842778414,0.4287562966,0.2591179311,2024-06-04 14:18:13.271895
32.31241307,-0.1057243794,0.3262276053,0.4684362113,2024-06-04 14:18:13.312413
32.35288703,0.06271559745,0.09374050796,0.4708330035,2024-06-04 14:18:13.352887
32.39336078,0.09280842543,0.08734910935,0.5511249304,2024-06-04 14:18:13.393361
32.43385011,-0.004660394508,0.1920082569,0.4505935609,2024-06-04 14:18:13.433850
32.47435182,-0.03608476743,-0.009320789017,0.3363473415,2024-06-04 14:18:13.474352
32.51486167,-0.04407401755,-0.01864157803,0.1991985738,2024-06-04 14:18:13.514862
32.55536297,0.008122402243,0.01517957076,0.07776200771,2024-06-04 14:18:13.555363
32.59583953,0.08748225868,-0.107588537,-0.01677742042,2024-06-04 14:18:13.595840
32.63635354,0.1615159512,-0.1070559174,-0.04154408723,2024-06-04 14:18:13.636354
32.67684719,0.2006632686,-0.05752258375,-0.05885412544,2024-06-04 14:18:13.676847
32.71733729,0.1692388952,-0.06844121963,-0.104392834,2024-06-04 14:18:13.717337
32.75779979,0.08615072072,-0.09853405505,-0.09906667471,2024-06-04 14:18:13.757800
32.79823474,0.03715000302,-0.1129147038,-0.0705716908,2024-06-04 14:18:13.798235
32.83875516,0.01318225823,-0.08947957307,-0.08708280325,2024-06-04 14:18:13.838755
32.87926047,0.08561810106,-0.1458037645,-0.108254306,2024-06-04 14:18:13.879260
32.91973646,0.123167567,-0.1644453406,-0.1154446304,2024-06-04 14:18:13.919736
32.9602399,0.07549838722,-0.2017285079,-0.1391460598,2024-06-04 14:18:13.960240
33.00075162,0.002796236658,-0.1934729517,-0.1189066395,2024-06-04 14:18:14.000752
33.04120813,-0.1115831584,-0.1110505462,-0.08441971987,2024-06-04 14:18:14.041208
33.08169974,-0.1515294015,-0.08921326697,-0.09906667471,2024-06-04 14:18:14.081700
33.12220031,-0.0926752761,-0.1910761744,-0.1149120107,2024-06-04 14:18:14.122200
33.16267693,-0.07097115368,-0.1282274276,-0.07216953486,2024-06-04 14:18:14.162677
33.20316537,-0.0977351293,-0.03275591508,-0.04420717061,2024-06-04 14:18:14.203165
33.24366167,-0.1126483902,-0.03248960897,-0.04154408723,2024-06-04 14:18:14.243662
33.28416719,-0.1035939083,-0.05379426852,-0.05805519968,2024-06-04 14:18:14.284167
33.32468417,-0.06671021879,-0.05352795869,-0.04394086078,2024-06-04 14:18:14.324684
33.36511495,-0.0171768833,-0.07323476672,-0.06284874678,2024-06-04 14:18:14.365115
33.40561495,-0.01478010789,-0.08441971987,-0.08655018359,2024-06-04 14:18:14.405615
33.44614172,-0.02782921307,-0.05086487532,-0.0820229426,2024-06-04 14:18:14.446142
33.48662334,-0.03794892505,-0.1051917598,-0.112781547,2024-06-04 14:18:14.486623
33.52705703,-0.1227681041,-0.160983339,-0.1817553788,2024-06-04 14:18:14.527057
33.56752531,-0.1818885356,-0.151928857,-0.2075872868,2024-06-04 14:18:14.567525
33.60801448,-0.1949376464,-0.1263632625,-0.2326202542,2024-06-04 14:18:14.608014
33.6485601,-0.1888125539,-0.09453943372,-0.2715012729,2024-06-04 14:18:14.648560
33.68905604,-0.1310236603,-0.09533835202,-0.2536586225,2024-06-04 14:18:14.689056
33.72954146,-0.05099803209,-0.05086487532,-0.1974675655,2024-06-04 14:18:14.729541
33.77003443,0.03395430371,-0.0117175635,-0.1591191888,2024-06-04 14:18:14.770034
33.81053375,0.1679073572,0.06737598777,-0.1322220564,2024-06-04 14:18:14.810534
33.85099115,0.2214353085,0.0929415822,-0.09613727778,2024-06-04 14:18:14.850991
33.89148177,0.1663095057,0.1054580659,-0.07776200771,2024-06-04 14:18:14.891482
33.93197443,0.02703028731,0.1736329794,-0.05752258375,2024-06-04 14:18:14.931974
33.97245964,-0.06457975507,0.09959928691,-0.01091863867,2024-06-04 14:18:14.972460
34.01297464,-0.1318225861,-0.05485950038,0.01757634431,2024-06-04 14:18:15.012975
34.05345875,-0.181622237,-0.09134373069,0.037815772,2024-06-04 14:18:15.053459
34.09394318,-0.234617576,-0.03462007269,0.04979964346,2024-06-04 14:18:15.093943
34.13443276,-0.2460688353,-0.04500609636,0.04074516147,2024-06-04 14:18:15.134433
34.17491823,-0.2135792226,-0.052196417,0.056723658,2024-06-04 14:18:15.174918
34.21539427,-0.1523283273,-0.02822867595,0.06071828306,2024-06-04 14:18:15.215394
34.25591234,-0.08694964647,-0.02343512699,0.03195698932,2024-06-04 14:18:15.255912
34.29642849,-0.02037258074,0.00798924733,0.000266308256,2024-06-04 14:18:15.296428
34.3368586,0.03448691964,0.0229025092,-0.01651111245,2024-06-04 14:18:15.336859
34.3773299,0.06484606117,0.02157096937,-0.02583190054,2024-06-04 14:18:15.377330
34.41783828,0.06697652489,0.009853405878,-0.0260982085,2024-06-04 14:18:15.417838
34.45832781,0.04726971686,0.01198387146,-0.01917419396,2024-06-04 14:18:15.458328
34.49885459,0.01478010789,0.009853405878,-0.006657706574,2024-06-04 14:18:15.498855
34.53935943,-0.01584534161,0.001065233024,0.001597849536,2024-06-04 14:18:15.539359
34.57982901,-0.03049229458,-0.01038602181,0.007722939365,2024-06-04 14:18:15.579829
34.6203,-0.0323564522,-0.0146469539,0.008788172156,2024-06-04 14:18:15.620300
34.66078943,-0.02463351376,-0.01970681176,0.006657706574,2024-06-04 14:18:15.660789
34.70129906,-0.01105179265,-0.01651111245,0.005858781748,2024-06-04 14:18:15.701299
34.74177386,0.006524552125,-0.01251648832,0.002396774245,2024-06-04 14:18:15.741774
34.78226229,0.01424749196,-0.000266308256,-0.001065233024,2024-06-04 14:18:15.782262
34.82276599,0.01504641678,0.01065232977,-0.003462007269,2024-06-04 14:18:15.822766
34.86325932,0.00998655986,0.008521864191,-0.0005326165119,2024-06-04 14:18:15.863259
34.90374875,-0.001198387123,0.00186415785,0.002130466048,2024-06-04 14:18:15.903749
34.94423162,-0.008388710208,0.001597849536,0.002130466048,2024-06-04 14:18:15.944232
34.98473172,-0.009453942999,-0.001331541222,0.001597849536,2024-06-04 14:18:15.984732
35.02525209,-0.00599193573,-0.006924014539,0.003195699072,2024-06-04 14:18:16.025252
35.06568422,0.0006657706108,0.0,-0.0007989247679,2024-06-04 14:18:16.065684
35.10623068,0.003861469682,0.002929390874,-0.001331541222,2024-06-04 14:18:16.106231
35.14672136,0.004660394508,0.006391398143,-0.004793548491,2024-06-04 14:18:16.146721
35.18711078,0.003328853287,-0.003195699072,-0.0005326165119,2024-06-04 14:18:16.187111
35.22760115,-0.0006657706108,-0.003994623665,0.002663082443,2024-06-04 14:18:16.227601
35.26812453,-0.002263620263,0.002396774245,0.0005326165119,2024-06-04 14:18:16.268125
35.3086161,-0.003062544856,0.003462007269,0.0005326165119,2024-06-04 14:18:16.308616
35.34912719,-0.001731003635,0.002130466048,-0.00186415785,2024-06-04 14:18:16.349127
35.38963438,0.000932078925,-0.004260932095,0.0,2024-06-04 14:18:16.389634
35.43009047,0.001997311832,-0.003462007269,0.000266308256,2024-06-04 14:18:16.430090
35.47059068,0.003595161485,0.0007989247679,-0.001065233024,2024-06-04 14:18:16.470591
35.5110838,0.001464695437,-0.002396774245,0.0,2024-06-04 14:18:16.511084
35.55157682,-0.001464695437,0.0,-0.001331541222,2024-06-04 14:18:16.551577
35.59205615,0.001464695437,-0.006924014539,0.001065233024,2024-06-04 14:18:16.592056
35.63256948,0.003062544856,-0.01331541315,-0.00186415785,2024-06-04 14:18:16.632569
35.67309271,0.003062544856,-0.008255556226,-0.0037283157,2024-06-04 14:18:16.673093
35.71358234,-0.001731003635,0.003195699072,-0.002130466048,2024-06-04 14:18:16.713582
35.75400844,-0.004660394508,0.0114512546,0.002929390874,2024-06-04 14:18:16.754008
35.79450557,-0.002263620263,0.01544587873,0.005592473317,2024-06-04 14:18:16.794506
35.83500552,0.002529928461,0.009054481052,0.001065233024,2024-06-04 14:18:16.835006
35.87548599,0.008388710208,-0.002130466048,-0.003462007269,2024-06-04 14:18:16.875486
35.915985,0.005459319334,-0.01278279629,-0.002396774245,2024-06-04 14:18:16.915985
35.95648,-0.004660394508,-0.01677742042,0.000266308256,2024-06-04 14:18:16.956480
35.99694287,-0.01078548469,-0.008788172156,0.00186415785,2024-06-04 14:18:16.996943
36.03742505,-0.007323476952,-0.002663082443,0.001065233024,2024-06-04 14:18:17.037425
36.07790594,0.000932078925,0.004793548491,-0.001597849536,2024-06-04 14:18:17.077906
36.11840146,0.008388710208,0.01038602181,-0.002396774245,2024-06-04 14:18:17.118401
36.15888938,0.006524552125,0.0117175635,-0.001597849536,2024-06-04 14:18:17.158889
36.19940901,0.001464695437,0.01304910425,0.001597849536,2024-06-04 14:18:17.199409
36.23989834,-0.005193010904,0.002130466048,0.001597849536,2024-06-04 14:18:17.239898
36.28037948,-0.004394086078,-0.004793548491,0.00186415785,2024-06-04 14:18:17.280379
36.32086959,0.002263620263,-0.01597849466,-0.000266308256,2024-06-04 14:18:17.320870
36.36135521,0.003861469682,-0.0114512546,-0.005592473317,2024-06-04 14:18:17.361355
36.40185834,0.000932078925,0.003462007269,-0.00186415785,2024-06-04 14:18:17.401858
36.4423851,0.0003994623839,0.005326164886,0.00186415785,2024-06-04 14:18:17.442385
36.48289328,-0.001464695437,0.005858781748,0.0037283157,2024-06-04 14:18:17.482893
36.52335578,-0.0006657706108,0.004793548491,0.002396774245,2024-06-04 14:18:17.523356
36.56382318,0.002263620263,0.001065233024,0.0,2024-06-04 14:18:17.563823
36.60430901,0.003861469682,-0.007190322969,-0.002929390874,2024-06-04 14:18:17.604309
36.64479677,-0.0003994623839,-0.008788172156,-0.000266308256,2024-06-04 14:18:17.644797
36.68527172,-0.003328853287,-0.006924014539,0.000266308256,2024-06-04 14:18:17.685272
36.72581537,0.000932078925,-0.01065232977,-0.002396774245,2024-06-04 14:18:17.725815
36.76631771,0.002263620263,-0.01278279629,-0.003195699072,2024-06-04 14:18:17.766318
36.80679807,-0.007589785382,-0.005059856921,0.00186415785,2024-06-04 14:18:17.806798
36.84728709,-0.01344856713,0.0181089621,0.003462007269,2024-06-04 14:18:17.847287
36.88777604,-0.006524552125,0.01038602181,0.001597849536,2024-06-04 14:18:17.887776
36.928265,0.003062544856,0.000266308256,0.0,2024-06-04 14:18:17.928265
36.96871531,0.008388710208,0.00186415785,-0.001597849536,2024-06-04 14:18:17.968715
37.00925818,0.01131810062,-0.00186415785,-0.006125089712,2024-06-04 14:18:18.009258
37.04969047,0.005725627299,-0.0114512546,0.0005326165119,2024-06-04 14:18:18.049690
37.09017844,-0.0003994623839,-0.006391398143,0.0,2024-06-04 14:18:18.090178
37.13061802,-0.003861469682,-0.003195699072,-0.0007989247679,2024-06-04 14:18:18.130618
37.17117938,-0.003062544856,0.005059856921,0.002130466048,2024-06-04 14:18:18.171179
37.21164078,-0.004394086078,0.005326164886,0.003195699072,2024-06-04 14:18:18.211641
37.2521238,-0.000133154128,0.008788172156,0.00186415785,2024-06-04 14:18:18.252124
37.29264193,0.008655018173,0.0,-0.0007989247679,2024-06-04 14:18:18.292642
37.33311104,0.01131810062,-0.008521864191,-0.004793548491,2024-06-04 14:18:18.333111
37.37360636,0.001731003635,-0.004260932095,-0.002130466048,2024-06-04 14:18:18.373606
37.41412052,-0.005725627299,-0.000266308256,0.0007989247679,2024-06-04 14:18:18.414121
37.45459563,-0.004394086078,0.003462007269,0.004793548491,2024-06-04 14:18:18.454596
37.49507281,0.0003994623839,-0.000266308256,0.002396774245,2024-06-04 14:18:18.495073
37.5356199,0.004394086078,-0.00186415785,0.000266308256,2024-06-04 14:18:18.535620
37.57611078,0.005193010904,-0.000266308256,-0.001331541222,2024-06-04 14:18:18.576111
37.61663334,0.001198387123,-0.002396774245,0.000266308256,2024-06-04 14:18:18.616633
37.65699557,-0.001464695437,-0.0037283157,0.001331541222,2024-06-04 14:18:18.656996
37.69748422,-0.0006657706108,-0.00186415785,-0.0007989247679,2024-06-04 14:18:18.697484
37.73797292,-0.000133154128,-0.0005326165119,-0.0005326165119,2024-06-04 14:18:18.737973
37.77846162,-0.001731003635,0.009054481052,0.000266308256,2024-06-04 14:18:18.778462
37.81903104,-0.002263620263,0.01358172111,0.002396774245,2024-06-04 14:18:18.819031
37.85950344,-0.00599193573,0.004793548491,0.001597849536,2024-06-04 14:18:18.859503
37.89999214,-0.001198387123,0.0007989247679,0.002663082443,2024-06-04 14:18:18.899992
37.94049,0.005459319334,-0.01225017942,0.0,2024-06-04 14:18:18.940490
37.98097052,0.006524552125,-0.01331541315,0.0007989247679,2024-06-04 14:18:18.980971
38.02143391,-0.000133154128,-0.002396774245,0.002396774245,2024-06-04 14:18:19.021434
38.06194349,-0.004394086078,0.01438064594,-0.001331541222,2024-06-04 14:18:19.061943
38.10242136,-0.001731003635,0.009587096982,0.000266308256,2024-06-04 14:18:19.102421
38.14291021,0.0003994623839,-0.00186415785,0.001065233024,2024-06-04 14:18:19.142910
38.18341115,-0.0006657706108,-0.01011971384,0.002929390874,2024-06-04 14:18:19.183411
38.22389604,0.000932078925,-0.009320789017,0.002929390874,2024-06-04 14:18:19.223896
38.26440578,0.001997311832,-0.001597849536,-0.0005326165119,2024-06-04 14:18:19.264406
38.3048849,0.004926702939,0.0007989247679,-0.001331541222,2024-06-04 14:18:19.304885
38.34536787,0.003062544856,-0.000266308256,0.000266308256,2024-06-04 14:18:19.345368
38.38583125,-0.000932078925,0.005592473317,0.0007989247679,2024-06-04 14:18:19.385831
38.42641625,-0.001997311832,0.005858781748,0.000266308256,2024-06-04 14:18:19.426416
38.46684068,-0.001198387123,-0.0037283157,0.001597849536,2024-06-04 14:18:19.466841
38.50732068,0.003062544856,-0.0037283157,0.0,2024-06-04 14:18:19.507321
38.54781026,0.000932078925,0.0,-0.000266308256,2024-06-04 14:18:19.547810
38.58829995,0.0003994623839,0.003994623665,-0.001597849536,2024-06-04 14:18:19.588300
38.62878958,0.001997311832,-0.004527240526,0.0,2024-06-04 14:18:19.628790
38.66929224,0.001997311832,-0.002929390874,0.000266308256,2024-06-04 14:18:19.669292
38.70980557,0.001997311832,-0.002663082443,0.001597849536,2024-06-04 14:18:19.709806
38.75028386,0.001198387123,0.00186415785,0.0005326165119,2024-06-04 14:18:19.750284
38.79076104,0.0003994623839,-0.00186415785,0.002929390874,2024-06-04 14:18:19.790761
38.83126755,-0.000932078925,-0.001597849536,0.002396774245,2024-06-04 14:18:19.831268
38.87178042,-0.0006657706108,-0.002663082443,0.002130466048,2024-06-04 14:18:19.871780
38.91225734,0.000133154128,-0.0037283157,0.001065233024,2024-06-04 14:18:19.912257
38.95271443,0.0003994623839,-0.000266308256,-0.000266308256,2024-06-04 14:18:19.952714
38.99321313,0.0003994623839,-0.001065233024,0.0005326165119,2024-06-04 14:18:19.993213
39.03372948,0.0003994623839,-0.001065233024,0.0,2024-06-04 14:18:20.033729
39.07419,0.0003994623839,-0.001597849536,0.001597849536,2024-06-04 14:18:20.074190
39.11469026,0.000932078925,-0.00186415785,0.001065233024,2024-06-04 14:18:20.114690
39.15517729,0.000133154128,0.0005326165119,0.001331541222,2024-06-04 14:18:20.155177
39.19567484,0.0006657706108,-0.001597849536,0.001065233024,2024-06-04 14:18:20.195675
39.23619292,-0.000932078925,0.001065233024,0.002663082443,2024-06-04 14:18:20.236193
39.27666005,-0.0006657706108,0.002929390874,0.002130466048,2024-06-04 14:18:20.276660
39.31710089,-0.000133154128,0.001065233024,0.00186415785,2024-06-04 14:18:20.317101
39.35759958,0.001198387123,0.000266308256,0.0005326165119,2024-06-04 14:18:20.357600
39.39809823,0.004127778113,-0.009054481052,0.0005326165119,2024-06-04 14:18:20.398098
39.43860219,0.005193010904,-0.01384802908,0.002130466048,2024-06-04 14:18:20.438602
39.47909641,0.00599193573,-0.02130465955,0.0007989247679,2024-06-04 14:18:20.479096
39.51962162,0.001731003635,-0.0181089621,0.002663082443,2024-06-04 14:18:20.519622
39.56010255,-0.003328853287,-0.01597849466,0.005059856921,2024-06-04 14:18:20.560103
39.60055203,-0.001464695437,-0.003994623665,0.006391398143,2024-06-04 14:18:20.600552
39.64104682,0.002796236658,-0.001065233024,0.001331541222,2024-06-04 14:18:20.641047
39.68154406,0.002529928461,0.003462007269,-0.001597849536,2024-06-04 14:18:20.681544
39.72202896,-0.001464695437,0.003462007269,0.0,2024-06-04 14:18:20.722029
39.76251057,-0.003328853287,0.00186415785,0.001331541222,2024-06-04 14:18:20.762511
39.80300641,-0.003062544856,-0.004527240526,0.002929390874,2024-06-04 14:18:20.803006
39.84351162,-0.002796236658,-0.005326164886,0.002929390874,2024-06-04 14:18:20.843512
39.88398313,-0.0006657706108,-0.002396774245,0.002130466048,2024-06-04 14:18:20.883983
39.92447521,0.003062544856,0.001597849536,-0.002929390874,2024-06-04 14:18:20.924475
39.96496141,0.006258244161,-0.002130466048,-0.006125089712,2024-06-04 14:18:20.964961
40.00548334,0.003062544856,-0.001065233024,-0.005059856921,2024-06-04 14:18:21.005483
40.04599219,-0.000932078925,-0.005326164886,0.0005326165119,2024-06-04 14:18:21.045992
40.08648906,-0.006258244161,-0.002663082443,0.002396774245,2024-06-04 14:18:21.086489
40.12698255,-0.002796236658,-0.001331541222,-0.0005326165119,2024-06-04 14:18:21.126983
40.16747214,0.002796236658,-0.0037283157,-0.002130466048,2024-06-04 14:18:21.167472
40.20791172,0.002796236658,0.004793548491,-0.005059856921,2024-06-04 14:18:21.207912
40.24837604,-0.001731003635,0.009853405878,-0.001331541222,2024-06-04 14:18:21.248376
40.28890078,-0.003861469682,0.01304910425,0.0005326165119,2024-06-04 14:18:21.288901
40.32936984,-0.001997311832,0.005059856921,0.0,2024-06-04 14:18:21.329370
40.36982787,0.001997311832,0.003195699072,-0.002130466048,2024-06-04 14:18:21.369828
40.4103536,0.005193010904,-0.0005326165119,-0.002663082443,2024-06-04 14:18:21.410354
40.45087052,0.002796236658,-0.001331541222,-0.003195699072,2024-06-04 14:18:21.450871
40.49135094,-0.002529928461,0.001065233024,-0.001065233024,2024-06-04 14:18:21.491351
40.53184615,-0.003595161485,0.00186415785,-0.000266308256,2024-06-04 14:18:21.531846
40.57232068,-0.002263620263,0.002130466048,-0.000266308256,2024-06-04 14:18:21.572321
40.61281063,-0.0006657706108,0.002929390874,0.0,2024-06-04 14:18:21.612811
40.65330047,0.003328853287,0.002929390874,0.0007989247679,2024-06-04 14:18:21.653300
40.69378281,0.00599193573,0.001597849536,-0.001331541222,2024-06-04 14:18:21.693783
40.73428375,0.003595161485,0.004793548491,-0.000266308256,2024-06-04 14:18:21.734284
40.77475307,-0.003328853287,0.006657706574,0.000266308256,2024-06-04 14:18:21.774753
40.8152461,-0.004127778113,0.005858781748,0.0005326165119,2024-06-04 14:18:21.815246
40.85576188,0.000932078925,-0.007722939365,0.0,2024-06-04 14:18:21.855762
40.89624104,0.00599193573,-0.005858781748,-0.0037283157,2024-06-04 14:18:21.896241
40.9367275,0.004127778113,0.0,-0.001597849536,2024-06-04 14:18:21.936728
40.9772174,-0.003062544856,0.006924014539,0.001597849536,2024-06-04 14:18:21.977217
41.01770729,-0.007323476952,0.0074566314,0.008255556226,2024-06-04 14:18:22.017707
41.05819714,-0.003328853287,0.0149132628,0.004793548491,2024-06-04 14:18:22.058197
41.09866432,0.006524552125,0.007190322969,0.0,2024-06-04 14:18:22.098664
41.13912958,0.01904104091,-0.005326164886,-0.006924014539,2024-06-04 14:18:22.139130
41.17967886,0.01637795754,-0.02157096937,-0.008521864191,2024-06-04 14:18:22.179679
41.22019417,-0.0003994623839,-0.02396774292,-0.004793548491,2024-06-04 14:18:22.220194
41.26065224,-0.01957365684,-0.002130466048,0.005059856921,2024-06-04 14:18:22.260652
41.30116578,-0.02223674022,0.01331541315,0.008255556226,2024-06-04 14:18:22.301166
41.34161412,-0.003595161485,0.02023942769,0.004527240526,2024-06-04 14:18:22.341614
41.38207625,0.01557903271,0.01251648832,-0.003462007269,2024-06-04 14:18:22.382076
41.4226261,0.01930734888,0.0074566314,-0.008255556226,2024-06-04 14:18:22.422626
41.46309318,0.009187635034,0.001597849536,-0.006125089712,2024-06-04 14:18:22.463093
41.50359901,-0.003328853287,-0.01011971384,-0.0007989247679,2024-06-04 14:18:22.503599
41.54412021,-0.009453942999,-0.01784265228,0.005858781748,2024-06-04 14:18:22.544120
41.58458276,-0.006790860556,-0.0149132628,0.004793548491,2024-06-04 14:18:22.584583
41.62506584,0.001997311832,-0.0007989247679,0.001331541222,2024-06-04 14:18:22.625066
41.66554313,0.00599193573,0.00798924733,-0.0005326165119,2024-06-04 14:18:22.665543
41.70607016,0.005725627299,0.0146469539,-0.0007989247679,2024-06-04 14:18:22.706070
41.74658172,0.001997311832,0.01091863867,-0.0005326165119,2024-06-04 14:18:22.746582
41.7869749,-0.001997311832,0.003195699072,0.001597849536,2024-06-04 14:18:22.786975
41.82746469,-0.000932078925,-0.006391398143,0.002396774245,2024-06-04 14:18:22.827465
41.86796787,0.000133154128,-0.01251648832,0.0005326165119,2024-06-04 14:18:22.867968
41.90847615,0.001464695437,-0.01225017942,-0.001065233024,2024-06-04 14:18:22.908476
41.94897162,-0.001731003635,-0.005326164886,0.0,2024-06-04 14:18:22.948972
41.98946974,-0.003861469682,-0.001331541222,0.002130466048,2024-06-04 14:18:22.989470
42.0299962,0.000133154128,0.004527240526,0.002929390874,2024-06-04 14:18:23.029996
42.07046401,0.002529928461,0.001597849536,0.000266308256,2024-06-04 14:18:23.070464
42.11088266,0.003328853287,-0.0007989247679,0.0007989247679,2024-06-04 14:18:23.110883
42.15139104,-0.0003994623839,-0.002929390874,-0.0005326165119,2024-06-04 14:18:23.151391
42.19192266,-0.004127778113,-0.002663082443,0.00186415785,2024-06-04 14:18:23.191923
42.23241188,-0.002263620263,-0.008255556226,0.0037283157,2024-06-04 14:18:23.232412
42.27288443,-0.000133154128,-0.001331541222,0.002130466048,2024-06-04 14:18:23.272884
42.31338641,0.004926702939,0.002663082443,-0.001331541222,2024-06-04 14:18:23.313386
42.35388484,0.006524552125,0.003195699072,-0.005326164886,2024-06-04 14:18:23.353885
42.39435432,0.0003994623839,0.002396774245,-0.001597849536,2024-06-04 14:18:23.394354
42.43484037,-0.004127778113,0.001065233024,0.002130466048,2024-06-04 14:18:23.434840
42.47534886,-0.003595161485,-0.001597849536,0.003994623665,2024-06-04 14:18:23.475349
42.51587714,0.001997311832,-0.002929390874,-0.00186415785,2024-06-04 14:18:23.515877
42.55637323,0.003328853287,-0.002929390874,-0.0037283157,2024-06-04 14:18:23.556373
42.59683485,0.001731003635,0.001065233024,-0.002663082443,2024-06-04 14:18:23.596835
42.6372638,-0.000932078925,0.0,-0.001331541222,2024-06-04 14:18:23.637264
42.67775745,-0.001731003635,-0.001331541222,0.000266308256,2024-06-04 14:18:23.677757
42.71825474,-0.000133154128,0.001065233024,0.002130466048,2024-06-04 14:18:23.718255
42.75875115,-0.000133154128,0.001065233024,0.001331541222,2024-06-04 14:18:23.758751
42.79925922,0.003861469682,-0.004527240526,-0.0005326165119,2024-06-04 14:18:23.799259
42.83975214,0.003062544856,-0.004260932095,-0.0037283157,2024-06-04 14:18:23.839752
42.88024,-0.000133154128,0.000266308256,-0.002396774245,2024-06-04 14:18:23.880240
42.92073854,-0.001198387123,0.002663082443,-0.002396774245,2024-06-04 14:18:23.920739
42.9612236,-0.0006657706108,0.004527240526,-0.002663082443,2024-06-04 14:18:23.961224
43.0017388,0.002263620263,0.003462007269,-0.004260932095,2024-06-04 14:18:24.001739
43.04221854,0.003861469682,0.005592473317,-0.001597849536,2024-06-04 14:18:24.042219
43.08269938,-0.000932078925,0.004260932095,-0.000266308256,2024-06-04 14:18:24.082699
43.1231911,0.0003994623839,0.004793548491,-0.0007989247679,2024-06-04 14:18:24.123191
43.16367568,0.004660394508,-0.006924014539,-0.006657706574,2024-06-04 14:18:24.163676
43.20416453,0.002796236658,-0.008521864191,-0.008788172156,2024-06-04 14:18:24.204165
43.24466141,-0.004660394508,-0.001597849536,-0.002396774245,2024-06-04 14:18:24.244661
43.28514537,-0.009453942999,0.002396774245,0.002396774245,2024-06-04 14:18:24.285145
43.32561656,-0.001731003635,0.001331541222,0.00186415785,2024-06-04 14:18:24.325617
43.36609703,0.006258244161,0.0005326165119,-0.0005326165119,2024-06-04 14:18:24.366097
43.4066212,0.008122402243,0.003994623665,-0.001331541222,2024-06-04 14:18:24.406621
43.44712865,0.001997311832,0.005059856921,0.001331541222,2024-06-04 14:18:24.447129
43.48761917,-0.003062544856,-0.000266308256,0.001597849536,2024-06-04 14:18:24.487619
43.52805682,-0.005459319334,-0.0114512546,0.0037283157,2024-06-04 14:18:24.528057
43.56854724,-0.004394086078,-0.005858781748,0.002130466048,2024-06-04 14:18:24.568547
43.60907646,0.001464695437,0.000266308256,0.0007989247679,2024-06-04 14:18:24.609076
43.64956693,0.005725627299,-0.00186415785,-0.001065233024,2024-06-04 14:18:24.649567
43.69003302,0.005725627299,0.001331541222,0.001065233024,2024-06-04 14:18:24.690033
43.73051484,0.001731003635,0.002663082443,0.0007989247679,2024-06-04 14:18:24.730515
43.77104724,-0.003062544856,-0.003994623665,0.001597849536,2024-06-04 14:18:24.771047
43.81152766,-0.003062544856,-0.0037283157,0.0005326165119,2024-06-04 14:18:24.811528
43.85199255,-0.001198387123,-0.003195699072,-0.000266308256,2024-06-04 14:18:24.851993
43.89249271,0.003328853287,-0.001331541222,-0.0007989247679,2024-06-04 14:18:24.892493
43.93299474,0.003861469682,0.001331541222,-0.001331541222,2024-06-04 14:18:24.932995
43.97350896,-0.000133154128,0.002396774245,0.002663082443,2024-06-04 14:18:24.973509
44.01397745,-0.001731003635,0.0007989247679,0.004527240526,2024-06-04 14:18:25.013977
44.05446537,0.000932078925,0.002396774245,-0.002663082443,2024-06-04 14:18:25.054465
44.0949261,0.002796236658,-0.0037283157,-0.002663082443,2024-06-04 14:18:25.094926
44.1354163,0.001464695437,-0.002929390874,-0.001065233024,2024-06-04 14:18:25.135416
44.1759924,-0.002263620263,0.001597849536,0.003195699072,2024-06-04 14:18:25.175992
44.21646667,0.0003994623839,-0.005059856921,0.0007989247679,2024-06-04 14:18:25.216467
44.25695682,0.001731003635,-0.009054481052,0.002130466048,2024-06-04 14:18:25.256957
44.29744698,-0.001731003635,-0.0005326165119,-0.0007989247679,2024-06-04 14:18:25.297447
44.3378761,-0.000133154128,0.002929390874,0.0005326165119,2024-06-04 14:18:25.337876
44.3783575,0.000932078925,0.000266308256,0.0005326165119,2024-06-04 14:18:25.378357
44.41887245,0.004394086078,0.004793548491,-0.003462007269,2024-06-04 14:18:25.418872
44.45934281,0.006524552125,-0.003994623665,-0.001597849536,2024-06-04 14:18:25.459343
44.4998399,0.001464695437,-0.006391398143,0.002130466048,2024-06-04 14:18:25.499840
44.54034771,-0.004660394508,-0.005326164886,0.006125089712,2024-06-04 14:18:25.540348
44.58081917,-0.001997311832,-0.007190322969,0.005592473317,2024-06-04 14:18:25.580819
44.62133448,0.004926702939,-0.007722939365,0.0007989247679,2024-06-04 14:18:25.621334
44.66182104,0.008122402243,-0.009320789017,-0.002130466048,2024-06-04 14:18:25.661821
44.70229682,0.005725627299,-0.007722939365,-0.003994623665,2024-06-04 14:18:25.702297
44.74277797,0.002263620263,-0.005059856921,-0.001065233024,2024-06-04 14:18:25.742778
44.78329693,-0.0003994623839,0.0007989247679,-0.002396774245,2024-06-04 14:18:25.783297
44.82377834,-0.003062544856,0.004260932095,-0.002929390874,2024-06-04 14:18:25.823778
44.86426693,-0.003328853287,0.01091863867,-0.001597849536,2024-06-04 14:18:25.864267
44.90473016,-0.003328853287,0.01011971384,-0.001065233024,2024-06-04 14:18:25.904730
44.94530526,-0.001997311832,0.001597849536,0.0,2024-06-04 14:18:25.945305
44.9857688,0.000133154128,-0.005592473317,0.002663082443,2024-06-04 14:18:25.985769
45.02622766,0.001198387123,-0.0074566314,-0.0005326165119,2024-06-04 14:18:26.026228
45.06676771,0.001464695437,0.000266308256,-0.002663082443,2024-06-04 14:18:26.066768
45.10716854,0.0006657706108,-0.003994623665,0.001597849536,2024-06-04 14:18:26.107169
45.14765922,0.002529928461,-0.0005326165119,0.0037283157,2024-06-04 14:18:26.147659
45.18813969,0.004660394508,-0.0005326165119,-0.001331541222,2024-06-04 14:18:26.188140
45.2286499,0.000932078925,0.002929390874,-0.0007989247679,2024-06-04 14:18:26.228650
45.26917156,-0.003062544856,0.002130466048,0.0007989247679,2024-06-04 14:18:26.269172
45.30964729,-0.005459319334,0.0,0.003195699072,2024-06-04 14:18:26.309647
45.35012823,-0.003062544856,-0.002396774245,-0.001065233024,2024-06-04 14:18:26.350128
45.39059927,-0.001997311832,-0.002929390874,0.002396774245,2024-06-04 14:18:26.390599
45.4310986,0.004127778113,0.005326164886,0.0,2024-06-04 14:18:26.431099
45.47158719,0.009453942999,0.001331541222,-0.002396774245,2024-06-04 14:18:26.471587
45.51208162,0.007856093347,-0.003994623665,-0.003994623665,2024-06-04 14:18:26.512082
45.55258047,-0.0006657706108,-0.005059856921,0.0005326165119,2024-06-04 14:18:26.552580
45.59308052,-0.004127778113,-0.001597849536,0.001065233024,2024-06-04 14:18:26.593081
45.63355927,-0.004127778113,-0.001331541222,0.002663082443,2024-06-04 14:18:26.633559
45.67404776,-0.003062544856,0.004527240526,0.002396774245,2024-06-04 14:18:26.674048
45.71453807,0.001997311832,0.003462007269,-0.001597849536,2024-06-04 14:18:26.714538
45.7550399,0.005725627299,-0.002130466048,-0.00186415785,2024-06-04 14:18:26.755040
45.79554063,0.003062544856,-0.002663082443,-0.00186415785,2024-06-04 14:18:26.795541
45.83607281,0.001731003635,-0.003462007269,0.0,2024-06-04 14:18:26.836073
45.87654401,-0.0006657706108,-0.003462007269,0.0005326165119,2024-06-04 14:18:26.876544
45.9170336,-0.0006657706108,0.001331541222,-0.0005326165119,2024-06-04 14:18:26.917034
45.95752328,-0.001997311832,0.004260932095,0.0007989247679,2024-06-04 14:18:26.957523
45.99801542,-0.0003994623839,0.0007989247679,0.001331541222,2024-06-04 14:18:26.998015
46.03849578,0.0006657706108,0.001065233024,0.000266308256,2024-06-04 14:18:27.038496
46.07894927,0.002796236658,-0.001065233024,-0.003994623665,2024-06-04 14:18:27.078949
46.11941063,0.005725627299,-0.00798924733,-0.0037283157,2024-06-04 14:18:27.119411
46.1599274,0.006790860556,-0.000266308256,-0.00798924733,2024-06-04 14:18:27.159927
46.2004425,0.001464695437,0.01038602181,-0.008521864191,2024-06-04 14:18:27.200443
46.24093334,-0.01025286783,0.0181089621,-0.001065233024,2024-06-04 14:18:27.240933
46.28140891,-0.01424749196,0.01571218669,0.004793548491,2024-06-04 14:18:27.281409
46.32194302,-0.007323476952,0.003195699072,0.01038602181,2024-06-04 14:18:27.321943
46.36234932,0.004394086078,0.001331541222,0.004793548491,2024-06-04 14:18:27.362349
46.40285526,0.01797580719,-0.005326164886,0.002929390874,2024-06-04 14:18:27.402855
46.44337156,0.02516612969,-0.01917419396,0.001597849536,2024-06-04 14:18:27.443372
46.48386313,0.01105179265,-0.02663082629,-0.006391398143,2024-06-04 14:18:27.483863
46.52437448,-0.0126496423,0.002130466048,-0.01065232977,2024-06-04 14:18:27.524374
46.56484412,-0.02596505545,0.009054481052,0.0007989247679,2024-06-04 14:18:27.564844
46.60532943,-0.01291595027,0.02556559257,-0.002663082443,2024-06-04 14:18:27.605329
46.6458599,0.001464695437,0.01944050193,-0.003994623665,2024-06-04 14:18:27.645860
46.68636453,0.005725627299,-0.001597849536,0.0,2024-06-04 14:18:27.686365
46.72681,0.00599193573,-0.006125089712,0.002663082443,2024-06-04 14:18:27.726810
46.76727807,0.006524552125,0.002396774245,0.0005326165119,2024-06-04 14:18:27.767278
46.80775688,0.005459319334,0.004527240526,-0.002130466048,2024-06-04 14:18:27.807757
46.84824099,-0.000133154128,-0.0007989247679,-0.0007989247679,2024-06-04 14:18:27.848241
46.88873052,-0.007856093347,-0.000266308256,0.003195699072,2024-06-04 14:18:27.888731
46.9292349,-0.008388710208,-0.00186415785,0.004260932095,2024-06-04 14:18:27.929235
46.96973594,-0.002796236658,-0.006657706574,-0.0005326165119,2024-06-04 14:18:27.969736
47.01020432,0.004660394508,-0.006924014539,0.001597849536,2024-06-04 14:18:28.010204
47.05072276,0.008655018173,0.00186415785,-0.002929390874,2024-06-04 14:18:28.050723
47.09119823,0.007057168987,0.006657706574,-0.003994623665,2024-06-04 14:18:28.091198
47.13168776,0.0006657706108,0.001065233024,-0.0005326165119,2024-06-04 14:18:28.131688
47.17218479,-0.005459319334,0.0,0.003195699072,2024-06-04 14:18:28.172185
47.2126649,-0.008388710208,0.000266308256,0.002929390874,2024-06-04 14:18:28.212665
47.25316063,-0.001464695437,-0.0005326165119,0.002396774245,2024-06-04 14:18:28.253161
47.29371834,0.006258244161,-0.001597849536,-0.0007989247679,2024-06-04 14:18:28.293718
47.33415584,0.007856093347,0.001065233024,-0.007190322969,2024-06-04 14:18:28.334156
47.37463229,0.004926702939,0.003195699072,-0.003462007269,2024-06-04 14:18:28.374632
47.41511292,-0.002263620263,-0.002130466048,0.0005326165119,2024-06-04 14:18:28.415113
47.45560401,-0.005725627299,-0.0005326165119,0.009054481052,2024-06-04 14:18:28.455604
47.49615141,-0.003861469682,-0.003195699072,0.005858781748,2024-06-04 14:18:28.496151
47.53663943,0.002796236658,-0.002396774245,-0.001331541222,2024-06-04 14:18:28.536639
47.57712964,0.005193010904,-0.004527240526,0.0,2024-06-04 14:18:28.577130
47.61761979,-0.0003994623839,-0.002929390874,0.0,2024-06-04 14:18:28.617620
47.65802005,-0.001997311832,-0.005059856921,0.001331541222,2024-06-04 14:18:28.658020
47.6985287,-0.0006657706108,-0.01065232977,0.0,2024-06-04 14:18:28.698529
47.73907281,0.002529928461,-0.006391398143,0.0007989247679,2024-06-04 14:18:28.739073
47.77952927,0.000932078925,0.002396774245,-0.000266308256,2024-06-04 14:18:28.779529
47.82005047,0.0006657706108,0.004527240526,0.000266308256,2024-06-04 14:18:28.820050
47.86050755,0.001198387123,0.004527240526,-0.001597849536,2024-06-04 14:18:28.860508
47.90099438,-0.0003994623839,0.001331541222,-0.000266308256,2024-06-04 14:18:28.900994
47.94152188,-0.002263620263,-0.001597849536,0.001597849536,2024-06-04 14:18:28.941522
47.98197443,-0.001198387123,-0.0005326165119,0.001065233024,2024-06-04 14:18:28.981974
48.02251151,0.002529928461,-0.005858781748,0.0005326165119,2024-06-04 14:18:29.022512
48.06295865,0.003595161485,-0.003195699072,-0.002663082443,2024-06-04 14:18:29.062959
48.10348729,0.001198387123,0.0007989247679,-0.001065233024,2024-06-04 14:18:29.103487
48.14397662,-0.002796236658,0.0,0.002663082443,2024-06-04 14:18:29.143977
48.18443412,-0.003328853287,-0.001065233024,0.00186415785,2024-06-04 14:18:29.184434
48.22493005,-0.001198387123,0.002929390874,-0.002130466048,2024-06-04 14:18:29.224930
48.26542755,0.001464695437,0.006924014539,-0.002929390874,2024-06-04 14:18:29.265428
48.30590604,0.003595161485,0.002929390874,-0.002663082443,2024-06-04 14:18:29.305906
48.34644344,0.003062544856,-0.0007989247679,-0.001331541222,2024-06-04 14:18:29.346443
48.38686334,0.0006657706108,-0.0117175635,-0.002663082443,2024-06-04 14:18:29.386863
48.42740063,0.003328853287,-0.01225017942,-0.005592473317,2024-06-04 14:18:29.427401
48.46782537,0.004660394508,-0.01944050193,-0.005592473317,2024-06-04 14:18:29.467825
48.50831464,0.005193010904,-0.01704372838,-0.003462007269,2024-06-04 14:18:29.508315
48.54882698,0.004660394508,0.002130466048,-0.002929390874,2024-06-04 14:18:29.548827
48.5893324,0.003861469682,0.01331541315,-0.004260932095,2024-06-04 14:18:29.589332
48.62981641,-0.003595161485,0.01544587873,-0.003195699072,2024-06-04 14:18:29.629816
48.67031235,-0.01078548469,0.01198387146,-0.0007989247679,2024-06-04 14:18:29.670312
48.71081844,-0.01344856713,0.000266308256,0.001065233024,2024-06-04 14:18:29.710818
48.75131761,-0.01078548469,-0.007190322969,0.00186415785,2024-06-04 14:18:29.751318
48.79180458,-0.006524552125,-0.01331541315,0.002396774245,2024-06-04 14:18:29.791805
48.83228005,0.003595161485,-0.002929390874,-0.001331541222,2024-06-04 14:18:29.832280
48.87276823,0.01611164957,0.005592473317,-0.007190322969,2024-06-04 14:18:29.872768
48.91325641,0.01983996481,0.006125089712,-0.006657706574,2024-06-04 14:18:29.913256
48.9537624,0.008921326138,0.01225017942,-0.005326164886,2024-06-04 14:18:29.953762
48.99425844,-0.004926702939,0.01624480449,-0.0037283157,2024-06-04 14:18:29.994258
49.03472823,-0.01557903271,0.0037283157,0.005059856921,2024-06-04 14:18:30.034728
49.07521651,-0.01770949923,-0.003195699072,0.006924014539,2024-06-04 14:18:30.075217
49.11570964,-0.007856093347,-0.007722939365,0.00186415785,2024-06-04 14:18:30.115710
49.15621672,0.01211702544,-0.01038602181,-0.004793548491,2024-06-04 14:18:30.156217
49.1967175,0.01877473295,-0.00186415785,-0.005858781748,2024-06-04 14:18:30.196717
49.23718438,0.005193010904,0.01251648832,-0.0007989247679,2024-06-04 14:18:30.237184
49.27770208,-0.001464695437,0.01038602181,0.003462007269,2024-06-04 14:18:30.277702
49.3181488,0.001464695437,-0.003195699072,0.00186415785,2024-06-04 14:18:30.318149
49.35867198,0.0006657706108,-0.01011971384,-0.001065233024,2024-06-04 14:18:30.358672
49.39915745,-0.002263620263,-0.008521864191,0.000266308256,2024-06-04 14:18:30.399157
49.43963922,-0.004660394508,0.000266308256,0.00186415785,2024-06-04 14:18:30.439639
49.4801275,0.000133154128,0.002396774245,0.0007989247679,2024-06-04 14:18:30.480128
49.52061672,0.007856093347,-0.001331541222,0.0,2024-06-04 14:18:30.520617
49.56110584,0.00998655986,-0.00186415785,-0.001331541222,2024-06-04 14:18:30.561106
49.60159005,0.004926702939,0.00186415785,-0.00186415785,2024-06-04 14:18:30.601590
49.6420925,-0.0006657706108,-0.004260932095,-0.000266308256,2024-06-04 14:18:30.642092
49.68257646,-0.004127778113,-0.01118494663,0.002396774245,2024-06-04 14:18:30.682576
49.72305297,-0.002796236658,-0.00798924733,0.001065233024,2024-06-04 14:18:30.723053
49.76354386,-0.000133154128,-0.002929390874,-0.000266308256,2024-06-04 14:18:30.763544
49.8040424,0.004127778113,0.001597849536,-0.001065233024,2024-06-04 14:18:30.804042
49.84453828,0.005459319334,0.002663082443,-0.00186415785,2024-06-04 14:18:30.844538
49.8850176,0.001997311832,0.001597849536,-0.002396774245,2024-06-04 14:18:30.885018
49.92551693,-0.000932078925,-0.0005326165119,-0.0007989247679,2024-06-04 14:18:30.925517
49.96601667,-0.002263620263,-0.005059856921,0.002396774245,2024-06-04 14:18:30.966017
50.00652615,-0.000932078925,-0.001331541222,-0.000266308256,2024-06-04 14:18:31.006526
50.04701849,0.0003994623839,0.001331541222,0.0007989247679,2024-06-04 14:18:31.047018
50.08749005,0.0003994623839,0.003462007269,-0.001597849536,2024-06-04 14:18:31.087490
50.12797255,0.002796236658,-0.002663082443,-0.00186415785,2024-06-04 14:18:31.127973
50.16846234,0.000932078925,-0.001065233024,-0.001331541222,2024-06-04 14:18:31.168462
50.20892511,0.0006657706108,0.001331541222,0.001065233024,2024-06-04 14:18:31.208925
50.24945063,-0.000932078925,-0.001331541222,0.00186415785,2024-06-04 14:18:31.249451
50.2899287,-0.001464695437,0.000266308256,0.000266308256,2024-06-04 14:18:31.289929
50.33041443,-0.000133154128,-0.0007989247679,-0.001331541222,2024-06-04 14:18:31.330414
50.37086396,0.001464695437,-0.003195699072,-0.000266308256,2024-06-04 14:18:31.370864
50.41139563,-0.000133154128,-0.003195699072,0.001331541222,2024-06-04 14:18:31.411396
50.45187839,-0.0006657706108,0.002663082443,0.0005326165119,2024-06-04 14:18:31.451878
50.49236542,-0.000932078925,0.001065233024,-0.0005326165119,2024-06-04 14:18:31.492365
50.53290271,0.0006657706108,-0.001331541222,-0.0005326165119,2024-06-04 14:18:31.532903
50.57334703,0.0006657706108,-0.005326164886,0.0007989247679,2024-06-04 14:18:31.573347
50.61383974,-0.001464695437,-0.003994623665,0.0007989247679,2024-06-04 14:18:31.613840
50.65433844,-0.000932078925,0.002130466048,-0.000266308256,2024-06-04 14:18:31.654338
50.69481406,0.001464695437,0.001331541222,-0.001331541222,2024-06-04 14:18:31.694814
50.73530719,0.003861469682,-0.0005326165119,-0.000266308256,2024-06-04 14:18:31.735307
50.7758524,0.003062544856,0.000266308256,0.001065233024,2024-06-04 14:18:31.775852
50.81632485,-0.001731003635,0.006391398143,0.0007989247679,2024-06-04 14:18:31.816325
50.85678057,-0.003595161485,0.01091863867,0.001597849536,2024-06-04 14:18:31.856781
50.89727464,-0.001464695437,0.01278279629,-0.002396774245,2024-06-04 14:18:31.897275
50.93773599,0.003861469682,-0.006657706574,-0.0007989247679,2024-06-04 14:18:31.937736
50.97824203,0.005459319334,-0.01517957076,0.002130466048,2024-06-04 14:18:31.978242
51.01872828,0.002263620263,-0.005858781748,-0.000266308256,2024-06-04 14:18:32.018728
51.05924141,0.000133154128,-0.0007989247679,-0.0007989247679,2024-06-04 14:18:32.059241
51.09973047,-0.002529928461,0.00186415785,0.002396774245,2024-06-04 14:18:32.099730
51.14017297,-0.002796236658,0.002929390874,0.003195699072,2024-06-04 14:18:32.140173
51.18069714,0.002263620263,0.002929390874,0.004260932095,2024-06-04 14:18:32.180697
51.22120094,0.005459319334,-0.003195699072,0.002663082443,2024-06-04 14:18:32.221201
51.26170537,0.006258244161,-0.0005326165119,-0.00186415785,2024-06-04 14:18:32.261705
51.30219005,0.001464695437,-0.006391398143,-0.002929390874,2024-06-04 14:18:32.302190
51.3426699,-0.004127778113,-0.004260932095,0.000266308256,2024-06-04 14:18:32.342670
51.38314906,-0.006258244161,-0.004260932095,0.00186415785,2024-06-04 14:18:32.383149
51.42363604,-0.001997311832,-0.0037283157,0.0007989247679,2024-06-04 14:18:32.423636
51.46416896,0.005459319334,-0.000266308256,-0.002396774245,2024-06-04 14:18:32.464169
51.50467667,0.005193010904,0.003994623665,-0.0007989247679,2024-06-04 14:18:32.504677
51.5451687,0.001464695437,0.01091863867,-0.001065233024,2024-06-04 14:18:32.545169
51.58560964,0.0003994623839,-0.0007989247679,-0.001331541222,2024-06-04 14:18:32.585610
51.62609573,-0.001997311832,-0.004527240526,0.0007989247679,2024-06-04 14:18:32.626096
51.66663844,-0.001997311832,-0.008788172156,0.00186415785,2024-06-04 14:18:32.666638
51.70708245,-0.002263620263,0.000266308256,0.000266308256,2024-06-04 14:18:32.707082
51.74755719,0.001464695437,0.001597849536,-0.001065233024,2024-06-04 14:18:32.747557
51.78809604,0.002796236658,0.004527240526,-0.000266308256,2024-06-04 14:18:32.788096
51.82859084,0.001997311832,-0.0007989247679,0.000266308256,2024-06-04 14:18:32.828591
51.86901354,-0.002796236658,-0.003195699072,-0.002396774245,2024-06-04 14:18:32.869014
51.90950417,-0.008122402243,0.0,-0.004527240526,2024-06-04 14:18:32.909504
51.94999485,-0.02995967865,0.02476666868,-0.03009283356,2024-06-04 14:18:32.949995
51.9904988,-0.02969337068,0.03568530455,-0.0221035853,2024-06-04 14:18:32.990499
52.03098198,-0.004660394508,-0.04633763805,-0.01384802908,2024-06-04 14:18:33.030982
52.07147703,0.009187635034,-0.05619104207,-0.003994623665,2024-06-04 14:18:33.071477
52.1119711,-0.01531272475,-0.01384802908,0.006924014539,2024-06-04 14:18:33.111971
52.15246969,-0.03209014609,0.02742975019,0.008255556226,2024-06-04 14:18:33.152470
52.1929863,-0.00998655986,0.02876129188,0.002663082443,2024-06-04 14:18:33.192986
52.23346224,0.01584534161,-0.006391398143,-0.004527240526,2024-06-04 14:18:33.233462
52.27393151,0.0243672058,-0.01571218669,-0.004260932095,2024-06-04 14:18:33.273932
52.31442901,0.01770949923,-0.003195699072,-0.002396774245,2024-06-04 14:18:33.314429
52.35490703,0.01131810062,0.008521864191,-0.003195699072,2024-06-04 14:18:33.354907
52.39540276,0.005459319334,0.00186415785,-0.002929390874,2024-06-04 14:18:33.395403
52.43590828,-0.002796236658,-0.001597849536,0.00186415785,2024-06-04 14:18:33.435908
52.47639203,-0.008122402243,0.00798924733,-0.001065233024,2024-06-04 14:18:33.476392
52.51687078,-0.005193010904,-0.001065233024,0.001065233024,2024-06-04 14:18:33.516871
52.55738078,-0.001997311832,-0.005326164886,-0.0005326165119,2024-06-04 14:18:33.557381
52.59786891,0.000932078925,-0.003195699072,0.0,2024-06-04 14:18:33.597869
52.63838901,0.001997311832,0.004260932095,-0.00186415785,2024-06-04 14:18:33.638389
52.67884078,0.006258244161,0.006391398143,-0.001331541222,2024-06-04 14:18:33.678841
52.71930729,0.007589785382,0.001597849536,-0.005326164886,2024-06-04 14:18:33.719307
52.75984276,0.00599193573,0.003462007269,-0.002929390874,2024-06-04 14:18:33.759843
52.80027479,0.001731003635,-0.000266308256,-0.00798924733,2024-06-04 14:18:33.800275
52.84079391,-0.002263620263,-0.009054481052,-0.008521864191,2024-06-04 14:18:33.840794
52.88128099,-0.002796236658,-0.01091863867,-0.002130466048,2024-06-04 14:18:33.881281
52.92175349,-0.004394086078,-0.006391398143,0.006125089712,2024-06-04 14:18:33.921753
52.96226386,-0.004394086078,0.01038602181,0.005326164886,2024-06-04 14:18:33.962264
53.00278432,0.000932078925,0.00798924733,0.003195699072,2024-06-04 14:18:34.002784
53.04325734,0.006790860556,0.007722939365,0.001065233024,2024-06-04 14:18:34.043257
53.08375,0.009187635034,0.002130466048,0.001065233024,2024-06-04 14:18:34.083750
53.12424698,0.006790860556,-0.004260932095,0.003994623665,2024-06-04 14:18:34.124247
53.16471625,0.001464695437,-0.001331541222,0.001597849536,2024-06-04 14:18:34.164716
53.20519917,-0.001464695437,-0.003994623665,0.001065233024,2024-06-04 14:18:34.205199
53.2456936,-0.0003994623839,-0.006391398143,-0.001331541222,2024-06-04 14:18:34.245694
53.28618724,-0.002263620263,-0.008788172156,0.00186415785,2024-06-04 14:18:34.286187
53.32667844,-0.001731003635,-0.0074566314,0.0007989247679,2024-06-04 14:18:34.326678
53.36716735,0.002529928461,-0.002130466048,0.001065233024,2024-06-04 14:18:34.367167
53.40767188,0.003062544856,-0.001065233024,-0.0007989247679,2024-06-04 14:18:34.407672
53.44816787,0.0006657706108,0.005592473317,0.000266308256,2024-06-04 14:18:34.448168
53.48867557,-0.000932078925,0.006924014539,-0.0007989247679,2024-06-04 14:18:34.488676
53.52912016,-0.000932078925,0.002130466048,-0.001065233024,2024-06-04 14:18:34.529120
53.5696199,0.000133154128,-0.003195699072,0.001065233024,2024-06-04 14:18:34.569620
53.6100961,-0.0006657706108,-0.005059856921,0.001065233024,2024-06-04 14:18:34.610096
53.65059391,0.0006657706108,-0.002396774245,0.0,2024-06-04 14:18:34.650594
53.69108667,0.001997311832,-0.004260932095,-0.001065233024,2024-06-04 14:18:34.691087
53.73156912,0.0003994623839,0.000266308256,-0.0005326165119,2024-06-04 14:18:34.731569
53.77205344,-0.000932078925,-0.002130466048,0.0007989247679,2024-06-04 14:18:34.772053
53.81254573,0.000932078925,-0.0005326165119,0.00186415785,2024-06-04 14:18:34.812546
53.8530325,0.001997311832,-0.00186415785,-0.000266308256,2024-06-04 14:18:34.853032
53.89352037,0.002263620263,0.0,0.0005326165119,2024-06-04 14:18:34.893520
53.93406708,0.002263620263,-0.005592473317,0.000266308256,2024-06-04 14:18:34.934067
53.97453922,-0.0006657706108,-0.00186415785,0.002663082443,2024-06-04 14:18:34.974539
54.01506682,-0.001731003635,0.004260932095,0.000266308256,2024-06-04 14:18:35.015067
54.05550412,0.0003994623839,-0.003462007269,-0.001065233024,2024-06-04 14:18:35.055504
54.0959976,0.004127778113,-0.004527240526,0.001331541222,2024-06-04 14:18:35.095998
54.13648651,-0.0003994623839,0.0005326165119,0.0007989247679,2024-06-04 14:18:35.136487
54.17697818,-0.001997311832,0.0,-0.000266308256,2024-06-04 14:18:35.176978
54.21744745,0.001198387123,-0.001065233024,0.003994623665,2024-06-04 14:18:35.217447
54.25791904,0.0006657706108,-0.001331541222,0.004260932095,2024-06-04 14:18:35.257919
54.29847701,0.000133154128,0.003462007269,0.001597849536,2024-06-04 14:18:35.298477
54.33891409,0.002263620263,-0.003462007269,-0.002663082443,2024-06-04 14:18:35.338914
54.37941363,0.004127778113,-0.01384802908,0.00186415785,2024-06-04 14:18:35.379414
54.41990456,-0.001198387123,-0.002663082443,0.001331541222,2024-06-04 14:18:35.419905
54.46039342,-0.004394086078,-0.002130466048,0.004260932095,2024-06-04 14:18:35.460393
54.50087274,0.004127778113,-0.01198387146,0.005592473317,2024-06-04 14:18:35.500873
54.54136738,0.01424749196,-0.01864157803,0.0,2024-06-04 14:18:35.541367
54.58186644,0.01557903271,-0.02183727734,0.000266308256,2024-06-04 14:18:35.581866
54.62234795,0.00599193573,-0.0221035853,-0.004260932095,2024-06-04 14:18:35.622348
54.66286607,-0.004926702939,-0.008255556226,0.0037283157,2024-06-04 14:18:35.662866
54.70332925,-0.007856093347,-0.02396774292,-0.003462007269,2024-06-04 14:18:35.703329
54.74381993,-0.004926702939,-0.02583190054,-0.005592473317,2024-06-04 14:18:35.743820
54.7843367,-0.003861469682,-0.01331541315,-0.009320789017,2024-06-04 14:18:35.784337
54.82479894,-0.001731003635,-0.000266308256,-0.007190322969,2024-06-04 14:18:35.824799
54.86528962,0.00599193573,0.01278279629,-0.003462007269,2024-06-04 14:18:35.865290
54.90577842,0.007589785382,0.01198387146,0.003994623665,2024-06-04 14:18:35.905778
54.94628847,0.000932078925,0.02476666868,0.003994623665,2024-06-04 14:18:35.946288
54.98673847,-0.001997311832,0.01411433797,-0.003462007269,2024-06-04 14:18:35.986738
55.02730623,-0.002263620263,0.0037283157,-0.01225017942,2024-06-04 14:18:36.027306
55.0677493,-0.008655018173,-0.006125089712,-0.01198387146,2024-06-04 14:18:36.067749
55.10827659,-0.01051917579,0.005059856921,-0.01278279629,2024-06-04 14:18:36.108277
55.14870279,0.000932078925,0.02796236612,-0.009587096982,2024-06-04 14:18:36.148703
55.18924633,0.01318225823,0.03062544949,-0.008255556226,2024-06-04 14:18:36.189246
55.22969003,0.01611164957,0.02423405088,-0.002663082443,2024-06-04 14:18:36.229690
55.27018748,0.01131810062,0.01704372838,-0.000266308256,2024-06-04 14:18:36.270187
55.31068238,0.0003994623839,-0.0005326165119,0.0007989247679,2024-06-04 14:18:36.310682
55.35118342,-0.009187635034,-0.008255556226,0.003994623665,2024-06-04 14:18:36.351183
55.39167774,-0.01211702544,-0.01304910425,0.006657706574,2024-06-04 14:18:36.391678
55.43216779,-0.003861469682,-0.007722939365,0.002396774245,2024-06-04 14:18:36.432168
55.47264498,0.004926702939,-0.001331541222,-0.001597849536,2024-06-04 14:18:36.472645
55.51316534,0.008122402243,0.00798924733,-0.003994623665,2024-06-04 14:18:36.513165
55.55366524,0.007589785382,0.006125089712,0.001065233024,2024-06-04 14:18:36.553665
55.59410873,0.001464695437,0.0007989247679,0.003994623665,2024-06-04 14:18:36.594109
55.63460399,-0.003328853287,0.005592473317,0.003462007269,2024-06-04 14:18:36.634604
55.67510659,-0.001464695437,0.0005326165119,0.0007989247679,2024-06-04 14:18:36.675107
55.71557321,0.001997311832,-0.007190322969,0.001597849536,2024-06-04 14:18:36.715573
55.7560767,0.001731003635,-0.008521864191,0.001065233024,2024-06-04 14:18:36.756077
55.796583,0.003861469682,-0.01544587873,0.005592473317,2024-06-04 14:18:36.796583
55.83707003,0.01051917579,-0.01251648832,0.003195699072,2024-06-04 14:18:36.837070
55.87755639,0.01637795754,-0.005059856921,0.002130466048,2024-06-04 14:18:36.877556
55.91804826,0.01025286783,-0.001065233024,-0.001065233024,2024-06-04 14:18:36.918048
55.95857488,-0.001731003635,0.005059856921,0.001065233024,2024-06-04 14:18:36.958575
55.99905696,-0.01131810062,0.002130466048,0.005326164886,2024-06-04 14:18:36.999057
56.03953993,-0.01078548469,-0.008255556226,0.002929390874,2024-06-04 14:18:37.039540
56.0799729,-0.001198387123,-0.008255556226,-0.001331541222,2024-06-04 14:18:37.079973
56.12046248,0.002796236658,-0.01011971384,-0.0007989247679,2024-06-04 14:18:37.120462
56.16095852,0.003595161485,-0.003994623665,-0.001597849536,2024-06-04 14:18:37.160959
56.20147055,0.001464695437,-0.0037283157,0.0007989247679,2024-06-04 14:18:37.201471
56.24196435,-0.001464695437,-0.006391398143,0.002929390874,2024-06-04 14:18:37.241964
56.28245852,-0.000932078925,-0.006924014539,0.004527240526,2024-06-04 14:18:37.282459
56.322933,-0.0003994623839,-0.0114512546,0.007190322969,2024-06-04 14:18:37.322933
56.36341144,0.002263620263,-0.005059856921,0.009054481052,2024-06-04 14:18:37.363411
56.403918,0.008921326138,0.001331541222,0.008521864191,2024-06-04 14:18:37.403918
56.44440232,0.00998655986,0.01065232977,-0.001597849536,2024-06-04 14:18:37.444402
56.48488201,0.003861469682,0.01304910425,0.0007989247679,2024-06-04 14:18:37.484882
56.52541545,-0.003328853287,0.003994623665,0.000266308256,2024-06-04 14:18:37.525415
56.56588196,-0.002796236658,0.00798924733,-0.003994623665,2024-06-04 14:18:37.565882
56.60634842,-0.00599193573,-0.0007989247679,-0.002396774245,2024-06-04 14:18:37.606348
56.64686217,-0.007589785382,-0.0037283157,0.002396774245,2024-06-04 14:18:37.646862
56.68734055,-0.004926702939,-0.003994623665,0.005858781748,2024-06-04 14:18:37.687341
56.72784139,0.005193010904,-0.002396774245,-0.002130466048,2024-06-04 14:18:37.727841
56.76835144,0.01078548469,-0.004793548491,-0.004260932095,2024-06-04 14:18:37.768351
56.80881133,0.00599193573,0.0005326165119,-0.00186415785,2024-06-04 14:18:37.808811
56.84933529,-0.003328853287,0.003195699072,0.001331541222,2024-06-04 14:18:37.849335
56.88985092,-0.005193010904,-0.0005326165119,0.000266308256,2024-06-04 14:18:37.889851
56.93034097,-0.000932078925,-0.006657706574,-0.0007989247679,2024-06-04 14:18:37.930341
56.97079206,0.000932078925,-0.004260932095,-0.006924014539,2024-06-04 14:18:37.970792
57.01125659,0.004394086078,0.02023942769,-0.01677742042,2024-06-04 14:18:38.011257
57.05177784,0.003595161485,0.008521864191,-0.006924014539,2024-06-04 14:18:38.051778
57.09223883,0.000932078925,-0.003195699072,-0.0005326165119,2024-06-04 14:18:38.092239
57.13272889,-0.005193010904,-0.008521864191,0.002929390874,2024-06-04 14:18:38.132729
57.17324248,-0.002796236658,-0.0037283157,0.001065233024,2024-06-04 14:18:38.173242
57.21372571,0.002529928461,-0.001597849536,0.000266308256,2024-06-04 14:18:38.213726
57.25418988,0.002796236658,0.0007989247679,0.00186415785,2024-06-04 14:18:38.254190
57.29469962,0.000133154128,0.004260932095,0.002663082443,2024-06-04 14:18:38.294700
57.33520685,0.001198387123,-0.001597849536,0.002396774245,2024-06-04 14:18:38.335207
57.37566102,0.001731003635,-0.007722939365,0.001597849536,2024-06-04 14:18:38.375661
57.41618024,-0.000932078925,-0.006391398143,0.002130466048,2024-06-04 14:18:38.416180
57.45667373,-0.001731003635,0.001065233024,-0.0005326165119,2024-06-04 14:18:38.456674
57.4971967,0.0006657706108,-0.00186415785,0.0007989247679,2024-06-04 14:18:38.497197
57.53766227,0.000932078925,0.002396774245,-0.002663082443,2024-06-04 14:18:38.537662
57.57815748,0.0003994623839,0.00186415785,0.0,2024-06-04 14:18:38.578157
57.61866165,0.0003994623839,-0.000266308256,0.001065233024,2024-06-04 14:18:38.618662
57.65906935,0.003328853287,0.0007989247679,0.0007989247679,2024-06-04 14:18:38.659069
57.69960415,0.000932078925,0.001065233024,-0.0005326165119,2024-06-04 14:18:38.699604
57.74005639,-0.0003994623839,-0.004260932095,0.0007989247679,2024-06-04 14:18:38.740056
57.78054607,0.000932078925,-0.003994623665,0.0005326165119,2024-06-04 14:18:38.780546
57.82107514,0.000133154128,-0.002929390874,0.002396774245,2024-06-04 14:18:38.821075
57.86154654,-0.000133154128,-0.00186415785,0.0,2024-06-04 14:18:38.861547
57.90202644,0.001464695437,0.0007989247679,-0.0007989247679,2024-06-04 14:18:38.902026
57.94252717,0.000932078925,0.0007989247679,-0.002130466048,2024-06-04 14:18:38.942527
57.98301383,0.002796236658,-0.00186415785,-0.0007989247679,2024-06-04 14:18:38.983014
58.02355967,0.000932078925,-0.004260932095,0.002396774245,2024-06-04 14:18:39.023560
58.0640217,-0.001731003635,-0.002663082443,0.003462007269,2024-06-04 14:18:39.064022
58.10449279,-0.001198387123,0.002130466048,0.004793548491,2024-06-04 14:18:39.104493
58.14498258,0.001198387123,-0.0007989247679,0.0005326165119,2024-06-04 14:18:39.144983
58.18549769,0.001731003635,-0.0005326165119,0.0,2024-06-04 14:18:39.185498
58.22597805,-0.000133154128,-0.006391398143,0.002130466048,2024-06-04 14:18:39.225978
58.26646014,-0.001731003635,-0.0037283157,0.004793548491,2024-06-04 14:18:39.266460
58.30694498,-0.0003994623839,-0.002130466048,0.001065233024,2024-06-04 14:18:39.306945
58.34745399,0.002529928461,-0.003195699072,0.000266308256,2024-06-04 14:18:39.347454
58.38794399,0.001198387123,-0.001065233024,-0.001065233024,2024-06-04 14:18:39.387944
58.42845222,-0.001198387123,0.0007989247679,0.0,2024-06-04 14:18:39.428452
58.46893321,-0.0006657706108,0.00186415785,0.0,2024-06-04 14:18:39.468933
58.5094417,0.001198387123,0.002396774245,-0.002663082443,2024-06-04 14:18:39.509442
