Time (s),Linear Acceleration x (m/s^2),Linear Acceleration y (m/s^2),Linear Acceleration z (m/s^2),Datetime
0.047696355,0.0,0.0,0.0,2024-06-04 14:17:41.047696
0.088183751,0.2081842422,0.07846832275,-0.6815476418,2024-06-04 14:17:41.088184
0.128707762,-0.8027074337,0.2763195038,-0.7917914391,2024-06-04 14:17:41.128708
0.169194272,0.7831609249,-0.2767801285,0.09650802612,2024-06-04 14:17:41.169194
0.244686616,1.290793896,-0.1025724411,-0.3272213936,2024-06-04 14:17:41.244687
0.28519396,0.4966807365,0.2531499863,-1.144569874,2024-06-04 14:17:41.285194
0.32572948,-1.795770407,-2.196751356,3.049199104,2024-06-04 14:17:41.325729
0.36622448,-1.861114144,-0.1324219704,3.221095562,2024-06-04 14:17:41.366224
0.406678126,-1.855127811,0.2933588028,1.737685204,2024-06-04 14:17:41.406678
0.447112449,-0.3682265878,0.06296348572,-0.7015218735,2024-06-04 14:17:41.447112
0.487669949,0.2548854351,-1.755492449,-1.70956707,2024-06-04 14:17:41.487670
0.528124272,0.9934374094,-0.446808815,0.7636060715,2024-06-04 14:17:41.528124
0.568603803,0.8214623928,1.194082737,0.8459005356,2024-06-04 14:17:41.568604
0.609094793,-0.9873758554,0.5278892517,0.1722602844,2024-06-04 14:17:41.609095
0.64961573,-0.3721606731,0.2124757767,-0.2048330307,2024-06-04 14:17:41.649616
0.690073803,-0.07469844818,0.07454824448,-0.451731205,2024-06-04 14:17:41.690074
0.730570366,-1.040425301,-0.1108007431,-0.2853293419,2024-06-04 14:17:41.730570
0.771091408,0.826317668,-0.05343723297,0.1342697144,2024-06-04 14:17:41.771091
0.811577814,0.9604296684,0.7913632393,0.8061122894,2024-06-04 14:17:41.811578
0.852032137,-1.795158863,-0.2650856972,0.5213103294,2024-06-04 14:17:41.852032
0.892542241,-0.2823857069,-0.340616703,0.05106639862,2024-06-04 14:17:41.892542
0.93309172,1.231427431,-0.6719088554,-1.824822426,2024-06-04 14:17:41.933092
0.973581303,1.518751383,-0.5256795883,-2.012051105,2024-06-04 14:17:41.973581
1.014021772,1.409521341,-0.5569787025,1.680922031,2024-06-04 14:17:42.014022
1.054477137,0.731041193,-0.7858829498,-1.616554737,2024-06-04 14:17:42.054477
1.094989168,-0.5457017422,0.5580306053,1.629610538,2024-06-04 14:17:42.094989
1.135481564,-0.9062294364,0.8271212578,3.073565483,2024-06-04 14:17:42.135482
1.176032137,-0.2133024633,-0.1457595825,1.089899063,2024-06-04 14:17:42.176032
1.216512553,0.1994625032,-0.201426506,-0.8821525574,2024-06-04 14:17:42.216513
1.257018543,-0.531575799,-0.5570263863,0.02515125275,2024-06-04 14:17:42.257019
1.297437397,-0.7148836851,-0.6765599251,0.8343410492,2024-06-04 14:17:42.297437
1.337897397,-1.056895256,-0.1317119598,0.9071784019,2024-06-04 14:17:42.337897
1.378468074,0.1567018032,2.15698719,0.5977406502,2024-06-04 14:17:42.378468
1.418876928,-1.422726274,-0.5615620613,1.420029163,2024-06-04 14:17:42.418877
1.459358126,-0.7756665945,-0.3463134766,-1.047920704,2024-06-04 14:17:42.459358
1.49986646,1.037424564,-1.049705982,-0.8680109978,2024-06-04 14:17:42.499866
1.540350001,0.9805276394,-1.830658436,1.438776016,2024-06-04 14:17:42.540350
1.580859897,0.6470150948,-1.66646862,1.826746464,2024-06-04 14:17:42.580860
1.62133547,0.1205412149,-2.233508587,1.995043755,2024-06-04 14:17:42.621335
1.661896303,1.299990892,-1.560281754,-0.001989364624,2024-06-04 14:17:42.661896
1.70227797,0.01365709305,-0.2357320786,-1.309607983,2024-06-04 14:17:42.702278
1.74279646,1.860677958,-0.1735873222,-1.266870499,2024-06-04 14:17:42.742796
1.783300887,0.631783247,-1.343141556,0.5723471642,2024-06-04 14:17:42.783301
1.823856043,0.2637150288,-2.044028759,0.2935996056,2024-06-04 14:17:42.823856
1.864335158,2.792933941,-1.817731857,-0.9590754509,2024-06-04 14:17:42.864335
1.904821199,2.18885994,-1.772928715,-2.227232456,2024-06-04 14:17:42.904821
1.945257033,2.163179874,-0.7140610218,-4.842760086,2024-06-04 14:17:42.945257
1.985789637,0.9779560566,-0.0762181282,-4.63527298,2024-06-04 14:17:42.985790
2.026247033,1.167133331,0.6183154583,-1.944262981,2024-06-04 14:17:43.026247
2.066705522,-0.6646049023,1.355715513,-0.5645446777,2024-06-04 14:17:43.066706
2.107163595,-2.149784565,1.667997122,-1.651055336,2024-06-04 14:17:43.107164
2.147690574,-4.18956852,1.66821897,-2.370296001,2024-06-04 14:17:43.147691
2.188173387,-6.451913357,2.212267399,-4.414949417,2024-06-04 14:17:43.188173
2.228672762,-2.998187065,1.755081654,4.872150898,2024-06-04 14:17:43.228673
2.269180574,-6.976246357,1.074494839,-1.839324474,2024-06-04 14:17:43.269181
2.309705314,-4.894603252,0.7847901583,4.37867403,2024-06-04 14:17:43.309705
2.350175783,0.5859255791,1.098945737,5.073979855,2024-06-04 14:17:43.350176
2.390680574,-0.7505960464,2.457146406,1.861846924,2024-06-04 14:17:43.390681
2.431126824,-2.380299091,1.478489518,2.517090797,2024-06-04 14:17:43.431127
2.471598543,0.4250531197,-1.888494015,-5.760202408,2024-06-04 14:17:43.471599
2.512113178,5.301034927,4.232914925,15.11898041,2024-06-04 14:17:43.512113
2.55265047,1.71629858,1.230859756,-1.958515644,2024-06-04 14:17:43.552650
2.593125626,0.4566435814,3.318989754,1.137669086,2024-06-04 14:17:43.593126
2.633574949,-3.246459007,0.2444672585,2.387678146,2024-06-04 14:17:43.633575
2.674064272,0.6637067795,1.089016199,0.4444861412,2024-06-04 14:17:43.674064
2.714537501,-1.880556107,-0.6740095615,1.014053345,2024-06-04 14:17:43.714538
2.755053803,1.746763706,-1.014993668,-3.768508673,2024-06-04 14:17:43.755054
2.795581564,6.326072693,0.9952112436,-0.2819671631,2024-06-04 14:17:43.795582
2.836031928,2.181834698,-0.4117982388,0.7183094025,2024-06-04 14:17:43.836032
2.876531876,-3.039513588,-2.73947072,-1.614372253,2024-06-04 14:17:43.876532
2.917012605,3.474666595,0.2187792063,-1.195378304,2024-06-04 14:17:43.917013
2.957499533,0.3377790451,-0.4110748768,-1.673946381,2024-06-04 14:17:43.957500
2.998004741,-4.873736858,-2.938475847,-0.4712777138,2024-06-04 14:17:43.998005
3.03853698,-3.031676292,-4.178705692,-1.136821747,2024-06-04 14:17:44.038537
3.078975366,0.3123288155,-4.529634953,-0.3489394188,2024-06-04 14:17:44.078975
3.119454168,-0.4252548218,-2.662166834,-0.8103837967,2024-06-04 14:17:44.119454
3.159931095,2.156411648,0.600417614,-0.02933645248,2024-06-04 14:17:44.159931
3.20039646,-0.3264374733,-0.7929832935,-0.5512404442,2024-06-04 14:17:44.200396
3.240907501,-0.3764247894,-0.358019948,0.2721104622,2024-06-04 14:17:44.240908
3.281442605,0.03548145294,0.957028985,-0.03594255447,2024-06-04 14:17:44.281443
3.321955105,0.2420372963,1.505423307,0.1232533455,2024-06-04 14:17:44.321955
3.362445626,-1.713522911,-1.307301641,-0.7054929733,2024-06-04 14:17:44.362446
3.402914949,0.8771548271,1.014853477,-0.1662397385,2024-06-04 14:17:44.402915
3.443384116,0.05430650711,2.061640739,-1.442597866,2024-06-04 14:17:44.443384
3.48384573,-0.8493552208,-1.069385052,0.6401634216,2024-06-04 14:17:44.483846
3.524359168,0.2720675468,2.347752333,-0.2531065941,2024-06-04 14:17:44.524359
3.56488073,-0.6261777878,0.3922182322,-0.2954025269,2024-06-04 14:17:44.564881
3.605335991,0.09804868698,4.219455242,-0.003292560577,2024-06-04 14:17:44.605336
3.645835835,2.25319767,1.269115925,2.665785313,2024-06-04 14:17:44.645836
3.686265574,1.696808338,-1.190343618,0.4047780037,2024-06-04 14:17:44.686266
3.726754741,-6.723732948,-4.444849968,1.024688721,2024-06-04 14:17:44.726755
3.767263855,0.04940891266,-2.401238918,0.6857023239,2024-06-04 14:17:44.767264
3.807761668,1.617970943,-3.357957602,-0.6331219673,2024-06-04 14:17:44.807762
3.848304845,2.40883112,-2.432802439,-1.393183708,2024-06-04 14:17:44.848305
3.888754428,1.008880138,-0.4524938464,-1.328431606,2024-06-04 14:17:44.888754
3.929237501,0.4114971161,1.45458889,-1.302092075,2024-06-04 14:17:44.929238
3.96976547,-0.310488224,1.466021538,-1.086016178,2024-06-04 14:17:44.969765
4.01023021,0.5179667473,0.9718517065,-0.8126206398,2024-06-04 14:17:45.010230
4.050697658,0.3797578812,-0.6792980433,-0.661755085,2024-06-04 14:17:45.050698
4.091189324,-0.2540988922,-1.202261567,-0.1814975739,2024-06-04 14:17:45.091189
4.131666147,0.370241642,-0.105754137,-0.1843419075,2024-06-04 14:17:45.131666
4.172229793,0.7715134621,-0.5382881165,0.5399065018,2024-06-04 14:17:45.172230
4.21271146,0.1777772903,-2.564333916,0.7730102539,2024-06-04 14:17:45.212711
4.253153439,1.888453484,0.7751783133,0.09817552567,2024-06-04 14:17:45.253153
4.293673074,-2.27179718,2.895499706,-0.007138252258,2024-06-04 14:17:45.293673
4.334180574,-0.6210489273,-0.8849725723,0.3100948334,2024-06-04 14:17:45.334181
4.374607085,-0.5155668259,0.2018877268,-0.2444834709,2024-06-04 14:17:45.374607
4.415098491,-0.4590778351,0.1496274471,-0.2331929207,2024-06-04 14:17:45.415098
4.45559771,-0.2409148216,0.09364104271,-0.8882398605,2024-06-04 14:17:45.455598
4.496129897,-0.2988362312,-0.2059803009,-0.3532800674,2024-06-04 14:17:45.496130
4.536597293,-0.3110351562,-0.3420467377,0.22701931,2024-06-04 14:17:45.536597
4.577135939,0.2182335854,-0.2341823578,0.03194904327,2024-06-04 14:17:45.577136
4.61758948,0.002276420593,-0.04571294785,-0.07410478592,2024-06-04 14:17:45.617589
4.658063022,-0.3683347702,0.2004210949,0.2435660362,2024-06-04 14:17:45.658063
4.698530574,0.4538860321,0.3446089029,-0.368833065,2024-06-04 14:17:45.698531
4.73906948,-0.2080488205,-0.1679873466,-0.6901473999,2024-06-04 14:17:45.739069
4.779517241,-0.6587796211,-0.3086910248,-0.09772205353,2024-06-04 14:17:45.779517
4.820018543,-0.03763532639,0.010171175,-0.4086871147,2024-06-04 14:17:45.820019
4.860490158,0.239481926,0.1887159348,0.05591678619,2024-06-04 14:17:45.860490
4.900969845,-0.2706985474,0.2680835724,0.07869243622,2024-06-04 14:17:45.900970
4.941475105,0.409655571,-0.4703276157,-0.3575148582,2024-06-04 14:17:45.941475
4.98201797,0.2547211647,-0.5279140472,0.8618898392,2024-06-04 14:17:45.982018
5.022462814,-0.5842995644,-1.082736015,1.711542606,2024-06-04 14:17:46.022463
5.062946824,-0.5048832893,-1.045614719,1.685913086,2024-06-04 14:17:46.062947
5.103493283,-1.481934071,-0.9132820368,1.723223686,2024-06-04 14:17:46.103493
5.143974689,-0.7516522408,-1.057757258,-1.039270401,2024-06-04 14:17:46.143975
5.184453439,2.807252407,0.208538413,-2.488111973,2024-06-04 14:17:46.184453
5.224895053,3.128808022,-0.1944637299,-0.5295438766,2024-06-04 14:17:46.224895
5.265385939,0.9320702553,-0.1466281414,-0.3273544312,2024-06-04 14:17:46.265386
5.305902866,1.168368816,0.05450093746,-0.1787266731,2024-06-04 14:17:46.305903
5.346393074,-0.6198000908,-0.05497187376,1.380374432,2024-06-04 14:17:46.346393
5.386829116,-0.840420723,-0.1503004432,-0.1988301277,2024-06-04 14:17:46.386829
5.427389272,0.9338731766,0.1910123229,0.1925430298,2024-06-04 14:17:46.427389
5.467805626,0.08341503143,-0.2312888503,-0.05261611938,2024-06-04 14:17:46.467806
5.508294012,-1.57003355,-0.7949153185,-0.4889984131,2024-06-04 14:17:46.508294
5.548811512,-0.398645401,-0.5222362876,-0.4198203087,2024-06-04 14:17:46.548812
5.58933172,0.251642704,-0.04558259249,-0.6467094421,2024-06-04 14:17:46.589332
5.62979698,0.1805539131,0.2243424058,-0.5591545105,2024-06-04 14:17:46.629797
5.670281408,-0.6632547379,0.2659729719,-0.5090298653,2024-06-04 14:17:46.670281
5.710771668,-0.9604668617,0.1509739757,-0.7974886894,2024-06-04 14:17:46.710772
5.751279845,-0.2342171669,0.2055031061,-0.8807134628,2024-06-04 14:17:46.751280
5.791781408,-0.850209713,-0.0003362894058,-0.3781695366,2024-06-04 14:17:46.791781
5.832230887,-0.8843479156,-0.2871823907,-0.132774353,2024-06-04 14:17:46.832231
5.872714949,-0.139893055,-0.1367752552,-0.3133649826,2024-06-04 14:17:46.872715
5.913201928,0.5042686462,0.1139609814,0.05133724213,2024-06-04 14:17:46.913202
5.953710574,0.3622431755,-0.05548101664,0.4183287621,2024-06-04 14:17:46.953711
5.994220783,0.3076806068,-0.2476912737,0.3811922073,2024-06-04 14:17:46.994221
6.03468948,0.5489597321,-0.1410971284,0.2584400177,2024-06-04 14:17:47.034689
6.075161199,0.4180879593,-0.07226371765,0.2094421387,2024-06-04 14:17:47.075161
6.115631668,0.1484723091,-0.143332541,0.1737837791,2024-06-04 14:17:47.115632
6.156138074,0.06395435333,-0.1496802568,0.06112241745,2024-06-04 14:17:47.156138
6.19665172,0.01646184921,-0.05689811707,-0.1064243317,2024-06-04 14:17:47.196652
6.237136303,-0.1206593513,0.0484919548,-0.2163333893,2024-06-04 14:17:47.237136
6.277645314,-0.241645813,0.09482032061,-0.2523918152,2024-06-04 14:17:47.277645
6.318063387,-0.2330136299,0.02473479509,-0.2567052841,2024-06-04 14:17:47.318063
6.358598126,-0.133852005,-0.009511053562,-0.1733150482,2024-06-04 14:17:47.358598
6.399098074,-0.05226707458,-0.08851414919,-0.09746026993,2024-06-04 14:17:47.399098
6.439577814,0.02292013168,-0.08090084791,0.002387523651,2024-06-04 14:17:47.439578
6.480063699,0.133767128,-0.06557893753,0.07634210587,2024-06-04 14:17:47.480064
6.520572033,0.1692194939,-0.04535716772,0.1355099678,2024-06-04 14:17:47.520572
6.561054845,-0.1512327194,-0.3324426413,0.7287082672,2024-06-04 14:17:47.561055
6.601526564,-0.7574410439,-0.5187228322,0.7228193283,2024-06-04 14:17:47.601527
6.642050053,0.03055095673,0.08448374271,-1.331348419,2024-06-04 14:17:47.642050
6.682523387,0.3256754875,0.6216480136,-1.400808334,2024-06-04 14:17:47.682523
6.722993803,-0.3178911209,0.2500404716,-0.5685153008,2024-06-04 14:17:47.722994
6.763526303,-0.2389373779,0.009775340557,-0.4260168076,2024-06-04 14:17:47.763526
6.80398896,-0.1637816429,-0.1480679512,-0.04386997223,2024-06-04 14:17:47.803989
6.84446573,0.276766777,-0.06712454557,0.1865215302,2024-06-04 14:17:47.844466
6.884958178,0.2095742226,-0.3132973909,0.1643362045,2024-06-04 14:17:47.884958
6.925437658,0.55113554,0.1918030977,-0.3653998375,2024-06-04 14:17:47.925438
6.965928387,0.8644752502,0.4700365067,-0.1240458488,2024-06-04 14:17:47.965928
7.006437605,0.4785170555,0.04705864191,0.1792001724,2024-06-04 14:17:48.006438
7.046932762,0.273651123,-0.2941495776,0.5919489861,2024-06-04 14:17:48.046933
7.087403908,0.8844518661,0.4660765231,0.4860978127,2024-06-04 14:17:48.087404
7.127882658,0.3294253349,0.03026473522,0.2018709183,2024-06-04 14:17:48.127883
7.16836896,-0.251871109,-0.1472141743,0.08273983002,2024-06-04 14:17:48.168369
7.208876355,-0.1606068611,-0.08002269268,-0.3484115601,2024-06-04 14:17:48.208876
7.249360262,0.04272603989,0.1649227738,-0.4713377953,2024-06-04 14:17:48.249360
7.289851251,-0.06155967712,0.2313797474,-0.3682823181,2024-06-04 14:17:48.289851
7.330385626,-0.2095808983,0.08890855312,-0.1371183395,2024-06-04 14:17:48.330386
7.370816408,-0.01201581955,0.1028540134,-0.03649616241,2024-06-04 14:17:48.370816
7.411323387,-0.1290488243,-0.02049362659,0.0803899765,2024-06-04 14:17:48.411323
7.451858855,-0.1653404236,-0.1431883574,0.1086807251,2024-06-04 14:17:48.451859
7.492292501,0.08288431168,-0.05535268784,-0.06421661377,2024-06-04 14:17:48.492293
7.532812605,0.4049220085,0.1300071478,-0.1936855316,2024-06-04 14:17:48.532813
7.573259533,0.2034454346,-0.05325162411,0.09814786911,2024-06-04 14:17:48.573260
7.613752241,-0.108039856,-0.1074881554,0.141974926,2024-06-04 14:17:48.613752
7.654247033,-0.02093648911,-0.06822669506,0.006449699402,2024-06-04 14:17:48.654247
7.694792605,0.1156334877,0.02417957783,-0.1831331253,2024-06-04 14:17:48.694793
7.735281199,-0.05301189423,0.03848910332,-0.2809453011,2024-06-04 14:17:48.735281
7.775773178,-0.3139977455,-0.04429280758,-0.2492713928,2024-06-04 14:17:48.775773
7.816239012,-0.2374076843,0.1733250618,-0.3590335846,2024-06-04 14:17:48.816239
7.85675198,-0.2183132172,0.1843832731,-0.1385512352,2024-06-04 14:17:48.856752
7.89723896,-0.1900782585,-0.06482303143,-0.04478693008,2024-06-04 14:17:48.897239
7.937725991,0.269217968,0.03373372555,-0.09494638443,2024-06-04 14:17:48.937726
7.97816396,0.2078666687,-0.02833628654,0.1160097122,2024-06-04 14:17:48.978164
8.018652501,-0.05923032761,0.02607631683,0.1122932434,2024-06-04 14:17:49.018653
8.059153126,-0.02271652222,0.01587736607,-0.06884098053,2024-06-04 14:17:49.059153
8.099620366,0.05723619461,-0.06425118446,-0.0820813179,2024-06-04 14:17:49.099620
8.140107501,0.03206014633,-0.04797255993,0.1264872551,2024-06-04 14:17:49.140108
8.180605783,0.1311097145,-0.1138185263,-0.02215099335,2024-06-04 14:17:49.180606
8.22110521,0.1270136833,0.2136722803,0.02441310883,2024-06-04 14:17:49.221105
8.261593335,-0.06379938126,0.3291221857,0.02547502518,2024-06-04 14:17:49.261593
8.302079533,-0.1051096916,0.09045135975,-0.02425193787,2024-06-04 14:17:49.302080
8.342585366,-0.05343580246,-0.05159270763,-0.1270489693,2024-06-04 14:17:49.342585
8.383048022,0.1016392708,-0.120442152,-0.08330488205,2024-06-04 14:17:49.383048
8.423572918,0.05577659607,-0.1386970282,-0.06427383423,2024-06-04 14:17:49.423573
8.464058751,0.03840065002,-0.03530192375,0.06926012039,2024-06-04 14:17:49.464059
8.504523595,0.1049962044,0.08101594448,0.1096105576,2024-06-04 14:17:49.504524
8.545058439,0.04882287979,0.1214466095,0.02592992783,2024-06-04 14:17:49.545058
8.585492762,0.03408718109,0.1251423359,0.005327224731,2024-06-04 14:17:49.585493
8.626049741,-0.04775333405,0.00791323185,0.04204034805,2024-06-04 14:17:49.626050
8.666539324,-0.009733200073,-0.1478686333,-0.02509450912,2024-06-04 14:17:49.666539
8.706934793,0.01937294006,-0.131166935,-0.03167867661,2024-06-04 14:17:49.706935
8.74742198,-0.02803373337,-0.1421223879,-0.01821470261,2024-06-04 14:17:49.747422
8.78792521,0.1646914482,-0.1252595186,-0.1205172539,2024-06-04 14:17:49.787925
8.828432345,0.01989603043,-0.01481616497,-0.01175403595,2024-06-04 14:17:49.828432
8.868959376,-0.02491760254,0.2038085461,0.03202867508,2024-06-04 14:17:49.868959
8.909434168,0.0735669136,0.2779026031,-0.09773015976,2024-06-04 14:17:49.909434
8.949906303,-0.07839679718,0.02279305458,-0.04820871353,2024-06-04 14:17:49.949906
8.99042948,-0.0800652504,-0.02585065365,-0.009803771973,2024-06-04 14:17:49.990429
9.030935783,0.05728912354,-0.1354926825,0.05959701538,2024-06-04 14:17:50.030936
9.071395262,0.1162543297,-0.1899392605,0.1366863251,2024-06-04 14:17:50.071395
9.11188323,0.1805038452,-0.05941855907,0.1288723946,2024-06-04 14:17:50.111883
9.152377814,0.09386062622,-0.1107194424,0.01154947281,2024-06-04 14:17:50.152378
9.192875887,-0.01324367523,-0.02137982845,0.07406282425,2024-06-04 14:17:50.192876
9.233347553,-0.1603178978,0.1787078381,-0.09439706802,2024-06-04 14:17:50.233348
9.273828491,-0.1489725113,0.1887493134,-0.2451715469,2024-06-04 14:17:50.273828
9.314340678,-0.1571826935,0.1014534235,-0.1272044182,2024-06-04 14:17:50.314341
9.354808855,-0.1039366722,0.02315437794,-0.1115069389,2024-06-04 14:17:50.354809
9.39528448,-0.05900192261,0.03084266186,-0.06624746323,2024-06-04 14:17:50.395284
9.435797605,-0.06444358826,0.03305113316,-0.03832626343,2024-06-04 14:17:50.435798
9.476321668,0.01450061798,-0.02415883541,-0.02297353745,2024-06-04 14:17:50.476322
9.516769272,0.07981014252,-0.0620456934,0.153242588,2024-06-04 14:17:50.516769
9.557220887,0.09866762161,-0.0302106142,0.153087616,2024-06-04 14:17:50.557221
9.59772047,0.1502056122,-0.1601361036,0.173224926,2024-06-04 14:17:50.597720
9.638231668,0.1567325592,-0.2469036579,0.08140087128,2024-06-04 14:17:50.638232
9.678743283,0.04040193558,-0.0002204179764,-0.07787084579,2024-06-04 14:17:50.678743
9.71924172,0.007063865662,0.0659481287,0.03671741486,2024-06-04 14:17:50.719242
9.759733022,-0.1591815948,0.04847180843,-0.05937814713,2024-06-04 14:17:50.759733
9.800210835,-0.1473093033,-0.01428747177,-0.1079468727,2024-06-04 14:17:50.800211
9.840700991,0.1104259491,0.08850204945,-0.110449791,2024-06-04 14:17:50.840701
9.881193283,0.005585670471,9.179115295e-05,0.007612705231,2024-06-04 14:17:50.881193
9.921667241,0.06677436829,0.0237954855,0.01390171051,2024-06-04 14:17:50.921667
9.962162553,0.1893529892,0.05749380589,-0.03080749512,2024-06-04 14:17:50.962163
10.00265557,-0.09207773209,0.06312978268,-0.05164146423,2024-06-04 14:17:51.002656
10.04312339,-0.05883979797,0.0591032505,-0.2078046799,2024-06-04 14:17:51.043123
10.0836163,-0.1361584663,-0.002975344658,0.09434938431,2024-06-04 14:17:51.083616
10.12411167,-0.1625180244,-0.07144594193,0.04696130753,2024-06-04 14:17:51.124112
10.16461318,0.1088643074,-0.01988720894,-0.0604724884,2024-06-04 14:17:51.164613
10.20508646,0.04396772385,-0.1019381285,0.1392374039,2024-06-04 14:17:51.205086
10.24557604,-0.002407073975,-0.03033459187,0.09131383896,2024-06-04 14:17:51.245576
10.28611235,0.09612989426,-0.05655050278,0.01792621613,2024-06-04 14:17:51.286112
10.32662479,0.03695011139,0.002862334251,0.02552461624,2024-06-04 14:17:51.326625
10.36700917,0.04740047455,0.0001075267792,-0.04237413406,2024-06-04 14:17:51.367009
10.4074974,-0.04201078415,-0.003646254539,0.06708288193,2024-06-04 14:17:51.407497
10.44798563,0.03262662888,-0.01293635368,-0.03180456161,2024-06-04 14:17:51.447986
10.48847391,0.1253142357,0.02777171135,-0.05638599396,2024-06-04 14:17:51.488474
10.52905813,-0.2399234772,-0.03890001774,-0.2309303284,2024-06-04 14:17:51.529058
10.5694874,-0.2554106712,-0.034547925,-0.0725941658,2024-06-04 14:17:51.569487
10.60999495,0.1333551407,0.216573596,0.1540236473,2024-06-04 14:17:51.609995
10.65048391,0.3225226402,0.1336182356,0.2392449379,2024-06-04 14:17:51.650484
10.6909674,0.01990318298,-0.02390491962,0.1835660934,2024-06-04 14:17:51.690967
10.73145828,-0.0721282959,-0.05243003368,-0.196662426,2024-06-04 14:17:51.731458
10.77192172,-0.139852047,-0.1639313698,-0.189186573,2024-06-04 14:17:51.771922
10.81243167,-0.0949139595,0.02368593216,0.1769657135,2024-06-04 14:17:51.812432
10.85293495,0.1344156265,0.05574464798,0.1119775772,2024-06-04 14:17:51.852935
10.89342386,0.06862306595,0.1061564684,-0.03172969818,2024-06-04 14:17:51.893424
10.93396651,-0.1210169792,0.03660082817,-0.108546257,2024-06-04 14:17:51.933967
10.97438849,-0.5924067497,-0.09725177288,-0.1886258125,2024-06-04 14:17:51.974388
11.01489677,-0.631758213,0.03040957451,-0.476416111,2024-06-04 14:17:52.014897
11.05536396,-0.4731855392,0.1740349531,-0.7294540405,2024-06-04 14:17:52.055364
11.09589261,-0.2247290611,0.2140139341,-0.7181367874,2024-06-04 14:17:52.095893
11.13638209,-0.3020343781,0.0758061409,-0.2018861771,2024-06-04 14:17:52.136382
11.17682334,0.3191518784,-0.0001664161682,0.1936173439,2024-06-04 14:17:52.176823
11.21731281,0.8101167679,-0.07926428318,0.6496982574,2024-06-04 14:17:52.217313
11.25780224,1.037696838,-0.2730102539,1.040355206,2024-06-04 14:17:52.257802
11.29829172,1.146843433,-0.2775352001,1.200575829,2024-06-04 14:17:52.298292
11.33878115,1.042616367,-0.4097086191,0.9443950653,2024-06-04 14:17:52.338781
11.37933005,0.9164614677,-0.3284738064,0.5866575241,2024-06-04 14:17:52.379330
11.41978318,0.5635638237,-0.3468152285,0.1647033691,2024-06-04 14:17:52.419783
11.46027834,0.1652393341,-0.2374036312,0.143257618,2024-06-04 14:17:52.460278
11.50074688,-0.3385739326,-0.1688593626,0.04826211929,2024-06-04 14:17:52.500747
11.54126479,-0.5444436073,0.08753585815,-0.4154906273,2024-06-04 14:17:52.541265
11.58177052,-0.5049414635,0.2378870249,-0.6416430473,2024-06-04 14:17:52.581771
11.62220813,-0.6229977608,0.1170415878,-0.5784163475,2024-06-04 14:17:52.622208
11.66275979,-0.443300724,0.005300521851,-0.3583922386,2024-06-04 14:17:52.662760
11.70318802,-0.3265061378,0.05970954895,-0.2572345734,2024-06-04 14:17:52.703188
11.74367823,-0.2799305916,0.1128015518,-0.2327342033,2024-06-04 14:17:52.743678
11.78423052,-0.15666008,0.03656327724,-0.2100305557,2024-06-04 14:17:52.784231
11.82466511,-0.3158783913,-0.04532754421,-0.1381869316,2024-06-04 14:17:52.824665
11.86514979,-0.1063113213,0.08320736885,0.06643342972,2024-06-04 14:17:52.865150
11.90561599,0.3894715309,-0.003041863441,0.1618227959,2024-06-04 14:17:52.905616
11.94617229,0.3380532265,0.05244100094,0.4013895988,2024-06-04 14:17:52.946172
11.98663177,0.09147405624,-0.001795053482,0.1424207687,2024-06-04 14:17:52.986632
12.02712052,0.1047930717,-0.08705222607,0.06539201736,2024-06-04 14:17:53.027121
12.06760922,0.02984905243,-0.0529050827,-0.05667161942,2024-06-04 14:17:53.067609
12.10804594,-0.1071715355,0.006543159485,-0.1206140518,2024-06-04 14:17:53.108046
12.148545,-0.1107106209,0.2145080566,-0.07289218903,2024-06-04 14:17:53.148545
12.18905516,-0.3971729279,0.03699982166,-0.03684139252,2024-06-04 14:17:53.189055
12.22954813,-0.2157912254,-0.1656253338,-0.1662564278,2024-06-04 14:17:53.229548
12.27004797,0.1783909798,-0.1013265848,-0.1764221191,2024-06-04 14:17:53.270048
12.31053797,0.4039239883,0.05414330959,0.07442903519,2024-06-04 14:17:53.310538
12.35101959,-0.033639431,0.01058864594,-0.03010225296,2024-06-04 14:17:53.351020
12.39151438,0.08200025558,-0.005555987358,-0.09323406219,2024-06-04 14:17:53.391514
12.43201594,-0.05433130264,-0.05256617069,0.02555704117,2024-06-04 14:17:53.432016
12.47250052,0.02724218369,0.06519985199,-0.03649663925,2024-06-04 14:17:53.472501
12.51299797,0.04820203781,0.1296219826,0.01452112198,2024-06-04 14:17:53.512998
12.55349047,-0.04050779343,-0.0373840332,0.006990432739,2024-06-04 14:17:53.553490
12.5939575,0.352865696,-0.01005232334,0.1936712265,2024-06-04 14:17:53.593958
12.63444828,0.1544895172,-0.09530591965,0.1495847702,2024-06-04 14:17:53.634448
12.67493906,0.2239565849,-0.1203937531,0.08874368668,2024-06-04 14:17:53.674939
12.71542334,0.237077713,0.002409338951,0.1446461678,2024-06-04 14:17:53.715423
12.75594417,0.0912194252,-0.02840876579,0.09869813919,2024-06-04 14:17:53.755944
12.79647516,-0.02957868576,-0.03639912605,0.006551742554,2024-06-04 14:17:53.796475
12.83696292,-0.09698820114,0.06183636189,-0.08379030228,2024-06-04 14:17:53.836963
12.87745203,-0.2475347519,0.02890074253,-0.06125545502,2024-06-04 14:17:53.877452
12.91794104,-0.1843924522,0.09442842007,-0.08050870895,2024-06-04 14:17:53.917941
12.95840214,-0.148668766,0.02111780643,-0.09368753433,2024-06-04 14:17:53.958402
12.99886594,-0.1083273888,0.02335083485,-0.0885720253,2024-06-04 14:17:53.998866
13.03935375,-0.04434394836,0.0299077034,0.02672958374,2024-06-04 14:17:54.039354
13.07985276,-0.02495336533,-0.02093017101,0.01328229904,2024-06-04 14:17:54.079853
13.12034787,0.03793764114,-0.004863381386,0.02314805984,2024-06-04 14:17:54.120348
13.16081323,0.09208583832,0.005543351173,0.01361513138,2024-06-04 14:17:54.160813
13.20131865,0.0936126709,-0.06160402298,0.07778215408,2024-06-04 14:17:54.201319
13.24181719,0.2424283028,0.0143853426,0.09684944153,2024-06-04 14:17:54.241817
13.28229745,0.1780161858,0.0007486343384,0.1480555534,2024-06-04 14:17:54.282297
13.32279365,0.02493953705,-0.006992101669,0.1111164093,2024-06-04 14:17:54.322794
13.36323875,-0.1163215637,-0.08827328682,-0.2781524658,2024-06-04 14:17:54.363239
13.40374698,-0.06216096878,-0.02096223831,-0.110771656,2024-06-04 14:17:54.403747
13.44425464,-0.04472351074,-0.0253431797,0.07254981995,2024-06-04 14:17:54.444255
13.48474188,0.05715179443,0.07918655872,0.1045575142,2024-06-04 14:17:54.484742
13.52524516,-0.005107879639,0.08014571667,-0.05047178268,2024-06-04 14:17:54.525245
13.56575432,-0.03987073898,0.007455945015,0.04302120209,2024-06-04 14:17:54.565754
13.6062463,0.01178264618,-0.0345364809,0.02640581131,2024-06-04 14:17:54.606246
13.64669406,0.04877996445,-0.08244025707,-0.002162456512,2024-06-04 14:17:54.646694
13.6871638,-0.07001924515,-0.06019866467,-0.0596780777,2024-06-04 14:17:54.687164
13.72765375,-0.1349473,0.0813472271,-0.08561372757,2024-06-04 14:17:54.727654
13.76814375,-0.1109519005,0.1118847132,-0.02370452881,2024-06-04 14:17:54.768144
13.8086337,-0.02557611465,0.03108251095,0.05163764954,2024-06-04 14:17:54.808634
13.84913078,-0.0001559257507,0.0204230547,-0.0552573204,2024-06-04 14:17:54.849131
13.88962073,0.06038236618,-0.0250607729,-0.04855155945,2024-06-04 14:17:54.889621
13.93010943,0.00430059433,-0.01095974445,0.03371095657,2024-06-04 14:17:54.930109
13.97064063,0.1282548904,-0.02450215816,0.1176748276,2024-06-04 14:17:54.970641
14.01109818,0.1048660278,-0.04232823849,0.0680603981,2024-06-04 14:17:55.011098
14.05160292,0.04780626297,-0.02847290039,-0.04982948303,2024-06-04 14:17:55.051603
14.09208115,0.07570838928,0.0009503364563,0.02515029907,2024-06-04 14:17:55.092081
14.13257042,0.1083021164,-0.02568233013,0.136405468,2024-06-04 14:17:55.132570
14.17305625,0.09412527084,-0.01195752621,0.04617595673,2024-06-04 14:17:55.173056
14.21355651,-0.1812038422,-0.04392564297,-0.1254997253,2024-06-04 14:17:55.213557
14.25402932,-0.3003044128,0.06129395962,-0.131401062,2024-06-04 14:17:55.254029
14.29453453,-0.2454309464,0.08909714222,-0.1025876999,2024-06-04 14:17:55.294535
14.33498724,0.005554676056,0.05253899097,-0.05318117142,2024-06-04 14:17:55.334987
14.37546193,0.01129627228,0.03327083588,0.006548404694,2024-06-04 14:17:55.375462
14.41604302,0.1870713234,0.04077994823,0.04159545898,2024-06-04 14:17:55.416043
14.45654917,0.03259658813,-0.06706595421,0.06664896011,2024-06-04 14:17:55.456549
14.49699172,0.03882980347,-0.03985083103,-0.003993988037,2024-06-04 14:17:55.496992
14.53748094,-0.08670330048,-0.01813650131,0.01378440857,2024-06-04 14:17:55.537481
14.57791042,-0.008277416229,0.0107241869,0.01335096359,2024-06-04 14:17:55.577910
14.61842526,0.1206092834,0.02082335949,0.06258440018,2024-06-04 14:17:55.618425
14.65891375,0.1425433159,-0.03596937656,0.0547451973,2024-06-04 14:17:55.658914
14.69940229,0.02336406708,-0.0604262352,-0.03899860382,2024-06-04 14:17:55.699402
14.73991198,-0.190038681,0.04421675205,-0.05529260635,2024-06-04 14:17:55.739912
14.78040203,-0.23640728,0.09379410744,-0.1688623428,2024-06-04 14:17:55.780402
14.82090537,-0.1110372543,0.05589449406,-0.07910633087,2024-06-04 14:17:55.820905
14.86144547,0.04879236221,-0.07097804546,-0.02332305908,2024-06-04 14:17:55.861445
14.90193401,0.164393425,-0.02868962288,0.06650447845,2024-06-04 14:17:55.901934
14.94235328,0.1025271416,-0.07505118847,0.06756067276,2024-06-04 14:17:55.942353
14.98284891,0.2328429222,0.05426943302,0.1889262199,2024-06-04 14:17:55.982849
15.02334948,0.1216769218,0.08302366734,0.1344161034,2024-06-04 14:17:56.023349
15.0638213,-0.07947921753,0.02008795738,0.05633306503,2024-06-04 14:17:56.063821
15.10429136,-0.1267518997,0.00915324688,-0.1451215744,2024-06-04 14:17:56.104291
15.14478005,-0.2339577675,-0.07710182667,-0.09112882614,2024-06-04 14:17:56.144780
15.1852874,-0.004155635834,-0.02375912666,-0.1178421974,2024-06-04 14:17:56.185287
15.22576516,-0.07552194595,0.01442706585,0.0340628624,2024-06-04 14:17:56.225765
15.2663099,-0.1078467369,-0.004802465439,-0.1079502106,2024-06-04 14:17:56.266310
15.30679958,-0.06429386139,0.00712788105,-0.102596283,2024-06-04 14:17:56.306800
15.34726349,0.001601696014,0.08171308041,0.006243228912,2024-06-04 14:17:56.347263
15.38771969,0.0336523056,0.029047966,0.09222793579,2024-06-04 14:17:56.387720
15.42821547,0.0770111084,0.01795756817,0.05670642853,2024-06-04 14:17:56.428215
15.46871209,0.02617168427,-0.0229344368,-1.096725464e-05,2024-06-04 14:17:56.468712
15.50923667,0.03594493866,-0.1012798548,0.04737949371,2024-06-04 14:17:56.509237
15.5497438,0.0040974617,-0.153313756,0.02239227295,2024-06-04 14:17:56.549744
15.59018896,0.2655282021,0.1023740768,-0.0124373436,2024-06-04 14:17:56.590189
15.63067943,-0.03331947327,0.0732434988,0.03417491913,2024-06-04 14:17:56.630679
15.67118313,-0.06116008759,0.0855653286,-0.07804870605,2024-06-04 14:17:56.671183
15.71168068,-0.1593389511,0.08816123009,-0.1035656929,2024-06-04 14:17:56.711681
15.7521501,-0.2411060333,0.02961862087,-0.03915643692,2024-06-04 14:17:56.752150
15.79266271,-0.0920124054,0.02081906796,0.01445293427,2024-06-04 14:17:56.792663
15.83311656,0.07358121872,-0.10930264,-0.03003072739,2024-06-04 14:17:56.833117
15.87360604,0.3308782578,-0.1564083099,0.06567668915,2024-06-04 14:17:56.873606
15.91411396,0.08525753021,0.07304191589,-0.09596633911,2024-06-04 14:17:56.914114
15.95462323,-0.0914721489,0.1147731543,0.1044721603,2024-06-04 14:17:56.954623
15.99508313,0.05949831009,0.120891571,0.2443175316,2024-06-04 14:17:56.995083
16.03559459,0.3090105057,0.07850551605,0.09162044525,2024-06-04 14:17:57.035595
16.07610891,0.09247350693,-0.1015712023,-0.004033088684,2024-06-04 14:17:57.076109
16.11659854,-0.1538252831,-0.2135673761,-0.1100172997,2024-06-04 14:17:57.116599
16.15708912,0.09149885178,-0.0693385601,0.05967760086,2024-06-04 14:17:57.157089
16.19757938,0.04545068741,-0.03648114204,0.1240410805,2024-06-04 14:17:57.197579
16.23806964,-0.2462105751,-0.01889467239,-0.217063427,2024-06-04 14:17:57.238070
16.27855511,-0.1285390854,0.1771210432,-0.1435303688,2024-06-04 14:17:57.278555
16.31900854,0.02180337906,0.06625926495,0.1007332802,2024-06-04 14:17:57.319009
16.35948208,-0.00665807724,0.002458691597,0.1295523643,2024-06-04 14:17:57.359482
16.39998802,-0.05068683624,0.002730488777,-0.2018318176,2024-06-04 14:17:57.399988
16.44046505,-0.09668779373,-0.06400454044,-0.1080899239,2024-06-04 14:17:57.440465
16.48095401,-0.001149654388,0.02342498302,0.07905435562,2024-06-04 14:17:57.480954
16.52143688,0.04436445236,-0.03211843967,0.1406841278,2024-06-04 14:17:57.521437
16.56193339,0.1220088005,0.007035374641,-0.0307765007,2024-06-04 14:17:57.561933
16.60243141,-0.04437303543,-0.1032918692,0.002665996552,2024-06-04 14:17:57.602431
16.64291912,0.01292276382,-0.03664195538,0.02167987823,2024-06-04 14:17:57.642919
16.68341214,0.04418992996,0.04264545441,-0.02211332321,2024-06-04 14:17:57.683412
16.72389938,-0.02279567719,0.04717981815,-0.04523849487,2024-06-04 14:17:57.723899
16.76437927,-0.1062273979,0.1029695272,-0.04397249222,2024-06-04 14:17:57.764379
16.80487328,-0.04942178726,0.04407024384,-0.05705404282,2024-06-04 14:17:57.804873
16.84535443,-0.04398679733,0.03843712807,-0.001269340515,2024-06-04 14:17:57.845354
16.88584042,-0.02622318268,0.002067565918,-0.06871080399,2024-06-04 14:17:57.885840
16.92637438,-0.01955461502,-0.05378377438,0.01381111145,2024-06-04 14:17:57.926374
16.96682177,0.04077625275,-0.04947566986,0.03400278091,2024-06-04 14:17:57.966822
17.00727969,0.1627349854,-0.01237010956,0.09029579163,2024-06-04 14:17:58.007280
17.04776026,0.03569078445,-0.05969941616,0.03793478012,2024-06-04 14:17:58.047760
17.08829849,0.01272392273,-0.0003917217255,0.01665973663,2024-06-04 14:17:58.088298
17.12878781,0.08104705811,0.03720903397,0.007351875305,2024-06-04 14:17:58.128788
17.16929979,-0.08250951767,0.016051054,0.02087831497,2024-06-04 14:17:58.169300
17.20978328,-0.1120038033,0.03137397766,-0.09189367294,2024-06-04 14:17:58.209783
17.25027318,-0.1730031967,0.06956803799,-0.1219234467,2024-06-04 14:17:58.250273
17.29074589,-0.09879112244,0.0528203249,-0.02538061142,2024-06-04 14:17:58.290746
17.33123151,0.04831218719,0.02450990677,-0.008164405823,2024-06-04 14:17:58.331232
17.37169193,0.1486568451,-0.08399391174,0.005776882172,2024-06-04 14:17:58.371692
17.41222474,0.1554679871,-0.03738629818,0.08817243576,2024-06-04 14:17:58.412225
17.45270057,0.08487653732,-0.01487338543,0.08456468582,2024-06-04 14:17:58.452701
17.49321151,-0.04525661469,0.0339846611,0.08282518387,2024-06-04 14:17:58.493212
17.53370625,-0.06638002396,0.00969004631,-0.05618858337,2024-06-04 14:17:58.533706
17.57416974,-0.04644203186,-0.01601612568,0.01579475403,2024-06-04 14:17:58.574170
17.61466245,-0.0443687439,-0.006962418556,-0.10968256,2024-06-04 14:17:58.614662
17.65512932,0.01140260696,0.006935834885,-0.03301858902,2024-06-04 14:17:58.655129
17.69562834,0.009017467499,0.03275024891,-0.0229434967,2024-06-04 14:17:58.695628
17.73616656,0.007238388062,0.006627082825,0.03510475159,2024-06-04 14:17:58.736167
17.77665261,0.03046607971,-0.0147767067,0.02638673782,2024-06-04 14:17:58.776653
17.81706787,-0.02808332443,-0.02933394909,-0.01772546768,2024-06-04 14:17:58.817068
17.85755719,-0.01737356186,-0.02472817898,0.001492977142,2024-06-04 14:17:58.857557
17.89804656,-0.005171298981,0.0556807518,-0.01330757141,2024-06-04 14:17:58.898047
17.93853599,-0.04539060593,0.01834011078,-0.02728033066,2024-06-04 14:17:58.938536
17.97907464,0.05185461044,0.02249193192,0.03798723221,2024-06-04 14:17:58.979075
18.01960203,0.06804656982,0.01711583138,0.050593853,2024-06-04 14:17:59.019602
18.06006724,0.04950428009,-0.03299486637,0.04816436768,2024-06-04 14:17:59.060067
18.10051818,-0.03008460999,-0.02024745941,0.009978294373,2024-06-04 14:17:59.100518
18.14098125,-0.08350944519,-0.03457343578,-0.02275705338,2024-06-04 14:17:59.140981
18.18149974,-0.07938814163,0.01817214489,-0.02536296844,2024-06-04 14:17:59.181500
18.22201875,-0.05359458923,0.005347490311,-0.0832734108,2024-06-04 14:17:59.222019
18.26248219,-0.09621906281,-0.02903401852,-0.121070385,2024-06-04 14:17:59.262482
18.30300349,-0.02032709122,0.02823460102,-0.03415107727,2024-06-04 14:17:59.303003
18.3434901,0.2182021141,0.05833911896,0.0719704628,2024-06-04 14:17:59.343490
18.38393037,0.1103081703,0.01849675179,0.1367020607,2024-06-04 14:17:59.383930
18.42444094,0.05495166779,-0.03380227089,-0.00757932663,2024-06-04 14:17:59.424441
18.46495662,-0.03454065323,-0.05133247375,0.02123165131,2024-06-04 14:17:59.464957
18.50543266,-0.06901931763,-0.05875170231,-0.004096031189,2024-06-04 14:17:59.505433
18.54593479,0.03559541702,-0.01882147789,-0.01673269272,2024-06-04 14:17:59.545935
18.58645229,-0.0503821373,0.01355409622,-0.04996585846,2024-06-04 14:17:59.586452
18.62688771,-0.09398031235,0.07693898678,-0.01996994019,2024-06-04 14:17:59.626888
18.66736417,0.02879905701,0.07227134705,0.01587820053,2024-06-04 14:17:59.667364
18.7078463,0.0255241394,-0.001434445381,0.02146053314,2024-06-04 14:17:59.707846
18.74834401,0.01336097717,-0.01882898808,-0.01345348358,2024-06-04 14:17:59.748344
18.78886063,0.003829956055,-0.04447567463,-0.02956342697,2024-06-04 14:17:59.788861
18.82936474,0.01717710495,-0.009578347206,0.07541418076,2024-06-04 14:17:59.829365
18.86984292,0.04772806168,0.005548477173,0.03985452652,2024-06-04 14:17:59.869843
18.91033349,0.003525733948,0.0763386488,0.02808189392,2024-06-04 14:17:59.910333
18.95082781,-0.1484932899,0.04230570793,-0.07151603699,2024-06-04 14:17:59.950828
18.99131537,-0.1880140305,0.04761958122,-0.05654907227,2024-06-04 14:17:59.991315
19.03183073,-0.06470489502,-0.02974951267,-0.1053361893,2024-06-04 14:18:00.031831
19.07227703,0.09634923935,-0.03503262997,-0.003807544708,2024-06-04 14:18:00.072277
19.11275078,0.1116552353,-0.03007423878,0.0356297493,2024-06-04 14:18:00.112751
19.15324604,0.1117620468,0.03946173191,0.0554690361,2024-06-04 14:18:00.153246
19.19375703,0.004122257233,0.01442039013,0.06056594849,2024-06-04 14:18:00.193757
19.23425516,0.04120397568,-0.01313602924,0.04570817947,2024-06-04 14:18:00.234255
19.27472677,-0.008747577667,-0.02369749546,0.007471084595,2024-06-04 14:18:00.274727
19.31522198,0.04960393906,-0.00910961628,-0.03810882568,2024-06-04 14:18:00.315222
19.35569651,0.0120639801,-0.01799178123,-0.002081871033,2024-06-04 14:18:00.355697
19.39620162,-0.05125522614,-0.01206588745,-0.06203794479,2024-06-04 14:18:00.396202
19.43671729,-0.1294379234,0.0008271932602,-0.06419754028,2024-06-04 14:18:00.436717
19.47714516,-0.05098676682,0.04705536366,-0.04716300964,2024-06-04 14:18:00.477145
19.51763099,0.04790496826,0.03156101704,-0.005584716797,2024-06-04 14:18:00.517631
19.55811307,0.1176519394,0.04860794544,0.06104040146,2024-06-04 14:18:00.558113
19.59862974,0.07742738724,0.003885626793,0.09241056442,2024-06-04 14:18:00.598630
19.63913292,-0.02040910721,-0.1344078779,0.05737304688,2024-06-04 14:18:00.639133
19.67963026,0.005570888519,-0.1447349787,-0.005195140839,2024-06-04 14:18:00.679630
19.72011703,0.007833003998,-0.133562088,0.03567171097,2024-06-04 14:18:00.720117
19.76061099,0.1648192406,-0.05080449581,-0.002133846283,2024-06-04 14:18:00.760611
19.80108505,0.1398901939,0.02890503407,-0.01687908173,2024-06-04 14:18:00.801085
19.84158766,0.04445743561,0.3058285713,-0.1263856888,2024-06-04 14:18:00.841588
19.88206953,-0.2883934975,0.2072331905,0.03238391876,2024-06-04 14:18:00.882070
19.92254964,-0.3041772842,0.0653553009,0.05233812332,2024-06-04 14:18:00.922550
19.96304938,-0.1568293571,-0.02780842781,-0.1686401367,2024-06-04 14:18:00.963049
20.00357349,-0.02336168289,-0.05432903767,-0.1299996376,2024-06-04 14:18:01.003573
20.04404594,-0.04585838318,-0.1653310061,-0.005003929138,2024-06-04 14:18:01.044046
20.08452073,0.1352562904,-0.05272006989,0.1181907654,2024-06-04 14:18:01.084521
20.12501125,0.1328058243,0.02001941204,0.1115746498,2024-06-04 14:18:01.125011
20.16548875,0.05995845795,0.03392541409,0.02884244919,2024-06-04 14:18:01.165489
20.20602104,0.02923250198,0.09335339069,0.01623439789,2024-06-04 14:18:01.206021
20.24651505,-0.0327706337,0.03742456436,0.02224111557,2024-06-04 14:18:01.246515
20.28695703,0.001125812531,0.001289963722,-0.03907680511,2024-06-04 14:18:01.286957
20.32742834,-0.05959558487,-0.01853728294,-0.07246685028,2024-06-04 14:18:01.327428
20.36794615,-0.09708833694,-0.04016792774,-0.05369091034,2024-06-04 14:18:01.367946
20.40843656,0.002458572388,0.003861546516,-0.01360177994,2024-06-04 14:18:01.408437
20.44894849,-0.01097393036,0.02132809162,0.05198478699,2024-06-04 14:18:01.448948
20.48940412,0.01308059692,0.01285934448,0.0009713172913,2024-06-04 14:18:01.489404
20.52989031,0.1157875061,0.05871975422,0.04924726486,2024-06-04 14:18:01.529890
20.57042167,-0.02667808533,-0.06149244308,0.02127361298,2024-06-04 14:18:01.570422
20.61089875,0.03079986572,-0.03601694107,-0.0102596283,2024-06-04 14:18:01.610899
20.65139266,-0.05407905579,-0.09864068031,0.01949453354,2024-06-04 14:18:01.651393
20.69187641,0.002377986908,-0.05649924278,-0.06852340698,2024-06-04 14:18:01.691876
20.73236531,0.08305454254,0.01222217083,0.0009064674377,2024-06-04 14:18:01.732365
20.77283234,0.04346132278,0.09631800652,0.06449079514,2024-06-04 14:18:01.772832
20.81335563,-0.01783561707,0.1436947584,-0.002622127533,2024-06-04 14:18:01.813356
20.85382761,-0.01620817184,0.07828915119,-0.07912445068,2024-06-04 14:18:01.853828
20.89428417,-0.08097028732,0.01675355434,0.03542089462,2024-06-04 14:18:01.894284
20.93486625,-0.003106594086,-0.1188406944,-0.001098632812,2024-06-04 14:18:01.934866
20.97528198,-0.02706670761,-0.1889679432,-0.003105163574,2024-06-04 14:18:01.975282
21.01579917,-0.04217290878,-0.04917490482,-0.06303453445,2024-06-04 14:18:02.015799
21.05631542,-0.03668928146,0.01084339619,0.02158594131,2024-06-04 14:18:02.056315
21.09674052,0.09798192978,0.178514719,0.02584123611,2024-06-04 14:18:02.096741
21.1372301,0.007617950439,0.1472100019,0.04700374603,2024-06-04 14:18:02.137230
21.17769,0.01380300522,0.09328198433,-0.03260087967,2024-06-04 14:18:02.177690
21.21817922,-0.1436047554,-0.02981245518,-0.02265310287,2024-06-04 14:18:02.218179
21.25866688,0.0634355545,-0.07355999947,-0.133161068,2024-06-04 14:18:02.258667
21.2991901,0.01312017441,-0.1124154329,0.04664945602,2024-06-04 14:18:02.299190
21.33969401,0.07453727722,-0.06296658516,0.135992527,2024-06-04 14:18:02.339694
21.38018459,0.1531829834,0.008832216263,0.08281898499,2024-06-04 14:18:02.380185
21.42067813,-0.02023553848,-0.05255889893,0.02438879013,2024-06-04 14:18:02.420678
21.46117526,0.0354180336,-0.0683785677,-0.03277492523,2024-06-04 14:18:02.461175
21.5017011,-0.0122885704,0.01149785519,-0.007258415222,2024-06-04 14:18:02.501701
21.54215344,-0.08330821991,0.006187796593,-0.1189637184,2024-06-04 14:18:02.542153
21.58268115,-0.00323677063,0.09466040134,-0.05952453613,2024-06-04 14:18:02.582681
21.62312485,-0.0271282196,0.1109820604,0.01227378845,2024-06-04 14:18:02.623125
21.66366266,0.09399175644,0.02907693386,0.06417703629,2024-06-04 14:18:02.663663
21.70414464,0.0571269989,-0.0546656847,0.08932924271,2024-06-04 14:18:02.704145
21.74464318,0.1000919342,-0.06953382492,0.01979064941,2024-06-04 14:18:02.744643
21.78506896,0.06352949142,-0.03054404259,-0.02010011673,2024-06-04 14:18:02.785069
21.82558193,-0.09875869751,-0.0675290823,-0.0780134201,2024-06-04 14:18:02.825582
21.86610667,-0.1790146828,0.05242013931,0.04280281067,2024-06-04 14:18:02.866107
21.90654031,-0.2159118652,0.01010882854,0.006853580475,2024-06-04 14:18:02.906540
21.94703052,-0.04691505432,-0.007087230682,-0.08866786957,2024-06-04 14:18:02.947031
21.98752052,0.07892608643,0.06002485752,-0.05511665344,2024-06-04 14:18:02.987521
22.02798323,-0.004990100861,-0.04641795158,0.09728956223,2024-06-04 14:18:03.027983
22.06847573,0.06080722809,-0.03265202045,-0.001286029816,2024-06-04 14:18:03.068476
22.10895844,-0.002739906311,0.04409706593,0.08829927444,2024-06-04 14:18:03.108958
22.14945354,-0.02620220184,0.02492797375,-0.1091418266,2024-06-04 14:18:03.149454
22.18997417,0.07350254059,-0.08424901962,0.008802890778,2024-06-04 14:18:03.189974
22.2304625,-0.003490447998,0.02363228798,0.0698928833,2024-06-04 14:18:03.230463
22.27097037,0.009566783905,0.07250237465,-0.029088974,2024-06-04 14:18:03.270970
22.31146042,-0.005926609039,0.05758607388,-0.1348867416,2024-06-04 14:18:03.311460
22.35191755,-0.1253876686,0.02026641369,0.0863404274,2024-06-04 14:18:03.351918
22.39240755,-0.005454540253,0.002459049225,-0.04611492157,2024-06-04 14:18:03.392408
22.43292334,0.03642034531,-0.0245757103,0.0163064003,2024-06-04 14:18:03.432923
22.47340615,-0.05027723312,-0.04813170433,-0.1054139137,2024-06-04 14:18:03.473406
22.5139076,0.05608940125,-0.01539218426,0.03813362122,2024-06-04 14:18:03.513908
22.55440302,0.01077413559,0.02249503136,0.07282781601,2024-06-04 14:18:03.554403
22.59486781,0.05198383331,0.04626441002,-0.05269384384,2024-06-04 14:18:03.594868
22.63536365,-0.04538059235,0.05077254772,-0.006442070007,2024-06-04 14:18:03.635364
22.67587511,0.01112127304,-0.003649115562,0.01074457169,2024-06-04 14:18:03.675875
22.71639344,0.04566335678,-0.003110051155,0.03548336029,2024-06-04 14:18:03.716393
22.75686906,-0.036277771,-0.0395179987,-0.009734153748,2024-06-04 14:18:03.756869
22.7972999,-0.01994562149,-0.03827130795,-0.0208106041,2024-06-04 14:18:03.797300
22.83778865,0.00463104248,-0.008435487747,0.03282594681,2024-06-04 14:18:03.837789
22.87827568,0.1065154076,0.03745436668,0.004204273224,2024-06-04 14:18:03.878276
22.91878521,0.04928588867,0.06688058376,0.1556520462,2024-06-04 14:18:03.918785
22.95928521,-0.1254177094,-0.007338643074,-0.003930568695,2024-06-04 14:18:03.959285
22.99980776,-0.1467018127,-0.07051897049,-0.09678888321,2024-06-04 14:18:03.999808
23.04031594,-0.150762558,-0.05704689026,-0.219804287,2024-06-04 14:18:04.040316
23.08075016,-0.02968597412,0.003847956657,-0.01149892807,2024-06-04 14:18:04.080750
23.12118698,-0.03560113907,0.08760356903,-0.00785112381,2024-06-04 14:18:04.121187
23.16173985,0.09821605682,0.08934652805,-0.02776575089,2024-06-04 14:18:04.161740
23.20224104,0.1132540703,0.03251218796,-0.002648830414,2024-06-04 14:18:04.202241
23.24271089,0.1636552811,-0.007960557938,0.08473443985,2024-06-04 14:18:04.242711
23.28320115,-0.008364677429,-0.07690477371,0.06694555283,2024-06-04 14:18:04.283201
23.32369604,0.007521152496,-0.05502653122,-0.01417636871,2024-06-04 14:18:04.323696
23.36415917,-0.05760908127,-0.02202963829,0.02959012985,2024-06-04 14:18:04.364159
23.40466125,0.03523826599,0.0200150013,-0.04092025757,2024-06-04 14:18:04.404661
23.4451488,-0.06343460083,0.004712224007,-0.04318189621,2024-06-04 14:18:04.445149
23.48567578,-0.01427316666,-0.02562057972,-0.01211166382,2024-06-04 14:18:04.485676
23.52618781,0.0350279808,0.06337666512,0.0135884285,2024-06-04 14:18:04.526188
23.56663401,0.000150680542,-0.1326570511,-0.0133023262,2024-06-04 14:18:04.566634
23.6070961,-0.04954910278,-0.02496182919,-0.005835533142,2024-06-04 14:18:04.607096
23.6475661,-0.1341028214,-0.04068350792,-0.03068780899,2024-06-04 14:18:04.647566
23.68806807,-0.09121656418,-0.04006409645,-0.07246303558,2024-06-04 14:18:04.688068
23.72856854,-0.04745054245,0.08373641968,-0.04117441177,2024-06-04 14:18:04.728569
23.7690549,-0.04534721375,0.09432911873,-0.07347345352,2024-06-04 14:18:04.769055
23.80958005,-0.1364750862,0.07821547985,-0.1070671082,2024-06-04 14:18:04.809580
23.85005328,-0.1712331772,-0.02453410625,-0.06521558762,2024-06-04 14:18:04.850053
23.89052563,0.3364267349,0.1260361671,0.2199435234,2024-06-04 14:18:04.890526
23.93102177,0.03070497513,-0.002231121063,-0.02288627625,2024-06-04 14:18:04.931022
23.97153214,-0.08373737335,0.02799868584,0.04629564285,2024-06-04 14:18:04.971532
24.01203823,0.02197742462,-0.01178598404,-0.0820479393,2024-06-04 14:18:05.012038
24.05251396,0.08553791046,0.04947471619,0.07207679749,2024-06-04 14:18:05.052514
24.09300896,0.03290271759,0.04047858715,0.07568120956,2024-06-04 14:18:05.093009
24.13349844,0.1027994156,0.08420372009,0.03980970383,2024-06-04 14:18:05.133498
24.17397708,0.02238941193,0.0196852684,0.0453543663,2024-06-04 14:18:05.173977
24.21445412,0.04456758499,-0.1096354723,0.08302116394,2024-06-04 14:18:05.214454
24.25494307,0.252969265,0.0135422945,0.08416414261,2024-06-04 14:18:05.254943
24.29545031,-0.0791516304,-0.03469920158,0.07135057449,2024-06-04 14:18:05.295450
24.33599141,-0.2219905853,-0.1587036848,-0.09261465073,2024-06-04 14:18:05.335991
24.37641125,-0.1091976166,0.03807353973,-0.153632164,2024-06-04 14:18:05.376411
24.41687469,-0.1294765472,0.1421772242,-0.03771305084,2024-06-04 14:18:05.416875
24.45736412,-0.08749723434,0.1669853926,0.01772069931,2024-06-04 14:18:05.457364
24.49785557,-0.07311010361,0.0266610384,-0.08512544632,2024-06-04 14:18:05.497856
24.5383463,-0.07733154297,0.009330153465,-0.1168026924,2024-06-04 14:18:05.538346
24.57887427,0.07386732101,-0.09060072899,-0.02107286453,2024-06-04 14:18:05.578874
24.61934844,0.1169056892,-0.1306561232,0.069876194,2024-06-04 14:18:05.619348
24.65983787,0.07666444778,-0.1077046394,-0.02611589432,2024-06-04 14:18:05.659838
24.70035469,0.1269044876,-0.06358373165,0.09010648727,2024-06-04 14:18:05.700355
24.74083974,0.06485509872,0.05202865601,0.1472563744,2024-06-04 14:18:05.740840
24.78132193,0.01527738571,0.05304861069,0.08893823624,2024-06-04 14:18:05.781322
24.82179182,-0.04361438751,0.08555555344,0.05936193466,2024-06-04 14:18:05.821792
24.86229026,-0.06837463379,0.05933630466,0.03512907028,2024-06-04 14:18:05.862290
24.90277969,-0.08158969879,-0.0146241188,-0.04478645325,2024-06-04 14:18:05.902780
24.94333229,-0.1416883469,0.01485407352,-0.1329240799,2024-06-04 14:18:05.943332
24.9838101,-0.1851639748,0.1033344269,-0.06357717514,2024-06-04 14:18:05.983810
25.02426214,-0.1301393509,0.1634633541,-0.003949165344,2024-06-04 14:18:06.024262
25.06474406,-0.04365873337,0.1247314215,0.08799648285,2024-06-04 14:18:06.064744
25.10522526,0.1507754326,0.09921109676,-0.05807590485,2024-06-04 14:18:06.105225
25.14571453,0.07099628448,-0.1777135134,-0.08369731903,2024-06-04 14:18:06.145715
25.18625219,0.4710049629,-0.127479434,-0.0111913681,2024-06-04 14:18:06.186252
25.22673724,0.2394366264,-0.040792346,0.2058029175,2024-06-04 14:18:06.226737
25.2671351,0.149597168,-0.2151910067,0.05444192886,2024-06-04 14:18:06.267135
25.30768787,0.3863296509,-0.1048196554,0.02383375168,2024-06-04 14:18:06.307688
25.34811526,0.270362854,0.0120177269,0.1973352432,2024-06-04 14:18:06.348115
25.38863334,0.07011508942,-0.008224010468,0.09608507156,2024-06-04 14:18:06.388633
25.42915099,-0.1832747459,-0.05557632446,0.02726650238,2024-06-04 14:18:06.429151
25.46963714,-0.02038240433,0.01590919495,-0.1108293533,2024-06-04 14:18:06.469637
25.5101225,0.07017183304,-0.06592190266,-0.03469991684,2024-06-04 14:18:06.510123
25.55062073,-0.1107654572,-0.1509258747,-0.01840353012,2024-06-04 14:18:06.550621
25.59111031,0.003784656525,-0.05378890038,-0.06065750122,2024-06-04 14:18:06.591110
25.6315962,0.01104545593,0.1330486536,-0.01513767242,2024-06-04 14:18:06.631596
25.6721024,-0.3076081276,0.08834886551,0.004890918732,2024-06-04 14:18:06.672102
25.71262068,-0.1643643379,0.03028798103,-0.09102773666,2024-06-04 14:18:06.712621
25.75308823,0.06795215607,-0.01436078548,-0.002126216888,2024-06-04 14:18:06.753088
25.79354948,0.07842445374,0.08826649189,0.142616272,2024-06-04 14:18:06.793549
25.83404646,-0.12003088,-0.01715064049,0.02700567245,2024-06-04 14:18:06.834046
25.87454422,-0.05784463882,0.02046632767,-0.08023071289,2024-06-04 14:18:06.874544
25.9150136,-0.2107357979,0.05112361908,0.02248430252,2024-06-04 14:18:06.915014
25.95550849,-0.1418523788,0.07444620132,-0.009511947632,2024-06-04 14:18:06.955508
25.99600412,-0.02022409439,0.08693826199,-0.066426754,2024-06-04 14:18:06.996004
26.03651542,0.02470207214,-0.02310121059,-0.06778526306,2024-06-04 14:18:07.036515
26.07702328,-0.1042313576,-0.1496890783,-0.03550767899,2024-06-04 14:18:07.077023
26.11743505,-0.02742004395,-0.04330515862,-0.1133623123,2024-06-04 14:18:07.117435
26.15792391,0.1547074318,0.06372511387,0.05616807938,2024-06-04 14:18:07.157924
26.19841505,0.008308410645,0.02882564068,0.0802488327,2024-06-04 14:18:07.198415
26.23892964,0.0361623764,0.02097737789,0.0312204361,2024-06-04 14:18:07.238930
26.27942646,-0.01231384277,-0.008954763412,-0.0558590889,2024-06-04 14:18:07.279426
26.31990912,0.1211094856,-0.1243591309,0.01991224289,2024-06-04 14:18:07.319909
26.36039193,0.05427217484,0.01056587696,-0.03192663193,2024-06-04 14:18:07.360392
26.40089214,-0.1482386589,0.009897947311,0.05071210861,2024-06-04 14:18:07.400892
26.44138182,0.04018115997,0.03643786907,-0.07130479813,2024-06-04 14:18:07.441382
26.48190151,0.07400846481,0.1139390469,0.08044719696,2024-06-04 14:18:07.481902
26.5223888,-0.0681643486,0.03645849228,-0.009899139404,2024-06-04 14:18:07.522389
26.56285865,-0.09757089615,0.05389738083,-0.0006403923035,2024-06-04 14:18:07.562859
26.60333307,-0.09430837631,-0.05148983002,-0.03361272812,2024-06-04 14:18:07.603333
26.64383245,0.04449701309,-0.05626308918,-0.02367210388,2024-06-04 14:18:07.643832
26.68431516,-0.02733612061,-0.01517426968,-0.02630090714,2024-06-04 14:18:07.684315
26.72485073,0.0253200531,-0.03264629841,-0.04049730301,2024-06-04 14:18:07.724851
26.76532792,0.05710077286,0.02042412758,0.03903532028,2024-06-04 14:18:07.765328
26.80581813,0.01322603226,0.1171956062,0.1203846931,2024-06-04 14:18:07.805818
26.84631875,0.02971696854,0.05097031593,-0.04471731186,2024-06-04 14:18:07.846319
26.88678391,0.03964853287,0.007373690605,-0.03030014038,2024-06-04 14:18:07.886784
26.92722172,-0.009099006653,-0.06446969509,0.007688045502,2024-06-04 14:18:07.927222
26.96769787,0.04137992859,-0.05928564072,-0.002713680267,2024-06-04 14:18:07.967698
27.0081875,0.01315164566,-0.01551365852,-0.06618928909,2024-06-04 14:18:08.008187
27.048735,-0.02472734451,0.08352923393,0.0138759613,2024-06-04 14:18:08.048735
27.08920052,-0.06231975555,-0.06204247475,-0.03279876709,2024-06-04 14:18:08.089201
27.12967391,0.06355571747,-0.1393157244,0.02986192703,2024-06-04 14:18:08.129674
27.17019896,0.2018203735,-0.09382998943,0.03026580811,2024-06-04 14:18:08.170199
27.21070495,0.06685161591,-0.07797503471,0.03841972351,2024-06-04 14:18:08.210705
27.25118078,-0.07262325287,0.003333091736,-0.003601074219,2024-06-04 14:18:08.251181
27.29166938,-0.05064725876,0.1228419542,-0.04587268829,2024-06-04 14:18:08.291669
27.33218115,0.04022312164,0.2118848562,0.04550790787,2024-06-04 14:18:08.332181
27.37262,-0.02283334732,0.1082725525,0.03420448303,2024-06-04 14:18:08.372620
27.41312396,-0.01833486557,-0.03774833679,-0.03171825409,2024-06-04 14:18:08.413124
27.45360776,-0.1302409172,-0.04133439064,-0.06443119049,2024-06-04 14:18:08.453608
27.49413901,-0.1270675659,-0.05090761185,-0.1360659599,2024-06-04 14:18:08.494139
27.534645,-0.06324243546,-0.06160223484,-0.1411604881,2024-06-04 14:18:08.534645
27.57508979,-0.1121087074,0.04624354839,0.0523147583,2024-06-04 14:18:08.575090
27.61557917,-0.0957365036,-0.03266561031,-0.02090883255,2024-06-04 14:18:08.615579
27.65612787,0.09099006653,0.06380593777,0.03573417664,2024-06-04 14:18:08.656128
27.69661688,0.06409502029,0.04033780098,0.07977151871,2024-06-04 14:18:08.696617
27.73702219,0.08450460434,0.05971300602,0.06528282166,2024-06-04 14:18:08.737022
27.7775125,0.005070209503,-0.1150683165,0.01851463318,2024-06-04 14:18:08.777513
27.81801724,-0.09831476212,-0.0915722847,-0.01164722443,2024-06-04 14:18:08.818017
27.85850761,-0.04384374619,0.1538530588,-0.0451631546,2024-06-04 14:18:08.858508
27.89899797,0.0545334816,0.1477428675,0.04589128494,2024-06-04 14:18:08.898998
27.9395012,0.02577924728,0.1058759689,0.1009764671,2024-06-04 14:18:08.939501
27.97998469,0.0388045311,0.01468145847,-0.04376840591,2024-06-04 14:18:08.979985
28.0205186,-0.01436281204,-0.1129212379,-0.03338193893,2024-06-04 14:18:09.020519
28.06098328,-0.07781982422,-0.1469391584,0.01574325562,2024-06-04 14:18:09.060983
28.10144818,0.04867219925,-0.0555306673,0.03244161606,2024-06-04 14:18:09.101448
28.1419386,0.04473400116,0.03604543209,0.01327562332,2024-06-04 14:18:09.141939
28.18244599,-0.00387430191,0.0446023941,-0.005158424377,2024-06-04 14:18:09.182446
28.22293766,0.003256797791,0.07258236408,-0.0275349617,2024-06-04 14:18:09.222938
28.26342182,-0.03901433945,-0.00206387043,-0.002779006958,2024-06-04 14:18:09.263422
28.30391823,-0.02156543732,-0.008395433426,-0.04788303375,2024-06-04 14:18:09.303918
28.34440172,-0.01571989059,-0.01928758621,-0.02368927002,2024-06-04 14:18:09.344402
28.38485167,0.01889801025,0.004434347153,-0.003332614899,2024-06-04 14:18:09.384852
28.42536438,0.1198935509,0.07320427895,0.009997844696,2024-06-04 14:18:09.425364
28.46587834,-0.02741765976,-0.03622293472,0.04938411713,2024-06-04 14:18:09.465878
28.50644214,-0.08436584473,-0.03597331047,-0.04836750031,2024-06-04 14:18:09.506442
28.54690037,-0.02603244781,0.03321754932,-0.08069801331,2024-06-04 14:18:09.546900
28.58728787,-0.02663946152,0.06095945835,-0.01263380051,2024-06-04 14:18:09.587288
28.62777172,0.03286409378,0.04045712948,0.01880216599,2024-06-04 14:18:09.627772
28.66826125,0.05832862854,-0.08439195156,0.06374502182,2024-06-04 14:18:09.668261
28.70876641,0.07449483871,-0.0646469593,0.09669542313,2024-06-04 14:18:09.708766
28.74929834,-0.01650857925,-0.03637468815,-0.00540971756,2024-06-04 14:18:09.749298
28.78980365,-0.06732130051,-0.003898978233,-0.02490282059,2024-06-04 14:18:09.789804
28.83028422,-0.004858970642,0.03067910671,-0.01171684265,2024-06-04 14:18:09.830284
28.87078125,0.0631108284,0.04747164249,0.02278900146,2024-06-04 14:18:09.870781
28.91126719,0.03492546082,0.004809617996,0.03408765793,2024-06-04 14:18:09.911267
28.95176292,-0.01936101913,-0.009467601776,-0.004672527313,2024-06-04 14:18:09.951763
28.99224234,-0.06751966476,0.002582192421,-0.05222606659,2024-06-04 14:18:09.992242
29.03275927,-0.05273103714,0.02779853344,-0.04025363922,2024-06-04 14:18:10.032759
29.073215,-0.00132894516,0.01567852497,-0.006730079651,2024-06-04 14:18:10.073215
29.11368813,0.01726293564,-0.02124297619,5.81741333e-05,2024-06-04 14:18:10.113688
29.15419068,-0.002909183502,-0.01244401932,0.006621360779,2024-06-04 14:18:10.154191
29.1946949,-0.00506734848,-0.009739875793,-0.01945447922,2024-06-04 14:18:10.194695
29.23515667,-0.008864402771,0.009101033211,-0.00140619278,2024-06-04 14:18:10.235157
29.275665,-0.009650707245,-0.001366615295,-0.002614498138,2024-06-04 14:18:10.275665
29.31621297,-0.002913951874,0.014575243,-0.01198005676,2024-06-04 14:18:10.316213
29.35667016,-0.005823612213,0.0138412714,0.005658149719,2024-06-04 14:18:10.356670
29.39712219,0.006429672241,-0.002770781517,0.02948141098,2024-06-04 14:18:10.397122
29.43760834,0.03458976746,-0.0126928091,-0.002858161926,2024-06-04 14:18:10.437608
29.47809146,0.02571630478,0.02991580963,-0.0216460228,2024-06-04 14:18:10.478091
29.51860167,-0.02967691422,0.004057884216,0.01981878281,2024-06-04 14:18:10.518602
29.55910042,-0.04082727432,-0.02160894871,0.008554458618,2024-06-04 14:18:10.559100
29.59959396,-0.0001702308655,-0.03544890881,-0.08605146408,2024-06-04 14:18:10.599594
29.6400426,0.03601074219,-0.007985711098,-0.02927494049,2024-06-04 14:18:10.640043
29.6805674,-0.03249359131,0.01352477074,0.04873085022,2024-06-04 14:18:10.680567
29.72104886,-0.01293325424,-0.007103800774,0.04799556732,2024-06-04 14:18:10.721049
29.76152667,0.007399082184,0.01236903667,0.01854228973,2024-06-04 14:18:10.761527
29.80203927,-0.0140709877,0.01384496689,0.006687641144,2024-06-04 14:18:10.802039
29.84252745,-0.02455377579,-0.05192065239,0.003382205963,2024-06-04 14:18:10.842527
29.88301047,0.06316423416,0.08577930927,-0.03565883636,2024-06-04 14:18:10.883010
29.92352802,-0.02929544449,-0.1297127008,0.03144645691,2024-06-04 14:18:10.923528
29.96402886,-0.03466558456,0.02931892872,-0.01357221603,2024-06-04 14:18:10.964029
30.00452255,0.05177211761,0.002623319626,-0.05843448639,2024-06-04 14:18:11.004523
30.04497386,-0.05673360825,0.06434631348,0.06144809723,2024-06-04 14:18:11.044974
30.08545714,0.03783655167,0.2511814833,0.1021904945,2024-06-04 14:18:11.085457
30.12595354,-0.07873916626,-0.03951764107,-0.0165681839,2024-06-04 14:18:11.125954
30.16641182,-0.0628991127,-0.0505490303,-0.1028389931,2024-06-04 14:18:11.166412
30.20690604,0.01650476456,0.08239579201,-0.1038908958,2024-06-04 14:18:11.206906
30.24739391,-0.03394842148,0.09386992455,0.009853363037,2024-06-04 14:18:11.247394
30.28788334,-0.007171630859,-0.06306838989,0.04594898224,2024-06-04 14:18:11.287883
30.32838943,0.1034703255,-0.1046673059,-0.03399801254,2024-06-04 14:18:11.328389
30.36885443,0.09006738663,-0.214490056,0.009257793427,2024-06-04 14:18:11.368854
30.40935891,0.0767993927,-0.04257524014,0.0492682457,2024-06-04 14:18:11.409359
30.44985209,0.1790437698,0.112614274,0.08833026886,2024-06-04 14:18:11.449852
30.49035912,0.06887865067,0.03362882137,0.1259078979,2024-06-04 14:18:11.490359
30.53083271,0.06130933762,0.06894814968,0.0285820961,2024-06-04 14:18:11.530833
30.57138026,-0.05241250992,-0.04048907757,-0.0277223587,2024-06-04 14:18:11.571380
30.61182969,-0.212387085,-0.07580089569,-0.06662416458,2024-06-04 14:18:11.611830
30.65233208,-0.05476856232,-0.0258295536,-0.1515722275,2024-06-04 14:18:11.652332
30.69281427,-0.05046081543,-0.01677918434,-0.05890464783,2024-06-04 14:18:11.692814
30.7333049,-0.09170818329,-0.01780486107,0.01849937439,2024-06-04 14:18:11.733305
30.7737836,-0.03964424133,0.2860467434,0.03213167191,2024-06-04 14:18:11.773784
30.81427698,0.1085038185,0.171777606,-0.01336050034,2024-06-04 14:18:11.814277
30.85477854,0.08826160431,0.09566855431,0.1086950302,2024-06-04 14:18:11.854779
30.89523172,0.1326565742,-0.1033697128,0.05539989471,2024-06-04 14:18:11.895232
30.93574271,-0.00897026062,-0.1613782644,0.06355571747,2024-06-04 14:18:11.935743
30.97624172,-0.0820941925,-0.05806410313,-0.05288076401,2024-06-04 14:18:11.976242
31.01677224,-0.07651567459,-0.01361942291,-0.1004781723,2024-06-04 14:18:12.016772
31.05726188,-0.09854316711,-0.03263354301,-0.01535320282,2024-06-04 14:18:12.057262
31.09767057,0.01673364639,0.008520364761,0.006640911102,2024-06-04 14:18:12.097671
31.13816016,0.01585817337,0.01356101036,-0.007321834564,2024-06-04 14:18:12.138160
31.17864979,-0.03605604172,0.003272175789,0.01998281479,2024-06-04 14:18:12.178650
31.21917932,0.03887844086,0.02686059475,-0.03024053574,2024-06-04 14:18:12.219179
31.25968,0.06067800522,0.009279370308,0.01484298706,2024-06-04 14:18:12.259680
31.30015031,0.008928775787,-0.004006624222,0.04409694672,2024-06-04 14:18:12.300150
31.34062828,0.0187997818,-0.01299476624,-0.002568721771,2024-06-04 14:18:12.340628
31.38110485,-0.01425218582,-0.002284884453,-0.009651660919,2024-06-04 14:18:12.381105
31.42161089,-0.09061717987,0.009106993675,-0.03424358368,2024-06-04 14:18:12.421611
31.4621524,-0.03139305115,-0.007371425629,-0.09352254868,2024-06-04 14:18:12.462152
31.50260505,-0.004325389862,0.05298411846,0.05610227585,2024-06-04 14:18:12.502605
31.54311292,0.07003068924,0.03667318821,0.02354669571,2024-06-04 14:18:12.543113
31.58357646,0.02862405777,7.748603821e-06,0.009421348572,2024-06-04 14:18:12.583576
31.62407698,-0.06085824966,-0.08697593212,-0.0137424469,2024-06-04 14:18:12.624077
31.66455156,-6.198883057e-06,-0.02558469772,-0.01188516617,2024-06-04 14:18:12.664552
31.70504396,0.02496910095,0.03866326809,0.02719640732,2024-06-04 14:18:12.705044
31.74554005,0.004346847534,0.03780925274,-0.0005202293396,2024-06-04 14:18:12.745540
31.7860575,-0.01798772812,0.01259624958,-0.02439498901,2024-06-04 14:18:12.786057
31.82656391,-0.0199713707,-0.001858472824,-0.01017093658,2024-06-04 14:18:12.826564
31.86695813,-0.006330013275,0.009141564369,-0.002239704132,2024-06-04 14:18:12.866958
31.90744787,0.01942825317,-0.02827501297,-0.0005826950073,2024-06-04 14:18:12.907448
31.94793625,-0.04173946381,-0.07226455212,0.07985401154,2024-06-04 14:18:12.947936
31.98846662,0.2923903465,0.151275754,-0.2677540779,2024-06-04 14:18:12.988467
32.02895417,-0.1524968147,-0.02255570889,0.2007565498,2024-06-04 14:18:13.028954
32.06944188,-0.4655566216,-0.1154018641,0.1525945663,2024-06-04 14:18:13.069442
32.10992818,0.6001243591,0.1002610922,-0.2404961586,2024-06-04 14:18:13.109928
32.15044094,-0.1695709229,-0.08823037148,0.1366286278,2024-06-04 14:18:13.150441
32.19092125,0.02486228943,0.06898379326,0.3704743385,2024-06-04 14:18:13.190921
32.23139891,-0.9111018181,-0.5735253096,1.382999897,2024-06-04 14:18:13.231399
32.2718951,0.03451013565,0.3804745674,-0.9990677834,2024-06-04 14:18:13.271895
32.31241307,-0.7933735847,0.3445230722,-0.917321682,2024-06-04 14:18:13.312413
32.35288703,-0.7061882019,-0.8548665047,0.3930120468,2024-06-04 14:18:13.352887
32.39336078,-0.6315822601,-1.217876554,0.2787122726,2024-06-04 14:18:13.393361
32.43385011,0.7969298363,-0.2844042778,0.3384666443,2024-06-04 14:18:13.433850
32.47435182,1.112519264,0.2542820573,-0.6839871407,2024-06-04 14:18:13.474352
32.51486167,0.3963851929,0.2228289843,-0.3169884682,2024-06-04 14:18:13.514862
32.55536297,0.4794650078,0.2528324127,0.3120989799,2024-06-04 14:18:13.555363
32.59583953,0.8780455589,0.2074377537,0.1057963371,2024-06-04 14:18:13.595840
32.63635354,0.4234414101,-0.1863952875,0.3746576309,2024-06-04 14:18:13.636354
32.67684719,-0.02005577087,-0.2397322059,0.1314330101,2024-06-04 14:18:13.676847
32.71733729,0.1181349754,0.2385645211,-0.06075620651,2024-06-04 14:18:13.717337
32.75779979,-0.04004526138,0.1837978363,-0.3380827904,2024-06-04 14:18:13.757800
32.79823474,-0.1773891449,0.06187158823,-0.2362008095,2024-06-04 14:18:13.798235
32.83875516,-0.1930084229,0.1598751545,-0.263739109,2024-06-04 14:18:13.838755
32.87926047,-0.05353307724,-0.04235047102,0.009683132172,2024-06-04 14:18:13.879260
32.91973646,-0.2043781281,-0.0343515873,-0.08612155914,2024-06-04 14:18:13.919736
32.9602399,-0.2557935715,0.2045772076,-0.3877220154,2024-06-04 14:18:13.960240
33.00075162,-0.07362365723,0.2093484402,-0.3666000366,2024-06-04 14:18:14.000752
33.04120813,-0.1176753044,0.01617127657,-0.1384420395,2024-06-04 14:18:14.041208
33.08169974,0.2126436234,0.2443430424,-0.04791927338,2024-06-04 14:18:14.081700
33.12220031,0.2491388321,0.06267088652,0.1123423576,2024-06-04 14:18:14.122200
33.16267693,-0.3658881187,-0.1497485042,0.08374357224,2024-06-04 14:18:14.162677
33.20316537,-0.2663474083,-0.03650307655,0.01567554474,2024-06-04 14:18:14.203165
33.24366167,0.06252145767,0.09318649769,-0.1694631577,2024-06-04 14:18:14.243662
33.28416719,0.04127979279,-0.003507375717,0.05457115173,2024-06-04 14:18:14.284167
33.32468417,-0.1037683487,-0.08168709278,0.1494574547,2024-06-04 14:18:14.324684
33.36511495,0.0281252861,-0.04636585712,0.06450080872,2024-06-04 14:18:14.365115
33.40561495,0.1401033401,-0.05432391167,0.08489608765,2024-06-04 14:18:14.405615
33.44614172,0.05521821976,-0.05105507374,0.02002954483,2024-06-04 14:18:14.446142
33.48662334,0.07220840454,0.02038407326,-0.1443362236,2024-06-04 14:18:14.486623
33.52705703,0.1588220596,0.2449259758,-0.3336801529,2024-06-04 14:18:14.527057
33.56752531,0.285630703,0.2813204527,-0.1184530258,2024-06-04 14:18:14.567525
33.60801448,0.02828502655,0.09114849567,-0.1079487801,2024-06-04 14:18:14.608014
33.6485601,0.009691238403,0.09626424313,0.07763957977,2024-06-04 14:18:14.648560
33.68905604,-0.06095695496,-0.03146469593,0.2282996178,2024-06-04 14:18:14.689056
33.72954146,-0.3195705414,-0.2431725264,0.3713231087,2024-06-04 14:18:14.729541
33.77003443,-0.1189498901,-0.2008937597,0.309762001,2024-06-04 14:18:14.770034
33.81053375,0.01050710678,-0.3194961548,0.6311903,2024-06-04 14:18:14.810534
33.85099115,-0.1709079742,-0.3647587299,0.3781895638,2024-06-04 14:18:14.850991
33.89148177,0.1723451614,0.01993966103,-0.08904600143,2024-06-04 14:18:14.891482
33.93197443,-0.03636264801,0.3604863882,-0.3889565468,2024-06-04 14:18:14.931974
33.97245964,-0.3215322495,0.2987127304,-0.5896172523,2024-06-04 14:18:14.972460
34.01297464,-0.4553985596,0.07693004608,-0.7796978951,2024-06-04 14:18:15.012975
34.05345875,-0.4793949127,0.03914690018,-0.4121832848,2024-06-04 14:18:15.053459
34.09394318,-0.2784738541,0.1635657549,-0.1237845421,2024-06-04 14:18:15.093943
34.13443276,0.06363010406,0.1444922686,-0.0444021225,2024-06-04 14:18:15.134433
34.17491823,0.006438732147,-0.09707021713,0.06668758392,2024-06-04 14:18:15.174918
34.21539427,0.09146595001,-0.2289397717,0.3292279243,2024-06-04 14:18:15.215394
34.25591234,0.429418087,-0.1668953896,0.3610010147,2024-06-04 14:18:15.255912
34.29642849,0.435482502,-0.1429738998,0.4046673775,2024-06-04 14:18:15.296428
34.3368586,0.2742667198,-0.1651754379,0.3336372375,2024-06-04 14:18:15.336859
34.3773299,0.1443791389,-0.1097881794,0.1512989998,2024-06-04 14:18:15.377330
34.41783828,0.05668735504,-0.1046435833,-0.03684282303,2024-06-04 14:18:15.417838
34.45832781,-0.05805110931,-0.02478313446,-0.101064682,2024-06-04 14:18:15.458328
34.49885459,-0.09482002258,0.03937506676,-0.1671919823,2024-06-04 14:18:15.498855
34.53935943,-0.1110224724,0.04566383362,-0.1785402298,2024-06-04 14:18:15.539359
34.57982901,-0.07863616943,0.01032233238,-0.121172905,2024-06-04 14:18:15.579829
34.6203,-0.03312301636,-0.0135717392,-0.02110958099,2024-06-04 14:18:15.620300
34.66078943,0.06667709351,-0.05781316757,0.022813797,2024-06-04 14:18:15.660789
34.70129906,0.1023845673,-0.09428548813,0.1032795906,2024-06-04 14:18:15.701299
34.74177386,0.09669828415,-0.08686137199,0.09477567673,2024-06-04 14:18:15.741774
34.78226229,0.1035308838,-0.02942848206,0.07887077332,2024-06-04 14:18:15.782262
34.82276599,0.04133605957,-0.02345013618,0.047311306,2024-06-04 14:18:15.822766
34.86325932,-0.01251506805,-0.002352237701,-0.02143478394,2024-06-04 14:18:15.863259
34.90374875,-0.01049423218,-0.01367902756,-0.07138872147,2024-06-04 14:18:15.903749
34.94423162,-0.0254406929,-0.0007393360138,-0.03869724274,2024-06-04 14:18:15.944232
34.98473172,-0.006593704224,0.002789974213,-0.0295624733,2024-06-04 14:18:15.984732
35.02525209,0.01202774048,-0.02926301956,0.000111579895,2024-06-04 14:18:16.025252
35.06568422,0.04024076462,-0.02616262436,0.04589223862,2024-06-04 14:18:16.065684
35.10623068,0.03872203827,-0.02444815636,0.03995800018,2024-06-04 14:18:16.106231
35.14672136,0.03896951675,-0.01429057121,0.02689313889,2024-06-04 14:18:16.146721
35.18711078,0.002603530884,-0.03077912331,-0.03246164322,2024-06-04 14:18:16.187111
35.22760115,-0.01506328583,-0.008619308472,-0.02627134323,2024-06-04 14:18:16.227601
35.26812453,0.008926868439,0.01915979385,-0.004687309265,2024-06-04 14:18:16.268125
35.3086161,0.006976127625,-0.006146430969,-0.005435943604,2024-06-04 14:18:16.308616
35.34912719,0.02029752731,-0.004291057587,0.002906799316,2024-06-04 14:18:16.349127
35.38963438,0.002851009369,-0.0377869606,-0.01302242279,2024-06-04 14:18:16.389634
35.43009047,0.0001955032349,-0.01571464539,0.004657268524,2024-06-04 14:18:16.430090
35.47059068,0.01650953293,-0.001847982407,0.01601552963,2024-06-04 14:18:16.470591
35.5110838,-0.01421499252,-0.007127285004,-0.01207113266,2024-06-04 14:18:16.511084
35.55157682,0.01235103607,0.01974058151,-0.002757549286,2024-06-04 14:18:16.551577
35.59205615,-0.03697490692,-0.02750563622,-0.03247404099,2024-06-04 14:18:16.592056
35.63256948,0.0007448196411,-0.0007758140564,-0.01956176758,2024-06-04 14:18:16.632569
35.67309271,-0.009944915771,0.006222486496,-0.009516239166,2024-06-04 14:18:16.673093
35.71358234,0.02374124527,-0.02509570122,0.01503133774,2024-06-04 14:18:16.713582
35.75400844,0.08717536926,-0.01920175552,0.05210781097,2024-06-04 14:18:16.754008
35.79450557,0.03520393372,-0.0244820118,0.04566526413,2024-06-04 14:18:16.794506
35.83500552,0.001577854156,0.0008347034454,0.0001168251038,2024-06-04 14:18:16.835006
35.87548599,-0.04457473755,0.03153824806,-0.0497546196,2024-06-04 14:18:16.875486
35.915985,-0.08227920532,0.01142239571,-0.07206964493,2024-06-04 14:18:16.915985
35.95648,-0.03156900406,-0.02465391159,-0.05793476105,2024-06-04 14:18:16.956480
35.99694287,0.01108646393,-0.006428480148,-0.0001993179321,2024-06-04 14:18:16.996943
36.03742505,0.04614496231,-0.01238679886,0.04553699493,2024-06-04 14:18:17.037425
36.07790594,0.05583238602,-0.006350278854,0.06941890717,2024-06-04 14:18:17.077906
36.11840146,0.02198839188,0.0005121231079,0.05011463165,2024-06-04 14:18:17.118401
36.15888938,0.02599668503,-0.004588842392,0.005212306976,2024-06-04 14:18:17.158889
36.19940901,-0.01999187469,-0.003962516785,-0.01245450974,2024-06-04 14:18:17.199409
36.23989834,-0.02527570724,-0.006262779236,-0.06932163239,2024-06-04 14:18:17.239898
36.28037948,-0.05028009415,-0.006435632706,-0.04325628281,2024-06-04 14:18:17.280379
36.32086959,-0.03508996964,0.001886606216,-0.04032945633,2024-06-04 14:18:17.320870
36.36135521,0.007124423981,0.01683926582,0.005959510803,2024-06-04 14:18:17.361355
36.40185834,0.02242898941,0.002552986145,0.04721879959,2024-06-04 14:18:17.401858
36.4423851,0.04696083069,-0.0384759903,0.02478313446,2024-06-04 14:18:17.442385
36.48289328,0.01871156693,-0.01142382622,0.0002212524414,2024-06-04 14:18:17.482893
36.52335578,-0.001310825348,-0.007251024246,-0.001253128052,2024-06-04 14:18:17.523356
36.56382318,-0.01940202713,0.009439468384,-0.01447725296,2024-06-04 14:18:17.563823
36.60430901,-0.03401708603,0.01647233963,-0.03026151657,2024-06-04 14:18:17.604309
36.64479677,-0.02882051468,-0.006281614304,-0.03892660141,2024-06-04 14:18:17.644797
36.68527172,-0.005037307739,-0.001250743866,0.002905368805,2024-06-04 14:18:17.685272
36.72581537,0.02220058441,0.003696918488,0.0003657341003,2024-06-04 14:18:17.725815
36.76631771,-0.04629278183,0.03559780121,-0.01608848572,2024-06-04 14:18:17.766318
36.80679807,0.008851051331,0.004891395569,-0.0146241188,2024-06-04 14:18:17.806798
36.84728709,0.0531129837,0.001237869263,0.04759263992,2024-06-04 14:18:17.847287
36.88777604,0.02815294266,-0.0178604126,0.02479743958,2024-06-04 14:18:17.887776
36.928265,-0.008301734924,-0.03698515892,0.01291370392,2024-06-04 14:18:17.928265
36.96871531,0.001523017883,-0.01599287987,0.01746702194,2024-06-04 14:18:17.968715
37.00925818,-0.00118303299,-0.009313106537,0.005396366119,2024-06-04 14:18:18.009258
37.04969047,-0.06525993347,-0.01860380173,-0.04820394516,2024-06-04 14:18:18.049690
37.09017844,-0.01323223114,0.03748607635,-0.03938341141,2024-06-04 14:18:18.090178
37.13061802,-0.004778385162,0.01876831055,-0.0003981590271,2024-06-04 14:18:18.130618
37.17117938,0.006436824799,0.0008895397186,0.03476762772,2024-06-04 14:18:18.171179
37.21164078,0.07238578796,-0.02135276794,0.02081155777,2024-06-04 14:18:18.211641
37.2521238,0.0189538002,-0.03327131271,0.02904415131,2024-06-04 14:18:18.252124
37.29264193,-0.01422119141,-0.01168823242,-0.01215267181,2024-06-04 14:18:18.292642
37.33311104,-0.04641962051,0.001617670059,-0.03687047958,2024-06-04 14:18:18.333111
37.37360636,-0.02493715286,0.01840949059,-0.0250582695,2024-06-04 14:18:18.373606
37.41412052,0.00245141983,0.01495862007,-0.01795864105,2024-06-04 14:18:18.414121
37.45459563,0.0001587867737,-0.01032352448,0.02644062042,2024-06-04 14:18:18.454596
37.49507281,0.007557868958,-0.01150846481,0.01563882828,2024-06-04 14:18:18.495073
37.5356199,0.01335048676,-0.006294250488,0.01319265366,2024-06-04 14:18:18.535620
37.57611078,-0.006142616272,-0.001751184464,-0.007173538208,2024-06-04 14:18:18.576111
37.61663334,-0.007388114929,0.003575325012,-0.01748418808,2024-06-04 14:18:18.616633
37.65699557,-0.009339332581,-0.02407884598,-0.02165317535,2024-06-04 14:18:18.656996
37.69748422,-0.01088905334,-0.004238843918,-0.0005226135254,2024-06-04 14:18:18.697484
37.73797292,0.007566928864,0.01911139488,-0.002847194672,2024-06-04 14:18:18.737973
37.77846162,0.01987552643,0.02654075623,0.03119802475,2024-06-04 14:18:18.778462
37.81903104,-0.009859085083,-0.007209539413,0.01112890244,2024-06-04 14:18:18.819031
37.85950344,0.01835298538,-0.01301622391,-0.04597902298,2024-06-04 14:18:18.859503
37.89999214,-0.05343866348,-0.02153754234,-0.005706310272,2024-06-04 14:18:18.899992
37.94049,-0.02259778976,-0.02366065979,-0.02690696716,2024-06-04 14:18:18.940490
37.98097052,0.008793354034,-0.01269364357,-0.00346326828,2024-06-04 14:18:18.980971
38.02143391,0.02069807053,0.005969762802,0.01347541809,2024-06-04 14:18:19.021434
38.06194349,0.05227661133,0.06340479851,0.02515029907,2024-06-04 14:18:19.061943
38.10242136,-0.01149272919,0.008632183075,-0.01016283035,2024-06-04 14:18:19.102421
38.14291021,-0.03845977783,-0.02699947357,-0.03515863419,2024-06-04 14:18:19.142910
38.18341115,-0.03246736526,-0.03814029694,-0.03880214691,2024-06-04 14:18:19.183411
38.22389604,0.01020765305,-0.001966714859,-0.004108905792,2024-06-04 14:18:19.223896
38.26440578,0.02476644516,0.008427143097,0.0280046463,2024-06-04 14:18:19.264406
38.3048849,0.006443977356,0.004787445068,0.01757526398,2024-06-04 14:18:19.304885
38.34536787,0.003749370575,-0.00194478035,0.001561164856,2024-06-04 14:18:19.345368
38.38583125,-0.0006804466248,0.002643585205,-0.004240989685,2024-06-04 14:18:19.385831
38.42641625,-0.004790782928,0.00899887085,-0.01061201096,2024-06-04 14:18:19.426416
38.46684068,-0.02142572403,-0.01468014717,-0.02923679352,2024-06-04 14:18:19.466841
38.50732068,-0.005780220032,0.0006382465363,0.006695270538,2024-06-04 14:18:19.507321
38.54781026,0.0007452964783,0.008247375488,0.00338602066,2024-06-04 14:18:19.547810
38.58829995,0.006003856659,-0.001497268677,0.01537752151,2024-06-04 14:18:19.588300
38.62878958,-0.009435176849,-0.005249738693,-0.03004550934,2024-06-04 14:18:19.628790
38.66929224,-0.01282310486,0.001797199249,-0.0127658844,2024-06-04 14:18:19.669292
38.70980557,0.0003952980042,-0.005395412445,-0.0004811286926,2024-06-04 14:18:19.709806
38.75028386,0.02099084854,0.002898931503,0.006665229797,2024-06-04 14:18:19.750284
38.79076104,-0.006316184998,0.00125002861,-0.004919528961,2024-06-04 14:18:19.790761
38.83126755,0.01461172104,-0.00430226326,-0.00884771347,2024-06-04 14:18:19.831268
38.87178042,-0.001345157623,-0.002210855484,0.002831935883,2024-06-04 14:18:19.871780
38.91225734,0.002985954285,-0.01190328598,0.001089096069,2024-06-04 14:18:19.912257
38.95271443,-0.004550933838,0.01008343697,-0.0001969337463,2024-06-04 14:18:19.952714
38.99321313,-0.008917331696,-0.002027511597,0.002861022949,2024-06-04 14:18:19.993213
39.03372948,0.009881973267,-0.009276866913,0.0001263618469,2024-06-04 14:18:20.033729
39.07419,-0.002194881439,-0.001934528351,-0.01877737045,2024-06-04 14:18:20.074190
39.11469026,0.004872322083,0.001019716263,-0.009704589844,2024-06-04 14:18:20.114690
39.15517729,-0.005825519562,-0.00336933136,0.01623296738,2024-06-04 14:18:20.155177
39.19567484,0.009931087494,0.001420974731,-0.004324913025,2024-06-04 14:18:20.195675
39.23619292,-0.005900382996,-0.007567167282,-0.0008769035339,2024-06-04 14:18:20.236193
39.27666005,0.009907722473,-0.01308274269,0.002815246582,2024-06-04 14:18:20.276660
39.31710089,-0.004309654236,-0.008224964142,-0.003778934479,2024-06-04 14:18:20.317101
39.35759958,-0.01172924042,0.008641958237,0.0009260177612,2024-06-04 14:18:20.357600
39.39809823,-0.03205347061,-0.0182352066,-0.02813863754,2024-06-04 14:18:20.398098
39.43860219,-0.03638887405,0.01077675819,-0.02141332626,2024-06-04 14:18:20.438602
39.47909641,-0.01772737503,-0.02737951279,-0.02500534058,2024-06-04 14:18:20.479096
39.51962162,-0.02344036102,-0.01216578484,0.0002212524414,2024-06-04 14:18:20.519622
39.56010255,0.02614784241,-0.02198719978,0.009092330933,2024-06-04 14:18:20.560103
39.60055203,0.0256524086,0.01667761803,0.03326272964,2024-06-04 14:18:20.600552
39.64104682,0.01430559158,0.03687882423,0.01209974289,2024-06-04 14:18:20.641047
39.68154406,0.002327442169,0.02191972733,0.005309581757,2024-06-04 14:18:20.681544
39.72202896,0.00972032547,0.007929801941,-0.009093761444,2024-06-04 14:18:20.722029
39.76251057,-0.004894733429,-0.01789093018,-0.02616548538,2024-06-04 14:18:20.762511
39.80300641,-0.01658201218,-0.02291512489,-0.007484912872,2024-06-04 14:18:20.803006
39.84351162,0.0008249282837,-0.02431416512,-0.00313949585,2024-06-04 14:18:20.843512
39.88398313,-0.00464963913,-0.004676580429,0.02108812332,2024-06-04 14:18:20.883983
39.92447521,0.005882740021,0.02695870399,0.008688926697,2024-06-04 14:18:20.924475
39.96496141,-0.008351325989,0.02135467529,-0.008040428162,2024-06-04 14:18:20.964961
40.00548334,-0.01235389709,-0.007428646088,-0.01920413971,2024-06-04 14:18:21.005483
40.04599219,-0.006041526794,-0.01973032951,-0.02875804901,2024-06-04 14:18:21.045992
40.08648906,0.01405143738,-0.01422357559,0.005379676819,2024-06-04 14:18:21.086489
40.12698255,0.002146720886,0.001485824585,0.003780841827,2024-06-04 14:18:21.126983
40.16747214,-0.01301908493,0.01523399353,0.007353305817,2024-06-04 14:18:21.167472
40.20791172,0.002017021179,0.02101683617,0.02412557602,2024-06-04 14:18:21.207912
40.24837604,0.03600502014,-0.01485395432,0.01297855377,2024-06-04 14:18:21.248376
40.28890078,0.02448654175,-0.01589894295,0.01365995407,2024-06-04 14:18:21.288901
40.32936984,-0.002194404602,-0.01438450813,-0.01312971115,2024-06-04 14:18:21.329370
40.36982787,-0.00256061554,-0.003298997879,-0.001499176025,2024-06-04 14:18:21.369828
40.4103536,-0.03346014023,0.01425027847,-0.01089334488,2024-06-04 14:18:21.410354
40.45087052,-0.0284371376,0.0140171051,-0.02918338776,2024-06-04 14:18:21.450871
40.49135094,-0.009590625763,0.01003408432,-0.01388931274,2024-06-04 14:18:21.491351
40.53184615,0.001547336578,-0.006496906281,0.001242160797,2024-06-04 14:18:21.531846
40.57232068,0.01927137375,-0.01162409782,0.0125336647,2024-06-04 14:18:21.572321
40.61281063,0.02820158005,-0.03195309639,0.01533126831,2024-06-04 14:18:21.612811
40.65330047,0.01647853851,-0.02470397949,0.01426744461,2024-06-04 14:18:21.653300
40.69378281,0.002252578735,0.002672433853,0.005440711975,2024-06-04 14:18:21.693783
40.73428375,-0.01800107956,0.02907204628,-0.003432750702,2024-06-04 14:18:21.734284
40.77475307,-0.003998756409,0.01665568352,-0.02519702911,2024-06-04 14:18:21.774753
40.8152461,-0.01569318771,-0.008228063583,-0.02218055725,2024-06-04 14:18:21.815246
40.85576188,-0.03156805038,-0.0123963356,-0.03009033203,2024-06-04 14:18:21.855762
40.89624104,-0.02108573914,0.02709531784,0.007335186005,2024-06-04 14:18:21.896241
40.9367275,0.02995157242,0.009614706039,0.003168582916,2024-06-04 14:18:21.936728
40.9772174,0.04036808014,-0.04328417778,0.009521484375,2024-06-04 14:18:21.977217
41.01770729,0.02503919601,-0.05148839951,0.02096509933,2024-06-04 14:18:22.017707
41.05819714,0.02620601654,-0.003842830658,0.04448699951,2024-06-04 14:18:22.058197
41.09866432,-0.002880573273,0.01495814323,0.01664400101,2024-06-04 14:18:22.098664
41.13912958,-0.08442974091,0.01291632652,-0.02652645111,2024-06-04 14:18:22.139130
41.17967886,-0.08239030838,0.03777694702,-0.1167697906,2024-06-04 14:18:22.179679
41.22019417,-0.03212547302,0.02095603943,-0.09240531921,2024-06-04 14:18:22.220194
41.26065224,0.02414560318,-0.01291680336,0.02096176147,2024-06-04 14:18:22.260652
41.30116578,0.1191725731,-0.02685713768,0.07799768448,2024-06-04 14:18:22.301166
41.34161412,0.03649282455,-0.02878856659,0.1120028496,2024-06-04 14:18:22.341614
41.38207625,0.01609706879,-0.001737356186,0.04177904129,2024-06-04 14:18:22.382076
41.4226261,-0.005084991455,0.01382708549,-0.02316808701,2024-06-04 14:18:22.422626
41.46309318,-0.06800413132,0.005612850189,-0.06999778748,2024-06-04 14:18:22.463093
41.50359901,-0.06090354919,-0.02340197563,-0.1018462181,2024-06-04 14:18:22.503599
41.54412021,-0.03657865524,-0.008314847946,-0.06214952469,2024-06-04 14:18:22.544120
41.58458276,0.02363300323,-0.005205392838,0.02521848679,2024-06-04 14:18:22.584583
41.62506584,0.03372526169,0.003232479095,0.0796251297,2024-06-04 14:18:22.625066
41.66554313,0.05850458145,-0.003882646561,0.0564031601,2024-06-04 14:18:22.665543
41.70607016,0.01165819168,-0.005360126495,0.04043531418,2024-06-04 14:18:22.706070
41.74658172,0.002837657928,0.001346588135,-0.0254650116,2024-06-04 14:18:22.746582
41.7869749,-0.02998733521,-0.004304170609,-0.04902362823,2024-06-04 14:18:22.786975
41.82746469,-0.05166387558,0.0139901638,-0.05240345001,2024-06-04 14:18:22.827465
41.86796787,-0.03884983063,0.02180457115,-0.01758956909,2024-06-04 14:18:22.867968
41.90847615,-0.01577758789,0.002935171127,-0.005813598633,2024-06-04 14:18:22.908476
41.94897162,0.0192322731,-0.008608579636,0.003922462463,2024-06-04 14:18:22.948972
41.98946974,0.0362610817,-0.02111744881,0.02933502197,2024-06-04 14:18:22.989470
42.0299962,0.01169729233,-0.01998496056,0.02354955673,2024-06-04 14:18:23.029996
42.07046401,0.01077413559,0.01362895966,0.01158761978,2024-06-04 14:18:23.070464
42.11088266,-0.03421497345,0.006103277206,-0.01648521423,2024-06-04 14:18:23.110883
42.15139104,-0.02371883392,0.005351781845,-0.03345394135,2024-06-04 14:18:23.151391
42.19192266,-0.01869869232,-0.01186561584,-0.01985692978,2024-06-04 14:18:23.191923
42.23241188,-0.006253242493,-0.02664065361,-0.007684230804,2024-06-04 14:18:23.232412
42.27288443,0.008004188538,0.01258659363,0.0288233757,2024-06-04 14:18:23.272884
42.31338641,0.03092908859,0.006990432739,0.03784275055,2024-06-04 14:18:23.313386
42.35388484,0.002946853638,0.005801200867,0.003793716431,2024-06-04 14:18:23.353885
42.39435432,-0.02026844025,-0.012165308,-0.02603006363,2024-06-04 14:18:23.394354
42.43484037,0.01058673859,-0.008164167404,-0.0270280838,2024-06-04 14:18:23.434840
42.47534886,0.0008893013,-0.0005812644958,-0.002439022064,2024-06-04 14:18:23.475349
42.51587714,-0.02459907532,0.01734042168,0.005175113678,2024-06-04 14:18:23.515877
42.55637323,-0.004379749298,0.01524090767,-0.02136135101,2024-06-04 14:18:23.556373
42.59683485,-0.001239299774,-0.006184101105,0.007044315338,2024-06-04 14:18:23.596835
42.6372638,-0.004602909088,-0.01975178719,-0.00340461731,2024-06-04 14:18:23.637264
42.67775745,-0.001225471497,-0.008054494858,-0.009535312653,2024-06-04 14:18:23.677757
42.71825474,-0.01412057877,-0.00528049469,0.003139972687,2024-06-04 14:18:23.718255
42.75875115,0.02352666855,0.0003159046173,-0.0001225471497,2024-06-04 14:18:23.758751
42.79925922,-0.01101112366,-0.02621936798,-0.001621246338,2024-06-04 14:18:23.799259
42.83975214,-0.02667093277,0.04284024239,-0.02077150345,2024-06-04 14:18:23.839752
42.88024,0.01579523087,0.005975484848,-0.002529621124,2024-06-04 14:18:23.880240
42.92073854,-0.003804683685,-0.004701375961,0.007953166962,2024-06-04 14:18:23.920739
42.9612236,-0.002112865448,0.005399227142,0.01483488083,2024-06-04 14:18:23.961224
43.0017388,0.01920700073,0.005610227585,0.002295970917,2024-06-04 14:18:24.001739
43.04221854,0.002376556396,-0.02546572685,0.01003503799,2024-06-04 14:18:24.042219
43.08269938,0.02614307404,-0.003934621811,-0.01121854782,2024-06-04 14:18:24.082699
43.1231911,-0.01419353485,0.0008938312531,0.005311965942,2024-06-04 14:18:24.123191
43.16367568,-0.02827453613,0.01991605759,-0.03022813797,2024-06-04 14:18:24.163676
43.20416453,-0.02240514755,0.02358961105,-0.03125524521,2024-06-04 14:18:24.204165
43.24466141,-0.029296875,-0.006999731064,0.001526832581,2024-06-04 14:18:24.244661
43.28514537,0.03994846344,-0.04294872284,0.01568412781,2024-06-04 14:18:24.285145
43.32561656,0.03664779663,-0.03739643097,0.03526067734,2024-06-04 14:18:24.325617
43.36609703,-0.003148078918,-0.01615428925,0.03255462646,2024-06-04 14:18:24.366097
43.4066212,0.008541584015,0.02970814705,0.002293586731,2024-06-04 14:18:24.406621
43.44712865,-0.01305818558,0.01345896721,-0.02237892151,2024-06-04 14:18:24.447129
43.48761917,-0.04173374176,0.001106500626,-0.04529857635,2024-06-04 14:18:24.487619
43.52805682,-0.04471921921,-0.005947589874,-0.06388044357,2024-06-04 14:18:24.528057
43.56854724,0.02412462234,-6.27040863e-05,0.0185508728,2024-06-04 14:18:24.568547
43.60907646,0.02712869644,-0.01908874512,0.04745674133,2024-06-04 14:18:24.609076
43.64956693,0.01641893387,0.009026288986,0.01148462296,2024-06-04 14:18:24.649567
43.69003302,-0.01667881012,0.0006055831909,0.002794742584,2024-06-04 14:18:24.690033
43.73051484,0.001914024353,-0.001200675964,-0.02867555618,2024-06-04 14:18:24.730515
43.77104724,-0.007968902588,0.005310773849,-0.02925109863,2024-06-04 14:18:24.771047
43.81152766,-0.02056646347,0.008316755295,-0.01574277878,2024-06-04 14:18:24.811528
43.85199255,0.0007162094116,-0.003642082214,0.01083135605,2024-06-04 14:18:24.851993
43.89249271,0.005330562592,-0.006798505783,0.01340770721,2024-06-04 14:18:24.892493
43.93299474,-0.009333610535,0.00815653801,0.008093357086,2024-06-04 14:18:24.932995
43.97350896,-0.001204967499,-0.01041436195,-0.00855922699,2024-06-04 14:18:24.973509
44.01397745,0.02012300491,-0.008297681808,-0.005952835083,2024-06-04 14:18:25.013977
44.05446537,-0.0149435997,0.002220869064,0.001162052155,2024-06-04 14:18:25.054465
44.0949261,-0.02230215073,0.01215267181,-0.01130247116,2024-06-04 14:18:25.094926
44.1354163,0.008597373962,-0.004396677017,-0.009202480316,2024-06-04 14:18:25.135416
44.1759924,0.00923538208,-0.02455925941,0.009352684021,2024-06-04 14:18:25.175992
44.21646667,0.008608341217,-0.005925178528,-0.008850097656,2024-06-04 14:18:25.216467
44.25695682,-0.03809833527,-0.005973100662,-0.01750612259,2024-06-04 14:18:25.256957
44.29744698,0.02854299545,0.002852916718,0.01832056046,2024-06-04 14:18:25.297447
44.3378761,-0.0005536079407,-0.01535606384,0.01621770859,2024-06-04 14:18:25.337876
44.3783575,0.01525354385,0.003726482391,-0.002746582031,2024-06-04 14:18:25.378357
44.41887245,0.003378391266,0.01562404633,0.002278327942,2024-06-04 14:18:25.418872
44.45934281,-0.01021099091,-0.01396036148,-0.02460336685,2024-06-04 14:18:25.459343
44.4998399,-0.01366615295,0.001682281494,-0.03427457809,2024-06-04 14:18:25.499840
44.54034771,-0.007373809814,-0.03474187851,-0.01010799408,2024-06-04 14:18:25.540348
44.58081917,0.003602027893,-0.02004265785,0.01397562027,2024-06-04 14:18:25.580819
44.62133448,-0.01237916946,0.004475355148,0.005571842194,2024-06-04 14:18:25.621334
44.66182104,-0.01393699646,0.01395916939,0.004316329956,2024-06-04 14:18:25.661821
44.70229682,0.009434700012,-0.0001575946808,0.009911060333,2024-06-04 14:18:25.702297
44.74277797,-0.007008075714,-0.003222942352,-0.01406574249,2024-06-04 14:18:25.742778
44.78329693,0.01079845428,0.03626918793,0.005568981171,2024-06-04 14:18:25.783297
44.82377834,0.01143407822,-0.003229618073,0.009934425354,2024-06-04 14:18:25.823778
44.86426693,0.03217077255,0.02109980583,0.01579809189,2024-06-04 14:18:25.864267
44.90473016,-0.0112285614,-0.01390695572,-0.004095554352,2024-06-04 14:18:25.904730
44.94530526,-0.01679134369,-0.0203499794,-0.02279281616,2024-06-04 14:18:25.945305
44.9857688,-0.02181100845,-0.03372836113,-0.02387952805,2024-06-04 14:18:25.985769
45.02622766,-0.0143404007,0.0002129077911,-0.01094150543,2024-06-04 14:18:26.026228
45.06676771,0.006600856781,0.02233290672,0.01657819748,2024-06-04 14:18:26.066768
45.10716854,0.008144378662,-0.03956866264,-0.01134395599,2024-06-04 14:18:26.107169
45.14765922,-0.002833366394,-0.01730775833,0.01646375656,2024-06-04 14:18:26.147659
45.18813969,0.007195472717,0.03616404533,0.005355358124,2024-06-04 14:18:26.188140
45.2286499,0.01127815247,0.02813005447,0.0001192092896,2024-06-04 14:18:26.228650
45.26917156,-0.006772994995,-0.01181554794,-0.01136636734,2024-06-04 14:18:26.269172
45.30964729,-0.01443624496,-0.01283168793,-0.01966667175,2024-06-04 14:18:26.309647
45.35012823,0.0004143714905,0.003547906876,-0.007001876831,2024-06-04 14:18:26.350128
45.39059927,0.01051330566,-0.02873110771,0.01912546158,2024-06-04 14:18:26.390599
45.4310986,0.01333379745,-0.007702112198,0.05359554291,2024-06-04 14:18:26.431099
45.47158719,0.0008463859558,0.002903938293,-0.009065151215,2024-06-04 14:18:26.471587
45.51208162,-0.01332807541,0.01137304306,-0.04088592529,2024-06-04 14:18:26.512082
45.55258047,-0.01582813263,-1.049041748e-05,-0.04056167603,2024-06-04 14:18:26.552580
45.59308052,-0.01114368439,0.002347707748,-0.009996891022,2024-06-04 14:18:26.593081
45.63355927,0.00236415863,0.00524187088,0.004627227783,2024-06-04 14:18:26.633559
45.67404776,0.009641170502,0.006640911102,0.02030611038,2024-06-04 14:18:26.674048
45.71453807,0.01977205276,-0.01623487473,0.01748275757,2024-06-04 14:18:26.714538
45.7550399,-0.01908254623,-0.008781909943,-0.008175849915,2024-06-04 14:18:26.755040
45.79554063,-0.01523017883,-0.005101919174,-0.01584291458,2024-06-04 14:18:26.795541
45.83607281,-0.01950073242,-0.004639625549,-0.0208697319,2024-06-04 14:18:26.836073
45.87654401,-0.006114959717,0.01914024353,-0.00524520874,2024-06-04 14:18:26.876544
45.9170336,0.004642486572,0.01981878281,0.01675844193,2024-06-04 14:18:26.917034
45.95752328,0.01213502884,-0.01144385338,0.001288890839,2024-06-04 14:18:26.957523
45.99801542,0.01778554916,-0.02996611595,0.0008959770203,2024-06-04 14:18:26.998015
46.03849578,0.0006794929504,-0.004744768143,0.003867149353,2024-06-04 14:18:27.038496
46.07894927,-0.01446008682,0.004326105118,0.00590467453,2024-06-04 14:18:27.078949
46.11941063,-0.01512956619,-0.01313138008,-0.03115653992,2024-06-04 14:18:27.119411
46.1599274,-0.005310535431,0.03740811348,0.001054286957,2024-06-04 14:18:27.159927
46.2004425,0.01027059555,0.06587100029,0.0109000206,2024-06-04 14:18:27.200443
46.24093334,0.01719093323,-0.01294779778,0.01637125015,2024-06-04 14:18:27.240933
46.28140891,0.02186632156,-0.06420183182,0.003275871277,2024-06-04 14:18:27.281409
46.32194302,-0.009281158447,-0.06207871437,-0.01897144318,2024-06-04 14:18:27.321943
46.36234932,0.003789901733,-0.02394843102,0.02086830139,2024-06-04 14:18:27.362349
46.40285526,0.003633499146,-0.02632403374,0.0143866539,2024-06-04 14:18:27.402855
46.44337156,-0.03737926483,0.02319002151,-0.03504753113,2024-06-04 14:18:27.443372
46.48386313,-0.06298828125,0.02850461006,-0.07084608078,2024-06-04 14:18:27.483863
46.52437448,-0.03899765015,0.0872130394,-0.01982069016,2024-06-04 14:18:27.524374
46.56484412,0.01111507416,0.03034472466,-0.01177358627,2024-06-04 14:18:27.564844
46.60532943,0.02632808685,0.04326534271,0.07175064087,2024-06-04 14:18:27.605329
46.6458599,0.001514911652,-0.06512737274,0.03682136536,2024-06-04 14:18:27.645860
46.68636453,0.04464387894,-0.1247754097,-0.02128887177,2024-06-04 14:18:27.686365
46.72681,0.03428840637,-0.05880665779,0.0009446144104,2024-06-04 14:18:27.726810
46.76727807,-0.002584457397,0.01549935341,0.02671194077,2024-06-04 14:18:27.767278
46.80775688,-0.03111600876,0.08469486237,-0.01454257965,2024-06-04 14:18:27.807757
46.84824099,-0.04884576797,0.06194257736,-0.06575012207,2024-06-04 14:18:27.848241
46.88873052,-0.01184606552,-0.008821964264,-0.03005838394,2024-06-04 14:18:27.888731
46.9292349,0.01177215576,-0.05266833305,0.005106925964,2024-06-04 14:18:27.929235
46.96973594,0.007695198059,-0.02657318115,0.008815765381,2024-06-04 14:18:27.969736
47.01020432,-0.001591205597,-0.03362512589,0.03620243073,2024-06-04 14:18:28.010204
47.05072276,0.02165365219,0.01761436462,0.03303623199,2024-06-04 14:18:28.050723
47.09119823,-0.01372432709,0.0225045681,0.004655838013,2024-06-04 14:18:28.091198
47.13168776,-0.02488183975,0.01202130318,-0.04572296143,2024-06-04 14:18:28.131688
47.17218479,-0.02015781403,-0.01909470558,-0.03440380096,2024-06-04 14:18:28.172185
47.2126649,0.0195069313,0.003495931625,-0.008441448212,2024-06-04 14:18:28.212665
47.25316063,-0.004072666168,-0.02164316177,0.01613855362,2024-06-04 14:18:28.253161
47.29371834,-0.01094102859,-0.001940488815,0.01637554169,2024-06-04 14:18:28.293718
47.33415584,0.002333164215,0.0132997036,0.007118701935,2024-06-04 14:18:28.334156
47.37463229,-0.0202422142,-0.004071712494,-0.007426738739,2024-06-04 14:18:28.374632
47.41511292,0.007485389709,-0.001748561859,-0.02072477341,2024-06-04 14:18:28.415113
47.45560401,-0.005255699158,-0.03176689148,-0.01175165176,2024-06-04 14:18:28.455604
47.49615141,0.03059005737,-0.01801609993,0.01644563675,2024-06-04 14:18:28.496151
47.53663943,-0.009563922882,0.0242125988,0.007785797119,2024-06-04 14:18:28.536639
47.57712964,-0.01669931412,0.0006568431854,-0.02229595184,2024-06-04 14:18:28.577130
47.61761979,-0.003973484039,0.01633620262,-0.0170788765,2024-06-04 14:18:28.617620
47.65802005,-0.01541185379,-0.01483750343,-0.0126452446,2024-06-04 14:18:28.658020
47.6985287,-0.01523542404,-0.001974105835,-0.01737213135,2024-06-04 14:18:28.698529
47.73907281,0.009484767914,0.006261110306,0.01430559158,2024-06-04 14:18:28.739073
47.77952927,0.02674245834,-0.003832578659,0.02565956116,2024-06-04 14:18:28.779529
47.82005047,0.01601362228,-0.003270626068,0.01336860657,2024-06-04 14:18:28.820050
47.86050755,-0.009242534637,0.01047849655,-0.004295349121,2024-06-04 14:18:28.860508
47.90099438,-0.01558351517,-0.01299357414,-0.02038383484,2024-06-04 14:18:28.900994
47.94152188,0.007573604584,-0.005328178406,-0.02485084534,2024-06-04 14:18:28.941522
47.98197443,-0.005256652832,-0.008905887604,0.004155635834,2024-06-04 14:18:28.981974
48.02251151,-0.01854562759,0.007687568665,-0.007380008698,2024-06-04 14:18:29.022512
48.06295865,-0.008208751678,0.01538825035,-0.004664897919,2024-06-04 14:18:29.062959
48.10348729,0.01481485367,0.003158092499,0.01253795624,2024-06-04 14:18:29.103487
48.14397662,0.01349496841,-0.0194747448,0.004667758942,2024-06-04 14:18:29.143977
48.18443412,0.01138687134,-0.01398897171,-0.01353931427,2024-06-04 14:18:29.184434
48.22493005,0.01340341568,0.00901389122,0.003337860107,2024-06-04 14:18:29.224930
48.26542755,-0.02295255661,0.02279376984,0.01546621323,2024-06-04 14:18:29.265428
48.30590604,0.007023334503,-0.002372741699,-0.01469087601,2024-06-04 14:18:29.305906
48.34644344,-0.03956365585,-0.004849433899,-0.01807594299,2024-06-04 14:18:29.346443
48.38686334,0.01262712479,-0.001204967499,-0.0435051918,2024-06-04 14:18:29.386863
48.42740063,-0.02455234528,-0.007719278336,-0.003882884979,2024-06-04 14:18:29.427401
48.46782537,-0.04139614105,-0.0348007679,-0.01306200027,2024-06-04 14:18:29.467825
48.50831464,0.01236629486,-0.0121421814,-0.003158092499,2024-06-04 14:18:29.508315
48.54882698,0.03250932693,0.04476332664,0.05090999603,2024-06-04 14:18:29.548827
48.5893324,0.05164003372,0.04699611664,0.04292535782,2024-06-04 14:18:29.589332
48.62981641,0.005250453949,0.02766084671,-0.02540779114,2024-06-04 14:18:29.629816
48.67031235,-0.04706716537,0.01963686943,-0.05263471603,2024-06-04 14:18:29.670312
48.71081844,-0.03929615021,-0.0134267807,-0.04125976562,2024-06-04 14:18:29.710818
48.75131761,-0.01754522324,-0.05296039581,-0.02222013474,2024-06-04 14:18:29.751318
48.79180458,-0.00145483017,-0.06195068359,0.008673667908,2024-06-04 14:18:29.791805
48.83228005,0.05206823349,-0.02592682838,0.0741071701,2024-06-04 14:18:29.832280
48.87276823,0.06165981293,-0.01050400734,0.07885837555,2024-06-04 14:18:29.872768
48.91325641,0.01544857025,0.0062084198,0.01717853546,2024-06-04 14:18:29.913256
48.9537624,0.004072189331,0.05927371979,-0.02781820297,2024-06-04 14:18:29.953762
48.99425844,-0.03900384903,0.06193685532,-0.07043027878,2024-06-04 14:18:29.994258
49.03472823,-0.05465841293,-0.005806684494,-0.09031295776,2024-06-04 14:18:30.034728
49.07521651,-0.03890657425,-0.03660821915,-0.04346323013,2024-06-04 14:18:30.075217
49.11570964,0.01455593109,-0.04511547089,0.01950454712,2024-06-04 14:18:30.115710
49.15621672,0.02582931519,-0.02641224861,0.06030035019,2024-06-04 14:18:30.156217
49.1967175,0.03773450851,-0.004115104675,0.05706739426,2024-06-04 14:18:30.196717
49.23718438,0.03870868683,0.002936601639,0.01313638687,2024-06-04 14:18:30.237184
49.27770208,0.002007484436,0.001028299332,-0.02006435394,2024-06-04 14:18:30.277702
49.3181488,-0.06803274155,0.01350808144,-0.0632853508,2024-06-04 14:18:30.318149
49.35867198,-0.05144929886,0.02500677109,-0.0394487381,2024-06-04 14:18:30.358672
49.39915745,0.003087043762,0.005898714066,-0.008712768555,2024-06-04 14:18:30.399157
49.43963922,0.03664493561,-0.01290774345,0.03703689575,2024-06-04 14:18:30.439639
49.4801275,0.01528739929,-0.03187704086,0.03128910065,2024-06-04 14:18:30.480128
49.52061672,-0.002245426178,-0.006494283676,0.01145362854,2024-06-04 14:18:30.520617
49.56110584,-0.01437187195,0.01033496857,-0.004018783569,2024-06-04 14:18:30.561106
49.60159005,-0.01142978668,0.01229834557,-0.02097225189,2024-06-04 14:18:30.601590
49.6420925,-0.01784086227,0.02565908432,-0.05697917938,2024-06-04 14:18:30.642092
49.68257646,-0.02805328369,-0.003116369247,-0.05916881561,2024-06-04 14:18:30.682576
49.72305297,0.003873825073,-0.01764059067,0.01331233978,2024-06-04 14:18:30.723053
49.76354386,0.0291800499,-0.005205392838,0.036257267,2024-06-04 14:18:30.763544
49.8040424,0.01748180389,-0.00614118576,0.03617525101,2024-06-04 14:18:30.804042
49.84453828,-0.0005130767822,0.004058837891,0.01279878616,2024-06-04 14:18:30.844538
49.8850176,-0.006425857544,-0.005017280579,-0.01237773895,2024-06-04 14:18:30.885018
49.92551693,-0.02406263351,-0.006506681442,-0.03173494339,2024-06-04 14:18:30.925517
49.96601667,-0.02513551712,-0.007311105728,-0.02294921875,2024-06-04 14:18:30.966017
50.00652615,-0.002545833588,0.01021504402,0.01911211014,2024-06-04 14:18:31.006526
50.04701849,0.01031541824,-0.008682727814,0.01816701889,2024-06-04 14:18:31.047018
50.08749005,0.01257371902,-0.008356332779,0.002758979797,2024-06-04 14:18:31.087490
50.12797255,-0.006922721863,-0.02308487892,-0.009529590607,2024-06-04 14:18:31.127973
50.16846234,0.0004572868347,0.009305000305,0.007523059845,2024-06-04 14:18:31.168462
50.20892511,-0.001392364502,-0.005753278732,-0.001055717468,2024-06-04 14:18:31.208925
50.24945063,-0.007601737976,0.00327706337,-0.01187801361,2024-06-04 14:18:31.249451
50.2899287,-0.009791851044,0.01449346542,-0.008654594421,2024-06-04 14:18:31.289929
50.33041443,-0.003274440765,-0.006790876389,-0.0043592453,2024-06-04 14:18:31.330414
50.37086396,0.003441333771,-0.01334667206,0.00279712677,2024-06-04 14:18:31.370864
50.41139563,0.00480556488,-0.008330583572,0.000659942627,2024-06-04 14:18:31.411396
50.45187839,0.01076555252,0.00116276741,0.02933120728,2024-06-04 14:18:31.451878
50.49236542,0.01138973236,0.008692741394,-0.005795955658,2024-06-04 14:18:31.492365
50.53290271,-0.01487016678,0.01142692566,-0.01810741425,2024-06-04 14:18:31.532903
50.57334703,-0.02960252762,-0.01711678505,-0.0233912468,2024-06-04 14:18:31.573347
50.61383974,0.003355979919,-0.008594989777,0.002383708954,2024-06-04 14:18:31.613840
50.65433844,0.01704692841,-0.00495672226,0.02131891251,2024-06-04 14:18:31.654338
50.69481406,0.01948785782,-0.007998228073,-0.0005407333374,2024-06-04 14:18:31.694814
50.73530719,0.0007252693176,-0.003866910934,-0.004863262177,2024-06-04 14:18:31.735307
50.7758524,-0.004190444946,-0.0001752376556,-0.007503032684,2024-06-04 14:18:31.775852
50.81632485,0.009986877441,0.02516722679,0.003784179688,2024-06-04 14:18:31.816325
50.85678057,-0.0007915496826,-0.005166530609,0.01399374008,2024-06-04 14:18:31.856781
50.89727464,0.01274824142,0.005084753036,0.02105712891,2024-06-04 14:18:31.897275
50.93773599,-0.01992273331,-0.04461288452,-0.03160715103,2024-06-04 14:18:31.937736
50.97824203,-0.06562709808,-0.01670050621,-0.04962110519,2024-06-04 14:18:31.978242
51.01872828,0.0005040168762,0.04764175415,-0.009478092194,2024-06-04 14:18:32.018728
51.05924141,0.02929401398,0.03959321976,-0.00347328186,2024-06-04 14:18:32.059241
51.09973047,-0.007781028748,-0.01284956932,0.01870393753,2024-06-04 14:18:32.099730
51.14017297,0.02500677109,-0.03902816772,0.01790761948,2024-06-04 14:18:32.140173
51.18069714,0.01042127609,-0.01073408127,0.0189948082,2024-06-04 14:18:32.180697
51.22120094,-0.003663539886,-0.01596450806,-0.02212095261,2024-06-04 14:18:32.221201
51.26170537,-0.04113292694,0.06456851959,-0.02072572708,2024-06-04 14:18:32.261705
51.30219005,-0.04684352875,0.03495907784,-0.04686498642,2024-06-04 14:18:32.302190
51.3426699,-0.02290201187,-0.01119685173,-0.02329540253,2024-06-04 14:18:32.342670
51.38314906,0.002366542816,-0.01450848579,-0.001685142517,2024-06-04 14:18:32.383149
51.42363604,0.02599143982,-0.01609539986,0.01660776138,2024-06-04 14:18:32.423636
51.46416896,0.02625131607,0.005529642105,0.04126787186,2024-06-04 14:18:32.464169
51.50467667,0.01310682297,0.000757932663,0.01625156403,2024-06-04 14:18:32.504677
51.5451687,-0.0008854866028,0.006767034531,0.002868175507,2024-06-04 14:18:32.545169
51.58560964,-0.01508378983,-0.005186319351,-0.04674720764,2024-06-04 14:18:32.585610
51.62609573,-0.0463809967,-0.001804590225,-0.02789831161,2024-06-04 14:18:32.626096
51.66663844,-0.02118825912,-0.01905417442,-0.01256036758,2024-06-04 14:18:32.666638
51.70708245,0.03230428696,0.0240240097,0.02486801147,2024-06-04 14:18:32.707082
51.74755719,0.008101940155,0.002211332321,0.02520179749,2024-06-04 14:18:32.747557
51.78809604,0.005839824677,-0.01420617104,0.01332902908,2024-06-04 14:18:32.788096
51.82859084,0.005294799805,-0.01941871643,-0.008605957031,2024-06-04 14:18:32.828591
51.86901354,0.009032249451,0.00718998909,-0.0192694664,2024-06-04 14:18:32.869014
51.90950417,-0.03216600418,-0.007499456406,-0.02347278595,2024-06-04 14:18:32.909504
51.94999485,0.07909965515,0.06792521477,0.05026912689,2024-06-04 14:18:32.949995
51.9904988,-0.1139788628,0.001980543137,0.003496170044,2024-06-04 14:18:32.990499
52.03098198,-0.00840473175,-0.07834124565,-0.16015625,2024-06-04 14:18:33.030982
52.07147703,-0.1433858871,0.02187204361,-0.02541637421,2024-06-04 14:18:33.071477
52.1119711,-0.0001635551453,0.06132864952,0.05211114883,2024-06-04 14:18:33.111971
52.15246969,0.1876149178,0.05261135101,0.1055135727,2024-06-04 14:18:33.152470
52.1929863,0.05922460556,-0.03588247299,0.08291339874,2024-06-04 14:18:33.192986
52.23346224,-0.006970405579,-0.09365797043,-0.01447439194,2024-06-04 14:18:33.233462
52.27393151,-0.0307097435,-0.06863856316,-0.007929325104,2024-06-04 14:18:33.273932
52.31442901,-0.00389623642,-0.01960635185,-0.001310825348,2024-06-04 14:18:33.314429
52.35490703,0.007650375366,0.04522299767,-0.005471229553,2024-06-04 14:18:33.354907
52.39540276,-0.053565979,0.02824544907,-0.05312156677,2024-06-04 14:18:33.395403
52.43590828,-0.02841186523,0.01477360725,-0.04753351212,2024-06-04 14:18:33.435908
52.47639203,0.01499700546,0.02157354355,0.004262447357,2024-06-04 14:18:33.476392
52.51687078,0.01719713211,-0.01973676682,-0.02382087708,2024-06-04 14:18:33.516871
52.55738078,-0.01990365982,-0.02173876762,-0.002238273621,2024-06-04 14:18:33.557381
52.59786891,-0.001997470856,-0.01550388336,0.0132021904,2024-06-04 14:18:33.597869
52.63838901,0.05434894562,-0.01335573196,0.04515838623,2024-06-04 14:18:33.638389
52.67884078,0.0007276535034,0.0115275383,0.02601099014,2024-06-04 14:18:33.678841
52.71930729,-0.01221847534,0.009782552719,-0.02845478058,2024-06-04 14:18:33.719307
52.75984276,-0.03260278702,0.00398516655,-0.0255613327,2024-06-04 14:18:33.759843
52.80027479,0.007434844971,0.007640600204,-0.03300571442,2024-06-04 14:18:33.800275
52.84079391,-0.03726577759,-0.006296396255,-0.05258226395,2024-06-04 14:18:33.840794
52.88128099,-0.04201459885,0.006511449814,-0.006465435028,2024-06-04 14:18:33.881281
52.92175349,0.05535984039,-0.01297092438,0.009403705597,2024-06-04 14:18:33.921753
52.96226386,0.07248163223,-0.001317739487,0.08568477631,2024-06-04 14:18:33.962264
53.00278432,0.03796958923,-0.01797437668,0.02110004425,2024-06-04 14:18:34.002784
53.04325734,-0.01795768738,-0.005843400955,0.003306388855,2024-06-04 14:18:34.043257
53.08375,-0.02285957336,-0.01912784576,-0.02336406708,2024-06-04 14:18:34.083750
53.12424698,-0.009714126587,-0.01328873634,-0.05087566376,2024-06-04 14:18:34.124247
53.16471625,-0.03942298889,0.02369213104,-0.01609039307,2024-06-04 14:18:34.164716
53.20519917,-0.01193380356,0.02495074272,-0.03216171265,2024-06-04 14:18:34.205199
53.2456936,-0.006607532501,-0.01038241386,-0.01881980896,2024-06-04 14:18:34.245694
53.28618724,-0.005858421326,-0.01358175278,-0.01411819458,2024-06-04 14:18:34.286187
53.32667844,0.003454208374,-0.01585268974,0.003995418549,2024-06-04 14:18:34.326678
53.36716735,0.005053043365,-0.006760835648,0.03985404968,2024-06-04 14:18:34.367167
53.40767188,0.008322238922,0.0009741783142,0.01095914841,2024-06-04 14:18:34.407672
53.44816787,0.009135723114,0.03084015846,0.01054763794,2024-06-04 14:18:34.448168
53.48867557,0.001182556152,0.01186823845,0.004500389099,2024-06-04 14:18:34.488676
53.52912016,-0.01243686676,-0.01638865471,-0.02142238617,2024-06-04 14:18:34.529120
53.5696199,-0.01785802841,-0.01451539993,-0.02475976944,2024-06-04 14:18:34.569620
53.6100961,-0.004916667938,0.006427526474,-0.01880216599,2024-06-04 14:18:34.610096
53.65059391,0.003796577454,0.003022670746,0.00244808197,2024-06-04 14:18:34.650594
53.69108667,-0.008724689484,-0.007455587387,-0.004033088684,2024-06-04 14:18:34.691087
53.73156912,0.000274181366,0.005920648575,0.006901264191,2024-06-04 14:18:34.731569
53.77205344,0.009887695312,-0.02187561989,-0.005220413208,2024-06-04 14:18:34.772053
53.81254573,-0.01476764679,-0.004947423935,0.005537033081,2024-06-04 14:18:34.812546
53.8530325,-0.00864648819,0.01563549042,0.0045170784,2024-06-04 14:18:34.853032
53.89352037,-0.01080799103,0.007740736008,-0.004905223846,2024-06-04 14:18:34.893520
53.93406708,0.003145217896,0.008267879486,-0.01574516296,2024-06-04 14:18:34.934067
53.97453922,-0.0006313323975,-0.01465344429,-0.008980751038,2024-06-04 14:18:34.974539
54.01506682,0.00772857666,0.01011872292,0.01078462601,2024-06-04 14:18:35.015067
54.05550412,0.01358222961,-0.002129077911,-0.02217960358,2024-06-04 14:18:35.055504
54.0959976,-0.03131961823,-0.01843905449,0.002921104431,2024-06-04 14:18:35.095998
54.13648651,-0.008904457092,0.01059794426,0.005143642426,2024-06-04 14:18:35.136487
54.17697818,0.009567260742,0.00426697731,-0.002854824066,2024-06-04 14:18:35.176978
54.21744745,-0.01278543472,-0.0113594532,0.001433849335,2024-06-04 14:18:35.217447
54.25791935,0.01214551926,-0.01191449165,-0.004093647003,2024-06-04 14:18:35.257919
54.29847732,0.01677799225,0.02305531502,0.001567840576,2024-06-04 14:18:35.298477
54.33891409,-0.01555109024,0.0004222393036,-0.01695919037,2024-06-04 14:18:35.338914
54.37941363,-0.04560041428,-0.01508188248,-0.06063699722,2024-06-04 14:18:35.379414
54.41990456,0.004996299744,0.01378035545,0.01043558121,2024-06-04 14:18:35.419905
54.46039342,0.04252386093,-0.02022242546,0.02407169342,2024-06-04 14:18:35.460393
54.50087274,-0.001269340515,-0.1029715538,0.01784181595,2024-06-04 14:18:35.500873
54.54136738,-0.01344919205,-0.06152415276,0.02676439285,2024-06-04 14:18:35.541367
54.58186644,-0.00935792923,0.08408379555,-0.03852510452,2024-06-04 14:18:35.581866
54.62234795,-0.0126786232,0.05411505699,-0.05961513519,2024-06-04 14:18:35.622348
54.66286607,-0.07386207581,0.09259843826,-0.0300321579,2024-06-04 14:18:35.662866
54.70332925,-0.02798748016,0.02827215195,-0.08906459808,2024-06-04 14:18:35.703329
54.74381993,-0.06181097031,0.004988431931,-0.01912736893,2024-06-04 14:18:35.743820
54.7843367,0.03507328033,-0.002035617828,0.05160665512,2024-06-04 14:18:35.784337
54.82479894,0.1153850555,-0.0555036068,0.08792924881,2024-06-04 14:18:35.824799
54.86528962,0.09987163544,-0.05570363998,0.1313548088,2024-06-04 14:18:35.865290
54.90577842,-0.004179477692,-0.0224711895,0.05695724487,2024-06-04 14:18:35.905778
54.94628847,-0.05294799805,0.09789896011,0.00262260437,2024-06-04 14:18:35.946288
54.98673847,-0.06642484665,0.0748565197,-0.09873819351,2024-06-04 14:18:35.986738
55.02730623,-0.09114742279,0.04401135445,-0.1088624001,2024-06-04 14:18:36.027306
55.0677493,-0.03159618378,-0.007924795151,-0.06339025497,2024-06-04 14:18:36.067749
55.10827659,0.104282856,-0.07305788994,0.06209659576,2024-06-04 14:18:36.108277
55.14870279,0.1021184921,-0.05527830124,0.1569466591,2024-06-04 14:18:36.148703
55.18924633,0.05950212479,-0.01960682869,0.09539747238,2024-06-04 14:18:36.189246
55.22969003,-0.008747577667,-0.00134563446,-0.01206302643,2024-06-04 14:18:36.229690
55.27018748,-0.05719900131,0.02012133598,-0.07920408249,2024-06-04 14:18:36.270187
55.31068238,-0.06070137024,-0.01173353195,-0.1311035156,2024-06-04 14:18:36.310682
55.35118342,-0.07169866562,-0.01599192619,-0.06622648239,2024-06-04 14:18:36.351183
55.39167774,-0.02643251419,-0.0272436142,-0.01956319809,2024-06-04 14:18:36.391678
55.43216779,0.0323882103,-0.02684283257,0.05379581451,2024-06-04 14:18:36.432168
55.47264498,0.06277275085,-0.0001153945923,0.06734609604,2024-06-04 14:18:36.472645
55.51316534,0.05068016052,0.0112862587,0.05928754807,2024-06-04 14:18:36.513165
55.55366524,-0.007030963898,-0.0150604248,-0.01184654236,2024-06-04 14:18:36.553665
55.59410873,-0.003237724304,-0.004866600037,-0.035551548,2024-06-04 14:18:36.594109
55.63460399,-0.008098125458,0.0288476944,-0.02023887634,2024-06-04 14:18:36.634604
55.67510659,-0.02971076965,0.01194787025,-0.01303243637,2024-06-04 14:18:36.675107
55.71557321,-0.02762365341,-0.01548266411,-0.0248465538,2024-06-04 14:18:36.715573
55.7560767,-0.01094675064,-0.03585028648,0.005155563354,2024-06-04 14:18:36.756077
55.796583,0.02401351929,-0.08060574532,0.003199100494,2024-06-04 14:18:36.796583
55.83707003,0.01746225357,-0.01713013649,0.02285051346,2024-06-04 14:18:36.837070
55.87755639,-0.01546621323,0.04546523094,0.03430747986,2024-06-04 14:18:36.877556
55.91804826,-0.008056163788,0.07321834564,-0.02330827713,2024-06-04 14:18:36.918048
55.95857488,-0.009002685547,0.05559039116,-0.04541826248,2024-06-04 14:18:36.958575
55.99905696,-0.02142238617,0.0006129741669,-0.04872703552,2024-06-04 14:18:36.999057
56.03953993,-0.01836109161,-0.0043592453,-0.0350484848,2024-06-04 14:18:37.039540
56.0799729,-0.019759655,-0.005129814148,0.01439428329,2024-06-04 14:18:37.079973
56.12046248,0.0170955658,-0.004148721695,-0.005117893219,2024-06-04 14:18:37.120462
56.16095852,0.01879787445,-0.002095222473,0.03132963181,2024-06-04 14:18:37.160959
56.20147055,-0.007304668427,-0.007571220398,-0.01322126389,2024-06-04 14:18:37.201471
56.24196435,0.008113861084,-0.02316522598,-0.0111117363,2024-06-04 14:18:37.241964
56.28245852,-0.01270723343,-0.03771090508,0.001292705536,2024-06-04 14:18:37.282459
56.322933,0.01506280899,-0.03479146957,0.003246307373,2024-06-04 14:18:37.322933
56.36341144,0.01806783676,-0.0471701622,0.03449201584,2024-06-04 14:18:37.363411
56.403918,0.02794837952,0.01919054985,0.04803657532,2024-06-04 14:18:37.403918
56.44440232,0.02628612518,0.0656645298,0.0289645195,2024-06-04 14:18:37.444402
56.48488201,-0.06393051147,0.02547287941,-0.01676988602,2024-06-04 14:18:37.484882
56.52541545,-0.01619529724,0.01665425301,-0.06350374222,2024-06-04 14:18:37.525415
56.56588196,-0.05878973007,0.03233933449,-0.0228266716,2024-06-04 14:18:37.565882
56.60634842,-0.01164293289,-0.01081156731,-0.02102613449,2024-06-04 14:18:37.606348
56.64686217,0.04322576523,-0.03017401695,-0.01160907745,2024-06-04 14:18:37.646862
56.68734055,0.002425670624,-0.06768679619,0.02819681168,2024-06-04 14:18:37.687341
56.72784139,0.03618621826,0.009347915649,0.02862167358,2024-06-04 14:18:37.727841
56.76835144,-0.009627342224,0.0145149231,0.01842832565,2024-06-04 14:18:37.768351
56.80881133,-0.02241039276,0.01873254776,-0.01555585861,2024-06-04 14:18:37.808811
56.84933529,0.006240367889,-0.0106010437,-0.0240149498,2024-06-04 14:18:37.849335
56.88985092,-0.009360313416,-0.008185386658,-0.02268743515,2024-06-04 14:18:37.889851
56.93034097,-0.01373434067,-0.0156121254,-0.01335477829,2024-06-04 14:18:37.930341
56.97079206,0.02921438217,0.02558302879,-0.0002455711365,2024-06-04 14:18:37.970792
57.01125659,0.01343202591,0.09599637985,0.07241296768,2024-06-04 14:18:38.011257
57.05177784,-0.01838874817,-0.03353786469,-0.03216791153,2024-06-04 14:18:38.051778
57.09223883,-0.01572084427,-0.05991292,-0.0376458168,2024-06-04 14:18:38.092239
57.13272889,-0.01645898819,-0.0224981308,-0.03081798553,2024-06-04 14:18:38.132729
57.17324248,0.008439540863,0.001164197922,0.01631593704,2024-06-04 14:18:38.173242
57.21372571,0.0002636909485,0.0154800415,0.02466821671,2024-06-04 14:18:38.213726
57.25418988,-0.00275182724,0.008791685104,0.002334117889,2024-06-04 14:18:38.254190
57.29469962,-0.0002021789551,-0.002057313919,0.01224756241,2024-06-04 14:18:38.294700
57.33520685,0.005784988403,-0.02131056786,-0.03044509888,2024-06-04 14:18:38.335207
57.37566102,-0.02201509476,-0.0168364048,-0.02053165436,2024-06-04 14:18:38.375661
57.41618024,-0.002328395844,0.009074211121,-0.007359981537,2024-06-04 14:18:38.416180
57.45667373,0.01090812683,0.02185750008,0.01871299744,2024-06-04 14:18:38.456674
57.4971967,-0.00416135788,-0.008499860764,0.002391815186,2024-06-04 14:18:38.497197
57.53766227,0.003753185272,0.009294986725,0.001121520996,2024-06-04 14:18:38.537662
57.57815748,-0.003862857819,-0.01994943619,0.0009560585022,2024-06-04 14:18:38.578157
57.61866165,0.01711177826,-0.01063609123,-0.004234313965,2024-06-04 14:18:38.618662
57.65906935,-0.006677627563,0.01028466225,-0.005121231079,2024-06-04 14:18:38.659069
57.69960415,-0.0188627243,0.01117086411,-0.0101556778,2024-06-04 14:18:38.699604
57.74005639,-0.009603023529,-0.002009391785,-0.02957057953,2024-06-04 14:18:38.740056
57.78054607,-0.01601028442,-0.006733894348,-0.01251649857,2024-06-04 14:18:38.780546
57.82107514,-0.00649356842,-0.004180669785,0.001511096954,2024-06-04 14:18:38.821075
57.86154654,0.005244255066,-0.007246494293,-0.002978801727,2024-06-04 14:18:38.861547
57.90202644,0.005034446716,0.008725881577,0.01688337326,2024-06-04 14:18:38.902026
57.94252717,0.00529050827,0.006786346436,0.008075714111,2024-06-04 14:18:38.942527
57.98301383,-0.02127122879,-0.01426839828,-0.0166516304,2024-06-04 14:18:38.983014
58.02355967,-0.003339290619,0.004246473312,-0.01674032211,2024-06-04 14:18:39.023560
58.0640217,0.003806114197,0.003437995911,0.001144886017,2024-06-04 14:18:39.064022
58.10449279,-0.00280380249,-0.005622148514,0.01794624329,2024-06-04 14:18:39.104493
58.14498258,0.01345777512,0.007157802582,0.001914978027,2024-06-04 14:18:39.144983
58.18549769,-0.02220869064,-0.0004642009735,-0.01190137863,2024-06-04 14:18:39.185498
58.22597805,-0.003627300262,-0.01999258995,-0.019490242,2024-06-04 14:18:39.225978
58.26646014,-0.0005230903625,-0.0105946064,0.005003452301,2024-06-04 14:18:39.266460
58.30694498,-0.01096010208,0.01058363914,-0.0003271102905,2024-06-04 14:18:39.306945
58.34745399,-0.01040124893,0.006383657455,-0.0007910728455,2024-06-04 14:18:39.347454
58.38794399,0.00337934494,-0.003012418747,0.00839138031,2024-06-04 14:18:39.387944
58.42845222,-0.002789974213,-0.011490345,-0.001913070679,2024-06-04 14:18:39.428452
58.46893321,-0.004938602448,0.00394487381,0.002681732178,2024-06-04 14:18:39.468933
58.5094417,-0.008150100708,0.01749277115,0.007520198822,2024-06-04 14:18:39.509442
58.54986675,-0.003901958466,-0.007942438126,-0.01893281937,2024-06-04 14:18:39.549867
58.59039519,-0.01393890381,-0.009901762009,-0.01025104523,2024-06-04 14:18:39.590395
58.63082081,0.01599168777,-0.01247906685,-0.002392292023,2024-06-04 14:18:39.630821
58.67133212,-0.000985622406,-0.000209569931,0.009114742279,2024-06-04 14:18:39.671332
58.71185456,-0.001296520233,0.02635121346,0.004701137543,2024-06-04 14:18:39.711855
58.75233253,-0.01451826096,-0.01080155373,0.004562854767,2024-06-04 14:18:39.752333
58.79283935,0.01438331604,-0.006293773651,0.0003490447998,2024-06-04 14:18:39.792839
58.83332889,-0.008769989014,0.002393007278,-0.005310535431,2024-06-04 14:18:39.833329
58.87381607,-0.01158428192,0.002707958221,-0.01012516022,2024-06-04 14:18:39.873816
58.91430837,-0.005331039429,0.004898309708,-0.004183292389,2024-06-04 14:18:39.914308
58.95480404,0.002326488495,-0.0001089572906,-0.005053520203,2024-06-04 14:18:39.954804
58.99531092,-0.001678466797,-0.01386713982,0.00691318512,2024-06-04 14:18:39.995311
59.03581149,-0.002686977386,0.007145166397,0.003024578094,2024-06-04 14:18:40.035811
59.07626732,-0.007885932922,-0.005038261414,-0.003327846527,2024-06-04 14:18:40.076267
59.11676555,0.001792907715,0.001724004745,0.01001691818,2024-06-04 14:18:40.116766
59.15725253,0.00635099411,-0.003065109253,-0.001670837402,2024-06-04 14:18:40.157253
59.19773508,-0.01370763779,-0.002561330795,-0.01234674454,2024-06-04 14:18:40.197735
59.23824253,-0.003419876099,-0.004545688629,-0.001824855804,2024-06-04 14:18:40.238243
