Time (s),Acceleration x (m/s^2),Acceleration y (m/s^2),Acceleration z (m/s^2),Datetime
0.005577407,-4.642374992,4.462913513,5.480760098,2024-06-05 20:04:01.005577
0.025509595,-4.053142548,3.672384501,6.451049805,2024-06-05 20:04:01.025510
0.065509595,0.0,0.0,0.0,2024-06-05 20:04:01.065510
0.105509595,-4.127319813,5.385047436,6.733702183,2024-06-05 20:04:01.105510
0.145509595,-4.218546391,4.491627216,8.333902359,2024-06-05 20:04:01.145510
0.185509595,-4.218546391,4.491627216,8.333902359,2024-06-05 20:04:01.185510
0.225509595,-4.218546391,4.491627216,8.333902359,2024-06-05 20:04:01.225510
0.265509595,-4.218546391,4.491627216,8.333902359,2024-06-05 20:04:01.265510
0.305509595,-4.218546391,4.491627216,8.333902359,2024-06-05 20:04:01.305510
0.345509595,-4.218546391,4.491627216,8.333902359,2024-06-05 20:04:01.345510
0.385509595,-4.218546391,4.491627216,8.333902359,2024-06-05 20:04:01.385510
0.425509595,-4.218546391,4.491627216,8.333902359,2024-06-05 20:04:01.425510
0.465509595,-4.218546391,4.491627216,8.333902359,2024-06-05 20:04:01.465510
0.505509595,-4.218546391,4.491627216,8.333902359,2024-06-05 20:04:01.505510
0.545509595,-4.218546391,4.491627216,8.333902359,2024-06-05 20:04:01.545510
0.585509595,-4.218546391,4.491627216,8.333902359,2024-06-05 20:04:01.585510
0.625509595,-4.218546391,4.491627216,8.333902359,2024-06-05 20:04:01.625510
0.665509595,-4.218546391,4.491627216,8.333902359,2024-06-05 20:04:01.665510
0.705509595,-4.218546391,4.491627216,8.333902359,2024-06-05 20:04:01.705510
0.745509595,-4.218546391,4.491627216,8.333902359,2024-06-05 20:04:01.745510
0.785509595,-4.218546391,4.491627216,8.333902359,2024-06-05 20:04:01.785510
0.825509595,-4.218546391,4.491627216,8.333902359,2024-06-05 20:04:01.825510
0.865509595,-4.218546391,4.491627216,8.333902359,2024-06-05 20:04:01.865510
0.905509595,-4.218546391,4.491627216,8.333902359,2024-06-05 20:04:01.905510
0.945509595,-4.218546391,4.491627216,8.333902359,2024-06-05 20:04:01.945510
0.985509595,-4.218546391,4.491627216,8.333902359,2024-06-05 20:04:01.985510
1.025509595,-4.218546391,4.491627216,8.333902359,2024-06-05 20:04:02.025510
1.065509595,-4.218546391,4.491627216,8.333902359,2024-06-05 20:04:02.065510
1.105509595,-4.218546391,4.491627216,8.333902359,2024-06-05 20:04:02.105510
1.145509595,-10.14257717,-5.569593906,5.864210129,2024-06-05 20:04:02.145510
1.185509595,-10.14257717,-5.569593906,5.864210129,2024-06-05 20:04:02.185510
1.225509595,-10.14257717,-5.569593906,5.864210129,2024-06-05 20:04:02.225510
1.265509595,-10.14257717,-5.569593906,5.864210129,2024-06-05 20:04:02.265510
1.305509595,-2.264806747,-5.028217793,1.80508554,2024-06-05 20:04:02.305510
1.345509595,-2.920140982,-10.50060272,3.040978432,2024-06-05 20:04:02.345510
1.385509595,-5.764907837,-10.59900761,-1.418046474,2024-06-05 20:04:02.385510
1.425509595,-9.879067421,-12.83390427,0.6334998012,2024-06-05 20:04:02.425510
1.465509595,-9.879067421,-12.83390427,0.6334998012,2024-06-05 20:04:02.465510
1.505509595,-9.879067421,-12.83390427,0.6334998012,2024-06-05 20:04:02.505510
1.545509595,-9.879067421,-12.83390427,0.6334998012,2024-06-05 20:04:02.545510
1.585509595,-9.879067421,-12.83390427,0.6334998012,2024-06-05 20:04:02.585510
1.625509595,-9.879067421,-12.83390427,0.6334998012,2024-06-05 20:04:02.625510
1.665509595,-19.02024841,-2.420639277,15.13011646,2024-06-05 20:04:02.665510
1.705509595,-11.53190994,-3.876971006,-1.532004714,2024-06-05 20:04:02.705510
1.745509595,-7.668099403,0.8730811477,-0.3257229924,2024-06-05 20:04:02.745510
1.785509595,-3.394518137,-1.196411371,-4.586143494,2024-06-05 20:04:02.785510
1.825509595,-2.340479612,-4.271188259,-6.314659119,2024-06-05 20:04:02.825510
1.865509595,-2.928515911,-7.843971729,-1.700698733,2024-06-05 20:04:02.865510
1.905509595,0.432502687,-10.62173939,1.1820544,2024-06-05 20:04:02.905510
1.945509595,-3.545265913,-13.13569927,-0.9786644578,2024-06-05 20:04:02.945510
1.985509595,-2.715255499,-13.51914883,0.5341976285,2024-06-05 20:04:02.985510
2.025509595,-3.732205153,-12.21835041,0.774975419,2024-06-05 20:04:03.025510
2.065509595,-14.9718914,-12.15105247,-5.993422508,2024-06-05 20:04:03.065510
2.105509595,-20.30429649,-5.320441246,0.8072785139,2024-06-05 20:04:03.105510
2.145509595,-19.8658123,-1.622931957,6.233004093,2024-06-05 20:04:03.145510
2.185509595,-15.62812328,0.01196411345,6.688238621,2024-06-05 20:04:03.185510
2.225509595,-15.62812328,0.01196411345,6.688238621,2024-06-05 20:04:03.225510
2.265509595,-15.62812328,0.01196411345,6.688238621,2024-06-05 20:04:03.265510
2.305509595,-15.62812328,0.01196411345,6.688238621,2024-06-05 20:04:03.305510
2.345509595,-15.62812328,0.01196411345,6.688238621,2024-06-05 20:04:03.345510
2.385509595,-15.62812328,0.01196411345,6.688238621,2024-06-05 20:04:03.385510
2.425509595,-15.62812328,0.01196411345,6.688238621,2024-06-05 20:04:03.425510
2.465509595,-15.62812328,0.01196411345,6.688238621,2024-06-05 20:04:03.465510
2.505509595,-15.62812328,0.01196411345,6.688238621,2024-06-05 20:04:03.505510
2.545509595,-15.62812328,0.01196411345,6.688238621,2024-06-05 20:04:03.545510
2.585509595,-15.62812328,0.01196411345,6.688238621,2024-06-05 20:04:03.585510
2.625509595,-15.62812328,0.01196411345,6.688238621,2024-06-05 20:04:03.625510
2.665509595,-15.62812328,0.01196411345,6.688238621,2024-06-05 20:04:03.665510
2.705509595,-15.62812328,0.01196411345,6.688238621,2024-06-05 20:04:03.705510
2.745509595,-15.62812328,0.01196411345,6.688238621,2024-06-05 20:04:03.745510
2.785509595,-15.62812328,0.01196411345,6.688238621,2024-06-05 20:04:03.785510
2.825509595,-15.62812328,0.01196411345,6.688238621,2024-06-05 20:04:03.825510
2.865509595,-15.62812328,0.01196411345,6.688238621,2024-06-05 20:04:03.865510
2.905509595,-15.62812328,0.01196411345,6.688238621,2024-06-05 20:04:03.905510
2.945509595,-15.62812328,0.01196411345,6.688238621,2024-06-05 20:04:03.945510
2.985509595,17.88126373,-12.05055428,-2.143969059,2024-06-05 20:04:03.985510
3.025509595,6.624828815,-26.56003189,-3.867399693,2024-06-05 20:04:04.025510
3.065509595,0.9403793216,-9.365208626,6.525227547,2024-06-05 20:04:04.065510
3.105509595,1.396511078,-8.094321251,-3.223132133,2024-06-05 20:04:04.105510
3.145509595,1.801496387,-8.684749603,-3.709473372,2024-06-05 20:04:04.145510
3.185509595,2.114058733,-9.177073479,-2.806182861,2024-06-05 20:04:04.185510
3.225509595,1.57866478,-9.728020668,1.174875975,2024-06-05 20:04:04.225510
3.265509595,1.526022673,-10.16052341,-0.7247261405,2024-06-05 20:04:04.265510
3.305509595,1.070788145,-10.78923702,-0.5760720372,2024-06-05 20:04:04.305510
3.345509595,-0.06340979785,-10.87208843,0.9487541914,2024-06-05 20:04:04.345510
3.385509595,-0.9559326172,-12.81476212,-0.8874381185,2024-06-05 20:04:04.385510
3.425509595,-0.8335995674,-12.16062355,0.4971089065,2024-06-05 20:04:04.425510
3.465509595,-0.6514459848,-11.32104206,2.790629387,2024-06-05 20:04:04.465510
3.505509595,1.266102314,-10.33549786,2.356033087,2024-06-05 20:04:04.505510
3.545509595,2.981158018,-10.78564835,1.872084618,2024-06-05 20:04:04.545510
3.585509595,6.179165363,-10.91157055,-3.374179125,2024-06-05 20:04:04.585510
3.625509595,5.696413517,-10.13061333,-3.231507063,2024-06-05 20:04:04.625510
3.665509595,1.174875975,-8.941081047,-7.503891945,2024-06-05 20:04:04.665510
3.705509595,-3.120240688,-11.4445715,1.942672849,2024-06-05 20:04:04.705510
3.745509595,2.753540754,-9.227322578,-1.846959949,2024-06-05 20:04:04.745510
3.785509595,3.821935892,-6.725327015,-0.2324029058,2024-06-05 20:04:04.785510
3.825509595,4.986343384,-4.92143774,-0.5018945336,2024-06-05 20:04:04.825510
3.865509595,3.382553816,-4.57178688,1.171286702,2024-06-05 20:04:04.865510
3.905509595,2.261217356,-6.479763508,3.701098442,2024-06-05 20:04:04.905510
3.945509595,2.261217356,-6.479763508,3.701098442,2024-06-05 20:04:04.945510
3.985509595,2.261217356,-6.479763508,3.701098442,2024-06-05 20:04:04.985510
4.025509595,2.261217356,-6.479763508,3.701098442,2024-06-05 20:04:05.025510
4.065509595,2.261217356,-6.479763508,3.701098442,2024-06-05 20:04:05.065510
4.105509595,2.261217356,-6.479763508,3.701098442,2024-06-05 20:04:05.105510
4.145509595,2.261217356,-6.479763508,3.701098442,2024-06-05 20:04:05.145510
4.185509595,2.261217356,-6.479763508,3.701098442,2024-06-05 20:04:05.185510
4.225509595,2.261217356,-6.479763508,3.701098442,2024-06-05 20:04:05.225510
4.265509595,2.261217356,-6.479763508,3.701098442,2024-06-05 20:04:05.265510
4.305509595,2.261217356,-6.479763508,3.701098442,2024-06-05 20:04:05.305510
4.345509595,2.261217356,-6.479763508,3.701098442,2024-06-05 20:04:05.345510
4.385509595,2.261217356,-6.479763508,3.701098442,2024-06-05 20:04:05.385510
4.425509595,2.261217356,-6.479763508,3.701098442,2024-06-05 20:04:05.425510
4.465509595,2.261217356,-6.479763508,3.701098442,2024-06-05 20:04:05.465510
4.505509595,2.261217356,-6.479763508,3.701098442,2024-06-05 20:04:05.505510
4.545509595,2.261217356,-6.479763508,3.701098442,2024-06-05 20:04:05.545510
4.585509595,2.261217356,-6.479763508,3.701098442,2024-06-05 20:04:05.585510
4.625509595,2.261217356,-6.479763508,3.701098442,2024-06-05 20:04:05.625510
4.665509595,2.261217356,-6.479763508,3.701098442,2024-06-05 20:04:05.665510
4.705509595,3.961018801,-9.818050385,-2.663809776,2024-06-05 20:04:05.705510
4.745509595,7.55294466,-11.12363434,-6.771986961,2024-06-05 20:04:05.745510
4.785509595,15.37418461,-7.366304398,-5.721538067,2024-06-05 20:04:05.785510
4.825509595,7.835597038,-10.46710396,-2.39910388,2024-06-05 20:04:05.825510
4.865509595,10.12463093,-7.775776386,-4.580161572,2024-06-05 20:04:05.865510
4.905509595,7.555337429,-7.658527851,-3.51894474,2024-06-05 20:04:05.905510
4.945509595,9.06700325,-3.468695641,0.2132603228,2024-06-05 20:04:05.945510
4.985509595,7.340880871,-5.085645199,-3.867399693,2024-06-05 20:04:05.985510
5.025509595,7.916055679,-6.809075832,-2.789433002,2024-06-05 20:04:06.025510
5.065509595,7.14945507,-4.061517239,-1.498505235,2024-06-05 20:04:06.065510
5.105509595,4.448556423,-4.66151762,-0.8072785139,2024-06-05 20:04:06.105510
5.145509595,6.994818687,-5.218746185,-1.022931695,2024-06-05 20:04:06.145510
5.185509595,9.212965012,-4.037589073,-4.226921082,2024-06-05 20:04:06.185510
5.225509595,9.770194054,-4.897509575,-0.6864410043,2024-06-05 20:04:06.225510
5.265509595,9.390333176,-5.357530117,-2.33449769,2024-06-05 20:04:06.265510
5.305509595,9.436993599,-4.974379063,-1.263709426,2024-06-05 20:04:06.305510
5.345509595,7.864310741,-5.484349728,-0.5234299302,2024-06-05 20:04:06.345510
5.385509595,8.740083694,-5.939583778,-0.01794617064,2024-06-05 20:04:06.385510
5.425509595,8.950652122,-5.265406132,-0.2503490746,2024-06-05 20:04:06.425510
5.465509595,9.179466248,-5.05812788,0.8431708813,2024-06-05 20:04:06.465510
5.505509595,8.893224716,-5.677270889,2.232503414,2024-06-05 20:04:06.505510
5.545509595,9.735198975,-5.680860043,1.683948994,2024-06-05 20:04:06.545510
5.585509595,7.790132999,-4.775475979,1.655235052,2024-06-05 20:04:06.585510
5.625509595,7.790132999,-4.775475979,1.655235052,2024-06-05 20:04:06.625510
5.665509595,7.790132999,-4.775475979,1.655235052,2024-06-05 20:04:06.665510
5.705509595,7.790132999,-4.775475979,1.655235052,2024-06-05 20:04:06.705510
5.745509595,7.790132999,-4.775475979,1.655235052,2024-06-05 20:04:06.745510
5.785509595,7.790132999,-4.775475979,1.655235052,2024-06-05 20:04:06.785510
5.825509595,7.790132999,-4.775475979,1.655235052,2024-06-05 20:04:06.825510
5.865509595,7.790132999,-4.775475979,1.655235052,2024-06-05 20:04:06.865510
5.905509595,4.236492634,-6.293123722,-1.919941068,2024-06-05 20:04:06.905510
5.945509595,4.236492634,-6.293123722,-1.919941068,2024-06-05 20:04:06.945510
5.985509595,4.236492634,-6.293123722,-1.919941068,2024-06-05 20:04:06.985510
6.025509595,4.236492634,-6.293123722,-1.919941068,2024-06-05 20:04:07.025510
6.065509595,4.236492634,-6.293123722,-1.919941068,2024-06-05 20:04:07.065510
6.105509595,4.236492634,-6.293123722,-1.919941068,2024-06-05 20:04:07.105510
6.145509595,4.236492634,-6.293123722,-1.919941068,2024-06-05 20:04:07.145510
6.145509595,1.879263043,-8.584251404,-0.05503492057,2024-06-05 20:04:07.145510
6.225509595,1.879263043,-8.584251404,-0.05503492057,2024-06-05 20:04:07.225510
6.265509595,1.879263043,-8.584251404,-0.05503492057,2024-06-05 20:04:07.265510
6.305509595,1.879263043,-8.584251404,-0.05503492057,2024-06-05 20:04:07.305510
6.345509595,1.879263043,-8.584251404,-0.05503492057,2024-06-05 20:04:07.345510
6.385509595,3.220739365,-10.03729248,-2.741576433,2024-06-05 20:04:07.385510
6.425509595,3.370589733,-9.407083511,-0.7546364665,2024-06-05 20:04:07.425510
6.465509595,6.76361227,-9.796515465,1.398903966,2024-06-05 20:04:07.465510
6.505509595,7.956733704,-8.56271553,2.511566401,2024-06-05 20:04:07.505510
6.545509595,3.086741209,-12.70319653,9.084949493,2024-06-05 20:04:07.545510
6.585509595,-2.008774519,-12.70080376,2.032702923,2024-06-05 20:04:07.585510
6.625509595,2.67338109,-4.629214287,1.109073281,2024-06-05 20:04:07.625510
6.665509595,1.97138679,-6.90030241,-0.3915255964,2024-06-05 20:04:07.665510
6.705509595,0.641874671,-6.354140759,4.641178608,2024-06-05 20:04:07.705510
6.745509595,-0.8443672657,-8.913563728,-2.915355206,2024-06-05 20:04:07.745510
6.785509595,1.977368832,-8.903991699,-3.343969584,2024-06-05 20:04:07.785510
6.825509595,1.38574338,-9.683753014,-2.983550787,2024-06-05 20:04:07.825510
6.865509595,4.677071095,-9.474081993,5.374279499,2024-06-05 20:04:07.865510
6.905509595,3.433999538,-10.02144051,-1.60977149,2024-06-05 20:04:07.905510
6.945509595,5.502594948,-8.851349831,-1.20867455,2024-06-05 20:04:07.945510
6.985509595,6.120541096,-13.74407387,1.728216171,2024-06-05 20:04:07.985510
7.025509595,-1.518844128,-15.25932884,5.358726501,2024-06-05 20:04:08.025510
7.065509595,-1.94865489,-10.0082798,-1.426421404,2024-06-05 20:04:08.065510
7.105509595,-3.417249918,-11.33061314,1.509272933,2024-06-05 20:04:08.105510
7.145509595,-5.285745144,-14.09522057,2.688934565,2024-06-05 20:04:08.145510
7.185509595,-1.064806104,-8.17956543,-1.250548959,2024-06-05 20:04:08.185510
7.225509595,3.058924675,-7.275078297,-1.272084355,2024-06-05 20:04:08.225510
7.265509595,3.058924675,-7.275078297,-1.272084355,2024-06-05 20:04:08.265510
7.305509595,3.058924675,-7.275078297,-1.272084355,2024-06-05 20:04:08.305510
7.345509595,3.058924675,-7.275078297,-1.272084355,2024-06-05 20:04:08.345510
7.385509595,3.058924675,-7.275078297,-1.272084355,2024-06-05 20:04:08.385510
7.425509595,3.058924675,-7.275078297,-1.272084355,2024-06-05 20:04:08.425510
7.465509595,3.058924675,-7.275078297,-1.272084355,2024-06-05 20:04:08.465510
7.505509595,3.058924675,-7.275078297,-1.272084355,2024-06-05 20:04:08.505510
7.545509595,3.058924675,-7.275078297,-1.272084355,2024-06-05 20:04:08.545510
7.585509595,3.058924675,-7.275078297,-1.272084355,2024-06-05 20:04:08.585510
7.625509595,3.058924675,-7.275078297,-1.272084355,2024-06-05 20:04:08.625510
7.665509595,3.058924675,-7.275078297,-1.272084355,2024-06-05 20:04:08.665510
7.705509595,3.058924675,-7.275078297,-1.272084355,2024-06-05 20:04:08.705510
7.745509595,3.058924675,-7.275078297,-1.272084355,2024-06-05 20:04:08.745510
7.785509595,3.058924675,-7.275078297,-1.272084355,2024-06-05 20:04:08.785510
7.825509595,3.058924675,-7.275078297,-1.272084355,2024-06-05 20:04:08.825510
7.865509595,3.058924675,-7.275078297,-1.272084355,2024-06-05 20:04:08.865510
7.905509595,0.6203392744,-9.540184021,1.576271892,2024-06-05 20:04:08.905510
7.945509595,0.6203392744,-9.540184021,1.576271892,2024-06-05 20:04:08.945510
7.985509595,0.6203392744,-9.540184021,1.576271892,2024-06-05 20:04:08.985510
8.025509595,0.6203392744,-9.540184021,1.576271892,2024-06-05 20:04:09.025510
8.065509595,1.710269928,-12.06012535,10.4599247,2024-06-05 20:04:09.065510
8.105509595,2.728415966,-9.585647583,-3.200400352,2024-06-05 20:04:09.105510
8.145509595,1.509272933,-9.108877182,-4.187439442,2024-06-05 20:04:09.145510
8.185509595,1.313958764,-9.202198029,-3.837489367,2024-06-05 20:04:09.185510
8.225509595,-1.60977149,-10.1772728,0.2012962103,2024-06-05 20:04:09.225510
8.265509595,-0.751047194,-9.48484993,1.251745343,2024-06-05 20:04:09.265510
8.305509595,0.3783650696,-9.845567703,-3.622135162,2024-06-05 20:04:09.305510
8.345509595,1.435992718,-10.84935665,2.666202545,2024-06-05 20:04:09.345510
8.385509595,0.3903291821,-10.0142622,0.142672047,2024-06-05 20:04:09.385510
8.425509595,0.3017947674,-10.1401844,-1.050449133,2024-06-05 20:04:09.425510
8.465509595,1.307976723,-10.50538826,-2.128415823,2024-06-05 20:04:09.465510
8.505509595,2.414657116,-10.1772728,-0.1857428551,2024-06-05 20:04:09.505510
8.545509595,3.809971809,-7.381857872,-0.9643075466,2024-06-05 20:04:09.545510
8.585509595,6.718148708,-7.345666409,-1.636092424,2024-06-05 20:04:09.585510
8.625509595,3.715455294,-9.045467377,-3.727419376,2024-06-05 20:04:09.625510
8.665509595,-1.627717614,-12.27577877,-0.1196411327,2024-06-05 20:04:09.665510
8.705509595,-0.003589233849,-9.274281502,5.491827011,2024-06-05 20:04:09.705510
8.745509595,-1.218245864,-9.672985077,-1.727019787,2024-06-05 20:04:09.745510
8.785509595,0.913759172,-9.671789169,-1.40010035,2024-06-05 20:04:09.785510
8.825509595,0.4612165689,-9.247960091,-2.558525562,2024-06-05 20:04:09.825510
8.865509595,1.200000525,-9.983155251,-1.064806104,2024-06-05 20:04:09.865510
8.905509595,1.554736495,-9.643074989,-1.328315616,2024-06-05 20:04:09.905510
8.945509595,1.554736495,-9.643074989,-1.328315616,2024-06-05 20:04:09.945510
8.985509595,1.554736495,-9.643074989,-1.328315616,2024-06-05 20:04:09.985510
9.025509595,1.554736495,-9.643074989,-1.328315616,2024-06-05 20:04:10.025510
9.065509595,1.554736495,-9.643074989,-1.328315616,2024-06-05 20:04:10.065510
9.105509595,1.554736495,-9.643074989,-1.328315616,2024-06-05 20:04:10.105510
9.145509595,1.554736495,-9.643074989,-1.328315616,2024-06-05 20:04:10.145510
9.185509595,1.554736495,-9.643074989,-1.328315616,2024-06-05 20:04:10.185510
9.225509595,1.554736495,-9.643074989,-1.328315616,2024-06-05 20:04:10.225510
9.265509595,1.554736495,-9.643074989,-1.328315616,2024-06-05 20:04:10.265510
9.305509595,1.554736495,-9.643074989,-1.328315616,2024-06-05 20:04:10.305510
9.345509595,1.554736495,-9.643074989,-1.328315616,2024-06-05 20:04:10.345510
9.385509595,1.554736495,-9.643074989,-1.328315616,2024-06-05 20:04:10.385510
9.425509595,1.554736495,-9.643074989,-1.328315616,2024-06-05 20:04:10.425510
9.465509595,1.554736495,-9.643074989,-1.328315616,2024-06-05 20:04:10.465510
9.505509595,1.554736495,-9.643074989,-1.328315616,2024-06-05 20:04:10.505510
9.545509595,1.554736495,-9.643074989,-1.328315616,2024-06-05 20:04:10.545510
9.585509595,1.554736495,-9.643074989,-1.328315616,2024-06-05 20:04:10.585510
9.625509595,1.554736495,-9.643074989,-1.328315616,2024-06-05 20:04:10.625510
9.665509595,1.554736495,-9.643074989,-1.328315616,2024-06-05 20:04:10.665510
9.705509595,1.554736495,-9.643074989,-1.328315616,2024-06-05 20:04:10.705510
9.745509595,1.077966571,-9.855138779,-0.6669993401,2024-06-05 20:04:10.745510
9.785509595,1.376172066,-9.559326172,-0.8096713424,2024-06-05 20:04:10.785510
9.825509595,1.317547917,-9.69093132,-0.7163512707,2024-06-05 20:04:10.825510
9.865509595,1.215852976,-9.639486313,-0.3317050338,2024-06-05 20:04:10.865510
9.905509595,1.016949654,-9.807282448,-1.140179992,2024-06-05 20:04:10.905510
9.945509595,0.2120639086,-9.754341125,-0.4372883439,2024-06-05 20:04:10.945510
9.985509595,0.1028913707,-10.44915771,-0.002392822644,2024-06-05 20:04:10.985510
10.0255096,1.267298698,-10.0839529,-0.6454638839,2024-06-05 20:04:11.025510
10.0655096,1.287637711,-9.276674271,-0.5545366406,2024-06-05 20:04:11.065510
10.1055096,1.013360381,-9.119645119,-1.336690545,2024-06-05 20:04:11.105510
10.1455096,1.40010035,-9.397511482,-1.582253933,2024-06-05 20:04:11.145510
10.1855096,1.172483087,-9.313762665,-1.353440285,2024-06-05 20:04:11.185510
10.2255096,0.5832505226,-10.08036327,-1.453938842,2024-06-05 20:04:11.225510
10.2655096,1.449153185,-9.649057388,-1.019342422,2024-06-05 20:04:11.265510
10.3055096,1.922333837,-9.452547073,-0.8276175261,2024-06-05 20:04:11.305510
10.3455096,1.808674812,-9.674181938,-0.7211369276,2024-06-05 20:04:11.345510
10.3855096,1.26490593,-9.882657051,-1.294816136,2024-06-05 20:04:11.385510
10.4255096,1.374975681,-9.876674652,-0.584446907,2024-06-05 20:04:11.425510
10.4655096,3.245863914,-10.22273636,0.9451649189,2024-06-05 20:04:11.465510
10.5055096,5.901299,-10.13539886,2.878266573,2024-06-05 20:04:11.505510
10.5455096,4.485645294,-9.258728027,5.005486012,2024-06-05 20:04:11.545510
10.5855096,2.885445118,-8.060821533,-1.013360381,2024-06-05 20:04:11.585510
10.6255096,1.421635747,-6.739684105,-3.450749397,2024-06-05 20:04:11.625510
10.6655096,1.421635747,-6.739684105,-3.450749397,2024-06-05 20:04:11.665510
10.7055096,1.421635747,-6.739684105,-3.450749397,2024-06-05 20:04:11.705510
10.7455096,1.421635747,-6.739684105,-3.450749397,2024-06-05 20:04:11.745510
10.7855096,1.421635747,-6.739684105,-3.450749397,2024-06-05 20:04:11.785510
10.8255096,1.421635747,-6.739684105,-3.450749397,2024-06-05 20:04:11.825510
10.8655096,1.421635747,-6.739684105,-3.450749397,2024-06-05 20:04:11.865510
10.9055096,10.64447117,-7.57806921,-2.823231697,2024-06-05 20:04:11.905510
10.9455096,10.64447117,-7.57806921,-2.823231697,2024-06-05 20:04:11.945510
10.9855096,10.64447117,-7.57806921,-2.823231697,2024-06-05 20:04:11.985510
11.0255096,10.64447117,-7.57806921,-2.823231697,2024-06-05 20:04:12.025510
11.0655096,10.64447117,-7.57806921,-2.823231697,2024-06-05 20:04:12.065510
11.1055096,10.64447117,-7.57806921,-2.823231697,2024-06-05 20:04:12.105510
11.1455096,10.64447117,-7.57806921,-2.823231697,2024-06-05 20:04:12.145510
11.1855096,10.64447117,-7.57806921,-2.823231697,2024-06-05 20:04:12.185510
11.2255096,10.64447117,-7.57806921,-2.823231697,2024-06-05 20:04:12.225510
11.2655096,10.64447117,-7.57806921,-2.823231697,2024-06-05 20:04:12.265510
11.3055096,10.64447117,-7.57806921,-2.823231697,2024-06-05 20:04:12.305510
11.3455096,10.64447117,-7.57806921,-2.823231697,2024-06-05 20:04:12.345510
11.3855096,10.64447117,-7.57806921,-2.823231697,2024-06-05 20:04:12.385510
11.4255096,10.64447117,-7.57806921,-2.823231697,2024-06-05 20:04:12.425510
11.4655096,14.76700592,1.610967875,0.4875376225,2024-06-05 20:04:12.465510
11.5055096,-0.375972271,-15.23420429,1.879263043,2024-06-05 20:04:12.505510
11.5455096,2.909373283,-15.0652113,4.39800787,2024-06-05 20:04:12.545510
11.5855096,0.674476862,-27.70051193,8.74965477,2024-06-05 20:04:12.585510
11.6255096,-6.122933865,-18.80459404,5.857031822,2024-06-05 20:04:12.625510
11.6655096,-3.795614958,-13.45543957,-1.802692771,2024-06-05 20:04:12.665510
11.7055096,-0.8647062778,-5.255835056,-7.629814148,2024-06-05 20:04:12.705510
11.7455096,-1.846959949,1.970190287,-2.813660383,2024-06-05 20:04:12.745510
11.7855096,-3.063710213,6.22582531,12.22433281,2024-06-05 20:04:12.785510
11.8255096,8.441878319,11.84207916,-0.7486543655,2024-06-05 20:04:12.825510
11.8655096,-2.981158018,-6.996015072,-3.345465183,2024-06-05 20:04:12.865510
11.9055096,-2.07098794,-6.34815836,-1.188036442,2024-06-05 20:04:12.905510
11.9455096,-20.70539284,-68.84060669,27.1384964,2024-06-05 20:04:12.945510
11.9855096,-4.147658825,-10.86849976,-7.432106972,2024-06-05 20:04:12.985510
12.0255096,2.829213619,-8.662017822,-4.880760193,2024-06-05 20:04:13.025510
12.0655096,1.509272933,-11.80140114,-2.466102839,2024-06-05 20:04:13.065510
12.1055096,3.085544825,-10.18205833,-1.358225942,2024-06-05 20:04:13.105510
12.1455096,2.084148407,-9.14596653,2.621935368,2024-06-05 20:04:13.145510
12.1855096,-0.2467598319,-7.869096279,-2.179861546,2024-06-05 20:04:13.185510
12.2255096,0.3987040818,-7.742276669,3.157329559,2024-06-05 20:04:13.225510
12.2655096,-1.118644595,-9.027522087,-1.463510156,2024-06-05 20:04:13.265510
12.3055096,-3.35862565,-11.35693455,1.697109461,2024-06-05 20:04:13.305510
12.3455096,-3.35862565,-11.35693455,1.697109461,2024-06-05 20:04:13.345510
12.3855096,-3.35862565,-11.35693455,1.697109461,2024-06-05 20:04:13.385510
12.4255096,-3.35862565,-11.35693455,1.697109461,2024-06-05 20:04:13.425510
12.4655096,-3.35862565,-11.35693455,1.697109461,2024-06-05 20:04:13.465510
12.5055096,-3.35862565,-11.35693455,1.697109461,2024-06-05 20:04:13.505510
12.5455096,-3.35862565,-11.35693455,1.697109461,2024-06-05 20:04:13.545510
12.5855096,-3.35862565,-11.35693455,1.697109461,2024-06-05 20:04:13.585510
12.6255096,-3.35862565,-11.35693455,1.697109461,2024-06-05 20:04:13.625510
12.6655096,-3.35862565,-11.35693455,1.697109461,2024-06-05 20:04:13.665510
12.7055096,-3.35862565,-11.35693455,1.697109461,2024-06-05 20:04:13.705510
12.7455096,-3.35862565,-11.35693455,1.697109461,2024-06-05 20:04:13.745510
12.7855096,-3.35862565,-11.35693455,1.697109461,2024-06-05 20:04:13.785510
12.8255096,-3.35862565,-11.35693455,1.697109461,2024-06-05 20:04:13.825510
12.8655096,-3.35862565,-11.35693455,1.697109461,2024-06-05 20:04:13.865510
12.9055096,-3.35862565,-11.35693455,1.697109461,2024-06-05 20:04:13.905510
12.9455096,-3.35862565,-11.35693455,1.697109461,2024-06-05 20:04:13.945510
12.9855096,-3.35862565,-11.35693455,1.697109461,2024-06-05 20:04:13.985510
13.0255096,-3.35862565,-11.35693455,1.697109461,2024-06-05 20:04:14.025510
13.0655096,-3.35862565,-11.35693455,1.697109461,2024-06-05 20:04:14.065510
13.1055096,-3.35862565,-11.35693455,1.697109461,2024-06-05 20:04:14.105510
13.1455096,2.189432621,-10.99771214,-0.2742772996,2024-06-05 20:04:14.145510
13.1855096,2.661417007,-9.785747528,-3.386143208,2024-06-05 20:04:14.185510
13.2255096,1.000199914,-9.772586823,-0.7630113363,2024-06-05 20:04:14.225510
13.2655096,0.6586244106,-11.27916813,-0.1666002721,2024-06-05 20:04:14.265510
13.3055096,2.224128723,-10.22871876,0.5330012441,2024-06-05 20:04:14.305510
13.3455096,3.636492252,-5.114359379,-0.4588237405,2024-06-05 20:04:14.345510
13.3855096,2.264806747,-2.973979473,-0.1797607988,2024-06-05 20:04:14.385510
13.4255096,2.853141785,-4.858027935,-0.1486541033,2024-06-05 20:04:14.425510
13.4655096,3.080759048,-8.648857117,3.401696444,2024-06-05 20:04:14.465510
13.5055096,-2.77746892,-18.10170364,8.367402077,2024-06-05 20:04:14.505510
13.5455096,1.947458506,-10.92592716,1.94865489,2024-06-05 20:04:14.545510
13.5855096,10.55922699,-10.48265648,-3.085544825,2024-06-05 20:04:14.585510
13.6255096,2.204986095,-12.96790218,5.680860043,2024-06-05 20:04:14.625510
13.6655096,2.376372099,-1.943869352,-2.175075769,2024-06-05 20:04:14.665510
13.7055096,4.771886349,-6.427121639,-0.5294120312,2024-06-05 20:04:14.705510
13.7455096,5.483152866,-15.67747498,-2.603989124,2024-06-05 20:04:14.745510
13.7855096,0.4971089065,-8.762815475,-2.637488842,2024-06-05 20:04:14.785510
13.8255096,-1.305583835,-11.00967598,-0.699601531,2024-06-05 20:04:14.825510
13.8655096,-1.238584876,-12.84227943,2.630310297,2024-06-05 20:04:14.865510
13.9055096,-2.314158678,-12.62064362,-1.008574724,2024-06-05 20:04:14.905510
13.9455096,1.113858938,-10.54726315,-3.556033611,2024-06-05 20:04:14.945510
13.9855096,-0.06699903309,-10.02981567,-2.580060959,2024-06-05 20:04:14.985510
14.0255096,-0.06699903309,-10.02981567,-2.580060959,2024-06-05 20:04:15.025510
14.0655096,-0.06699903309,-10.02981567,-2.580060959,2024-06-05 20:04:15.065510
14.1055096,-0.06699903309,-10.02981567,-2.580060959,2024-06-05 20:04:15.105510
14.1455096,-0.06699903309,-10.02981567,-2.580060959,2024-06-05 20:04:15.145510
14.1855096,-0.06699903309,-10.02981567,-2.580060959,2024-06-05 20:04:15.185510
14.2255096,-0.06699903309,-10.02981567,-2.580060959,2024-06-05 20:04:15.225510
14.2655096,-0.06699903309,-10.02981567,-2.580060959,2024-06-05 20:04:15.265510
14.3055096,-0.06699903309,-10.02981567,-2.580060959,2024-06-05 20:04:15.305510
14.3455096,-0.06699903309,-10.02981567,-2.580060959,2024-06-05 20:04:15.345510
14.3855096,-0.06699903309,-10.02981567,-2.580060959,2024-06-05 20:04:15.385510
14.4255096,-0.06699903309,-10.02981567,-2.580060959,2024-06-05 20:04:15.425510
14.4655096,-0.06699903309,-10.02981567,-2.580060959,2024-06-05 20:04:15.465510
14.5055096,-0.06699903309,-10.02981567,-2.580060959,2024-06-05 20:04:15.505510
14.5455096,-0.06699903309,-10.02981567,-2.580060959,2024-06-05 20:04:15.545510
14.5855096,-0.06699903309,-10.02981567,-2.580060959,2024-06-05 20:04:15.585510
14.6255096,-0.06699903309,-10.02981567,-2.580060959,2024-06-05 20:04:15.625510
14.6655096,-0.06699903309,-10.02981567,-2.580060959,2024-06-05 20:04:15.665510
14.7055096,-0.06699903309,-10.02981567,-2.580060959,2024-06-05 20:04:15.705510
14.7455096,-0.06699903309,-10.02981567,-2.580060959,2024-06-05 20:04:15.745510
14.7855096,-0.06699903309,-10.02981567,-2.580060959,2024-06-05 20:04:15.785510
14.8255096,5.102395058,-2.375175476,0.2922234535,2024-06-05 20:04:15.825510
14.8655096,3.89880538,-3.416053534,2.407478571,2024-06-05 20:04:15.865510
14.9055096,-1.076770186,-14.23280811,13.78385448,2024-06-05 20:04:15.905510
14.9455096,-1.024128079,-16.8475647,3.995714664,2024-06-05 20:04:15.945510
14.9855096,8.839385986,-9.825228691,-0.3221337497,2024-06-05 20:04:15.985510
15.0255096,6.191129684,-19.5831604,10.60020447,2024-06-05 20:04:16.025510
15.0655096,2.620738983,-2.436192513,-8.482556343,2024-06-05 20:04:16.065510
15.1055096,1.98813653,-2.348854542,-3.821935892,2024-06-05 20:04:16.105510
15.1455096,10.43001461,-15.10229969,-1.745265007,2024-06-05 20:04:16.145510
15.1855096,-1.113858938,-10.47667503,-3.983750582,2024-06-05 20:04:16.185510
15.2255096,-2.881855726,-8.027321815,5.236692429,2024-06-05 20:04:16.225510
15.2655096,0.7175477147,-10.68275642,-1.642074585,2024-06-05 20:04:16.265510
15.3055096,3.674777269,-10.11625576,3.901198149,2024-06-05 20:04:16.305510
15.3455096,1.176072359,-9.761520386,-0.2718844712,2024-06-05 20:04:16.345510
15.3855096,1.159322619,-9.861121178,-2.177468538,2024-06-05 20:04:16.385510
15.4255096,0.6634100676,-9.873085022,5.611468315,2024-06-05 20:04:16.425510
15.4655096,-1.10309124,-11.84566879,-0.7869395614,2024-06-05 20:04:16.465510
15.5055096,-2.291426897,-10.68036366,-2.357229471,2024-06-05 20:04:16.505510
15.5455096,-1.555932879,-13.32383442,6.899106026,2024-06-05 20:04:16.545510
15.5855096,-1.087537885,-12.68405342,2.953640461,2024-06-05 20:04:16.585510
15.6255096,3.311666489,-11.60130119,-0.8479565382,2024-06-05 20:04:16.625510
15.6655096,6.179165363,-12.38465214,-3.529712439,2024-06-05 20:04:16.665510
15.7055096,3.708276987,-12.90568924,2.467299223,2024-06-05 20:04:16.705510
15.7455096,3.708276987,-12.90568924,2.467299223,2024-06-05 20:04:16.745510
15.7855096,3.708276987,-12.90568924,2.467299223,2024-06-05 20:04:16.785510
15.8255096,3.708276987,-12.90568924,2.467299223,2024-06-05 20:04:16.825510
15.8655096,3.708276987,-12.90568924,2.467299223,2024-06-05 20:04:16.865510
15.9055096,3.708276987,-12.90568924,2.467299223,2024-06-05 20:04:16.905510
15.9455096,3.708276987,-12.90568924,2.467299223,2024-06-05 20:04:16.945510
15.9855096,3.708276987,-12.90568924,2.467299223,2024-06-05 20:04:16.985510
16.0255096,3.708276987,-12.90568924,2.467299223,2024-06-05 20:04:17.025510
16.0655096,3.708276987,-12.90568924,2.467299223,2024-06-05 20:04:17.065510
16.1055096,3.708276987,-12.90568924,2.467299223,2024-06-05 20:04:17.105510
16.1455096,10.0767746,-19.67917252,-5.253442287,2024-06-05 20:04:17.145510
16.1855096,10.0767746,-19.67917252,-5.253442287,2024-06-05 20:04:17.185510
16.2255096,10.0767746,-19.67917252,-5.253442287,2024-06-05 20:04:17.225510
16.2655096,10.0767746,-19.67917252,-5.253442287,2024-06-05 20:04:17.265510
16.3055096,10.0767746,-19.67917252,-5.253442287,2024-06-05 20:04:17.305510
16.3455096,10.0767746,-19.67917252,-5.253442287,2024-06-05 20:04:17.345510
16.3855096,10.0767746,-19.67917252,-5.253442287,2024-06-05 20:04:17.385510
16.4255096,10.0767746,-19.67917252,-5.253442287,2024-06-05 20:04:17.425510
16.4655096,10.0767746,-19.67917252,-5.253442287,2024-06-05 20:04:17.465510
16.5055096,1.166501045,-8.810671806,-1.984547257,2024-06-05 20:04:17.505510
16.5455096,0.536590457,-10.3534441,-2.327319145,2024-06-05 20:04:17.545510
16.5855096,2.775076151,-10.22273636,11.54506969,2024-06-05 20:04:17.585510
16.6255096,-0.7654041648,-10.31755257,-2.193022013,2024-06-05 20:04:17.625510
16.6655096,-2.655434847,-10.5233345,-2.279462576,2024-06-05 20:04:17.665510
16.7055096,-2.853141785,-13.87238884,0.6275177598,2024-06-05 20:04:17.705510
16.7455096,1.226620674,-14.03390503,7.92443037,2024-06-05 20:04:17.745510
16.7855096,7.75424099,-11.65783215,-1.874477386,2024-06-05 20:04:17.785510
16.8255096,7.071389198,-10.63370419,-3.443570852,2024-06-05 20:04:17.825510
16.8655096,6.881159782,-9.251549721,2.018345833,2024-06-05 20:04:17.865510
16.9055096,-0.4265206456,-8.851349831,-2.317747831,2024-06-05 20:04:17.905510
16.9455096,-0.6287141442,-9.297013283,-0.6708876491,2024-06-05 20:04:17.945510
16.9855096,0.970289588,-7.373483181,-1.274477124,2024-06-05 20:04:17.985510
17.0255096,3.395714521,-4.66151762,-1.242174029,2024-06-05 20:04:18.025510
17.0655096,4.452145576,-5.24506712,-0.5688936114,2024-06-05 20:04:18.065510
17.1055096,3.093919754,-8.076375008,1.372582912,2024-06-05 20:04:18.105510
17.1455096,-1.558325768,-14.32403469,7.53858757,2024-06-05 20:04:18.145510
17.1855096,1.84456718,-10.50538826,6.805486679,2024-06-05 20:04:18.185510
17.2255096,2.565704107,-9.735198975,-1.94865489,2024-06-05 20:04:18.225510
17.2655096,4.564608097,-11.41226864,-3.731008768,2024-06-05 20:04:18.265510
17.3055096,3.817150354,-9.981958389,-1.141376376,2024-06-05 20:04:18.305510
17.3455096,2.358425856,-7.584051132,1.6181463,2024-06-05 20:04:18.345510
17.3855096,3.015853882,-9.487242699,-3.650849104,2024-06-05 20:04:18.385510
17.4255096,3.015853882,-9.487242699,-3.650849104,2024-06-05 20:04:18.425510
17.4655096,3.015853882,-9.487242699,-3.650849104,2024-06-05 20:04:18.465510
17.5055096,3.015853882,-9.487242699,-3.650849104,2024-06-05 20:04:18.505510
17.5455096,3.015853882,-9.487242699,-3.650849104,2024-06-05 20:04:18.545510
17.5855096,3.015853882,-9.487242699,-3.650849104,2024-06-05 20:04:18.585510
17.6255096,3.015853882,-9.487242699,-3.650849104,2024-06-05 20:04:18.625510
17.6655096,3.015853882,-9.487242699,-3.650849104,2024-06-05 20:04:18.665510
17.7055096,3.015853882,-9.487242699,-3.650849104,2024-06-05 20:04:18.705510
17.7455096,3.015853882,-9.487242699,-3.650849104,2024-06-05 20:04:18.745510
17.7855096,3.015853882,-9.487242699,-3.650849104,2024-06-05 20:04:18.785510
17.8255096,3.015853882,-9.487242699,-3.650849104,2024-06-05 20:04:18.825510
17.8655096,3.015853882,-9.487242699,-3.650849104,2024-06-05 20:04:18.865510
17.9055096,1.315155149,-9.519845009,-0.6948158741,2024-06-05 20:04:18.905510
17.9455096,1.315155149,-9.519845009,-0.6948158741,2024-06-05 20:04:18.945510
17.9855096,1.315155149,-9.519845009,-0.6948158741,2024-06-05 20:04:18.985510
18.0255096,1.315155149,-9.519845009,-0.6948158741,2024-06-05 20:04:19.025510
18.0655096,1.315155149,-9.519845009,-0.6948158741,2024-06-05 20:04:19.065510
18.1055096,1.315155149,-9.519845009,-0.6948158741,2024-06-05 20:04:19.105510
18.1455096,1.315155149,-9.519845009,-0.6948158741,2024-06-05 20:04:19.145510
18.1855096,1.300798178,-9.724431038,0.4755735099,2024-06-05 20:04:19.185510
18.2255096,1.728216171,-9.888638496,0.3376871049,2024-06-05 20:04:19.225510
18.2655096,2.618346214,-8.942276955,1.632503271,2024-06-05 20:04:19.265510
18.3055096,1.85294199,-9.374779701,2.147558212,2024-06-05 20:04:19.305510
18.3455096,1.753639936,-9.913763046,1.826620936,2024-06-05 20:04:19.345510
18.3855096,2.23130703,-8.948259354,2.041077614,2024-06-05 20:04:19.385510
18.4255096,1.778764486,-9.178269386,2.631506681,2024-06-05 20:04:19.425510
18.4655096,1.296012521,-9.180662155,3.159722328,2024-06-05 20:04:19.465510
18.5055096,1.347458243,-9.818050385,4.291527271,2024-06-05 20:04:19.505510
18.5455096,1.711466432,-9.74835968,4.726422787,2024-06-05 20:04:19.545510
18.5855096,2.321336985,-8.593822479,2.809772015,2024-06-05 20:04:19.585510
18.6255096,1.099501967,-8.047660828,2.686541557,2024-06-05 20:04:19.625510
18.6655096,0.3628117442,-8.071588516,1.60977149,2024-06-05 20:04:19.665510
18.7055096,0.5533402562,-9.643074989,0.3747758567,2024-06-05 20:04:19.705510
18.7455096,2.074577332,-11.41944695,1.733001828,2024-06-05 20:04:19.745510
18.7855096,1.424028635,-10.38215828,8.481359482,2024-06-05 20:04:19.785510
18.8255096,0.9966106415,-7.802097321,1.591825247,2024-06-05 20:04:19.825510
18.8655096,0.05264209956,-9.401101112,-0.8144569993,2024-06-05 20:04:19.865510
18.9055096,2.068595171,-9.337691307,1.991725802,2024-06-05 20:04:19.905510
18.9455096,1.13419795,-9.990333557,3.231507063,2024-06-05 20:04:19.945510
18.9855096,0.3568296731,-9.607182503,1.846959949,2024-06-05 20:04:19.985510
19.0255096,0.5461617708,-9.159127235,1.133001566,2024-06-05 20:04:20.025510
19.0655096,1.912762642,-9.620343208,1.230209947,2024-06-05 20:04:20.065510
19.1055096,1.912762642,-9.620343208,1.230209947,2024-06-05 20:04:20.105510
19.1455096,1.912762642,-9.620343208,1.230209947,2024-06-05 20:04:20.145510
19.1855096,1.912762642,-9.620343208,1.230209947,2024-06-05 20:04:20.185510
19.2255096,1.912762642,-9.620343208,1.230209947,2024-06-05 20:04:20.225510
19.2655096,1.912762642,-9.620343208,1.230209947,2024-06-05 20:04:20.265510
19.3055096,1.912762642,-9.620343208,1.230209947,2024-06-05 20:04:20.305510
19.3455096,1.912762642,-9.620343208,1.230209947,2024-06-05 20:04:20.345510
19.3855096,1.912762642,-9.620343208,1.230209947,2024-06-05 20:04:20.385510
19.4255096,1.912762642,-9.620343208,1.230209947,2024-06-05 20:04:20.425510
19.4655096,1.912762642,-9.620343208,1.230209947,2024-06-05 20:04:20.465510
19.5055096,1.912762642,-9.620343208,1.230209947,2024-06-05 20:04:20.505510
19.5455096,1.912762642,-9.620343208,1.230209947,2024-06-05 20:04:20.545510
19.5855096,1.912762642,-9.620343208,1.230209947,2024-06-05 20:04:20.585510
19.6255096,1.912762642,-9.620343208,1.230209947,2024-06-05 20:04:20.625510
19.6655096,1.912762642,-9.620343208,1.230209947,2024-06-05 20:04:20.665510
19.7055096,1.912762642,-9.620343208,1.230209947,2024-06-05 20:04:20.705510
19.7455096,1.912762642,-9.620343208,1.230209947,2024-06-05 20:04:20.745510
19.7855096,1.912762642,-9.620343208,1.230209947,2024-06-05 20:04:20.785510
19.8255096,1.912762642,-9.620343208,1.230209947,2024-06-05 20:04:20.825510
19.8655096,1.912762642,-9.620343208,1.230209947,2024-06-05 20:04:20.865510
19.9055096,0.8192426562,-9.530612946,2.082952023,2024-06-05 20:04:20.905510
19.9455096,1.024128079,-9.496813774,1.986940145,2024-06-05 20:04:20.945510
19.9855096,1.125823021,-9.493225098,1.846959949,2024-06-05 20:04:20.985510
20.0255096,1.335494161,-9.546165466,1.808674812,2024-06-05 20:04:21.025510
20.0655096,1.318744421,-9.51745224,1.925923109,2024-06-05 20:04:21.065510
20.1055096,1.625324726,-9.48484993,1.793121457,2024-06-05 20:04:21.105510
20.1455096,2.003689766,-9.607182503,1.723430514,2024-06-05 20:04:21.145510
20.1855096,1.998904228,-9.289834976,1.596610904,2024-06-05 20:04:21.185510
20.2255096,1.878066659,-9.436993599,1.679163337,2024-06-05 20:04:21.225510
20.2655096,1.781157374,-9.410672188,1.432403445,2024-06-05 20:04:21.265510
20.3055096,1.728216171,-9.499206543,1.498505235,2024-06-05 20:04:21.305510
20.3455096,1.85892415,-9.537791252,1.866102576,2024-06-05 20:04:21.345510
20.3855096,1.74885428,-9.560523033,1.508076429,2024-06-05 20:04:21.385510
20.4255096,1.679163337,-9.504291534,1.642074585,2024-06-05 20:04:21.425510
20.4655096,1.395314693,-9.506684303,1.500898004,2024-06-05 20:04:21.465510
20.5055096,1.019342422,-9.656235695,1.398903966,2024-06-05 20:04:21.505510
20.5455096,1.282852054,-9.496813774,1.710269928,2024-06-05 20:04:21.545510
20.5855096,1.564307809,-9.600004196,1.452742457,2024-06-05 20:04:21.585510
20.6255096,1.432403445,-9.503094673,1.685145378,2024-06-05 20:04:21.625510
20.6655096,1.75722909,-9.548559189,1.643270969,2024-06-05 20:04:21.665510
20.7055096,1.608574986,-9.498010635,1.583450437,2024-06-05 20:04:21.705510
20.7455096,1.638485312,-9.505488396,1.53918314,2024-06-05 20:04:21.745510
20.7855096,1.65762794,-9.427422523,1.478166223,2024-06-05 20:04:21.785510
20.8255096,1.65762794,-9.427422523,1.478166223,2024-06-05 20:04:21.825510
20.8655096,1.65762794,-9.427422523,1.478166223,2024-06-05 20:04:21.865510
20.9055096,1.345065475,-9.544969559,1.848156333,2024-06-05 20:04:21.905510
20.9455096,1.345065475,-9.544969559,1.848156333,2024-06-05 20:04:21.945510
20.9855096,1.345065475,-9.544969559,1.848156333,2024-06-05 20:04:21.985510
21.0255096,1.345065475,-9.544969559,1.848156333,2024-06-05 20:04:22.025510
21.0655096,1.345065475,-9.544969559,1.848156333,2024-06-05 20:04:22.065510
21.1055096,1.345065475,-9.544969559,1.848156333,2024-06-05 20:04:22.105510
21.1455096,1.345065475,-9.544969559,1.848156333,2024-06-05 20:04:22.145510
21.1855096,1.345065475,-9.544969559,1.848156333,2024-06-05 20:04:22.185510
21.2255096,1.345065475,-9.544969559,1.848156333,2024-06-05 20:04:22.225510
21.2655096,1.345065475,-9.544969559,1.848156333,2024-06-05 20:04:22.265510
21.3055096,1.345065475,-9.544969559,1.848156333,2024-06-05 20:04:22.305510
21.3455096,1.345065475,-9.544969559,1.848156333,2024-06-05 20:04:22.345510
21.3855096,1.345065475,-9.544969559,1.848156333,2024-06-05 20:04:22.385510
21.4255096,1.345065475,-9.544969559,1.848156333,2024-06-05 20:04:22.425510
21.4655096,1.345065475,-9.544969559,1.848156333,2024-06-05 20:04:22.465510
21.5055096,1.345065475,-9.544969559,1.848156333,2024-06-05 20:04:22.505510
21.5455096,1.345065475,-9.544969559,1.848156333,2024-06-05 20:04:22.545510
21.5855096,1.36899364,-9.429815292,1.692323804,2024-06-05 20:04:22.585510
21.6255096,1.315155149,-9.549755096,1.579861164,2024-06-05 20:04:22.625510
21.6655096,1.440778375,-9.522237778,1.759621978,2024-06-05 20:04:22.665510
21.7055096,1.432403445,-9.492028236,1.735394597,2024-06-05 20:04:22.705510
21.7455096,1.57028985,-9.54257679,1.654038668,2024-06-05 20:04:22.745510
21.7855096,1.608574986,-9.506684303,1.9797616,2024-06-05 20:04:22.785510
21.8255096,1.32113719,-9.413064957,1.709073544,2024-06-05 20:04:22.825510
21.8655096,0.9607182741,-9.499206543,1.631306887,2024-06-05 20:04:22.865510
21.9055096,0.861117065,-9.62154007,1.829013824,2024-06-05 20:04:22.905510
21.9455096,1.189232826,-9.509077072,2.172683001,2024-06-05 20:04:22.945510
21.9855096,0.8862416744,-9.742377281,2.012363911,2024-06-05 20:04:22.985510
22.0255096,0.8742775917,-9.48484993,1.745265007,2024-06-05 20:04:23.025510
22.0655096,1.012163997,-9.530612946,2.08534503,2024-06-05 20:04:23.065510
22.1055096,1.040877819,-9.305388451,1.885245085,2024-06-05 20:04:23.105510
22.1455096,1.146162033,-9.695717812,1.961815476,2024-06-05 20:04:23.145510
22.1855096,1.04685986,-9.420243263,1.958226204,2024-06-05 20:04:23.185510
22.2255096,1.146162033,-9.603593826,1.955833435,2024-06-05 20:04:23.225510
22.2655096,1.339083314,-9.462118149,2.109273195,2024-06-05 20:04:23.265510
22.3055096,1.149751306,-9.512666702,1.872084618,2024-06-05 20:04:23.305510
22.3455096,1.492523074,-9.904191971,2.091326952,2024-06-05 20:04:23.345510
22.3855096,2.76311183,-9.441779137,2.285444736,2024-06-05 20:04:23.385510
22.4255096,2.908176899,-9.770194054,2.596810818,2024-06-05 20:04:23.425510
22.4655096,1.815853238,-9.609575272,3.956233025,2024-06-05 20:04:23.465510
22.5055096,1.815853238,-9.609575272,3.956233025,2024-06-05 20:04:23.505510
22.5455096,1.815853238,-9.609575272,3.956233025,2024-06-05 20:04:23.545510
22.5855096,1.815853238,-9.609575272,3.956233025,2024-06-05 20:04:23.585510
22.6255096,1.815853238,-9.609575272,3.956233025,2024-06-05 20:04:23.625510
22.6655096,1.815853238,-9.609575272,3.956233025,2024-06-05 20:04:23.665510
22.7055096,1.815853238,-9.609575272,3.956233025,2024-06-05 20:04:23.705510
22.7455096,1.815853238,-9.609575272,3.956233025,2024-06-05 20:04:23.745510
22.7855096,1.815853238,-9.609575272,3.956233025,2024-06-05 20:04:23.785510
22.8255096,1.815853238,-9.609575272,3.956233025,2024-06-05 20:04:23.825510
22.8655096,1.815853238,-9.609575272,3.956233025,2024-06-05 20:04:23.865510
22.9055096,1.815853238,-9.609575272,3.956233025,2024-06-05 20:04:23.905510
22.9455096,1.815853238,-9.609575272,3.956233025,2024-06-05 20:04:23.945510
22.9855096,1.815853238,-9.609575272,3.956233025,2024-06-05 20:04:23.985510
23.0255096,1.815853238,-9.609575272,3.956233025,2024-06-05 20:04:24.025510
23.0655096,1.815853238,-9.609575272,3.956233025,2024-06-05 20:04:24.065510
23.1055096,1.815853238,-9.609575272,3.956233025,2024-06-05 20:04:24.105510
23.1455096,1.815853238,-9.609575272,3.956233025,2024-06-05 20:04:24.145510
23.1855096,1.815853238,-9.609575272,3.956233025,2024-06-05 20:04:24.185510
23.2255096,1.815853238,-9.609575272,3.956233025,2024-06-05 20:04:24.225510
23.2655096,-0.4959124923,-10.70070267,-0.04546362907,2024-06-05 20:04:24.265510
23.3055096,-0.6263213158,-9.943673134,-0.2539383173,2024-06-05 20:04:24.305510
23.3455096,0.0239282269,-9.554540634,-0.6526423693,2024-06-05 20:04:24.345510
23.3855096,2.329711914,-9.264710426,-1.290030479,2024-06-05 20:04:24.385510
23.4255096,3.16570425,-9.635896683,0.7905287743,2024-06-05 20:04:24.425510
23.4655096,2.722434044,-9.275477409,0.180957213,2024-06-05 20:04:24.465510
23.5055096,2.776272535,-9.893424034,-1.829013824,2024-06-05 20:04:24.505510
23.5455096,2.806182861,-8.032107353,-1.567897081,2024-06-05 20:04:24.545510
23.5855096,2.654238462,-9.757930756,-1.575075507,2024-06-05 20:04:24.585510
23.6255096,1.532004714,-9.731609344,0.2838485837,2024-06-05 20:04:24.625510
23.6655096,2.054238319,-9.874281883,-0.3161516786,2024-06-05 20:04:24.665510
23.7055096,0.8455637097,-10.15334511,0.04546362907,2024-06-05 20:04:24.705510
23.7455096,1.299601793,-9.450154305,-1.606182218,2024-06-05 20:04:24.745510
23.7855096,2.363211393,-9.683753014,-0.6167500615,2024-06-05 20:04:24.785510
23.8255096,2.18105793,-9.421440125,0.4073780477,2024-06-05 20:04:24.825510
23.8655096,2.158325911,-9.237193108,-1.135394335,2024-06-05 20:04:24.865510
23.9055096,2.191825628,-9.814460754,-1.597807288,2024-06-05 20:04:24.905510
23.9455096,1.201196909,-9.731609344,-0.1438684613,2024-06-05 20:04:24.945510
23.9855096,2.273181438,-9.428618431,-0.5712863803,2024-06-05 20:04:24.985510
24.0255096,2.232503414,-9.350852013,-1.050449133,2024-06-05 20:04:25.025510
24.0655096,1.551147223,-9.768997192,-0.1534397453,2024-06-05 20:04:25.065510
24.1055096,2.007578135,-9.445367813,-0.3197409213,2024-06-05 20:04:25.105510
24.1455096,2.063809633,-9.544969559,-0.8132606149,2024-06-05 20:04:25.145510
24.1855096,2.063809633,-9.544969559,-0.8132606149,2024-06-05 20:04:25.185510
24.2255096,2.063809633,-9.544969559,-0.8132606149,2024-06-05 20:04:25.225510
24.2655096,2.063809633,-9.544969559,-0.8132606149,2024-06-05 20:04:25.265510
24.3055096,2.063809633,-9.544969559,-0.8132606149,2024-06-05 20:04:25.305510
24.3455096,2.063809633,-9.544969559,-0.8132606149,2024-06-05 20:04:25.345510
24.3855096,2.063809633,-9.544969559,-0.8132606149,2024-06-05 20:04:25.385510
24.4255096,2.063809633,-9.544969559,-0.8132606149,2024-06-05 20:04:25.425510
24.4655096,2.063809633,-9.544969559,-0.8132606149,2024-06-05 20:04:25.465510
24.5055096,2.063809633,-9.544969559,-0.8132606149,2024-06-05 20:04:25.505510
24.5455096,2.063809633,-9.544969559,-0.8132606149,2024-06-05 20:04:25.545510
24.5855096,2.063809633,-9.544969559,-0.8132606149,2024-06-05 20:04:25.585510
24.6255096,2.063809633,-9.544969559,-0.8132606149,2024-06-05 20:04:25.625510
24.6655096,2.063809633,-9.544969559,-0.8132606149,2024-06-05 20:04:25.665510
24.7055096,2.063809633,-9.544969559,-0.8132606149,2024-06-05 20:04:25.705510
24.7455096,2.063809633,-9.544969559,-0.8132606149,2024-06-05 20:04:25.745510
24.7855096,2.063809633,-9.544969559,-0.8132606149,2024-06-05 20:04:25.785510
24.8255096,2.063809633,-9.544969559,-0.8132606149,2024-06-05 20:04:25.825510
24.8655096,2.063809633,-9.544969559,-0.8132606149,2024-06-05 20:04:25.865510
24.9055096,2.063809633,-9.544969559,-0.8132606149,2024-06-05 20:04:25.905510
24.9455096,1.907976985,-9.546165466,-0.3735794425,2024-06-05 20:04:25.945510
24.9855096,2.033899307,-9.661021233,-0.728315413,2024-06-05 20:04:25.985510
25.0255096,2.099701881,-9.3807621,-0.803689301,2024-06-05 20:04:26.025510
25.0655096,2.207378864,-9.725627899,-1.022931695,2024-06-05 20:04:26.065510
25.1055096,1.930708766,-9.397511482,-0.5473581553,2024-06-05 20:04:26.105510
25.1455096,2.448156595,-9.37717247,-1.248156071,2024-06-05 20:04:26.145510
25.1855096,2.201396942,-9.603593826,-0.3879363835,2024-06-05 20:04:26.185510
25.2255096,2.038684845,-9.548559189,-0.8670991063,2024-06-05 20:04:26.225510
25.2655096,2.326122761,-9.387940407,-1.203589797,2024-06-05 20:04:26.265510
25.3055096,2.072184324,-9.535398483,-0.8096713424,2024-06-05 20:04:26.305510
25.3455096,1.65762794,-9.055039406,-0.3053839803,2024-06-05 20:04:26.345510
25.3855096,1.764407635,-9.325727463,-0.8886345029,2024-06-05 20:04:26.385510
25.4255096,1.571486235,-9.684949875,-0.7079764009,2024-06-05 20:04:26.425510
25.4655096,2.204986095,-9.574879646,-0.4313062727,2024-06-05 20:04:26.465510
25.5055096,2.137987137,-9.416654587,-1.209870934,2024-06-05 20:04:26.505510
25.5455096,1.867298961,-9.553344727,-0.9906286001,2024-06-05 20:04:26.545510
25.5855096,1.718644857,-9.179466248,-0.3017947674,2024-06-05 20:04:26.585510
25.6255096,1.729412556,-9.35204792,-1.113858938,2024-06-05 20:04:26.625510
25.6655096,1.594218135,-9.584450722,-1.088734269,2024-06-05 20:04:26.665510
25.7055096,2.201396942,-9.59282589,-0.3017947674,2024-06-05 20:04:26.705510
25.7455096,2.344068766,-9.378369331,-1.015753269,2024-06-05 20:04:26.745510
25.7855096,1.957029819,-9.463314056,-0.913759172,2024-06-05 20:04:26.785510
25.8255096,2.111665964,-9.590433121,-0.8060821295,2024-06-05 20:04:26.825510
25.8655096,2.111665964,-9.590433121,-0.8060821295,2024-06-05 20:04:26.865510
25.9055096,2.111665964,-9.590433121,-0.8060821295,2024-06-05 20:04:26.905510
25.9455096,2.111665964,-9.590433121,-0.8060821295,2024-06-05 20:04:26.945510
25.9855096,2.111665964,-9.590433121,-0.8060821295,2024-06-05 20:04:26.985510
26.0255096,2.111665964,-9.590433121,-0.8060821295,2024-06-05 20:04:27.025510
26.0655096,2.111665964,-9.590433121,-0.8060821295,2024-06-05 20:04:27.065510
26.1055096,2.111665964,-9.590433121,-0.8060821295,2024-06-05 20:04:27.105510
26.1455096,2.111665964,-9.590433121,-0.8060821295,2024-06-05 20:04:27.145510
26.1855096,2.111665964,-9.590433121,-0.8060821295,2024-06-05 20:04:27.185510
26.2255096,2.111665964,-9.590433121,-0.8060821295,2024-06-05 20:04:27.225510
26.2655096,2.111665964,-9.590433121,-0.8060821295,2024-06-05 20:04:27.265510
26.3055096,2.111665964,-9.590433121,-0.8060821295,2024-06-05 20:04:27.305510
26.3455096,2.111665964,-9.590433121,-0.8060821295,2024-06-05 20:04:27.345510
26.3855096,2.111665964,-9.590433121,-0.8060821295,2024-06-05 20:04:27.385510
26.4255096,2.111665964,-9.590433121,-0.8060821295,2024-06-05 20:04:27.425510
26.4655096,2.111665964,-9.590433121,-0.8060821295,2024-06-05 20:04:27.465510
26.5055096,2.111665964,-9.590433121,-0.8060821295,2024-06-05 20:04:27.505510
26.5455096,2.111665964,-9.590433121,-0.8060821295,2024-06-05 20:04:27.545510
26.5855096,2.111665964,-9.590433121,-0.8060821295,2024-06-05 20:04:27.585510
26.6255096,2.220539331,-9.30179882,-1.63489604,2024-06-05 20:04:27.625510
26.6655096,2.112862349,-9.749555588,-1.257727385,2024-06-05 20:04:27.665510
26.7055096,1.514058471,-9.798908234,-1.282852054,2024-06-05 20:04:27.705510
26.7455096,0.6000002623,-9.869496346,-0.2503490746,2024-06-05 20:04:27.745510
26.7855096,0.6203392744,-9.771389961,-0.2898306549,2024-06-05 20:04:27.785510
26.8255096,1.596610904,-9.404690742,-0.8096713424,2024-06-05 20:04:27.825510
26.8655096,1.903191328,-9.509077072,-1.131805062,2024-06-05 20:04:27.865510
26.9055096,1.437189102,-9.273084641,-0.6239284873,2024-06-05 20:04:27.905510
26.9455096,1.414457321,-9.314959526,-1.274477124,2024-06-05 20:04:27.945510
26.9855096,1.736590981,-9.990333557,-0.6526423693,2024-06-05 20:04:27.985510
27.0255096,2.167897224,-9.629914284,-0.3125624657,2024-06-05 20:04:28.025510
27.0655096,1.694716692,-9.524630547,-0.9690931439,2024-06-05 20:04:28.065510
27.1055096,2.059023857,-9.184251785,-1.445564032,2024-06-05 20:04:28.105510
27.1455096,2.527119875,-9.37717247,-0.4253242314,2024-06-05 20:04:28.145510
27.1855096,1.639681697,-9.469296455,-0.332901448,2024-06-05 20:04:28.185510
27.2255096,0.8874381185,-9.396315575,-1.366600871,2024-06-05 20:04:28.225510
27.2655096,0.7414759398,-10.06959629,-1.050449133,2024-06-05 20:04:28.265510
27.3055096,0.3544368446,-10.8239336,-0.832403183,2024-06-05 20:04:28.305510
27.3455096,-0.4217349887,-11.04078293,-1.161715388,2024-06-05 20:04:28.345510
27.3855096,0.385543555,-11.23968601,-1.152144074,2024-06-05 20:04:28.385510
27.4255096,2.44935298,-10.40249729,-0.3376871049,2024-06-05 20:04:28.425510
27.4655096,4.182653904,-9.857531548,2.832803011,2024-06-05 20:04:28.465510
27.5055096,1.929512382,-8.725727081,-0.9798609018,2024-06-05 20:04:28.505510
27.5455096,1.929512382,-8.725727081,-0.9798609018,2024-06-05 20:04:28.545510
27.5855096,1.929512382,-8.725727081,-0.9798609018,2024-06-05 20:04:28.585510
27.6255096,1.929512382,-8.725727081,-0.9798609018,2024-06-05 20:04:28.625510
27.6655096,1.929512382,-8.725727081,-0.9798609018,2024-06-05 20:04:28.665510
27.7055096,1.929512382,-8.725727081,-0.9798609018,2024-06-05 20:04:28.705510
27.7455096,1.929512382,-8.725727081,-0.9798609018,2024-06-05 20:04:28.745510
27.7855096,1.929512382,-8.725727081,-0.9798609018,2024-06-05 20:04:28.785510
27.8255096,1.929512382,-8.725727081,-0.9798609018,2024-06-05 20:04:28.825510
27.8655096,1.929512382,-8.725727081,-0.9798609018,2024-06-05 20:04:28.865510
27.9055096,2.48883462,-8.388936996,1.296012521,2024-06-05 20:04:28.905510
27.9455096,2.48883462,-8.388936996,1.296012521,2024-06-05 20:04:28.945510
27.9855096,2.48883462,-8.388936996,1.296012521,2024-06-05 20:04:28.985510
28.0255096,2.48883462,-8.388936996,1.296012521,2024-06-05 20:04:29.025510
28.0655096,2.48883462,-8.388936996,1.296012521,2024-06-05 20:04:29.065510
28.1055096,2.48883462,-8.388936996,1.296012521,2024-06-05 20:04:29.105510
28.1455096,2.48883462,-8.388936996,1.296012521,2024-06-05 20:04:29.145510
28.1855096,2.48883462,-8.388936996,1.296012521,2024-06-05 20:04:29.185510
28.2255096,2.48883462,-8.388936996,1.296012521,2024-06-05 20:04:29.225510
28.2655096,2.48883462,-8.388936996,1.296012521,2024-06-05 20:04:29.265510
28.3055096,2.48883462,-8.388936996,1.296012521,2024-06-05 20:04:29.305510
28.3455096,3.902394533,-10.64088249,-1.115055323,2024-06-05 20:04:29.345510
28.3855096,1.888834357,-9.964012146,1.742872238,2024-06-05 20:04:29.385510
28.4255096,1.548754454,-9.646664619,-2.760719061,2024-06-05 20:04:29.425510
28.4655096,0.318544507,-10.41805077,-2.505584478,2024-06-05 20:04:29.465510
28.5055096,1.028913736,-9.01316452,4.345366001,2024-06-05 20:04:29.505510
28.5455096,0.6263213158,-9.600004196,-1.559522152,2024-06-05 20:04:29.545510
28.5855096,1.345065475,-9.240781784,-1.221835017,2024-06-05 20:04:29.585510
28.6255096,2.024327993,-9.695717812,-0.2886342406,2024-06-05 20:04:29.625510
28.6655096,1.667199135,-10.23230743,1.272084355,2024-06-05 20:04:29.665510
28.7055096,1.66600275,-10.27537823,1.961815476,2024-06-05 20:04:29.705510
28.7455096,1.658824325,-9.830014229,0.08733802289,2024-06-05 20:04:29.745510
28.7855096,1.066002488,-10.96899796,-1.024128079,2024-06-05 20:04:29.785510
28.8255096,1.446760416,-11.67936707,-1.985743642,2024-06-05 20:04:29.825510
28.8655096,5.527719498,-8.478966713,9.227322578,2024-06-05 20:04:29.865510
28.9055096,4.501198292,-9.239585876,1.008574724,2024-06-05 20:04:29.905510
28.9455096,3.328416348,-9.294620514,1.515254974,2024-06-05 20:04:29.945510
28.9855096,2.287837505,-10.72941685,-3.002693415,2024-06-05 20:04:29.985510
29.0255096,1.057627559,-10.59422207,-4.589733124,2024-06-05 20:04:30.025510
29.0655096,0.9714859724,-10.22393322,-0.560518682,2024-06-05 20:04:30.065510
29.1055096,0.385543555,-8.672785759,0.07058826834,2024-06-05 20:04:30.105510
29.1455096,1.306780219,-7.476374149,0.6299105883,2024-06-05 20:04:30.145510
29.1855096,2.191825628,-7.701598644,-0.7725825906,2024-06-05 20:04:30.185510
29.2255096,2.191825628,-7.701598644,-0.7725825906,2024-06-05 20:04:30.225510
29.2655096,2.191825628,-7.701598644,-0.7725825906,2024-06-05 20:04:30.265510
29.3055096,2.191825628,-7.701598644,-0.7725825906,2024-06-05 20:04:30.305510
29.3455096,2.191825628,-7.701598644,-0.7725825906,2024-06-05 20:04:30.345510
29.3855096,2.191825628,-7.701598644,-0.7725825906,2024-06-05 20:04:30.385510
29.4255096,2.191825628,-7.701598644,-0.7725825906,2024-06-05 20:04:30.425510
29.4655096,2.191825628,-7.701598644,-0.7725825906,2024-06-05 20:04:30.465510
29.5055096,2.191825628,-7.701598644,-0.7725825906,2024-06-05 20:04:30.505510
29.5455096,2.191825628,-7.701598644,-0.7725825906,2024-06-05 20:04:30.545510
29.5855096,2.191825628,-7.701598644,-0.7725825906,2024-06-05 20:04:30.585510
29.6255096,2.191825628,-7.701598644,-0.7725825906,2024-06-05 20:04:30.625510
29.6655096,2.191825628,-7.701598644,-0.7725825906,2024-06-05 20:04:30.665510
29.7055096,2.191825628,-7.701598644,-0.7725825906,2024-06-05 20:04:30.705510
29.7455096,2.191825628,-7.701598644,-0.7725825906,2024-06-05 20:04:30.745510
29.7855096,2.191825628,-7.701598644,-0.7725825906,2024-06-05 20:04:30.785510
29.8255096,2.191825628,-7.701598644,-0.7725825906,2024-06-05 20:04:30.825510
29.8655096,2.191825628,-7.701598644,-0.7725825906,2024-06-05 20:04:30.865510
29.9055096,2.191825628,-7.701598644,-0.7725825906,2024-06-05 20:04:30.905510
29.9455096,2.191825628,-7.701598644,-0.7725825906,2024-06-05 20:04:30.945510
29.9855096,2.191825628,-7.701598644,-0.7725825906,2024-06-05 20:04:30.985510
30.0255096,1.94028008,-9.451350212,-0.7965108156,2024-06-05 20:04:31.025510
30.0655096,1.248156071,-9.534201622,-1.470688581,2024-06-05 20:04:31.065510
30.1055096,1.363011599,-9.543772697,-1.209870934,2024-06-05 20:04:31.105510
30.1455096,2.411067963,-9.619147301,-0.6406782866,2024-06-05 20:04:31.145510
30.1855096,2.592025042,-9.465706825,-1.293619752,2024-06-05 20:04:31.185510
30.2255096,2.013560295,-9.610772133,-0.6816553473,2024-06-05 20:04:31.225510
30.2655096,1.729412556,-9.531808853,-1.034895778,2024-06-05 20:04:31.265510
30.3055096,1.839781523,-9.536594391,-1.394118309,2024-06-05 20:04:31.305510
30.3455096,1.974975944,-9.62154007,-1.153340459,2024-06-05 20:04:31.345510
30.3855096,2.345265388,-9.308977127,-0.6263213158,2024-06-05 20:04:31.385510
30.4255096,1.942672849,-9.554540634,-1.116251707,2024-06-05 20:04:31.425510
30.4655096,1.913959026,-9.531808853,-0.8359923959,2024-06-05 20:04:31.465510
30.5055096,2.069791555,-9.574879646,-0.8994022012,2024-06-05 20:04:31.505510
30.5455096,1.857727647,-9.637093544,-0.7893323898,2024-06-05 20:04:31.545510
30.5855096,1.691127419,-9.401101112,-1.091127157,2024-06-05 20:04:31.585510
30.6255096,2.075773716,-9.398708344,-0.7701897621,2024-06-05 20:04:31.625510
30.6655096,2.100898266,-9.653842926,-0.8072785139,2024-06-05 20:04:31.665510
30.7055096,2.177468538,-9.598808289,-0.8635098934,2024-06-05 20:04:31.705510
30.7455096,1.960619092,-9.436993599,-1.109073281,2024-06-05 20:04:31.745510
30.7855096,1.952244163,-9.507881165,-0.832403183,2024-06-05 20:04:31.785510
30.8255096,2.068595171,-9.477671623,-0.8886345029,2024-06-05 20:04:31.825510
30.8655096,2.194218397,-9.529416084,-0.7701897621,2024-06-05 20:04:31.865510
30.9055096,2.092523336,-9.507881165,-0.8156534433,2024-06-05 20:04:31.905510
30.9455096,2.092523336,-9.507881165,-0.8156534433,2024-06-05 20:04:31.945510
30.9855096,2.092523336,-9.507881165,-0.8156534433,2024-06-05 20:04:31.985510
31.0255096,2.092523336,-9.507881165,-0.8156534433,2024-06-05 20:04:32.025510
31.0655096,2.092523336,-9.507881165,-0.8156534433,2024-06-05 20:04:32.065510
31.1055096,2.092523336,-9.507881165,-0.8156534433,2024-06-05 20:04:32.105510
31.1455096,2.092523336,-9.507881165,-0.8156534433,2024-06-05 20:04:32.145510
31.1855096,2.092523336,-9.507881165,-0.8156534433,2024-06-05 20:04:32.185510
31.2255096,2.092523336,-9.507881165,-0.8156534433,2024-06-05 20:04:32.225510
31.2655096,2.092523336,-9.507881165,-0.8156534433,2024-06-05 20:04:32.265510
31.3055096,2.092523336,-9.507881165,-0.8156534433,2024-06-05 20:04:32.305510
31.3455096,2.092523336,-9.507881165,-0.8156534433,2024-06-05 20:04:32.345510
31.3855096,2.092523336,-9.507881165,-0.8156534433,2024-06-05 20:04:32.385510
31.4255096,2.043470621,-9.425029755,-0.9439685345,2024-06-05 20:04:32.425510
31.4655096,2.043470621,-9.425029755,-0.9439685345,2024-06-05 20:04:32.465510
31.5055096,2.043470621,-9.425029755,-0.9439685345,2024-06-05 20:04:32.505510
31.5455096,2.043470621,-9.425029755,-0.9439685345,2024-06-05 20:04:32.545510
31.5855096,2.043470621,-9.425029755,-0.9439685345,2024-06-05 20:04:32.585510
31.6255096,2.043470621,-9.425029755,-0.9439685345,2024-06-05 20:04:32.625510
31.6655096,2.043470621,-9.425029755,-0.9439685345,2024-06-05 20:04:32.665510
31.7055096,1.916351795,-9.59641552,-0.7821539044,2024-06-05 20:04:32.705510
31.7455096,1.995314956,-9.444171906,-0.9451649189,2024-06-05 20:04:32.745510
31.7855096,2.0769701,-9.568898201,-0.9053842425,2024-06-05 20:04:32.785510
31.8255096,1.997707844,-9.499206543,-0.7474579811,2024-06-05 20:04:32.825510
31.8655096,1.957029819,-9.566504478,-0.8347960114,2024-06-05 20:04:32.865510
31.9055096,2.073380709,-9.544969559,-0.8419744968,2024-06-05 20:04:32.905510
31.9455096,2.08534503,-9.589237213,-1.019342422,2024-06-05 20:04:32.945510
31.9855096,2.244467735,-9.48843956,-0.7199404836,2024-06-05 20:04:32.985510
32.0255096,2.006082773,-9.460921288,-1.243370414,2024-06-05 20:04:33.025510
32.0655096,2.236092806,-9.40947628,-0.6900302172,2024-06-05 20:04:33.065510
32.1055096,1.959422588,-9.601201057,-1.04685986,2024-06-05 20:04:33.105510
32.1455096,1.893620014,-9.617950439,-0.9690931439,2024-06-05 20:04:33.145510
32.1855096,2.018345833,-9.476474762,-0.6323033571,2024-06-05 20:04:33.185510
32.2255096,1.974975944,-9.421440125,-1.144965649,2024-06-05 20:04:33.225510
32.2655096,2.120040894,-9.530612946,-0.8826524615,2024-06-05 20:04:33.265510
32.3055096,1.983350873,-9.500701904,-0.9954141974,2024-06-05 20:04:33.305510
32.3455096,1.924726725,-9.549755096,-0.8168498278,2024-06-05 20:04:33.345510
32.3855096,2.002493382,-9.586843491,-0.7869395614,2024-06-05 20:04:33.385510
32.4255096,2.081755638,-9.507881165,-0.8084749579,2024-06-05 20:04:33.425510
32.4655096,1.901994944,-9.54257679,-0.7737790346,2024-06-05 20:04:33.465510
32.5055096,1.918744683,-9.543772697,-0.8419744968,2024-06-05 20:04:33.505510
32.5455096,2.0769701,-9.425029755,-0.7917252183,2024-06-05 20:04:33.545510
32.5855096,1.834995866,-9.607182503,-0.9499505758,2024-06-05 20:04:33.585510
32.6255096,1.834995866,-9.607182503,-0.9499505758,2024-06-05 20:04:33.625510
32.6655096,1.834995866,-9.607182503,-0.9499505758,2024-06-05 20:04:33.665510
32.7055096,1.834995866,-9.607182503,-0.9499505758,2024-06-05 20:04:33.705510
32.7455096,1.834995866,-9.607182503,-0.9499505758,2024-06-05 20:04:33.745510
32.7855096,1.834995866,-9.607182503,-0.9499505758,2024-06-05 20:04:33.785510
32.8255096,1.834995866,-9.607182503,-0.9499505758,2024-06-05 20:04:33.825510
32.8655096,1.834995866,-9.607182503,-0.9499505758,2024-06-05 20:04:33.865510
32.9055096,1.834995866,-9.607182503,-0.9499505758,2024-06-05 20:04:33.905510
32.9455096,1.834995866,-9.607182503,-0.9499505758,2024-06-05 20:04:33.945510
32.9855096,1.834995866,-9.607182503,-0.9499505758,2024-06-05 20:04:33.985510
33.0255096,1.834995866,-9.607182503,-0.9499505758,2024-06-05 20:04:34.025510
33.0655096,1.834995866,-9.607182503,-0.9499505758,2024-06-05 20:04:34.065510
33.1055096,1.834995866,-9.607182503,-0.9499505758,2024-06-05 20:04:34.105510
33.1455096,1.834995866,-9.607182503,-0.9499505758,2024-06-05 20:04:34.145510
33.1855096,1.834995866,-9.607182503,-0.9499505758,2024-06-05 20:04:34.185510
33.2255096,1.834995866,-9.607182503,-0.9499505758,2024-06-05 20:04:34.225510
33.2655096,1.834995866,-9.607182503,-0.9499505758,2024-06-05 20:04:34.265510
33.3055096,1.834995866,-9.607182503,-0.9499505758,2024-06-05 20:04:34.305510
33.3455096,1.834995866,-9.607182503,-0.9499505758,2024-06-05 20:04:34.345510
33.3855096,2.735594511,-9.273084641,-0.7139584422,2024-06-05 20:04:34.385510
33.4255096,2.351247311,-9.463314056,-1.188036442,2024-06-05 20:04:34.425510
33.4655096,1.548754454,-9.489635468,-0.9990034699,2024-06-05 20:04:34.465510
33.5055096,1.546361685,-9.656235695,-0.9631111026,2024-06-05 20:04:34.505510
33.5455096,2.093719721,-9.589237213,-0.4636093974,2024-06-05 20:04:34.545510
33.5855096,2.14995122,-9.441779137,-0.7486543655,2024-06-05 20:04:34.585510
33.6255096,2.271985054,-9.534201622,-0.5162515044,2024-06-05 20:04:34.625510
33.6655096,2.196611166,-9.558130264,-0.9293124676,2024-06-05 20:04:34.665510
33.7055096,2.019542217,-9.537791252,-0.9846464992,2024-06-05 20:04:34.705510
33.7455096,1.9797616,-9.500701904,-0.7977072597,2024-06-05 20:04:34.745510
33.7855096,2.075773716,-9.498010635,-0.7570292354,2024-06-05 20:04:34.785510
33.8255096,2.133201361,-9.546165466,-0.752243638,2024-06-05 20:04:34.825510
33.8655096,2.067398787,-9.609575272,-0.6191428304,2024-06-05 20:04:34.865510
33.9055096,1.85294199,-9.51386261,-0.7582256794,2024-06-05 20:04:34.905510
33.9455096,1.968993902,-9.447761536,-0.8635098934,2024-06-05 20:04:34.945510
33.9855096,2.073380709,-9.62154007,-0.8300103545,2024-06-05 20:04:34.985510
34.0255096,2.309372902,-9.509077072,-0.6263213158,2024-06-05 20:04:35.025510
34.0655096,2.165504456,-9.453742981,-0.8431708813,2024-06-05 20:04:35.065510
34.1055096,2.004886389,-9.470493317,-0.751047194,2024-06-05 20:04:35.105510
34.1455096,1.894816399,-9.649057388,-0.7534400225,2024-06-05 20:04:35.145510
34.1855096,1.967797518,-9.525827408,-0.7953144312,2024-06-05 20:04:35.185510
34.2255096,2.033899307,-9.560523033,-0.8371888399,2024-06-05 20:04:35.225510
34.2655096,2.220539331,-9.616754532,-0.6263213158,2024-06-05 20:04:35.265510
34.3055096,2.220539331,-9.616754532,-0.6263213158,2024-06-05 20:04:35.305510
34.3455096,2.220539331,-9.616754532,-0.6263213158,2024-06-05 20:04:35.345510
34.3855096,2.220539331,-9.616754532,-0.6263213158,2024-06-05 20:04:35.385510
34.4255096,2.220539331,-9.616754532,-0.6263213158,2024-06-05 20:04:35.425510
34.4655096,2.220539331,-9.616754532,-0.6263213158,2024-06-05 20:04:35.465510
34.5055096,2.220539331,-9.616754532,-0.6263213158,2024-06-05 20:04:35.505510
34.5455096,2.220539331,-9.616754532,-0.6263213158,2024-06-05 20:04:35.545510
34.5855096,2.220539331,-9.616754532,-0.6263213158,2024-06-05 20:04:35.585510
34.6255096,2.220539331,-9.616754532,-0.6263213158,2024-06-05 20:04:35.625510
34.6655096,2.220539331,-9.616754532,-0.6263213158,2024-06-05 20:04:35.665510
34.7055096,2.220539331,-9.616754532,-0.6263213158,2024-06-05 20:04:35.705510
34.7455096,2.220539331,-9.616754532,-0.6263213158,2024-06-05 20:04:35.745510
34.7855096,2.220539331,-9.616754532,-0.6263213158,2024-06-05 20:04:35.785510
34.8255096,2.220539331,-9.616754532,-0.6263213158,2024-06-05 20:04:35.825510
34.8655096,2.220539331,-9.616754532,-0.6263213158,2024-06-05 20:04:35.865510
34.9055096,0.7055835724,-9.876674652,0.2694916427,2024-06-05 20:04:35.905510
34.9455096,0.7055835724,-9.876674652,0.2694916427,2024-06-05 20:04:35.945510
34.9855096,0.7055835724,-9.876674652,0.2694916427,2024-06-05 20:04:35.985510
35.0255096,0.7055835724,-9.876674652,0.2694916427,2024-06-05 20:04:36.025510
35.0655096,1.729412556,-9.768997192,0.9185447693,2024-06-05 20:04:36.065510
35.1055096,2.081755638,-9.796515465,0.6323033571,2024-06-05 20:04:36.105510
35.1455096,2.765504837,-9.407083511,0.7498508096,2024-06-05 20:04:36.145510
35.1855096,4.09860611,-9.492028236,0.6828517914,2024-06-05 20:04:36.185510
35.2255096,4.605286121,-9.364012718,1.117448211,2024-06-05 20:04:36.225510
35.2655096,5.401797295,-9.724431038,3.26141715,2024-06-05 20:04:36.265510
35.3055096,2.584846735,-8.303992271,4.683351994,2024-06-05 20:04:36.305510
35.3455096,-1.778764486,-8.544769287,2.8519454,2024-06-05 20:04:36.345510
35.3855096,-0.4109672904,-8.704191208,-1.510469317,2024-06-05 20:04:36.385510
35.4255096,3.056531906,-7.466803074,0.157028988,2024-06-05 20:04:36.425510
35.4655096,5.052145958,-8.036892891,-0.3831507266,2024-06-05 20:04:36.465510
35.5055096,4.909473896,-8.95543766,0.499501735,2024-06-05 20:04:36.505510
35.5455096,4.130908966,-8.979664803,-0.3305086195,2024-06-05 20:04:36.545510
35.5855096,4.728815556,-8.77836895,-0.9978070259,2024-06-05 20:04:36.585510
35.6255096,4.365705013,-8.603393555,-1.190429211,2024-06-05 20:04:36.625510
35.6655096,7.699205875,-14.01236916,-0.2383849621,2024-06-05 20:04:36.665510
35.7055096,4.612464905,-10.38574791,4.634000301,2024-06-05 20:04:36.705510
35.7455096,-0.02033899166,-10.34028435,-1.832603097,2024-06-05 20:04:36.745510
35.7855096,0.4253242314,-13.29751396,0.3496512175,2024-06-05 20:04:36.785510
35.8255096,-3.468695641,-8.49332428,1.92353034,2024-06-05 20:04:36.825510
35.8655096,-0.9547362328,-8.710173607,-3.001496792,2024-06-05 20:04:36.865510
35.9055096,-0.1677966863,-8.970093727,-1.912762642,2024-06-05 20:04:36.905510
35.9455096,1.588235974,-9.465706825,-0.941575706,2024-06-05 20:04:36.945510
35.9855096,1.588235974,-9.465706825,-0.941575706,2024-06-05 20:04:36.985510
36.0255096,1.588235974,-9.465706825,-0.941575706,2024-06-05 20:04:37.025510
36.0655096,1.588235974,-9.465706825,-0.941575706,2024-06-05 20:04:37.065510
36.1055096,1.588235974,-9.465706825,-0.941575706,2024-06-05 20:04:37.105510
36.1455096,1.588235974,-9.465706825,-0.941575706,2024-06-05 20:04:37.145510
36.1855096,1.588235974,-9.465706825,-0.941575706,2024-06-05 20:04:37.185510
36.2255096,1.588235974,-9.465706825,-0.941575706,2024-06-05 20:04:37.225510
36.2655096,1.588235974,-9.465706825,-0.941575706,2024-06-05 20:04:37.265510
36.3055096,1.588235974,-9.465706825,-0.941575706,2024-06-05 20:04:37.305510
36.3455096,1.588235974,-9.465706825,-0.941575706,2024-06-05 20:04:37.345510
36.3855096,1.588235974,-9.465706825,-0.941575706,2024-06-05 20:04:37.385510
36.4255096,1.588235974,-9.465706825,-0.941575706,2024-06-05 20:04:37.425510
36.4655096,1.588235974,-9.465706825,-0.941575706,2024-06-05 20:04:37.465510
36.5055096,1.588235974,-9.465706825,-0.941575706,2024-06-05 20:04:37.505510
36.5455096,1.588235974,-9.465706825,-0.941575706,2024-06-05 20:04:37.545510
36.5855096,1.588235974,-9.465706825,-0.941575706,2024-06-05 20:04:37.585510
36.6255096,1.588235974,-9.465706825,-0.941575706,2024-06-05 20:04:37.625510
36.6655096,1.588235974,-9.465706825,-0.941575706,2024-06-05 20:04:37.665510
36.7055096,1.588235974,-9.465706825,-0.941575706,2024-06-05 20:04:37.705510
36.7455096,1.588235974,-9.465706825,-0.941575706,2024-06-05 20:04:37.745510
36.7855096,2.208575249,-9.395118713,-2.145165443,2024-06-05 20:04:37.785510
36.8255096,3.369393349,-10.08634567,2.047059774,2024-06-05 20:04:37.825510
36.8655096,2.572882652,-10.35583687,-1.413260818,2024-06-05 20:04:37.865510
36.9055096,5.515755177,-10.4730854,-1.021735311,2024-06-05 20:04:37.905510
36.9455096,15.99362659,-11.98116207,5.38624382,2024-06-05 20:04:37.945510
36.9855096,5.074877739,-7.723134041,2.043470621,2024-06-05 20:04:37.985510
37.0255096,0.2647060156,-8.750851631,-0.8575277925,2024-06-05 20:04:38.025510
37.0655096,1.533201098,-11.76790142,-1.646860242,2024-06-05 20:04:38.065510
37.1055096,-3.281756163,-12.29492092,1.296012521,2024-06-05 20:04:38.105510
37.1455096,-2.76909399,-8.893224716,-1.107876897,2024-06-05 20:04:38.145510
37.1855096,-2.771486759,-9.737591743,1.802692771,2024-06-05 20:04:38.185510
37.2255096,1.012163997,-9.223732948,0.6550351977,2024-06-05 20:04:38.225510
37.2655096,1.814656854,-9.101698875,-1.425225019,2024-06-05 20:04:38.265510
37.3055096,1.83619225,-9.197412491,-1.820638895,2024-06-05 20:04:38.305510
37.3455096,0.02632104978,-10.8179512,-0.2994019389,2024-06-05 20:04:38.345510
37.3855096,2.770290375,-9.843174934,2.292623281,2024-06-05 20:04:38.385510
37.4255096,3.896412611,-8.923134804,-0.1773679852,2024-06-05 20:04:38.425510
37.4655096,3.666402578,-8.748458862,0.1929213256,2024-06-05 20:04:38.465510
37.5055096,2.179861546,-9.45613575,-1.288834095,2024-06-05 20:04:38.505510
37.5455096,1.298405409,-10.08873844,0.1064806059,2024-06-05 20:04:38.545510
37.5855096,2.830410004,-9.771389961,-0.6936194897,2024-06-05 20:04:38.585510
37.6255096,4.871188641,-8.51844883,0.1064806059,2024-06-05 20:04:38.625510
37.6655096,9.493225098,-11.19781208,6.32303381,2024-06-05 20:04:38.665510
37.7055096,9.493225098,-11.19781208,6.32303381,2024-06-05 20:04:38.705510
37.7455096,9.493225098,-11.19781208,6.32303381,2024-06-05 20:04:38.745510
37.7855096,9.493225098,-11.19781208,6.32303381,2024-06-05 20:04:38.785510
37.8255096,9.493225098,-11.19781208,6.32303381,2024-06-05 20:04:38.825510
37.8655096,9.493225098,-11.19781208,6.32303381,2024-06-05 20:04:38.865510
37.9055096,9.493225098,-11.19781208,6.32303381,2024-06-05 20:04:38.905510
37.9455096,9.493225098,-11.19781208,6.32303381,2024-06-05 20:04:38.945510
37.9855096,9.493225098,-11.19781208,6.32303381,2024-06-05 20:04:38.985510
38.0255096,9.493225098,-11.19781208,6.32303381,2024-06-05 20:04:39.025510
38.0655096,9.493225098,-11.19781208,6.32303381,2024-06-05 20:04:39.065510
38.1055096,9.493225098,-11.19781208,6.32303381,2024-06-05 20:04:39.105510
38.1455096,9.493225098,-11.19781208,6.32303381,2024-06-05 20:04:39.145510
38.1855096,9.493225098,-11.19781208,6.32303381,2024-06-05 20:04:39.185510
38.2255096,9.493225098,-11.19781208,6.32303381,2024-06-05 20:04:39.225510
38.2655096,9.493225098,-11.19781208,6.32303381,2024-06-05 20:04:39.265510
38.3055096,9.493225098,-11.19781208,6.32303381,2024-06-05 20:04:39.305510
38.3455096,9.493225098,-11.19781208,6.32303381,2024-06-05 20:04:39.345510
38.3855096,9.493225098,-11.19781208,6.32303381,2024-06-05 20:04:39.385510
38.4255096,9.493225098,-11.19781208,6.32303381,2024-06-05 20:04:39.425510
38.4655096,2.627917528,-9.845567703,3.837489367,2024-06-05 20:04:39.465510
38.5055096,2.474477768,-9.45613575,-1.008574724,2024-06-05 20:04:39.505510
38.5455096,1.267298698,-10.12343407,-1.32113719,2024-06-05 20:04:39.545510
38.5855096,1.093519926,-9.283852577,0.142672047,2024-06-05 20:04:39.585510
38.6255096,1.953440547,-9.785747528,-0.6960122585,2024-06-05 20:04:39.625510
38.6655096,1.707877159,-9.319745064,-2.044667006,2024-06-05 20:04:39.665510
38.7055096,1.190429211,-9.720842361,-1.789532185,2024-06-05 20:04:39.705510
38.7455096,0.3580260873,-9.879067421,-0.02033899166,2024-06-05 20:04:39.745510
38.7855096,2.000100613,-9.755537987,-0.1965105534,2024-06-05 20:04:39.785510
38.8255096,2.200200319,-9.229715347,-0.2814557552,2024-06-05 20:04:39.825510
38.8655096,1.401296735,-9.662218094,-0.7737790346,2024-06-05 20:04:39.865510
38.9055096,0.9523434043,-9.789336205,0.0765703246,2024-06-05 20:04:39.905510
38.9455096,1.935494423,-10.06122112,-1.383350611,2024-06-05 20:04:39.945510
38.9855096,1.93190515,-9.396315575,1.621735573,2024-06-05 20:04:39.985510
39.0255096,1.415653706,-9.566504478,-0.6852445602,2024-06-05 20:04:40.025510
39.0655096,2.227717876,-9.471689224,-1.766800404,2024-06-05 20:04:40.065510
39.1055096,1.68275249,-9.496813774,-1.554736495,2024-06-05 20:04:40.105510
39.1455096,1.066002488,-9.584450722,-1.22542429,2024-06-05 20:04:40.145510
39.1855096,0.8204390407,-10.16411209,-1.067198873,2024-06-05 20:04:40.185510
39.2255096,1.050449133,-9.518648148,-1.049252748,2024-06-05 20:04:40.225510
39.2655096,1.469492197,-9.643074989,0.3484548032,2024-06-05 20:04:40.265510
39.3055096,1.068395257,-9.914959908,-1.505683661,2024-06-05 20:04:40.305510
39.3455096,1.068395257,-9.914959908,-1.505683661,2024-06-05 20:04:40.345510
39.3855096,1.068395257,-9.914959908,-1.505683661,2024-06-05 20:04:40.385510
39.4255096,1.068395257,-9.914959908,-1.505683661,2024-06-05 20:04:40.425510
39.4655096,1.068395257,-9.914959908,-1.505683661,2024-06-05 20:04:40.465510
39.5055096,1.068395257,-9.914959908,-1.505683661,2024-06-05 20:04:40.505510
39.5455096,1.068395257,-9.914959908,-1.505683661,2024-06-05 20:04:40.545510
39.5855096,1.068395257,-9.914959908,-1.505683661,2024-06-05 20:04:40.585510
39.6255096,1.068395257,-9.914959908,-1.505683661,2024-06-05 20:04:40.625510
39.6655096,1.068395257,-9.914959908,-1.505683661,2024-06-05 20:04:40.665510
39.7055096,1.068395257,-9.914959908,-1.505683661,2024-06-05 20:04:40.705510
39.7455096,1.068395257,-9.914959908,-1.505683661,2024-06-05 20:04:40.745510
39.7855096,1.068395257,-9.914959908,-1.505683661,2024-06-05 20:04:40.785510
39.8255096,1.068395257,-9.914959908,-1.505683661,2024-06-05 20:04:40.825510
39.8655096,1.068395257,-9.914959908,-1.505683661,2024-06-05 20:04:40.865510
39.9055096,1.068395257,-9.914959908,-1.505683661,2024-06-05 20:04:40.905510
39.9455096,1.068395257,-9.914959908,-1.505683661,2024-06-05 20:04:40.945510
39.9855096,1.068395257,-9.914959908,-1.505683661,2024-06-05 20:04:40.985510
40.0255096,1.068395257,-9.914959908,-1.505683661,2024-06-05 20:04:41.025510
40.0655096,1.068395257,-9.914959908,-1.505683661,2024-06-05 20:04:41.065510
40.1055096,1.068395257,-9.914959908,-1.505683661,2024-06-05 20:04:41.105510
40.1455096,0.2599203587,-10.52094173,0.4767699242,2024-06-05 20:04:41.145510
40.1855096,1.661217093,-9.310173988,1.206281662,2024-06-05 20:04:41.185510
40.2255096,1.904387712,-9.052646637,-0.7007979155,2024-06-05 20:04:41.225510
40.2655096,0.1462612897,-10.246665,-0.6864410043,2024-06-05 20:04:41.265510
40.3055096,0.1208375469,-10.20120144,-1.060020447,2024-06-05 20:04:41.305510
40.3455096,2.722434044,-9.287442207,0.3448655605,2024-06-05 20:04:41.345510
40.3855096,3.870988846,-8.909974098,1.068395257,2024-06-05 20:04:41.385510
40.4255096,3.68075943,-9.202198029,-1.82781744,2024-06-05 20:04:41.425510
40.4655096,3.364607811,-9.175876617,-1.485344648,2024-06-05 20:04:41.465510
40.5055096,2.760719061,-10.08754253,-2.97039032,2024-06-05 20:04:41.505510
40.5455096,3.304488182,-10.62054348,-1.248156071,2024-06-05 20:04:41.545510
40.5855096,6.20070076,-10.17966557,7.380661488,2024-06-05 20:04:41.585510
40.6255096,1.73898387,-13.99203014,8.24895668,2024-06-05 20:04:41.625510
40.6655096,-2.48883462,-6.162415504,2.981158018,2024-06-05 20:04:41.665510
40.7055096,-0.1677966863,-7.487142086,1.093519926,2024-06-05 20:04:41.705510
40.7455096,0.3317050338,-8.919545174,3.056531906,2024-06-05 20:04:41.745510
40.7855096,2.994318485,-6.867999077,3.652045488,2024-06-05 20:04:41.785510
40.8255096,2.675773859,-6.176772594,-1.148554921,2024-06-05 20:04:41.825510
40.8655096,2.945265532,-7.858328819,-2.576471806,2024-06-05 20:04:41.865510
40.9055096,2.72961235,-8.264510155,-1.887637973,2024-06-05 20:04:41.905510
40.9455096,2.341675997,-9.759127617,-2.078166485,2024-06-05 20:04:41.945510
40.9855096,3.374179125,-10.16411209,-1.750050664,2024-06-05 20:04:41.985510
41.0255096,3.374179125,-10.16411209,-1.750050664,2024-06-05 20:04:42.025510
41.0655096,3.374179125,-10.16411209,-1.750050664,2024-06-05 20:04:42.065510
41.1055096,3.374179125,-10.16411209,-1.750050664,2024-06-05 20:04:42.105510
41.1455096,3.374179125,-10.16411209,-1.750050664,2024-06-05 20:04:42.145510
41.1855096,3.374179125,-10.16411209,-1.750050664,2024-06-05 20:04:42.185510
41.2255096,3.374179125,-10.16411209,-1.750050664,2024-06-05 20:04:42.225510
41.2655096,3.374179125,-10.16411209,-1.750050664,2024-06-05 20:04:42.265510
41.3055096,3.374179125,-10.16411209,-1.750050664,2024-06-05 20:04:42.305510
41.3455096,3.374179125,-10.16411209,-1.750050664,2024-06-05 20:04:42.345510
41.3855096,3.374179125,-10.16411209,-1.750050664,2024-06-05 20:04:42.385510
41.4255096,3.374179125,-10.16411209,-1.750050664,2024-06-05 20:04:42.425510
41.4655096,3.374179125,-10.16411209,-1.750050664,2024-06-05 20:04:42.465510
41.5055096,3.374179125,-10.16411209,-1.750050664,2024-06-05 20:04:42.505510
41.5455096,3.374179125,-10.16411209,-1.750050664,2024-06-05 20:04:42.545510
41.5855096,3.374179125,-10.16411209,-1.750050664,2024-06-05 20:04:42.585510
41.6255096,3.374179125,-10.16411209,-1.750050664,2024-06-05 20:04:42.625510
41.6655096,3.374179125,-10.16411209,-1.750050664,2024-06-05 20:04:42.665510
41.7055096,3.374179125,-10.16411209,-1.750050664,2024-06-05 20:04:42.705510
41.7455096,3.374179125,-10.16411209,-1.750050664,2024-06-05 20:04:42.745510
41.7855096,3.374179125,-10.16411209,-1.750050664,2024-06-05 20:04:42.785510
41.8255096,4.403990269,-9.496813774,1.240977645,2024-06-05 20:04:42.825510
41.8655096,1.554736495,-10.14496994,4.188635826,2024-06-05 20:04:42.865510
41.9055096,0.9245268703,-9.089735031,4.081856251,2024-06-05 20:04:42.905510
41.9455096,0.3424727321,-8.96889782,2.909373283,2024-06-05 20:04:42.945510
41.9855096,1.789532185,-9.14596653,2.87467742,2024-06-05 20:04:42.985510
42.0255096,2.625524759,-9.105288506,3.900001764,2024-06-05 20:04:43.025510
42.0655096,2.433799744,-8.826225281,3.294916868,2024-06-05 20:04:43.065510
42.1055096,2.593221426,-8.845368385,3.396910906,2024-06-05 20:04:43.105510
42.1455096,2.140379906,-8.95543766,3.305684566,2024-06-05 20:04:43.145510
42.1855096,1.758425593,-9.4310112,4.081856251,2024-06-05 20:04:43.185510
42.2255096,1.894816399,-10.28973579,6.339783669,2024-06-05 20:04:43.225510
42.2655096,2.170290232,-10.12343407,7.482356548,2024-06-05 20:04:43.265510
42.3055096,0.513858676,-9.347262383,5.064109802,2024-06-05 20:04:43.305510
42.3455096,-1.639681697,-7.287042141,3.103491068,2024-06-05 20:04:43.345510
42.3855096,-1.604985833,-3.512962818,-0.3412763178,2024-06-05 20:04:43.385510
42.4255096,2.041077614,-1.594218135,-1.469492197,2024-06-05 20:04:43.425510
42.4655096,4.929812908,-7.228417873,-2.779861689,2024-06-05 20:04:43.465510
42.5055096,2.238485575,-23.78495598,5.925227165,2024-06-05 20:04:43.505510
42.5455096,4.502394676,-11.01087284,2.800200701,2024-06-05 20:04:43.545510
42.5855096,1.438385487,-3.97776866,0.5653043389,2024-06-05 20:04:43.585510
42.6255096,6.116951942,-7.663313389,-0.6720840335,2024-06-05 20:04:43.625510
42.6655096,-0.2934198678,-14.90489197,7.60319376,2024-06-05 20:04:43.665510
42.7055096,-0.8659027219,-9.004789352,-1.6181463,2024-06-05 20:04:43.705510
42.7455096,-0.8659027219,-9.004789352,-1.6181463,2024-06-05 20:04:43.745510
42.7855096,-0.8659027219,-9.004789352,-1.6181463,2024-06-05 20:04:43.785510
42.8255096,-0.8659027219,-9.004789352,-1.6181463,2024-06-05 20:04:43.825510
42.8655096,-0.8659027219,-9.004789352,-1.6181463,2024-06-05 20:04:43.865510
42.9055096,-0.8659027219,-9.004789352,-1.6181463,2024-06-05 20:04:43.905510
42.9455096,-0.8659027219,-9.004789352,-1.6181463,2024-06-05 20:04:43.945510
42.9855096,-0.8659027219,-9.004789352,-1.6181463,2024-06-05 20:04:43.985510
43.0255096,-0.8659027219,-9.004789352,-1.6181463,2024-06-05 20:04:44.025510
43.0655096,-0.8659027219,-9.004789352,-1.6181463,2024-06-05 20:04:44.065510
43.1055096,-0.8659027219,-9.004789352,-1.6181463,2024-06-05 20:04:44.105510
43.1455096,-0.8659027219,-9.004789352,-1.6181463,2024-06-05 20:04:44.145510
43.1855096,-0.8659027219,-9.004789352,-1.6181463,2024-06-05 20:04:44.185510
43.2255096,-0.8659027219,-9.004789352,-1.6181463,2024-06-05 20:04:44.225510
43.2655096,-0.8659027219,-9.004789352,-1.6181463,2024-06-05 20:04:44.265510
43.3055096,-0.8659027219,-9.004789352,-1.6181463,2024-06-05 20:04:44.305510
43.3455096,-0.8659027219,-9.004789352,-1.6181463,2024-06-05 20:04:44.345510
43.3855096,-0.8659027219,-9.004789352,-1.6181463,2024-06-05 20:04:44.385510
43.4255096,-0.8659027219,-9.004789352,-1.6181463,2024-06-05 20:04:44.425510
43.4655096,-0.8659027219,-9.004789352,-1.6181463,2024-06-05 20:04:44.465510
43.5055096,0.861117065,-8.909974098,-0.7390831113,2024-06-05 20:04:44.505510
43.5455096,0.3771686554,-9.25394249,1.113858938,2024-06-05 20:04:44.545510
43.5855096,1.762014747,-8.463413239,-1.564307809,2024-06-05 20:04:44.585510
43.6255096,2.566900492,-10.40608692,-0.7426723242,2024-06-05 20:04:44.625510
43.6655096,-0.861117065,-11.0491581,-1.254138112,2024-06-05 20:04:44.665510
43.7055096,-3.528516054,-11.44935703,1.342672586,2024-06-05 20:04:44.705510
43.7455096,-2.575275421,-10.49462128,-0.3951148391,2024-06-05 20:04:44.745510
43.7855096,0.005982056726,-10.84098244,-0.2180459648,2024-06-05 20:04:44.785510
43.8255096,6.206682682,-12.2051897,5.023432255,2024-06-05 20:04:44.825510
43.8655096,9.487242699,-8.308777809,-1.074377418,2024-06-05 20:04:44.865510
43.9055096,4.279563427,-9.336494446,-0.5102694035,2024-06-05 20:04:44.905510
43.9455096,2.437388897,-12.00030422,2.836392164,2024-06-05 20:04:44.945510
43.9855096,4.464109898,-10.87567806,-1.839781523,2024-06-05 20:04:44.985510
44.0255096,4.657928467,-6.946962357,-6.17557621,2024-06-05 20:04:45.025510
44.0655096,1.473380566,-4.118945122,0.9906286001,2024-06-05 20:04:45.065510
44.1055096,1.122233868,-5.744269848,8.798707962,2024-06-05 20:04:45.105510
44.1455096,2.017149448,-9.37717247,3.017050266,2024-06-05 20:04:45.145510
44.1855096,3.424428225,-7.466803074,-5.507380486,2024-06-05 20:04:45.185510
44.2255096,12.82194042,-12.95593834,-0.1773679852,2024-06-05 20:04:45.225510
44.2655096,2.892623425,-11.44337559,0.385543555,2024-06-05 20:04:45.265510
44.3055096,3.895216227,-10.17248726,0.6720840335,2024-06-05 20:04:45.305510
44.3455096,1.922333837,-13.48295784,6.830910206,2024-06-05 20:04:45.345510
44.3855096,3.401696444,-12.73220921,8.20468998,2024-06-05 20:04:45.385510
44.4255096,3.401696444,-12.73220921,8.20468998,2024-06-05 20:04:45.425510
44.4655096,3.401696444,-12.73220921,8.20468998,2024-06-05 20:04:45.465510
44.5055096,3.401696444,-12.73220921,8.20468998,2024-06-05 20:04:45.505510
44.5455096,3.401696444,-12.73220921,8.20468998,2024-06-05 20:04:45.545510
44.5855096,3.401696444,-12.73220921,8.20468998,2024-06-05 20:04:45.585510
44.6255096,3.401696444,-12.73220921,8.20468998,2024-06-05 20:04:45.625510
44.6655096,-1.066002488,-4.595715046,4.743172646,2024-06-05 20:04:45.665510
44.7055096,-1.066002488,-4.595715046,4.743172646,2024-06-05 20:04:45.705510
44.7455096,-1.066002488,-4.595715046,4.743172646,2024-06-05 20:04:45.745510
44.7855096,-1.066002488,-4.595715046,4.743172646,2024-06-05 20:04:45.785510
44.8255096,-1.066002488,-4.595715046,4.743172646,2024-06-05 20:04:45.825510
44.8655096,-1.066002488,-4.595715046,4.743172646,2024-06-05 20:04:45.865510
44.9055096,-0.9269196987,-7.572087288,7.60319376,2024-06-05 20:04:45.905510
44.9455096,-0.9269196987,-7.572087288,7.60319376,2024-06-05 20:04:45.945510
44.9855096,-0.9269196987,-7.572087288,7.60319376,2024-06-05 20:04:45.985510
45.0255096,-0.9269196987,-7.572087288,7.60319376,2024-06-05 20:04:46.025510
45.0655096,-0.9269196987,-7.572087288,7.60319376,2024-06-05 20:04:46.065510
45.1055096,-0.9269196987,-7.572087288,7.60319376,2024-06-05 20:04:46.105510
45.1455096,-0.9269196987,-7.572087288,7.60319376,2024-06-05 20:04:46.145510
45.1855096,1.719841242,-5.015057087,7.457231998,2024-06-05 20:04:46.185510
45.2255096,1.6181463,-7.337291718,6.550352097,2024-06-05 20:04:46.225510
45.2655096,-2.486441851,-5.922834396,6.877570629,2024-06-05 20:04:46.265510
45.3055096,1.650449395,-6.277271271,7.387839794,2024-06-05 20:04:46.305510
45.3455096,-0.1737787426,-7.699205875,9.395118713,2024-06-05 20:04:46.345510
45.3855096,0.3029911816,-7.554141045,8.954241753,2024-06-05 20:04:46.385510
45.4255096,-0.8922237158,-8.976076126,9.389137268,2024-06-05 20:04:46.425510
45.4655096,-1.65164578,-7.515855789,6.960123062,2024-06-05 20:04:46.465510
45.5055096,-1.585843205,-3.564408541,3.768097401,2024-06-05 20:04:46.505510
45.5455096,-0.3783650696,-0.2874378264,2.994318485,2024-06-05 20:04:46.545510
45.5855096,1.552343726,-1.431207061,4.951647282,2024-06-05 20:04:46.585510
45.6255096,-1.060020447,-4.381258488,6.252146244,2024-06-05 20:04:46.625510
45.6655096,0.7031907439,-4.867599487,2.547757864,2024-06-05 20:04:46.665510
45.7055096,5.168197632,-3.169293642,0.7953144312,2024-06-05 20:04:46.705510
45.7455096,5.707180977,-4.266402721,-1.540379524,2024-06-05 20:04:46.745510
45.7855096,13.91306686,-7.408178806,3.279363394,2024-06-05 20:04:46.785510
45.8255096,10.50179958,-14.7897377,8.997611046,2024-06-05 20:04:46.825510
45.8655096,0.8802596331,-22.00978088,13.50090313,2024-06-05 20:04:46.865510
45.9055096,8.394919395,-13.35494137,4.440181732,2024-06-05 20:04:46.905510
45.9455096,-1.772782445,-10.33549786,1.552343726,2024-06-05 20:04:46.945510
45.9855096,-2.346461773,-13.53350544,5.229514122,2024-06-05 20:04:46.985510
46.0255096,-1.795514345,-12.97029495,-3.457927704,2024-06-05 20:04:47.025510
46.0655096,2.654238462,-11.60608673,6.73848772,2024-06-05 20:04:47.065510
46.1055096,2.654238462,-11.60608673,6.73848772,2024-06-05 20:04:47.105510
46.1455096,2.654238462,-11.60608673,6.73848772,2024-06-05 20:04:47.145510
46.1855096,2.654238462,-11.60608673,6.73848772,2024-06-05 20:04:47.185510
46.2255096,2.654238462,-11.60608673,6.73848772,2024-06-05 20:04:47.225510
46.2655096,2.654238462,-11.60608673,6.73848772,2024-06-05 20:04:47.265510
46.3055096,2.654238462,-11.60608673,6.73848772,2024-06-05 20:04:47.305510
46.3455096,2.654238462,-11.60608673,6.73848772,2024-06-05 20:04:47.345510
46.3855096,2.654238462,-11.60608673,6.73848772,2024-06-05 20:04:47.385510
46.4255096,2.654238462,-11.60608673,6.73848772,2024-06-05 20:04:47.425510
46.4655096,2.654238462,-11.60608673,6.73848772,2024-06-05 20:04:47.465510
46.5055096,2.654238462,-11.60608673,6.73848772,2024-06-05 20:04:47.505510
46.5455096,2.654238462,-11.60608673,6.73848772,2024-06-05 20:04:47.545510
46.5855096,2.654238462,-11.60608673,6.73848772,2024-06-05 20:04:47.585510
46.6255096,2.654238462,-11.60608673,6.73848772,2024-06-05 20:04:47.625510
46.6655096,2.654238462,-11.60608673,6.73848772,2024-06-05 20:04:47.665510
46.7055096,2.654238462,-11.60608673,6.73848772,2024-06-05 20:04:47.705510
46.7455096,2.654238462,-11.60608673,6.73848772,2024-06-05 20:04:47.745510
46.7855096,2.654238462,-11.60608673,6.73848772,2024-06-05 20:04:47.785510
46.8255096,2.654238462,-11.60608673,6.73848772,2024-06-05 20:04:47.825510
46.8655096,2.654238462,-11.60608673,6.73848772,2024-06-05 20:04:47.865510
46.9055096,2.503191471,-6.827321053,-0.280259341,2024-06-05 20:04:47.905510
46.9455096,3.634099483,-7.652545929,0.1052841991,2024-06-05 20:04:47.945510
46.9855096,4.537090778,-10.27059269,2.112862349,2024-06-05 20:04:47.985510
47.0255096,2.02073884,-9.993923187,0.09092725813,2024-06-05 20:04:48.025510
47.0655096,2.358425856,-9.952048302,-0.7833502889,2024-06-05 20:04:48.065510
47.1055096,4.964807987,-11.71406364,0.6972087026,2024-06-05 20:04:48.105510
47.1455096,7.717152119,-12.92483139,6.139683723,2024-06-05 20:04:48.145510
47.1855096,1.009771109,-10.27178955,2.879462957,2024-06-05 20:04:48.185510
47.2255096,2.351247311,-9.643074989,-0.8443672657,2024-06-05 20:04:48.225510
47.2655096,2.496013165,-8.820243835,-2.000100613,2024-06-05 20:04:48.265510
47.3055096,-0.1821536273,-10.42642593,-2.445763826,2024-06-05 20:04:48.305510
47.3455096,-0.8635098934,-9.707681656,3.97776866,2024-06-05 20:04:48.345510
47.3855096,0.9595218897,-10.04207802,0.1304088384,2024-06-05 20:04:48.385510
47.4255096,0.4229314029,-10.13061333,0.6574280262,2024-06-05 20:04:48.425510
47.4655096,0.4121637046,-9.203393936,-1.955833435,2024-06-05 20:04:48.465510
47.5055096,1.085145116,-9.411869049,0.1737787426,2024-06-05 20:04:48.505510
47.5455096,1.677966833,-9.757930756,0.5353940725,2024-06-05 20:04:48.545510
47.5855096,0.728315413,-9.474081993,0.7187440991,2024-06-05 20:04:48.585510
47.6255096,0.5389832854,-9.078967094,-0.09451649338,2024-06-05 20:04:48.625510
47.6655096,1.043270707,-9.28265667,1.439581871,2024-06-05 20:04:48.665510
47.7055096,1.15094769,-8.802297592,-0.0143569354,2024-06-05 20:04:48.705510
47.7455096,-0.1196411327,-9.086145401,1.130608678,2024-06-05 20:04:48.745510
47.7855096,-0.9475577474,-9.271888733,-0.9858429432,2024-06-05 20:04:48.785510
47.8255096,-0.9475577474,-9.271888733,-0.9858429432,2024-06-05 20:04:48.825510
47.8655096,-0.9475577474,-9.271888733,-0.9858429432,2024-06-05 20:04:48.865510
47.9055096,3.126222849,-9.944869995,0.09810572863,2024-06-05 20:04:48.905510
47.9455096,3.126222849,-9.944869995,0.09810572863,2024-06-05 20:04:48.945510
47.9855096,3.126222849,-9.944869995,0.09810572863,2024-06-05 20:04:48.985510
48.0255096,3.126222849,-9.944869995,0.09810572863,2024-06-05 20:04:49.025510
48.0655096,3.126222849,-9.944869995,0.09810572863,2024-06-05 20:04:49.065510
48.1055096,3.126222849,-9.944869995,0.09810572863,2024-06-05 20:04:49.105510
48.1455096,3.126222849,-9.944869995,0.09810572863,2024-06-05 20:04:49.145510
48.1855096,3.126222849,-9.944869995,0.09810572863,2024-06-05 20:04:49.185510
48.2255096,3.126222849,-9.944869995,0.09810572863,2024-06-05 20:04:49.225510
48.2655096,3.126222849,-9.944869995,0.09810572863,2024-06-05 20:04:49.265510
48.3055096,3.126222849,-9.944869995,0.09810572863,2024-06-05 20:04:49.305510
48.3455096,3.126222849,-9.944869995,0.09810572863,2024-06-05 20:04:49.345510
48.3855096,3.126222849,-9.944869995,0.09810572863,2024-06-05 20:04:49.385510
48.4255096,3.126222849,-9.944869995,0.09810572863,2024-06-05 20:04:49.425510
48.4655096,3.126222849,-9.944869995,0.09810572863,2024-06-05 20:04:49.465510
48.5055096,3.126222849,-9.944869995,0.09810572863,2024-06-05 20:04:49.505510
48.5455096,3.126222849,-9.944869995,0.09810572863,2024-06-05 20:04:49.545510
48.5855096,2.14157629,-24.31915474,-4.317848682,2024-06-05 20:04:49.585510
48.6255096,2.200200319,-3.96341157,-2.376372099,2024-06-05 20:04:49.625510
48.6655096,0.470787853,-11.85643578,1.307976723,2024-06-05 20:04:49.665510
48.7055096,-2.096112728,-13.15005589,1.648056626,2024-06-05 20:04:49.705510
48.7455096,-0.6864410043,-10.12941647,0.8168498278,2024-06-05 20:04:49.745510
48.7855096,1.438385487,-9.686145782,-0.3017947674,2024-06-05 20:04:49.785510
48.8255096,2.490031004,-9.160323143,1.911566138,2024-06-05 20:04:49.825510
48.8655096,1.571486235,-8.789136887,0.5509474277,2024-06-05 20:04:49.865510
48.9055096,1.628913999,-7.737491131,0.9281160831,2024-06-05 20:04:49.905510
48.9455096,0.6311069727,-9.451350212,0.6334998012,2024-06-05 20:04:49.945510
48.9855096,-0.5330012441,-9.821640015,1.152144074,2024-06-05 20:04:49.985510
49.0255096,-1.899602056,-9.153144836,3.07836628,2024-06-05 20:04:50.025510
49.0655096,-0.8192426562,-9.003593445,-0.171385929,2024-06-05 20:04:50.065510
49.1055096,3.714258909,-11.79781246,3.775275946,2024-06-05 20:04:50.105510
49.1455096,7.501499176,-12.01466179,5.944369793,2024-06-05 20:04:50.145510
49.1855096,8.512466431,-14.10718536,3.024228811,2024-06-05 20:04:50.185510
49.2255096,3.447160006,-9.761520386,-2.306980133,2024-06-05 20:04:50.225510
49.2655096,2.300997972,-4.57178688,1.272084355,2024-06-05 20:04:50.265510
49.3055096,1.437189102,-5.919245243,2.279462576,2024-06-05 20:04:50.305510
49.3455096,-0.8467600942,-8.872885704,1.079162955,2024-06-05 20:04:50.345510
49.3855096,6.954140663,-6.02363205,1.374975681,2024-06-05 20:04:50.385510
49.4255096,6.954140663,-6.02363205,1.374975681,2024-06-05 20:04:50.425510
49.4655096,6.954140663,-6.02363205,1.374975681,2024-06-05 20:04:50.465510
49.5055096,6.954140663,-6.02363205,1.374975681,2024-06-05 20:04:50.505510
49.5455096,6.954140663,-6.02363205,1.374975681,2024-06-05 20:04:50.545510
49.5855096,6.954140663,-6.02363205,1.374975681,2024-06-05 20:04:50.585510
49.6255096,6.954140663,-6.02363205,1.374975681,2024-06-05 20:04:50.625510
49.6655096,6.954140663,-6.02363205,1.374975681,2024-06-05 20:04:50.665510
49.7055096,6.954140663,-6.02363205,1.374975681,2024-06-05 20:04:50.705510
49.7455096,6.954140663,-6.02363205,1.374975681,2024-06-05 20:04:50.745510
49.7855096,6.954140663,-6.02363205,1.374975681,2024-06-05 20:04:50.785510
49.8255096,6.954140663,-6.02363205,1.374975681,2024-06-05 20:04:50.825510
49.8655096,6.954140663,-6.02363205,1.374975681,2024-06-05 20:04:50.865510
49.9055096,6.954140663,-6.02363205,1.374975681,2024-06-05 20:04:50.905510
49.9455096,6.954140663,-6.02363205,1.374975681,2024-06-05 20:04:50.945510
49.9855096,6.954140663,-6.02363205,1.374975681,2024-06-05 20:04:50.985510
50.0255096,6.954140663,-6.02363205,1.374975681,2024-06-05 20:04:51.025510
50.0655096,6.954140663,-6.02363205,1.374975681,2024-06-05 20:04:51.065510
50.1055096,6.954140663,-6.02363205,1.374975681,2024-06-05 20:04:51.105510
50.1455096,6.954140663,-6.02363205,1.374975681,2024-06-05 20:04:51.145510
50.1855096,6.954140663,-6.02363205,1.374975681,2024-06-05 20:04:51.185510
50.2255096,6.954140663,-6.02363205,1.374975681,2024-06-05 20:04:51.225510
50.2655096,0.8144569993,-9.699306488,-1.178465128,2024-06-05 20:04:51.265510
50.3055096,1.771586061,-10.415658,0.675673306,2024-06-05 20:04:51.305510
50.3455096,3.006282568,-7.640581608,-0.3400799036,2024-06-05 20:04:51.345510
50.3855096,4.650749683,-8.565108299,-1.615753531,2024-06-05 20:04:51.385510
50.4255096,2.112862349,-9.949655533,-0.5198407173,2024-06-05 20:04:51.425510
50.4655096,2.582453728,-8.967700958,2.682952404,2024-06-05 20:04:51.465510
50.5055096,3.521337509,-10.36181927,3.789632797,2024-06-05 20:04:51.505510
50.5455096,4.30827713,-11.08385372,4.715655327,2024-06-05 20:04:51.545510
50.5855096,1.160519004,-10.75334454,6.109773636,2024-06-05 20:04:51.585510
50.6255096,-0.5928218365,-10.43240738,5.363512039,2024-06-05 20:04:51.625510
50.6655096,-2.369193554,-9.525827408,3.582354546,2024-06-05 20:04:51.665510
50.7055096,-2.378764868,-7.780561924,2.910569668,2024-06-05 20:04:51.705510
50.7455096,2.158325911,-5.793622017,1.857727647,2024-06-05 20:04:51.745510
50.7855096,3.982554197,-4.786243439,1.943869352,2024-06-05 20:04:51.785510
50.8255096,6.334998131,-5.793622017,2.491227388,2024-06-05 20:04:51.825510
50.8655096,4.974379063,-13.99801254,4.843671322,2024-06-05 20:04:51.865510
50.9055096,-1.762014747,-11.60369396,-0.6804589629,2024-06-05 20:04:51.905510
50.9455096,1.639681697,-10.13061333,8.360222816,2024-06-05 20:04:51.945510
50.9855096,3.426821232,-6.213861465,0.442073971,2024-06-05 20:04:51.985510
51.0255096,5.319244862,-7.568498135,2.674577475,2024-06-05 20:04:52.025510
51.0655096,2.565704107,-12.16062355,0.5198407173,2024-06-05 20:04:52.065510
51.1055096,1.077966571,-8.805886269,5.933601856,2024-06-05 20:04:52.105510
51.1455096,1.077966571,-8.805886269,5.933601856,2024-06-05 20:04:52.145510
51.1855096,1.077966571,-8.805886269,5.933601856,2024-06-05 20:04:52.185510
51.2255096,1.077966571,-8.805886269,5.933601856,2024-06-05 20:04:52.225510
51.2655096,1.077966571,-8.805886269,5.933601856,2024-06-05 20:04:52.265510
51.3055096,1.077966571,-8.805886269,5.933601856,2024-06-05 20:04:52.305510
51.3455096,1.077966571,-8.805886269,5.933601856,2024-06-05 20:04:52.345510
51.3855096,1.077966571,-8.805886269,5.933601856,2024-06-05 20:04:52.385510
51.4255096,1.077966571,-8.805886269,5.933601856,2024-06-05 20:04:52.425510
51.4655096,1.077966571,-8.805886269,5.933601856,2024-06-05 20:04:52.465510
51.5055096,1.077966571,-8.805886269,5.933601856,2024-06-05 20:04:52.505510
51.5455096,1.077966571,-8.805886269,5.933601856,2024-06-05 20:04:52.545510
51.5855096,1.077966571,-8.805886269,5.933601856,2024-06-05 20:04:52.585510
51.6255096,1.077966571,-8.805886269,5.933601856,2024-06-05 20:04:52.625510
51.6655096,1.077966571,-8.805886269,5.933601856,2024-06-05 20:04:52.665510
51.7055096,1.077966571,-8.805886269,5.933601856,2024-06-05 20:04:52.705510
51.7455096,1.077966571,-8.805886269,5.933601856,2024-06-05 20:04:52.745510
51.7855096,1.077966571,-8.805886269,5.933601856,2024-06-05 20:04:52.785510
51.8255096,1.077966571,-8.805886269,5.933601856,2024-06-05 20:04:52.825510
51.8655096,1.077966571,-8.805886269,5.933601856,2024-06-05 20:04:52.865510
51.9055096,1.077966571,-8.805886269,5.933601856,2024-06-05 20:04:52.905510
51.9455096,1.801496387,-10.19880867,0.5425725579,2024-06-05 20:04:52.945510
51.9855096,0.1546361595,-9.754341125,-0.8371888399,2024-06-05 20:04:52.985510
52.0255096,1.801496387,-9.28265667,-0.2120639086,2024-06-05 20:04:53.025510
52.0655096,-0.3879363835,-11.1006031,0.6828517914,2024-06-05 20:04:53.065510
52.1055096,1.378564954,-9.096913338,-0.3699901998,2024-06-05 20:04:53.105510
52.1455096,1.006181955,-9.56770134,0.5246263742,2024-06-05 20:04:53.145510
52.1855096,1.353440285,-10.28136063,0.07417750359,2024-06-05 20:04:53.185510
52.2255096,1.628913999,-8.642875671,0.3687937856,2024-06-05 20:04:53.225510
52.2655096,-0.2898306549,-9.373583794,0.3101696372,2024-06-05 20:04:53.265510
52.3055096,0.2036890239,-10.37976551,0.5294120312,2024-06-05 20:04:53.305510
52.3455096,2.185843468,-9.190233231,-0.613160789,2024-06-05 20:04:53.345510
52.3855096,3.147758245,-9.050253868,1.481755376,2024-06-05 20:04:53.385510
52.4255096,1.961815476,-9.220144272,2.596810818,2024-06-05 20:04:53.425510
52.4655096,0.9966106415,-8.210671425,-0.01076770201,2024-06-05 20:04:53.465510
52.5055096,0.7618148923,-9.533005714,-0.9559326172,2024-06-05 20:04:53.505510
52.5455096,2.363211393,-10.59541893,0.1785643846,2024-06-05 20:04:53.545510
52.5855096,3.380161047,-8.860920906,0.2264208496,2024-06-05 20:04:53.585510
52.6255096,1.524826288,-9.722038269,0.3317050338,2024-06-05 20:04:53.625510
52.6655096,1.258923769,-9.651450157,0.1100698411,2024-06-05 20:04:53.665510
52.7055096,-0.2288136631,-9.499206543,-0.3915255964,2024-06-05 20:04:53.705510
52.7455096,-1.143769264,-11.0060873,-1.266102314,2024-06-05 20:04:53.745510
52.7855096,-3.934697628,-13.08903885,-3.439981699,2024-06-05 20:04:53.785510
52.8255096,-3.934697628,-13.08903885,-3.439981699,2024-06-05 20:04:53.825510
52.8655096,-3.934697628,-13.08903885,-3.439981699,2024-06-05 20:04:53.865510
52.9055096,-3.934697628,-13.08903885,-3.439981699,2024-06-05 20:04:53.905510
52.9455096,-3.934697628,-13.08903885,-3.439981699,2024-06-05 20:04:53.945510
52.9855096,-3.934697628,-13.08903885,-3.439981699,2024-06-05 20:04:53.985510
53.0255096,-3.934697628,-13.08903885,-3.439981699,2024-06-05 20:04:54.025510
53.0655096,-3.934697628,-13.08903885,-3.439981699,2024-06-05 20:04:54.065510
53.1055096,-3.934697628,-13.08903885,-3.439981699,2024-06-05 20:04:54.105510
53.1455096,-3.934697628,-13.08903885,-3.439981699,2024-06-05 20:04:54.145510
53.1855096,-3.934697628,-13.08903885,-3.439981699,2024-06-05 20:04:54.185510
53.2255096,-3.934697628,-13.08903885,-3.439981699,2024-06-05 20:04:54.225510
53.2655096,-3.934697628,-13.08903885,-3.439981699,2024-06-05 20:04:54.265510
53.3055096,-3.934697628,-13.08903885,-3.439981699,2024-06-05 20:04:54.305510
53.3455096,-3.934697628,-13.08903885,-3.439981699,2024-06-05 20:04:54.345510
53.3855096,-3.934697628,-13.08903885,-3.439981699,2024-06-05 20:04:54.385510
53.4255096,-3.934697628,-13.08903885,-3.439981699,2024-06-05 20:04:54.425510
53.4655096,-3.934697628,-13.08903885,-3.439981699,2024-06-05 20:04:54.465510
53.5055096,-3.934697628,-13.08903885,-3.439981699,2024-06-05 20:04:54.505510
53.5455096,-3.934697628,-13.08903885,-3.439981699,2024-06-05 20:04:54.545510
53.5855096,-3.934697628,-13.08903885,-3.439981699,2024-06-05 20:04:54.585510
53.6255096,7.040282249,-15.41516209,-3.684348583,2024-06-05 20:04:54.625510
53.6655096,1.292423368,-10.5233345,-3.689134359,2024-06-05 20:04:54.665510
53.7055096,-3.760919094,-9.035896301,10.82752228,2024-06-05 20:04:54.705510
53.7455096,2.696112871,-10.22034359,2.51994133,2024-06-05 20:04:54.745510
53.7855096,3.573979616,-7.412964344,-0.561715126,2024-06-05 20:04:54.785510
53.8255096,2.989532709,-9.367601395,-2.003689766,2024-06-05 20:04:54.825510
53.8655096,2.757129908,-8.931509972,3.455534935,2024-06-05 20:04:54.865510
53.9055096,1.845763564,-9.757930756,-1.434796333,2024-06-05 20:04:54.905510
53.9455096,0.8288139701,-10.21675491,-1.856531262,2024-06-05 20:04:54.945510
53.9855096,-0.9487541914,-10.02502918,0.9894321561,2024-06-05 20:04:54.985510
54.0255096,-0.4695914388,-9.028717995,0.3436691463,2024-06-05 20:04:55.025510
54.0655096,-1.49132669,-10.29452133,1.452742457,2024-06-05 20:04:55.065510
54.1055096,1.340279818,-13.02562904,2.817249537,2024-06-05 20:04:55.105510
54.1455096,2.675773859,-13.49731445,-2.559721947,2024-06-05 20:04:55.145510
54.1855096,7.888238907,-13.95015621,-0.6912266612,2024-06-05 20:04:55.185510
54.2255096,4.89631319,-10.31276608,0.727118969,2024-06-05 20:04:55.225510
54.2655096,5.044967651,-6.906284332,-0.8240283132,2024-06-05 20:04:55.265510
54.3055096,4.141676903,-6.998407841,1.148554921,2024-06-05 20:04:55.305510
54.3455096,3.73699069,-6.660720825,0.1256231815,2024-06-05 20:04:55.345510
54.3855096,3.067299604,-6.710970402,-2.378764868,2024-06-05 20:04:55.385510
54.4255096,3.34038043,-8.845368385,2.093719721,2024-06-05 20:04:55.425510
54.4655096,3.159722328,-10.25623608,3.422035456,2024-06-05 20:04:55.465510
54.5055096,2.832803011,-9.88504982,1.073180914,2024-06-05 20:04:55.505510
54.5455096,2.832803011,-9.88504982,1.073180914,2024-06-05 20:04:55.545510
54.5855096,2.832803011,-9.88504982,1.073180914,2024-06-05 20:04:55.585510
54.6255096,2.832803011,-9.88504982,1.073180914,2024-06-05 20:04:55.625510
54.6655096,3.343969584,-9.487242699,1.240977645,2024-06-05 20:04:55.665510
54.7055096,3.343969584,-9.487242699,1.240977645,2024-06-05 20:04:55.705510
54.7455096,3.343969584,-9.487242699,1.240977645,2024-06-05 20:04:55.745510
54.7855096,3.343969584,-9.487242699,1.240977645,2024-06-05 20:04:55.785510
54.8255096,3.343969584,-9.487242699,1.240977645,2024-06-05 20:04:55.825510
54.8655096,3.343969584,-9.487242699,1.240977645,2024-06-05 20:04:55.865510
54.9055096,3.765704632,-9.084949493,0.08733802289,2024-06-05 20:04:55.905510
54.9455096,3.765704632,-9.084949493,0.08733802289,2024-06-05 20:04:55.945510
54.9855096,3.765704632,-9.084949493,0.08733802289,2024-06-05 20:04:55.985510
55.0255096,3.765704632,-9.084949493,0.08733802289,2024-06-05 20:04:56.025510
55.0655096,3.765704632,-9.084949493,0.08733802289,2024-06-05 20:04:56.065510
55.1055096,3.765704632,-9.084949493,0.08733802289,2024-06-05 20:04:56.105510
55.1455096,3.765704632,-9.084949493,0.08733802289,2024-06-05 20:04:56.145510
55.1855096,3.765704632,-9.084949493,0.08733802289,2024-06-05 20:04:56.185510
55.2255096,3.765704632,-9.084949493,0.08733802289,2024-06-05 20:04:56.225510
55.2655096,3.765704632,-9.084949493,0.08733802289,2024-06-05 20:04:56.265510
55.3055096,1.862513304,-10.12941647,1.044467092,2024-06-05 20:04:56.305510
55.3455096,1.345065475,-9.891031265,0.2886342406,2024-06-05 20:04:56.345510
55.3855096,2.16670084,-9.51386261,-1.597807288,2024-06-05 20:04:56.385510
55.4255096,1.718644857,-9.22492981,-2.063809633,2024-06-05 20:04:56.425510
55.4655096,1.413260818,-9.118449211,-1.47457695,2024-06-05 20:04:56.465510
55.5055096,2.111665964,-9.926923752,-0.9559326172,2024-06-05 20:04:56.505510
55.5455096,1.74885428,-9.4812603,-0.5246263742,2024-06-05 20:04:56.545510
55.5855096,1.384546995,-9.999904633,-0.8180462122,2024-06-05 20:04:56.585510
55.6255096,-0.1220339537,-10.64925671,-0.8647062778,2024-06-05 20:04:56.625510
55.6655096,2.606382132,-8.650053978,1.214656591,2024-06-05 20:04:56.665510
55.7055096,6.327819347,-6.719345093,1.873281002,2024-06-05 20:04:56.705510
55.7455096,4.205385685,-10.62413216,2.121237278,2024-06-05 20:04:56.745510
55.7855096,0.7785646915,-11.68654537,5.963512421,2024-06-05 20:04:56.785510
55.8255096,1.070788145,-11.40030479,7.770990849,2024-06-05 20:04:56.825510
55.8655096,-1.736590981,-11.20618629,6.176772594,2024-06-05 20:04:56.865510
55.9055096,-0.02632104978,-6.596114635,2.997907639,2024-06-05 20:04:56.905510
55.9455096,-0.5509474277,-7.030711174,3.31525588,2024-06-05 20:04:56.945510
55.9855096,0.5808576941,-6.774380207,1.733001828,2024-06-05 20:04:56.985510
56.0255096,3.292523861,-6.774380207,1.528415442,2024-06-05 20:04:57.025510
56.0655096,4.616054058,-8.536395073,1.040877819,2024-06-05 20:04:57.065510
56.1055096,4.686941147,-9.218947411,1.121037364,2024-06-05 20:04:57.105510
56.1455096,3.968197346,-9.570094109,1.127019525,2024-06-05 20:04:57.145510
56.1855096,2.248056889,-10.40249729,1.298405409,2024-06-05 20:04:57.185510
56.2255096,2.248056889,-10.40249729,1.298405409,2024-06-05 20:04:57.225510
56.2655096,2.248056889,-10.40249729,1.298405409,2024-06-05 20:04:57.265510
56.3055096,2.248056889,-10.40249729,1.298405409,2024-06-05 20:04:57.305510
56.3455096,2.248056889,-10.40249729,1.298405409,2024-06-05 20:04:57.345510
56.3855096,2.248056889,-10.40249729,1.298405409,2024-06-05 20:04:57.385510
56.4255096,2.248056889,-10.40249729,1.298405409,2024-06-05 20:04:57.425510
56.4655096,2.248056889,-10.40249729,1.298405409,2024-06-05 20:04:57.465510
56.5055096,2.248056889,-10.40249729,1.298405409,2024-06-05 20:04:57.505510
56.5455096,2.248056889,-10.40249729,1.298405409,2024-06-05 20:04:57.545510
56.5855096,2.248056889,-10.40249729,1.298405409,2024-06-05 20:04:57.585510
56.6255096,2.248056889,-10.40249729,1.298405409,2024-06-05 20:04:57.625510
56.6655096,2.248056889,-10.40249729,1.298405409,2024-06-05 20:04:57.665510
56.7055096,2.248056889,-10.40249729,1.298405409,2024-06-05 20:04:57.705510
56.7455096,2.248056889,-10.40249729,1.298405409,2024-06-05 20:04:57.745510
56.7855096,2.248056889,-10.40249729,1.298405409,2024-06-05 20:04:57.785510
56.8255096,2.248056889,-10.40249729,1.298405409,2024-06-05 20:04:57.825510
56.8655096,2.248056889,-10.40249729,1.298405409,2024-06-05 20:04:57.865510
56.9055096,2.248056889,-10.40249729,1.298405409,2024-06-05 20:04:57.905510
56.9455096,2.248056889,-10.40249729,1.298405409,2024-06-05 20:04:57.945510
56.9855096,-1.985743642,-12.3116703,0.3508476317,2024-06-05 20:04:57.985510
57.0255096,-1.452742457,-12.00509071,7.080960274,2024-06-05 20:04:58.025510
57.0655096,0.1256231815,-10.79880905,1.637288928,2024-06-05 20:04:58.065510
57.1055096,2.250449657,-9.77378273,-1.31276238,2024-06-05 20:04:58.105510
57.1455096,3.933501244,-11.73799133,-1.062413216,2024-06-05 20:04:58.145510
57.1855096,5.416153908,-10.77488041,-1.709073544,2024-06-05 20:04:58.185510
57.2255096,1.424028635,-9.08853817,-6.067899227,2024-06-05 20:04:58.225510
57.2655096,0.01316052489,-9.211769104,3.72024107,2024-06-05 20:04:58.265510
57.3055096,0.008374879137,-8.93390274,-2.087737799,2024-06-05 20:04:58.305510
57.3455096,2.807379246,-6.286842346,-2.092523336,2024-06-05 20:04:58.345510
57.3855096,4.299902439,-3.874577999,-0.7319046259,2024-06-05 20:04:58.385510
57.4255096,4.727619171,-4.678267479,-0.009571290575,2024-06-05 20:04:58.425510
57.4655096,3.796811342,-8.814261436,5.040181637,2024-06-05 20:04:58.465510
57.5055096,-2.317747831,-16.11087418,14.36112309,2024-06-05 20:04:58.505510
57.5455096,2.522334099,-11.17388344,4.338187218,2024-06-05 20:04:58.545510
57.5855096,6.546762943,-8.276473999,-1.912762642,2024-06-05 20:04:58.585510
57.6255096,6.943373203,-17.37578011,8.090731621,2024-06-05 20:04:58.625510
57.6655096,3.503391504,-3.478266716,-4.780261517,2024-06-05 20:04:58.665510
57.7055096,3.632902861,-5.676074505,-6.318248272,2024-06-05 20:04:58.705510
57.7455096,7.284649372,-13.7476635,-3.443570852,2024-06-05 20:04:58.745510
57.7855096,1.330708504,-9.432208061,-2.544168711,2024-06-05 20:04:58.785510
57.8255096,-0.8958129883,-10.57507992,15.38375568,2024-06-05 20:04:58.825510
57.8655096,1.737787485,-10.34626579,-2.498405933,2024-06-05 20:04:58.865510
57.9055096,2.904587507,-7.888238907,-1.236191988,2024-06-05 20:04:58.905510
57.9455096,2.904587507,-7.888238907,-1.236191988,2024-06-05 20:04:58.945510
57.9855096,2.904587507,-7.888238907,-1.236191988,2024-06-05 20:04:58.985510
58.0255096,2.904587507,-7.888238907,-1.236191988,2024-06-05 20:04:59.025510
58.0655096,2.904587507,-7.888238907,-1.236191988,2024-06-05 20:04:59.065510
58.1055096,2.904587507,-7.888238907,-1.236191988,2024-06-05 20:04:59.105510
58.1455096,2.904587507,-7.888238907,-1.236191988,2024-06-05 20:04:59.145510
58.1855096,2.904587507,-7.888238907,-1.236191988,2024-06-05 20:04:59.185510
58.2255096,2.904587507,-7.888238907,-1.236191988,2024-06-05 20:04:59.225510
58.2655096,2.904587507,-7.888238907,-1.236191988,2024-06-05 20:04:59.265510
58.3055096,2.904587507,-7.888238907,-1.236191988,2024-06-05 20:04:59.305510
58.3455096,2.904587507,-7.888238907,-1.236191988,2024-06-05 20:04:59.345510
58.3855096,2.904587507,-7.888238907,-1.236191988,2024-06-05 20:04:59.385510
58.4255096,2.904587507,-7.888238907,-1.236191988,2024-06-05 20:04:59.425510
58.4655096,2.904587507,-7.888238907,-1.236191988,2024-06-05 20:04:59.465510
58.5055096,2.904587507,-7.888238907,-1.236191988,2024-06-05 20:04:59.505510
58.5455096,2.904587507,-7.888238907,-1.236191988,2024-06-05 20:04:59.545510
58.5855096,2.904587507,-7.888238907,-1.236191988,2024-06-05 20:04:59.585510
58.6255096,2.904587507,-7.888238907,-1.236191988,2024-06-05 20:04:59.625510
58.6655096,2.904587507,-7.888238907,-1.236191988,2024-06-05 20:04:59.665510
58.7055096,0.3580260873,-12.55125237,1.907976985,2024-06-05 20:04:59.705510
58.7455096,4.634000301,-6.42472887,1.613360643,2024-06-05 20:04:59.745510
58.7855096,4.679463863,-5.827121258,1.697109461,2024-06-05 20:04:59.785510
58.8255096,2.322533369,-7.925626755,0.9834501147,2024-06-05 20:04:59.825510
58.8655096,0.1028913707,-6.243771553,-0.4815555513,2024-06-05 20:04:59.865510
58.9055096,1.480558991,-5.842674732,0.3819543123,2024-06-05 20:04:59.905510
58.9455096,1.233799219,-9.173483849,5.388636589,2024-06-05 20:04:59.945510
58.9855096,3.104687452,-10.48983574,3.952643871,2024-06-05 20:04:59.985510
59.0255096,4.116552353,-7.67527771,5.605485916,2024-06-05 20:05:00.025510
59.0655096,1.964208245,-10.14736271,4.133302212,2024-06-05 20:05:00.065510
59.1055096,1.366600871,-9.66580677,4.691727161,2024-06-05 20:05:00.105510
59.1455096,0.6107679605,-9.267103195,3.919144392,2024-06-05 20:05:00.145510
59.1855096,2.097309113,-9.298210144,3.96939373,2024-06-05 20:05:00.185510
59.2255096,2.724826813,-8.82861805,3.181257725,2024-06-05 20:05:00.225510
59.2655096,2.397907495,-8.746066093,3.095116138,2024-06-05 20:05:00.265510
59.3055096,2.323729992,-9.082556725,3.563211918,2024-06-05 20:05:00.305510
59.3455096,2.601596355,-8.736495018,2.751147747,2024-06-05 20:05:00.345510
59.3855096,2.892623425,-8.768797874,2.691327333,2024-06-05 20:05:00.385510
59.4255096,1.65762794,-8.979664803,2.140379906,2024-06-05 20:05:00.425510
59.4655096,0.5509474277,-9.48484993,1.790728688,2024-06-05 20:05:00.465510
59.5055096,0.8060821295,-9.572486877,1.621735573,2024-06-05 20:05:00.505510
59.5455096,2.63389945,-10.61456108,2.238485575,2024-06-05 20:05:00.545510
59.5855096,3.183650494,-10.1330061,3.438785315,2024-06-05 20:05:00.585510
59.6255096,3.183650494,-10.1330061,3.438785315,2024-06-05 20:05:00.625510
59.6655096,3.183650494,-10.1330061,3.438785315,2024-06-05 20:05:00.665510
59.7055096,3.183650494,-10.1330061,3.438785315,2024-06-05 20:05:00.705510
59.7455096,3.183650494,-10.1330061,3.438785315,2024-06-05 20:05:00.745510
59.7855096,3.183650494,-10.1330061,3.438785315,2024-06-05 20:05:00.785510
59.8255096,3.183650494,-10.1330061,3.438785315,2024-06-05 20:05:00.825510
59.8655096,3.183650494,-10.1330061,3.438785315,2024-06-05 20:05:00.865510
59.9055096,3.183650494,-10.1330061,3.438785315,2024-06-05 20:05:00.905510
59.9455096,3.183650494,-10.1330061,3.438785315,2024-06-05 20:05:00.945510
59.9855096,3.183650494,-10.1330061,3.438785315,2024-06-05 20:05:00.985510
60.0255096,3.183650494,-10.1330061,3.438785315,2024-06-05 20:05:01.025510
60.0655096,3.183650494,-10.1330061,3.438785315,2024-06-05 20:05:01.065510
60.1055096,3.183650494,-10.1330061,3.438785315,2024-06-05 20:05:01.105510
60.1455096,3.183650494,-10.1330061,3.438785315,2024-06-05 20:05:01.145510
60.1855096,3.183650494,-10.1330061,3.438785315,2024-06-05 20:05:01.185510
60.2255096,3.183650494,-10.1330061,3.438785315,2024-06-05 20:05:01.225510
60.2655096,3.183650494,-10.1330061,3.438785315,2024-06-05 20:05:01.265510
60.3055096,3.183650494,-10.1330061,3.438785315,2024-06-05 20:05:01.305510
60.3455096,3.183650494,-10.1330061,3.438785315,2024-06-05 20:05:01.345510
60.3855096,2.400300264,-9.662218094,0.4241278172,2024-06-05 20:05:01.385510
60.4255096,2.170290232,-9.475278854,0.4205385745,2024-06-05 20:05:01.425510
60.4655096,2.258824587,-9.651450157,0.5198407173,2024-06-05 20:05:01.465510
60.5055096,2.291426897,-9.419047356,0.371186614,2024-06-05 20:05:01.505510
60.5455096,2.194218397,-9.524630547,0.5389832854,2024-06-05 20:05:01.545510
60.5855096,2.285444736,-9.603593826,0.3448655605,2024-06-05 20:05:01.585510
60.6255096,2.594418049,-9.429815292,0.6275177598,2024-06-05 20:05:01.625510
60.6655096,2.699702263,-9.30179882,0.4480560422,2024-06-05 20:05:01.665510
60.7055096,2.115255117,-9.466903687,0.5294120312,2024-06-05 20:05:01.705510
60.7455096,1.812264085,-9.579665184,0.304187566,2024-06-05 20:05:01.745510
60.7855096,1.907976985,-9.772586823,0.2730808854,2024-06-05 20:05:01.785510
60.8255096,2.230110645,-9.451350212,0.4683950245,2024-06-05 20:05:01.825510
60.8655096,3.135794163,-9.026325226,0.7941179872,2024-06-05 20:05:01.865510
60.9055096,3.146561861,-9.222537041,0.3652045429,2024-06-05 20:05:01.905510
60.9455096,2.215753794,-9.408279419,0.614357233,2024-06-05 20:05:01.945510
60.9855096,2.007578135,-9.69811058,0.5820540786,2024-06-05 20:05:01.985510
61.0255096,2.16670084,-9.851550102,0.6490531564,2024-06-05 20:05:02.025510
61.0655096,2.568096876,-9.605986595,0.6323033571,2024-06-05 20:05:02.065510
61.1055096,3.045764208,-9.401101112,1.135394335,2024-06-05 20:05:02.105510
61.1455096,2.912962437,-9.122037888,0.7606185079,2024-06-05 20:05:02.145510
61.1855096,2.418246269,-9.189037323,0.8120641708,2024-06-05 20:05:02.185510
61.2255096,1.7883358,-9.404690742,0.3556332588,2024-06-05 20:05:02.225510
61.2655096,1.719841242,-9.828818321,0.180957213,2024-06-05 20:05:02.265510
61.3055096,1.683948994,-9.943673134,1.560718536,2024-06-05 20:05:02.305510
61.3455096,2.248056889,-9.334101677,0.9750752449,2024-06-05 20:05:02.345510
61.3855096,2.490031004,-9.346066475,0.5964110494,2024-06-05 20:05:02.385510
61.4255096,2.402693033,-9.423832893,0.5700899959,2024-06-05 20:05:02.425510
61.4655096,2.730808735,-9.447761536,0.7630113363,2024-06-05 20:05:02.465510
61.5055096,2.492423773,-9.378369331,1.223031521,2024-06-05 20:05:02.505510
61.5455096,2.324926376,-9.372386932,0.561715126,2024-06-05 20:05:02.545510
61.5855096,2.059023857,-9.426225662,0.5258227587,2024-06-05 20:05:02.585510
61.6255096,2.178664923,-9.447761536,1.11984098,2024-06-05 20:05:02.625510
61.6655096,2.612364054,-9.438189507,0.9173483849,2024-06-05 20:05:02.665510
61.7055096,2.666202545,-9.496813774,0.8276175261,2024-06-05 20:05:02.705510
61.7455096,2.4158535,-9.521040916,1.095912814,2024-06-05 20:05:02.745510
61.7855096,2.4158535,-9.521040916,1.095912814,2024-06-05 20:05:02.785510
61.8255096,2.4158535,-9.521040916,1.095912814,2024-06-05 20:05:02.825510
61.8655096,2.4158535,-9.521040916,1.095912814,2024-06-05 20:05:02.865510
61.9055096,2.4158535,-9.521040916,1.095912814,2024-06-05 20:05:02.905510
61.9455096,2.4158535,-9.521040916,1.095912814,2024-06-05 20:05:02.945510
61.9855096,2.4158535,-9.521040916,1.095912814,2024-06-05 20:05:02.985510
62.0255096,2.4158535,-9.521040916,1.095912814,2024-06-05 20:05:03.025510
62.0655096,2.118844509,-9.295816422,1.202393413,2024-06-05 20:05:03.065510
62.1055096,1.898405671,-9.312566757,1.203589797,2024-06-05 20:05:03.105510
62.1455096,2.065006018,-9.503094673,1.147358418,2024-06-05 20:05:03.145510
62.1855096,2.727219582,-9.755537987,1.218245864,2024-06-05 20:05:03.185510
62.2255096,3.235096216,-9.585647583,1.329512119,2024-06-05 20:05:03.225510
