Time (s),Gyroscope x (rad/s),Gyroscope y (rad/s),Gyroscope z (rad/s),Datetime
0.107319907,-1.42208612,0.5336817503,0.7559159994,2024-06-05 20:04:01.107320
0.191859126,-1.382406116,0.1832200736,0.5135754943,2024-06-05 20:04:01.191859
0.23218496,-1.620618939,0.2524602413,0.5197005868,2024-06-05 20:04:01.232185
0.273202512,-0.3854812086,-0.7014559507,0.4214328229,2024-06-05 20:04:01.273203
0.313708085,1.197588205,-2.387453556,0.4563191831,2024-06-05 20:04:01.313708
0.354163241,0.5162385702,-1.130212188,0.1099853069,2024-06-05 20:04:01.354163
0.394845845,-1.453510404,2.515281439,-0.8184984326,2024-06-05 20:04:01.394846
0.434994126,-0.4198349714,1.609567046,-0.6075822711,2024-06-05 20:04:01.434994
0.475613032,-0.1549914032,1.778672814,-0.09693620354,2024-06-05 20:04:01.475613
0.516063241,0.2744306624,0.5573831797,0.1611164957,2024-06-05 20:04:01.516063
0.556560168,0.7061163187,-1.581471562,0.9089100957,2024-06-05 20:04:01.556560
0.59713522,0.363910228,-0.4994611442,0.8535179496,2024-06-05 20:04:01.597135
0.637597928,0.259783715,0.2841508985,0.8750889301,2024-06-05 20:04:01.637598
0.678025585,0.5215647221,-0.3183715343,0.6400718689,2024-06-05 20:04:01.678026
0.71850772,0.6304848194,0.9223586321,0.4882761836,2024-06-05 20:04:01.718508
0.759003814,-1.070026517,0.2362154275,-0.3798887134,2024-06-05 20:04:01.759004
0.799489907,-2.98624754,0.5219641924,-1.936194181,2024-06-05 20:04:01.799490
0.839995064,-3.508078575,1.864024639,-2.802761316,2024-06-05 20:04:01.839995
0.88045522,-5.043079376,1.672682166,-3.749620199,2024-06-05 20:04:01.880455
0.920887147,-6.374354362,2.86494422,-4.310598373,2024-06-05 20:04:01.920887
0.961406835,-4.593950748,2.708621264,-2.906088829,2024-06-05 20:04:01.961407
1.001841366,-4.402741432,2.629527807,-2.342980146,2024-06-05 20:04:02.001841
1.042391782,-4.253874779,-0.07762885839,-0.6352783442,2024-06-05 20:04:02.042392
1.082846105,-2.770671129,0.2386122048,0.9808133245,2024-06-05 20:04:02.082846
1.12334673,1.385601878,0.1709699035,2.97666049,2024-06-05 20:04:02.123347
1.163515793,0.9616391063,-1.505307436,4.387827873,2024-06-05 20:04:02.163516
1.204253762,-0.579886198,-1.398517847,2.650832415,2024-06-05 20:04:02.204254
1.244768553,-1.75350666,-2.105965614,1.503975868,2024-06-05 20:04:02.244769
1.285279907,-1.535533428,-1.76762104,0.3958672285,2024-06-05 20:04:02.285280
1.325699907,-0.8978582621,-0.5007926822,-0.560978353,2024-06-05 20:04:02.325700
1.36621371,-1.060439467,-1.02794981,-0.6704310179,2024-06-05 20:04:02.366214
1.406396991,-1.728207469,-1.223286986,-0.1776276082,2024-06-05 20:04:02.406397
1.447316418,-1.36642766,1.320090055,-0.9789491296,2024-06-05 20:04:02.447316
1.487635793,-0.3677717149,0.8344769478,-1.122755647,2024-06-05 20:04:02.487636
1.528113345,-1.428743839,-0.09307473898,-1.58280313,2024-06-05 20:04:02.528113
1.568627876,-2.692642689,-0.5173037648,-2.040320635,2024-06-05 20:04:02.568628
1.60906371,-2.608755589,0.3475322723,-1.006112576,2024-06-05 20:04:02.609064
1.64959548,-1.346720815,0.1392792165,1.861627817,2024-06-05 20:04:02.649595
1.690114751,-0.08761541545,-0.4438027143,3.231783867,2024-06-05 20:04:02.690115
1.730448293,-0.3384777904,-1.040466309,2.9729321,2024-06-05 20:04:02.730448
1.77099621,-0.3454017937,-2.4504354,3.289705992,2024-06-05 20:04:02.770996
1.811498553,-1.011438727,-1.098255277,1.946580172,2024-06-05 20:04:02.811499
1.851979855,-1.216229796,-0.7102441192,0.8716269135,2024-06-05 20:04:02.851980
1.892468762,-0.1262301207,-1.022623658,0.148067385,2024-06-05 20:04:02.892469
1.932859491,0.03462007269,-0.3468665183,-1.26549685,2024-06-05 20:04:02.932859
1.973369751,0.1019960642,-0.118640326,-1.636064768,2024-06-05 20:04:02.973370
2.013878085,0.6472622156,0.4228975177,-2.333925486,2024-06-05 20:04:03.013878
2.054367772,0.1105179265,1.567490339,-2.80968523,2024-06-05 20:04:03.054368
2.094868085,-0.8677654266,0.8994561434,-1.440461397,2024-06-05 20:04:03.094868
2.135323397,-0.8592435718,0.8432651162,-0.1493989378,2024-06-05 20:04:03.135323
2.175727303,-0.06151720881,0.1784265339,1.442325473,2024-06-05 20:04:03.175727
2.216431418,0.1174419373,-0.4613790512,2.493976831,2024-06-05 20:04:03.216431
2.256735376,-0.3648423254,-1.610499144,1.611830711,2024-06-05 20:04:03.256735
2.297293762,-0.1027949899,-1.436333537,0.9025186896,2024-06-05 20:04:03.297294
2.337723657,-0.1478010863,-0.7419347763,0.3649754524,2024-06-05 20:04:03.337724
2.378196782,-0.6616428494,-1.192927837,-0.7852098942,2024-06-05 20:04:03.378197
2.418595012,-0.04473978654,-1.596118569,-1.215697169,2024-06-05 20:04:03.418595
2.459127876,0.5809514523,0.5283555984,-1.161636591,2024-06-05 20:04:03.459128
2.499660949,0.2299571782,0.8155690432,-0.8659012914,2024-06-05 20:04:03.499661
2.54012048,0.6781539917,1.204645395,-1.696250439,2024-06-05 20:04:03.540120
2.580646887,1.547650456,1.669752717,-1.529940963,2024-06-05 20:04:03.580647
2.621055897,1.067896128,1.504907966,-1.008509398,2024-06-05 20:04:03.621056
2.661565689,1.655771613,-0.9592423439,-1.587330341,2024-06-05 20:04:03.661566
2.702088449,0.5079829693,-0.2605826259,-2.897034407,2024-06-05 20:04:03.702088
2.742510064,-0.897059381,0.2431394309,-3.480382681,2024-06-05 20:04:03.742510
2.783024387,-2.08159852,-0.2256962508,-5.837610245,2024-06-05 20:04:03.783024
2.823464282,-1.234605074,3.31966567,-11.36936569,2024-06-05 20:04:03.823464
2.863963345,1.264165282,0.2782921195,-10.04248428,2024-06-05 20:04:03.863963
2.904458657,0.4619116783,-2.377866507,1.410368562,2024-06-05 20:04:03.904459
2.944956314,-0.1275616586,-2.376268625,6.789395809,2024-06-05 20:04:03.944956
2.98535548,-0.07163692266,-4.291025162,2.269479036,2024-06-05 20:04:03.985355
3.025879595,-1.016764879,-5.536815166,-0.5356790423,2024-06-05 20:04:04.025880
3.066375116,0.01304910425,2.875063896,0.1624480337,2024-06-05 20:04:04.066375
3.106751262,-0.2279598713,1.806901574,0.3524589837,2024-06-05 20:04:04.106751
3.147280064,-0.2532591522,-0.4691019952,-0.2037258148,2024-06-05 20:04:04.147280
3.187808605,-0.4821510911,-1.720218182,-0.3619129062,2024-06-05 20:04:04.187809
3.228175689,-0.314776361,-0.6777545214,-0.307053417,2024-06-05 20:04:04.228176
3.268658501,-0.1914756298,-0.05525896326,-0.369769007,2024-06-05 20:04:04.268659
3.309179855,-0.03435376659,-0.6103785038,-0.403323859,2024-06-05 20:04:04.309180
3.349678293,0.1233007237,-0.1734998226,-0.2742975056,2024-06-05 20:04:04.349678
3.390170637,0.255256474,-0.551923871,-0.1832200736,2024-06-05 20:04:04.390171
3.430657824,0.7324808836,-1.413963675,-0.1078548431,2024-06-05 20:04:04.430658
3.47104522,1.414096832,-0.5561847687,-0.07323476672,2024-06-05 20:04:04.471045
3.511598814,1.883997798,0.9894683361,0.1195724085,2024-06-05 20:04:04.511599
3.552084282,2.052304506,3.464537144,0.2699034214,2024-06-05 20:04:04.552084
3.592493762,1.339530468,2.270943642,0.3679048419,2024-06-05 20:04:04.592494
3.632982303,0.4587159753,0.3443365693,0.5189016461,2024-06-05 20:04:04.632982
3.673447199,-0.3033251166,-2.373072863,0.9789491296,2024-06-05 20:04:04.673447
3.71397246,0.05459319428,-1.698380947,1.386134505,2024-06-05 20:04:04.713972
3.754461105,0.6776213646,-3.054821968,0.5231625438,2024-06-05 20:04:04.754461
3.794882303,1.86855185,-2.140585661,0.4083836973,2024-06-05 20:04:04.794882
3.835425428,1.647516012,-2.112623453,0.3109148741,2024-06-05 20:04:04.835425
3.875891366,0.1310236603,-1.435002089,0.03515268862,2024-06-05 20:04:04.875891
3.916374647,-0.07030537724,-1.11183691,-0.1091863886,2024-06-05 20:04:04.916375
3.956845741,0.6435338855,-1.341794133,0.003994623665,2024-06-05 20:04:04.956846
3.99731147,1.19572401,-0.8431319594,0.4810858667,2024-06-05 20:04:04.997311
4.037819803,0.6840127707,-0.5740274191,0.4573844373,2024-06-05 20:04:05.037820
4.078298762,-0.900255084,-1.165897489,-0.1600512564,2024-06-05 20:04:05.078299
4.118768241,-0.4134435654,1.691057444,-0.5753589869,2024-06-05 20:04:05.118768
4.159198657,1.436733007,2.545374393,0.2410089672,2024-06-05 20:04:05.159199
4.199745428,-1.429276466,-1.678940415,0.345801264,2024-06-05 20:04:05.199745
4.240193085,-2.733920574,-0.1266295761,-1.427412271,2024-06-05 20:04:05.240193
4.280719282,-1.740723968,1.956699967,-1.509168863,2024-06-05 20:04:05.280719
4.32117621,-0.05885412544,-3.062012434,-0.7721607685,2024-06-05 20:04:05.321176
4.361650272,-0.3523258269,-2.19624424,-0.313444823,2024-06-05 20:04:05.361650
4.402125741,-1.676809907,0.836341083,0.4446016252,2024-06-05 20:04:05.402126
4.442584074,-1.78093648,-0.4959991276,0.1949376464,2024-06-05 20:04:05.442584
4.483077147,-1.177615166,2.093049765,-0.5308855176,2024-06-05 20:04:05.483077
4.523597199,-1.091597557,1.509435177,-0.7993242145,2024-06-05 20:04:05.523597
4.56406246,-0.8832113147,-0.3165073693,-0.8927984238,2024-06-05 20:04:05.564062
4.604501939,-0.6320826411,0.5214315653,-0.6959966421,2024-06-05 20:04:05.604502
4.644950428,-0.2617810071,1.146323919,-0.4611127377,2024-06-05 20:04:05.644950
4.685464491,0.2007964253,1.366693974,-0.866700232,2024-06-05 20:04:05.685464
4.726022407,0.06790860742,0.6087806821,-0.4914718866,2024-06-05 20:04:05.726022
4.76645798,-0.1278279573,-0.6484606266,-0.3822855055,2024-06-05 20:04:05.766458
4.806910637,-0.3477985859,-0.05366111174,-0.5657718778,2024-06-05 20:04:05.806911
4.847397147,-0.7977263927,-0.4355471432,-0.9428643584,2024-06-05 20:04:05.847397
4.887890168,-0.9149020314,-0.6655043364,-0.9832100868,2024-06-05 20:04:05.887890
4.928358605,-0.5023905039,0.7583127618,-0.8206288815,2024-06-05 20:04:05.928359
4.968833345,-0.680018127,0.9902672768,-0.8256887197,2024-06-05 20:04:05.968833
5.009355428,-0.8914669156,0.6866758466,-1.206642747,2024-06-05 20:04:06.009355
5.049863762,-0.6696321368,0.8810808659,-0.8105092049,2024-06-05 20:04:06.049864
5.090338449,-0.9106410742,0.1486000121,-0.7809489369,2024-06-05 20:04:06.090338
5.130808814,-0.5585815907,0.7764217257,-0.585478723,2024-06-05 20:04:06.130809
5.171216105,-0.3889431953,0.5432688594,-0.1699046642,2024-06-05 20:04:06.171216
5.211714126,-0.4038564563,-0.127961114,-0.27536273,2024-06-05 20:04:06.211714
5.25218371,-0.2396774292,0.204258427,-0.208785668,2024-06-05 20:04:06.252184
5.292698918,-0.308917582,0.07163692266,0.2651098669,2024-06-05 20:04:06.292699
5.33317121,-0.1398118287,0.349662751,0.4544550478,2024-06-05 20:04:06.333171
5.373664855,0.351660043,0.8291507363,0.3418066502,2024-06-05 20:04:06.373665
5.414114387,0.7378070354,1.220091224,0.3082517982,2024-06-05 20:04:06.414114
5.45456897,0.8721595407,1.000653267,0.9725577235,2024-06-05 20:04:06.454569
5.495092199,0.8633713722,0.8520532846,1.186669588,2024-06-05 20:04:06.495092
5.535566678,1.041531563,1.707302213,1.160305023,2024-06-05 20:04:06.535567
5.576056782,1.095059514,1.704106569,1.210104704,2024-06-05 20:04:06.576057
5.61657522,0.9509868026,1.218227148,1.245790005,2024-06-05 20:04:06.616575
5.656965897,0.7849435806,1.01796329,1.484002709,2024-06-05 20:04:06.656966
5.697475376,0.9307473302,0.8211615086,1.551378727,2024-06-05 20:04:06.697475
5.73795522,1.271621943,0.06924014539,1.512497783,2024-06-05 20:04:06.737955
5.778420637,0.9421986341,-0.7248910666,1.615558982,2024-06-05 20:04:06.778421
5.818919178,0.4259600639,-0.968829453,1.734332561,2024-06-05 20:04:06.818919
5.859380897,0.7836120725,-1.305309892,1.794518232,2024-06-05 20:04:06.859381
5.899914178,-1.220757008,-1.629140735,0.8491238952,2024-06-05 20:04:06.899914
5.940368605,-0.6733604074,-1.401979804,1.090265989,2024-06-05 20:04:06.940369
5.980800012,1.137136221,0.4966649115,1.660032511,2024-06-05 20:04:06.980800
6.021369178,-0.04207670316,-1.271222472,0.6488600373,2024-06-05 20:04:07.021369
6.061843085,-0.5910711884,-2.14351511,0.8780183196,2024-06-05 20:04:07.061843
6.10227673,-0.2617810071,-1.206775904,0.9872047305,2024-06-05 20:04:07.102277
6.142758501,-0.3296896219,-1.676543593,0.8705616593,2024-06-05 20:04:07.142759
6.18327147,-0.3187709749,-2.490914345,0.2470009029,2024-06-05 20:04:07.183271
6.223703397,0.181622237,-1.996513009,-0.03169068322,2024-06-05 20:04:07.223703
6.26423772,0.5721632838,-0.3031919599,0.2207695395,2024-06-05 20:04:07.264238
6.304643449,-0.1571218669,0.6629744172,0.369769007,2024-06-05 20:04:07.304643
6.34518246,-0.4613790512,0.1640458852,0.4672378302,2024-06-05 20:04:07.345182
6.385667095,-0.2106498331,-2.024475336,0.231421873,2024-06-05 20:04:07.385667
6.426156157,0.3319532275,-2.353366137,-0.1765623689,2024-06-05 20:04:07.426156
6.466567043,1.630205989,-0.2805557549,-0.2846835256,2024-06-05 20:04:07.466567
6.507041522,0.8580452204,0.5006595254,-0.2466014475,2024-06-05 20:04:07.507042
6.547541001,0.0868164897,2.063755751,0.3963998258,2024-06-05 20:04:07.547541
6.587998449,-0.3459344208,1.286535144,0.2645772398,2024-06-05 20:04:07.587998
6.62848746,-0.4342156053,1.625279307,-0.560978353,2024-06-05 20:04:07.628487
6.668958293,-0.02769605815,0.9058475494,-0.5308855176,2024-06-05 20:04:07.668958
6.709439387,0.4368786812,0.5709648728,-0.6693658233,2024-06-05 20:04:07.709439
6.749914907,-0.6935998797,-1.885462403,-0.09214265645,2024-06-05 20:04:07.749915
6.790402876,-1.644852996,-2.752961636,0.376160413,2024-06-05 20:04:07.790403
6.830897668,-2.305696964,-2.268147469,0.3849485815,2024-06-05 20:04:07.830898
6.871365949,-1.131011128,-0.1255643368,-0.1978670359,2024-06-05 20:04:07.871366
6.911852199,-1.164033413,1.493723035,-0.2071878165,2024-06-05 20:04:07.911852
6.95233371,-1.103315115,-0.2070546746,-0.4613790512,2024-06-05 20:04:07.952334
6.992770376,-0.3792229593,-2.633655548,-0.8579120636,2024-06-05 20:04:07.992770
7.033298032,-0.1962691844,0.4386096895,-0.1275616586,2024-06-05 20:04:08.033298
7.073820637,-0.0519301109,0.897059381,0.7540518045,2024-06-05 20:04:08.073821
7.114314335,1.174685717,0.8504554033,1.004781008,2024-06-05 20:04:08.114314
7.154702824,0.4611127377,2.873199701,0.6262238622,2024-06-05 20:04:08.154703
7.195249439,0.3029256463,1.064034581,0.6259575486,2024-06-05 20:04:08.195249
7.235683085,0.2970668674,-0.2627131045,-0.1872147024,2024-06-05 20:04:08.235683
7.276192355,0.3633776009,-1.337799549,-0.8997224569,2024-06-05 20:04:08.276192
7.316644126,1.089467049,-1.681070924,-1.135538459,2024-06-05 20:04:08.316644
7.357136418,0.8921326399,0.5983946323,-0.8616403341,2024-06-05 20:04:08.357136
7.39758397,0.09453943372,4.177844048,0.2410089672,2024-06-05 20:04:08.397584
7.438038032,-0.6981270909,3.278920412,0.5452661514,2024-06-05 20:04:08.438038
7.478557824,0.4374113083,-1.409170151,-0.05485950038,2024-06-05 20:04:08.478558
7.519057199,0.7857425213,3.950682878,0.1728340536,2024-06-05 20:04:08.519057
7.559534387,-0.4959991276,5.626161575,0.08362079412,2024-06-05 20:04:08.559534
7.5999988,-1.521685362,2.034195662,0.09187635034,2024-06-05 20:04:08.599999
7.640466092,-0.3971987665,1.559234858,-1.252447724,2024-06-05 20:04:08.640466
7.680946456,0.9488562942,2.322873831,-1.862693071,2024-06-05 20:04:08.680946
7.721439946,1.274284959,1.00091958,-1.624879837,2024-06-05 20:04:08.721440
7.761909217,-0.5372769237,-0.6822817326,-0.8890700936,2024-06-05 20:04:08.761909
7.802389894,-1.992917776,-1.116364241,0.2454030514,2024-06-05 20:04:08.802390
7.842875831,-1.152848482,0.467903614,-0.04740286991,2024-06-05 20:04:08.842876
7.883381925,-1.100651979,2.689979792,0.3034582436,2024-06-05 20:04:08.883382
7.923884737,-1.122489333,0.528621912,0.1941387206,2024-06-05 20:04:08.923885
7.964311873,-0.7005238533,0.01744319126,0.4115794003,2024-06-05 20:04:08.964312
8.004826612,-0.8448629379,1.476945639,0.58894068,2024-06-05 20:04:09.004827
8.045327498,0.1528609395,3.299692392,0.4022586346,2024-06-05 20:04:09.045327
8.085759581,0.9025186896,3.483711481,0.09720251709,2024-06-05 20:04:09.085760
8.126269633,-0.5713643432,1.248719454,0.02716344222,2024-06-05 20:04:09.126270
8.166735414,-0.875754714,-0.5941337347,0.1161103994,2024-06-05 20:04:09.166735
8.207208539,-0.4238295853,-2.521273375,-0.02876129188,2024-06-05 20:04:09.207209
8.247689269,0.7734923363,1.175085187,0.5327496529,2024-06-05 20:04:09.247689
8.288150102,-0.5529890656,-0.6937330365,0.2600499988,2024-06-05 20:04:09.288150
8.328637654,-0.4605801404,-3.39569664,0.02103835158,2024-06-05 20:04:09.328638
8.369113956,-0.04660394415,-2.136591196,0.2354165018,2024-06-05 20:04:09.369114
8.409568696,0.09214265645,-2.131531239,0.3958672285,2024-06-05 20:04:09.409569
8.450055206,-0.1541924775,-2.343778849,0.3801550269,2024-06-05 20:04:09.450055
8.490564112,-0.5886744261,-1.347652912,0.259783715,2024-06-05 20:04:09.490564
8.531052602,0.07669677585,1.802374244,0.2946700752,2024-06-05 20:04:09.531053
8.571519217,0.2872134447,3.258681059,0.1248985752,2024-06-05 20:04:09.571519
8.611997394,0.8067808747,-2.442446232,-0.5026568174,2024-06-05 20:04:09.611997
8.652461664,-0.2559222281,-4.427640915,-0.1517957002,2024-06-05 20:04:09.652462
8.692931664,0.05752258375,-1.56575942,0.5921363831,2024-06-05 20:04:09.692932
8.733399581,-0.2548570037,1.410634875,0.3937367499,2024-06-05 20:04:09.733400
8.773895519,-0.04793548584,0.09853405505,0.2316881865,2024-06-05 20:04:09.773896
8.814384894,0.2029268891,-1.411034346,-0.2037258148,2024-06-05 20:04:09.814385
8.854874685,-0.1368824393,-1.054847002,-0.4158403277,2024-06-05 20:04:09.854875
8.895374737,0.08734910935,0.04473978654,-0.1536598653,2024-06-05 20:04:09.895375
8.935798539,0.04260931909,0.5435351729,0.06125089899,2024-06-05 20:04:09.935799
8.976274789,0.2920069993,-0.3545894325,-0.1280942708,2024-06-05 20:04:09.976275
9.016787758,0.1890788674,-0.2264951766,-0.172567755,2024-06-05 20:04:10.016788
9.057268904,-0.03169068322,0.47056669,0.05512581021,2024-06-05 20:04:10.057269
9.097743487,0.2762948275,0.3627118468,-0.1336867511,2024-06-05 20:04:10.097743
9.138225571,0.02343512699,0.254058063,-0.01011971384,2024-06-05 20:04:10.138226
9.178723956,-0.07003907114,0.3880111277,0.009054481052,2024-06-05 20:04:10.178724
9.219167446,0.05832150951,0.1928071827,-0.03275591508,2024-06-05 20:04:10.219167
9.259648956,-0.01864157803,0.6090469956,-0.04181039706,2024-06-05 20:04:10.259649
9.300102289,-0.01571218669,1.128214955,0.04181039706,2024-06-05 20:04:10.300102
9.340631508,0.07696308941,0.59599787,-0.02476666868,2024-06-05 20:04:10.340632
9.381087237,0.03355484083,-0.1543256342,-0.0146469539,2024-06-05 20:04:10.381087
9.421591717,0.03488638252,-0.1652442664,-0.00798924733,2024-06-05 20:04:10.421592
9.462027706,-0.08601756394,-0.3106485903,-0.018907886,2024-06-05 20:04:10.462028
9.502573019,-0.08015878499,-0.6609770656,-0.05592473224,2024-06-05 20:04:10.502573
9.543000883,-0.1145125479,-0.8061150908,-0.0298265256,2024-06-05 20:04:10.543001
9.583526717,-0.1430075318,-0.4126446545,-0.001331541222,2024-06-05 20:04:10.583527
9.624035935,-0.1262301207,0.02649767138,0.01091863867,2024-06-05 20:04:10.624036
9.664409581,-0.05619104207,-0.04993279651,-0.05059856921,2024-06-05 20:04:10.664410
9.704894633,-0.1195724085,-0.02170412242,-0.01704372838,2024-06-05 20:04:10.704895
9.745409529,-0.06311506033,0.1041265279,0.03701684624,2024-06-05 20:04:10.745410
9.785918539,0.00186415785,-0.08481918275,-0.02503297664,2024-06-05 20:04:10.785919
9.826348435,-0.03541899845,0.04021254554,0.01944050193,2024-06-05 20:04:10.826348
9.866832185,-0.03515268862,0.211981371,-0.02370143496,2024-06-05 20:04:10.866832
9.907332394,-0.0868164897,-0.1119826213,-0.04687025398,2024-06-05 20:04:10.907332
9.947781717,-0.1400781423,-0.000133154128,-0.005326164886,2024-06-05 20:04:10.947782
9.988247029,-0.06098458916,-0.1151783243,-0.01278279629,2024-06-05 20:04:10.988247
10.0287325,0.01011971384,-0.2978657782,-0.02663082629,2024-06-05 20:04:11.028733
10.06922068,0.01438064594,-0.09973244369,0.02716344222,2024-06-05 20:04:11.069221
10.10972594,-0.04687025398,0.1243659556,0.04660394415,2024-06-05 20:04:11.109726
10.15021656,-0.02849498391,-0.0323564522,-0.01917419396,2024-06-05 20:04:11.150217
10.19071672,-0.04181039706,-0.3442034125,-0.05406057462,2024-06-05 20:04:11.190717
10.23112859,-0.0708379969,-0.4438027143,-0.04926702753,2024-06-05 20:04:11.231129
10.27163599,-0.0,-0.6447322965,-0.06977276504,2024-06-05 20:04:11.271636
10.3121562,-0.04713656008,-0.2382127345,-0.05352795869,2024-06-05 20:04:11.312156
10.35260172,-0.02849498391,0.2513949871,0.02396774292,2024-06-05 20:04:11.352602
10.39304646,0.01944050193,-0.005459319334,-0.03595161438,2024-06-05 20:04:11.393046
10.43351495,0.1278279573,-0.02596505545,-0.07509893179,2024-06-05 20:04:11.433515
10.47400771,0.5077167153,0.6597787142,-0.2985315621,2024-06-05 20:04:11.474008
10.51454026,1.288133025,0.9391360879,-0.8374063373,2024-06-05 20:04:11.514540
10.55496739,2.046179533,2.175605297,-0.5969299674,2024-06-05 20:04:11.554967
10.59551797,1.05990684,2.84044385,0.09880036116,2024-06-05 20:04:11.595518
10.63596146,0.3764267266,0.5675029159,0.3420729637,2024-06-05 20:04:11.635961
10.67642073,1.01756382,-3.776117802,-0.6091801524,2024-06-05 20:04:11.676421
10.71690015,1.374949574,-2.901295185,-0.7820141912,2024-06-05 20:04:11.716900
10.7573888,-0.5412715077,0.4532566369,0.2250304818,2024-06-05 20:04:11.757389
10.79787474,0.2986647189,-0.4070521593,0.05619104207,2024-06-05 20:04:11.797875
10.83834041,0.9078448415,-0.8077129126,-0.3435376585,2024-06-05 20:04:11.838340
10.87882937,0.8102428913,2.774133205,0.3130453527,2024-06-05 20:04:11.878829
10.91929833,-0.8579120636,3.660806417,0.6411371231,2024-06-05 20:04:11.919298
10.95975989,-0.327026546,-0.608248055,0.08894696087,2024-06-05 20:04:11.959760
11.00023745,-0.01278279629,0.6031882167,2.169080734,2024-06-05 20:04:12.000237
11.04072625,-1.015699744,1.501179695,0.7433995008,2024-06-05 20:04:12.040726
11.08121052,-0.863504529,0.7567148805,1.187202215,2024-06-05 20:04:12.081211
11.12170646,-2.222875118,1.238732815,0.7069152594,2024-06-05 20:04:12.121706
11.16219286,-1.529142022,-2.350170374,0.5647066832,2024-06-05 20:04:12.162193
11.20267698,-0.4081174135,-2.237255573,-0.03648423031,2024-06-05 20:04:12.202677
11.24313083,0.1762960702,-2.189586401,-0.8736242056,2024-06-05 20:04:12.243131
11.28362698,0.6730940938,-3.509676456,-0.8989235163,2024-06-05 20:04:12.283627
11.32413333,-0.5740274191,-3.506480694,-0.5175700784,2024-06-05 20:04:12.324133
11.36459807,1.201050282,-2.226336956,-0.1155777797,2024-06-05 20:04:12.364598
11.40504245,3.553351164,-0.02676397935,-0.9802806973,2024-06-05 20:04:12.405042
11.44554541,2.240717649,-0.04886756465,-1.173087835,2024-06-05 20:04:12.445545
11.48602807,-1.76762104,6.217498779,-1.790789843,2024-06-05 20:04:12.486028
11.526495,-2.196110964,5.357589722,-1.017031193,2024-06-05 20:04:12.526495
11.56696849,2.32087636,1.645784974,-1.389063835,2024-06-05 20:04:12.566968
11.60744734,-0.1283605844,-0.5564510822,-2.253500462,2024-06-05 20:04:12.607447
11.64793724,-1.566158891,0.1227681041,0.01225017942,2024-06-05 20:04:12.647937
11.68841224,-0.5987941027,-2.546572685,-0.2069215178,2024-06-05 20:04:12.688412
11.72887515,-0.930880487,-1.096391082,-0.01837527007,2024-06-05 20:04:12.728875
11.76936807,0.2485987544,-0.715570271,0.3673722446,2024-06-05 20:04:12.769368
11.80984875,1.442059159,-1.369223952,0.3053224087,2024-06-05 20:04:12.809849
11.85033312,-1.797181249,0.4111799598,1.160305023,2024-06-05 20:04:12.850333
11.89081505,-2.189985991,1.337932706,1.351514339,2024-06-05 20:04:12.890815
11.93128255,2.20290184,0.8467270732,-0.1267627329,2024-06-05 20:04:12.931283
11.97174015,0.7175676227,4.476242542,1.169093251,2024-06-05 20:04:12.971740
12.01224068,-0.05778888986,-1.739925027,1.028748751,2024-06-05 20:04:13.012241
12.05272635,-1.295057058,-0.9762860537,-0.4874772727,2024-06-05 20:04:13.052726
12.09320854,-1.119293571,-1.202514887,-0.7559159994,2024-06-05 20:04:13.093209
12.13368604,0.3316869438,0.4106473327,-0.6877411008,2024-06-05 20:04:13.133686
12.1741588,-1.016764879,1.098921061,0.2986647189,2024-06-05 20:04:13.174159
12.21465729,-0.7330134511,0.4319519997,-0.08415340632,2024-06-05 20:04:13.214657
12.25510729,0.05299534276,1.566691518,-0.4339492917,2024-06-05 20:04:13.255107
12.29555265,-0.2553896308,1.278279662,-0.1608501822,2024-06-05 20:04:13.295553
12.33609958,-0.00186415785,1.184672236,-0.1406107545,2024-06-05 20:04:13.336100
12.37654015,0.06790860742,-0.8886706233,-0.2047910541,2024-06-05 20:04:13.376540
12.41698791,-0.2724333405,-1.356973767,0.0181089621,2024-06-05 20:04:13.416988
12.45748828,-0.1456706226,-0.8873391151,-0.1150451675,2024-06-05 20:04:13.457488
12.49799713,0.03541899845,-1.829271436,-0.08255556226,2024-06-05 20:04:13.497997
12.53846958,-0.05885412544,-2.325137377,-0.1792254597,2024-06-05 20:04:13.538470
12.57895937,0.0117175635,-2.238054514,-0.1616491079,2024-06-05 20:04:13.578959
12.61941291,-0.02556559257,-2.297174931,-0.1198387146,2024-06-05 20:04:13.619413
12.65992531,-0.2194380015,-1.416094184,-0.1142462417,2024-06-05 20:04:13.659925
12.70039916,-0.3792229593,-0.8407351375,-0.235949114,2024-06-05 20:04:13.700399
12.74088271,-0.5479292274,-0.935274601,-0.3512606025,2024-06-05 20:04:13.740883
12.78135161,-0.3958672285,-1.461632848,-0.3705679476,2024-06-05 20:04:13.781352
12.82183239,-0.3667064607,-1.38094151,-0.307053417,2024-06-05 20:04:13.821832
12.86232442,-0.2918738425,-1.221955419,-0.1994648874,2024-06-05 20:04:13.862324
12.9028063,-0.09507204592,-0.7544512749,-0.1296921223,2024-06-05 20:04:13.902806
12.9432776,0.1669752747,-1.454176188,-0.09187635034,2024-06-05 20:04:13.943278
12.98371932,0.4344819188,-1.009308338,-0.1709699035,2024-06-05 20:04:13.983719
13.02425786,1.411167502,0.5619103909,0.1475347728,2024-06-05 20:04:14.024258
13.06472739,1.735131383,1.599979997,0.4440690279,2024-06-05 20:04:14.064727
13.1051588,1.627809167,2.796236753,0.4749607742,2024-06-05 20:04:14.105159
13.14563442,1.748180509,1.282274246,0.3332847953,2024-06-05 20:04:14.145634
13.18613218,0.7726933956,-0.374296248,0.1632469594,2024-06-05 20:04:14.186132
13.22659432,0.2512618303,-0.7219616771,0.3370130956,2024-06-05 20:04:14.226594
13.26711052,0.4259600639,-1.512497783,0.416905582,2024-06-05 20:04:14.267111
13.30758849,0.8870728016,-1.47814393,0.7609758377,2024-06-05 20:04:14.307588
13.34806172,0.8471265435,-1.419556141,0.7125077248,2024-06-05 20:04:14.348062
13.38855844,-0.2066552043,-1.169892192,0.1464695334,2024-06-05 20:04:14.388558
13.42899458,-0.8105092049,-1.355375886,-0.3206351399,2024-06-05 20:04:14.428995
13.4694764,-0.5005263686,-1.60357511,-0.7095783353,2024-06-05 20:04:14.469476
13.510035,0.4352808297,-0.7746906877,-0.037815772,2024-06-05 20:04:14.510035
13.55044104,-0.279889971,-0.1159772426,0.6304848194,2024-06-05 20:04:14.550441
13.59098182,-1.336068511,2.076005936,-0.4099815488,2024-06-05 20:04:14.590982
13.63146135,0.5702991486,1.065632463,0.151263088,2024-06-05 20:04:14.631461
13.67193661,-0.6352783442,0.5299534202,-0.233286038,2024-06-05 20:04:14.671937
13.71238375,-0.7820141912,0.1123820841,-0.4789553881,2024-06-05 20:04:14.712384
13.75284583,0.1776276082,-2.204233408,-0.263112545,2024-06-05 20:04:14.752846
13.7934012,-0.3728315532,-2.713547945,0.3157084286,2024-06-05 20:04:14.793401
13.83381677,-1.433004737,0.2644441128,1.01463449,2024-06-05 20:04:14.833817
13.87434328,-0.8222267628,3.644561529,0.8633713722,2024-06-05 20:04:14.874343
13.91478468,-0.03382114694,3.116206169,1.196522951,2024-06-05 20:04:14.914785
13.95526161,-0.5569837093,1.829804063,0.342605561,2024-06-05 20:04:14.955262
13.99573854,-1.236735582,0.7114425302,0.1786928326,2024-06-05 20:04:14.995739
14.03621666,0.2501966059,0.6730940938,-0.1398118287,2024-06-05 20:04:15.036217
14.07669713,-0.1880136281,0.2308892608,0.009587096982,2024-06-05 20:04:15.076697
14.11715635,-0.3041240275,-0.3644428551,-0.3312874734,2024-06-05 20:04:15.117156
14.15763364,-0.2513949871,-0.3356815577,-0.4259600639,2024-06-05 20:04:15.157634
14.19815411,-0.566837132,1.14046514,-0.484814167,2024-06-05 20:04:15.198154
14.23861125,0.01091863867,0.7159697413,-0.3793561161,2024-06-05 20:04:15.238611
14.27908218,-0.2537917793,-0.4461994767,-0.5828156471,2024-06-05 20:04:15.279082
14.3195564,-0.4278241992,-0.2920069993,-0.5508586168,2024-06-05 20:04:15.319556
14.36004151,-0.2263620198,-0.1439396143,-0.3416734934,2024-06-05 20:04:15.360042
14.40052734,-0.1752308309,-0.6652380228,-0.1424749196,2024-06-05 20:04:15.400527
14.44103786,0.6451317668,-0.9406007528,0.003462007269,2024-06-05 20:04:15.441038
14.48150146,1.452844739,-1.3913275,0.4398080707,2024-06-05 20:04:15.481501
14.52199208,2.030733585,0.3523258269,0.8451292515,2024-06-05 20:04:15.521992
14.56243948,2.091851234,3.880910158,0.056723658,2024-06-05 20:04:15.562439
14.60292844,1.593721747,1.129546523,-0.2471340597,2024-06-05 20:04:15.602928
14.64341291,1.196256638,-0.4762923121,0.2026605755,2024-06-05 20:04:15.643413
14.68389354,0.826753974,-0.4850804806,1.139266729,2024-06-05 20:04:15.683894
14.72439651,0.9323452115,-1.764425397,0.5418041348,2024-06-05 20:04:15.724397
14.76482802,0.865501821,-1.858831644,0.08521863818,2024-06-05 20:04:15.764828
14.8053051,-0.0822892487,-1.306907773,-0.1432738453,2024-06-05 20:04:15.805305
14.84583489,-1.215430856,-0.8726921678,-0.6302185059,2024-06-05 20:04:15.845835
14.88629286,-0.4552539587,-1.508236766,-1.056444883,2024-06-05 20:04:15.886293
14.92675349,1.219425559,-1.026618361,-0.1890788674,2024-06-05 20:04:15.926753
14.96722583,-0.7170349956,0.04687025398,0.2322207987,2024-06-05 20:04:15.967226
15.00770099,-0.7724270821,2.197975159,-1.141929746,2024-06-05 20:04:16.007701
15.04818094,-0.2849498391,2.107430458,-0.07243584841,2024-06-05 20:04:16.048181
15.08867422,-1.780137539,-1.810363531,-0.1898777932,2024-06-05 20:04:16.088674
15.12915765,-0.3568530679,-4.057339668,-0.6983934045,2024-06-05 20:04:16.129158
15.16963474,0.6635070443,-3.534176826,-1.170691133,2024-06-05 20:04:16.169635
15.21011604,-1.051917553,-0.5007926822,0.6853442788,2024-06-05 20:04:16.210116
15.25058531,-2.52726531,3.626186371,1.478410244,2024-06-05 20:04:16.250585
15.29109255,-2.223940134,2.547504663,0.5745600462,2024-06-05 20:04:16.291093
15.33155265,-0.2785584331,1.293725491,-0.08495233208,2024-06-05 20:04:16.331553
15.3720313,-0.7015891075,-1.2235533,-0.09720251709,2024-06-05 20:04:16.372031
15.41251776,-0.9010539651,-0.6849448085,-0.2194380015,2024-06-05 20:04:16.412518
15.45298724,0.01517957076,1.625545621,0.09214265645,2024-06-05 20:04:16.452987
15.49350698,0.4195686579,-0.1266295761,0.1912093312,2024-06-05 20:04:16.493507
15.53398703,0.2576532364,-0.1924077123,0.6893389225,2024-06-05 20:04:16.533987
15.57443364,2.493177891,0.4772244096,1.02794981,2024-06-05 20:04:16.574434
15.61487484,3.027259111,-0.06644391268,0.8604419827,2024-06-05 20:04:16.614875
15.65537219,1.483203888,1.684666038,-0.3750951886,2024-06-05 20:04:16.655372
15.69582484,1.599314213,4.40620327,0.363910228,2024-06-05 20:04:16.695825
15.7363864,0.8126396537,-0.1444722265,0.8339443207,2024-06-05 20:04:16.736386
15.77683396,0.3868127465,-1.340995193,0.6533873081,2024-06-05 20:04:16.776834
15.81731083,0.3276923001,-1.752441525,0.4099815488,2024-06-05 20:04:16.817311
15.85780443,0.06657706201,-1.782268047,0.09560466558,2024-06-05 20:04:16.857804
15.89826818,0.03488638252,-1.202514887,-0.3908073604,2024-06-05 20:04:16.898268
15.93872547,-0.3669727743,-1.160305023,-0.5868102312,2024-06-05 20:04:16.938725
15.97920359,0.03408745676,-2.625399828,-0.7423342466,2024-06-05 20:04:16.979204
16.01971953,1.390395403,-1.22648263,0.2637783289,2024-06-05 20:04:17.019720
16.06017614,-0.4978632927,0.1438064575,0.06364767253,2024-06-05 20:04:17.060176
16.10072354,-1.203713298,0.7945306897,0.117974557,2024-06-05 20:04:17.100724
16.14114802,-1.214099288,-1.022091031,-0.3344831765,2024-06-05 20:04:17.141148
16.18164541,-0.3860138059,-0.1018629074,-1.103048801,2024-06-05 20:04:17.181645
16.22210458,-0.628354311,2.229665756,-0.04260931909,2024-06-05 20:04:17.222105
16.26258427,-1.273752332,-0.1298252791,0.09374050796,2024-06-05 20:04:17.262584
16.30310297,-0.6065170765,-2.814212561,-0.228758797,2024-06-05 20:04:17.303103
16.34353948,-1.064966679,-1.820483208,0.06284874678,2024-06-05 20:04:17.343539
16.38401838,-1.364829779,0.01185071748,0.6624417901,2024-06-05 20:04:17.384018
16.42444333,-0.7955959439,1.608768225,0.5513912439,2024-06-05 20:04:17.424443
16.46501682,-0.5963973403,2.564015865,0.3753614724,2024-06-05 20:04:17.465017
16.50547448,-1.086005092,2.107430458,-0.02556559257,2024-06-05 20:04:17.505474
16.54597172,-1.742854357,1.131676912,-0.05938674137,2024-06-05 20:04:17.545972
16.58646041,0.2709686458,1.544854164,-0.0599193573,2024-06-05 20:04:17.586460
16.62688224,0.7556496859,-0.04860125855,0.1419423074,2024-06-05 20:04:17.626882
16.66739198,0.4826837182,-0.6854774356,0.4214328229,2024-06-05 20:04:17.667392
16.7078789,0.1922745556,1.811961412,0.8259550333,2024-06-05 20:04:17.707879
16.74832844,2.986513853,2.841775417,1.086804032,2024-06-05 20:04:17.748328
16.78883432,2.100373268,1.439662457,0.002396774245,2024-06-05 20:04:17.788834
16.82931083,1.176283598,3.230718613,-0.6792191863,2024-06-05 20:04:17.829311
16.86975687,0.8708279729,2.835916519,0.386546433,2024-06-05 20:04:17.869757
16.91025088,-0.09826774895,-0.2515281439,0.6789528728,2024-06-05 20:04:17.910251
16.9507139,-0.1256974936,-0.3359478712,0.5612446666,2024-06-05 20:04:17.950714
16.99121568,-0.4592485726,-0.8561810255,0.1187734827,2024-06-05 20:04:17.991216
17.03167432,-0.5676360726,-0.5665708184,-0.211981371,2024-06-05 20:04:18.031674
17.07218078,-0.573228538,-0.9464595318,-0.5101134777,2024-06-05 20:04:18.072181
17.11266333,-0.01651111245,-2.717010021,-0.5516575575,2024-06-05 20:04:18.112663
17.15313765,0.4062532485,-1.921946645,-0.05698996782,2024-06-05 20:04:18.153138
17.19364078,0.1137136221,1.163900256,0.4030575454,2024-06-05 20:04:18.193641
17.23408041,-0.7830794454,0.1848179251,0.6459306479,2024-06-05 20:04:18.234080
17.27464458,-0.4211665094,-1.556172252,-0.0298265256,2024-06-05 20:04:18.274645
17.31502713,0.5268908739,-2.894903898,-0.7239589691,2024-06-05 20:04:18.315027
17.3555314,1.070026517,-1.866021991,-0.492537111,2024-06-05 20:04:18.355531
17.39601318,-0.2215684652,-2.414483786,-0.2388785034,2024-06-05 20:04:18.396013
17.43648422,-1.111304402,-1.533003449,0.1147788614,2024-06-05 20:04:18.436484
17.47698125,-0.8310149312,-0.4901403487,0.4706998467,2024-06-05 20:04:18.476981
17.51748015,-0.1944050342,-0.1215697154,0.1027949899,2024-06-05 20:04:18.517480
17.55793073,-0.03914731368,0.3001294136,-0.02636451647,2024-06-05 20:04:18.557931
17.59840182,-0.3014609516,0.3536573648,0.02050573565,2024-06-05 20:04:18.598402
17.63888265,-0.1912093312,0.1595186442,-0.01411433797,2024-06-05 20:04:18.638883
17.67938271,0.056723658,0.3683043122,-0.07536523789,2024-06-05 20:04:18.679383
17.71985114,-0.07935985923,0.572030127,-0.0,2024-06-05 20:04:18.719851
17.76031745,-0.0490007177,0.574693203,0.08814803511,2024-06-05 20:04:18.760317
17.80080234,-0.003195699072,0.3589835167,0.01597849466,2024-06-05 20:04:18.800802
17.84128218,0.1065233052,0.6728277802,-0.0713706091,2024-06-05 20:04:18.841282
17.88176604,0.1818885356,0.6422023773,-0.04846810177,2024-06-05 20:04:18.881766
17.92224427,0.07456631213,0.168040514,-0.06471290439,2024-06-05 20:04:18.922244
17.96272146,0.1339530498,0.2077204436,-0.1549914032,2024-06-05 20:04:18.962721
18.00319718,0.1960028708,0.4050548673,-0.1802906841,2024-06-05 20:04:19.003197
18.04369307,0.1773612946,0.6928009391,-0.1291595101,2024-06-05 20:04:19.043693
18.08422062,0.003462007269,0.6717625856,-0.018907886,2024-06-05 20:04:19.084221
18.12466687,0.1699046642,0.6159709692,0.07350108027,2024-06-05 20:04:19.124667
18.165085,0.6291532516,0.762573719,-0.02157096937,2024-06-05 20:04:19.165085
18.20559687,0.4430037737,0.5981283188,0.09720251709,2024-06-05 20:04:19.205597
18.2460587,0.5042546988,0.4037233293,0.1520620137,2024-06-05 20:04:19.246059
18.28655427,0.6302185059,0.5017247796,0.2274272442,2024-06-05 20:04:19.286554
18.32702422,0.5215647221,0.7681661844,0.4379439354,2024-06-05 20:04:19.327024
18.36751896,0.5356790423,0.2617810071,0.2920069993,2024-06-05 20:04:19.367519
18.40800552,0.4017260075,0.3741630912,-0.03169068322,2024-06-05 20:04:19.408006
18.4484651,0.1810896099,0.4122451842,-0.05938674137,2024-06-05 20:04:19.448465
18.48898505,-0.01251648832,0.1840189993,-0.1379476786,2024-06-05 20:04:19.488985
18.52944172,0.1264964193,0.4007939398,-0.1368824393,2024-06-05 20:04:19.529442
18.56990958,0.128626883,0.8089113235,-0.1430075318,2024-06-05 20:04:19.569910
18.61039489,0.08282186836,0.4484631121,-0.05565842614,2024-06-05 20:04:19.610395
18.65088041,-0.2021279633,0.2596505582,-0.002130466048,2024-06-05 20:04:19.650880
18.69136193,-0.6025224328,-0.09946613014,-0.1123820841,2024-06-05 20:04:19.691362
18.7318439,-0.7359428406,-0.354855746,-0.1581871063,2024-06-05 20:04:19.731844
18.77235838,-0.2183727771,-0.1905435622,-0.3398093283,2024-06-05 20:04:19.772358
18.81283198,0.1158440933,0.5858781338,-0.09533835202,2024-06-05 20:04:19.812832
18.85328396,-0.3985303044,0.04314193875,-0.05512581021,2024-06-05 20:04:19.853284
18.89380271,-0.6427350044,-0.2741643488,0.005858781748,2024-06-05 20:04:19.893803
18.93425692,-0.1246322617,0.2199706137,-0.0519301109,2024-06-05 20:04:19.934257
18.97477932,0.01304910425,0.5973294377,-0.0410114713,2024-06-05 20:04:19.974779
19.01526646,-0.08655018359,0.4125114977,0.0149132628,2024-06-05 20:04:20.015266
19.05564765,-0.1672415882,-0.01105179265,-0.03621792421,2024-06-05 20:04:20.055648
19.0961914,0.01544587873,-0.250729233,-0.09374050796,2024-06-05 20:04:20.096191
19.13660411,-0.05006595328,0.08761541545,-0.05752258375,2024-06-05 20:04:20.136604
19.1771451,-0.08015878499,0.1619154215,-0.06311506033,2024-06-05 20:04:20.177145
19.21757021,0.05485950038,0.354189992,-0.009587096982,2024-06-05 20:04:20.217570
19.25808364,-0.01411433797,0.5161054134,0.07403369248,2024-06-05 20:04:20.258084
19.29852739,-0.008255556226,0.09533835202,0.002396774245,2024-06-05 20:04:20.298527
19.33900859,0.02716344222,0.1962691844,-0.0330222249,2024-06-05 20:04:20.339009
19.3795239,0.001331541222,0.3813534081,-0.01677742042,2024-06-05 20:04:20.379524
19.41993151,0.001597849536,0.2724333405,-0.04287562892,2024-06-05 20:04:20.419932
19.46044078,-0.000266308256,0.544334054,0.005326164886,2024-06-05 20:04:20.460441
19.50097755,-0.002663082443,0.491871357,0.008521864191,2024-06-05 20:04:20.500978
19.54143208,0.02822867595,0.3262276053,-0.02663082629,2024-06-05 20:04:20.541432
19.58189703,0.02636451647,0.3480648994,-0.002130466048,2024-06-05 20:04:20.581897
19.62245114,0.03648423031,0.235949114,0.003195699072,2024-06-05 20:04:20.622451
19.66281734,0.002929390874,0.2551233172,-0.01837527007,2024-06-05 20:04:20.662817
19.70334979,-0.01411433797,0.3400756419,-0.03595161438,2024-06-05 20:04:20.703350
19.74386791,-0.01358172111,0.164844811,-0.03328853101,2024-06-05 20:04:20.743868
19.78431942,0.0007989247679,0.04527240247,-0.03914731368,2024-06-05 20:04:20.784319
19.82482786,-0.03169068322,-0.006524552125,-0.03089175746,2024-06-05 20:04:20.824828
19.86530568,-0.01677742042,-0.1346188188,-0.02716344222,2024-06-05 20:04:20.865306
19.90575297,0.008255556226,-0.2280930281,-0.01944050193,2024-06-05 20:04:20.905753
19.94620724,0.006657706574,-0.3551220596,-0.02370143496,2024-06-05 20:04:20.946207
19.98667573,0.0074566314,-0.4139761925,-0.01731003635,2024-06-05 20:04:20.986676
20.02716276,0.0117175635,-0.5146406889,-0.01970681176,2024-06-05 20:04:21.027163
20.06764354,0.006125089712,-0.5503259897,-0.005858781748,2024-06-05 20:04:21.067644
20.10814594,0.02476666868,-0.4267589748,-0.006657706574,2024-06-05 20:04:21.108146
20.14860703,0.02583190054,-0.1846847683,0.02316881903,2024-06-05 20:04:21.148607
20.18911568,0.005326164886,-0.2672403455,0.000266308256,2024-06-05 20:04:21.189116
20.22956682,0.01118494663,-0.2720338702,-0.01731003635,2024-06-05 20:04:21.229567
20.27004942,-0.04181039706,-0.0845528692,-0.02503297664,2024-06-05 20:04:21.270049
20.31053541,-0.05912043154,0.05698996782,-0.01038602181,2024-06-05 20:04:21.310535
20.35102995,-0.02343512699,0.1254311949,-0.009853405878,2024-06-05 20:04:21.351030
20.39147568,-0.04340824485,0.1307573467,-0.02636451647,2024-06-05 20:04:21.391476
20.43201719,-0.02077204362,0.1933397949,-0.0458050184,2024-06-05 20:04:21.432017
20.47242396,-0.04420717061,0.2916075289,-0.02130465955,2024-06-05 20:04:21.472424
20.51297328,-0.03994623944,0.1131810099,-0.03408745676,2024-06-05 20:04:21.512973
20.5533887,-0.04420717061,0.2242315561,-0.0260982085,2024-06-05 20:04:21.553389
20.59394588,-0.02183727734,0.1629806459,-0.02343512699,2024-06-05 20:04:21.593946
20.63442344,-0.02263620123,0.0820229426,-0.01011971384,2024-06-05 20:04:21.634423
20.67481114,-0.002663082443,0.14993155,-0.01997311972,2024-06-05 20:04:21.674811
20.71538885,-0.01038602181,0.1627143472,-0.02689713426,2024-06-05 20:04:21.715389
20.75582458,0.01038602181,0.08921326697,-0.02956021577,2024-06-05 20:04:21.755825
20.79624672,-0.03914731368,0.1283605844,-0.02103835158,2024-06-05 20:04:21.796247
20.83676104,-0.0260982085,0.04633763805,-0.01278279629,2024-06-05 20:04:21.836761
20.87723489,-0.037815772,-0.003861469682,0.008521864191,2024-06-05 20:04:21.877235
20.91771713,-0.004527240526,-0.08322133124,0.01597849466,2024-06-05 20:04:21.917717
20.95818229,0.01731003635,-0.1543256342,0.01731003635,2024-06-05 20:04:21.958182
20.99867083,0.02503297664,-0.05659050494,0.0260982085,2024-06-05 20:04:21.998671
21.03919052,-0.006924014539,-0.1252980381,0.03062544949,2024-06-05 20:04:22.039191
21.07969062,0.01384802908,-0.07017222792,0.02023942769,2024-06-05 20:04:22.079691
21.12016,0.01358172111,-0.01105179265,0.02183727734,2024-06-05 20:04:22.120160
21.16059854,0.009587096982,0.0243672058,0.01278279629,2024-06-05 20:04:22.160599
21.20108776,-0.0037283157,0.05113118514,0.01517957076,2024-06-05 20:04:22.201088
21.2415501,0.01198387146,0.06258244067,0.006391398143,2024-06-05 20:04:22.241550
21.28204656,0.006391398143,0.06524552405,0.02236989327,2024-06-05 20:04:22.282047
21.32253687,0.02556559257,0.03888100386,0.02236989327,2024-06-05 20:04:22.322537
21.36302989,0.03035914153,0.08388710022,0.01757634431,2024-06-05 20:04:22.363030
21.40348146,0.008788172156,0.04127778113,0.0229025092,2024-06-05 20:04:22.403481
21.44391015,0.02956021577,0.07536523789,0.02529928461,2024-06-05 20:04:22.443910
21.48442411,0.018907886,0.06364767253,0.04527240247,2024-06-05 20:04:22.484424
21.52494687,0.052196417,0.06364767253,0.04500609636,2024-06-05 20:04:22.524947
21.56545297,0.05086487532,0.08042509109,0.04607132822,2024-06-05 20:04:22.565453
21.60591161,0.04234301299,0.05698996782,0.04979964346,2024-06-05 20:04:22.605912
21.64635187,0.03941362351,0.04047885537,0.04926702753,2024-06-05 20:04:22.646352
21.68685021,0.03355484083,0.02649767138,0.04260931909,2024-06-05 20:04:22.686850
21.7273213,0.009054481052,0.05725627393,0.04713656008,2024-06-05 20:04:22.727321
21.76780166,0.03009283356,0.04021254554,0.02157096937,2024-06-05 20:04:22.767802
21.80827885,0.02050573565,0.1432738453,0.02316881903,2024-06-05 20:04:22.808279
21.84875479,0.0229025092,0.142208606,0.03728315607,2024-06-05 20:04:22.848755
21.88924479,0.02263620123,0.1102516204,0.05858781561,2024-06-05 20:04:22.889245
21.92971109,0.04500609636,0.1091863886,0.05246272683,2024-06-05 20:04:22.929711
21.97017937,0.04473978654,0.09693620354,0.05805519968,2024-06-05 20:04:22.970179
22.01067312,0.05033225939,0.07216953486,0.06977276504,2024-06-05 20:04:23.010673
22.05116193,0.05698996782,-0.02596505545,0.06524552405,2024-06-05 20:04:23.051162
22.09165614,0.0487344116,0.04367455468,0.06657706201,2024-06-05 20:04:23.091656
22.13212172,0.06151720881,-0.006790860556,0.05539211631,2024-06-05 20:04:23.132122
22.17259114,0.05432688445,0.009453942999,0.05858781561,2024-06-05 20:04:23.172591
22.21307083,0.03595161438,0.01051917579,0.05805519968,2024-06-05 20:04:23.213071
22.25354588,0.05565842614,-0.05312849581,0.03062544949,2024-06-05 20:04:23.253546
22.29406041,0.009853405878,0.02516612969,0.02689713426,2024-06-05 20:04:23.294060
22.33452979,-0.003462007269,0.06125089899,0.03169068322,2024-06-05 20:04:23.334530
22.374995,0.052196417,0.2159759998,-0.06604444981,2024-06-05 20:04:23.374995
22.41547458,0.01837527007,0.5065183043,-0.2026605755,2024-06-05 20:04:23.415475
22.4559987,0.1986659616,0.7207632661,-0.211981371,2024-06-05 20:04:23.455999
22.49647786,0.4579170346,0.7607095242,-0.204258427,2024-06-05 20:04:23.496478
22.53692104,0.5303528905,0.9247553945,-0.1099853069,2024-06-05 20:04:23.536921
22.57738807,0.1078548431,0.3214340508,-0.04127778113,2024-06-05 20:04:23.577388
22.61787442,0.230756104,-0.9310136437,-0.2537917793,2024-06-05 20:04:23.617874
22.65835271,0.1209039465,-0.9480574131,-0.3724320829,2024-06-05 20:04:23.658353
22.69882229,-0.2564548552,-0.8878717422,-0.2969337106,2024-06-05 20:04:23.698822
22.73932818,-0.31024912,-1.18946588,-0.3782908916,2024-06-05 20:04:23.739328
22.77977818,-0.4946675897,-1.052716494,-0.3073197305,2024-06-05 20:04:23.779778
22.8202851,-0.6845453978,-0.7115756869,-0.2769605815,2024-06-05 20:04:23.820285
22.86075734,-0.6573819518,-0.4411396384,-0.2037258148,2024-06-05 20:04:23.860757
22.90125349,-0.6451317668,-0.1327546686,0.008521864191,2024-06-05 20:04:23.901253
22.94169385,-0.8549826741,0.08734910935,0.08441971987,2024-06-05 20:04:23.941694
22.98217625,-0.747127831,-0.04007939249,0.04021254554,2024-06-05 20:04:23.982176
23.02268479,-0.6491263509,-0.1806901544,0.02077204362,2024-06-05 20:04:24.022685
23.06313578,-0.6083812118,0.2202369273,0.04181039706,2024-06-05 20:04:24.063136
23.10363687,-0.3921388984,0.6523220539,-0.2354165018,2024-06-05 20:04:24.103637
23.14417015,0.2331528813,0.1744319052,-0.3507279754,2024-06-05 20:04:24.144170
23.18465041,-0.112115778,-1.379343629,-0.1581871063,2024-06-05 20:04:24.184650
23.22502568,-0.3448691964,-1.491193056,-0.1736329794,2024-06-05 20:04:24.225026
23.26558875,-0.3387441039,-0.6426018476,0.1818885356,2024-06-05 20:04:24.265589
23.30607568,-0.2159759998,-0.1396786869,0.2491313666,2024-06-05 20:04:24.306076
23.34650422,0.02130465955,-0.2153102309,0.2675066292,2024-06-05 20:04:24.346504
23.38700896,-0.2569874525,0.3137111366,0.02130465955,2024-06-05 20:04:24.387009
23.42745109,-0.1291595101,0.9742887616,-0.0458050184,2024-06-05 20:04:24.427451
23.46797229,0.1797580719,0.9125052094,0.1302247345,2024-06-05 20:04:24.467972
23.50843,0.09320788831,0.1624480337,0.02876129188,2024-06-05 20:04:24.508430
23.54890015,-0.07216953486,-0.4770912528,-0.1035939083,2024-06-05 20:04:24.548900
23.58939729,-0.3336842358,-0.7701634765,-0.1049254537,2024-06-05 20:04:24.589397
23.62984021,-0.3733641803,0.02489982173,-0.03222329915,2024-06-05 20:04:24.629840
23.67036942,-0.05459319428,0.656050384,0.006657706574,2024-06-05 20:04:24.670369
23.71082666,0.1169093251,0.6925346255,0.09746882319,2024-06-05 20:04:24.710827
23.75132021,0.03408745676,-0.1846847683,0.122501798,2024-06-05 20:04:24.751320
23.79177651,0.04074516147,-0.6436670423,0.02663082629,2024-06-05 20:04:24.791777
23.83228088,0.1661763489,-0.04620448127,0.005592473317,2024-06-05 20:04:24.832281
23.87275818,0.1371487528,0.3288906813,0.06817491353,2024-06-05 20:04:24.872758
23.9132113,0.08362079412,0.06045197323,0.07829462737,2024-06-05 20:04:24.913211
23.95370479,0.02876129188,-0.01824211515,0.1312899739,2024-06-05 20:04:24.953705
23.99415432,0.1605838835,-0.3191704452,0.005059856921,2024-06-05 20:04:24.994154
24.03465547,-0.04766917601,-0.229424566,-0.03009283356,2024-06-05 20:04:25.034655
24.07510271,-0.09453943372,0.1677742004,0.01944050193,2024-06-05 20:04:25.075103
24.11561536,0.01331541315,-0.08375394344,-0.005059856921,2024-06-05 20:04:25.115615
24.15607135,0.003462007269,-0.4563191831,-0.03648423031,2024-06-05 20:04:25.156071
24.19658182,-0.04314193875,-0.1159772426,0.01837527007,2024-06-05 20:04:25.196582
24.23705229,-0.02450035885,-0.04700340703,0.02343512699,2024-06-05 20:04:25.237052
24.27754192,-0.000266308256,-0.3117138147,-0.01704372838,2024-06-05 20:04:25.277542
24.31800135,0.02902759984,-0.382019192,-0.03115806542,2024-06-05 20:04:25.318001
24.35849177,0.0181089621,-0.2797568142,0.005858781748,2024-06-05 20:04:25.358492
24.39897984,0.002663082443,-0.15512456,0.03728315607,2024-06-05 20:04:25.398980
24.43948479,-0.00186415785,-0.09334104508,0.03515268862,2024-06-05 20:04:25.439485
24.47993932,0.03195698932,-0.1375482082,-0.0005326165119,2024-06-05 20:04:25.479939
24.52044812,0.02450035885,-0.1724345982,-0.02316881903,2024-06-05 20:04:25.520448
24.56092041,-0.02929390781,-0.0432750918,-0.006391398143,2024-06-05 20:04:25.560920
24.60139125,-0.02556559257,-0.007057168987,-0.001065233024,2024-06-05 20:04:25.601391
24.64188057,-0.04207670316,0.01078548469,0.01091863867,2024-06-05 20:04:25.641881
24.68236276,0.02396774292,0.06071828306,-0.006391398143,2024-06-05 20:04:25.682363
24.72282057,-0.02902759984,0.1784265339,0.02556559257,2024-06-05 20:04:25.722821
24.76332255,-0.01198387146,0.1177082509,0.006924014539,2024-06-05 20:04:25.763323
24.80383771,-0.07323476672,0.05752258375,0.000266308256,2024-06-05 20:04:25.803838
24.84432495,-0.0708379969,0.2247641683,0.02396774292,2024-06-05 20:04:25.844325
24.88479104,-0.04367455468,0.1352845877,0.02236989327,2024-06-05 20:04:25.884791
24.92522474,-0.008788172156,-0.028361829,0.004793548491,2024-06-05 20:04:25.925225
24.96570135,0.0260982085,0.004394086078,0.01677742042,2024-06-05 20:04:25.965701
25.00620557,0.02742975019,-0.07443315536,0.01065232977,2024-06-05 20:04:26.006206
25.04664916,-0.008788172156,-0.1194392517,0.004793548491,2024-06-05 20:04:26.046649
25.08713693,-0.0149132628,0.03861469775,0.02423405088,2024-06-05 20:04:26.087137
25.12761135,-0.000266308256,-0.04513924941,0.007722939365,2024-06-05 20:04:26.127611
25.1680826,-0.03142437339,-0.1327546686,-0.006657706574,2024-06-05 20:04:26.168083
25.2085776,0.0458050184,0.133154124,0.01704372838,2024-06-05 20:04:26.208578
25.24905995,0.004793548491,-0.04034570232,0.01784265228,2024-06-05 20:04:26.249060
25.28951505,-0.04207670316,0.0487344116,0.02529928461,2024-06-05 20:04:26.289515
25.33000224,-0.03754946589,0.2319544852,0.02876129188,2024-06-05 20:04:26.330002
25.37049458,-0.005858781748,0.02250304818,-0.0146469539,2024-06-05 20:04:26.370495
25.41097453,-0.02103835158,-0.1572550237,-0.01864157803,2024-06-05 20:04:26.410975
25.45145552,-0.02742975019,0.1294258088,0.03195698932,2024-06-05 20:04:26.451456
25.49193854,0.0458050184,-0.01344856713,0.003195699072,2024-06-05 20:04:26.491939
25.53242677,-0.02742975019,-0.084020257,0.02183727734,2024-06-05 20:04:26.532427
25.57289823,-0.0229025092,0.1581871063,0.02503297664,2024-06-05 20:04:26.572898
25.61337094,-0.01997311972,0.07483261824,-0.004793548491,2024-06-05 20:04:26.613371
25.65381094,-0.001597849536,-0.2422073632,-0.03541899845,2024-06-05 20:04:26.653811
25.69435411,-0.06631075591,0.1046591476,0.03834838793,2024-06-05 20:04:26.694354
25.73482281,0.04074516147,0.09587097168,0.0037283157,2024-06-05 20:04:26.734823
25.775295,0.0149132628,-0.1881467849,-0.01917419396,2024-06-05 20:04:26.775295
25.81579515,0.01970681176,-0.01983996481,-0.004527240526,2024-06-05 20:04:26.815795
25.85629375,-0.05406057462,0.2452699095,0.03754946589,2024-06-05 20:04:26.856294
25.89672896,-0.0037283157,-0.09706936032,-0.03115806542,2024-06-05 20:04:26.896729
25.93717448,-0.01065232977,-0.1282274276,-0.0146469539,2024-06-05 20:04:26.937174
25.97767239,0.02956021577,0.1086537689,0.007190322969,2024-06-05 20:04:26.977672
26.0181662,-0.03568530455,-0.04753602296,0.0007989247679,2024-06-05 20:04:27.018166
26.05864312,0.05832150951,-0.000932078925,-0.0005326165119,2024-06-05 20:04:27.058643
26.09910755,-0.02023942769,-0.005725627299,0.01065232977,2024-06-05 20:04:27.099108
26.13958406,-0.02050573565,0.1517957002,0.02316881903,2024-06-05 20:04:27.139584
26.18006338,0.02343512699,-0.1724345982,-0.03728315607,2024-06-05 20:04:27.180063
26.22055568,-0.001065233024,-0.2493976802,-0.01358172111,2024-06-05 20:04:27.220556
26.26103114,0.0458050184,-0.07416684926,-0.003462007269,2024-06-05 20:04:27.261031
26.30157375,-0.01837527007,-0.06431344151,0.0221035853,2024-06-05 20:04:27.301574
26.3419913,0.0330222249,0.137681365,0.06444659829,2024-06-05 20:04:27.341991
26.38249166,-0.03009283356,0.177094996,0.08255556226,2024-06-05 20:04:27.382492
26.42290234,-0.02077204362,0.2053236663,0.08149032295,2024-06-05 20:04:27.422902
26.46342771,-0.07003907114,0.06151720881,0.07456631213,2024-06-05 20:04:27.463428
26.50395219,-0.06018566713,0.2199706137,0.1222354919,2024-06-05 20:04:27.503952
26.54447536,0.06204982474,0.1717688292,0.06577813625,2024-06-05 20:04:27.544475
26.58486088,0.03621792421,0.005725627299,0.08362079412,2024-06-05 20:04:27.584861
26.62532963,-0.056723658,0.1560566425,0.1078548431,2024-06-05 20:04:27.625330
26.66581484,-0.06577813625,0.4212996662,0.1129147038,2024-06-05 20:04:27.665815
26.70630229,-0.230090335,0.5584484339,0.1483336985,2024-06-05 20:04:27.706302
26.74678213,-0.2141118348,0.6330147386,0.2066552043,2024-06-05 20:04:27.746782
26.78730333,-0.06497921795,0.3890763521,0.1720351279,2024-06-05 20:04:27.787303
26.82776609,-0.1091863886,0.243672058,0.1691057384,2024-06-05 20:04:27.827766
26.86824291,-0.1656437367,0.4468652606,0.1102516204,2024-06-05 20:04:27.868243
26.90872823,-0.2053236663,0.704518497,0.08708280325,2024-06-05 20:04:27.908728
26.94918161,-0.3014609516,0.4932028949,0.007722939365,2024-06-05 20:04:27.949182
26.9896589,-0.2806889117,0.3382114768,-0.01358172111,2024-06-05 20:04:27.989659
27.0301525,-0.2061225921,0.692268312,0.05565842614,2024-06-05 20:04:28.030152
27.07063578,-0.263112545,0.9324783683,0.07909355313,2024-06-05 20:04:28.070636
27.11114666,-0.4315525293,0.8065145612,0.03568530455,2024-06-05 20:04:28.111147
27.15160245,-0.4669715166,0.9449948668,0.01011971384,2024-06-05 20:04:28.151602
27.19211015,-0.3459344208,1.070425987,-0.01517957076,2024-06-05 20:04:28.192110
27.23253562,-0.5138418078,0.8573794365,0.03914731368,2024-06-05 20:04:28.232536
27.27304578,-0.6009245515,0.6306179762,0.07350108027,2024-06-05 20:04:28.273046
27.3135287,-0.4267589748,0.5781552196,0.2157096863,2024-06-05 20:04:28.313529
27.35403859,-0.3190372884,0.3781577349,0.5234288573,2024-06-05 20:04:28.354039
27.39450213,-0.254058063,0.3691032529,0.5292876363,2024-06-05 20:04:28.394502
27.43500495,-0.1126483902,1.140731454,0.1462032348,2024-06-05 20:04:28.435005
27.47537349,0.6371424794,1.773080349,0.1102516204,2024-06-05 20:04:28.475373
27.51585583,0.9208939672,1.24432528,0.1046591476,2024-06-05 20:04:28.515856
27.55639276,1.516226053,1.372286439,0.1171756312,2024-06-05 20:04:28.556393
27.59687521,1.912492752,2.48199296,0.07563154399,2024-06-05 20:04:28.596875
27.63735307,1.737528205,3.001027822,0.1496652365,2024-06-05 20:04:28.637353
27.67784916,0.935274601,2.445641756,0.177094996,2024-06-05 20:04:28.677849
27.71832713,0.7212958932,0.8089113235,0.1398118287,2024-06-05 20:04:28.718327
27.75879687,0.9600412846,-0.2677729428,-0.190676704,2024-06-05 20:04:28.758797
27.79927557,0.5026568174,-0.1178414002,-0.237813279,2024-06-05 20:04:28.799276
27.83975005,0.3215672076,-0.4251611233,-0.4752270877,2024-06-05 20:04:28.839750
27.88024036,0.3058550358,-0.8625724316,-0.6712299585,2024-06-05 20:04:28.880240
27.92069771,-0.06071828306,-1.177615166,-0.4038564563,2024-06-05 20:04:28.920698
27.96116161,-0.5492607951,-1.088135481,-0.14993155,2024-06-05 20:04:28.961162
28.00164849,-0.5340812206,-0.8897358775,0.1584534049,2024-06-05 20:04:29.001648
28.04213448,-0.162181735,0.3291569948,0.3194367588,2024-06-05 20:04:29.042134
28.08262172,0.06311506033,0.9260869622,0.3215672076,2024-06-05 20:04:29.082622
28.12310802,-0.3201025128,0.1983996481,0.2175738513,2024-06-05 20:04:29.123108
28.16359396,-0.380687654,-0.265642494,-0.1169093251,2024-06-05 20:04:29.163594
28.20408187,-0.4203675687,-0.6817491055,-0.3150426745,2024-06-05 20:04:29.204082
28.24454437,-0.3171731234,-0.5893401504,-0.02423405088,2024-06-05 20:04:29.244544
28.28500698,-0.4906729758,-1.13633728,0.1288931966,2024-06-05 20:04:29.285007
28.32546114,-0.8200962543,-1.563628912,0.04367455468,2024-06-05 20:04:29.325461
28.36594922,-0.2740311921,0.283085674,0.08495233208,2024-06-05 20:04:29.365949
28.40641021,-0.3150426745,0.3059881926,0.1976007223,2024-06-05 20:04:29.406410
28.44692927,-0.6469959021,-1.189998388,0.2122476846,2024-06-05 20:04:29.446929
28.48742432,-0.6440665126,-0.9232907295,0.2975994647,2024-06-05 20:04:29.487424
28.52791432,-0.233286038,-0.2070546746,0.2367480397,2024-06-05 20:04:29.527914
28.56837927,-0.4944012761,-0.09121058136,0.151263088,2024-06-05 20:04:29.568379
28.60886739,-0.3792229593,0.05326165259,0.1150451675,2024-06-05 20:04:29.608867
28.64936083,-0.4874772727,0.1400781423,0.1805569977,2024-06-05 20:04:29.649361
28.68985979,-0.3611139953,-0.114113085,0.09826774895,2024-06-05 20:04:29.689860
28.73033088,0.02343512699,-0.2901428342,-0.006924014539,2024-06-05 20:04:29.730331
28.77080052,0.05246272683,-0.01371487509,0.1161103994,2024-06-05 20:04:29.770801
28.81128515,0.2387453467,0.2327534109,0.1326215118,2024-06-05 20:04:29.811285
28.85176432,0.7228937745,0.8123733401,-0.0705716908,2024-06-05 20:04:29.851764
28.89222187,1.841921091,1.889590263,-0.2007964253,2024-06-05 20:04:29.892222
28.93269693,1.939922452,2.516346693,0.08868064731,2024-06-05 20:04:29.932697
28.97318114,1.870948672,2.163088799,0.08362079412,2024-06-05 20:04:29.973181
29.01368239,0.6848116517,2.050706625,0.3087844253,2024-06-05 20:04:30.013682
29.05419094,0.2776263654,0.3960003853,0.1443390697,2024-06-05 20:04:30.054191
29.09467974,-0.004260932095,-0.2840177417,0.06045197323,2024-06-05 20:04:30.094680
29.13508937,-0.2271609455,-0.5777557492,-0.1347519755,2024-06-05 20:04:30.135089
29.17558349,-0.2330197245,-0.5917369723,-0.3403419554,2024-06-05 20:04:30.175583
29.21606708,-0.6757571697,-2.547637939,-0.27536273,2024-06-05 20:04:30.216067
29.25655583,-1.194658875,-4.69687891,-0.09693620354,2024-06-05 20:04:30.256556
29.29700614,0.8817466497,-2.623003244,-0.7668346167,2024-06-05 20:04:30.297006
29.33749875,-0.2380795777,0.903717041,-0.4342156053,2024-06-05 20:04:30.337499
29.37796823,-1.922612429,1.887459755,1.255643368,2024-06-05 20:04:30.377968
29.41851218,-0.5969299674,-0.7443315983,0.6150389314,2024-06-05 20:04:30.418512
29.45892318,0.3010614812,-2.577730656,-0.6390066743,2024-06-05 20:04:30.458923
29.4994564,-0.02263620123,-0.06804175675,0.1624480337,2024-06-05 20:04:30.499456
29.53988948,-1.203979611,1.019827485,0.1810896099,2024-06-05 20:04:30.539889
29.58039166,-0.5428693891,-0.7224943042,-0.01251648832,2024-06-05 20:04:30.580392
29.62086219,0.1880136281,-2.205564976,-0.713572979,2024-06-05 20:04:30.620862
29.66132161,0.2595174015,-2.474136829,-0.4006607831,2024-06-05 20:04:30.661322
29.70181818,-0.05432688445,1.431939483,0.3319532275,2024-06-05 20:04:30.701818
29.74228687,-0.06018566713,2.434723139,0.3878779709,2024-06-05 20:04:30.742287
29.78276083,0.02050573565,0.6101121902,0.09986559302,2024-06-05 20:04:30.782761
29.82326562,-0.01944050193,-1.274684429,-0.2290250957,2024-06-05 20:04:30.823266
29.8637388,-0.5316844583,-2.037790775,-0.154458791,2024-06-05 20:04:30.863739
29.90424234,-0.03541899845,-0.5415378213,0.01757634431,2024-06-05 20:04:30.904242
29.94469562,0.2286256403,1.138334632,0.03142437339,2024-06-05 20:04:30.944696
29.9852114,-0.3645760119,0.2388785034,0.1187734827,2024-06-05 20:04:30.985211
30.02571135,-0.01677742042,-0.5845466256,-0.03595161438,2024-06-05 20:04:31.025711
30.06616739,0.04154408723,-0.4896077216,-0.07696308941,2024-06-05 20:04:31.066167
30.10662333,-0.1150451675,0.05139749497,0.05299534276,2024-06-05 20:04:31.106623
30.14709625,0.01091863867,0.2833519876,0.02370143496,2024-06-05 20:04:31.147096
30.18760984,-0.02396774292,-0.08481918275,-0.01917419396,2024-06-05 20:04:31.187610
30.22806198,-0.018907886,-0.02463351376,0.0005326165119,2024-06-05 20:04:31.228062
30.2685225,0.01038602181,0.1938724071,0.01651111245,2024-06-05 20:04:31.268522
30.30899755,0.01038602181,0.01344856713,0.004793548491,2024-06-05 20:04:31.308998
30.34948838,-0.006125089712,-0.06031882018,-0.006125089712,2024-06-05 20:04:31.349488
30.38997594,0.03408745676,0.07216953486,-0.02716344222,2024-06-05 20:04:31.389976
30.4304876,-0.04287562892,0.08069140464,0.0146469539,2024-06-05 20:04:31.430488
30.47092968,0.01784265228,0.008655018173,-0.002929390874,2024-06-05 20:04:31.470930
30.51144948,0.01091863867,-0.00599193573,-0.0221035853,2024-06-05 20:04:31.511449
30.55190833,-0.002396774245,0.03861469775,-0.009587096982,2024-06-05 20:04:31.551908
30.59238552,0.01065232977,-0.09227581322,-0.01225017942,2024-06-05 20:04:31.592386
30.63286984,0.03222329915,-0.1471353173,-0.02849498391,2024-06-05 20:04:31.632870
30.67327172,-0.0117175635,0.01930734888,0.002929390874,2024-06-05 20:04:31.673272
30.71380198,0.01917419396,0.001198387123,-0.01118494663,2024-06-05 20:04:31.713802
30.75432177,0.01225017942,-0.04620448127,-0.01970681176,2024-06-05 20:04:31.754322
30.79476864,0.003462007269,0.06631075591,0.009587096982,2024-06-05 20:04:31.794769
30.83521901,-0.002130466048,0.03382114694,0.003994623665,2024-06-05 20:04:31.835219
30.87579708,0.006924014539,0.05326165259,-0.009853405878,2024-06-05 20:04:31.875797
30.91623708,-0.01837527007,0.0758978501,0.001597849536,2024-06-05 20:04:31.916237
30.95667536,0.01944050193,0.01850842312,-0.0149132628,2024-06-05 20:04:31.956675
30.99715677,-0.01571218669,0.009453942999,0.002396774245,2024-06-05 20:04:31.997157
31.03764948,0.01065232977,0.0596530512,-0.004793548491,2024-06-05 20:04:32.037649
31.07814265,-0.02689713426,-0.07177007198,0.0007989247679,2024-06-05 20:04:32.078143
31.1186213,0.008255556226,0.006790860556,-0.004793548491,2024-06-05 20:04:32.118621
31.15909187,-0.001065233024,0.06631075591,-0.004527240526,2024-06-05 20:04:32.159092
31.19955495,-0.02529928461,-0.02889444493,-0.009054481052,2024-06-05 20:04:32.199555
31.2400438,0.01038602181,-0.1061238423,-0.02316881903,2024-06-05 20:04:32.240044
31.28053156,-0.0074566314,-0.06324820966,-0.003195699072,2024-06-05 20:04:32.280532
31.32103708,0.002663082443,0.05592473224,0.01304910425,2024-06-05 20:04:32.321037
31.36149239,0.008788172156,0.1033276021,0.01358172111,2024-06-05 20:04:32.361492
31.40197088,-0.01091863867,0.04527240247,-0.009054481052,2024-06-05 20:04:32.401971
31.44248198,-0.001597849536,0.01131810062,-0.02023942769,2024-06-05 20:04:32.442482
31.48296526,-0.009587096982,0.04447348043,-0.0146469539,2024-06-05 20:04:32.482965
31.52343344,0.003462007269,-0.001997311832,-0.007722939365,2024-06-05 20:04:32.523433
31.56390344,0.007190322969,-0.004660394508,0.001065233024,2024-06-05 20:04:32.563903
31.60441734,-0.003195699072,-0.009453942999,-0.008255556226,2024-06-05 20:04:32.604417
31.64484,-0.0005326165119,-0.08961272985,-0.01677742042,2024-06-05 20:04:32.644840
31.6853112,-0.0074566314,-0.0355521515,-0.007722939365,2024-06-05 20:04:32.685311
31.72582323,0.01118494663,-0.01424749196,-0.0005326165119,2024-06-05 20:04:32.725823
31.76629588,-0.006391398143,-0.1138467789,-0.001597849536,2024-06-05 20:04:32.766296
31.80676625,0.01517957076,-0.0952052027,-0.009587096982,2024-06-05 20:04:32.806766
31.84725135,-0.005059856921,-0.04167724028,0.008521864191,2024-06-05 20:04:32.847251
31.88772651,0.01198387146,-0.03342168778,0.008255556226,2024-06-05 20:04:32.887727
31.92820166,0.003462007269,-0.02410089783,0.0007989247679,2024-06-05 20:04:32.928202
31.96869,0.005858781748,0.08868064731,0.01011971384,2024-06-05 20:04:32.968690
32.0091663,0.01038602181,0.04846810177,0.01677742042,2024-06-05 20:04:33.009166
32.04965359,0.02183727734,0.0006657706108,-0.01091863867,2024-06-05 20:04:33.049654
32.09013568,0.000266308256,0.02090519853,-0.01198387146,2024-06-05 20:04:33.090136
32.13062823,0.03009283356,0.1161103994,0.01091863867,2024-06-05 20:04:33.130628
32.17111479,0.03009283356,0.002529928461,-0.004527240526,2024-06-05 20:04:33.171115
32.21158182,0.04713656008,0.07749570161,0.004527240526,2024-06-05 20:04:33.211582
32.25205515,0.0229025092,0.03754946589,-0.0007989247679,2024-06-05 20:04:33.252055
32.29255198,0.004260932095,0.006790860556,-0.01411433797,2024-06-05 20:04:33.292552
32.33302219,0.01384802908,0.06231613085,-0.007722939365,2024-06-05 20:04:33.333022
32.37351448,0.00798924733,-0.01584534161,-0.01651111245,2024-06-05 20:04:33.373514
32.4139339,0.002929390874,0.02889444493,-0.01118494663,2024-06-05 20:04:33.413934
32.45443234,0.008788172156,0.01478010789,-0.01065232977,2024-06-05 20:04:33.454432
32.4949213,0.003462007269,-0.028361829,-0.003994623665,2024-06-05 20:04:33.494921
32.53538078,0.01065232977,-0.1189066395,-0.01864157803,2024-06-05 20:04:33.535381
32.57584849,0.001331541222,-0.1018629074,-0.001597849536,2024-06-05 20:04:33.575848
32.61632682,-0.01757634431,-0.05392742157,0.01997311972,2024-06-05 20:04:33.616327
32.65683838,0.02742975019,-0.07816147059,0.002396774245,2024-06-05 20:04:33.656838
32.69728531,0.004260932095,-0.08029194176,-0.002130466048,2024-06-05 20:04:33.697285
32.73780646,0.04154408723,-0.004394086078,0.002396774245,2024-06-05 20:04:33.737806
32.7783039,0.01278279629,0.07350108027,0.0229025092,2024-06-05 20:04:33.778304
32.81877094,0.02396774292,0.02463351376,-0.01651111245,2024-06-05 20:04:33.818771
32.85924568,0.01970681176,-0.02623136342,-0.0221035853,2024-06-05 20:04:33.859246
32.89973036,0.02157096937,0.1070559174,-0.01331541315,2024-06-05 20:04:33.899730
32.94017651,0.00186415785,0.02356828004,-0.006924014539,2024-06-05 20:04:33.940177
32.9806763,-0.005592473317,-0.02223674022,-0.02423405088,2024-06-05 20:04:33.980676
33.0211676,-0.0114512546,-0.05951989442,-0.0221035853,2024-06-05 20:04:34.021168
33.06164713,-0.0007989247679,-0.146070078,-0.01571218669,2024-06-05 20:04:34.061647
33.10210474,0.02157096937,-0.147401616,-0.0146469539,2024-06-05 20:04:34.102105
33.14259328,0.01225017942,-0.03741630912,0.01544587873,2024-06-05 20:04:34.142593
33.18308,-0.02130465955,-0.04114462435,0.02663082629,2024-06-05 20:04:34.183080
33.22355937,-0.0260982085,-0.1729672104,-0.00186415785,2024-06-05 20:04:34.223559
33.26408989,-0.002130466048,-0.1458037645,-0.02370143496,2024-06-05 20:04:34.264090
33.30457786,-0.009054481052,-0.01158440951,0.02476666868,2024-06-05 20:04:34.304578
33.34497385,0.0074566314,0.1672415882,0.03009283356,2024-06-05 20:04:34.344974
33.38541609,0.03754946589,0.2569874525,-0.0005326165119,2024-06-05 20:04:34.385416
33.42593146,-0.01198387146,0.1970681101,0.02370143496,2024-06-05 20:04:34.425931
33.46641073,-0.03222329915,0.06551183015,-0.004527240526,2024-06-05 20:04:34.466411
33.50692672,-0.04367455468,-0.06724283099,-0.02236989327,2024-06-05 20:04:34.506927
33.54740375,-0.007190322969,-0.07070484012,-0.03115806542,2024-06-05 20:04:34.547404
33.58788995,-0.005858781748,-0.01185071748,-0.004793548491,2024-06-05 20:04:34.587890
33.6283662,0.01331541315,0.07403369248,-0.003994623665,2024-06-05 20:04:34.628366
33.66883833,-0.01118494663,0.112115778,0.009054481052,2024-06-05 20:04:34.668838
33.70931286,-0.003195699072,0.08628387749,0.0005326165119,2024-06-05 20:04:34.709313
33.74978088,-0.01784265228,0.04926702753,-0.003462007269,2024-06-05 20:04:34.749781
33.79028969,-0.0117175635,0.08415340632,0.0074566314,2024-06-05 20:04:34.790290
33.83077078,-0.008255556226,0.05912043154,0.006924014539,2024-06-05 20:04:34.830771
33.87122302,0.01970681176,0.08841434121,0.009054481052,2024-06-05 20:04:34.871223
33.91173885,0.01731003635,0.06524552405,0.0146469539,2024-06-05 20:04:34.911739
33.95220229,0.0146469539,-0.1045259908,-0.009054481052,2024-06-05 20:04:34.952202
33.99266338,0.00798924733,-0.09600412846,-0.003195699072,2024-06-05 20:04:34.992663
34.03316052,0.02103835158,0.03435376659,0.004793548491,2024-06-05 20:04:35.033161
34.07364073,0.005059856921,0.01797580719,-0.004527240526,2024-06-05 20:04:35.073641
34.11416531,0.02263620123,-0.02995967865,-0.002130466048,2024-06-05 20:04:35.114165
34.15464505,0.01251648832,-0.0467370972,0.002663082443,2024-06-05 20:04:35.154645
34.19512468,0.02876129188,-0.08748225868,-0.004527240526,2024-06-05 20:04:35.195125
34.23560427,0.03169068322,-0.1013302878,-0.002396774245,2024-06-05 20:04:35.235604
34.27604609,0.03541899845,-0.02276935615,0.0074566314,2024-06-05 20:04:35.276046
34.31652739,0.04021254554,-0.02197043039,0.001597849536,2024-06-05 20:04:35.316527
34.35700849,0.05778888986,-0.04141093418,-0.007190322969,2024-06-05 20:04:35.357008
34.39747515,0.05885412544,0.07882724702,0.02370143496,2024-06-05 20:04:35.397475
34.43794312,0.116643019,0.08362079412,-0.002396774245,2024-06-05 20:04:35.437943
34.47844328,0.164844811,0.2964010835,0.0117175635,2024-06-05 20:04:35.478443
34.51892708,0.1368824393,0.572030127,0.05512581021,2024-06-05 20:04:35.518927
34.55937922,0.103061296,0.7266221046,0.0458050184,2024-06-05 20:04:35.559379
34.59987937,0.1113168523,0.8400694132,0.01597849466,2024-06-05 20:04:35.599879
34.64037797,0.1328878254,0.7372744083,-0.01704372838,2024-06-05 20:04:35.640378
34.68084083,0.1070559174,0.4215659797,-0.002663082443,2024-06-05 20:04:35.680841
34.72132177,0.1256974936,0.4729634523,-0.02902759984,2024-06-05 20:04:35.721322
34.76179099,0.1824211627,0.921826005,0.006924014539,2024-06-05 20:04:35.761791
34.80226172,0.1243659556,1.151916385,0.03009283356,2024-06-05 20:04:35.802262
34.8427512,0.08122401685,0.9913324714,0.008521864191,2024-06-05 20:04:35.842751
34.88323807,0.07749570161,0.4862788618,-0.02077204362,2024-06-05 20:04:35.883238
34.92370937,0.04713656008,0.1754971445,-0.009320789017,2024-06-05 20:04:35.923709
34.9641863,0.08042509109,-0.03635107726,-0.008255556226,2024-06-05 20:04:35.964186
35.00466271,0.05698996782,-0.3687037826,-0.018907886,2024-06-05 20:04:36.004663
35.04513609,0.05778888986,-0.3732310236,0.008788172156,2024-06-05 20:04:36.045136
35.0856388,0.1701709777,-0.4147751033,0.01704372838,2024-06-05 20:04:36.085639
35.12606719,0.2215684652,-0.159651801,0.04447348043,2024-06-05 20:04:36.126067
35.16654734,0.3540568352,0.3669727743,-0.04687025398,2024-06-05 20:04:36.166547
35.20705625,0.5585815907,0.6167699099,-0.2260957062,2024-06-05 20:04:36.207056
35.24757864,0.9512531161,0.1968017966,-0.5380758047,2024-06-05 20:04:36.247579
35.28805568,1.59318912,-0.3050560951,-0.5681686401,2024-06-05 20:04:36.288056
35.32852125,0.597196281,0.7433995008,0.01544587873,2024-06-05 20:04:36.328521
35.36899338,-0.2849498391,0.7623074055,0.5617772937,2024-06-05 20:04:36.368993
35.40947177,-0.12117026,0.002529928461,0.4435364008,2024-06-05 20:04:36.409472
35.44994646,-0.1334204376,-0.635944128,0.2624467909,2024-06-05 20:04:36.449946
35.49044234,-0.5223636627,-1.807434082,0.2005301118,2024-06-05 20:04:36.490442
35.53091468,-1.094526887,-1.520220637,0.2997299433,2024-06-05 20:04:36.530915
35.57140026,-1.27215457,-0.9523183107,0.3700353205,2024-06-05 20:04:36.571400
35.61187708,-1.062569976,-1.287200928,0.06950645149,2024-06-05 20:04:36.611877
35.65236432,-0.8821461201,-2.811549425,-0.2205032408,2024-06-05 20:04:36.652364
35.6928276,0.1246322617,-2.423271894,-0.8770862222,2024-06-05 20:04:36.692828
35.73329557,-0.332885325,0.7937317491,-0.208785668,2024-06-05 20:04:36.733296
35.77377948,-0.2189053893,0.01957365684,0.2997299433,2024-06-05 20:04:36.773779
35.81431213,0.3330184817,2.732589006,0.5788210034,2024-06-05 20:04:36.814312
35.85478427,1.20611012,0.3129121959,0.8182321191,2024-06-05 20:04:36.854784
35.89524604,0.4469984174,-2.034062386,0.2944037914,2024-06-05 20:04:36.895246
35.93570687,0.09400681406,-2.563083887,-0.1565892547,2024-06-05 20:04:36.935707
35.97622651,-0.398796618,-1.060705781,-0.3504616618,2024-06-05 20:04:36.976227
36.01667651,0.3655080795,0.02356828004,0.03115806542,2024-06-05 20:04:37.016677
36.0571751,0.6227618456,-0.7283530831,-0.07643046975,2024-06-05 20:04:37.057175
36.09761651,0.5612446666,-1.553509235,-0.08601756394,2024-06-05 20:04:37.097617
36.13811573,0.6206313968,-1.907033443,-0.1523283273,2024-06-05 20:04:37.138116
36.1785262,0.5710980296,-1.220623851,-0.1555240154,2024-06-05 20:04:37.178526
36.21905271,0.695464015,-0.3948020041,-0.0298265256,2024-06-05 20:04:37.219053
36.25955323,0.5814840794,-0.0904116556,0.06258244067,2024-06-05 20:04:37.259553
36.30003463,0.4840152562,0.08814803511,0.1645784974,2024-06-05 20:04:37.300035
36.34050448,0.5599130988,0.1941387206,0.3231650591,2024-06-05 20:04:37.340504
36.38097552,1.102782488,0.2418078929,0.2797568142,2024-06-05 20:04:37.380976
36.42144583,1.468556881,0.2924064696,0.158986032,2024-06-05 20:04:37.421446
36.46196297,0.2632457018,0.997990191,0.1456706226,2024-06-05 20:04:37.461963
36.50245578,0.2098509073,0.6539199352,0.06897383928,2024-06-05 20:04:37.502456
36.54290318,0.1736329794,0.2599168718,-0.2772268951,2024-06-05 20:04:37.542903
36.58342901,-0.7553833723,1.419955611,-0.7508561015,2024-06-05 20:04:37.583429
36.62387599,-0.311580658,0.7364754677,-0.5181027055,2024-06-05 20:04:37.623876
36.66438578,-0.213312909,0.02223674022,-0.000266308256,2024-06-05 20:04:37.664386
36.70482922,-0.4086500108,-1.931001186,-0.0817566365,2024-06-05 20:04:37.704829
36.74524573,-1.107842326,-3.338706493,0.1358172148,2024-06-05 20:04:37.745246
36.78576781,-1.930069089,-3.344032764,0.2832188308,2024-06-05 20:04:37.785768
36.82628401,-1.530739903,-2.262554884,0.3143768907,2024-06-05 20:04:37.826284
36.86675682,-1.556571722,-0.1798912287,0.4416722357,2024-06-05 20:04:37.866757
36.90724187,-1.111304402,1.299850583,-0.1707035899,2024-06-05 20:04:37.907242
36.94768015,1.24392581,-4.275312901,-1.322486758,2024-06-05 20:04:37.947680
36.9882188,-0.6416697502,0.6507242322,-0.3278254569,2024-06-05 20:04:37.988219
37.02865505,-0.6390066743,3.156418562,0.3940030634,2024-06-05 20:04:38.028655
37.06913833,0.2010627389,1.239531755,0.2866808474,2024-06-05 20:04:38.069138
37.10964281,0.5236951709,1.057376981,0.3391435742,2024-06-05 20:04:38.109643
37.15009807,0.4906729758,0.4322183132,0.4469984174,2024-06-05 20:04:38.150098
37.19057771,0.4752270877,1.215564013,0.4446016252,2024-06-05 20:04:38.190578
37.23107932,0.5077167153,0.5406057835,0.3511274457,2024-06-05 20:04:38.231079
37.27153802,0.5830819011,-1.24059701,-0.071104303,2024-06-05 20:04:38.271538
37.31206797,0.2234326303,-1.215297699,-0.4358134568,2024-06-05 20:04:38.312068
37.35249364,0.1086537689,0.03515268862,0.008255556226,2024-06-05 20:04:38.352494
37.39298844,0.7066489458,1.040865779,0.2199706137,2024-06-05 20:04:38.392988
37.43342974,0.5415378213,-0.1359503716,0.06284874678,2024-06-05 20:04:38.433430
37.47398005,0.4493951797,-0.9216928482,-0.1259638071,2024-06-05 20:04:38.473980
37.51444661,0.2034595013,-0.4512593448,-0.07749570161,2024-06-05 20:04:38.514447
37.55492531,0.3511274457,-0.03821523488,0.2127802968,2024-06-05 20:04:38.554925
37.59535729,0.6848116517,-0.4006607831,0.1629806459,2024-06-05 20:04:38.595357
37.63583698,0.8259550333,-0.2547238469,-0.02103835158,2024-06-05 20:04:38.635837
37.67637364,1.701576591,-0.2051905096,-0.5473966002,2024-06-05 20:04:38.676374
37.71684021,1.104912996,0.1392792165,-0.1387466043,2024-06-05 20:04:38.716840
37.75729547,0.2723001838,0.8437976837,0.3202356696,2024-06-05 20:04:38.757295
37.79778416,0.0037283157,0.155790329,0.6355446577,2024-06-05 20:04:38.797784
37.83827172,-0.6493926644,1.168427467,-0.3892095089,2024-06-05 20:04:38.838272
37.8787437,-0.3344831765,0.2777595222,-0.9540493488,2024-06-05 20:04:38.878744
37.91920989,-0.2444709837,-2.357094288,-0.4454005659,2024-06-05 20:04:38.919210
37.95970349,-0.7796174288,-2.851495743,0.1731003672,2024-06-05 20:04:38.959703
38.00018547,-1.619287372,-2.055100918,0.7942643762,2024-06-05 20:04:39.000185
38.04066635,-1.900508881,-0.2416747361,0.6403381824,2024-06-05 20:04:39.040666
38.08115979,-1.280676365,-0.1111836955,0.4376776218,2024-06-05 20:04:39.081160
38.12163932,-0.7101109624,-0.8716269135,-0.2969337106,2024-06-05 20:04:39.121639
38.16211187,0.2242315561,-0.2579195499,-0.3448691964,2024-06-05 20:04:39.162112
38.20259135,0.4499278069,1.239265442,0.3127790391,2024-06-05 20:04:39.202591
38.24307109,0.588141799,1.313964963,0.5812177658,2024-06-05 20:04:39.243071
38.28355463,0.4885424972,-0.2432725877,0.1280942708,2024-06-05 20:04:39.283555
38.32404979,-0.05645735189,-1.349250793,-0.004260932095,2024-06-05 20:04:39.324050
38.36453234,-0.3459344208,-1.047922969,0.005592473317,2024-06-05 20:04:39.364532
38.40497666,-0.314776361,-0.5503259897,0.071104303,2024-06-05 20:04:39.404977
38.44544255,-0.4768249393,-0.8210283518,-0.05059856921,2024-06-05 20:04:39.445443
38.48592094,0.3045234978,-0.5652392507,-0.1368824393,2024-06-05 20:04:39.485921
38.52641026,-0.08708280325,0.04447348043,0.1171756312,2024-06-05 20:04:39.526410
38.5668901,0.03595161438,0.231421873,0.1933397949,2024-06-05 20:04:39.566890
38.6073739,0.1893451661,0.3121132851,0.12117026,2024-06-05 20:04:39.607374
38.64784989,-0.01091863867,0.000932078925,0.09906667471,2024-06-05 20:04:39.647850
38.68833,-0.06764229387,-0.5127765536,0.01677742042,2024-06-05 20:04:39.688330
38.72882291,-0.1699046642,-0.4858794212,0.09240896255,2024-06-05 20:04:39.728823
38.76929281,-0.01731003635,0.1925408691,0.148067385,2024-06-05 20:04:39.769293
38.80978708,-0.02263620123,0.2998631001,0.1163767055,2024-06-05 20:04:39.809787
38.85027385,-0.04820179567,0.204258427,0.07989247888,2024-06-05 20:04:39.850274
38.89073859,-0.03169068322,-0.09227581322,-0.009853405878,2024-06-05 20:04:39.890739
38.93120823,-0.1392792165,-0.09919982404,-0.01917419396,2024-06-05 20:04:39.931208
38.97168974,-0.03834838793,0.2615146935,0.09214265645,2024-06-05 20:04:39.971690
39.01219781,0.03142437339,0.8821461201,0.2018616647,2024-06-05 20:04:40.012198
39.05267594,-0.02263620123,0.278025806,0.1091863886,2024-06-05 20:04:40.052676
39.09312974,0.09320788831,-0.7456631064,-0.2551233172,2024-06-05 20:04:40.093130
39.13362547,0.000266308256,-0.7190322876,-0.2324871123,2024-06-05 20:04:40.133625
39.17411776,-0.09374050796,0.04047885537,0.02263620123,2024-06-05 20:04:40.174118
39.21456724,-0.1581871063,0.5283555984,0.1294258088,2024-06-05 20:04:40.214567
39.25508349,-0.00186415785,0.5866770744,0.1014634445,2024-06-05 20:04:40.255083
39.2955888,0.03728315607,0.2604494691,0.02103835158,2024-06-05 20:04:40.295589
39.33607172,-0.02077204362,-0.605052352,-0.02103835158,2024-06-05 20:04:40.336072
39.37651323,0.03089175746,-0.5327496529,0.05059856921,2024-06-05 20:04:40.376513
39.41697484,-0.018907886,-0.008655018173,0.1478010863,2024-06-05 20:04:40.416975
39.45745354,-0.02103835158,0.04447348043,0.07483261824,2024-06-05 20:04:40.457454
39.49794432,0.05379426852,-0.004127778113,0.00186415785,2024-06-05 20:04:40.497944
39.53842521,0.1320888996,0.02516612969,-0.01784265228,2024-06-05 20:04:40.538425
39.57889536,0.1922745556,0.1983996481,-0.02769605815,2024-06-05 20:04:40.578895
39.61936599,0.1336867511,0.2804225981,0.0007989247679,2024-06-05 20:04:40.619366
39.65984927,-0.000266308256,-0.03688369319,0.01011971384,2024-06-05 20:04:40.659849
39.70030182,-0.05432688445,-0.2757622004,-0.002663082443,2024-06-05 20:04:40.700302
39.74082265,-0.03382114694,-0.008122402243,0.06524552405,2024-06-05 20:04:40.740823
39.78131396,0.0980014354,0.5840139985,0.1568555683,2024-06-05 20:04:40.781314
39.82180515,0.2095845938,-0.003595161485,0.07989247888,2024-06-05 20:04:40.821805
39.8622813,0.1872147024,-0.37296471,0.04793548584,2024-06-05 20:04:40.862281
39.90273458,0.1840189993,0.1731003672,0.1049254537,2024-06-05 20:04:40.902735
39.94319224,0.2039921284,0.1057243794,0.06418029219,2024-06-05 20:04:40.943192
39.98376661,0.232087642,-0.229424566,-0.02263620123,2024-06-05 20:04:40.983767
40.02423666,0.2483324558,-0.1516625583,-0.02370143496,2024-06-05 20:04:41.024237
40.06467755,0.2664414048,-0.01131810062,0.03808208182,2024-06-05 20:04:41.064678
40.10509151,0.2914743721,0.1336867511,0.2536586225,2024-06-05 20:04:41.105092
40.14568635,0.3620460629,0.08095771074,0.2226337045,2024-06-05 20:04:41.145686
40.18616552,0.5870765448,-0.08188978583,0.02929390781,2024-06-05 20:04:41.186166
40.22664885,0.5191679597,-0.6396724582,-0.137681365,2024-06-05 20:04:41.226649
40.26706739,0.4605801404,-0.9613727927,-0.1065233052,2024-06-05 20:04:41.267067
40.30753797,0.3295564651,-0.602389276,0.02742975019,2024-06-05 20:04:41.307538
40.34801718,0.536477983,0.02995967865,-0.107588537,2024-06-05 20:04:41.348017
40.38851015,0.8372731805,0.6311505437,-0.181622237,2024-06-05 20:04:41.388510
40.4290339,0.5141080618,0.866700232,-0.1805569977,2024-06-05 20:04:41.429034
40.4694714,0.6533873081,0.7154371142,-0.2756290436,2024-06-05 20:04:41.469471
40.50997125,0.7138392925,0.2926727831,-0.1778939217,2024-06-05 20:04:41.509971
40.55043219,0.7418016195,0.9694951773,-0.1837527007,2024-06-05 20:04:41.550432
40.5908976,2.198108435,0.8504554033,-0.4469984174,2024-06-05 20:04:41.590898
40.63139547,1.052716494,0.1800243855,-0.09613727778,2024-06-05 20:04:41.631395
40.67185594,-0.55778265,0.1784265339,0.1334204376,2024-06-05 20:04:41.671856
40.71232109,-0.6640396118,-0.6772218943,-0.5386084318,2024-06-05 20:04:41.712321
40.75286031,-0.7114425302,0.5400731564,-0.2604494691,2024-06-05 20:04:41.752860
40.79333896,-0.4746944606,1.637529492,-0.2995967865,2024-06-05 20:04:41.793339
40.83377526,-1.172288895,-0.6969286799,0.056723658,2024-06-05 20:04:41.833775
40.87429479,-1.676809907,-2.223940134,0.09640359133,2024-06-05 20:04:41.874295
40.91474031,-1.745783806,-2.12727046,-0.2010627389,2024-06-05 20:04:41.914740
40.95520281,-1.925009251,-0.7813484073,-0.03914731368,2024-06-05 20:04:41.955203
40.99568271,-1.882399917,0.9332773089,0.1475347728,2024-06-05 20:04:41.995683
41.03618364,-1.496386051,0.3643096983,-0.1486000121,2024-06-05 20:04:42.036184
41.07666713,-0.1147788614,-4.306736946,-1.097988963,2024-06-05 20:04:42.076667
41.11713687,0.1507304758,2.653761864,-0.08921326697,2024-06-05 20:04:42.117137
41.15760349,0.2296908647,3.437107563,0.2242315561,2024-06-05 20:04:42.157603
41.19810234,0.3543231487,-0.05153064802,0.2752295732,2024-06-05 20:04:42.198102
41.23858838,0.1358172148,-0.7888050675,-0.1083874628,2024-06-05 20:04:42.238588
41.27906692,0.3878779709,1.29665494,0.05139749497,2024-06-05 20:04:42.279067
41.31954338,-0.08548495173,0.4255605936,0.005059856921,2024-06-05 20:04:42.319543
41.36003375,-0.3001294136,-0.2717675865,-0.28574875,2024-06-05 20:04:42.360034
41.40049041,0.4240958989,0.3419398069,-0.3860138059,2024-06-05 20:04:42.400490
41.44095052,0.7833457589,1.297720075,-0.7641715407,2024-06-05 20:04:42.440951
41.4814676,0.08415340632,1.268159866,-0.1259638071,2024-06-05 20:04:42.481468
41.52195901,0.1240996495,0.3872122169,0.1243659556,2024-06-05 20:04:42.521959
41.56240651,0.172567755,-0.7600437403,-0.07722939551,2024-06-05 20:04:42.562407
41.60289541,0.2882786989,-0.1255643368,0.09187635034,2024-06-05 20:04:42.602895
41.6433838,0.4797543287,-0.1945381761,-0.04074516147,2024-06-05 20:04:42.643384
41.683865,0.368437469,-0.2728328109,0.1736329794,2024-06-05 20:04:42.683865
41.72436151,0.7990579009,-0.5695002079,0.03648423031,2024-06-05 20:04:42.724362
41.7648314,1.058841586,-0.4011933804,0.09986559302,2024-06-05 20:04:42.764831
41.8053339,0.4270252883,-0.1820216924,0.3636439145,2024-06-05 20:04:42.805334
41.84579255,0.3268933892,-0.04141093418,0.4818847775,2024-06-05 20:04:42.845793
41.88623838,0.6701647043,-0.1375482082,0.250729233,2024-06-05 20:04:42.886238
41.92671828,0.4637758136,-0.8505885601,-0.1864157766,2024-06-05 20:04:42.926718
41.96721484,0.3213009238,-0.8447297812,0.01997311972,2024-06-05 20:04:42.967215
42.00768125,0.4118457139,-0.5015916228,0.2523270845,2024-06-05 20:04:43.007681
42.04816318,0.2334191799,-0.05605788901,0.3753614724,2024-06-05 20:04:43.048163
42.08864594,0.09507204592,0.03621792421,0.1858831644,2024-06-05 20:04:43.088646
42.12912984,0.1102516204,-0.07097115368,0.08788172156,2024-06-05 20:04:43.129130
42.16961203,0.2013290375,0.06684337556,0.08548495173,2024-06-05 20:04:43.169612
42.2101012,0.4318188429,0.3912068307,0.1334204376,2024-06-05 20:04:43.210101
42.25058505,0.646463275,0.4862788618,0.226894632,2024-06-05 20:04:43.250585
42.29109245,0.8897358775,0.6400718689,0.6523220539,2024-06-05 20:04:43.291092
42.33156448,1.139799356,0.006258244161,0.9411333799,2024-06-05 20:04:43.331564
42.37203703,0.4456668794,0.0003994623839,0.7929328084,2024-06-05 20:04:43.372037
42.41247911,-1.082809329,-0.2043915838,-0.2412752807,2024-06-05 20:04:43.412479
42.45298276,-1.568022966,0.09746882319,-1.28999722,2024-06-05 20:04:43.452983
42.49348297,-0.5764242411,-1.771615624,-0.7937317491,2024-06-05 20:04:43.493483
42.53398802,-1.107043386,-0.1482005417,-0.4667052329,2024-06-05 20:04:43.533988
42.57443573,-0.7282199264,0.903717041,-0.1565892547,2024-06-05 20:04:43.574436
42.61488703,-0.4454005659,-1.554041862,-0.08974587917,2024-06-05 20:04:43.614887
42.65540677,-0.2428731322,-2.111558199,-0.499727428,2024-06-05 20:04:43.655407
42.69586625,-1.055379629,1.112502694,0.2592510879,2024-06-05 20:04:43.695866
42.73632568,-1.093195438,0.4034570158,0.6994586587,2024-06-05 20:04:43.736326
42.7768275,-0.98307693,1.50597322,0.4118457139,2024-06-05 20:04:43.776828
42.81729255,-0.5812177658,1.9553684,0.2560553849,2024-06-05 20:04:43.817293
42.85778932,0.2149107605,-0.1500647068,0.3316869438,2024-06-05 20:04:43.857789
42.89824635,1.772947192,1.672682166,1.092396498,2024-06-05 20:04:43.898246
42.9387163,2.259891748,1.510766745,1.093728065,2024-06-05 20:04:43.938716
42.97923099,1.524481654,2.115419626,0.5135754943,2024-06-05 20:04:43.979231
43.01969484,0.2515281439,0.3030588031,0.6978607774,2024-06-05 20:04:44.019695
43.06016364,0.4752270877,-0.7161028981,0.5692338943,2024-06-05 20:04:44.060164
43.10064875,-0.1533935517,-0.2605826259,0.3644428551,2024-06-05 20:04:44.100649
43.14117213,-1.236735582,-0.6196992993,-0.5492607951,2024-06-05 20:04:44.141172
43.18165255,-0.5117112994,-1.761495948,-0.6613765359,2024-06-05 20:04:44.181653
43.22211609,0.8937305212,-2.645905733,-0.8339443207,2024-06-05 20:04:44.222116
43.26257177,-0.6981270909,-2.332593918,-0.6858769059,2024-06-05 20:04:44.262572
43.30310088,-0.7263557911,-2.481859684,-0.6137073636,2024-06-05 20:04:44.303101
43.34354927,-1.008243084,-1.601178408,-0.4541887343,2024-06-05 20:04:44.343549
43.38402416,-1.427944899,2.279465437,1.094260573,2024-06-05 20:04:44.384024
43.42447453,-2.191317558,5.677824974,0.883610785,2024-06-05 20:04:44.424475
43.46495495,-0.6837464571,-1.723946452,-0.2940043211,2024-06-05 20:04:44.464955
43.50545094,-0.5434020162,-2.770005226,-0.5788210034,2024-06-05 20:04:44.505451
43.54591604,-0.8587109447,1.203313828,-0.1946713328,2024-06-05 20:04:44.545916
43.58641557,-0.8041177988,1.815423369,-0.2545906901,2024-06-05 20:04:44.586416
43.62689021,-0.405188024,0.1848179251,-0.3860138059,2024-06-05 20:04:44.626890
43.66738927,0.0146469539,0.07003907114,-0.07296846062,2024-06-05 20:04:44.667389
43.70786922,0.5026568174,0.6348788738,0.1334204376,2024-06-05 20:04:44.707869
43.74833218,0.6208977103,-0.5572500229,0.04047885537,2024-06-05 20:04:44.748332
43.78883318,0.4147751033,0.4442021847,-0.04314193875,2024-06-05 20:04:44.788833
43.82927672,0.9744219184,2.564015865,-0.5220973492,2024-06-05 20:04:44.829277
43.86978692,0.8942631483,0.8829450011,-1.017830133,2024-06-05 20:04:44.869787
43.91026692,0.5828156471,1.022756815,-0.8517869711,2024-06-05 20:04:44.910267
43.95073541,0.9067795873,2.824997902,-0.2316881865,2024-06-05 20:04:44.950735
43.99121312,-0.05885412544,2.335922956,0.2560553849,2024-06-05 20:04:44.991213
44.0316925,-1.925009251,1.506772161,0.9661663771,2024-06-05 20:04:45.031692
44.07217807,-1.34192729,0.0596530512,0.8286181092,2024-06-05 20:04:45.072178
44.11268359,2.000374556,-1.247787356,-0.05113118514,2024-06-05 20:04:45.112684
44.1531539,2.04671216,-1.489062667,-0.6435338855,2024-06-05 20:04:45.153154
44.19357427,-0.8398030996,-0.7171681523,-0.0117175635,2024-06-05 20:04:45.193574
44.23414948,0.5993267298,-0.09121058136,-0.5031894445,2024-06-05 20:04:45.234149
44.27462281,0.2231663167,1.24059701,-0.3174394369,2024-06-05 20:04:45.274623
44.31507547,-0.06764229387,0.4639089704,0.1443390697,2024-06-05 20:04:45.315075
44.35554521,1.217295051,1.443657041,0.2005301118,2024-06-05 20:04:45.355545
44.39597229,2.056964874,1.529142022,0.4584496617,2024-06-05 20:04:45.395972
44.43649557,2.157895803,1.478809714,0.4267589748,2024-06-05 20:04:45.436496
44.47699521,1.752707839,1.160970807,0.07296846062,2024-06-05 20:04:45.476995
44.51748474,1.574281216,1.403977156,0.4185034335,2024-06-05 20:04:45.517485
44.55795739,1.628341794,1.284138441,0.4906729758,2024-06-05 20:04:45.557957
44.59843672,1.654440045,0.6260907054,0.2581858635,2024-06-05 20:04:45.598437
44.63890583,1.497318149,0.2668408751,-0.163513273,2024-06-05 20:04:45.638906
44.67938427,0.7005238533,0.3123795986,-0.2330197245,2024-06-05 20:04:45.679384
44.71986739,0.1509967744,0.6332810521,-0.04207670316,2024-06-05 20:04:45.719867
44.76035719,-0.5191679597,1.213966131,0.1536598653,2024-06-05 20:04:45.760357
44.80083958,-0.7117088437,1.021425366,0.2501966059,2024-06-05 20:04:45.800840
44.84131208,-0.5561847687,0.4971975088,0.006391398143,2024-06-05 20:04:45.841312
44.8817889,-0.05885412544,-0.3191704452,-0.3692364097,2024-06-05 20:04:45.881789
44.92224479,-0.112115778,-0.4738955498,-0.332885325,2024-06-05 20:04:45.922245
44.96272078,-0.1746982187,-0.4912055731,-0.3777582645,2024-06-05 20:04:45.962721
45.00322791,0.1517957002,-0.3146432042,-0.4131772518,2024-06-05 20:04:46.003228
45.04372692,0.06418029219,0.08947957307,-0.01970681176,2024-06-05 20:04:46.043727
45.08422286,-0.1073222235,0.04820179567,0.09134373069,2024-06-05 20:04:46.084223
45.12467562,0.4826837182,-0.4222317338,-0.002929390874,2024-06-05 20:04:46.124676
45.16510312,0.3963998258,-0.21264714,-0.290275991,2024-06-05 20:04:46.165103
45.20561614,0.239810586,0.3038577139,0.04500609636,2024-06-05 20:04:46.205616
45.24609448,0.07296846062,-0.02516612969,0.3745625615,2024-06-05 20:04:46.246094
45.28657599,0.1549914032,-0.05046541616,0.1006645188,2024-06-05 20:04:46.286576
45.32707411,0.5572500229,0.3400756419,0.1493989378,2024-06-05 20:04:46.327074
45.36756203,0.5175700784,0.661909163,-0.07882724702,2024-06-05 20:04:46.367562
45.40803989,0.6935998797,0.7505898476,0.163513273,2024-06-05 20:04:46.408040
45.44850578,0.8097102642,0.2497971505,0.3007951677,2024-06-05 20:04:46.448506
45.48901229,0.6933335662,-0.9334104657,0.3023930192,2024-06-05 20:04:46.489012
45.52947729,0.01544587873,-1.266162634,-0.06844121963,2024-06-05 20:04:46.529477
45.56993901,-0.8115743995,-0.6247591972,-0.1781602204,2024-06-05 20:04:46.569939
45.61043916,-1.485467434,-0.1362166703,-0.1416759938,2024-06-05 20:04:46.610439
45.65091083,-1.821148992,-0.1149120107,0.1472684592,2024-06-05 20:04:46.650911
45.69137614,-1.857633233,-0.6868090034,-0.2426068187,2024-06-05 20:04:46.691376
45.73185578,-2.344045162,-1.131011128,-1.357106924,2024-06-05 20:04:46.731856
45.77234536,-2.725665092,-3.03644681,-1.954303145,2024-06-05 20:04:46.772345
45.81284531,-0.1712362021,-7.830927372,-0.7945306897,2024-06-05 20:04:46.812845
45.85330109,-2.424204111,0.2615146935,2.639913797,2024-06-05 20:04:46.853301
45.89382156,-0.4161066413,3.972254038,0.9147688746,2024-06-05 20:04:46.893822
45.93429099,0.1541924775,-1.385202408,-0.0596530512,2024-06-05 20:04:46.934291
45.97477302,-0.1238333359,1.314763904,0.7215622067,2024-06-05 20:04:46.974773
46.01525192,0.1808233112,-0.09706936032,0.8485912681,2024-06-05 20:04:47.015252
46.05568177,0.1334204376,-1.403843999,0.3159747422,2024-06-05 20:04:47.055682
46.09617114,0.08388710022,1.036871195,-0.07882724702,2024-06-05 20:04:47.096171
46.13668015,-0.02769605815,1.253246665,-0.4363460839,2024-06-05 20:04:47.136680
46.17711968,-0.2695039511,0.07296846062,-0.3547225893,2024-06-05 20:04:47.177120
46.21764302,-0.1304910481,0.01637795754,-0.4986622036,2024-06-05 20:04:47.217643
46.25810672,-0.09986559302,0.09081111848,-0.3014609516,2024-06-05 20:04:47.258107
46.29860036,0.04127778113,0.5169043541,-0.163513273,2024-06-05 20:04:47.298600
46.33908021,0.3191704452,-0.7169018388,-0.1320888996,2024-06-05 20:04:47.339080
46.37953802,0.4539224207,-0.3202356696,-0.1011971384,2024-06-05 20:04:47.379538
46.41998614,0.329023838,0.1275616586,-0.08308817446,2024-06-05 20:04:47.419986
46.46052568,0.145404309,-0.3553883731,-0.1757634431,2024-06-05 20:04:47.460526
46.50100229,0.128626883,-0.3266270757,-0.1688394397,2024-06-05 20:04:47.501002
46.54147302,0.2266283184,0.6034545302,-0.1704372764,2024-06-05 20:04:47.541473
46.58192693,0.2194380015,1.071757555,-0.08921326697,2024-06-05 20:04:47.581927
46.62245646,0.493868649,1.251116157,-0.2298240215,2024-06-05 20:04:47.622456
46.66288859,0.2464682907,1.053914905,-0.3432713449,2024-06-05 20:04:47.662889
46.70337911,-0.4355471432,0.2761616707,-0.4272916019,2024-06-05 20:04:47.703379
46.74390958,-0.4177044928,0.2532591522,-0.2274272442,2024-06-05 20:04:47.743910
46.78436364,-0.5857450366,-0.1178414002,-0.1810896099,2024-06-05 20:04:47.784364
46.82484437,-0.677355051,-0.8910674453,-0.1525946259,2024-06-05 20:04:47.824844
46.86524927,-0.8334116936,-1.068162441,0.02876129188,2024-06-05 20:04:47.865249
46.90573443,-1.191729426,-1.502910614,0.01757634431,2024-06-05 20:04:47.905734
46.94626844,-1.595719099,-2.246043921,0.06364767253,2024-06-05 20:04:47.946268
46.98676307,-1.559501171,-2.183195114,0.1150451675,2024-06-05 20:04:47.986763
47.02720354,-1.912226439,-1.594520688,0.3878779709,2024-06-05 20:04:48.027204
47.0676989,-2.234326363,-0.7560491562,0.6967955232,2024-06-05 20:04:48.067699
47.10820135,-0.9223586321,0.272167027,0.1539261788,2024-06-05 20:04:48.108201
47.14867453,0.8187647462,-1.006911516,-0.4896077216,2024-06-05 20:04:48.148675
47.18915526,-0.817699492,2.344178438,0.6643059254,2024-06-05 20:04:48.189155
47.22963937,-0.07296846062,2.492112637,0.7162360549,2024-06-05 20:04:48.229639
47.27010271,0.4882761836,0.1640458852,-0.1203713343,2024-06-05 20:04:48.270103
47.31056396,-0.01597849466,-1.686130762,-0.4706998467,2024-06-05 20:04:48.310564
47.35105724,0.06977276504,0.108920075,-0.06338136643,2024-06-05 20:04:48.351057
47.39153875,0.1451379955,1.205444336,0.259783715,2024-06-05 20:04:48.391539
47.43198427,0.3450023532,0.4463326335,0.2170412242,2024-06-05 20:04:48.431984
47.47251724,0.2244978547,-0.4922707975,0.1720351279,2024-06-05 20:04:48.472517
47.51301677,0.1731003672,-0.3886769116,0.1145125479,2024-06-05 20:04:48.513017
47.55348854,0.2858819067,-0.1234338731,0.122501798,2024-06-05 20:04:48.553489
47.59402057,0.3037245572,0.162181735,0.2079867423,2024-06-05 20:04:48.594021
47.63445505,0.3074528873,0.2793573737,0.2031932026,2024-06-05 20:04:48.634455
47.67485958,0.5729622245,0.0977351293,0.142208606,2024-06-05 20:04:48.674860
47.71535708,0.3351489305,0.1001319066,0.1150451675,2024-06-05 20:04:48.715357
47.75580781,0.6451317668,0.08708280325,0.0929415822,2024-06-05 20:04:48.755808
47.79635344,0.3372794092,-0.55778265,0.228758797,2024-06-05 20:04:48.796353
47.8368088,0.1379476786,-0.08109086752,0.1081211492,2024-06-05 20:04:48.836809
47.8773064,-0.597995162,-0.1529940963,-0.1233007237,2024-06-05 20:04:48.877306
47.91780875,-0.8957278132,-0.5282224417,-0.5756253004,2024-06-05 20:04:48.917809
47.95825953,-1.294524431,-0.2813546658,-0.8232919574,2024-06-05 20:04:48.958260
47.99874166,-1.185870647,-0.352991581,-1.128348112,2024-06-05 20:04:48.998742
48.03923182,-0.8965267539,-1.524481654,-0.3493964374,2024-06-05 20:04:49.039232
48.07969911,0.4235632718,-1.031944513,-0.5644403696,2024-06-05 20:04:49.079699
48.12018193,1.490660429,-0.3870790601,-0.03728315607,2024-06-05 20:04:49.120182
48.16067057,2.120079994,0.3983971477,0.5687012672,2024-06-05 20:04:49.160671
48.20115333,2.145645618,2.134327412,0.0114512546,2024-06-05 20:04:49.201153
48.24163323,1.673081636,3.025261879,0.8841434121,2024-06-05 20:04:49.241633
48.28211901,0.4946675897,1.536332369,0.8527190089,2024-06-05 20:04:49.282119
48.32262036,1.178680301,0.5456656218,0.7702966332,2024-06-05 20:04:49.322620
48.36308651,0.5178363919,0.2181064636,1.792387724,2024-06-05 20:04:49.363087
48.40355984,0.3620460629,-0.3260944486,1.64884758,2024-06-05 20:04:49.403560
48.44403187,0.6398055553,-1.138201475,0.6219629049,2024-06-05 20:04:49.444032
48.48451718,-0.4728302956,-0.2648435533,-0.04074516147,2024-06-05 20:04:49.484517
48.52493375,-0.4283568263,-3.135246992,-0.391073674,2024-06-05 20:04:49.524934
48.56543844,0.2770937383,-1.461100221,-1.269757748,2024-06-05 20:04:49.565438
48.60594198,-0.7271546721,-0.3095833361,-0.287612915,2024-06-05 20:04:49.605942
48.64642474,-0.8741568327,-1.340462565,0.2002638131,2024-06-05 20:04:49.646425
48.68691536,-0.83314538,-0.1178414002,0.7255568504,2024-06-05 20:04:49.686915
48.72740937,-0.7950633168,1.126084447,0.4515256584,2024-06-05 20:04:49.727409
48.76789286,-0.8528521657,0.8493902087,-0.0458050184,2024-06-05 20:04:49.767893
48.80835234,-0.5921363831,-1.091863871,-0.1525946259,2024-06-05 20:04:49.808352
48.84882812,-0.5005263686,-0.7129071951,-0.2559222281,2024-06-05 20:04:49.848828
48.88932812,-0.3584509194,0.4588491321,-0.293471694,2024-06-05 20:04:49.889328
48.92981672,-0.4238295853,1.803972125,-0.248199299,2024-06-05 20:04:49.929817
48.97025515,-0.3924052119,2.408625126,-0.1267627329,2024-06-05 20:04:49.970255
49.01074677,-0.1872147024,2.565613747,0.03701684624,2024-06-05 20:04:50.010747
49.0512225,0.2387453467,2.014755011,0.08255556226,2024-06-05 20:04:50.051223
49.09169604,0.9752208591,-0.252060771,0.177094996,2024-06-05 20:04:50.091696
49.13218609,2.033396721,0.7069152594,-0.155790329,2024-06-05 20:04:50.132186
49.17267135,1.830469847,3.934704542,-0.4688356817,2024-06-05 20:04:50.172671
49.2131513,0.4552539587,2.989842892,-0.2655093372,2024-06-05 20:04:50.213151
49.25363755,0.02902759984,-0.8647028804,0.04234301299,2024-06-05 20:04:50.253638
49.29412005,0.4318188429,-1.571351886,-0.158986032,2024-06-05 20:04:50.294120
49.33457932,0.3127790391,-1.558835387,-0.6999912262,2024-06-05 20:04:50.334579
49.37504271,-0.1896114796,-1.328478694,-0.775090158,2024-06-05 20:04:50.375043
49.41552489,-0.793199122,-0.416905582,-0.9705604315,2024-06-05 20:04:50.415525
49.45600437,-0.99013412,-0.4174381793,-0.3022598624,2024-06-05 20:04:50.456004
49.49650437,-0.6880073547,-0.2318213433,0.07030537724,2024-06-05 20:04:50.496504
49.53698692,0.4488625526,-0.3420729637,-0.09853405505,2024-06-05 20:04:50.536987
49.57746088,0.530619204,0.1826874614,-0.3067871034,2024-06-05 20:04:50.577461
49.61797828,-0.3563204408,2.286922216,0.4917382002,2024-06-05 20:04:50.617978
49.65844344,-0.3408745527,1.604240894,1.384003997,2024-06-05 20:04:50.658443
49.69885786,0.09613727778,-1.242461205,0.2866808474,2024-06-05 20:04:50.698858
49.73939536,-0.1909430176,0.52622509,-0.1699046642,2024-06-05 20:04:50.739395
49.77988271,-0.8398030996,1.447917938,0.06684337556,2024-06-05 20:04:50.779883
49.8203413,-1.28254056,-0.08055824786,0.4461994767,2024-06-05 20:04:50.820341
49.8608437,-0.2673735023,-1.052183867,-0.09214265645,2024-06-05 20:04:50.860844
49.90132443,0.1145125479,-1.113434792,-0.3480648994,2024-06-05 20:04:50.901324
49.94178885,-0.07856093347,-1.014368176,-0.4134435654,2024-06-05 20:04:50.941789
49.98227635,-0.2532591522,-0.9645684958,-0.1757634431,2024-06-05 20:04:50.982276
50.02275422,-0.288944453,-1.457904577,0.001597849536,2024-06-05 20:04:51.022754
50.06322432,-0.1022623703,-1.52634573,-0.01065232977,2024-06-05 20:04:51.063224
50.10370797,-0.06471290439,-0.9243559837,0.04314193875,2024-06-05 20:04:51.103708
50.14422094,0.2010627389,-0.04407401755,0.1632469594,2024-06-05 20:04:51.144221
50.18464656,0.3511274457,-0.861507237,0.163513273,2024-06-05 20:04:51.184647
50.22510875,0.1640458852,-1.361234665,0.1320888996,2024-06-05 20:04:51.225109
50.265635,0.1171756312,-0.7440652847,0.1472684592,2024-06-05 20:04:51.265635
50.30613958,0.386546433,-0.4832163453,0.04926702753,2024-06-05 20:04:51.306140
50.34660297,0.6291532516,-1.591058731,-0.05352795869,2024-06-05 20:04:51.346603
50.38709989,0.388410598,-1.191329956,0.008521864191,2024-06-05 20:04:51.387100
50.42754776,0.0926752761,-0.005459319334,0.128626883,2024-06-05 20:04:51.427548
50.46802187,0.7596443295,-0.09360735118,0.1227681041,2024-06-05 20:04:51.468022
50.50848489,1.274551272,-0.5114449859,0.02263620123,2024-06-05 20:04:51.508485
50.54899479,1.25511086,0.1171756312,0.01517957076,2024-06-05 20:04:51.548995
50.58948515,0.55778265,0.4516588151,0.3924052119,2024-06-05 20:04:51.589485
50.62994974,0.1416759938,0.07643046975,0.1904104054,2024-06-05 20:04:51.629950
50.67043526,0.3434045017,-0.6487269402,-0.08894696087,2024-06-05 20:04:51.670435
50.71091573,0.3343500197,-0.3937367499,-0.1448716968,2024-06-05 20:04:51.710916
50.75139958,0.05059856921,-0.8756215572,-0.5053198934,2024-06-05 20:04:51.751400
50.79188818,-0.8504554033,-1.185604334,-0.1536598653,2024-06-05 20:04:51.791888
50.83238125,-0.8014547229,-1.450714231,-0.2950695455,2024-06-05 20:04:51.832381
50.87284802,0.2683055699,-1.604906678,-0.3624455333,2024-06-05 20:04:51.872848
50.91331521,-0.2705691755,0.237813279,-0.0820229426,2024-06-05 20:04:51.913315
50.95378099,-0.2854824364,1.62767601,0.1810896099,2024-06-05 20:04:51.953781
50.99432468,-0.7734923363,-1.352180123,0.2842840552,2024-06-05 20:04:51.994325
51.0347589,-0.3669727743,-1.35271275,-0.0926752761,2024-06-05 20:04:52.034759
51.07520422,-0.2977326214,-0.2581858635,-0.2460688353,2024-06-05 20:04:52.075204
51.11567338,-0.1528609395,1.190264702,0.1917419434,2024-06-05 20:04:52.115673
51.15615328,-0.5095808506,-0.3351489305,0.1840189993,2024-06-05 20:04:52.156153
51.19665083,-0.3948020041,-1.122755647,-0.008521864191,2024-06-05 20:04:52.196651
51.23716604,-0.168040514,-0.2712349594,0.2446041405,2024-06-05 20:04:52.237166
51.27764693,0.01571218669,1.310236573,0.4206338823,2024-06-05 20:04:52.277647
51.31812531,-0.1278279573,0.005459319334,0.1917419434,2024-06-05 20:04:52.318125
51.35860568,-0.01544587873,-1.27548337,-0.1382139921,2024-06-05 20:04:52.358606
51.39909318,0.1147788614,-0.709178865,-0.005059856921,2024-06-05 20:04:52.399093
51.43955713,-0.3035914004,0.107588537,0.4315525293,2024-06-05 20:04:52.439557
51.4800362,-0.6579145193,0.5629756451,0.4850804806,2024-06-05 20:04:52.480036
51.52052963,-0.2910749316,0.6720288992,0.4222317338,2024-06-05 20:04:52.520530
51.56100864,-0.3041240275,0.1848179251,0.2667077184,2024-06-05 20:04:52.561009
51.60148594,-0.2524602413,0.5200999975,0.3364804685,2024-06-05 20:04:52.601486
51.64196896,-0.08868064731,0.2013290375,0.3567199111,2024-06-05 20:04:52.641969
51.6824414,-0.02263620123,0.07643046975,0.3173062801,2024-06-05 20:04:52.682441
51.72292057,0.1715025157,-0.1327546686,0.1406107545,2024-06-05 20:04:52.722921
51.76341979,0.06018566713,-0.2517944574,0.09560466558,2024-06-05 20:04:52.763420
51.80392937,0.08095771074,-0.5130428672,0.02929390781,2024-06-05 20:04:52.803929
51.84442073,0.03675054014,-0.2896102369,-0.01011971384,2024-06-05 20:04:52.844421
51.88483864,-0.08655018359,-0.1657768935,-0.03222329915,2024-06-05 20:04:52.884839
51.92531578,-0.01065232977,-0.3106485903,-0.1086537689,2024-06-05 20:04:52.925316
51.96578468,-0.142208606,-0.07709623873,-0.05006595328,2024-06-05 20:04:52.965785
52.00625177,-0.1283605844,-0.3085181117,-0.1930734813,2024-06-05 20:04:53.006252
52.04675547,0.09640359133,-0.2853493094,-0.1006645188,2024-06-05 20:04:53.046755
52.08725604,-0.08575125784,-0.1679073572,-0.06178351492,2024-06-05 20:04:53.087256
52.12773146,0.1699046642,-0.3473991156,-0.08095771074,2024-06-05 20:04:53.127731
52.16820698,0.0458050184,-0.2227668613,-0.03089175746,2024-06-05 20:04:53.168207
52.20866745,0.1209039465,-0.1716356725,-0.001331541222,2024-06-05 20:04:53.208667
52.24915078,0.1821548492,-0.5997262001,0.2306229472,2024-06-05 20:04:53.249151
52.28963786,-0.03808208182,-0.554586947,0.03355484083,2024-06-05 20:04:53.289638
52.33012771,-0.4390091598,-0.5797531009,-0.3477985859,2024-06-05 20:04:53.330128
52.37059745,-0.08335448056,-0.6175688505,-0.304390341,2024-06-05 20:04:53.370597
52.41103854,-0.352858454,-0.3087844253,-0.3169068098,2024-06-05 20:04:53.411039
52.4515551,-0.3696358502,0.07163692266,-0.4717650712,2024-06-05 20:04:53.451555
52.49207078,-0.5015916228,0.2239652425,-0.5833482146,2024-06-05 20:04:53.492071
52.53254088,-0.4443353117,0.293471694,-0.6115769148,2024-06-05 20:04:53.532541
52.57300745,-0.5916038156,0.4540555775,-0.4693683088,2024-06-05 20:04:53.573007
52.61347734,-0.5572500229,0.643800199,-0.3772256374,2024-06-05 20:04:53.613477
52.65397823,-0.6544525623,0.8499227762,-0.3041240275,2024-06-05 20:04:53.653978
52.69446318,-0.4435364008,0.8432651162,-0.2647103965,2024-06-05 20:04:53.694463
52.73493942,-0.272167027,-0.02250304818,-0.1123820841,2024-06-05 20:04:53.734939
52.77541609,0.2613815665,-1.876407981,0.2415415943,2024-06-05 20:04:53.775416
52.81587568,0.8489907384,-4.144954681,0.5793536305,2024-06-05 20:04:53.815876
52.85637568,0.8444634676,-1.904370308,0.4762923121,2024-06-05 20:04:53.856376
52.89682646,2.397306919,-0.1175750941,-0.0817566365,2024-06-05 20:04:53.896826
52.93730515,2.448970795,1.313166022,-0.8768199086,2024-06-05 20:04:53.937305
52.97779583,2.165086031,2.958418369,-0.2950695455,2024-06-05 20:04:53.977796
53.01828109,1.082809329,3.01274538,0.3971987665,2024-06-05 20:04:54.018281
53.05879338,0.2066552043,1.570153475,0.5090482235,2024-06-05 20:04:54.058793
53.09924005,1.20903945,-0.224897325,0.8102428913,2024-06-05 20:04:54.099240
53.13971208,0.7817478776,-0.4584496617,0.4517919421,2024-06-05 20:04:54.139712
53.18017687,-0.148067385,-0.9616391063,-0.204258427,2024-06-05 20:04:54.180177
53.22069349,-0.03222329915,-0.7800168991,-0.2503297627,2024-06-05 20:04:54.220693
53.26115677,-0.1834863871,-1.059640527,-0.07962616533,2024-06-05 20:04:54.261157
53.30169245,-0.4440690279,-2.098509073,-0.02769605815,2024-06-05 20:04:54.301692
53.34214698,0.656050384,-0.9192960858,0.2415415943,2024-06-05 20:04:54.342147
53.38259677,0.4581833482,-0.5314181447,0.1712362021,2024-06-05 20:04:54.382597
53.42305922,-0.1728340536,-0.2619141638,0.5338149071,2024-06-05 20:04:54.423059
53.46357062,-1.14672339,-0.07816147059,-0.3459344208,2024-06-05 20:04:54.463571
53.50406661,1.16083765,2.427266598,-0.3740299344,2024-06-05 20:04:54.504067
53.54453844,0.1443390697,0.6504579186,0.1033276021,2024-06-05 20:04:54.544538
53.58500453,-0.4975969791,-1.362832546,-0.104392834,2024-06-05 20:04:54.585005
53.62544396,-0.3770924807,-3.574389458,-0.325695008,2024-06-05 20:04:54.625444
53.66597479,-1.623015642,-3.846157074,0.1347519755,2024-06-05 20:04:54.665975
53.70645521,-2.864278555,1.756569266,0.9904004335,2024-06-05 20:04:54.706455
53.74690469,-0.6949313879,0.6512568593,0.7516550422,2024-06-05 20:04:54.746905
53.78743125,-0.214644447,-0.08508548886,-0.3094501793,2024-06-05 20:04:54.787431
53.82788906,-0.8733579516,0.2532591522,-0.2013290375,2024-06-05 20:04:54.827889
53.86836979,-0.560978353,1.406373858,-0.1991985738,2024-06-05 20:04:54.868370
53.90887406,-0.4701672196,1.011571884,-0.2604494691,2024-06-05 20:04:54.908874
53.94932094,-0.6933335662,0.1347519755,-0.1504641622,2024-06-05 20:04:54.949321
53.98982218,-0.5330159664,0.6042534113,0.1792254597,2024-06-05 20:04:54.989822
54.0303101,0.1326215118,1.187867999,0.2189053893,2024-06-05 20:04:55.030310
54.07076416,0.2629793882,2.387586594,0.2560553849,2024-06-05 20:04:55.070764
54.11125047,1.22395277,1.545653105,0.9326115251,2024-06-05 20:04:55.111250
54.15172724,1.308638811,0.2077204436,0.7191654444,2024-06-05 20:04:55.151727
54.19220765,1.293192863,2.200904608,-0.2804225981,2024-06-05 20:04:55.192208
54.23271864,1.239132285,3.111146212,-0.04793548584,2024-06-05 20:04:55.232719
54.27315937,0.2416747361,1.087203503,0.0330222249,2024-06-05 20:04:55.273159
54.31366125,-0.06551183015,0.7889382243,-0.1821548492,2024-06-05 20:04:55.313661
54.35419333,0.2366148829,0.8957278132,-0.2612484097,2024-06-05 20:04:55.354193
54.39458354,0.04260931909,-0.2400768995,-0.2031932026,2024-06-05 20:04:55.394584
54.43508187,-0.168040514,-0.6098458767,-0.2183727771,2024-06-05 20:04:55.435082
54.47556229,-0.3961335421,0.6274222732,-0.1291595101,2024-06-05 20:04:55.475562
54.5160425,-0.1840189993,0.05752258375,-0.134485662,2024-06-05 20:04:55.516042
54.55651812,-0.1904104054,-0.1061238423,-0.2953358591,2024-06-05 20:04:55.556518
54.59699646,-0.4797543287,1.141796589,-0.133154124,2024-06-05 20:04:55.596996
54.63748448,-0.6858769059,1.899443626,0.0007989247679,2024-06-05 20:04:55.637484
54.67796349,-0.2647103965,1.351248145,-0.2141118348,2024-06-05 20:04:55.677963
54.71844703,0.2877460718,-0.2344844192,-0.5852124095,2024-06-05 20:04:55.718447
54.75894015,-0.08655018359,-1.113168478,-0.5276898146,2024-06-05 20:04:55.758940
54.79942297,-0.34513551,0.4183702767,-0.1254311949,2024-06-05 20:04:55.799423
54.83989245,-0.2063889056,1.27295351,0.01411433797,2024-06-05 20:04:55.839892
54.88038812,-0.004260932095,-0.3295564651,-0.2005301118,2024-06-05 20:04:55.880388
54.92087344,-0.4536561072,-1.139533043,-0.1113168523,2024-06-05 20:04:55.920873
54.96131765,-0.9015865922,-0.5777557492,0.2707023323,2024-06-05 20:04:55.961318
55.00181984,-1.007710457,0.4527240396,0.3772256374,2024-06-05 20:04:56.001820
55.04228844,-0.4544550478,0.7844109535,0.08308817446,2024-06-05 20:04:56.042288
55.08277229,-0.2620473206,-1.24805367,-0.3557878435,2024-06-05 20:04:56.082772
55.1232651,-0.509314537,-0.8519201279,0.03808208182,2024-06-05 20:04:56.123265
55.1637262,-0.0260982085,-1.721549749,-0.0820229426,2024-06-05 20:04:56.163726
55.2041863,-0.3078523576,0.4940018058,0.2619141638,2024-06-05 20:04:56.204186
55.24469005,-0.1509967744,1.004914165,0.3481980562,2024-06-05 20:04:56.244690
55.28515005,0.4613790512,-0.3545894325,-0.1592523307,2024-06-05 20:04:56.285150
55.32562807,0.2741643488,0.5730953813,-0.1209039465,2024-06-05 20:04:56.325628
55.366105,0.3913399875,1.360302567,-0.02157096937,2024-06-05 20:04:56.366105
55.4065913,0.527423501,0.3619129062,-0.3094501793,2024-06-05 20:04:56.406591
55.44710083,0.4107804894,-0.1932066381,-0.4376776218,2024-06-05 20:04:56.447101
55.4875926,0.4283568263,0.5858781338,-0.403323859,2024-06-05 20:04:56.487593
55.52807791,0.5588479042,1.795450211,-0.2711018026,2024-06-05 20:04:56.528078
55.5685575,0.6302185059,2.839911222,-0.104392834,2024-06-05 20:04:56.568557
55.60904536,0.2274272442,2.21954608,0.09959928691,2024-06-05 20:04:56.609045
55.64949812,-0.0114512546,0.473762393,0.2725664973,2024-06-05 20:04:56.649498
55.68996234,0.3772256374,0.9511199594,0.2504629195,2024-06-05 20:04:56.689962
55.7304525,0.5753589869,0.5406057835,-0.1925408691,2024-06-05 20:04:56.730452
55.77094776,0.03195698932,0.7942643762,0.03248960897,2024-06-05 20:04:56.770948
55.81142416,0.3332847953,0.8581783772,-0.1235670298,2024-06-05 20:04:56.811424
55.85190286,0.6933335662,0.4567186534,-0.1528609395,2024-06-05 20:04:56.851903
55.89238432,0.3157084286,-0.3063876629,-0.1270290315,2024-06-05 20:04:56.892384
55.93285588,0.0298265256,-0.4693683088,-0.1643121988,2024-06-05 20:04:56.932856
55.97335911,-0.08362079412,-0.2174406946,0.02476666868,2024-06-05 20:04:56.973359
56.01386541,-0.343803972,-0.2419410497,0.04260931909,2024-06-05 20:04:57.013865
56.05436234,-0.5705654621,-0.5324833393,-0.06391397864,2024-06-05 20:04:57.054362
56.09478531,-1.200517654,-0.5774894357,0.1829537749,2024-06-05 20:04:57.094785
56.13523427,-1.620618939,-0.5548532605,0.3308880031,2024-06-05 20:04:57.135234
56.17571489,-1.664826035,-0.9584434032,0.4041227698,2024-06-05 20:04:57.175715
56.21616943,-1.788659453,-0.7845441103,0.5532553792,2024-06-05 20:04:57.216169
56.25670203,-1.998244047,0.01424749196,0.3625786901,2024-06-05 20:04:57.256702
56.29719948,-1.517424464,1.382139802,0.2103835195,2024-06-05 20:04:57.297199
56.3376788,0.6187672615,1.305975676,-0.403323859,2024-06-05 20:04:57.337679
56.37813989,-0.988935709,2.131131887,0.02769605815,2024-06-05 20:04:57.378140
56.41863583,-0.8717600703,2.037657738,0.09666989744,2024-06-05 20:04:57.418636
56.45910333,0.6155715585,0.04953333735,-0.06897383928,2024-06-05 20:04:57.459103
56.49962463,0.3679048419,0.3355484009,0.28241992,2024-06-05 20:04:57.499625
56.54006989,-0.4656399786,-0.3657743931,0.414242506,2024-06-05 20:04:57.540070
56.58055911,-0.3291569948,-0.3604482114,0.2418078929,2024-06-05 20:04:57.580559
56.6210201,-0.1920082569,0.4529903531,0.1062569916,2024-06-05 20:04:57.621020
56.66152088,-0.3006620109,-0.1870815456,-0.1243659556,2024-06-05 20:04:57.661521
56.70199739,-0.293471694,-0.3055887222,-0.1584534049,2024-06-05 20:04:57.701997
56.74245453,-0.304390341,-0.3226324618,-0.2356828004,2024-06-05 20:04:57.742455
56.78293791,-0.3715000153,-0.149265781,-0.158986032,2024-06-05 20:04:57.782938
56.82344135,-0.5005263686,0.1627143472,-0.03062544949,2024-06-05 20:04:57.823441
56.8639612,-0.3778914213,-0.5702991486,-0.2788247466,2024-06-05 20:04:57.863961
56.90443114,-0.04154408723,-0.4523245692,-0.2489982247,2024-06-05 20:04:57.904431
56.94484083,0.2109161317,-0.3356815577,0.06364767253,2024-06-05 20:04:57.944841
56.98533453,0.5681686401,-1.78093648,-0.1049254537,2024-06-05 20:04:57.985335
57.02581427,1.411167502,-0.365241766,0.02529928461,2024-06-05 20:04:58.025814
57.06629396,2.145645618,0.1334204376,0.1584534049,2024-06-05 20:04:58.066294
57.10679833,2.036059856,0.8491238952,-0.07376738638,2024-06-05 20:04:58.106798
57.14726505,2.227934837,1.220623851,-0.1459369212,2024-06-05 20:04:58.147265
57.18774479,2.077470779,0.8592435718,-0.04207670316,2024-06-05 20:04:58.187745
57.22823578,0.5870765448,-0.8724258542,0.4557865858,2024-06-05 20:04:58.228236
57.26869505,0.8014547229,-0.9086437821,0.5157059431,2024-06-05 20:04:58.268695
57.30920172,0.1864157766,-0.8580452204,0.5750926733,2024-06-05 20:04:58.309202
57.34967583,-0.03888100386,-1.664293408,0.5356790423,2024-06-05 20:04:58.349676
57.39014885,0.1238333359,-1.192661524,0.2356828004,2024-06-05 20:04:58.390149
57.43058963,0.2517944574,-1.644586682,-0.12117026,2024-06-05 20:04:58.430590
57.47110193,0.7756227851,-2.969736576,-0.3201025128,2024-06-05 20:04:58.471102
57.51160739,0.9528509378,-2.032198191,0.3244965971,2024-06-05 20:04:58.511607
57.55207604,-0.1105179265,-0.1748313755,0.6605776548,2024-06-05 20:04:58.552076
57.59256484,-0.6848116517,0.5121107697,0.2936048508,2024-06-05 20:04:58.592565
57.63300437,0.8716269135,1.776009798,-0.1733666807,2024-06-05 20:04:58.633004
57.67351354,0.3013277948,1.45777142,-0.1462032348,2024-06-05 20:04:58.673514
57.71404453,-1.009574652,-1.271222472,-0.1986659616,2024-06-05 20:04:58.714045
57.7545288,-0.9516525269,-3.042039156,-0.5311518312,2024-06-05 20:04:58.754529
57.79496385,-1.156310439,-2.685319185,0.1091863886,2024-06-05 20:04:58.794964
57.83544411,-1.276149154,4.626440048,0.5663045049,2024-06-05 20:04:58.835444
57.87587062,-1.126217604,2.07707119,0.3103822768,2024-06-05 20:04:58.875871
57.91631969,-0.6453980803,-1.441659689,-0.3993292153,2024-06-05 20:04:58.916320
57.95682911,-0.9106410742,-1.002384305,-0.4288894534,2024-06-05 20:04:58.956829
57.99736531,-0.8690969944,0.7857425213,-0.06045197323,2024-06-05 20:04:58.997365
58.0378362,-0.8302159905,1.243260145,-0.09480573982,2024-06-05 20:04:59.037836
58.078315,-1.020759583,1.353911161,-0.07696308941,2024-06-05 20:04:59.078315
58.11880781,-0.5963973403,0.5882749557,-0.02689713426,2024-06-05 20:04:59.118808
58.15928448,-0.1592523307,0.1097190008,-0.09720251709,2024-06-05 20:04:59.159284
58.19976526,-0.09240896255,0.5957315564,0.1991985738,2024-06-05 20:04:59.199765
58.24024052,0.1161103994,1.746183276,0.4541887343,2024-06-05 20:04:59.240241
58.28072568,1.627809167,1.967085958,0.0708379969,2024-06-05 20:04:59.280726
58.32122849,3.183582067,0.2828193605,-0.4493951797,2024-06-05 20:04:59.321228
58.36168021,2.830723524,0.7332797647,-0.5111786723,2024-06-05 20:04:59.361680
58.40214922,0.5101134777,1.572283983,0.03941362351,2024-06-05 20:04:59.402149
58.44262193,2.000640869,2.893172979,0.4635095298,2024-06-05 20:04:59.442622
58.48310635,1.431673169,0.5187684894,-0.1126483902,2024-06-05 20:04:59.483106
58.52363052,-0.5748263597,0.6175688505,0.3886769116,2024-06-05 20:04:59.523631
58.56412969,-0.5471302867,0.5856118798,0.4448679388,2024-06-05 20:04:59.564130
58.60456708,-0.8770862222,-0.518369019,0.4493951797,2024-06-05 20:04:59.604567
58.64500708,-0.05299534276,0.1278279573,0.4374113083,2024-06-05 20:04:59.645007
58.68548156,2.435389042,-0.2440715134,-0.4629769027,2024-06-05 20:04:59.685482
58.72595463,0.7758890986,0.7788184881,-0.216508612,2024-06-05 20:04:59.725955
58.76645682,-0.1019960642,0.6170362234,0.8440639973,2024-06-05 20:04:59.766457
58.80696495,0.02396774292,0.1914756298,0.5713643432,2024-06-05 20:04:59.806965
58.84744807,-0.2527265251,-0.123167567,0.09640359133,2024-06-05 20:04:59.847448
58.88792588,-0.6411371231,-0.004394086078,-0.2231663167,2024-06-05 20:04:59.887926
58.92840682,-0.07003907114,0.2841508985,-0.5359453559,2024-06-05 20:04:59.928407
58.96887505,-0.3424724042,-1.161370277,-0.3721657991,2024-06-05 20:04:59.968875
59.00936005,-0.805449307,0.01185071748,-0.3525921404,2024-06-05 20:05:00.009360
59.04984099,-0.4589822888,-0.01584534161,-0.5212984085,2024-06-05 20:05:00.049841
59.09031401,-0.1568555683,-0.5821498632,-0.4858794212,2024-06-05 20:05:00.090314
59.13080828,-0.2186390758,-0.2059894353,-0.305721879,2024-06-05 20:05:00.130808
59.17129739,-0.2034595013,-0.1615159512,-0.2348838747,2024-06-05 20:05:00.171297
59.21174318,-0.03861469775,-0.4107804894,-0.3732310236,2024-06-05 20:05:00.211743
59.25223193,-0.2023942769,-0.0731016174,-0.376160413,2024-06-05 20:05:00.252232
59.29274807,-0.3190372884,-0.1825543046,-0.3619129062,2024-06-05 20:05:00.292748
59.33320734,-0.4576507509,0.01398118306,-0.1448716968,2024-06-05 20:05:00.333207
59.37372281,-0.5726959109,0.1182408631,-0.04447348043,2024-06-05 20:05:00.373723
59.41413906,-0.6342130899,-0.1793586165,0.02396774292,2024-06-05 20:05:00.414139
59.4546189,-0.6302185059,-0.4174381793,0.2954690158,2024-06-05 20:05:00.454619
59.4950988,-0.6323489547,-0.4547213614,0.2715012729,2024-06-05 20:05:00.495099
59.53559,-0.9138367772,-0.521032095,0.05512581021,2024-06-05 20:05:00.535590
59.57607541,-0.6501916051,-0.3849485815,-0.1238333359,2024-06-05 20:05:00.576075
59.61655515,-0.3860138059,0.2098509073,-0.08335448056,2024-06-05 20:05:00.616555
59.65707193,-0.4544550478,0.2679060996,-0.000266308256,2024-06-05 20:05:00.657072
59.69747271,-0.3062545061,-0.1756303012,-0.06045197323,2024-06-05 20:05:00.697473
59.73801531,-0.03382114694,-0.1868152469,-0.04527240247,2024-06-05 20:05:00.738015
59.77847437,-0.2961347699,0.4535229504,0.0822892487,2024-06-05 20:05:00.778474
59.81896208,-0.2386122048,0.3589835167,0.01438064594,2024-06-05 20:05:00.818962
59.85945333,0.1070559174,-0.1908098608,-0.1086537689,2024-06-05 20:05:00.859453
59.89993838,-0.06684337556,-0.09786828607,-0.06897383928,2024-06-05 20:05:00.899938
59.94041307,-0.3262276053,0.1848179251,0.03328853101,2024-06-05 20:05:00.940413
59.98088864,-0.05725627393,-0.04966649041,-0.03275591508,2024-06-05 20:05:00.980889
60.0213575,0.04953333735,-0.1561897993,-0.01597849466,2024-06-05 20:05:01.021358
60.06186125,-0.1914756298,0.09613727778,0.0458050184,2024-06-05 20:05:01.061861
60.10231745,-0.1704372764,0.07003907114,0.01384802908,2024-06-05 20:05:01.102317
60.14278734,0.02450035885,-0.1908098608,-0.04473978654,2024-06-05 20:05:01.142787
60.18329286,-0.03834838793,-0.05872096866,-0.01304910425,2024-06-05 20:05:01.183293
60.22376875,-0.1416759938,0.1738992929,0.04367455468,2024-06-05 20:05:01.223769
60.26423989,-0.01571218669,-0.1239664927,-0.005858781748,2024-06-05 20:05:01.264240
60.30472474,0.07323476672,-0.1535267085,-0.03754946589,2024-06-05 20:05:01.304725
60.34518594,-0.05059856921,0.06870753318,0.02157096937,2024-06-05 20:05:01.345186
60.38568677,-0.02796236612,0.001198387123,-0.006125089712,2024-06-05 20:05:01.385687
60.42611896,0.04154408723,0.02170412242,0.004793548491,2024-06-05 20:05:01.426119
60.4666413,0.03142437339,-0.108254306,0.005059856921,2024-06-05 20:05:01.466641
60.50710818,0.003994623665,-0.1010639817,-0.000266308256,2024-06-05 20:05:01.507108
60.54766307,0.03754946589,-0.0467370972,0.0229025092,2024-06-05 20:05:01.547663
60.58813552,0.004527240526,0.01185071748,0.03994623944,2024-06-05 20:05:01.588136
60.62856583,0.06178351492,0.1233007237,0.04660394415,2024-06-05 20:05:01.628566
60.66910354,0.0596530512,0.04154408723,0.01864157803,2024-06-05 20:05:01.669104
60.7095287,0.03488638252,-0.008388710208,0.03222329915,2024-06-05 20:05:01.709529
60.75004052,0.06311506033,-0.2099840641,0.01065232977,2024-06-05 20:05:01.750041
60.7905239,0.08308817446,-0.3023930192,-0.03621792421,2024-06-05 20:05:01.790524
60.83102172,0.06125089899,0.1573881805,-0.02236989327,2024-06-05 20:05:01.831022
60.87146416,0.151263088,0.5027899742,-0.02929390781,2024-06-05 20:05:01.871464
60.91189151,0.08974587917,0.3177057505,-0.01011971384,2024-06-05 20:05:01.911892
60.95237224,-0.07030537724,0.1147788614,0.01038602181,2024-06-05 20:05:01.952372
60.99286739,-0.09347419441,-0.01398118306,0.02396774292,2024-06-05 20:05:01.992867
61.03335531,-0.02023942769,-0.05872096866,-0.007722939365,2024-06-05 20:05:02.033355
61.07385291,-0.009587096982,0.1118494645,-0.03861469775,2024-06-05 20:05:02.073853
61.11433557,0.03488638252,0.3621792197,-0.0458050184,2024-06-05 20:05:02.114336
