Time (s),Linear Acceleration x (m/s^2),Linear Acceleration y (m/s^2),Linear Acceleration z (m/s^2),Datetime
0.107319907,-0.01565313339,0.7232580185,-0.1174645424,2024-06-05 20:04:01.107320
0.191859126,-0.1070599556,0.4233341217,0.6254239082,2024-06-05 20:04:01.191859
0.23218496,0.702067852,0.0086581707,0.2026734352,2024-06-05 20:04:01.232185
0.273202512,1.278580666,-1.159353733,1.665074348,2024-06-05 20:04:01.273203
0.313708085,-0.9455864429,0.2987718582,0.02462768555,2024-06-05 20:04:01.313708
0.354163241,1.210862637,-1.483286619,-0.2343082428,2024-06-05 20:04:01.354163
0.394845845,2.023448467,-0.1359188557,0.5863752365,2024-06-05 20:04:01.394846
0.434994126,0.06086301804,0.485073328,1.323609352,2024-06-05 20:04:01.434994
0.475613032,0.9862415791,0.1738777161,-0.1067152023,2024-06-05 20:04:01.475613
0.516063241,0.1322541237,1.268913507,0.02443790436,2024-06-05 20:04:01.516063
0.556560168,0.2532799244,0.4207880497,-0.06886100769,2024-06-05 20:04:01.556560
0.59713522,0.07858896255,1.277448654,1.160021782,2024-06-05 20:04:01.597135
0.637597928,0.3933231831,0.9124879837,1.067427635,2024-06-05 20:04:01.637598
0.678025585,1.058149099,-1.246238708,1.846678734,2024-06-05 20:04:01.678026
0.71850772,1.990029097,-3.344964027,0.8033008575,2024-06-05 20:04:01.718508
0.759003814,5.840621471,-6.663126945,-6.111767769,2024-06-05 20:04:01.759004
0.799489907,6.394997597,-7.61852169,-5.412568092,2024-06-05 20:04:01.799490
0.839995064,2.997591972,-11.29972267,-3.151715755,2024-06-05 20:04:01.839995
0.88045522,1.944019079,-10.78106117,-6.944160938,2024-06-05 20:04:01.880455
0.920887147,-6.80489397,-10.9346962,2.863924503,2024-06-05 20:04:01.920887
0.961406835,-14.02780342,-8.725250244,3.874039173,2024-06-05 20:04:01.961407
1.001841366,-10.58354855,-2.501073837,7.174267769,2024-06-05 20:04:02.001841
1.042391782,-17.54543304,-3.980319023,-0.1123224497,2024-06-05 20:04:02.042392
1.082846105,-13.50906944,5.45591116,26.44554138,2024-06-05 20:04:02.082846
1.12334673,-13.7985096,2.08902216,8.857692719,2024-06-05 20:04:02.123347
1.163515793,2.690959454,2.159245968,-1.793023944,2024-06-05 20:04:02.163516
1.204253762,8.990472794,1.899946451,-7.174946785,2024-06-05 20:04:02.204254
1.244768553,11.65458012,2.550274134,-7.453352928,2024-06-05 20:04:02.244769
1.285279907,7.074378014,0.2710618973,-1.908087492,2024-06-05 20:04:02.285280
1.325699907,5.443592072,-3.382379055,0.09994959831,2024-06-05 20:04:02.325700
1.36621371,2.305569649,-4.632127285,-4.967969894,2024-06-05 20:04:02.366214
1.406396991,-2.746374607,-6.717806816,-2.939884901,2024-06-05 20:04:02.406397
1.447316418,1.091103077,-5.4453969,5.002524376,2024-06-05 20:04:02.447316
1.487635793,1.869591713,-6.066576481,-2.52552247,2024-06-05 20:04:02.487636
1.528113345,2.550500393,-3.551647663,-5.926316261,2024-06-05 20:04:02.528113
1.568627876,-0.4059205055,-3.079426765,-4.544592381,2024-06-05 20:04:02.568628
1.60906371,-17.08790588,-1.499976158,5.591901302,2024-06-05 20:04:02.609064
1.64959548,-15.6922102,4.370619297,11.58685112,2024-06-05 20:04:02.649595
1.690114751,-6.011586189,3.23065424,1.308308601,2024-06-05 20:04:02.690115
1.730448293,2.405502319,6.462376118,-0.04341806844,2024-06-05 20:04:02.730448
1.77099621,3.870201588,4.659771442,-5.342774391,2024-06-05 20:04:02.770996
1.811498553,5.953674316,0.9827880859,-6.936356544,2024-06-05 20:04:02.811499
1.851979855,4.757386684,-3.407335281,-4.458106518,2024-06-05 20:04:02.851980
1.892468762,8.102749825,-5.698254585,0.609102428,2024-06-05 20:04:02.892469
1.932859491,6.558884144,-7.861131668,-1.175349951,2024-06-05 20:04:02.932859
1.973369751,4.620129585,-8.058894157,-1.017485261,2024-06-05 20:04:02.973370
2.013878085,4.582334042,-5.807322979,-0.3269674778,2024-06-05 20:04:03.013878
2.054367772,-4.77167654,-4.874001026,-5.774567127,2024-06-05 20:04:03.054368
2.094868085,-12.45007992,0.157412529,-0.8556030989,2024-06-05 20:04:03.094868
2.135323397,-13.50801182,4.058918476,6.21540451,2024-06-05 20:04:03.135323
2.175727303,-10.28451157,6.300130367,6.006094933,2024-06-05 20:04:03.175727
2.216431418,-2.565295219,6.60351181,-0.7255926728,2024-06-05 20:04:03.216431
2.256735376,7.334706306,8.178746223,-0.9063907862,2024-06-05 20:04:03.256735
2.297293762,6.750921249,4.792086124,1.969969749,2024-06-05 20:04:03.297294
2.337723657,7.460068226,1.57508111,-2.103983402,2024-06-05 20:04:03.337724
2.378196782,7.495330334,-3.167602539,-3.775369167,2024-06-05 20:04:03.378197
2.418595012,0.4505753517,-5.053002834,2.997598886,2024-06-05 20:04:03.418595
2.459127876,-2.534593582,-4.63875103,3.450629711,2024-06-05 20:04:03.459128
2.499660949,-0.5724229813,-2.954632759,0.1778445244,2024-06-05 20:04:03.499661
2.54012048,1.657164097,-0.1213827133,3.088841915,2024-06-05 20:04:03.540120
2.580646887,-2.150146961,-1.54728651,0.9739422798,2024-06-05 20:04:03.580647
2.621055897,-3.854617596,-1.173262596,-0.4486721754,2024-06-05 20:04:03.621056
2.661565689,0.2830710411,3.639496326,-3.384571314,2024-06-05 20:04:03.661566
2.702088449,1.774155617,0.7793393135,-4.08555603,2024-06-05 20:04:03.702088
2.742510064,-0.01940274239,2.584123611,-5.646605968,2024-06-05 20:04:03.742510
2.783024387,-1.06695497,3.596530914,-3.372766018,2024-06-05 20:04:03.783024
2.823464282,-0.1489973068,-6.721468925,1.089129925,2024-06-05 20:04:03.823464
2.863963345,-9.765069008,-4.789714336,-1.571975946,2024-06-05 20:04:03.863963
2.904458657,-18.50816917,-0.06240653992,-2.86292696,2024-06-05 20:04:03.904459
2.944956314,-0.07585120201,3.802065849,-1.040251017,2024-06-05 20:04:03.944956
2.98535548,17.76406288,-12.4046669,-6.909801006,2024-06-05 20:04:03.985355
3.025879595,-1.387621641,-9.100154877,12.90766621,2024-06-05 20:04:04.025880
3.066375116,-2.699768066,-0.07509994507,3.02088666,2024-06-05 20:04:04.066375
3.106751262,-0.6013675928,1.6233325,-2.724434853,2024-06-05 20:04:04.106751
3.147280064,-0.666428566,0.5911645889,-2.876713037,2024-06-05 20:04:04.147280
3.187808605,-0.06104874611,0.2347345352,-0.05494511127,2024-06-05 20:04:04.187809
3.228175689,-1.317184091,-0.413725853,1.939378977,2024-06-05 20:04:04.228176
3.268658501,-1.214971542,-0.9092311859,0.5744450688,2024-06-05 20:04:04.268659
3.309179855,-2.174993515,-1.541295052,1.474253297,2024-06-05 20:04:04.309180
3.349678293,-3.20755434,-1.775260925,2.276242971,2024-06-05 20:04:04.349678
3.390170637,-3.751096249,-3.411860466,0.7251304984,2024-06-05 20:04:04.390171
3.430657824,-3.687004805,-2.78622818,2.248605251,2024-06-05 20:04:04.430658
3.47104522,-3.02856946,-1.062830925,4.057388306,2024-06-05 20:04:04.471045
3.511598814,-0.7904686928,-0.9756832123,1.843673825,2024-06-05 20:04:04.511599
3.552084282,1.294420004,-1.204882622,0.3022507429,2024-06-05 20:04:04.552084
3.592493762,3.930205822,-1.151062965,-5.598711014,2024-06-05 20:04:04.592494
3.632982303,3.254240274,-0.1918983459,-6.392736435,2024-06-05 20:04:04.632982
3.673447199,-1.644815803,0.4285583496,-3.966340065,2024-06-05 20:04:04.673447
3.71397246,-4.473567009,-2.122720718,-0.6196910143,2024-06-05 20:04:04.713972
3.754461105,1.504449368,1.135454178,-2.679059267,2024-06-05 20:04:04.754461
3.794882303,2.962136269,3.547888756,-2.639124393,2024-06-05 20:04:04.794882
3.835425428,3.107301235,4.555235386,-2.722629309,2024-06-05 20:04:04.835425
3.875891366,1.333973169,4.48572731,-0.8843501806,2024-06-05 20:04:04.875891
3.916374647,0.302900672,1.527094841,1.784092188,2024-06-05 20:04:04.916375
3.956845741,-2.298142433,-4.465927124,4.108176231,2024-06-05 20:04:04.956846
3.99731147,-2.363024473,-5.584465981,3.43898201,2024-06-05 20:04:04.997311
4.037819803,0.6625730991,1.045196533,0.8204216957,2024-06-05 20:04:05.037820
4.078298762,1.110521197,3.307431221,-5.869312286,2024-06-05 20:04:05.078299
4.118768241,0.6258513927,-9.779894829,4.857128143,2024-06-05 20:04:05.118768
4.159198657,3.678791046,1.008955956,-6.107444763,2024-06-05 20:04:05.159199
4.199745428,4.460189819,10.83868599,-8.275985718,2024-06-05 20:04:05.199745
4.240193085,6.870325089,5.000566483,-1.246601582,2024-06-05 20:04:05.240193
4.280719282,3.009353876,-2.424164772,0.7948037386,2024-06-05 20:04:05.280719
4.32117621,0.6969857216,-3.53118515,-6.076389313,2024-06-05 20:04:05.321176
4.361650272,-7.244367599,-3.839600563,5.158072472,2024-06-05 20:04:05.361650
4.402125741,-5.832734108,-0.4995536804,-4.769052982,2024-06-05 20:04:05.402126
4.442584074,-1.622066975,2.391505241,4.106340408,2024-06-05 20:04:05.442584
4.483077147,1.264595509,2.66212368,1.758222938,2024-06-05 20:04:05.483077
4.523597199,0.3481626511,0.8911800385,-0.5291523933,2024-06-05 20:04:05.523597
4.56406246,-0.1582200527,0.1537876129,0.0269138813,2024-06-05 20:04:05.564062
4.604501939,-2.967398167,-0.7288408279,1.180933356,2024-06-05 20:04:05.604502
4.644950428,-4.423377037,-0.4473581314,1.096036196,2024-06-05 20:04:05.644950
4.685464491,-1.992422581,-0.7110567093,-0.516864419,2024-06-05 20:04:05.685464
4.726022407,1.699166775,-3.719402313,-6.108855247,2024-06-05 20:04:05.726022
4.76645798,9.200201988,1.273212433,-4.700870514,2024-06-05 20:04:05.766458
4.806910637,3.533710003,-3.860484123,0.2368074656,2024-06-05 20:04:05.806911
4.847397147,4.209609985,0.3334860802,-1.751932144,2024-06-05 20:04:05.847397
4.887890168,2.556747913,-0.2348613739,-1.341185093,2024-06-05 20:04:05.887890
4.928358605,2.200505733,2.781609058,1.795966625,2024-06-05 20:04:05.928359
4.968833345,1.143270969,3.004816055,-0.8790514469,2024-06-05 20:04:05.968833
5.009355428,0.399772644,-0.2806968689,-1.067136765,2024-06-05 20:04:06.009355
5.049863762,0.05605983734,1.402231693,1.087674618,2024-06-05 20:04:06.049864
5.090338449,-2.597912312,1.346748352,0.8409811258,2024-06-05 20:04:06.090338
5.130808814,-1.971113205,0.7228879929,1.557404518,2024-06-05 20:04:06.130809
5.171216105,1.233001232,1.082828999,-1.692021608,2024-06-05 20:04:06.171216
5.211714126,1.510789394,0.9277386665,0.585372448,2024-06-05 20:04:06.211714
5.25218371,1.56374073,-0.1308751106,0.6603400707,2024-06-05 20:04:06.252184
5.292698918,1.654180527,0.5854372978,0.6481513977,2024-06-05 20:04:06.292699
5.33317121,0.2004876137,0.1743006706,1.456633329,2024-06-05 20:04:06.333171
5.373664855,0.5033812523,-0.1127419472,1.61936903,2024-06-05 20:04:06.373665
5.414114387,0.9946007729,0.2761764526,0.9270728827,2024-06-05 20:04:06.414114
5.45456897,1.40164423,1.057869434,1.328658223,2024-06-05 20:04:06.454569
5.495092199,1.416013718,1.132325649,2.012485504,2024-06-05 20:04:06.495092
5.535566678,2.328528881,0.9936938286,1.477808952,2024-06-05 20:04:06.535567
5.576056782,1.407870293,2.255478859,-0.05111718178,2024-06-05 20:04:06.576057
5.61657522,-0.2966976166,1.589245796,-0.2301405668,2024-06-05 20:04:06.616575
5.656965897,-1.483293533,1.08479929,-0.8911669254,2024-06-05 20:04:06.656966
5.697475376,-0.544649601,2.149389744,-0.4147512913,2024-06-05 20:04:06.697475
5.73795522,0.07798719406,3.184980869,-0.06422877312,2024-06-05 20:04:06.737955
5.778420637,-0.3585619926,3.842560768,-0.1418480873,2024-06-05 20:04:06.778421
5.818919178,0.5075559616,3.224101543,1.126579762,2024-06-05 20:04:06.818919
5.859380897,5.339984894,0.1159172058,7.158157349,2024-06-05 20:04:06.859381
5.899914178,6.312533379,1.345767498,-4.827919006,2024-06-05 20:04:06.899914
5.940368605,-1.590328813,-4.885202408,-0.3401310444,2024-06-05 20:04:06.940369
5.980800012,-4.522362709,-8.77395153,-5.27433157,2024-06-05 20:04:06.980800
6.021369178,-0.7021157742,-2.920556068,-6.811882496,2024-06-05 20:04:07.021369
6.061843085,-0.9522690773,-1.967700005,-2.127114058,2024-06-05 20:04:07.061843
6.10227673,-0.1773402691,-0.5081510544,-0.5071822405,2024-06-05 20:04:07.102277
6.142758501,-0.3975111246,0.2268190384,-1.784663796,2024-06-05 20:04:07.142759
6.18327147,1.361158133,2.476361275,-1.124510765,2024-06-05 20:04:07.183271
6.223703397,2.023231268,2.523806572,1.302624822,2024-06-05 20:04:07.223703
6.26423772,-0.2083108425,1.853737831,0.1061300039,2024-06-05 20:04:07.264238
6.304643449,-0.461099267,1.092223167,-1.463949919,2024-06-05 20:04:07.304643
6.34518246,0.8225854635,-0.4928483963,-1.304946184,2024-06-05 20:04:07.345182
6.385667095,1.6763165,0.05781555176,-4.785075188,2024-06-05 20:04:07.385667
6.426156157,2.498782635,0.03779029846,-0.8196106553,2024-06-05 20:04:07.426156
6.466567043,5.34376049,0.1322011948,0.6663098335,2024-06-05 20:04:07.466567
6.507041522,4.73689127,0.2394676208,2.320329905,2024-06-05 20:04:07.507042
6.547541001,-0.5089654922,-4.489143372,4.807349205,2024-06-05 20:04:07.547541
6.587998449,-2.076842546,-0.1003847122,-0.5061142445,2024-06-05 20:04:07.587998
6.62848746,1.771949768,4.707516193,-1.465832472,2024-06-05 20:04:07.628487
6.668958293,-0.2708473206,2.509149551,-1.029942274,2024-06-05 20:04:07.668958
6.709439387,-1.675080299,2.485879898,0.03910946846,2024-06-05 20:04:07.709439
6.749914907,-2.427597523,0.201713562,-5.224860191,2024-06-05 20:04:07.749915
6.790402876,-0.35410285,0.6398820877,-4.33757782,2024-06-05 20:04:07.790403
6.830897668,0.01949191093,-0.3353538513,-1.999155998,2024-06-05 20:04:07.830898
6.871365949,1.074302197,-0.123673439,4.036399841,2024-06-05 20:04:07.871366
6.911852199,1.932664871,0.1142921448,-0.3770470023,2024-06-05 20:04:07.911852
6.95233371,3.903009653,-0.2651576996,-0.7499108315,2024-06-05 20:04:07.952334
6.992770376,2.308569193,-5.715197563,5.319190502,2024-06-05 20:04:07.992770
7.033298032,-5.09828186,-3.771397591,4.464840889,2024-06-05 20:04:08.033298
7.073820637,-4.320820808,-0.595870018,1.16981411,2024-06-05 20:04:08.073821
7.114314335,-6.757112503,-2.770685196,2.005155563,2024-06-05 20:04:08.114314
7.154702824,-5.785219193,-2.41672802,1.386470795,2024-06-05 20:04:08.154703
7.195249439,-1.471840262,2.030990124,-0.8940300941,2024-06-05 20:04:08.195249
7.235683085,1.677621484,2.280671597,-1.34369874,2024-06-05 20:04:08.235683
7.276192355,1.801514745,1.563614845,-0.1442797482,2024-06-05 20:04:08.276192
7.316644126,2.107424259,1.66726923,0.3826289177,2024-06-05 20:04:08.316644
7.357136418,1.359755039,-0.7776918411,-1.248598218,2024-06-05 20:04:08.357136
7.39758397,4.092830658,-1.698505402,-1.791890383,2024-06-05 20:04:08.397584
7.438038032,6.926196098,-1.080040932,-5.654852867,2024-06-05 20:04:08.438038
7.478557824,2.701950073,2.88611269,-5.105100155,2024-06-05 20:04:08.478558
7.519057199,-1.748112321,3.623826504,2.3072505,2024-06-05 20:04:08.519057
7.559532394,-6.297961712,-3.302016258,0.3128359318,2024-06-05 20:04:08.559532
7.5999988,-4.867501259,-1.663942337,-3.563632011,2024-06-05 20:04:08.599999
7.640466092,0.1883196831,3.171858788,-0.1537103653,2024-06-05 20:04:08.640466
7.680946456,-0.6453604698,0.7706537247,1.876147866,2024-06-05 20:04:08.680946
7.721439946,-0.9841854572,-2.087246895,-1.212848663,2024-06-05 20:04:08.721440
7.761909217,-2.004773378,1.371243477,-4.802660942,2024-06-05 20:04:08.761909
7.802389894,-4.849642754,-1.399189949,-7.647628784,2024-06-05 20:04:08.802390
7.842875831,0.9036803246,-2.10941124,6.684546471,2024-06-05 20:04:08.842876
7.883381925,-3.164767265,-1.587126732,0.7579523325,2024-06-05 20:04:08.883382
7.923884737,-2.778639317,-0.2547492981,1.479497194,2024-06-05 20:04:08.923885
7.964311873,-3.936629772,-1.124316216,2.31870532,2024-06-05 20:04:08.964312
8.004826612,-2.978495598,-1.124541283,-0.5024188161,2024-06-05 20:04:09.004827
8.045327498,-0.6452805996,-1.689599991,7.424913406,2024-06-05 20:04:09.045327
8.085759581,0.7605808973,-0.9178171158,-0.4256813526,2024-06-05 20:04:09.085760
8.126269633,-0.05318677425,0.7799510956,-5.342061043,2024-06-05 20:04:09.126270
8.166735414,-0.443010807,0.4342985153,-4.735891342,2024-06-05 20:04:09.166735
8.207208539,-2.191712379,0.07872581482,-1.759873629,2024-06-05 20:04:09.207209
8.247689269,-4.129999161,-1.318051338,6.978318691,2024-06-05 20:04:09.247689
8.288150102,-1.749466658,0.2788743973,-4.183849812,2024-06-05 20:04:09.288150
8.328637654,-0.05850148201,-0.8352613449,1.25402236,2024-06-05 20:04:09.328638
8.369113956,-0.8433763981,-0.5219602585,1.266275644,2024-06-05 20:04:09.369114
8.409568696,-1.094159961,-0.2485427856,-0.5679047108,2024-06-05 20:04:09.409569
8.450055206,-0.1098424196,-0.6516218185,-1.188856602,2024-06-05 20:04:09.450055
8.490564112,1.308222771,-0.4580888748,-0.613989532,2024-06-05 20:04:09.490564
8.531052602,2.421157122,1.565376282,0.608097136,2024-06-05 20:04:09.531053
8.571519217,5.096502781,2.677100658,-1.193902969,2024-06-05 20:04:09.571519
8.611997394,3.390428066,0.9032917023,-2.555591583,2024-06-05 20:04:09.611997
8.652461664,-0.9907910228,-1.579672813,-1.406767249,2024-06-05 20:04:09.652462
8.692931664,-2.790091515,-1.241211891,8.123250961,2024-06-05 20:04:09.692932
8.733399581,-1.611586809,0.5469379425,-0.3719046712,2024-06-05 20:04:09.733400
8.773895519,-0.3382247686,0.01924705505,-0.8129564524,2024-06-05 20:04:09.773896
8.814384894,-0.2618608177,0.5005292892,-1.733662367,2024-06-05 20:04:09.814385
8.854874685,0.6188332438,0.09456634521,-0.8205735683,2024-06-05 20:04:09.854875
8.895374737,0.3756833076,-0.08859825134,-0.3657494783,2024-06-05 20:04:09.895375
8.935798539,1.10596323,0.5499105453,-1.364979863,2024-06-05 20:04:09.935799
8.976274789,1.249363065,0.679857254,1.017749786,2024-06-05 20:04:09.976275
9.016787758,-0.6878098845,-0.6232213974,-0.1673785746,2024-06-05 20:04:10.016788
9.057268904,-0.4566514492,0.06279850006,-0.3671445847,2024-06-05 20:04:10.057269
9.097743487,-1.080018282,-0.3759813309,0.5159455538,2024-06-05 20:04:10.097743
9.138225571,-0.9669423103,-0.4428482056,0.04074981809,2024-06-05 20:04:10.138226
9.178723956,0.01512336731,0.1034793854,-0.3229691386,2024-06-05 20:04:10.178724
9.219167446,0.5846678019,0.4611902237,-0.4066812396,2024-06-05 20:04:10.219167
9.259648956,-0.2064726353,0.2340650558,0.9158554077,2024-06-05 20:04:10.259649
9.300102289,-0.5473202467,-0.1882486343,0.1625819206,2024-06-05 20:04:10.300102
9.340631508,-0.7035354972,-0.05272865295,-0.07787765563,2024-06-05 20:04:10.340632
9.381087237,-1.298122168,-0.0946521759,-0.3191550374,2024-06-05 20:04:10.381087
9.421591717,-1.112113714,0.06275177002,0.4402455091,2024-06-05 20:04:10.421592
9.462027706,-0.2835349441,0.1673498154,-0.3981246054,2024-06-05 20:04:10.462028
9.502573019,-0.1966087818,0.2206144333,0.0412350893,2024-06-05 20:04:10.502573
9.543000883,-0.2270168662,-0.03455924988,-0.3266370893,2024-06-05 20:04:10.543001
9.583526717,0.1555814743,0.2989263535,-0.1114002466,2024-06-05 20:04:10.583527
9.624035935,1.026299357,0.4238157272,-0.07435190678,2024-06-05 20:04:10.624036
9.664409581,1.533880591,0.1589918137,-0.1752666831,2024-06-05 20:04:10.664410
9.704894633,0.9075996876,0.1836700439,-0.2016867995,2024-06-05 20:04:10.704895
9.745409529,-0.01377809048,-0.1423559189,-0.1456991434,2024-06-05 20:04:10.745410
9.785918539,0.3622063398,0.2345104218,-0.1780465841,2024-06-05 20:04:10.785919
9.826348435,0.1736798286,-0.02042484283,0.07475304604,2024-06-05 20:04:10.826348
9.866832185,0.09042465687,0.1130504608,0.000824034214,2024-06-05 20:04:10.866832
9.907332394,-0.4375663996,0.01749992371,-0.1873307228,2024-06-05 20:04:10.907332
9.947781717,-0.9131565094,-0.2897424698,0.2700076997,2024-06-05 20:04:10.947782
9.988247029,-0.6601846218,-0.4741668701,0.6732911468,2024-06-05 20:04:10.988247
10.0287325,0.2513936758,-0.134721756,0.1658475995,2024-06-05 20:04:11.028733
10.06922068,0.05969619751,0.5304965973,-0.1346587539,2024-06-05 20:04:11.069221
10.10972594,0.02968716621,0.5756015778,-0.6095067859,2024-06-05 20:04:11.109726
10.15021656,0.4260685444,0.391459465,-0.7479946613,2024-06-05 20:04:11.150217
10.19071672,-0.1609879732,0.1757411957,-0.6231682301,2024-06-05 20:04:11.190717
10.23112859,-0.3438058496,-0.2829437256,-0.3914364576,2024-06-05 20:04:11.231129
10.27163599,0.4249662161,0.1253204346,-0.09590697289,2024-06-05 20:04:11.271636
10.3121562,0.8283208609,0.2017679214,0.1551631689,2024-06-05 20:04:11.312156
10.35260172,0.4921096563,-0.03857517242,0.1012032628,2024-06-05 20:04:11.352602
10.39304646,0.006201267242,-0.06815910339,-0.3227156997,2024-06-05 20:04:11.393046
10.43351495,0.6329772472,-0.2133893967,0.7661560774,2024-06-05 20:04:11.433515
10.47400771,2.442362547,-0.4966421127,2.056009769,2024-06-05 20:04:11.474008
10.51454026,4.178562164,-0.3967971802,3.468812943,2024-06-05 20:04:11.514540
10.55496739,2.266765594,0.7005777359,2.743149042,2024-06-05 20:04:11.554967
10.59551797,0.3840845823,1.73209095,-3.682384014,2024-06-05 20:04:11.595518
10.63596146,0.2123582363,2.77238369,-5.783704281,2024-06-05 20:04:11.635961
10.67642073,4.382077217,1.963071823,-3.046689987,2024-06-05 20:04:11.676421
10.71690015,2.698399544,0.3523397446,3.179826021,2024-06-05 20:04:11.716900
10.7573888,1.073898315,2.304273605,-0.9790469408,2024-06-05 20:04:11.757389
10.79787474,3.406037092,1.410965919,-1.841902614,2024-06-05 20:04:11.797875
10.83834041,6.622814178,-0.6104869843,1.693615913,2024-06-05 20:04:11.838340
10.87882937,9.750102997,-2.880184174,6.353919029,2024-06-05 20:04:11.878829
10.91929833,7.902191162,2.487928391,-4.194899559,2024-06-05 20:04:11.919298
10.95975989,-6.394656658,2.1677351,-7.681467533,2024-06-05 20:04:11.959760
11.00023745,-13.85555744,0.1872797012,0.5316486359,2024-06-05 20:04:12.000237
11.04072625,3.28866744,-5.753456116,0.786485672,2024-06-05 20:04:12.040726
11.08121052,-0.3066924512,-4.263484955,-0.02318668365,2024-06-05 20:04:12.081211
11.12170646,1.500424027,0.2246932983,-2.29285121,2024-06-05 20:04:12.121706
11.16219286,1.962860823,-7.356479645,-2.278249741,2024-06-05 20:04:12.162193
11.20267698,-1.726625443,-7.729654312,2.90684557,2024-06-05 20:04:12.202677
11.24313083,4.671305656,-3.678666115,4.389034271,2024-06-05 20:04:12.243131
11.28362698,5.865781784,1.843064308,-0.8541835546,2024-06-05 20:04:12.283627
11.32413333,0.1692619324,4.414497375,-5.468799114,2024-06-05 20:04:12.324133
11.36459807,0.4894955158,10.35817242,1.658732533,2024-06-05 20:04:12.364598
11.40504245,5.364141464,9.833849907,1.302904367,2024-06-05 20:04:12.405042
11.44554541,11.35613823,10.24483776,-2.801483154,2024-06-05 20:04:12.445545
11.48602807,2.546727657,-1.670357704,2.306640148,2024-06-05 20:04:12.486028
11.526495,-0.5127689838,-6.676394463,-1.279030681,2024-06-05 20:04:12.526495
11.56696849,0.4391634464,-13.71872711,4.525242805,2024-06-05 20:04:12.566968
11.60744734,-5.942639351,-11.82521439,0.2607319355,2024-06-05 20:04:12.607447
11.64793724,-8.467455864,-5.96630764,-1.882260919,2024-06-05 20:04:12.647937
11.68841224,-2.16738534,2.623345375,-7.597328186,2024-06-05 20:04:12.688412
11.72887515,-5.247871399,9.839333534,-5.708457947,2024-06-05 20:04:12.728875
11.76936807,-5.42724514,13.50257301,2.893307447,2024-06-05 20:04:12.769368
11.80984875,2.075474977,19.73601723,-2.717768669,2024-06-05 20:04:12.809849
11.85033312,-5.839727402,4.593782425,0.3589071035,2024-06-05 20:04:12.850333
11.89081505,-3.406924725,4.020677567,0.578279078,2024-06-05 20:04:12.890815
11.93128255,-13.81485844,-42.76111984,11.29007435,2024-06-05 20:04:12.931283
11.97174015,-7.755756378,-5.405556679,-4.863567352,2024-06-05 20:04:12.971740
12.01224068,1.046504974,0.7175750732,-7.629039764,2024-06-05 20:04:13.012241
12.05272635,2.242869616,-1.051644325,-4.963582039,2024-06-05 20:04:13.052726
12.09320854,1.171090484,-1.039250374,-2.41091466,2024-06-05 20:04:13.093209
12.13368604,1.682468772,1.684310913,8.617085457,2024-06-05 20:04:13.133686
12.1741588,-1.138103127,1.837454796,-3.524609566,2024-06-05 20:04:13.174159
12.21465729,-0.4409303069,2.031085968,0.5247428417,2024-06-05 20:04:13.214657
12.25510729,-2.74809742,1.017281532,0.3323408365,2024-06-05 20:04:13.255107
12.29555265,-4.259893894,-1.051767349,-0.4796814919,2024-06-05 20:04:13.295553
12.33609958,-2.177858829,-0.919465065,0.9029377699,2024-06-05 20:04:13.336100
12.37654015,-2.480314255,0.06021976471,-2.495435238,2024-06-05 20:04:13.376540
12.41698791,-4.387290478,-0.3206167221,-0.6689382792,2024-06-05 20:04:13.416988
12.45748828,-3.374798536,0.4032812119,1.130911827,2024-06-05 20:04:13.457488
12.49799713,-1.603055477,0.1117401123,-0.2215512693,2024-06-05 20:04:13.497997
12.53846958,-1.728947043,0.01240158081,0.1361988336,2024-06-05 20:04:13.538470
12.57895937,-2.103527069,-0.1339216232,0.593344152,2024-06-05 20:04:13.578959
12.61941291,-2.464877605,-0.1815958023,-0.7361475825,2024-06-05 20:04:13.619413
12.65992531,-1.877093911,0.5799789429,-0.5302752256,2024-06-05 20:04:13.659925
12.70039916,-1.03470993,0.5720291138,-0.932266295,2024-06-05 20:04:13.700399
12.74088271,-0.3485212326,0.2109289169,-0.4267230034,2024-06-05 20:04:13.740883
12.78135161,0.05723881721,-0.1134357452,1.164214373,2024-06-05 20:04:13.781352
12.82183239,-1.719435692,-0.09149551392,0.2766730785,2024-06-05 20:04:13.821832
12.86232442,-1.5645473,-0.9335184097,1.65397644,2024-06-05 20:04:13.862324
12.9028063,-2.383503437,-3.695005417,0.9674537778,2024-06-05 20:04:13.902806
12.9432776,-0.9881284237,-3.404483795,1.602339506,2024-06-05 20:04:13.943278
12.98371932,-0.008108615875,-1.14747715,4.214128494,2024-06-05 20:04:13.983719
13.02425786,-0.07688176632,-1.511141777,5.632184505,2024-06-05 20:04:14.024258
13.06472739,0.1246874332,-0.2063369751,1.976793885,2024-06-05 20:04:14.064727
13.1051588,0.7269663811,0.06645584106,-0.04494792223,2024-06-05 20:04:14.105159
13.14563442,1.474119663,-0.9542036057,-2.472341776,2024-06-05 20:04:14.145634
13.18613218,1.153568387,0.08626461029,-5.290596485,2024-06-05 20:04:14.186132
13.22659432,-0.2507997155,-0.3553380966,-1.706851602,2024-06-05 20:04:14.226594
13.26711052,-0.3288264871,-1.696662903,-1.441467881,2024-06-05 20:04:14.267111
13.30758849,1.936064482,0.7429361343,-1.735954642,2024-06-05 20:04:14.307588
13.34806172,2.738073349,5.180989265,-2.689970493,2024-06-05 20:04:14.348062
13.38855844,1.270164013,6.032173634,-2.346192837,2024-06-05 20:04:14.388558
13.42899458,2.063431263,4.17273283,-1.319777727,2024-06-05 20:04:14.428995
13.4694764,0.3929356337,-1.736916542,3.171690464,2024-06-05 20:04:14.469476
13.510035,-3.351614475,-6.983408928,5.782896996,2024-06-05 20:04:14.510035
13.55044104,2.132823229,-0.3657779694,-1.415008068,2024-06-05 20:04:14.550441
13.59098182,8.803976059,-3.569120407,-2.501988411,2024-06-05 20:04:14.590982
13.63146135,3.06848526,1.630326271,-0.6801040173,2024-06-05 20:04:14.631461
13.67193661,0.9936404228,7.431893826,-2.725889921,2024-06-05 20:04:14.671937
13.71238375,3.709719658,-0.3433103561,-1.711745501,2024-06-05 20:04:14.712384
13.75284583,2.006084442,-3.565695763,-3.44112134,2024-06-05 20:04:14.752846
13.7934012,-2.115078211,0.4228506088,-2.827198505,2024-06-05 20:04:14.793401
13.83381677,-2.14213419,-1.550943375,1.76480937,2024-06-05 20:04:14.833817
13.87434328,-3.093236923,-3.289729118,2.326552391,2024-06-05 20:04:14.874343
13.91478468,-1.6574018,-2.024735451,-1.698230267,2024-06-05 20:04:14.914785
13.95526161,0.2955106497,-0.7656087875,-2.929055929,2024-06-05 20:04:14.955262
13.99573854,0.5258256197,0.7387008667,0.7412186861,2024-06-05 20:04:14.995739
14.03621666,1.06880486,2.196455956,5.842193604,2024-06-05 20:04:15.036217
14.07669713,-0.2261353433,2.839627266,-1.959133387,2024-06-05 20:04:15.076697
14.11715635,-0.3147144616,3.820808411,1.348005295,2024-06-05 20:04:15.117156
14.15763364,-1.790220261,1.152689934,-0.03506755829,2024-06-05 20:04:15.157634
14.19815411,0.2307341695,-0.858215332,0.6154893041,2024-06-05 20:04:15.198154
14.23861125,-1.025658846,0.2013492584,-0.1840034723,2024-06-05 20:04:15.238611
14.27908218,-2.910964012,-0.06418704987,-2.383728027,2024-06-05 20:04:15.279082
14.3195564,-4.139585018,-1.529448509,2.277341366,2024-06-05 20:04:15.319556
14.36004151,-3.902976036,-0.8517799377,0.4989206791,2024-06-05 20:04:15.360042
14.40052734,-1.995238066,-1.659148216,2.994859695,2024-06-05 20:04:15.400527
14.44103786,-1.75889802,-1.386170387,4.135681152,2024-06-05 20:04:15.441038
14.48150146,-3.700607538,-1.830705643,3.154547215,2024-06-05 20:04:15.481501
14.52199208,-1.23399961,-2.366562843,4.017620564,2024-06-05 20:04:15.521992
14.56243948,5.363899231,-3.46113205,1.640301585,2024-06-05 20:04:15.562439
14.60292844,5.791316986,-3.157709122,-7.855695724,2024-06-05 20:04:15.602928
14.64341291,1.671182156,-1.100554466,0.7967739105,2024-06-05 20:04:15.643413
14.68389354,-1.559188008,-1.6941576,-2.366730928,2024-06-05 20:04:15.683894
14.72439651,0.2003924847,2.940874577,-4.049510479,2024-06-05 20:04:15.724397
14.76482802,2.829446793,5.476472855,-4.624530792,2024-06-05 20:04:15.764828
14.8053051,4.306116581,6.597206593,-2.854362011,2024-06-05 20:04:15.805305
14.84583489,3.069910049,6.535590172,-0.2003517151,2024-06-05 20:04:15.845835
14.88629286,-0.9626653194,-1.079062462,7.626620293,2024-06-05 20:04:15.886293
14.92675349,-5.621672153,-10.77584362,7.938493729,2024-06-05 20:04:15.926753
14.96722583,4.21843338,0.3532705307,-1.055977225,2024-06-05 20:04:15.967226
15.00770099,7.863074303,-5.825372696,2.091925621,2024-06-05 20:04:16.007701
15.04818094,1.071023822,3.113286495,-8.227353096,2024-06-05 20:04:16.048181
15.08867422,-0.7861275673,7.811523914,-6.963119507,2024-06-05 20:04:16.088674
15.12915765,4.948242188,-2.254007339,-1.799739957,2024-06-05 20:04:16.129158
15.16963474,-0.8974792957,-2.801790237,-3.967741013,2024-06-05 20:04:16.169635
15.21011604,-5.604964256,0.3359384537,1.497543931,2024-06-05 20:04:16.210116
15.25058531,-3.081607342,-0.4711694717,0.5668529272,2024-06-05 20:04:16.250585
15.29109255,1.065043926,-0.8645439148,2.678630829,2024-06-05 20:04:16.291093
15.33155265,0.3466379642,0.1087150574,4.668730736,2024-06-05 20:04:16.331553
15.3720313,-1.045499802,-0.3674592972,-0.7622529268,2024-06-05 20:04:16.372031
15.41251776,-1.753885388,-0.5409622192,4.492641926,2024-06-05 20:04:16.412518
15.45298724,-2.724759579,-2.182925224,3.880077124,2024-06-05 20:04:16.452987
15.49350698,-3.80814147,-0.8845033646,-0.5777591467,2024-06-05 20:04:16.493507
15.53398703,-4.409742832,-3.899833679,4.524820328,2024-06-05 20:04:16.533987
15.57443364,-2.353350163,-3.009811401,6.218834877,2024-06-05 20:04:16.574434
15.61487484,1.238592982,-1.937864304,0.1307156086,2024-06-05 20:04:16.614875
15.65537219,4.77492857,-1.978690147,-5.159817696,2024-06-05 20:04:16.655372
15.69582484,1.991914749,-3.955376625,-0.8367452621,2024-06-05 20:04:16.695825
15.7363864,1.393927097,0.4039821625,-7.839631081,2024-06-05 20:04:16.736386
15.77683396,-0.5247776508,0.7111110687,-1.505580068,2024-06-05 20:04:16.776834
15.81731083,0.9081460238,2.517767906,-4.393357754,2024-06-05 20:04:16.817311
15.85780443,3.05800128,5.073493958,-4.490914345,2024-06-05 20:04:16.857804
15.89826818,4.095768452,5.793895245,-3.688113689,2024-06-05 20:04:16.898268
15.93872547,2.839158535,4.754362583,-2.428285599,2024-06-05 20:04:16.938725
15.97920359,1.859615088,-1.215756416,2.851377726,2024-06-05 20:04:16.979204
16.01971953,-4.473423004,-9.581332207,13.59163666,2024-06-05 20:04:17.019720
16.06017614,1.761317015,1.981592655,-1.57198143,2024-06-05 20:04:17.060176
16.10072354,1.646171927,3.570300102,-1.133452415,2024-06-05 20:04:17.100724
16.14114802,5.376351357,-6.251568794,-7.123598576,2024-06-05 20:04:17.141148
16.18164541,0.8962848186,-5.596682549,4.733760834,2024-06-05 20:04:17.181645
16.22210458,-0.5000978708,6.780498028,-4.541933537,2024-06-05 20:04:17.222105
16.26258427,0.4758214951,3.726899624,-2.537296057,2024-06-05 20:04:17.262584
16.30310297,5.363833427,-4.242594719,-2.833442211,2024-06-05 20:04:17.303103
16.34353948,-1.122785091,0.6433362961,-0.780328989,2024-06-05 20:04:17.343539
16.38401838,-2.35155201,1.039580345,0.9311529398,2024-06-05 20:04:17.384018
16.42444333,-1.826891661,-0.2647819519,2.319617033,2024-06-05 20:04:17.424443
16.46501682,-2.440214396,0.0663766861,-0.09281671047,2024-06-05 20:04:17.465017
16.50547448,-0.6729843616,0.4856805801,-0.752217412,2024-06-05 20:04:17.505474
16.54597172,-0.2268944979,-0.7934036255,3.292349815,2024-06-05 20:04:17.545972
16.58646041,-0.9244868755,-1.520489693,7.103621483,2024-06-05 20:04:17.586460
16.62688224,-3.218060493,-0.4530344009,-0.73699224,2024-06-05 20:04:17.626882
16.66739198,-4.388982773,-1.76687336,-1.77994442,2024-06-05 20:04:17.667392
16.7078789,-2.451859236,-3.86696434,9.478686333,2024-06-05 20:04:17.707879
16.74832844,1.699558139,-3.901819229,3.890440464,2024-06-05 20:04:17.748328
16.78883432,6.852584362,-1.202384949,-4.23968935,2024-06-05 20:04:17.788834
16.82931083,4.745753288,-1.269042969,-4.526470661,2024-06-05 20:04:17.829311
16.86975687,4.904550552,1.405789375,-3.231599092,2024-06-05 20:04:17.869757
16.91025088,-1.258221269,0.3882408142,-2.266980171,2024-06-05 20:04:17.910251
16.9507139,-0.9829345942,0.6796035767,-3.481613636,2024-06-05 20:04:17.950714
16.99121568,1.080298066,2.958511353,-3.155059814,2024-06-05 20:04:17.991216
17.03167432,3.094946384,5.010826111,-2.732566357,2024-06-05 20:04:18.031674
17.07218078,3.363905191,3.865089417,-1.970212936,2024-06-05 20:04:18.072181
17.11266333,1.331688166,0.01694393158,0.8812155724,2024-06-05 20:04:18.112663
17.15313765,-4.10381031,-5.037228584,11.17465115,2024-06-05 20:04:18.153138
17.19364078,0.625769496,-0.2905883789,0.2712295055,2024-06-05 20:04:18.193641
17.23408041,1.39311862,-1.118924141,-2.490484238,2024-06-05 20:04:18.234080
17.27464458,3.539114952,-1.407440186,-4.140049934,2024-06-05 20:04:18.274645
17.31502713,0.4020347595,-0.3621063232,1.932478666,2024-06-05 20:04:18.315027
17.3555314,0.398524642,1.533371925,-2.056526184,2024-06-05 20:04:18.355531
17.39601318,1.504565716,-0.4435787201,-4.472247124,2024-06-05 20:04:18.396013
17.43648422,0.648127079,-0.7355394363,-1.944827437,2024-06-05 20:04:18.436484
17.47698125,0.4026961327,0.002616882324,-0.1915765703,2024-06-05 20:04:18.476981
17.51748015,0.3464779854,0.5937509537,-0.05262392014,2024-06-05 20:04:18.517480
17.55793073,-0.06994915009,0.4661083221,0.03499639779,2024-06-05 20:04:18.557931
17.59840182,0.8754225969,-0.0439786911,-1.124154091,2024-06-05 20:04:18.598402
17.63888265,0.6688306332,-0.08476257324,0.0356695354,2024-06-05 20:04:18.638883
17.67938271,0.1676506996,-0.06843471527,-0.8421797752,2024-06-05 20:04:18.679383
17.71985114,0.2148100138,0.325551033,-0.765239954,2024-06-05 20:04:18.719851
17.76031745,-0.2183073759,0.005492210388,-0.8774204254,2024-06-05 20:04:18.760317
17.80080234,-0.3702498674,0.04335308075,-0.7324880958,2024-06-05 20:04:18.800802
17.84128218,-0.7179937363,-0.1240205765,0.0525627248,2024-06-05 20:04:18.841282
17.88176604,-0.4980500937,0.1547765732,-0.4918831885,2024-06-05 20:04:18.881766
17.92224427,-0.396846652,-0.01627063751,-0.4856818914,2024-06-05 20:04:18.922244
17.96272146,0.02665257454,-0.2453832626,0.4481801987,2024-06-05 20:04:18.962721
18.00319718,0.096555233,0.04002761841,-0.2871075869,2024-06-05 20:04:19.003197
18.04369307,0.1742238998,0.1692295074,-0.5495100617,2024-06-05 20:04:19.043693
18.08422062,-0.6932643652,0.3283967972,-1.344661236,2024-06-05 20:04:19.084221
18.12466687,-0.67719841,-0.3433094025,-0.04708218575,2024-06-05 20:04:19.124667
18.165085,-0.4553569555,-0.1509790421,0.1678580642,2024-06-05 20:04:19.165085
18.20559687,-0.2150745392,-0.2840852737,-1.058524013,2024-06-05 20:04:19.205597
18.2460587,0.5446808338,0.3394327164,0.04115986824,2024-06-05 20:04:19.246059
18.28655427,0.393648982,0.4300937653,0.5713181496,2024-06-05 20:04:19.286554
18.32702422,0.1775026321,-0.4111423492,-0.07189190388,2024-06-05 20:04:19.327024
18.36751896,0.7761980295,0.2745685577,-0.2177754641,2024-06-05 20:04:19.367519
18.40800552,0.644798398,0.4292764664,0.2470507622,2024-06-05 20:04:19.408006
18.4484651,0.1434115171,0.2477941513,0.6080183983,2024-06-05 20:04:19.448465
18.48898505,-0.05204224586,-0.1611595154,1.615308046,2024-06-05 20:04:19.488985
18.52944172,0.01834821701,-0.5529899597,2.246665716,2024-06-05 20:04:19.529442
18.56990958,0.9017312527,0.5159626007,0.666229248,2024-06-05 20:04:19.569910
18.61039489,0.223500371,1.269818306,0.1019296646,2024-06-05 20:04:19.610395
18.65088041,-0.8317368627,1.28182888,-0.7517863512,2024-06-05 20:04:19.650880
18.69136193,-0.9346731901,0.3319158554,-1.752775192,2024-06-05 20:04:19.691362
18.7318439,0.1803426743,-1.392755508,-0.572095871,2024-06-05 20:04:19.731844
18.77235838,1.02893424,-1.278418541,4.499040127,2024-06-05 20:04:19.772358
18.81283198,-1.382930517,0.9824857712,1.354529381,2024-06-05 20:04:19.812832
18.85328396,-1.198346972,0.7900085449,-2.228752136,2024-06-05 20:04:19.853284
18.89380271,-0.1758828163,0.08038711548,-0.861412406,2024-06-05 20:04:19.893803
18.93425692,0.08910429478,-0.3325614929,1.88315475,2024-06-05 20:04:19.934257
18.97477932,-0.9836082458,-0.1103925705,0.41667521,2024-06-05 20:04:19.974779
19.01526646,-1.136918783,0.2851228714,-0.2665809393,2024-06-05 20:04:20.015266
19.05564765,0.09436833858,0.06200504303,-0.5811240673,2024-06-05 20:04:20.055648
19.0961914,0.7211563587,0.02963542938,0.5367003679,2024-06-05 20:04:20.096191
19.13660411,0.6405047178,-0.0927734375,0.7997546196,2024-06-05 20:04:20.136604
19.1771451,-0.5165705681,-0.08326244354,-0.05013895035,2024-06-05 20:04:20.177145
19.21757021,-1.162889242,-0.08235168457,-0.3378751278,2024-06-05 20:04:20.217570
19.25808364,-0.4512224197,0.04201793671,-0.4054579735,2024-06-05 20:04:20.258084
19.29852739,0.6192470789,0.1199474335,-0.2860859632,2024-06-05 20:04:20.298527
19.33900859,0.5164949894,-0.04689884186,0.5065860748,2024-06-05 20:04:20.339009
19.3795239,0.1121263504,0.1415843964,-0.4170268774,2024-06-05 20:04:20.379524
19.41993151,-0.0728174448,0.05445671082,-0.6007449627,2024-06-05 20:04:20.419932
19.46044078,-0.5052480698,-0.08626842499,0.03965508938,2024-06-05 20:04:20.460441
19.50097755,-0.2241665125,-0.1036987305,0.005660057068,2024-06-05 20:04:20.500978
19.54143208,-0.1536306143,0.02902603149,0.0799523592,2024-06-05 20:04:20.541432
19.58189703,-0.1922141314,0.01962661743,-0.0898733139,2024-06-05 20:04:20.581897
19.62245114,-0.1809082031,0.1296167374,-0.2192168236,2024-06-05 20:04:20.622451
19.66281734,-0.08334815502,0.02038860321,0.04422605038,2024-06-05 20:04:20.662817
19.70334979,-0.1530529261,0.03231525421,0.1321054697,2024-06-05 20:04:20.703350
19.74386791,-0.2842737436,0.05906772614,0.0577185154,2024-06-05 20:04:20.743868
19.78431942,-0.4003457427,0.01674747467,0.1384804249,2024-06-05 20:04:20.784319
19.82482786,-0.476365149,0.001204490662,0.1180951595,2024-06-05 20:04:20.824828
19.86530568,-0.5146622062,-0.03203010559,0.3471106291,2024-06-05 20:04:20.865306
19.90575297,-0.3491171598,-0.03590011597,0.1416175365,2024-06-05 20:04:20.905753
19.94620724,-0.2983988523,0.04422855377,0.08974301815,2024-06-05 20:04:20.946207
19.98667573,-0.1314309835,0.04436779022,-0.004433274269,2024-06-05 20:04:20.986676
20.02716276,-0.03841233253,0.01332092285,0.06047999859,2024-06-05 20:04:21.027163
20.06764354,-0.03581130505,-0.01009082794,0.08664429188,2024-06-05 20:04:21.067644
20.10814594,0.2572797537,0.05171108246,0.007296681404,2024-06-05 20:04:21.108146
20.14860703,0.5272452831,-0.01255226135,-0.04139697552,2024-06-05 20:04:21.148607
20.18911568,0.4206268787,0.1796617508,-0.169981122,2024-06-05 20:04:21.189116
20.22956682,0.2186477184,0.09102153778,-0.13646698,2024-06-05 20:04:21.229567
20.27004942,0.1398290396,0.05595970154,-0.1301431656,2024-06-05 20:04:21.270049
20.31053541,0.1242576838,-0.01339054108,-0.1708241701,2024-06-05 20:04:21.310535
20.35102995,0.1683961153,-0.001010894775,0.1011576653,2024-06-05 20:04:21.351030
20.39147568,0.1095610857,-0.09095001221,-0.05518090725,2024-06-05 20:04:21.391476
20.43201719,-0.01608586311,0.0538520813,-0.0740019083,2024-06-05 20:04:21.432017
20.47242396,-0.332473278,-0.01760292053,-0.1848236322,2024-06-05 20:04:21.472424
20.51297328,-0.5508323908,-0.1954526901,-0.1879813671,2024-06-05 20:04:21.512973
20.5533887,-0.2045383453,0.08535003662,0.03105568886,2024-06-05 20:04:21.553389
20.59394588,-0.01546347141,-0.06011772156,-0.05328714848,2024-06-05 20:04:21.593946
20.63442344,-0.0622241497,-0.009483337402,0.01281690598,2024-06-05 20:04:21.634423
20.67481114,0.1686491966,-0.002594947815,0.01810204983,2024-06-05 20:04:21.674811
20.71538885,0.04768049717,0.01171779633,-0.101359129,2024-06-05 20:04:21.715389
20.75582458,0.05448448658,0.071144104,-0.0767916441,2024-06-05 20:04:21.755825
20.79624672,0.06351399422,-0.01572227478,-0.08930540085,2024-06-05 20:04:21.796247
20.83676104,-0.1118409634,0.08062171936,0.1619356871,2024-06-05 20:04:21.836761
20.87723489,-0.1647273302,-0.1114139557,0.1191298962,2024-06-05 20:04:21.877235
20.91771713,-0.1944522858,-0.001037597656,0.1244434118,2024-06-05 20:04:21.917717
20.95818229,0.0606559515,0.04202365875,0.01052486897,2024-06-05 20:04:21.958182
20.99867083,0.09438097477,0.0079164505,0.1522741318,2024-06-05 20:04:21.998671
21.03919052,0.05670845509,-0.04348468781,-0.1509642601,2024-06-05 20:04:22.039191
21.07969062,0.1816821098,0.04304122925,-0.02772510052,2024-06-05 20:04:22.079691
21.12016,0.1258749962,-0.01358604431,-0.1402105093,2024-06-05 20:04:22.120160
21.16059854,0.005055069923,0.02829456329,-0.1843653917,2024-06-05 20:04:22.160599
21.20108776,-0.005168437958,-0.02166080475,-0.2290748358,2024-06-05 20:04:22.201088
21.2415501,-0.01050281525,-0.0082654953,-0.06135118008,2024-06-05 20:04:22.241550
21.28204656,-0.2130131721,0.01220607758,-0.07676887512,2024-06-05 20:04:22.282047
21.32253687,0.03237044811,-0.1738872528,0.08070230484,2024-06-05 20:04:22.322537
21.36302989,0.1434090137,0.1766862869,-0.05887174606,2024-06-05 20:04:22.363030
21.40348146,0.07418870926,-0.01320075989,-0.1146610975,2024-06-05 20:04:22.403481
21.44391015,-0.04056251049,-0.02724647522,0.08772718906,2024-06-05 20:04:22.443910
21.48442411,-0.003051280975,-0.08110427856,0.06761574745,2024-06-05 20:04:22.484424
21.52494687,0.09844434261,0.02016735077,0.2062548399,2024-06-05 20:04:22.524947
21.56545297,-0.02885341644,0.08622360229,-0.005126357079,2024-06-05 20:04:22.565453
21.60591161,-0.06901788712,-0.006840705872,-0.1460090876,2024-06-05 20:04:22.605912
21.64635187,0.04426252842,0.005332946777,-0.02958083153,2024-06-05 20:04:22.646352
21.68685021,0.08746063709,-0.03138160706,-0.04663300514,2024-06-05 20:04:22.686850
21.7273213,0.1644427776,0.02840614319,-0.1022386551,2024-06-05 20:04:22.727321
21.76780166,0.2846530676,-0.017993927,0.1041095257,2024-06-05 20:04:22.767802
21.80827885,0.05115938187,0.1126804352,0.01709139347,2024-06-05 20:04:22.808279
21.84875479,-0.243291378,0.05238437653,-0.1676796675,2024-06-05 20:04:22.848755
21.88924479,-0.3890838623,-0.05544567108,-0.05709433556,2024-06-05 20:04:22.889245
21.92971109,-0.06121575832,0.02528572083,0.2876660824,2024-06-05 20:04:22.929711
21.97017937,-0.2094270587,-0.223982811,0.1524502039,2024-06-05 20:04:22.970179
22.01067312,-0.256267488,0.01562786102,-0.09864795208,2024-06-05 20:04:23.010673
22.05116193,-0.111938417,-0.02202415466,0.03214073181,2024-06-05 20:04:23.051162
22.09165614,-0.01469635963,0.1954460144,0.03919529915,2024-06-05 20:04:23.091656
22.13212172,0.07833445072,-0.08936786652,-0.06070721149,2024-06-05 20:04:23.132122
22.17259114,0.0736323595,0.009268760681,0.007294893265,2024-06-05 20:04:23.172591
22.21307083,0.08758473396,0.01709651947,-0.06519925594,2024-06-05 20:04:23.213071
22.25354588,0.3027870655,-0.06927394867,0.03797793388,2024-06-05 20:04:23.253546
22.29406041,0.1824074984,0.07871341705,-0.105435133,2024-06-05 20:04:23.294060
22.33452979,0.2679102421,-0.2570762634,0.01005911827,2024-06-05 20:04:23.334530
22.374995,1.371953845,-0.0860824585,0.2231743336,2024-06-05 20:04:23.374995
22.41547458,1.726888537,-0.06580066681,0.228664875,2024-06-05 20:04:23.415475
22.4559987,0.9551557302,-0.3752470016,1.620933533,2024-06-05 20:04:23.455999
22.49647786,-0.1418930292,0.1087598801,1.556403399,2024-06-05 20:04:23.496478
22.53692104,-1.079558849,0.1526155472,0.6387746334,2024-06-05 20:04:23.536921
22.57738807,-0.6410480142,0.6372098923,-2.078292847,2024-06-05 20:04:23.577388
22.61787442,0.2899541855,0.3877296448,-0.5246925354,2024-06-05 20:04:23.617874
22.65835271,0.408539772,0.6374778748,-0.26476264,2024-06-05 20:04:23.658353
22.69882229,-0.1463931799,0.867518425,-1.741554499,2024-06-05 20:04:23.698822
22.73932818,1.478703499,0.6888160706,-0.4253014326,2024-06-05 20:04:23.739328
22.77977818,1.781504154,0.6527357101,0.02665090561,2024-06-05 20:04:23.779778
22.8202851,2.271721125,0.5917205811,0.6894031763,2024-06-05 20:04:23.820285
22.86075734,1.645270586,0.6289377213,0.5337207317,2024-06-05 20:04:23.860757
22.90125349,-0.09367036819,0.6160764694,0.06395840645,2024-06-05 20:04:23.901253
22.94169385,-0.6094756126,1.067560196,0.1925179958,2024-06-05 20:04:23.941694
22.98217625,0.9118170738,-0.8745450974,0.7921423316,2024-06-05 20:04:23.982176
23.02268479,0.3834745884,-1.252946854,0.7950087786,2024-06-05 20:04:24.022685
23.06313578,-0.1063504219,-1.411463737,1.438503861,2024-06-05 20:04:24.063136
23.10363687,-0.9986655712,-1.491182327,0.980448544,2024-06-05 20:04:24.103637
23.14417015,-2.250170946,0.5506286621,0.08593760431,2024-06-05 20:04:24.144170
23.18465041,-1.431481361,0.237616539,-2.28104043,2024-06-05 20:04:24.184650
23.22502568,-2.343278408,-1.467744827,-0.6129300594,2024-06-05 20:04:24.225026
23.26558875,-3.121014595,-0.9410257339,0.4798979461,2024-06-05 20:04:24.265589
23.30607568,-3.079222918,-0.4338722229,0.2462110221,2024-06-05 20:04:24.306076
23.34650422,-1.912639856,0.06094360352,-0.1707653999,2024-06-05 20:04:24.346504
23.38700896,-0.004035711288,0.02731704712,-0.6889747977,2024-06-05 20:04:24.387009
23.42745109,1.276569843,-0.06573581696,2.952724457,2024-06-05 20:04:24.427451
23.46797229,0.01658177376,-0.2096862793,-0.2859208584,2024-06-05 20:04:24.467972
23.50843,0.2622625828,0.4394893646,-1.294953108,2024-06-05 20:04:24.508430
23.54890015,0.07288312912,0.7626476288,-1.168154001,2024-06-05 20:04:24.548900
23.58939729,-0.1632721424,-0.3841142654,-0.440464437,2024-06-05 20:04:24.589397
23.62984021,-0.7429563999,-0.2464103699,1.14258194,2024-06-05 20:04:24.629840
23.67036942,-0.7736620903,-0.6281347275,0.7763510346,2024-06-05 20:04:24.670369
23.71082666,-1.630293131,-0.4918642044,0.2197685838,2024-06-05 20:04:24.710827
23.75132021,-0.9098924398,0.08458423615,-0.7987306118,2024-06-05 20:04:24.751320
23.79177651,0.02258872986,-0.1556224823,0.6571266651,2024-06-05 20:04:24.791777
23.83228088,-0.1341876984,-0.123421669,0.5859594345,2024-06-05 20:04:24.832281
23.87275818,-0.1729996204,0.1236848831,-0.727856338,2024-06-05 20:04:24.872758
23.9132113,-0.4660053253,-0.3662977219,-0.8239344954,2024-06-05 20:04:24.913211
23.95370479,-0.9510393143,-0.06460857391,0.5724775791,2024-06-05 20:04:24.953705
23.99415432,0.03987765312,0.1455345154,-0.3089805245,2024-06-05 20:04:24.994154
24.03465547,-0.1866533756,-0.0007944107056,-0.3319235444,2024-06-05 20:04:25.034655
24.07510271,-0.6827304363,-0.1807603836,0.5001721382,2024-06-05 20:04:25.075103
24.11561536,-0.1927449703,0.0372877121,0.04358839989,2024-06-05 20:04:25.115615
24.15607135,-0.1988375187,-0.005460739136,-0.05414772034,2024-06-05 20:04:25.156071
24.19658182,-0.1449084282,-0.02615261078,0.3736265302,2024-06-05 20:04:25.196582
24.23705229,-0.06930875778,0.09299564362,0.2251911163,2024-06-05 20:04:25.237052
24.27754192,0.06584501266,0.05969333649,0.1367326975,2024-06-05 20:04:25.277542
24.31800135,-0.1811811924,0.01142215729,0.08168494701,2024-06-05 20:04:25.318001
24.35849177,-0.2434374094,-0.04635810852,0.004896342754,2024-06-05 20:04:25.358492
24.39897984,0.05195116997,0.0119228363,-0.03808224201,2024-06-05 20:04:25.398980
24.43948479,0.4208581448,0.02519702911,0.003695189953,2024-06-05 20:04:25.439485
24.47993932,0.295235157,0.215514183,-0.04113942385,2024-06-05 20:04:25.479939
24.52044812,-0.08346152306,-0.006402015686,-0.2337083817,2024-06-05 20:04:25.520448
24.56092041,-0.1063399315,0.007724761963,-0.224050343,2024-06-05 20:04:25.560920
24.60139125,-0.1793549061,-0.06239891052,-0.1585318446,2024-06-05 20:04:25.601391
24.64188057,0.1452839375,-0.04911613464,0.0998840332,2024-06-05 20:04:25.641881
24.68236276,0.06324219704,-0.01994037628,-0.04963696003,2024-06-05 20:04:25.682363
24.72282057,-0.2546993494,-0.07769107819,0.003176927567,2024-06-05 20:04:25.722821
24.76332255,-0.1560664177,0.04396820068,-0.2278847098,2024-06-05 20:04:25.763323
24.80383771,0.03095078468,0.03822040558,-0.1274653673,2024-06-05 20:04:25.803838
24.84432495,-0.3062124252,-0.06128978729,0.3079552054,2024-06-05 20:04:25.844325
24.88479104,-0.1875574589,-0.003623008728,0.1549525857,2024-06-05 20:04:25.884791
24.92522474,-0.2439959049,-0.07145309448,0.3815202117,2024-06-05 20:04:25.925225
24.96570135,-0.179353714,-0.1142873764,0.1641413569,2024-06-05 20:04:25.965701
25.00620557,-0.004315853119,0.1185760498,-0.006605386734,2024-06-05 20:04:26.006206
25.04664916,-0.05021071434,-0.06918716431,-0.2471609116,2024-06-05 20:04:26.046649
25.08713693,-0.1807460785,0.1017980576,0.3344570994,2024-06-05 20:04:26.087137
25.12761135,0.1931481361,0.05425167084,-0.3107376099,2024-06-05 20:04:26.127611
25.1680826,0.1277842522,-0.03080463409,0.170078218,2024-06-05 20:04:26.168083
25.2085776,-0.03574228287,-0.03101921082,0.1947735548,2024-06-05 20:04:26.208578
25.24905995,0.1430447102,0.1101121902,-0.4667708278,2024-06-05 20:04:26.249060
25.28951505,0.05332136154,0.0162858963,0.0367103219,2024-06-05 20:04:26.289515
25.33000224,-0.1773988008,0.04762554169,0.3160120845,2024-06-05 20:04:26.330002
25.37049458,0.04535698891,-0.01222515106,-0.06356501579,2024-06-05 20:04:26.370495
25.41097453,-0.4005527496,-0.1342735291,-0.1258786917,2024-06-05 20:04:26.410975
25.45145552,-0.01989030838,-0.07561206818,0.5021094084,2024-06-05 20:04:26.451456
25.49193854,0.03104543686,0.0405921936,-0.268951416,2024-06-05 20:04:26.491939
25.53242677,-0.07128429413,-0.009318351746,-0.1758952737,2024-06-05 20:04:26.532427
25.57289823,-0.03397011757,0.04841899872,0.2750667334,2024-06-05 20:04:26.572898
25.61337094,-0.08154439926,-0.05136966705,-0.1448791623,2024-06-05 20:04:26.613371
25.65381094,-0.2618209124,-0.006576538086,-0.4149447083,2024-06-05 20:04:26.653811
25.69435411,-0.009901762009,-0.06744194031,0.4754009545,2024-06-05 20:04:26.694354
25.73482281,0.3137967587,0.09457015991,0.01760703325,2024-06-05 20:04:26.734823
25.775295,0.04145288467,0.02352714539,-0.1370375156,2024-06-05 20:04:26.775295
25.81579515,-0.03161740303,-0.1370668411,-0.1826338172,2024-06-05 20:04:26.815795
25.85629375,-0.1407022476,0.07054138184,0.1000341773,2024-06-05 20:04:26.856294
25.89672896,0.07634997368,0.1102762222,-0.2421338558,2024-06-05 20:04:26.896729
25.93717448,-0.1589193344,-0.118229866,0.2835410833,2024-06-05 20:04:26.937174
25.97767239,0.06314563751,0.06890583038,-0.01427507401,2024-06-05 20:04:26.977672
26.0181662,0.1345419884,-0.03571510315,-0.05941349268,2024-06-05 20:04:27.018166
26.05864312,0.00411939621,0.08197975159,0.161205709,2024-06-05 20:04:27.058643
26.09910755,-0.1274143457,-0.1558275223,-0.3733751178,2024-06-05 20:04:27.099108
26.13958406,0.07000565529,0.06191825867,0.4700117111,2024-06-05 20:04:27.139584
26.18006338,-0.2735425234,0.05732822418,-0.2691045403,2024-06-05 20:04:27.180063
26.22055568,0.004522800446,-0.01800060272,0.2825514078,2024-06-05 20:04:27.220556
26.26103114,0.2300693989,0.102347374,0.03716546297,2024-06-05 20:04:27.261031
26.30157375,0.2158019543,0.01614284515,0.08930116892,2024-06-05 20:04:27.301574
26.3419913,0.1715676785,-0.06000137329,0.3935210407,2024-06-05 20:04:27.341991
26.38249166,0.1102001667,-0.151763916,-0.1261685491,2024-06-05 20:04:27.382492
26.42290234,0.1673536301,0.2640943527,0.2615538239,2024-06-05 20:04:27.422902
26.46342771,-0.2312544584,-0.01827526093,-0.2970274687,2024-06-05 20:04:27.463428
26.50395219,0.3898439407,0.09847450256,0.5952785015,2024-06-05 20:04:27.503952
26.54447536,0.6788258553,0.0878944397,-0.03049707413,2024-06-05 20:04:27.544475
26.58486088,0.1849997044,0.1909503937,-0.8501542807,2024-06-05 20:04:27.584861
26.62532963,0.3367366791,0.1902742386,-0.6506790519,2024-06-05 20:04:27.625330
26.66581484,0.09609532356,-0.1205329895,-0.5142906308,2024-06-05 20:04:27.665815
26.70630229,-0.5870084763,-0.182217598,-0.1714498401,2024-06-05 20:04:27.706302
26.74678213,-1.254097581,-0.2670698166,0.7356961966,2024-06-05 20:04:27.746782
26.78730333,-1.000288486,-0.2071657181,0.393810451,2024-06-05 20:04:27.787303
26.82776609,0.01628506184,0.2251958847,0.01086091995,2024-06-05 20:04:27.827766
26.86824291,0.283821106,0.1162061691,0.03416651487,2024-06-05 20:04:27.868243
26.90872823,-0.2936069965,0.1792974472,0.1476832032,2024-06-05 20:04:27.908728
26.94918161,-0.08935272694,0.05436515808,-0.2022526264,2024-06-05 20:04:27.949182
26.9896589,0.0770816803,-0.1734514236,0.7438557148,2024-06-05 20:04:27.989659
27.0301525,0.2688887119,0.008657455444,0.9366050959,2024-06-05 20:04:28.030152
27.07063578,-0.02913975716,-0.07733154297,-0.01530504227,2024-06-05 20:04:28.070636
27.11114666,0.5090212822,0.4604120255,0.1022592783,2024-06-05 20:04:28.111147
27.15160245,0.5641423464,0.02018260956,1.202238679,2024-06-05 20:04:28.151602
27.19211015,-0.3745737076,0.03987598419,0.7855154276,2024-06-05 20:04:28.192110
27.23253562,-1.029105663,-0.1280546188,0.1900341511,2024-06-05 20:04:28.232536
27.27304578,-1.270240426,-0.8521785736,0.8709680438,2024-06-05 20:04:28.273046
27.3135287,-1.611473799,-1.466355324,0.9171866179,2024-06-05 20:04:28.313529
27.35403859,-2.017182112,-1.675088882,0.7884578705,2024-06-05 20:04:28.354039
27.39450213,-0.6842489243,-1.682667732,0.9173442125,2024-06-05 20:04:28.394502
27.43500495,1.771546721,-0.744559288,3.102616787,2024-06-05 20:04:28.435005
27.47537349,1.974090338,-0.005100250244,2.923552513,2024-06-05 20:04:28.475373
27.51585583,-0.2620341778,0.7322721481,0.3527795076,2024-06-05 20:04:28.515856
27.55639276,-0.4478348494,-0.1761856079,1.888193727,2024-06-05 20:04:28.556393
27.59687521,2.120620728,-0.8124923706,0.872630477,2024-06-05 20:04:28.596875
27.63735307,2.939529896,-0.7426919937,-1.703255177,2024-06-05 20:04:28.637353
27.67784916,2.727896214,-0.6442146301,-4.439442158,2024-06-05 20:04:28.677849
27.71832713,1.741463184,-0.816649437,-2.352376699,2024-06-05 20:04:28.718327
27.75879687,0.8929512501,-0.1317033768,-1.087268353,2024-06-05 20:04:28.758797
27.79927557,-0.6609148979,0.4761543274,-2.330597878,2024-06-05 20:04:28.799276
27.83975005,0.2164912224,2.066736221,-2.090677738,2024-06-05 20:04:28.839750
27.88024036,0.3224434853,1.977721691,-1.833704591,2024-06-05 20:04:28.880240
27.92069771,0.2943775654,0.8722314835,-1.148455381,2024-06-05 20:04:28.920698
27.96116161,-0.05107188225,1.112348557,-0.06672167778,2024-06-05 20:04:28.961162
28.00164849,-0.32426548,-0.1699056625,1.866086841,2024-06-05 20:04:29.001648
28.04213448,-1.30235076,-0.8666067123,5.51440239,2024-06-05 20:04:29.042134
28.08262172,-1.280587554,-0.6866130829,3.057537794,2024-06-05 20:04:29.082622
28.12310802,0.09217274189,0.2686567307,1.156874418,2024-06-05 20:04:29.123108
28.16359396,2.24578619,-2.73213768,-2.471796036,2024-06-05 20:04:29.163594
28.20408187,0.3310661316,-0.2248039246,-2.011664867,2024-06-05 20:04:29.204082
28.24454437,0.1323690414,2.684000969,-2.453194141,2024-06-05 20:04:29.244544
28.28500698,0.6875917912,1.373059273,-2.963442802,2024-06-05 20:04:29.285007
28.32546114,1.483929634,-0.95753479,-2.405909777,2024-06-05 20:04:29.325461
28.36594922,0.6308028698,-0.6653280258,3.658783913,2024-06-05 20:04:29.365949
28.40641021,-0.6741023064,-0.3418588638,-2.99121356,2024-06-05 20:04:29.406410
28.44692927,-1.425589323,-0.6338891983,-2.689682961,2024-06-05 20:04:29.446929
28.48742432,-1.673945069,-0.09893798828,2.592193365,2024-06-05 20:04:29.487424
28.52791432,-1.160522223,-0.07806968689,-0.1270906925,2024-06-05 20:04:29.527914
28.56837927,-0.491810441,0.502243042,-0.9485397339,2024-06-05 20:04:29.568379
28.60886739,0.05446982384,-0.08306598663,0.1915585995,2024-06-05 20:04:29.608867
28.64936083,0.1461052895,-0.6331386566,1.740693331,2024-06-05 20:04:29.649361
28.68985979,-0.1014736891,-0.7258844376,2.799746513,2024-06-05 20:04:29.689860
28.73033088,0.1175204515,-0.3505630493,1.543403625,2024-06-05 20:04:29.730331
28.77080052,-0.4503961802,-1.015769958,0.1071916819,2024-06-05 20:04:29.770801
28.81128515,-0.1883971691,-2.03228569,-0.8175399303,2024-06-05 20:04:29.811285
28.85176432,2.304430485,0.2564525604,4.600222588,2024-06-05 20:04:29.851764
28.89222187,2.94063282,0.270526886,2.803260565,2024-06-05 20:04:29.892222
28.93269693,2.182192326,0.5234050751,0.2978768349,2024-06-05 20:04:29.932697
28.97318114,1.381382227,-1.027338028,-4.197813034,2024-06-05 20:04:29.973181
29.01368239,-0.09280204773,-1.367603302,-6.417307854,2024-06-05 20:04:30.013682
29.05419094,0.2365511656,-0.9958467484,-3.608855724,2024-06-05 20:04:30.054191
29.09467974,-1.005382776,0.2733926773,-2.676432371,2024-06-05 20:04:30.094680
29.13508937,0.0009505748749,1.743176937,-1.881294847,2024-06-05 20:04:30.135089
29.17558349,0.588799119,1.814599514,-2.588855505,2024-06-05 20:04:30.175583
29.21606708,0.6176663637,1.467033863,-4.443696022,2024-06-05 20:04:30.216067
29.25655583,2.049795628,-0.04456233978,-0.1268002987,2024-06-05 20:04:30.256556
29.29700614,3.138859987,-4.402299881,10.04134083,2024-06-05 20:04:30.297006
29.33749875,3.256896257,0.8407726288,0.433323741,2024-06-05 20:04:30.337499
29.37796823,-0.9349899292,0.08144855499,-3.530297279,2024-06-05 20:04:30.377968
29.41851218,1.987863541,1.901340485,-2.022217751,2024-06-05 20:04:30.418512
29.45892318,-2.020710707,1.164488792,-1.810401917,2024-06-05 20:04:30.458923
29.4994564,-3.903157711,-2.038417816,3.320118904,2024-06-05 20:04:30.499456
29.53988948,-0.3727314472,-0.9648094177,-2.54197979,2024-06-05 20:04:30.539889
29.58039166,1.783484221,0.3869009018,-0.4668689668,2024-06-05 20:04:30.580392
29.62086219,2.650647163,1.032299995,0.8203699589,2024-06-05 20:04:30.620862
29.66132161,0.05549263954,-1.236366272,1.498157501,2024-06-05 20:04:30.661322
29.70181818,-1.514011502,-0.6300725937,3.805692434,2024-06-05 20:04:30.701818
29.74228687,0.6731445789,0.03395175934,-0.5283050537,2024-06-05 20:04:30.742287
29.78276083,0.9538333416,0.5950422287,-2.244129896,2024-06-05 20:04:30.782761
29.82326562,0.1597113609,0.5280151367,-2.456478357,2024-06-05 20:04:30.823266
29.8637388,-0.7451053858,-0.1996078491,-1.711009741,2024-06-05 20:04:30.863739
29.90424234,-1.070164204,-0.7007350922,4.976876736,2024-06-05 20:04:30.904242
29.94469562,-0.196824193,-0.3603429794,-0.1381269693,2024-06-05 20:04:30.944696
29.9852114,0.1470246315,0.1218624115,-1.071658254,2024-06-05 20:04:30.985211
30.02571135,-0.1511431932,0.1403646469,0.03190487623,2024-06-05 20:04:31.025711
30.06616739,-0.967433691,-0.05253124237,-0.6865110397,2024-06-05 20:04:31.066167
30.10662333,-0.3673750162,-0.09707355499,0.01233190298,2024-06-05 20:04:31.106623
30.14709625,0.4772783518,0.005784034729,0.132519424,2024-06-05 20:04:31.147096
30.18760984,0.5258185863,0.05192279816,-0.2868331075,2024-06-05 20:04:31.187610
30.22806198,-0.1364221573,-0.1259431839,0.1942091584,2024-06-05 20:04:31.228062
30.2685225,-0.2480260134,0.07919788361,-0.1746689677,2024-06-05 20:04:31.268522
30.30899755,-0.2033057213,-0.0488948822,-0.494555831,2024-06-05 20:04:31.308998
30.34948838,0.09802317619,0.006608009338,0.01144051552,2024-06-05 20:04:31.349488
30.38997594,0.2227466106,0.1633205414,0.1549607515,2024-06-05 20:04:31.389976
30.4304876,-0.096398592,-0.04620838165,-0.1384999752,2024-06-05 20:04:31.430488
30.47092968,-0.02335572243,-0.01746463776,-0.008241057396,2024-06-05 20:04:31.470930
30.51144948,0.01795196533,-0.1003360748,0.05200344324,2024-06-05 20:04:31.511449
30.55190833,-0.2356309891,-0.03409576416,0.05986464024,2024-06-05 20:04:31.551908
30.59238552,-0.2044403553,0.159327507,-0.1706772447,2024-06-05 20:04:31.592386
30.63286984,0.08012247086,0.03587341309,0.1398199201,2024-06-05 20:04:31.632870
30.67327172,0.1092674732,-0.09860897064,0.1421974301,2024-06-05 20:04:31.673272
30.71380198,0.1001451015,-0.03187656403,-0.09226208925,2024-06-05 20:04:31.713802
30.75432177,-0.05069577694,0.07590770721,-0.07970392704,2024-06-05 20:04:31.754322
30.79476864,-0.07573866844,0.0001516342163,-0.03543317318,2024-06-05 20:04:31.794769
30.83521901,0.1017568111,0.03335094452,0.1182679534,2024-06-05 20:04:31.835219
30.87579708,0.1310017109,-0.0152349472,0.03448307514,2024-06-05 20:04:31.875797
30.91623708,-0.02108025551,0.01492023468,0.08938574791,2024-06-05 20:04:31.916237
30.95667536,-0.09103727341,-0.03969478607,0.01745402813,2024-06-05 20:04:31.956675
30.99715677,-0.1145989895,-0.06085014343,-0.05423545837,2024-06-05 20:04:31.997157
31.03764948,-0.0379730463,0.05217647552,0.0320648551,2024-06-05 20:04:32.037649
31.07814265,-0.2178262472,-0.06558704376,-0.1326132417,2024-06-05 20:04:32.078143
31.1186213,-0.08061110973,-0.01882839203,0.2125910521,2024-06-05 20:04:32.118621
31.15909187,-0.0762308836,-0.007892608643,0.05457508564,2024-06-05 20:04:32.159092
31.19955495,-0.2316516638,-0.102221489,-0.1322689056,2024-06-05 20:04:32.199555
31.2400438,-0.2305365801,0.08428382874,-0.1046252251,2024-06-05 20:04:32.240044
31.28053156,-0.04427194595,-0.01349449158,0.04729372263,2024-06-05 20:04:32.280532
31.32103708,0.187307477,-0.008734703064,0.09880274534,2024-06-05 20:04:32.321037
31.36149239,0.2992610931,0.02110290527,0.05389553308,2024-06-05 20:04:32.361492
31.40197088,0.1605434418,0.05498123169,-0.1392553449,2024-06-05 20:04:32.401971
31.44248198,-0.02159404755,0.02231693268,-0.1414339542,2024-06-05 20:04:32.442482
31.48296526,-0.08448553085,-0.02254295349,0.1145117879,2024-06-05 20:04:32.482965
31.52343344,0.04978680611,-0.02543449402,-0.09262925386,2024-06-05 20:04:32.523433
31.56390344,0.03861856461,0.03247451782,0.03933054209,2024-06-05 20:04:32.563903
31.60441734,0.01996874809,0.04633140564,0.0453081727,2024-06-05 20:04:32.604417
31.64484,-0.0341629982,0.01174259186,0.0002385377884,2024-06-05 20:04:32.644840
31.6853112,-0.1357624531,-0.09944438934,0.07274097204,2024-06-05 20:04:32.685311
31.72582323,-0.04761886597,0.01092147827,0.03703010082,2024-06-05 20:04:32.725823
31.76629588,0.0135512352,0.03053569794,-0.06280517578,2024-06-05 20:04:32.766296
31.80676625,-0.0009958744049,-0.04550552368,0.1327444315,2024-06-05 20:04:32.806766
31.84725135,-0.06018972397,-0.004538536072,0.0389393568,2024-06-05 20:04:32.847251
31.88772651,0.01051259041,-0.03730010986,0.06758034229,2024-06-05 20:04:32.887727
31.92820166,0.05952811241,-0.03184318542,-0.08555740118,2024-06-05 20:04:32.928202
31.96869,0.1484599113,0.006463050842,0.04818916321,2024-06-05 20:04:32.968690
32.0091663,0.01220154762,0.07305812836,-0.2212809324,2024-06-05 20:04:33.009166
32.04965359,0.1141932011,0.07142448425,0.0644903183,2024-06-05 20:04:33.049654
32.09013568,-0.01467895508,-0.08796882629,-0.175712347,2024-06-05 20:04:33.090136
32.13062823,-0.1438339949,-0.04114246368,0.08726662397,2024-06-05 20:04:33.130628
32.17111479,-0.05379724503,-0.03387546539,-0.05533176661,2024-06-05 20:04:33.171115
32.21158182,-0.04320001602,0.1161003113,-0.07960504293,2024-06-05 20:04:33.211582
32.25205515,0.09013342857,0.02851867676,-0.1586468816,2024-06-05 20:04:33.252055
32.29255198,-0.02569317818,-0.02576637268,-0.1898033023,2024-06-05 20:04:33.292552
32.33302219,-0.1108899117,0.04789066315,0.03438866138,2024-06-05 20:04:33.333022
32.37351448,-0.07093858719,-0.04800033569,-0.02152222395,2024-06-05 20:04:33.373514
32.4139339,0.001537084579,-0.007565498352,0.02917951345,2024-06-05 20:04:33.413934
32.45443234,-0.07384479046,0.02703666687,0.02852529287,2024-06-05 20:04:33.454432
32.4949213,-0.1522152424,-0.04483985901,0.02199703455,2024-06-05 20:04:33.494921
32.53538078,0.01027274132,0.06603431702,-0.06020224094,2024-06-05 20:04:33.535381
32.57584849,-0.1398478746,-0.03906345367,-0.01805591583,2024-06-05 20:04:33.575848
32.61632682,-0.1674764156,-0.08188152313,0.04391461611,2024-06-05 20:04:33.616327
32.65683838,-0.1613583565,-0.04295349121,0.07170367241,2024-06-05 20:04:33.656838
32.69728531,-0.07618689537,-0.02446651459,0.04069977999,2024-06-05 20:04:33.697285
32.73780646,0.04336118698,0.004907608032,0.1312285662,2024-06-05 20:04:33.737806
32.7783039,0.2577769756,0.1380386353,-0.003343820572,2024-06-05 20:04:33.778304
32.81877094,0.4519028664,-0.03938579559,0.004850327969,2024-06-05 20:04:33.818771
32.85924568,0.142383337,-0.1178159714,0.03021466732,2024-06-05 20:04:33.859246
32.89973036,0.002014398575,0.0315990448,0.1920663714,2024-06-05 20:04:33.899730
32.94017651,-0.003512382507,0.2005996704,-0.1787300706,2024-06-05 20:04:33.940177
32.9806763,-0.1946960688,0.03089427948,0.321002394,2024-06-05 20:04:33.980676
33.0211676,-0.1846418381,-0.126367569,0.1183384061,2024-06-05 20:04:34.021168
33.06164713,-0.08220887184,-0.0700006485,0.06677627563,2024-06-05 20:04:34.061647
33.10210474,-0.01355290413,-0.004376411438,0.1163197756,2024-06-05 20:04:34.102105
33.14259328,-0.02393198013,0.07961845398,0.1014806628,2024-06-05 20:04:34.142593
33.18308,-0.0758934021,0.003661155701,-0.2264555693,2024-06-05 20:04:34.183080
33.22355937,-0.0536005497,-0.002516746521,-0.246858418,2024-06-05 20:04:34.223559
33.26408989,0.1135854721,0.0008020401001,0.1549031138,2024-06-05 20:04:34.264090
33.30457786,0.1147098541,-0.07029438019,-0.0301284194,2024-06-05 20:04:34.304578
33.34497385,0.3374998569,-0.03290176392,-0.06817042828,2024-06-05 20:04:34.344974
33.38541609,0.5811064243,0.2140569687,-0.06629234552,2024-06-05 20:04:34.385416
33.42593146,-0.02714133263,0.06214332581,-0.3090709448,2024-06-05 20:04:34.425931
33.46641073,-0.5107070208,0.0225944519,-0.1708391905,2024-06-05 20:04:34.466411
33.50692672,-0.3401117325,-0.1636514664,-0.05408626795,2024-06-05 20:04:34.506927
33.54740375,0.05812978745,-0.001666069031,0.2951899767,2024-06-05 20:04:34.547404
33.58788995,0.1535027027,0.03589916229,0.1628462076,2024-06-05 20:04:34.587890
33.6283662,0.1675457954,-0.02733325958,0.1319107413,2024-06-05 20:04:34.628366
33.66883833,0.07863259315,-0.04078006744,-0.134899497,2024-06-05 20:04:34.668838
33.70931286,-0.06871533394,-0.001783370972,-0.1600812674,2024-06-05 20:04:34.709313
33.74978088,-0.106544137,0.000880241394,-0.04068368673,2024-06-05 20:04:34.749781
33.79028969,0.02534770966,0.008319854736,0.07140445709,2024-06-05 20:04:34.790290
33.83077078,0.031645298,-0.05733394623,0.07389849424,2024-06-05 20:04:34.830771
33.87122302,-0.05867791176,-0.05949020386,0.1264697909,2024-06-05 20:04:34.871223
33.91173885,-0.2117710114,0.03722858429,-0.07387042046,2024-06-05 20:04:34.911739
33.95220229,-0.07274031639,0.02271747589,-0.1118939519,2024-06-05 20:04:34.952202
33.99266338,0.08688092232,-0.07383823395,0.04101800919,2024-06-05 20:04:34.992663
34.03316052,0.2053537369,0.04105472565,0.04368036985,2024-06-05 20:04:35.033161
34.07364073,0.04531383514,0.05990409851,-0.08318591118,2024-06-05 20:04:35.073641
34.11416531,-0.1130168438,0.01334190369,-0.01914274693,2024-06-05 20:04:35.114165
34.15464505,-0.1602215767,-0.0959815979,0.01707458496,2024-06-05 20:04:35.154645
34.19512468,-0.08555281162,0.01427841187,-0.05914592743,2024-06-05 20:04:35.195125
34.23560427,0.03895449638,-0.05695533752,0.006652712822,2024-06-05 20:04:35.235604
34.27604609,0.1319005489,-0.004088401794,0.001946508884,2024-06-05 20:04:35.276046
34.31652739,0.07509279251,0.07007026672,-0.1227408648,2024-06-05 20:04:35.316527
34.35700849,0.04681444168,-0.09793281555,-0.004129052162,2024-06-05 20:04:35.357008
34.39747515,-0.02919483185,-0.05392074585,-0.07648324966,2024-06-05 20:04:35.397475
34.43794312,0.1162457466,-0.2197799683,-0.1238687634,2024-06-05 20:04:35.437943
34.47844328,0.3414025307,0.1734409332,-0.2493118644,2024-06-05 20:04:35.478443
34.51892708,0.4811351299,0.4064846039,-0.4654613733,2024-06-05 20:04:35.518927
34.55937922,0.544936657,-0.08973789215,-0.3206786811,2024-06-05 20:04:35.559379
34.59987937,0.06351327896,-0.329656601,-0.15710783,2024-06-05 20:04:35.599879
34.64037797,-0.4840003252,0.05104923248,-0.5359275937,2024-06-05 20:04:35.640378
34.68084083,-0.3681378365,0.2192649841,-0.5205924511,2024-06-05 20:04:35.680841
34.72132177,0.2451877594,-0.07253456116,0.08180510998,2024-06-05 20:04:35.721322
34.76179099,0.9689674377,0.1572475433,0.3345593214,2024-06-05 20:04:35.761791
34.80226172,0.7787749767,0.4481830597,-0.09231158346,2024-06-05 20:04:35.802262
34.8427512,0.07788014412,0.2669181824,-0.3750910163,2024-06-05 20:04:35.842751
34.88323807,-0.8276287317,-0.292391777,-0.4777398705,2024-06-05 20:04:35.883238
34.92370937,-1.334758878,-0.1949739456,0.03172528744,2024-06-05 20:04:35.923709
34.9641863,-0.6783847809,-0.08721256256,-0.1350048184,2024-06-05 20:04:35.964186
35.00466271,-0.6983835697,-0.05397987366,-0.003671765327,2024-06-05 20:04:36.004663
35.04513609,-0.5189409256,-0.2161312103,0.3553157449,2024-06-05 20:04:36.045136
35.0856388,-0.1463338137,-0.2297468185,0.2751060426,2024-06-05 20:04:36.085639
35.12606719,0.4494841099,0.01266002655,0.1478386521,2024-06-05 20:04:36.126067
35.16654734,1.604287386,0.08996009827,0.03720843792,2024-06-05 20:04:36.166547
35.20705625,2.189023495,0.129491806,0.01054161787,2024-06-05 20:04:36.207056
35.24757864,2.936246872,-0.3269910812,1.092458129,2024-06-05 20:04:36.247579
35.28805568,0.8100247383,0.382522583,2.790380955,2024-06-05 20:04:36.288056
35.32852125,-3.610628128,0.9099817276,0.9148421288,2024-06-05 20:04:36.328521
35.36899338,-3.562193871,0.2118148804,-2.578359365,2024-06-05 20:04:36.368993
35.40947177,0.4321141243,1.657874107,-2.831271172,2024-06-05 20:04:36.409472
35.44994646,2.446195126,1.528568745,-2.224166393,2024-06-05 20:04:36.449946
35.49044234,2.707583666,0.4743738174,-1.229643583,2024-06-05 20:04:36.490442
35.53091468,2.140044451,0.5315208435,-1.269959688,2024-06-05 20:04:36.530915
35.57140026,2.478239059,0.5872068405,-1.362391233,2024-06-05 20:04:36.571400
35.61187708,2.41228056,1.048417091,-1.117334247,2024-06-05 20:04:36.611877
35.65236432,4.197572708,-2.607983589,-0.3098195195,2024-06-05 20:04:36.652364
35.6928276,4.818171978,-2.769901276,8.613571167,2024-06-05 20:04:36.692828
35.73329557,-2.146306038,-0.5712938309,-0.6256445646,2024-06-05 20:04:36.733296
35.77377948,-1.982063293,-2.766573906,0.1649405956,2024-06-05 20:04:36.773779
35.81431213,-6.49716711,-1.597693443,5.794843674,2024-06-05 20:04:36.814312
35.85478427,-3.441293478,1.188109398,-2.250432014,2024-06-05 20:04:36.854784
35.89524604,-2.22463274,0.5708904266,-2.805617094,2024-06-05 20:04:36.895246
35.93570687,-0.4242306948,0.4623241425,-0.9006842375,2024-06-05 20:04:36.935707
35.97622651,0.704374671,0.09487915039,1.71054697,2024-06-05 20:04:36.976227
36.01667651,0.1256107092,0.08764743805,1.369687796,2024-06-05 20:04:37.016677
36.0571751,-0.03261983395,-0.4942502975,-1.024401784,2024-06-05 20:04:37.057175
36.09761651,-0.732073307,0.4222211838,-0.7488863468,2024-06-05 20:04:37.097617
36.13811573,0.2274260521,0.7549953461,-1.359710336,2024-06-05 20:04:37.138116
36.1785262,1.176527977,0.01507091522,-0.7668908834,2024-06-05 20:04:37.178526
36.21905271,1.248092413,0.5328645706,-1.455091834,2024-06-05 20:04:37.219053
36.25955323,1.571010351,0.5501146317,-2.916205406,2024-06-05 20:04:37.259553
36.30003463,1.728325367,0.9396467209,-2.218822956,2024-06-05 20:04:37.300035
36.34050448,0.8133246899,0.8378839493,-2.142518044,2024-06-05 20:04:37.340504
36.38097552,2.27896142,0.2273397446,0.7233276367,2024-06-05 20:04:37.380976
36.42144583,4.226642609,-2.652050018,3.155780554,2024-06-05 20:04:37.421446
36.46196297,4.172727108,-0.7257356644,3.738584042,2024-06-05 20:04:37.461963
36.50245578,-0.7890911102,-2.639744759,4.533391953,2024-06-05 20:04:37.502456
36.54290318,-4.154771805,-0.6825313568,2.137512922,2024-06-05 20:04:37.542903
36.58342901,-2.470416069,2.621618271,-0.2485659122,2024-06-05 20:04:37.583429
36.62387599,-1.694858074,1.71157074,0.8486526012,2024-06-05 20:04:37.623876
36.66438578,-0.9274572134,3.417535305,-1.609158754,2024-06-05 20:04:37.664386
36.70482922,-0.5634108782,2.324299812,-3.770657063,2024-06-05 20:04:37.704829
36.74524573,-0.4745258093,0.6524782181,-4.155590534,2024-06-05 20:04:37.745246
36.78576781,0.2467582226,-0.08648490906,-1.300922632,2024-06-05 20:04:37.785768
36.82628401,0.8737137318,-0.7363557816,1.986198187,2024-06-05 20:04:37.826284
36.86675682,1.334897637,-0.8183584213,-0.03565740585,2024-06-05 20:04:37.866757
36.90724187,5.448308945,-1.385812759,2.195677042,2024-06-05 20:04:37.907242
36.94768015,8.864936829,-2.249371529,3.757973671,2024-06-05 20:04:37.947680
36.9882188,0.4190807343,1.078314781,3.910914898,2024-06-05 20:04:37.988219
37.02865505,-2.140139103,0.2666521072,0.487511158,2024-06-05 20:04:38.028655
37.06913833,-1.471638322,-3.398076057,0.3237448931,2024-06-05 20:04:38.069138
37.10964281,-6.428797722,-1.497364998,1.573381662,2024-06-05 20:04:38.109643
37.15009807,-4.918465614,0.4521751404,-0.1153642535,2024-06-05 20:04:38.150098
37.19057771,-3.496636391,0.09230995178,2.655396461,2024-06-05 20:04:38.190578
37.23107932,-0.7656862736,0.4010753632,0.04323517531,2024-06-05 20:04:38.231079
37.27153802,-0.07497954369,0.5405845642,-1.625103474,2024-06-05 20:04:38.271538
37.31206797,-0.928798914,0.0174369812,-1.722145796,2024-06-05 20:04:38.312068
37.35249364,-1.715409279,-1.433909416,1.241653085,2024-06-05 20:04:38.352494
37.39298844,1.075757027,0.001768112183,1.203153372,2024-06-05 20:04:38.392988
37.43342974,2.057870865,0.7678842545,-0.9259019494,2024-06-05 20:04:38.433430
37.47398005,1.386332512,0.5970077515,-0.5241239071,2024-06-05 20:04:38.473980
37.51444661,-0.6060798168,-0.06520175934,-2.137059212,2024-06-05 20:04:38.514447
37.55492531,-0.5464552641,-0.7151412964,-0.9046580791,2024-06-05 20:04:38.554925
37.59535729,1.175668955,0.3849925995,-1.807621837,2024-06-05 20:04:38.595357
37.63583698,4.05102253,0.3250541687,0.4110995531,2024-06-05 20:04:38.635837
37.67637364,6.495604038,-1.968358994,4.832026482,2024-06-05 20:04:38.676374
37.71684021,-0.09422302246,-0.5532932281,1.993788958,2024-06-05 20:04:38.716840
37.75729547,-4.099627018,-0.8472185135,2.369425058,2024-06-05 20:04:38.757295
37.79778416,-6.873517036,-1.865948677,-3.238633394,2024-06-05 20:04:38.797784
37.83827172,-1.916936159,4.890212536,-1.420719028,2024-06-05 20:04:38.838272
37.8787437,0.7716903687,3.69783783,-1.202031016,2024-06-05 20:04:38.878744
37.91920989,1.91333437,1.466511726,3.073714018,2024-06-05 20:04:38.919210
37.95970349,-0.272094965,0.5544338226,-2.074153662,2024-06-05 20:04:38.959703
38.00018547,-3.215898037,-1.573974609,-1.502222419,2024-06-05 20:04:39.000185
38.04066635,-1.130374312,-1.701169014,3.14733386,2024-06-05 20:04:39.040666
38.08115979,1.603749514,-1.822883606,4.070979118,2024-06-05 20:04:39.081160
38.12163932,3.522435188,-0.8933324814,3.62494874,2024-06-05 20:04:39.121639
38.16211187,1.160554409,-2.361001015,5.289329052,2024-06-05 20:04:39.162112
38.20259135,-2.447639227,-0.1090688705,4.336208344,2024-06-05 20:04:39.202591
38.24307109,-1.250908256,0.6311941147,-2.002779961,2024-06-05 20:04:39.243071
38.28355463,-0.1337313652,0.8806114197,-3.082838058,2024-06-05 20:04:39.283555
38.32404979,-0.7182718515,0.3737354279,-3.00398016,2024-06-05 20:04:39.324050
38.36453234,-0.6962317228,-0.186425209,-1.014897466,2024-06-05 20:04:39.364532
38.40497666,-0.7936991453,0.2881689072,-0.9636928439,2024-06-05 20:04:39.404977
38.44544255,0.1140687466,0.06875991821,1.829149723,2024-06-05 20:04:39.445443
38.48592094,1.209741354,-0.2841262817,3.298594952,2024-06-05 20:04:39.485921
38.52641026,-0.5088322163,-0.4342241287,-0.9208714366,2024-06-05 20:04:39.526410
38.5668901,-0.5918192863,0.1907644272,0.3350670934,2024-06-05 20:04:39.566890
38.6073739,-0.06277906895,-0.1528320312,0.6722384095,2024-06-05 20:04:39.607374
38.64784989,-0.01212012768,0.3462963104,-1.331948519,2024-06-05 20:04:39.647850
38.68833,-0.3265039921,-0.05196762085,-1.167751551,2024-06-05 20:04:39.688330
38.72882291,-1.223524332,-0.1568346024,0.09602093697,2024-06-05 20:04:39.728823
38.76929281,-0.04192793369,-0.2772455215,1.052219391,2024-06-05 20:04:39.769293
38.80978708,0.7077604532,0.3197393417,0.177805841,2024-06-05 20:04:39.809787
38.85027385,0.02471649647,0.01533412933,0.2133921981,2024-06-05 20:04:39.850274
38.89073859,-0.6073865891,-0.05337238312,0.717725873,2024-06-05 20:04:39.890739
38.93120823,0.1591954231,-0.4093704224,-0.4514961243,2024-06-05 20:04:39.931208
38.97168974,0.4531788826,0.114900589,1.694553971,2024-06-05 20:04:39.971690
39.01219781,0.03599894047,0.005815505981,0.6955686212,2024-06-05 20:04:40.012198
39.05267594,0.5590254068,0.138915062,-0.9077324867,2024-06-05 20:04:40.052676
39.09312974,0.4416242838,0.1797323227,-0.8544967771,2024-06-05 20:04:40.093130
39.13362547,-0.3930904865,0.1219596863,-0.522041142,2024-06-05 20:04:40.133625
39.17411776,-0.7630610466,-0.4536180496,-0.2152044177,2024-06-05 20:04:40.174118
39.21456724,-0.5313304663,-0.07051563263,-0.2624901533,2024-06-05 20:04:40.214567
39.25508349,-0.1006398201,0.2279882431,0.8772580624,2024-06-05 20:04:40.255083
39.2955888,-0.3471455574,-0.2324991226,-0.2502099872,2024-06-05 20:04:40.295589
39.33607172,-0.4216698408,-0.07856082916,-0.5222712159,2024-06-05 20:04:40.336072
39.37651323,-0.3720525503,-0.1265125275,0.6034452915,2024-06-05 20:04:40.376513
39.41697484,0.2719111443,0.06628608704,0.3420858383,2024-06-05 20:04:40.416975
39.45745354,0.973690629,0.3287153244,0.1801334023,2024-06-05 20:04:40.457454
39.49794432,0.5195521116,0.1921854019,0.1162393689,2024-06-05 20:04:40.497944
39.53842521,0.04180645943,-0.1888341904,-0.191193521,2024-06-05 20:04:40.538425
39.57889536,0.07930648327,-0.06536006927,-0.3619841337,2024-06-05 20:04:40.578895
39.61936599,-0.02592611313,0.1915111542,-0.8386383057,2024-06-05 20:04:40.619366
39.65984927,-0.3486647606,0.01407146454,-1.007110357,2024-06-05 20:04:40.659849
39.70030182,-0.6399287581,-0.0410528183,-0.5069740415,2024-06-05 20:04:40.700302
39.74082265,-0.7431838512,-0.1536130905,0.1911440492,2024-06-05 20:04:40.740823
39.78131396,0.1078373194,-0.136882782,1.357962489,2024-06-05 20:04:40.781314
39.82180515,0.249764204,0.123755455,-0.7663434148,2024-06-05 20:04:40.821805
39.8622813,0.02524137497,-0.01694965363,-0.5266851783,2024-06-05 20:04:40.862281
39.90273458,0.04725646973,0.1448278427,-0.1799129844,2024-06-05 20:04:40.902735
39.94319224,0.4430187941,0.3583116531,-0.9301555157,2024-06-05 20:04:40.943192
39.98376661,0.1894342899,0.5367507935,-0.7952058315,2024-06-05 20:04:40.983767
40.02423666,0.1038720608,-0.09175682068,-0.4265011847,2024-06-05 20:04:41.024237
40.06467755,-0.2326501012,-0.162197113,-0.07766725868,2024-06-05 20:04:41.064678
40.10509151,-1.091029167,-0.4847173691,0.3727503419,2024-06-05 20:04:41.105092
40.14568635,-0.4063416123,-0.5722980499,0.567201972,2024-06-05 20:04:41.145686
40.18616552,0.9159696102,0.6233224869,0.4025220573,2024-06-05 20:04:41.186166
40.22664885,0.4323459864,0.2693328857,-1.352801085,2024-06-05 20:04:41.226649
40.26706739,-1.168995142,-0.5890645981,-1.601953268,2024-06-05 20:04:41.267067
40.30753797,-0.4053902626,-0.1810436249,-1.547326684,2024-06-05 20:04:41.307538
40.34801718,1.94776237,0.4973421097,-0.2332226634,2024-06-05 20:04:41.348017
40.38851015,2.568994999,0.6574144363,-1.039423108,2024-06-05 20:04:41.388510
40.4290339,2.378488064,0.3588285446,-3.543431044,2024-06-05 20:04:41.429034
40.4694714,1.795221567,0.0707654953,-3.291975975,2024-06-05 20:04:41.469471
40.50997125,1.061122537,-0.9487991333,-4.794540405,2024-06-05 20:04:41.509971
40.55043219,2.389832497,-1.07098484,-1.955280662,2024-06-05 20:04:41.550432
40.5908976,4.183141232,-2.730277061,5.793618202,2024-06-05 20:04:41.590898
40.63139547,-1.078713894,-1.839663506,3.474032879,2024-06-05 20:04:41.631395
40.67185594,-3.88773489,2.438605785,-1.072271585,2024-06-05 20:04:41.671856
40.71232109,-1.822627544,1.01612854,-1.776914239,2024-06-05 20:04:41.712321
40.75286031,-0.7104458809,0.7611808777,-0.08988261223,2024-06-05 20:04:41.752860
40.79333896,1.559614182,2.69330883,0.4622833729,2024-06-05 20:04:41.793339
40.83377526,0.7734309435,2.506415844,-4.429086208,2024-06-05 20:04:41.833775
40.87429479,1.134994268,1.816098213,-3.772985458,2024-06-05 20:04:41.874295
40.91474031,0.7063744068,0.6202936172,-2.759809017,2024-06-05 20:04:41.914740
40.95520281,0.2828977108,-0.3591003418,-1.827571511,2024-06-05 20:04:41.955203
40.99568271,1.321280718,-0.5150413513,-1.018898964,2024-06-05 20:04:41.995683
41.03618364,4.020022392,-0.8382558823,0.7254003882,2024-06-05 20:04:42.036184
41.07666713,3.734063864,-6.637985229,7.076154709,2024-06-05 20:04:42.076667
41.11713687,-2.999949455,-4.456279755,10.1076088,2024-06-05 20:04:42.117137
41.15760349,-1.469869375,0.8778467178,-0.6289442182,2024-06-05 20:04:42.157603
41.19810234,-3.218334198,-0.747797966,-1.661479473,2024-06-05 20:04:42.198102
41.23858838,-4.342752457,-4.392827034,3.53125596,2024-06-05 20:04:42.238588
41.27906692,-3.447385311,0.7924757004,0.6949371099,2024-06-05 20:04:42.279067
41.31954338,-0.6597596407,2.091691971,-2.777604818,2024-06-05 20:04:42.319543
41.36003375,-0.3337180614,2.744506836,-1.263142347,2024-06-05 20:04:42.360034
41.40049041,-0.8852777481,0.1142492294,6.641618729,2024-06-05 20:04:42.400490
41.44095052,0.03959703445,-1.706075668,2.531900167,2024-06-05 20:04:42.440951
41.4814676,-1.271550179,-1.231840134,-1.15064311,2024-06-05 20:04:42.481468
41.52195901,-0.8008890152,-0.3627157211,-1.897472858,2024-06-05 20:04:42.521959
41.56240651,-1.012606502,0.1040439606,-1.936366558,2024-06-05 20:04:42.562407
41.60289541,-1.688448787,0.003403663635,-0.01601403952,2024-06-05 20:04:42.602895
41.6433838,0.5832648277,0.7430381775,-1.169458628,2024-06-05 20:04:42.643384
41.683865,1.022845268,0.2440700531,0.134177506,2024-06-05 20:04:42.683865
41.72436151,-0.3997161388,0.210691452,2.599017382,2024-06-05 20:04:42.724362
41.7648314,-1.648500681,-0.561296463,0.6829701662,2024-06-05 20:04:42.764831
41.8053339,0.5480978489,-0.1296424866,-0.4528963566,2024-06-05 20:04:42.805334
41.84579255,0.4116952419,-0.5763235092,1.863061666,2024-06-05 20:04:42.845793
41.88623838,-1.331958771,-0.126958847,2.63435936,2024-06-05 20:04:42.886238
41.92671828,-2.176957607,0.2793235779,1.130081773,2024-06-05 20:04:42.926718
41.96721484,-1.373692393,-0.02996063232,0.7476735115,2024-06-05 20:04:42.967215
42.00768125,0.06808590889,0.1552391052,1.631640434,2024-06-05 20:04:43.007681
42.04816318,0.07527327538,0.269197464,1.059741735,2024-06-05 20:04:43.048163
42.08864594,0.1194021702,0.4271764755,1.172408104,2024-06-05 20:04:43.088646
42.12912984,-0.001050710678,0.297498703,0.8346526623,2024-06-05 20:04:43.129130
42.16961203,-0.3988064528,0.01047039032,1.309585094,2024-06-05 20:04:43.169612
42.2101012,-0.3131151199,-0.9173164368,3.12315011,2024-06-05 20:04:43.210101
42.25058505,0.3489160538,-1.043341637,4.2726264,2024-06-05 20:04:43.250585
42.29109245,-0.7166371942,-0.5092506409,2.75180006,2024-06-05 20:04:43.291092
42.33156448,-2.340675831,1.095980167,-0.2710499763,2024-06-05 20:04:43.331564
42.37203703,-2.969884396,4.211857796,-3.365018368,2024-06-05 20:04:43.372037
42.41247911,-0.0241253376,7.359889507,-5.124493599,2024-06-05 20:04:43.412479
42.45298276,2.629906654,4.006400585,-3.861700058,2024-06-05 20:04:43.452983
42.49348297,3.233892202,-14.49531651,3.053920507,2024-06-05 20:04:43.493483
42.53398802,1.519295216,-1.970208168,1.253003359,2024-06-05 20:04:43.533988
42.57443573,-1.133046508,3.381707668,-0.5080809593,2024-06-05 20:04:43.574436
42.61488703,2.731754065,3.076321602,-2.350788355,2024-06-05 20:04:43.614887
42.65540677,0.3327744007,-4.331173897,3.401043892,2024-06-05 20:04:43.655407
42.69586625,-4.295770168,-0.5251789093,-0.8095133305,2024-06-05 20:04:43.695866
42.73632568,-2.549161911,1.47676754,-1.886337399,2024-06-05 20:04:43.736326
42.7768275,-2.499993801,-0.7939605713,4.543638706,2024-06-05 20:04:43.776828
42.81729255,-2.684078932,0.1760501862,2.803181648,2024-06-05 20:04:43.817293
42.85778932,-0.7112128735,-2.549343109,4.069265366,2024-06-05 20:04:43.857789
42.89824635,-1.887574434,-4.839611053,8.6925354,2024-06-05 20:04:43.898246
42.9387163,1.877498388,-2.849966049,2.020139456,2024-06-05 20:04:43.938716
42.97923099,3.425775766,0.5721979141,-3.041324377,2024-06-05 20:04:43.979231
43.01969484,3.59531045,3.79169178,-8.187486649,2024-06-05 20:04:44.019695
43.06016364,0.1631623358,-0.3736200333,-0.1893713474,2024-06-05 20:04:44.060164
43.10064875,0.4307731092,2.40559721,-3.224598646,2024-06-05 20:04:44.100649
43.14117213,2.402710438,5.628492355,-4.281199455,2024-06-05 20:04:44.141172
43.18165255,2.241913557,1.162568092,-0.7162715197,2024-06-05 20:04:44.181653
43.22211609,4.044661522,-7.035799026,6.305196285,2024-06-05 20:04:44.222116
43.26257177,1.47812748,-2.480786324,-3.616915941,2024-06-05 20:04:44.262572
43.30310088,0.6833703518,-0.07306194305,-5.601221085,2024-06-05 20:04:44.303101
43.34354927,-2.289334774,0.08485889435,-3.207727194,2024-06-05 20:04:44.343549
43.38402416,-5.618535519,-0.9544496536,5.565826416,2024-06-05 20:04:44.384024
43.42447453,0.5556819439,-1.291811943,-1.189858198,2024-06-05 20:04:44.424475
43.46495495,2.719409466,1.772650719,1.454909325,2024-06-05 20:04:44.464955
43.50545094,-0.9647595286,0.4257135391,0.5607836246,2024-06-05 20:04:44.505451
43.54591604,-1.80020225,0.5538005829,1.11718297,2024-06-05 20:04:44.545916
43.58641557,0.8169132471,0.7167539597,-0.5147593021,2024-06-05 20:04:44.586416
43.62689021,-0.2893304825,-0.8957471848,-0.03254580498,2024-06-05 20:04:44.626890
43.66738927,-4.19224453,-1.934188843,1.443115234,2024-06-05 20:04:44.667389
43.70786922,-5.835000038,-1.619210243,0.4790912271,2024-06-05 20:04:44.707869
43.74833218,-4.082176208,-0.9571819305,0.5981939435,2024-06-05 20:04:44.748332
43.78883318,0.6583185196,-1.503201485,1.593185306,2024-06-05 20:04:44.788833
43.82927672,3.689882994,-1.964668274,2.440804958,2024-06-05 20:04:44.829277
43.86978692,6.794404984,1.462125301,-2.005666256,2024-06-05 20:04:44.869787
43.91026692,0.5418982506,-0.6690416336,-0.3751189709,2024-06-05 20:04:44.910267
43.95073541,-0.2759611607,-2.646024704,0.3476012945,2024-06-05 20:04:44.950735
43.99121312,2.076499224,-1.206036568,-5.287322044,2024-06-05 20:04:44.991213
44.0316925,2.072335005,3.880992889,-5.958620071,2024-06-05 20:04:45.031692
44.07217807,-0.6143214703,4.946487904,3.325711489,2024-06-05 20:04:45.072178
44.11268359,-1.302376747,2.86233139,7.808670044,2024-06-05 20:04:45.112684
44.1531539,0.2040624619,0.551574707,-3.58615303,2024-06-05 20:04:45.153154
44.19357427,2.160984278,0.3576383591,-6.287941456,2024-06-05 20:04:45.193574
44.23414948,8.897950172,-4.159427643,5.79282856,2024-06-05 20:04:45.234149
44.27462281,-0.6897797585,-1.769111633,-4.108778954,2024-06-05 20:04:45.274623
44.31507547,1.005975962,-1.559120178,-0.7340853214,2024-06-05 20:04:45.315075
44.35554521,-0.8798042536,-5.060295105,4.885308266,2024-06-05 20:04:45.355545
44.39597229,2.248426914,-2.588514328,4.351831436,2024-06-05 20:04:45.395972
44.43649557,4.253038406,0.8309965134,0.4178671837,2024-06-05 20:04:45.436496
44.47699521,4.295815468,1.005208492,-3.949555397,2024-06-05 20:04:45.476995
44.51748474,1.681708336,-1.901772022,-1.742530346,2024-06-05 20:04:45.517485
44.55795739,0.7341793776,-1.383603573,-2.747734547,2024-06-05 20:04:45.557957
44.59843672,-0.2357085347,1.502290726,-3.321086407,2024-06-05 20:04:45.598437
44.63890583,-0.978700459,2.585201263,-2.943137646,2024-06-05 20:04:45.638906
44.67938427,-1.238806367,1.491697788,-2.64282465,2024-06-05 20:04:45.679384
44.71986739,-0.4052159488,0.7248373032,-2.126844883,2024-06-05 20:04:45.719867
44.76035719,1.201354146,1.507218838,-2.467618942,2024-06-05 20:04:45.760357
44.80083958,1.010812402,1.02021122,-0.7177805901,2024-06-05 20:04:45.800840
44.84131208,-0.5915039182,1.345544815,-0.1507506371,2024-06-05 20:04:45.841312
44.8817889,-0.7091786861,-0.4493718147,0.9023485184,2024-06-05 20:04:45.881789
44.92224479,0.6439886689,0.125638485,0.9187426567,2024-06-05 20:04:45.922245
44.96272078,0.9995496273,0.1098837852,-0.1855239868,2024-06-05 20:04:45.962721
45.00322791,0.004149771295,-0.4437828064,0.2399663925,2024-06-05 20:04:46.003228
45.04372692,1.398736954,-0.54002285,1.211564064,2024-06-05 20:04:46.043727
45.08422286,-0.298701942,0.5851006508,-0.6670622826,2024-06-05 20:04:46.084223
45.12467562,-2.125655651,-1.148742199,1.264076233,2024-06-05 20:04:46.124676
45.16510312,0.3030499816,1.604874611,0.2873463631,2024-06-05 20:04:46.165103
45.20561614,2.307126522,-0.4000697136,-0.1937742233,2024-06-05 20:04:46.205616
45.24609448,-1.925792575,0.238214016,-0.3939809799,2024-06-05 20:04:46.246094
45.28657599,0.05626602098,0.744743824,-0.03700494766,2024-06-05 20:04:46.286576
45.32707411,1.304296255,-1.443952084,2.450811863,2024-06-05 20:04:46.327074
45.36756203,0.1467143297,-0.6882205009,1.264742851,2024-06-05 20:04:46.367562
45.40803989,0.2120836377,-2.778161526,1.438176155,2024-06-05 20:04:46.408040
45.44850578,-0.4038478136,-2.125590324,0.4934458733,2024-06-05 20:04:46.448506
45.48901229,-1.353629708,1.050521374,-3.475285053,2024-06-05 20:04:46.489012
45.52947729,-0.5210505724,4.724391937,-4.764890671,2024-06-05 20:04:46.529477
45.56993901,1.093227863,4.94797802,-3.492846966,2024-06-05 20:04:46.569939
45.61043916,-0.5616559386,2.432386875,-1.346067429,2024-06-05 20:04:46.610439
45.65091083,-0.5623699427,1.725503922,-3.318083048,2024-06-05 20:04:46.650911
45.69137614,3.597718716,3.580502748,-4.84773016,2024-06-05 20:04:46.691376
45.73185578,4.790938377,4.098642826,-6.786798477,2024-06-05 20:04:46.731856
45.77234536,8.614814758,1.246287823,-3.63073802,2024-06-05 20:04:46.772345
45.81284531,8.628583908,-3.913586617,5.91010046,2024-06-05 20:04:46.812845
45.85330109,-1.586661458,-13.93298721,9.431150436,2024-06-05 20:04:46.853301
45.89382156,5.17491436,-5.435564041,6.108837605,2024-06-05 20:04:46.893822
45.93429099,-4.122716427,-1.767212868,-1.949347734,2024-06-05 20:04:46.934291
45.97477302,-4.542529583,-3.5639534,3.534935474,2024-06-05 20:04:46.974773
46.01525192,-4.448656082,-4.627317429,-3.491717339,2024-06-05 20:04:47.015252
46.05568177,0.3185814619,-1.656882286,-0.162099123,2024-06-05 20:04:47.055682
46.09617114,1.390447974,0.06701278687,-1.126918793,2024-06-05 20:04:47.096171
46.13668015,1.918382883,-0.05284118652,-0.5841407776,2024-06-05 20:04:47.136680
46.17711968,0.130191803,2.920959949,-2.554929495,2024-06-05 20:04:47.177120
46.21764302,-1.876105785,1.587750435,-1.425866723,2024-06-05 20:04:47.217643
46.25810672,-4.043357849,0.4360780716,-0.9107474089,2024-06-05 20:04:47.258107
46.29860036,-3.23413229,1.07387352,-0.3102560043,2024-06-05 20:04:47.298600
46.33908021,-0.491102457,1.218139648,-1.181639671,2024-06-05 20:04:47.339080
46.37953802,0.08502483368,-0.2449798584,-0.1318018436,2024-06-05 20:04:47.379538
46.41998614,-0.3756636381,-0.329618454,-1.810031652,2024-06-05 20:04:47.419986
46.46052568,-0.1382102966,0.6986141205,-3.958204269,2024-06-05 20:04:47.460526
46.50100229,1.808552027,-0.08111381531,-1.985571623,2024-06-05 20:04:47.501002
46.54147302,2.188913345,-1.39330101,-0.6997749805,2024-06-05 20:04:47.541473
46.58192693,2.00759244,-2.835547447,6.451479435,2024-06-05 20:04:47.581927
46.62245646,-1.436912298,-2.462575912,7.526780128,2024-06-05 20:04:47.622456
46.66288859,-1.411625743,1.610309601,0.8577079773,2024-06-05 20:04:47.662889
46.70337911,-0.3359415531,1.533960819,-2.50276804,2024-06-05 20:04:47.703379
46.74390958,-0.1087188721,1.142101288,1.507967949,2024-06-05 20:04:47.743910
46.78436364,-1.486723661,1.148135662,-0.3363518715,2024-06-05 20:04:47.784364
46.82484437,-1.684126496,2.086996078,-0.7714321613,2024-06-05 20:04:47.824844
46.86524927,-0.8108167648,1.858922958,-1.938733697,2024-06-05 20:04:47.865249
46.90573443,-0.2843453884,2.162833691,-2.750555038,2024-06-05 20:04:47.905734
46.94626844,1.033601522,0.9061002731,-0.6203769445,2024-06-05 20:04:47.946268
46.98676307,0.8304133415,-1.204861641,1.040705442,2024-06-05 20:04:47.986763
47.02720354,-0.9890855551,-0.5113210678,0.2078819871,2024-06-05 20:04:48.027204
47.0676989,-0.3081231117,-1.058641434,0.6059129834,2024-06-05 20:04:48.067699
47.10820135,6.110414028,-2.318701744,7.879248619,2024-06-05 20:04:48.108201
47.14867453,2.096058369,-2.843421936,3.058285713,2024-06-05 20:04:48.148675
47.18915526,-1.603191853,-1.179859161,3.664311171,2024-06-05 20:04:48.189155
47.22963937,-0.3061525822,0.3284893036,-0.0969991684,2024-06-05 20:04:48.229639
47.27010271,-0.2001042366,-0.06426906586,-1.537757039,2024-06-05 20:04:48.270103
47.31056396,-4.113018036,-0.8468608856,0.5747300386,2024-06-05 20:04:48.310564
47.35105724,-2.594265461,-0.09105300903,3.667122364,2024-06-05 20:04:48.351057
47.39153875,-1.218262196,-0.6306972504,1.450296879,2024-06-05 20:04:48.391539
47.43198427,-2.179006815,-0.4935541153,0.2557120025,2024-06-05 20:04:48.431984
47.47251724,-1.980249405,0.2273197174,-1.094055653,2024-06-05 20:04:48.472517
47.51301677,-0.9285550117,0.03951740265,1.054465652,2024-06-05 20:04:48.513017
47.55348854,-0.9932916164,-0.09680366516,1.002599239,2024-06-05 20:04:48.553489
47.59402057,-1.690294743,0.07918643951,0.9267453551,2024-06-05 20:04:48.594021
47.63445505,-1.31509757,0.6280574799,0.4885593057,2024-06-05 20:04:48.634455
47.67485958,-1.314108372,0.3596067429,0.3186792433,2024-06-05 20:04:48.674860
47.71535708,-1.077007055,0.6316928864,0.1530265212,2024-06-05 20:04:48.715357
47.75580781,-2.081718445,0.5219144821,0.5283881426,2024-06-05 20:04:48.755808
47.79635344,-2.89146471,0.1981258392,-1.420834064,2024-06-05 20:04:48.796353
47.8368088,-3.215987682,-0.2511138916,-0.5898547173,2024-06-05 20:04:48.836809
47.8773064,-1.560652256,-0.2497634888,-2.48273325,2024-06-05 20:04:48.877306
47.91780875,0.6912868023,-1.113259315,-0.5747407079,2024-06-05 20:04:48.917809
47.95825953,-1.147673011,-1.714173317,1.126159191,2024-06-05 20:04:48.958260
47.99874166,-3.760028362,-2.346532822,1.058182836,2024-06-05 20:04:48.998742
48.03923182,-2.415070057,-4.866210938,0.3412547112,2024-06-05 20:04:49.039232
48.07969911,1.221200943,-2.384324074,4.894076824,2024-06-05 20:04:49.079699
48.12018193,0.8916759491,-3.191775322,6.720574856,2024-06-05 20:04:49.120182
48.16067057,1.133465528,-0.1470842361,3.87348628,2024-06-05 20:04:49.160671
48.20115333,2.839244843,-0.9547319412,1.332790732,2024-06-05 20:04:49.201153
48.24163323,2.126985073,-1.10513401,-4.616636276,2024-06-05 20:04:49.241633
48.28211901,4.143668652,1.28474617,-4.248751163,2024-06-05 20:04:49.282119
48.32262036,2.768263817,-0.8772125244,1.305933237,2024-06-05 20:04:49.322620
48.36308651,-1.172273397,-1.757738113,-3.283067942,2024-06-05 20:04:49.363087
48.40355984,2.923744678,1.942100525,-2.514416695,2024-06-05 20:04:49.403560
48.44403187,4.26598835,6.809871674,-3.615596056,2024-06-05 20:04:49.444032
48.48451718,2.706207275,10.22529888,-6.174093246,2024-06-05 20:04:49.484517
48.52493375,1.440964222,4.128621101,5.748788357,2024-06-05 20:04:49.524934
48.56543844,7.719805717,-15.9400692,0.5042760372,2024-06-05 20:04:49.565438
48.60594198,2.730377913,3.574563503,-4.886698246,2024-06-05 20:04:49.605942
48.64642474,-0.973777473,0.390124321,-1.818888903,2024-06-05 20:04:49.646425
48.68691536,-2.923136711,-3.847598076,-0.8094321489,2024-06-05 20:04:49.686915
48.72740937,-2.218105316,-0.8502588272,-0.9426349401,2024-06-05 20:04:49.727409
48.76789286,0.09522104263,-0.01928329468,-1.022337675,2024-06-05 20:04:49.767893
48.80835234,1.125169635,0.4483318329,0.1052493453,2024-06-05 20:04:49.808352
48.84882812,0.4054569006,0.6691904068,0.2322306037,2024-06-05 20:04:49.848828
48.88932812,0.1880793571,1.809472084,0.2810339928,2024-06-05 20:04:49.889328
48.92981672,-0.4217267036,0.6165924072,0.1059297919,2024-06-05 20:04:49.929817
48.97025515,-1.526099563,-0.200304985,0.5263677835,2024-06-05 20:04:49.970255
49.01074677,-2.784324169,0.5203886032,1.737289429,2024-06-05 20:04:50.010747
49.0512225,-2.550952435,0.5278367996,0.2906817794,2024-06-05 20:04:50.051223
49.09169604,0.5802984238,-1.492655754,1.038835645,2024-06-05 20:04:50.091696
49.13218609,6.198647499,-2.089149475,4.1972332,2024-06-05 20:04:50.132186
49.17267135,7.269952297,-4.308237076,1.162517309,2024-06-05 20:04:50.172671
49.2131513,3.636686087,-1.936831474,-4.596310616,2024-06-05 20:04:50.213151
49.25363755,1.627492428,3.86628294,-2.900122643,2024-06-05 20:04:50.253638
49.29412005,0.7578510046,4.016643524,-1.160405636,2024-06-05 20:04:50.294120
49.33457932,-2.191032648,0.5807704926,-1.639097214,2024-06-05 20:04:50.334579
49.37504271,2.785615683,2.241586208,-0.9894258976,2024-06-05 20:04:50.375043
49.41552489,5.672005653,3.48071909,-3.29561758,2024-06-05 20:04:50.415525
49.45600437,4.823486328,0.7859811783,-1.482919931,2024-06-05 20:04:50.456004
49.49650437,0.1164052486,0.8366832733,2.169484615,2024-06-05 20:04:50.496504
49.53698692,2.831444025,-0.506942749,8.308210373,2024-06-05 20:04:50.536987
49.57746088,7.806911469,-6.873949051,2.203923941,2024-06-05 20:04:50.577461
49.61797828,-0.7751780748,-0.240480423,-2.763905287,2024-06-05 20:04:50.617978
49.65844344,-8.716134071,-1.037286758,-2.99310112,2024-06-05 20:04:50.658443
49.69885786,-5.889069557,-0.8790159225,-2.821859121,2024-06-05 20:04:50.698858
49.73939536,-1.22638011,-2.513900757,-3.876045942,2024-06-05 20:04:50.739395
49.77988271,0.6744976044,-1.70717144,-0.5734357834,2024-06-05 20:04:50.779883
49.8203413,1.521513939,1.248684883,-2.332044601,2024-06-05 20:04:50.820341
49.8608437,-0.8930625916,-1.024596214,2.975181103,2024-06-05 20:04:50.860844
49.90132443,-1.617655277,0.6888637543,-0.07565033436,2024-06-05 20:04:50.901324
49.94178885,0.1243309975,1.026849747,-0.1259540319,2024-06-05 20:04:50.941789
49.98227635,0.1261451244,2.115396023,-0.5467911959,2024-06-05 20:04:50.982276
50.02275422,-1.450454235,0.8189468384,-0.9839578867,2024-06-05 20:04:51.022754
50.06322432,-2.670373201,-1.095740318,-0.1808731556,2024-06-05 20:04:51.063224
50.10370797,-2.265893698,-0.817111969,-0.5992892981,2024-06-05 20:04:51.103708
50.14422094,-0.1153590679,0.2017126083,0.2062969208,2024-06-05 20:04:51.144221
50.18464656,1.421292067,0.2716398239,-1.022007942,2024-06-05 20:04:51.184647
50.22510875,-0.310844183,0.5411939621,-1.84733367,2024-06-05 20:04:51.225109
50.265635,-0.9843529463,-0.5515079498,-0.7212759256,2024-06-05 20:04:51.265635
50.30613958,0.04146981239,-0.2158651352,-0.78891927,2024-06-05 20:04:51.306140
50.34660297,1.50805521,2.111010075,-1.212014914,2024-06-05 20:04:51.346603
50.38709989,1.892499924,0.1787891388,-2.489884853,2024-06-05 20:04:51.387100
50.42754776,-0.02747321129,-0.1508245468,-0.6296541691,2024-06-05 20:04:51.427548
50.46802187,0.6737055779,0.3354902267,1.689343095,2024-06-05 20:04:51.468022
50.50848489,1.792191982,-1.196737289,2.618251324,2024-06-05 20:04:51.508485
50.54899479,1.602170706,-1.623069763,2.940509558,2024-06-05 20:04:51.548995
50.58948515,-1.673354626,-1.377383232,3.405803442,2024-06-05 20:04:51.589485
50.62994974,-2.593215942,-1.119345665,2.471549988,2024-06-05 20:04:51.629950
50.67043526,-4.579183578,0.4100875854,0.5826334953,2024-06-05 20:04:51.670435
50.71091573,-3.08561945,1.889852524,-0.06768274307,2024-06-05 20:04:51.710916
50.75139958,0.5917055607,3.699012756,-1.260184646,2024-06-05 20:04:51.751400
50.79188818,2.41960597,4.539162159,0.3744437695,2024-06-05 20:04:51.791888
50.83238125,3.175640345,1.080048561,0.945768714,2024-06-05 20:04:51.832381
50.87284802,0.05506420135,-4.53085041,1.464226246,2024-06-05 20:04:51.872848
50.91331521,-5.275524139,-2.455574036,2.361605883,2024-06-05 20:04:51.913315
50.95378099,-0.8137732744,0.2760887146,2.348357916,2024-06-05 20:04:51.953781
50.99432468,1.802163601,3.220273972,-0.2192538977,2024-06-05 20:04:51.994325
51.0347589,2.262177467,0.3940515518,0.6564885378,2024-06-05 20:04:52.034759
51.07520422,-1.861020327,-2.508330345,1.407652855,2024-06-05 20:04:52.075204
51.11567338,-1.05315876,1.025533676,2.742331266,2024-06-05 20:04:52.115673
51.15615328,1.671140432,0.6160879135,-2.035411358,2024-06-05 20:04:52.156153
51.19665083,0.4683644772,0.4729337692,-1.131426573,2024-06-05 20:04:52.196651
51.23716604,-1.830449581,-0.6737318039,2.230757475,2024-06-05 20:04:52.237166
51.27764693,-0.5334632397,0.3888864517,-0.2960546315,2024-06-05 20:04:52.277647
51.31812531,1.068737268,0.3979215622,-2.004466057,2024-06-05 20:04:52.318125
51.35860568,1.265195847,-0.4843873978,-1.060293674,2024-06-05 20:04:52.358606
51.39909318,-0.2492334843,-0.3175020218,0.4612812996,2024-06-05 20:04:52.399093
51.43955713,-2.836515427,-1.059288025,-1.430593967,2024-06-05 20:04:52.439557
51.4800362,-1.828254938,-0.01554298401,0.5015234351,2024-06-05 20:04:52.480036
51.52052963,-0.7134984732,-0.3596324921,0.8721262813,2024-06-05 20:04:52.520530
51.56100864,0.4665679932,-0.03580093384,0.1602962464,2024-06-05 20:04:52.561009
51.60148594,-0.3316119909,-0.2819547653,0.4813280106,2024-06-05 20:04:52.601486
51.64196896,-1.46657896,-0.09434127808,-0.01775622368,2024-06-05 20:04:52.641969
51.6824414,-1.508168697,0.4217596054,-0.2197497338,2024-06-05 20:04:52.682441
51.72292057,-0.1432845592,0.1952610016,0.0129891187,2024-06-05 20:04:52.722921
51.76341979,0.8161427975,0.3363084793,-0.6219160557,2024-06-05 20:04:52.763420
51.80392937,0.8562757969,0.4534759521,-1.088346958,2024-06-05 20:04:52.803929
51.84442073,0.3715732098,-0.3672180176,-0.5356191397,2024-06-05 20:04:52.844421
51.88483864,1.883024096,0.4938526154,-0.9015612602,2024-06-05 20:04:52.884839
51.92531578,1.130194187,-0.04665184021,0.3786587417,2024-06-05 20:04:52.925316
51.96578468,-1.509184361,-0.356338501,-0.2164488435,2024-06-05 20:04:52.965785
52.00625177,0.08590757847,0.524315834,-0.3307898045,2024-06-05 20:04:53.006252
52.04675547,-1.454301238,-0.9489803314,0.7771508694,2024-06-05 20:04:53.046755
52.08725604,-0.8508763313,-0.07348442078,-0.02360400558,2024-06-05 20:04:53.087256
52.12773146,-0.3668597937,0.4273099899,0.6810201406,2024-06-05 20:04:53.127731
52.16820698,-0.472684145,-0.6603555679,0.3751065135,2024-06-05 20:04:53.168207
52.20866745,0.03268289566,0.4562215805,0.5616611242,2024-06-05 20:04:53.208667
52.24915078,-1.220650911,0.956454277,0.2026598155,2024-06-05 20:04:53.249151
52.28963786,-1.539394498,-0.8954458237,0.8401303887,2024-06-05 20:04:53.289638
52.33012771,-0.04237663746,0.3683452606,-0.3985558152,2024-06-05 20:04:53.330128
52.37059745,1.47464633,0.9750099182,2.280552626,2024-06-05 20:04:53.370597
52.41103854,0.4082340002,0.01362419128,2.778768063,2024-06-05 20:04:53.411039
52.4515551,-0.8661706448,1.211230278,0.994329989,2024-06-05 20:04:53.451555
52.49207078,-1.319145679,0.3630218506,0.1129851341,2024-06-05 20:04:53.492071
52.53254088,-0.3605430126,-1.203323364,1.394709945,2024-06-05 20:04:53.532541
52.57300745,0.4059529305,0.2087717056,1.313809037,2024-06-05 20:04:53.573007
52.61347734,-0.9353444576,-0.4061260223,1.58400774,2024-06-05 20:04:53.613477
52.65397823,-1.810374498,-0.2258195877,1.571815848,2024-06-05 20:04:53.653978
52.69446318,-2.825301409,-0.5738124847,1.425773382,2024-06-05 20:04:53.694463
52.73493942,-3.843131065,-1.565050125,0.2285501957,2024-06-05 20:04:53.734939
52.77541609,-5.8684659,-3.106556892,-1.092418075,2024-06-05 20:04:53.775416
52.81587568,-6.306310654,-4.718109131,-1.529916406,2024-06-05 20:04:53.815876
52.85637568,-3.041523933,-4.617691994,5.424143791,2024-06-05 20:04:53.856376
52.89682646,2.758387089,-1.916795731,5.385478497,2024-06-05 20:04:53.896826
52.93730515,4.821219444,-1.887931824,-0.8477916718,2024-06-05 20:04:53.937305
52.97779583,5.289660454,-1.98409462,-2.412596226,2024-06-05 20:04:53.977796
53.01828109,9.78678894,2.813011169,-4.256217957,2024-06-05 20:04:54.018281
53.05879338,0.3149529696,1.445248604,-5.78222084,2024-06-05 20:04:54.058793
53.09924005,-2.915738583,0.4815921783,-1.640423298,2024-06-05 20:04:54.099240
53.13971208,-3.003579855,1.466526508,-3.529852152,2024-06-05 20:04:54.139712
53.18017687,0.4499454498,3.343245506,-3.830135822,2024-06-05 20:04:54.180177
53.22069349,2.480039358,3.63044405,-2.274974585,2024-06-05 20:04:54.220693
53.26115677,1.905969739,4.431828976,-2.957943201,2024-06-05 20:04:54.261157
53.30169245,-0.3629744053,-0.309132576,1.565030098,2024-06-05 20:04:54.301692
53.34214698,-3.090137482,-5.438152313,11.77501869,2024-06-05 20:04:54.342147
53.38259677,-0.005053281784,-1.567556381,0.5256736279,2024-06-05 20:04:54.382597
53.42305922,2.406756401,2.099041939,-1.612597227,2024-06-05 20:04:54.423059
53.46357062,6.490064144,0.1595506668,-6.054033279,2024-06-05 20:04:54.463571
53.50406661,0.5961399078,-10.0246563,11.63244724,2024-06-05 20:04:54.504067
53.54453844,0.6161905527,6.882009029,-9.491689682,2024-06-05 20:04:54.544538
53.58500453,1.602244616,5.240921497,-5.164239407,2024-06-05 20:04:54.585005
53.62544396,4.301626205,-6.328113556,-5.799117565,2024-06-05 20:04:54.625444
53.66597479,-2.522256851,-0.278096199,-2.552239895,2024-06-05 20:04:54.665975
53.70645521,-5.083609104,-0.6214971542,7.529853821,2024-06-05 20:04:54.706455
53.74690469,2.277842999,0.996336937,2.271720886,2024-06-05 20:04:54.746905
53.78743125,0.7812240124,1.291144371,-1.047795653,2024-06-05 20:04:54.787431
53.82788906,1.384534597,0.574555397,-0.07944005728,2024-06-05 20:04:54.827889
53.86836979,0.02331924438,0.05874443054,2.809897423,2024-06-05 20:04:54.868370
53.90887406,-0.8316998482,-0.3141374588,-0.8610179424,2024-06-05 20:04:54.908874
53.94932094,-1.925433755,-0.7415122986,-0.2110939026,2024-06-05 20:04:54.949321
53.98982218,-3.220569134,-0.4924983978,2.254083157,2024-06-05 20:04:54.989822
54.0303101,-2.94129014,0.5264844894,0.9839673638,2024-06-05 20:04:55.030310
54.07076416,-2.592044115,-1.948912621,4.139983177,2024-06-05 20:04:55.070764
54.11125047,-0.394998312,-3.214673042,0.4930745065,2024-06-05 20:04:55.111250
54.15172724,2.104127407,-3.946297646,-2.57317996,2024-06-05 20:04:55.151727
54.19220765,5.531147003,-3.707781792,-1.393052816,2024-06-05 20:04:55.192208
54.23271864,3.554610968,0.2700157166,-1.613333344,2024-06-05 20:04:55.232719
54.27315937,3.292293072,2.834269524,-2.474946022,2024-06-05 20:04:55.273159
54.31366125,2.535061836,2.417303085,-0.834197402,2024-06-05 20:04:55.313661
54.35419333,1.797621131,3.027767658,-2.416114569,2024-06-05 20:04:55.354193
54.39458354,1.463857889,2.302483559,-3.879559994,2024-06-05 20:04:55.394584
54.43508187,1.199064612,-0.131321907,0.8320719004,2024-06-05 20:04:55.435082
54.47556229,1.144458413,-0.7488069534,1.094021201,2024-06-05 20:04:55.475562
54.5160425,0.9193073511,-0.4708013535,-1.221464753,2024-06-05 20:04:55.516042
54.55651812,2.261350155,-0.4453878403,-1.521602392,2024-06-05 20:04:55.556518
54.59699646,2.985806465,0.8719596863,0.2491648197,2024-06-05 20:04:55.596996
54.63748448,2.095598698,0.957151413,0.5837767124,2024-06-05 20:04:55.637484
54.67796349,1.384875059,0.09608840942,-0.5642033815,2024-06-05 20:04:55.677963
54.71844703,1.312726021,0.3158683777,-2.32042408,2024-06-05 20:04:55.718447
54.75894015,0.4989275932,0.3567276001,-2.062660217,2024-06-05 20:04:55.758940
54.79942297,-0.7738323212,-0.3370294571,1.322366238,2024-06-05 20:04:55.799423
54.83989245,-0.2358720303,-0.05718612671,-0.4627603889,2024-06-05 20:04:55.839892
54.88038812,1.351509333,0.5071706772,-0.4948068261,2024-06-05 20:04:55.880388
54.92087344,0.6943175793,0.006403923035,-1.155278921,2024-06-05 20:04:55.920873
54.96131765,-0.3956384659,-0.2670030594,-1.374165177,2024-06-05 20:04:55.961318
55.00181984,0.06617307663,-0.1748828888,-1.313483834,2024-06-05 20:04:56.001820
55.04228844,2.798126936,0.2735719681,-0.4473355114,2024-06-05 20:04:56.042288
55.08277229,3.857921839,0.9748249054,-1.736069679,2024-06-05 20:04:56.082772
55.1232651,-1.221420288,0.5281496048,-0.4895579517,2024-06-05 20:04:56.123265
55.1637262,-2.888175488,-0.1736402512,3.802192926,2024-06-05 20:04:56.163726
55.2041863,-2.752780676,0.01906013489,1.393595695,2024-06-05 20:04:56.204186
55.24469005,-0.7668584585,-1.216093063,0.7980302572,2024-06-05 20:04:56.244690
55.28515005,-0.2506468296,-1.311063766,1.590937376,2024-06-05 20:04:56.285150
55.32562807,-0.7721674442,0.0008392333984,0.624342978,2024-06-05 20:04:56.325628
55.366105,-0.4054150581,-0.2316293716,-1.323073745,2024-06-05 20:04:56.366105
55.4065913,-0.6395903826,0.2279109955,-2.266617537,2024-06-05 20:04:56.406591
55.44710083,-1.28456676,0.326086998,-2.124899864,2024-06-05 20:04:56.447101
55.4875926,-0.8996735811,-0.3969745636,-1.565272093,2024-06-05 20:04:56.487593
55.52807791,-1.004078031,-0.1931304932,-1.835777283,2024-06-05 20:04:56.528078
55.5685575,-1.398993492,-0.6823863983,-1.886513233,2024-06-05 20:04:56.568557
55.60904536,-2.362880707,-1.094390869,-3.405077457,2024-06-05 20:04:56.609045
55.64949812,-0.5555719137,-0.1100492477,-1.901867151,2024-06-05 20:04:56.649498
55.68996234,3.201468229,2.513478279,0.08531332016,2024-06-05 20:04:56.689962
55.7304525,3.203395128,-0.2406673431,-0.1341431141,2024-06-05 20:04:56.730452
55.77094776,-1.348757386,-2.565998077,2.89979744,2024-06-05 20:04:56.770948
55.81142416,-1.058428764,-2.155966759,4.292509079,2024-06-05 20:04:56.811424
55.85190286,-3.072887421,-2.43474102,3.645656586,2024-06-05 20:04:56.851903
55.89238432,-2.665325165,1.478239536,0.590628624,2024-06-05 20:04:56.892384
55.93285588,-2.806872129,2.206138611,0.06416416168,2024-06-05 20:04:56.932856
55.97335911,-2.076623917,2.141040802,-0.8075289726,2024-06-05 20:04:56.973359
56.01386541,0.3339750767,2.312489986,-1.441775084,2024-06-05 20:04:57.013865
56.05436234,2.069407463,1.052731514,-1.440960646,2024-06-05 20:04:57.054362
56.09478531,2.164032459,0.01997089386,-1.148126364,2024-06-05 20:04:57.094785
56.13523427,1.936766863,0.03584289551,-0.4322843552,2024-06-05 20:04:57.135234
56.17571489,0.5058031082,-0.6545963287,0.7154232264,2024-06-05 20:04:57.175715
56.21616943,-0.9410063028,-0.6923542023,0.5484016538,2024-06-05 20:04:57.216169
56.25670203,-1.153236628,-0.3212985992,0.3104130328,2024-06-05 20:04:57.256702
56.29719948,-0.6484398842,-1.035518646,2.365762234,2024-06-05 20:04:57.297199
56.3376788,2.619677305,-1.383806229,9.718598366,2024-06-05 20:04:57.337679
56.37813989,-0.6085054874,0.3085231781,-2.142081738,2024-06-05 20:04:57.378140
56.41863583,-0.7566130161,-0.2226715088,0.7990412712,2024-06-05 20:04:57.418636
56.45910333,-3.030202389,-1.692764282,1.885106444,2024-06-05 20:04:57.459103
56.49962463,-5.690474987,-1.779809952,1.639187574,2024-06-05 20:04:57.499625
56.54006989,-3.649475574,0.0140581131,-1.590041161,2024-06-05 20:04:57.540070
56.58055911,-1.195914388,0.6276884079,1.199635029,2024-06-05 20:04:57.580559
56.6210201,-0.0739030838,0.4919519424,1.307803988,2024-06-05 20:04:57.621020
56.66152088,-0.6880230904,0.06171512604,0.3052802086,2024-06-05 20:04:57.661521
56.70199739,-1.236639738,0.1104984283,1.159042239,2024-06-05 20:04:57.701997
56.74245453,-1.409236431,-0.1568288803,1.278702736,2024-06-05 20:04:57.742455
56.78293791,-2.496194839,-0.411529541,0.008605718613,2024-06-05 20:04:57.782938
56.82344135,-2.278562546,-0.11024189,-0.4620923996,2024-06-05 20:04:57.823441
56.8639612,1.338231802,-1.451046944,2.102874994,2024-06-05 20:04:57.863961
56.90443114,-2.802522898,-3.760189056,2.834556103,2024-06-05 20:04:57.904431
56.94484083,-4.606595039,-3.511164665,0.4824770689,2024-06-05 20:04:57.944841
56.98533453,-3.591466904,-2.72366333,4.295341492,2024-06-05 20:04:57.985335
57.02581427,-2.540397882,-2.137010574,7.155646324,2024-06-05 20:04:58.025814
57.06629396,-1.104788542,-0.5945920944,1.531710863,2024-06-05 20:04:58.066294
57.10679833,1.218617439,-0.3509950638,-2.069681644,2024-06-05 20:04:58.106798
57.14726505,2.68539691,-2.421661377,-2.458593845,2024-06-05 20:04:58.147265
57.18774479,2.959889174,-0.5370111465,-5.134371758,2024-06-05 20:04:58.187745
57.22823578,-0.8677745461,0.2006254196,-6.293935776,2024-06-05 20:04:58.228236
57.26869505,-1.582333207,0.06211948395,-0.2106883526,2024-06-05 20:04:58.268695
57.30920172,-0.6574542522,1.049107552,-4.844697952,2024-06-05 20:04:58.309202
57.34967583,1.991925836,3.877696037,-4.046312332,2024-06-05 20:04:58.349676
57.39014885,3.003677368,5.489610672,-3.232773781,2024-06-05 20:04:58.390149
57.43058963,3.005563736,3.783068657,-1.024707079,2024-06-05 20:04:58.430590
57.47110193,0.7320853472,-1.522405624,3.623948812,2024-06-05 20:04:58.471102
57.51160739,-3.145568371,-5.816280365,9.293781281,2024-06-05 20:04:58.511607
57.55207604,1.24341166,-1.111867905,0.2212016582,2024-06-05 20:04:58.552076
57.59256484,5.763245583,-0.1056909561,-4.779667854,2024-06-05 20:04:58.592565
57.63300437,4.306146622,-4.785177231,2.449167252,2024-06-05 20:04:58.633004
57.67351354,1.13270843,6.068053246,-8.14210701,2024-06-05 20:04:58.673514
57.71404453,2.853992462,1.080834389,-7.557883263,2024-06-05 20:04:58.714045
57.7545288,3.621900082,-3.278231621,-4.943608284,2024-06-05 20:04:58.754529
57.79496385,-2.043438435,-0.5462350845,0.1102861166,2024-06-05 20:04:58.794964
57.83544411,-1.392286777,-0.4877262115,6.609334946,2024-06-05 20:04:58.835444
57.87587062,0.1396560669,0.03815555573,-3.177541018,2024-06-05 20:04:58.875871
57.91631969,0.7136045694,1.161545753,-1.285017133,2024-06-05 20:04:58.916320
57.95682911,-0.8223364353,0.02241420746,0.5776443481,2024-06-05 20:04:58.956829
57.99736531,-1.453774929,-0.1802740097,1.16894865,2024-06-05 20:04:58.997365
58.0378362,-0.6136566401,-0.7396211624,-0.05154362321,2024-06-05 20:04:59.037836
58.078315,-1.203943491,-0.3016490936,1.420531034,2024-06-05 20:04:59.078315
58.11880781,-0.7290431261,0.3109416962,1.41177249,2024-06-05 20:04:59.118808
58.15928448,-1.008837581,-0.004546165466,1.15727663,2024-06-05 20:04:59.159284
58.19976526,-2.037243605,-1.572044373,1.204563618,2024-06-05 20:04:59.199765
58.24024052,-1.879013062,-2.021389961,2.995240211,2024-06-05 20:04:59.240241
58.28072568,3.740753174,-2.726995468,7.054046631,2024-06-05 20:04:59.280726
58.32122849,4.703543663,-3.216877937,3.486335278,2024-06-05 20:04:59.321228
58.36168021,0.4738273621,-1.311872482,-4.837772369,2024-06-05 20:04:59.361680
58.40214922,-3.652903795,1.583805561,-10.38303757,2024-06-05 20:04:59.402149
58.44262193,0.3231781721,-1.748449326,2.340148926,2024-06-05 20:04:59.442622
58.48310635,4.307282448,-0.9253997803,-8.344432831,2024-06-05 20:04:59.483106
58.52363052,-0.07222938538,2.237084389,-2.357505322,2024-06-05 20:04:59.523631
58.56412969,0.1220624447,1.616283417,-4.92810154,2024-06-05 20:04:59.564130
58.60456708,-0.9111104012,-0.5414896011,-3.366151094,2024-06-05 20:04:59.604567
58.64500708,-1.435375214,-2.880640984,10.04159164,2024-06-05 20:04:59.645007
58.68548156,0.3273947239,-6.098752975,5.786850929,2024-06-05 20:04:59.685482
58.72595463,2.986503839,0.7679781914,-2.286709785,2024-06-05 20:04:59.725955
58.76645682,3.558592796,2.692410469,-3.303012371,2024-06-05 20:04:59.766457
58.80696495,2.224773407,0.8781170845,-3.080546141,2024-06-05 20:04:59.806965
58.84744807,-0.1828401387,1.905227184,-5.135754585,2024-06-05 20:04:59.847448
58.88792588,0.4301127791,2.999625206,-4.646062374,2024-06-05 20:04:59.887926
58.92840682,0.5498425364,0.7140512466,0.375272274,2024-06-05 20:04:59.928407
58.96887505,1.960580111,-2.180137634,-0.9874882698,2024-06-05 20:04:59.968875
59.00936005,3.318268299,1.155628204,2.184361935,2024-06-05 20:05:00.009360
59.04984099,1.032069325,-0.5769319534,0.5016760826,2024-06-05 20:05:00.049841
59.09031401,-0.1617156267,-0.8995666504,1.20635581,2024-06-05 20:05:00.090314
59.13080828,-1.023807287,-0.3884897232,0.5143764019,2024-06-05 20:05:00.130808
59.17129739,-0.2673288584,-0.2835054398,0.557536602,2024-06-05 20:05:00.171297
59.21174318,0.6244637966,0.02777194977,0.1168904305,2024-06-05 20:05:00.211743
59.25223193,0.1204230785,0.2034778595,-0.3580062389,2024-06-05 20:05:00.252232
59.29274807,0.05628657341,-0.01007270813,0.3190340996,2024-06-05 20:05:00.292748
59.33320734,0.1214249134,0.2126216888,0.08971428871,2024-06-05 20:05:00.333207
59.37372281,0.3904993534,0.3259344101,-0.07969236374,2024-06-05 20:05:00.373723
59.41413906,-0.3445363045,0.2427425385,-0.2685005665,2024-06-05 20:05:00.414139
59.4546189,-1.648942113,-0.2040758133,-0.4697303772,2024-06-05 20:05:00.454619
59.4950988,-1.549405217,-0.09340763092,-0.1996616125,2024-06-05 20:05:00.495099
59.53559,-0.2486188412,-1.140467644,0.05953335762,2024-06-05 20:05:00.535590
59.57607541,0.8155720234,-0.8309202194,2.196204185,2024-06-05 20:05:00.576075
59.61655515,0.2975873947,0.1113348007,1.288635373,2024-06-05 20:05:00.616555
59.65707193,-0.09825873375,0.2168216705,0.2276308537,2024-06-05 20:05:00.657072
59.69747271,-0.72574687,-0.03028392792,0.2792034745,2024-06-05 20:05:00.697473
59.73801531,-0.5017672777,-0.1095914841,0.6909716129,2024-06-05 20:05:00.738015
59.77847437,-0.579054594,0.04430389404,-0.4163725972,2024-06-05 20:05:00.778474
59.81896208,-0.1518871784,-0.1634922028,-0.003863811493,2024-06-05 20:05:00.818962
59.85945333,0.07564544678,-0.1631116867,0.1254876256,2024-06-05 20:05:00.859453
59.89993838,0.2359182835,0.2276115417,0.01263546944,2024-06-05 20:05:00.899938
59.94041307,0.002388954163,0.2295351028,-0.4175589085,2024-06-05 20:05:00.940413
59.98088864,-0.2887914181,0.0310716629,-0.4466852546,2024-06-05 20:05:00.980889
60.0213575,-0.3266909122,-0.1575994492,0.1067585945,2024-06-05 20:05:01.021358
60.06186125,-0.1448645592,-0.05157375336,-0.1877635121,2024-06-05 20:05:01.061861
60.10231745,0.01333546638,0.002516746521,-0.1326089203,2024-06-05 20:05:01.102317
60.14278734,-0.0004451274872,-0.00349521637,-0.1843949556,2024-06-05 20:05:01.142787
60.18329286,-0.01959204674,-0.05202102661,0.2391411662,2024-06-05 20:05:01.183293
60.22376875,-0.3635575771,-0.0119638443,-0.07951352,2024-06-05 20:05:01.223769
60.26423989,-0.1024568081,0.007564544678,-0.1630477756,2024-06-05 20:05:01.264240
60.30472474,0.09593939781,0.02658843994,0.2384257615,2024-06-05 20:05:01.304725
60.34518594,0.0005433559418,-0.1484937668,0.1623295844,2024-06-05 20:05:01.345186
60.38568677,-0.03074193001,-0.06604003906,0.001591473818,2024-06-05 20:05:01.385687
60.42611896,-0.207171917,-0.03392601013,-0.05784162879,2024-06-05 20:05:01.426119
60.4666413,-0.1005351543,-0.08873748779,0.09146386385,2024-06-05 20:05:01.466641
60.50710818,-0.1112484932,0.05570793152,0.04156771302,2024-06-05 20:05:01.507108
60.54766307,-0.1735024452,-0.07011222839,-0.06387341022,2024-06-05 20:05:01.547663
60.58813552,0.02812600136,-0.01727390289,0.009271860123,2024-06-05 20:05:01.588136
60.62856583,0.3274023533,0.1528911591,0.1545330584,2024-06-05 20:05:01.628566
60.66910354,0.2325761318,0.1348209381,-0.07988455892,2024-06-05 20:05:01.669104
60.7095287,-0.2857809067,0.03185081482,-0.00582998991,2024-06-05 20:05:01.709529
60.75004052,-0.5001647472,-0.1243085861,-0.246217221,2024-06-05 20:05:01.750041
60.7905239,-0.3688652515,-0.2286310196,-0.1804634929,2024-06-05 20:05:01.790524
60.83102172,0.1901898384,0.1999130249,0.002818107605,2024-06-05 20:05:01.831022
60.87146416,0.817671299,0.4031438828,0.0318698287,2024-06-05 20:05:01.871464
60.91189151,0.5893695354,0.1718549728,-0.2304938138,2024-06-05 20:05:01.911892
60.95237224,-0.2670929432,-0.02464580536,-0.07624167204,2024-06-05 20:05:01.952372
60.99286739,-0.2779450417,-0.2773542404,-0.0560489893,2024-06-05 20:05:01.992867
61.03335531,-0.1070632935,-0.2601833344,0.02216017246,2024-06-05 20:05:02.033355
61.07385291,0.3561191559,-0.0850353241,0.1439512968,2024-06-05 20:05:02.073853
61.11433557,0.6802697182,0.2146978378,0.3551716208,2024-06-05 20:05:02.114336
61.15482531,0.4056174755,0.3632259369,0.03461104631,2024-06-05 20:05:02.154825
61.19530531,-0.1718118191,0.2107982635,-0.07700192928,2024-06-05 20:05:02.195305
61.23578974,-0.5263777971,0.01636886597,-0.594909966,2024-06-05 20:05:02.235790
61.27623443,-0.6631407738,-0.3259954453,-0.1059938669,2024-06-05 20:05:02.276234
61.31674974,-0.6113715172,-0.3651971817,0.7833772302,2024-06-05 20:05:02.316750
61.35720703,-0.09024381638,0.139547348,0.02734822035,2024-06-05 20:05:02.357207
61.39772463,0.04219722748,0.1224308014,-0.2552700043,2024-06-05 20:05:02.397725
61.43813229,0.03493785858,0.03451156616,-0.1603127122,2024-06-05 20:05:02.438132
61.47865583,0.3063597679,0.06432723999,0.1518880129,2024-06-05 20:05:02.478656
61.51914922,-0.07795119286,0.02752971649,0.1685322523,2024-06-05 20:05:02.519149
61.5596013,-0.1473724842,0.1509170532,-0.2745465636,2024-06-05 20:05:02.559601
61.60011828,-0.4354810715,-0.02306842804,-0.1327004433,2024-06-05 20:05:02.600118
61.64065401,-0.1487152576,-0.02594280243,0.2197552919,2024-06-05 20:05:02.640654
61.68100073,0.2502384186,0.04557228088,0.001559197903,2024-06-05 20:05:02.681001
61.7215437,0.09527277946,-0.03980064392,0.08566808701,2024-06-05 20:05:02.721544
61.76202479,0.01181721687,-0.05812549591,0.2518614531,2024-06-05 20:05:02.762025
61.8025601,0.08718252182,-0.0744228363,-0.03497487307,2024-06-05 20:05:02.802560
61.84299729,-0.1741020679,0.1260318756,-0.1719036102,2024-06-05 20:05:02.842997
61.88345656,-0.2500588894,-0.1153764725,-0.2981348038,2024-06-05 20:05:02.883457
61.92392484,0.1426343918,-0.203291893,-0.01636475325,2024-06-05 20:05:02.923925
61.96441594,0.01961350441,0.2096290588,0.1626464128,2024-06-05 20:05:02.964416
62.00491745,-0.4123239517,0.3302001953,-0.3676294684,2024-06-05 20:05:03.004917
