Time (s),Acceleration x (m/s^2),Acceleration y (m/s^2),Acceleration z (m/s^2),Datetime
0.0,-2.06261301,6.978068829,2.366800785,2024-06-04 16:17:50.000000
0.012272349,-1.945065737,5.938387394,5.514558792,2024-06-04 16:17:50.012272
0.052272349,-1.928315997,5.571986675,10.20000458,2024-06-04 16:17:50.052272
0.092272349,-5.488237858,3.107080221,11.74995518,2024-06-04 16:17:50.092272
0.132272349,-5.488237858,3.107080221,11.74995518,2024-06-04 16:17:50.132272
0.172272349,-5.488237858,3.107080221,11.74995518,2024-06-04 16:17:50.172272
0.212272349,-2.727219582,1.291226864,10.5918293,2024-06-04 16:17:50.212272
0.252272349,-1.267298698,3.460320711,13.55982685,2024-06-04 16:17:50.252272
0.292272349,-1.267298698,3.460320711,13.55982685,2024-06-04 16:17:50.292272
0.332272349,-1.267298698,3.460320711,13.55982685,2024-06-04 16:17:50.332272
0.372272349,-1.267298698,3.460320711,13.55982685,2024-06-04 16:17:50.372272
0.412272349,-4.913063049,-2.140379906,12.39183044,2024-06-04 16:17:50.412272
0.452272349,-0.8910273314,-0.8874381185,9.962816238,2024-06-04 16:17:50.452272
0.492272349,6.77796936,7.162615299,3.243471146,2024-06-04 16:17:50.492272
0.532272349,-0.3221337497,3.18006134,7.93878746,2024-06-04 16:17:50.532272
0.572272349,-0.8515457511,3.750151396,5.496612549,2024-06-04 16:17:50.572272
0.612272349,-0.8515457511,3.750151396,5.496612549,2024-06-04 16:17:50.612272
0.652272349,-0.8515457511,3.750151396,5.496612549,2024-06-04 16:17:50.652272
0.692272349,-0.2647060156,-0.2443670183,9.077771187,2024-06-04 16:17:50.692272
0.732272349,-1.579861164,-1.688734531,10.16052341,2024-06-04 16:17:50.732272
0.772272349,-1.291226864,0.6406782866,10.55324554,2024-06-04 16:17:50.772272
0.812272349,-2.895016193,1.784746647,7.548159122,2024-06-04 16:17:50.812272
0.852272349,-0.347258389,0.6059823632,10.3594265,2024-06-04 16:17:50.852272
0.892272349,-0.3173480928,-2.945265532,4.83409977,2024-06-04 16:17:50.892272
0.932272349,-5.766104221,-5.544469357,7.85593605,2024-06-04 16:17:50.932272
0.972272349,-3.68075943,-6.418746948,7.423732281,2024-06-04 16:17:50.972272
1.012272349,-3.68075943,-6.418746948,7.423732281,2024-06-04 16:17:51.012272
1.052272349,-3.68075943,-6.418746948,7.423732281,2024-06-04 16:17:51.052272
1.092272349,-3.68075943,-6.418746948,7.423732281,2024-06-04 16:17:51.092272
1.132272349,-3.68075943,-6.418746948,7.423732281,2024-06-04 16:17:51.132272
1.172272349,-3.68075943,-6.418746948,7.423732281,2024-06-04 16:17:51.172272
1.212272349,-10.16650486,-1.358225942,1.425225019,2024-06-04 16:17:51.212272
1.252272349,-3.152543783,0.1304088384,15.85574055,2024-06-04 16:17:51.252272
1.292272349,2.160718918,0.613160789,4.262813568,2024-06-04 16:17:51.292272
1.332272349,-8.746066093,-2.779861689,6.549155712,2024-06-04 16:17:51.332272
1.372272349,-6.713363171,-2.08534503,5.4652071,2024-06-04 16:17:51.372272
1.412272349,-6.713363171,-2.08534503,5.4652071,2024-06-04 16:17:51.412272
1.452272349,-16.14317703,-10.25862885,5.743073463,2024-06-04 16:17:51.452272
1.492272349,-3.661616802,-10.87926769,1.744068623,2024-06-04 16:17:51.492272
1.532272349,-9.756733894,-8.66680336,5.053342342,2024-06-04 16:17:51.532272
1.572272349,-9.756733894,-8.66680336,5.053342342,2024-06-04 16:17:51.572272
1.612272349,-11.69252777,-13.38604832,6.393621922,2024-06-04 16:17:51.612272
1.652272349,-1.526022673,-2.039881229,5.510969639,2024-06-04 16:17:51.652272
1.692272349,-1.526022673,-2.039881229,5.510969639,2024-06-04 16:17:51.692272
1.732272349,-1.526022673,-2.039881229,5.510969639,2024-06-04 16:17:51.732272
1.772272349,-1.526022673,-2.039881229,5.510969639,2024-06-04 16:17:51.772272
1.812272349,-1.526022673,-2.039881229,5.510969639,2024-06-04 16:17:51.812272
1.852272349,1.467099428,-10.6983099,3.759722471,2024-06-04 16:17:51.852272
1.892272349,-6.029613972,-15.67508221,4.056731701,2024-06-04 16:17:51.892272
1.932272349,-5.75025177,-14.68206024,2.960819006,2024-06-04 16:17:51.932272
1.972272349,-5.75025177,-14.68206024,2.960819006,2024-06-04 16:17:51.972272
2.012272349,-5.75025177,-14.68206024,2.960819006,2024-06-04 16:17:52.012272
2.052272349,-4.409972191,-8.283653259,5.829514027,2024-06-04 16:17:52.052272
2.092272349,-4.908277512,-6.623631954,6.282056808,2024-06-04 16:17:52.092272
2.132272349,-5.955137253,-8.115856171,8.642875671,2024-06-04 16:17:52.132272
2.172272349,-3.359822035,-8.112266541,3.759722471,2024-06-04 16:17:52.172272
2.212272349,-1.226620674,-3.081955671,4.968397141,2024-06-04 16:17:52.212272
2.252272349,-1.226620674,-3.081955671,4.968397141,2024-06-04 16:17:52.252272
2.292272349,-1.226620674,-3.081955671,4.968397141,2024-06-04 16:17:52.292272
2.332272349,-3.316452265,-6.296712875,5.866602898,2024-06-04 16:17:52.332272
2.372272349,-3.578765392,-5.104787827,6.703791618,2024-06-04 16:17:52.372272
2.412272349,-4.371686935,-5.365904808,6.83569622,2024-06-04 16:17:52.412272
2.452272349,-6.781558514,-5.339583874,9.01316452,2024-06-04 16:17:52.452272
2.492272349,-6.781558514,-5.339583874,9.01316452,2024-06-04 16:17:52.492272
2.532272349,-5.586343765,-6.966104984,8.424829483,2024-06-04 16:17:52.532272
2.572272349,-5.586343765,-6.966104984,8.424829483,2024-06-04 16:17:52.572272
2.612272349,-5.586343765,-6.966104984,8.424829483,2024-06-04 16:17:52.612272
2.652272349,-2.920140982,-5.132305622,8.057231903,2024-06-04 16:17:52.652272
2.692272349,-2.920140982,-5.132305622,8.057231903,2024-06-04 16:17:52.692272
2.732272349,-2.920140982,-5.132305622,8.057231903,2024-06-04 16:17:52.732272
2.772272349,-2.920140982,-5.132305622,8.057231903,2024-06-04 16:17:52.772272
2.812272349,-3.371786118,-3.102294445,7.319345474,2024-06-04 16:17:52.812272
2.852272349,-2.516352177,-0.9209375978,6.358926296,2024-06-04 16:17:52.852272
2.892272349,-1.964208245,-1.907976985,6.842874527,2024-06-04 16:17:52.892272
2.932272349,-1.282852054,-1.747657895,6.902695179,2024-06-04 16:17:52.932272
2.972272349,-2.327319145,-3.001496792,8.071588516,2024-06-04 16:17:52.972272
3.012272349,-3.063710213,-3.073281527,7.821239948,2024-06-04 16:17:53.012272
3.052272349,-3.894019842,-3.39212513,9.476474762,2024-06-04 16:17:53.052272
3.092272349,-3.739383698,-5.634200096,8.40688324,2024-06-04 16:17:53.092272
3.132272349,-3.739383698,-5.634200096,8.40688324,2024-06-04 16:17:53.132272
3.172272349,-3.739383698,-5.634200096,8.40688324,2024-06-04 16:17:53.172272
3.212272349,-3.739383698,-5.634200096,8.40688324,2024-06-04 16:17:53.212272
3.252272349,-1.469492197,-7.438089371,5.462814331,2024-06-04 16:17:53.252272
3.292272349,-2.948854923,-8.528019905,5.253442287,2024-06-04 16:17:53.292272
3.332272349,-7.405786037,-6.26530695,6.565008163,2024-06-04 16:17:53.332272
3.372272349,-8.842975616,-6.818647385,5.330012321,2024-06-04 16:17:53.372272
3.412272349,-6.823432922,-8.532805443,4.67587471,2024-06-04 16:17:53.412272
3.452272349,-6.823432922,-8.532805443,4.67587471,2024-06-04 16:17:53.452272
3.492272349,-6.823432922,-8.532805443,4.67587471,2024-06-04 16:17:53.492272
3.532272349,-6.823432922,-8.532805443,4.67587471,2024-06-04 16:17:53.532272
3.572272349,-6.823432922,-8.532805443,4.67587471,2024-06-04 16:17:53.572272
3.612272349,-6.823432922,-8.532805443,4.67587471,2024-06-04 16:17:53.612272
3.652272349,-6.823432922,-8.532805443,4.67587471,2024-06-04 16:17:53.652272
3.692272349,-2.728415966,-8.278866768,3.293720484,2024-06-04 16:17:53.692272
3.732272349,-1.794317842,-8.38534832,3.266202927,2024-06-04 16:17:53.732272
3.772272349,-2.251646042,-9.404690742,3.772883177,2024-06-04 16:17:53.772272
3.812272349,-3.425624609,-8.305188179,3.777668715,2024-06-04 16:17:53.812272
3.852272349,-3.766901016,-8.535198212,2.854338408,2024-06-04 16:17:53.852272
3.892272349,-4.147658825,-8.095517159,4.016053677,2024-06-04 16:17:53.892272
3.932272349,-2.517548561,-8.262117386,2.460120678,2024-06-04 16:17:53.932272
3.972272349,-5.084448814,-8.954241753,1.809871197,2024-06-04 16:17:53.972272
4.012272349,-4.508377075,-10.75573826,4.519144535,2024-06-04 16:17:54.012272
4.052272349,-1.620539188,-8.675178528,3.523730516,2024-06-04 16:17:54.052272
4.092272349,-1.620539188,-8.675178528,3.523730516,2024-06-04 16:17:54.092272
4.132272349,-1.620539188,-8.675178528,3.523730516,2024-06-04 16:17:54.132272
4.172272349,-1.620539188,-8.675178528,3.523730516,2024-06-04 16:17:54.172272
4.212272349,-2.824428082,-7.379465103,3.176471949,2024-06-04 16:17:54.212272
4.252272349,-3.547658682,-4.583750725,2.193022013,2024-06-04 16:17:54.252272
4.292272349,-3.691527128,-6.429514408,4.489234447,2024-06-04 16:17:54.292272
4.332272349,-4.9791646,-5.189733028,1.638485312,2024-06-04 16:17:54.332272
4.372272349,-4.9791646,-5.189733028,1.638485312,2024-06-04 16:17:54.372272
4.412272349,-4.9791646,-5.189733028,1.638485312,2024-06-04 16:17:54.412272
4.452272349,-4.9791646,-5.189733028,1.638485312,2024-06-04 16:17:54.452272
4.492272349,-4.9791646,-5.189733028,1.638485312,2024-06-04 16:17:54.492272
4.532272349,-4.879563808,-6.766005039,4.000500202,2024-06-04 16:17:54.532272
4.572272349,-4.879563808,-6.766005039,4.000500202,2024-06-04 16:17:54.572272
4.612272349,-7.814061642,-8.482556343,5.298905849,2024-06-04 16:17:54.612272
4.652272349,-7.851150036,-8.301599503,4.907081127,2024-06-04 16:17:54.652272
4.692272349,-7.851150036,-8.301599503,4.907081127,2024-06-04 16:17:54.692272
4.732272349,-7.042675018,-7.834400654,4.890331268,2024-06-04 16:17:54.732272
4.772272349,-7.042675018,-7.834400654,4.890331268,2024-06-04 16:17:54.772272
4.812272349,-7.042675018,-7.834400654,4.890331268,2024-06-04 16:17:54.812272
4.852272349,-7.042675018,-7.834400654,4.890331268,2024-06-04 16:17:54.852272
4.892272349,-4.844867706,-5.414957523,3.903591156,2024-06-04 16:17:54.892272
4.932272349,-4.141676903,-4.737190723,3.21954298,2024-06-04 16:17:54.932272
4.972272349,-4.424628258,-6.442675114,5.479563713,2024-06-04 16:17:54.972272
5.012272349,-4.424628258,-6.442675114,5.479563713,2024-06-04 16:17:55.012272
5.052272349,-4.424628258,-6.442675114,5.479563713,2024-06-04 16:17:55.052272
5.092272349,-4.424628258,-6.442675114,5.479563713,2024-06-04 16:17:55.092272
5.132272349,-4.424628258,-6.442675114,5.479563713,2024-06-04 16:17:55.132272
5.172272349,-4.424628258,-6.442675114,5.479563713,2024-06-04 16:17:55.172272
5.212272349,-4.005286217,-12.05175018,7.108777046,2024-06-04 16:17:55.212272
5.252272349,-4.005286217,-12.05175018,7.108777046,2024-06-04 16:17:55.252272
5.292272349,-4.005286217,-12.05175018,7.108777046,2024-06-04 16:17:55.292272
5.332272349,-4.005286217,-12.05175018,7.108777046,2024-06-04 16:17:55.332272
5.372272349,-0.2838485837,-3.146561861,4.285545349,2024-06-04 16:17:55.372272
5.412272349,-1.019342422,-2.623131752,4.908277512,2024-06-04 16:17:55.412272
5.452272349,-2.74396944,-4.966004372,4.307080746,2024-06-04 16:17:55.452272
5.492272349,-4.135694981,-5.459224701,4.08424902,2024-06-04 16:17:55.492272
5.532272349,-4.534698009,-4.32263422,3.623331785,2024-06-04 16:17:55.532272
5.572272349,-4.534698009,-4.32263422,3.623331785,2024-06-04 16:17:55.572272
5.612272349,-5.270191669,-6.850052834,4.604089737,2024-06-04 16:17:55.612272
5.652272349,-4.873581409,-4.960022449,3.235096216,2024-06-04 16:17:55.652272
5.692272349,-3.909573078,-5.997011662,3.027817965,2024-06-04 16:17:55.692272
5.732272349,-2.837588549,-6.242575169,2.924926519,2024-06-04 16:17:55.732272
5.772272349,-2.837588549,-6.242575169,2.924926519,2024-06-04 16:17:55.772272
5.812272349,-2.837588549,-6.242575169,2.924926519,2024-06-04 16:17:55.812272
5.852272349,-2.837588549,-6.242575169,2.924926519,2024-06-04 16:17:55.852272
5.892272349,-2.837588549,-6.242575169,2.924926519,2024-06-04 16:17:55.892272
5.932272349,-2.837588549,-6.242575169,2.924926519,2024-06-04 16:17:55.932272
5.972272349,-0.9352945685,-9.668199539,0.5688936114,2024-06-04 16:17:55.972272
6.012272349,-1.296012521,-10.17009449,0.005982056726,2024-06-04 16:17:56.012272
6.052272349,-0.6442674994,-9.676574707,-1.266102314,2024-06-04 16:17:56.052272
6.092272349,-0.6442674994,-9.676574707,-1.266102314,2024-06-04 16:17:56.092272
6.132272349,-0.6442674994,-9.676574707,-1.266102314,2024-06-04 16:17:56.132272
6.172272349,-0.6442674994,-9.676574707,-1.266102314,2024-06-04 16:17:56.172272
6.212272349,-0.8706883192,-14.68086433,2.836392164,2024-06-04 16:17:56.212272
6.252272349,-1.719841242,-11.52114201,0.6119644046,2024-06-04 16:17:56.252272
6.292272349,-3.967000723,-11.43380356,0.9882357717,2024-06-04 16:17:56.292272
6.332272349,-3.967000723,-11.43380356,0.9882357717,2024-06-04 16:17:56.332272
6.332272349,-1.79671073,-8.974879265,0.8395816684,2024-06-04 16:17:56.332272
6.412272349,-1.79671073,-8.974879265,0.8395816684,2024-06-04 16:17:56.412272
6.452272349,-1.701895118,-9.51745224,4.004089355,2024-06-04 16:17:56.452272
6.492272349,-0.5784648657,-6.948158741,-0.1268195957,2024-06-04 16:17:56.492272
6.532272349,-1.893620014,-7.56730175,5.94078064,2024-06-04 16:17:56.532272
6.572272349,-2.536691189,-7.452445984,-1.095912814,2024-06-04 16:17:56.572272
6.612272349,-0.7689933777,-7.695616722,1.809871197,2024-06-04 16:17:56.612272
6.652272349,-1.756032705,-8.603393555,3.65563488,2024-06-04 16:17:56.652272
6.692272349,-1.756032705,-8.603393555,3.65563488,2024-06-04 16:17:56.692272
6.732272349,-1.756032705,-8.603393555,3.65563488,2024-06-04 16:17:56.732272
6.772272349,-1.756032705,-8.603393555,3.65563488,2024-06-04 16:17:56.772272
6.812272349,-3.056531906,-12.10439205,5.77208662,2024-06-04 16:17:56.812272
6.852272349,-2.484049082,-13.66511059,3.007478952,2024-06-04 16:17:56.852272
6.892272349,-1.72223413,-12.24347496,6.90030241,2024-06-04 16:17:56.892272
6.932272349,-1.72223413,-12.24347496,6.90030241,2024-06-04 16:17:56.932272
6.972272349,-1.72223413,-12.24347496,6.90030241,2024-06-04 16:17:56.972272
7.012272349,1.003789067,-5.347958565,4.068696022,2024-06-04 16:17:57.012272
7.052272349,0.3029911816,-4.26879549,4.438984871,2024-06-04 16:17:57.052272
7.092272349,1.403689623,-2.988336325,2.456531525,2024-06-04 16:17:57.092272
7.132272349,1.064806104,-1.781157374,0.9329017401,2024-06-04 16:17:57.132272
7.172272349,1.064806104,-1.781157374,0.9329017401,2024-06-04 16:17:57.172272
7.212272349,1.064806104,-1.781157374,0.9329017401,2024-06-04 16:17:57.212272
7.252272349,1.064806104,-1.781157374,0.9329017401,2024-06-04 16:17:57.252272
7.292272349,-2.789433002,-2.134397745,2.348854542,2024-06-04 16:17:57.292272
7.332272349,-3.39212513,-5.473581791,1.911566138,2024-06-04 16:17:57.332272
7.372272349,-3.752544165,-9.90658474,2.055434704,2024-06-04 16:17:57.372272
7.412272349,-5.644967556,-12.34517002,2.639881611,2024-06-04 16:17:57.412272
7.452272349,-4.035196304,-10.80000496,1.79671073,2024-06-04 16:17:57.452272
7.492272349,-2.86630249,-10.18564796,0.6155536175,2024-06-04 16:17:57.492272
7.532272349,-2.86630249,-10.18564796,0.6155536175,2024-06-04 16:17:57.532272
7.572272349,-2.86630249,-10.18564796,0.6155536175,2024-06-04 16:17:57.572272
7.612272349,-2.86630249,-10.18564796,0.6155536175,2024-06-04 16:17:57.612272
7.652272349,-1.710269928,-14.57767391,2.408675194,2024-06-04 16:17:57.652272
7.692272349,-1.710269928,-14.57767391,2.408675194,2024-06-04 16:17:57.692272
7.732272349,-1.710269928,-14.57767391,2.408675194,2024-06-04 16:17:57.732272
7.772272349,-2.365604401,-9.102895737,1.808674812,2024-06-04 16:17:57.772272
7.812272349,-1.782353759,-10.15573788,0.5988038778,2024-06-04 16:17:57.812272
7.852272349,-1.576271892,-10.24905777,2.662613392,2024-06-04 16:17:57.852272
7.892272349,-2.909373283,-9.595218658,1.935494423,2024-06-04 16:17:57.892272
7.932272349,-2.0769701,-5.58395052,1.085145116,2024-06-04 16:17:57.932272
7.972272349,-2.607578516,-4.386044025,2.599203587,2024-06-04 16:17:57.972272
8.012272349,-4.625625134,-6.872784615,2.817249537,2024-06-04 16:17:58.012272
8.052272349,-4.625625134,-6.872784615,2.817249537,2024-06-04 16:17:58.052272
8.092272349,-0.4504488707,-8.7029953,3.097508907,2024-06-04 16:17:58.092272
8.132272349,1.515254974,-12.39183044,3.539283752,2024-06-04 16:17:58.132272
8.172272349,1.515254974,-12.39183044,3.539283752,2024-06-04 16:17:58.172272
8.212272349,1.45633173,-10.3028965,2.165504456,2024-06-04 16:17:58.212272
8.252272349,-7.790132999,-13.57418346,7.605587006,2024-06-04 16:17:58.252272
8.292272349,-7.790132999,-13.57418346,7.605587006,2024-06-04 16:17:58.292272
8.332272349,-7.790132999,-13.57418346,7.605587006,2024-06-04 16:17:58.332272
8.372272349,-7.790132999,-13.57418346,7.605587006,2024-06-04 16:17:58.372272
8.412272349,-7.790132999,-13.57418346,7.605587006,2024-06-04 16:17:58.412272
8.452272349,-7.790132999,-13.57418346,7.605587006,2024-06-04 16:17:58.452272
8.492272349,-7.790132999,-13.57418346,7.605587006,2024-06-04 16:17:58.492272
8.532272349,-7.790132999,-13.57418346,7.605587006,2024-06-04 16:17:58.532272
8.572272349,-7.790132999,-13.57418346,7.605587006,2024-06-04 16:17:58.572272
8.612272349,-7.790132999,-13.57418346,7.605587006,2024-06-04 16:17:58.612272
8.652272349,-7.790132999,-13.57418346,7.605587006,2024-06-04 16:17:58.652272
8.692272349,-4.051946163,-8.167600632,1.560718536,2024-06-04 16:17:58.692272
8.732272349,-2.486441851,-6.854838848,-0.1917249113,2024-06-04 16:17:58.732272
8.772272349,-4.786243439,-11.05753231,0.9125627279,2024-06-04 16:17:58.772272
8.812272349,-4.74436903,-12.75254822,0.1797607988,2024-06-04 16:17:58.812272
8.852272349,-4.74436903,-12.75254822,0.1797607988,2024-06-04 16:17:58.852272
8.892272349,-4.74436903,-12.75254822,0.1797607988,2024-06-04 16:17:58.892272
8.932272349,-2.493620396,-13.48654652,1.192822099,2024-06-04 16:17:58.932272
8.972272349,-1.218245864,-11.74516964,0.07776673883,2024-06-04 16:17:58.972272
9.012272349,-2.030309916,-10.96301651,1.180858016,2024-06-04 16:17:59.012272
9.052272349,-3.622135162,-11.56540871,0.5820540786,2024-06-04 16:17:59.052272
9.092272349,-3.752544165,-8.428419113,1.933101535,2024-06-04 16:17:59.092272
9.132272349,-3.752544165,-8.428419113,1.933101535,2024-06-04 16:17:59.132272
9.172272349,-3.752544165,-8.428419113,1.933101535,2024-06-04 16:17:59.172272
9.212272349,-3.752544165,-8.428419113,1.933101535,2024-06-04 16:17:59.212272
9.252272349,-3.752544165,-8.428419113,1.933101535,2024-06-04 16:17:59.252272
9.292272349,-3.752544165,-8.428419113,1.933101535,2024-06-04 16:17:59.292272
9.332272349,-3.503391504,-8.903991699,1.933101535,2024-06-04 16:17:59.332272
9.372272349,-3.503391504,-8.903991699,1.933101535,2024-06-04 16:17:59.372272
9.412272349,-2.421835661,-13.2963171,4.142873287,2024-06-04 16:17:59.412272
9.452272349,-2.421835661,-13.2963171,4.142873287,2024-06-04 16:17:59.452272
9.492272349,-2.421835661,-13.2963171,4.142873287,2024-06-04 16:17:59.492272
9.532272349,-8.221439362,-13.71416378,6.736094952,2024-06-04 16:17:59.532272
9.572272349,-8.221439362,-13.71416378,6.736094952,2024-06-04 16:17:59.572272
9.612272349,1.330708504,-1.48295188,2.605185747,2024-06-04 16:17:59.612272
9.652272349,3.220739365,-2.264806747,0.8682954907,2024-06-04 16:17:59.652272
9.692272349,3.220739365,-2.264806747,0.8682954907,2024-06-04 16:17:59.692272
9.732272349,-0.2252244353,-4.185046673,1.153340459,2024-06-04 16:17:59.732272
9.772272349,-3.388535976,-7.623532772,2.364407778,2024-06-04 16:17:59.772272
9.812272349,-3.388535976,-7.623532772,2.364407778,2024-06-04 16:17:59.812272
9.852272349,-3.388535976,-7.623532772,2.364407778,2024-06-04 16:17:59.852272
9.892272349,-3.388535976,-7.623532772,2.364407778,2024-06-04 16:17:59.892272
9.932272349,-3.388535976,-7.623532772,2.364407778,2024-06-04 16:17:59.932272
9.972272349,-3.388535976,-7.623532772,2.364407778,2024-06-04 16:17:59.972272
10.01227235,-3.388535976,-7.623532772,2.364407778,2024-06-04 16:18:00.012272
10.05227235,-3.388535976,-7.623532772,2.364407778,2024-06-04 16:18:00.052272
10.05227235,-3.31525588,-12.09242821,1.691127419,2024-06-04 16:18:00.052272
10.13227235,-3.31525588,-12.09242821,1.691127419,2024-06-04 16:18:00.132272
10.17227235,-3.31525588,-12.09242821,1.691127419,2024-06-04 16:18:00.172272
10.21227235,-3.31525588,-12.09242821,1.691127419,2024-06-04 16:18:00.212272
10.21227235,-2.098505497,-13.23619747,1.00737834,2024-06-04 16:18:00.212272
10.29227235,-2.098505497,-13.23619747,1.00737834,2024-06-04 16:18:00.292272
10.33227235,-0.5856433511,-13.7416811,0.6251249313,2024-06-04 16:18:00.332272
10.37227235,0.2264208496,-6.504888535,-1.45633173,2024-06-04 16:18:00.372272
10.41227235,-0.1654038578,-11.05513954,-0.8922237158,2024-06-04 16:18:00.412272
10.45227235,-0.8216354847,-7.618747234,0.5976074338,2024-06-04 16:18:00.452272
10.49227235,1.3522439,-8.865707397,0.2096710801,2024-06-04 16:18:00.492272
10.53227235,1.3522439,-8.865707397,0.2096710801,2024-06-04 16:18:00.532272
10.57227235,1.3522439,-8.865707397,0.2096710801,2024-06-04 16:18:00.572272
10.61227235,-2.266003132,-11.53549862,1.873281002,2024-06-04 16:18:00.612272
10.65227235,1.153340459,-12.48066425,-1.026520967,2024-06-04 16:18:00.652272
10.69227235,-3.99451828,-10.62413216,0.4971089065,2024-06-04 16:18:00.692272
10.73227235,0.05862415582,-8.185546875,2.513959408,2024-06-04 16:18:00.732272
10.77227235,-3.957429647,-8.427222252,-0.4408775866,2024-06-04 16:18:00.772272
10.81227235,-3.957429647,-8.427222252,-0.4408775866,2024-06-04 16:18:00.812272
10.85227235,-3.957429647,-8.427222252,-0.4408775866,2024-06-04 16:18:00.852272
10.89227235,-3.957429647,-8.427222252,-0.4408775866,2024-06-04 16:18:00.892272
10.93227235,-3.957429647,-8.427222252,-0.4408775866,2024-06-04 16:18:00.932272
10.97227235,-3.957429647,-8.427222252,-0.4408775866,2024-06-04 16:18:00.972272
11.01227235,-3.957429647,-8.427222252,-0.4408775866,2024-06-04 16:18:01.012272
11.05227235,-5.024628639,-7.159026146,0.9966106415,2024-06-04 16:18:01.052272
11.09227235,-5.024628639,-7.159026146,0.9966106415,2024-06-04 16:18:01.092272
11.13227235,-5.024628639,-7.159026146,0.9966106415,2024-06-04 16:18:01.132272
11.17227235,-5.024628639,-7.159026146,0.9966106415,2024-06-04 16:18:01.172272
11.21227235,-2.333301067,-8.7029953,1.098305583,2024-06-04 16:18:01.212272
11.25227235,-2.809772015,-8.184350967,1.790728688,2024-06-04 16:18:01.252272
11.29227235,-3.981357813,-9.535398483,2.127219439,2024-06-04 16:18:01.292272
11.33227235,-4.867599487,-10.51376343,2.522334099,2024-06-04 16:18:01.332272
11.37227235,-4.867599487,-10.51376343,2.522334099,2024-06-04 16:18:01.372272
11.41227235,-4.867599487,-10.51376343,2.522334099,2024-06-04 16:18:01.412272
11.45227235,1.843370795,-8.476573944,1.272084355,2024-06-04 16:18:01.452272
11.45227235,1.843370795,-8.476573944,1.272084355,2024-06-04 16:18:01.452272
11.53227235,-1.601396561,-8.810671806,1.272084355,2024-06-04 16:18:01.532272
11.57227235,-4.013660908,-9.359226227,1.540379524,2024-06-04 16:18:01.572272
11.61227235,-4.013660908,-9.359226227,1.540379524,2024-06-04 16:18:01.612272
11.65227235,-1.213460207,-4.832903385,0.2467598319,2024-06-04 16:18:01.652272
11.69227235,-1.213460207,-4.832903385,0.2467598319,2024-06-04 16:18:01.692272
11.73227235,-1.213460207,-4.832903385,0.2467598319,2024-06-04 16:18:01.732272
11.77227235,-3.209971666,-7.028318405,2.279462576,2024-06-04 16:18:01.772272
11.81227235,-5.010271549,-12.08166027,1.563111424,2024-06-04 16:18:01.812272
11.85227235,-5.010271549,-12.08166027,1.563111424,2024-06-04 16:18:01.852272
11.89227235,-5.010271549,-12.08166027,1.563111424,2024-06-04 16:18:01.892272
11.93227235,-5.010271549,-12.08166027,1.563111424,2024-06-04 16:18:01.932272
11.93227235,-2.179861546,-7.371089935,1.824228168,2024-06-04 16:18:01.932272
12.01227235,-4.867599487,-8.272885323,2.518744946,2024-06-04 16:18:02.012272
12.05227235,-6.182754517,-11.11406326,4.211368084,2024-06-04 16:18:02.052272
12.09227235,-7.007979393,-14.40299797,6.946962357,2024-06-04 16:18:02.092272
12.13227235,-3.107080221,-5.110770226,1.220638633,2024-06-04 16:18:02.132272
12.17227235,-3.107080221,-5.110770226,1.220638633,2024-06-04 16:18:02.172272
12.21227235,-5.892923832,-6.850052834,1.346261859,2024-06-04 16:18:02.212272
12.25227235,-5.892923832,-6.850052834,1.346261859,2024-06-04 16:18:02.252272
12.29227235,-5.892923832,-6.850052834,1.346261859,2024-06-04 16:18:02.292272
12.33227235,-5.892923832,-6.850052834,1.346261859,2024-06-04 16:18:02.332272
12.37227235,-9.300602913,-8.32791996,3.75134778,2024-06-04 16:18:02.372272
12.41227235,-4.966004372,-3.71186614,4.813760757,2024-06-04 16:18:02.412272
12.45227235,-4.105784416,-3.002693415,2.736790895,2024-06-04 16:18:02.452272
12.49227235,-4.105784416,-3.002693415,2.736790895,2024-06-04 16:18:02.492272
12.53227235,-4.105784416,-3.002693415,2.736790895,2024-06-04 16:18:02.532272
12.57227235,-4.105784416,-3.002693415,2.736790895,2024-06-04 16:18:02.572272
12.61227235,-4.105784416,-3.002693415,2.736790895,2024-06-04 16:18:02.612272
12.65227235,-9.342476845,-4.471288204,6.011368752,2024-06-04 16:18:02.652272
12.69227235,-4.335794449,-3.091526747,3.420839071,2024-06-04 16:18:02.692272
12.73227235,-4.335794449,-3.091526747,3.420839071,2024-06-04 16:18:02.732272
12.77227235,-4.335794449,-3.091526747,3.420839071,2024-06-04 16:18:02.772272
12.81227235,-5.516951561,-6.034399509,3.079562664,2024-06-04 16:18:02.812272
12.85227235,-7.680063248,-6.16121912,7.545766354,2024-06-04 16:18:02.852272
12.89227235,-11.35813046,-10.4216404,4.819743156,2024-06-04 16:18:02.892272
12.93227235,-7.130312443,-10.51017475,3.35862565,2024-06-04 16:18:02.932272
12.97227235,-8.547162056,-11.27318573,2.692523718,2024-06-04 16:18:02.972272
13.01227235,-8.584251404,-10.00349426,2.582453728,2024-06-04 16:18:03.012272
13.05227235,-8.584251404,-10.00349426,2.582453728,2024-06-04 16:18:03.052272
13.09227235,-8.584251404,-10.00349426,2.582453728,2024-06-04 16:18:03.092272
13.13227235,-8.584251404,-10.00349426,2.582453728,2024-06-04 16:18:03.132272
13.17227235,-8.584251404,-10.00349426,2.582453728,2024-06-04 16:18:03.172272
13.21227235,-6.046363831,-8.490931511,4.278367043,2024-06-04 16:18:03.212272
13.25227235,-6.48933506,-7.912466049,4.437788486,2024-06-04 16:18:03.252272
13.29227235,-6.48933506,-7.912466049,4.437788486,2024-06-04 16:18:03.292272
13.33227235,-7.651349545,-6.588936329,3.792025566,2024-06-04 16:18:03.332272
13.37227235,-7.651349545,-6.588936329,3.792025566,2024-06-04 16:18:03.372272
13.41227235,-7.651349545,-6.588936329,3.792025566,2024-06-04 16:18:03.412272
13.45227235,-7.651349545,-6.588936329,3.792025566,2024-06-04 16:18:03.452272
13.49227235,-7.651349545,-6.588936329,3.792025566,2024-06-04 16:18:03.492272
13.53227235,-5.779264927,-4.575376034,2.598007202,2024-06-04 16:18:03.532272
13.57227235,-6.976872444,-3.491427422,4.968397141,2024-06-04 16:18:03.572272
13.61227235,-6.976872444,-3.491427422,4.968397141,2024-06-04 16:18:03.612272
13.65227235,-3.882055521,-2.49481678,4.635196686,2024-06-04 16:18:03.652272
13.69227235,-3.603889942,-1.625324726,3.920340776,2024-06-04 16:18:03.692272
13.73227235,-4.374079704,-1.773978829,4.555037022,2024-06-04 16:18:03.732272
13.77227235,-3.492623806,-1.071984529,4.341776848,2024-06-04 16:18:03.772272
13.81227235,-4.116552353,-2.118844509,4.528716087,2024-06-04 16:18:03.812272
13.85227235,-5.334797859,-3.163311481,4.775475979,2024-06-04 16:18:03.852272
13.89227235,-5.334797859,-3.163311481,4.775475979,2024-06-04 16:18:03.892272
13.93227235,-6.146862507,-5.290530682,3.873381615,2024-06-04 16:18:03.932272
13.97227235,-6.224628925,-6.755237579,3.550051451,2024-06-04 16:18:03.972272
14.01227235,-6.596114635,-7.802097321,4.04476738,2024-06-04 16:18:04.012272
14.05227235,-8.731708527,-9.25753212,3.836292982,2024-06-04 16:18:04.052272
14.09227235,-8.700602531,-9.451350212,3.107080221,2024-06-04 16:18:04.092272
14.13227235,-7.936394691,-9.250352859,2.643470764,2024-06-04 16:18:04.132272
14.17227235,-7.936394691,-9.250352859,2.643470764,2024-06-04 16:18:04.172272
14.21227235,-7.936394691,-9.250352859,2.643470764,2024-06-04 16:18:04.212272
14.25227235,-7.936394691,-9.250352859,2.643470764,2024-06-04 16:18:04.252272
14.29227235,-7.936394691,-9.250352859,2.643470764,2024-06-04 16:18:04.292272
14.33227235,-7.936394691,-9.250352859,2.643470764,2024-06-04 16:18:04.332272
14.37227235,-7.936394691,-9.250352859,2.643470764,2024-06-04 16:18:04.372272
14.41227235,-4.157529354,-8.561519623,0.6574280262,2024-06-04 16:18:04.412272
14.45227235,-3.380161047,-8.847761154,0.8647062778,2024-06-04 16:18:04.452272
14.49227235,-3.48783803,-7.200900555,1.015753269,2024-06-04 16:18:04.492272
14.53227235,-4.193421841,-8.990432739,1.148554921,2024-06-04 16:18:04.532272
14.57227235,-4.193421841,-8.990432739,1.148554921,2024-06-04 16:18:04.572272
14.61227235,-2.621935368,-8.67039299,1.033699393,2024-06-04 16:18:04.612272
14.65227235,-3.658027649,-10.94746304,1.628913999,2024-06-04 16:18:04.652272
14.69227235,-3.658027649,-10.94746304,1.628913999,2024-06-04 16:18:04.692272
14.73227235,-3.658027649,-10.94746304,1.628913999,2024-06-04 16:18:04.732272
14.77227235,-3.658027649,-10.94746304,1.628913999,2024-06-04 16:18:04.772272
14.81227235,-3.78484726,-7.466803074,0.1354935765,2024-06-04 16:18:04.812272
14.85227235,-2.300997972,-9.280263901,0.7965108156,2024-06-04 16:18:04.852272
14.89227235,-2.988336325,-8.799904823,0.9352945685,2024-06-04 16:18:04.892272
14.93227235,-2.284248352,-8.286046028,0.970289588,2024-06-04 16:18:04.932272
14.97227235,-2.284248352,-8.286046028,0.970289588,2024-06-04 16:18:04.972272
15.01227235,-2.284248352,-8.286046028,0.970289588,2024-06-04 16:18:05.012272
15.05227235,-2.284248352,-8.286046028,0.970289588,2024-06-04 16:18:05.052272
15.09227235,-2.284248352,-8.286046028,0.970289588,2024-06-04 16:18:05.092272
15.13227235,-2.445763826,-9.002396584,1.014556766,2024-06-04 16:18:05.132272
15.17227235,-2.445763826,-9.002396584,1.014556766,2024-06-04 16:18:05.172272
15.21227235,-2.445763826,-9.002396584,1.014556766,2024-06-04 16:18:05.212272
15.25227235,-2.445763826,-9.002396584,1.014556766,2024-06-04 16:18:05.252272
15.29227235,-3.557229996,-9.153144836,1.159322619,2024-06-04 16:18:05.292272
15.33227235,-2.559721947,-9.087342262,0.9379864931,2024-06-04 16:18:05.332272
15.37227235,-3.472284794,-7.905287743,1.585843205,2024-06-04 16:18:05.372272
15.41227235,-3.221935749,-6.036792278,0.2000997961,2024-06-04 16:18:05.412272
15.45227235,-3.221935749,-6.036792278,0.2000997961,2024-06-04 16:18:05.452272
15.49227235,-3.538087368,-10.38574791,1.514058471,2024-06-04 16:18:05.492272
15.53227235,-4.75872612,-9.543772697,2.469691992,2024-06-04 16:18:05.532272
15.57227235,-4.75872612,-9.543772697,2.469691992,2024-06-04 16:18:05.572272
15.61227235,-3.922733545,-7.453642368,1.141376376,2024-06-04 16:18:05.612272
15.65227235,-0.6538388133,-5.117948532,0.1028913707,2024-06-04 16:18:05.652272
15.69227235,-0.6538388133,-5.117948532,0.1028913707,2024-06-04 16:18:05.692272
15.73227235,-0.6538388133,-5.117948532,0.1028913707,2024-06-04 16:18:05.732272
15.77227235,-0.6538388133,-5.117948532,0.1028913707,2024-06-04 16:18:05.772272
15.81227235,-0.6538388133,-5.117948532,0.1028913707,2024-06-04 16:18:05.812272
15.85227235,-0.6538388133,-5.117948532,0.1028913707,2024-06-04 16:18:05.852272
15.89227235,-1.559522152,-6.016154289,1.137787223,2024-06-04 16:18:05.892272
15.93227235,-2.027917147,-6.169594288,0.9834501147,2024-06-04 16:18:05.932272
15.97227235,-2.027917147,-6.169594288,0.9834501147,2024-06-04 16:18:05.972272
16.01227235,-2.027917147,-6.169594288,0.9834501147,2024-06-04 16:18:06.012272
16.05227235,-2.027917147,-6.169594288,0.9834501147,2024-06-04 16:18:06.052272
16.09227235,-2.027917147,-6.169594288,0.9834501147,2024-06-04 16:18:06.092272
16.13227235,-4.793421745,-11.23609734,1.756032705,2024-06-04 16:18:06.132272
16.17227235,-4.793421745,-11.23609734,1.756032705,2024-06-04 16:18:06.172272
16.21227235,-1.809871197,-9.094520569,1.03848505,2024-06-04 16:18:06.212272
16.25227235,-1.863709688,-9.075378418,0.7498508096,2024-06-04 16:18:06.252272
16.29227235,-1.863709688,-9.075378418,0.7498508096,2024-06-04 16:18:06.292272
16.33227235,-1.694716692,-8.210671425,0.8898309469,2024-06-04 16:18:06.332272
16.37227235,-2.669791937,-8.437092781,1.371386528,2024-06-04 16:18:06.372272
16.41227235,-2.669791937,-8.437092781,1.371386528,2024-06-04 16:18:06.412272
16.45227235,-4.135694981,-9.638289452,1.523629785,2024-06-04 16:18:06.452272
16.49227235,-3.851846218,-9.504291534,1.160519004,2024-06-04 16:18:06.492272
16.53227235,-3.900001764,-10.11266708,1.552343726,2024-06-04 16:18:06.532272
16.57227235,-3.690330744,-10.27298546,1.606182218,2024-06-04 16:18:06.572272
16.61227235,-3.690330744,-10.27298546,1.606182218,2024-06-04 16:18:06.612272
16.65227235,-2.066202402,-9.891031265,1.05523479,2024-06-04 16:18:06.652272
16.69227235,-2.066202402,-9.891031265,1.05523479,2024-06-04 16:18:06.692272
16.73227235,-2.267199516,-8.783154488,1.074377418,2024-06-04 16:18:06.732272
16.77227235,-2.352443695,-8.647661209,0.9906286001,2024-06-04 16:18:06.772272
16.81227235,-2.767897606,-8.57228756,1.124626637,2024-06-04 16:18:06.812272
16.85227235,-2.767897606,-8.57228756,1.124626637,2024-06-04 16:18:06.852272
16.89227235,-2.767897606,-8.57228756,1.124626637,2024-06-04 16:18:06.892272
16.93227235,-2.767897606,-8.57228756,1.124626637,2024-06-04 16:18:06.932272
16.97227235,-3.136990547,-9.161520004,1.161715388,2024-06-04 16:18:06.972272
17.01227235,-3.044567823,-8.913563728,1.004985452,2024-06-04 16:18:07.012272
17.05227235,-2.363211393,-9.071788788,1.16769743,2024-06-04 16:18:07.052272
17.09227235,-2.978765011,-9.134002686,1.403689623,2024-06-04 16:18:07.092272
17.13227235,-3.121437073,-9.168698311,1.427617788,2024-06-04 16:18:07.132272
17.17227235,-3.121437073,-9.168698311,1.427617788,2024-06-04 16:18:07.172272
17.21227235,-3.129812002,-9.359226227,1.267298698,2024-06-04 16:18:07.212272
17.25227235,-2.981158018,-9.492028236,1.517647743,2024-06-04 16:18:07.252272
17.29227235,-3.27577424,-8.919545174,1.514058471,2024-06-04 16:18:07.292272
17.33227235,-3.27577424,-8.919545174,1.514058471,2024-06-04 16:18:07.332272
17.37227235,-3.27577424,-8.919545174,1.514058471,2024-06-04 16:18:07.372272
17.41227235,-3.42323184,-9.25753212,1.413260818,2024-06-04 16:18:07.412272
17.45227235,-3.42323184,-9.25753212,1.413260818,2024-06-04 16:18:07.452272
17.49227235,-3.42323184,-9.25753212,1.413260818,2024-06-04 16:18:07.492272
17.53227235,-3.42323184,-9.25753212,1.413260818,2024-06-04 16:18:07.532272
17.57227235,-3.42323184,-9.25753212,1.413260818,2024-06-04 16:18:07.572272
17.61227235,-3.42323184,-9.25753212,1.413260818,2024-06-04 16:18:07.612272
17.65227235,-4.403990269,-8.711369514,1.978565216,2024-06-04 16:18:07.652272
17.69227235,-4.456931114,-9.162715912,1.633699656,2024-06-04 16:18:07.692272
17.73227235,-5.001896858,-8.671588898,2.044667006,2024-06-04 16:18:07.732272
17.77227235,-4.376472473,-8.768797874,1.821835399,2024-06-04 16:18:07.772272
17.81227235,-4.364508629,-8.315956116,2.11046958,2024-06-04 16:18:07.812272
17.85227235,-3.880859137,-7.847560883,1.636092424,2024-06-04 16:18:07.852272
17.89227235,-4.049553394,-8.145766258,1.94865489,2024-06-04 16:18:07.892272
17.93227235,-4.049553394,-8.145766258,1.94865489,2024-06-04 16:18:07.932272
17.97227235,-5.009075165,-8.69192791,2.32851553,2024-06-04 16:18:07.972272
18.01227235,-4.334598064,-8.482556343,2.065006018,2024-06-04 16:18:08.012272
18.05227235,-4.569394112,-8.875278473,2.182254314,2024-06-04 16:18:08.052272
18.09227235,-4.301098824,-8.615358353,2.239681959,2024-06-04 16:18:08.092272
18.13227235,-4.301098824,-8.615358353,2.239681959,2024-06-04 16:18:08.132272
18.17227235,-4.301098824,-8.615358353,2.239681959,2024-06-04 16:18:08.172272
18.21227235,-4.301098824,-8.615358353,2.239681959,2024-06-04 16:18:08.212272
18.25227235,-4.301098824,-8.615358353,2.239681959,2024-06-04 16:18:08.252272
18.29227235,-4.301098824,-8.615358353,2.239681959,2024-06-04 16:18:08.292272
18.33227235,-4.301098824,-8.615358353,2.239681959,2024-06-04 16:18:08.332272
18.37227235,-4.301098824,-8.615358353,2.239681959,2024-06-04 16:18:08.372272
18.41227235,-3.835096598,-8.476573944,2.26241374,2024-06-04 16:18:08.412272
18.45227235,-4.471288204,-8.809475899,2.323729992,2024-06-04 16:18:08.452272
18.49227235,-4.471288204,-8.809475899,2.323729992,2024-06-04 16:18:08.492272
18.53227235,-4.471288204,-8.809475899,2.323729992,2024-06-04 16:18:08.532272
18.57227235,-4.471288204,-8.809475899,2.323729992,2024-06-04 16:18:08.572272
18.61227235,-4.686941147,-8.196314812,2.136790514,2024-06-04 16:18:08.612272
18.65227235,-4.866403103,-8.740083694,2.215753794,2024-06-04 16:18:08.652272
18.69227235,-4.630411148,-8.38175869,2.094916344,2024-06-04 16:18:08.692272
18.73227235,-4.630411148,-8.38175869,2.094916344,2024-06-04 16:18:08.732272
18.77227235,-4.630411148,-8.38175869,2.094916344,2024-06-04 16:18:08.772272
18.81227235,-4.630411148,-8.38175869,2.094916344,2024-06-04 16:18:08.812272
18.85227235,-4.630411148,-8.38175869,2.094916344,2024-06-04 16:18:08.852272
18.89227235,-4.630411148,-8.38175869,2.094916344,2024-06-04 16:18:08.892272
18.93227235,-5.294120312,-8.139784813,2.556132793,2024-06-04 16:18:08.932272
18.97227235,-4.951647282,-8.408080101,2.290230274,2024-06-04 16:18:08.972272
19.01227235,-5.16221571,-8.472985268,2.285444736,2024-06-04 16:18:09.012272
19.05227235,-5.16221571,-8.472985268,2.285444736,2024-06-04 16:18:09.052272
19.09227235,-5.16221571,-8.472985268,2.285444736,2024-06-04 16:18:09.092272
19.13227235,-5.16221571,-8.472985268,2.285444736,2024-06-04 16:18:09.132272
19.17227235,-5.16221571,-8.472985268,2.285444736,2024-06-04 16:18:09.172272
19.21227235,-5.16221571,-8.472985268,2.285444736,2024-06-04 16:18:09.212272
19.25227235,-5.16221571,-8.472985268,2.285444736,2024-06-04 16:18:09.252272
19.29227235,-5.16221571,-8.472985268,2.285444736,2024-06-04 16:18:09.292272
19.33227235,-6.832107067,-7.870292664,2.82682085,2024-06-04 16:18:09.332272
19.37227235,-6.832107067,-7.870292664,2.82682085,2024-06-04 16:18:09.372272
19.37227235,-6.949355125,-6.985247612,3.273381472,2024-06-04 16:18:09.372272
19.45227235,-3.198007345,-3.631706476,3.064906597,2024-06-04 16:18:09.452272
19.49227235,-1.535593987,-2.086541414,3.71186614,2024-06-04 16:18:09.492272
19.53227235,-2.563311338,-2.626721144,2.973979473,2024-06-04 16:18:09.532272
19.57227235,-2.563311338,-2.626721144,2.973979473,2024-06-04 16:18:09.572272
19.61227235,-10.00469017,-6.125326633,5.1765728,2024-06-04 16:18:09.612272
19.65227235,-13.79103374,-10.02263641,7.334898949,2024-06-04 16:18:09.652272
19.69227235,-8.693124771,-0.3951148391,5.640182018,2024-06-04 16:18:09.692272
19.73227235,-5.277370453,-3.159722328,3.933501244,2024-06-04 16:18:09.732272
19.77227235,-5.864210129,-4.326223373,2.680559635,2024-06-04 16:18:09.772272
19.81227235,-7.859525204,-3.968197346,3.382553816,2024-06-04 16:18:09.812272
19.85227235,-7.859525204,-3.968197346,3.382553816,2024-06-04 16:18:09.852272
19.89227235,-7.859525204,-3.968197346,3.382553816,2024-06-04 16:18:09.892272
19.93227235,-7.859525204,-3.968197346,3.382553816,2024-06-04 16:18:09.932272
19.97227235,-7.859525204,-3.968197346,3.382553816,2024-06-04 16:18:09.972272
20.01227235,-7.859525204,-3.968197346,3.382553816,2024-06-04 16:18:10.012272
20.05227235,-7.859525204,-3.968197346,3.382553816,2024-06-04 16:18:10.052272
20.09227235,-6.320641041,-4.975575447,3.987339735,2024-06-04 16:18:10.092272
20.13227235,-7.445267677,-3.429214001,7.204489708,2024-06-04 16:18:10.132272
20.17227235,-7.518248558,-5.877370834,5.827121258,2024-06-04 16:18:10.172272
20.21227235,-7.518248558,-5.877370834,5.827121258,2024-06-04 16:18:10.212272
20.25227235,-5.711966991,-5.47597456,7.470392227,2024-06-04 16:18:10.252272
20.29227235,-3.765704632,-4.428217411,8.071588516,2024-06-04 16:18:10.292272
20.33227235,-3.249453068,-4.538287163,6.457031727,2024-06-04 16:18:10.332272
20.37227235,-2.496013165,-4.242474556,5.839085579,2024-06-04 16:18:10.372272
20.41227235,-4.051946163,-4.564608097,7.63579607,2024-06-04 16:18:10.412272
20.45227235,-4.204189301,-4.635196686,7.519444942,2024-06-04 16:18:10.452272
20.49227235,-4.204189301,-4.635196686,7.519444942,2024-06-04 16:18:10.492272
20.53227235,-4.204189301,-4.635196686,7.519444942,2024-06-04 16:18:10.532272
20.57227235,-4.204189301,-4.635196686,7.519444942,2024-06-04 16:18:10.572272
20.61227235,-4.752744198,-4.617250443,7.762615681,2024-06-04 16:18:10.612272
20.65227235,-4.864010334,-4.284348965,7.925626755,2024-06-04 16:18:10.652272
20.69227235,-4.405186653,-4.267599106,7.018746853,2024-06-04 16:18:10.692272
20.73227235,-3.928715706,-4.403990269,7.2535429,2024-06-04 16:18:10.732272
20.77227235,-4.526323318,-4.267599106,7.487142086,2024-06-04 16:18:10.772272
20.81227235,-4.526323318,-4.267599106,7.487142086,2024-06-04 16:18:10.812272
20.85227235,-4.526323318,-4.267599106,7.487142086,2024-06-04 16:18:10.852272
20.85227235,-4.595715046,-4.654339314,7.491927624,2024-06-04 16:18:10.852272
20.93227235,-4.568197727,-4.256831646,7.216454029,2024-06-04 16:18:10.932272
20.97227235,-4.568197727,-4.256831646,7.216454029,2024-06-04 16:18:10.972272
21.01227235,-4.568197727,-4.256831646,7.216454029,2024-06-04 16:18:11.012272
21.05227235,-4.568197727,-4.256831646,7.216454029,2024-06-04 16:18:11.052272
21.09227235,-5.320441246,-4.396811485,7.07737112,2024-06-04 16:18:11.092272
21.13227235,-4.718048096,-3.844667673,6.878767014,2024-06-04 16:18:11.132272
21.17227235,-4.718048096,-3.844667673,6.878767014,2024-06-04 16:18:11.172272
21.21227235,-4.83409977,-4.735994339,7.372286797,2024-06-04 16:18:11.212272
21.25227235,-4.83409977,-4.735994339,7.372286797,2024-06-04 16:18:11.252272
21.29227235,-4.880760193,-4.631607533,7.51346302,2024-06-04 16:18:11.292272
21.33227235,-4.726422787,-4.562215328,8.258528709,2024-06-04 16:18:11.332272
21.37227235,-5.067699432,-4.368097782,6.873981476,2024-06-04 16:18:11.372272
21.41227235,-5.067699432,-4.368097782,6.873981476,2024-06-04 16:18:11.412272
21.45227235,-5.067699432,-4.368097782,6.873981476,2024-06-04 16:18:11.452272
21.49227235,-5.067699432,-4.368097782,6.873981476,2024-06-04 16:18:11.492272
21.53227235,-5.067699432,-4.368097782,6.873981476,2024-06-04 16:18:11.532272
21.57227235,-5.067699432,-4.368097782,6.873981476,2024-06-04 16:18:11.572272
21.61227235,-4.168296814,-4.164707661,6.87158823,2024-06-04 16:18:11.612272
21.65227235,-4.168296814,-4.164707661,6.87158823,2024-06-04 16:18:11.652272
21.69227235,-4.168296814,-4.164707661,6.87158823,2024-06-04 16:18:11.692272
21.73227235,-4.168296814,-4.164707661,6.87158823,2024-06-04 16:18:11.732272
21.77227235,-4.168296814,-4.164707661,6.87158823,2024-06-04 16:18:11.772272
21.81227235,-4.168296814,-4.164707661,6.87158823,2024-06-04 16:18:11.812272
21.85227235,-4.777868748,-4.688137531,6.628417969,2024-06-04 16:18:11.852272
21.89227235,-5.023432255,-5.055735111,7.18893671,2024-06-04 16:18:11.892272
21.93227235,-4.995914459,-5.040181637,6.91106987,2024-06-04 16:18:11.932272
21.97227235,-5.310869694,-4.801796913,6.999604225,2024-06-04 16:18:11.972272
22.01227235,-4.750350952,-4.762315273,6.783951283,2024-06-04 16:18:12.012272
22.05227235,-4.966004372,-5.170590401,6.905087948,2024-06-04 16:18:12.052272
22.09227235,-4.885545731,-4.999503613,7.00439024,2024-06-04 16:18:12.092272
22.13227235,-4.773082733,-4.41984272,6.734898567,2024-06-04 16:18:12.132272
22.17227235,-4.926223755,-5.027021408,6.86082077,2024-06-04 16:18:12.172272
22.21227235,-4.525126934,-4.901099205,6.441478729,2024-06-04 16:18:12.212272
22.25227235,-4.525126934,-4.901099205,6.441478729,2024-06-04 16:18:12.252272
22.29227235,-4.525126934,-4.901099205,6.441478729,2024-06-04 16:18:12.292272
22.33227235,-4.525126934,-4.901099205,6.441478729,2024-06-04 16:18:12.332272
22.37227235,-4.525126934,-4.901099205,6.441478729,2024-06-04 16:18:12.372272
22.41227235,-4.732405186,-5.241477966,6.782754898,2024-06-04 16:18:12.412272
22.45227235,-4.99352169,-5.115555763,6.666703224,2024-06-04 16:18:12.452272
22.49227235,-4.99352169,-5.115555763,6.666703224,2024-06-04 16:18:12.492272
22.53227235,-4.383651257,-5.011467934,6.55394125,2024-06-04 16:18:12.532272
22.57227235,-4.383651257,-5.011467934,6.55394125,2024-06-04 16:18:12.572272
22.61227235,-4.383651257,-5.011467934,6.55394125,2024-06-04 16:18:12.612272
22.65227235,-4.383651257,-5.011467934,6.55394125,2024-06-04 16:18:12.652272
22.69227235,-4.383651257,-5.011467934,6.55394125,2024-06-04 16:18:12.692272
22.73227235,-4.844867706,-5.302495003,5.925227165,2024-06-04 16:18:12.732272
22.77227235,-4.880760193,-5.863013744,5.490630627,2024-06-04 16:18:12.772272
22.81227235,-4.14646244,-6.026024818,5.503791332,2024-06-04 16:18:12.812272
22.85227235,-4.14646244,-6.026024818,5.503791332,2024-06-04 16:18:12.852272
22.85227235,-3.601497173,-5.534897804,5.495416164,2024-06-04 16:18:12.852272
22.93227235,-3.601497173,-5.534897804,5.495416164,2024-06-04 16:18:12.932272
22.97227235,-3.601497173,-5.534897804,5.495416164,2024-06-04 16:18:12.972272
23.01227235,-8.973683357,-8.35304451,3.200400352,2024-06-04 16:18:13.012272
23.01227235,-8.973683357,-8.35304451,3.200400352,2024-06-04 16:18:13.012272
23.09227235,-6.745666027,-8.026124954,3.376571894,2024-06-04 16:18:13.092272
23.13227235,-5.985047817,-8.510073662,2.326122761,2024-06-04 16:18:13.132272
23.17227235,-5.985047817,-8.510073662,2.326122761,2024-06-04 16:18:13.172272
23.21227235,-5.985047817,-8.510073662,2.326122761,2024-06-04 16:18:13.212272
23.25227235,-5.985047817,-8.510073662,2.326122761,2024-06-04 16:18:13.252272
23.29227235,-5.985047817,-8.510073662,2.326122761,2024-06-04 16:18:13.292272
23.33227235,-5.985047817,-8.510073662,2.326122761,2024-06-04 16:18:13.332272
23.37227235,-5.985047817,-8.510073662,2.326122761,2024-06-04 16:18:13.372272
23.41227235,-5.985047817,-8.510073662,2.326122761,2024-06-04 16:18:13.412272
23.45227235,-5.985047817,-8.510073662,2.326122761,2024-06-04 16:18:13.452272
23.49227235,-5.985047817,-8.510073662,2.326122761,2024-06-04 16:18:13.492272
23.53227235,-5.985047817,-8.510073662,2.326122761,2024-06-04 16:18:13.532272
23.57227235,-5.985047817,-8.510073662,2.326122761,2024-06-04 16:18:13.572272
23.61227235,-4.1129632,-9.014361382,1.496112347,2024-06-04 16:18:13.612272
23.65227235,-4.111766815,-8.805886269,1.3522439,2024-06-04 16:18:13.652272
23.69227235,-5.406582832,-10.19761181,2.547757864,2024-06-04 16:18:13.692272
23.73227235,-5.406582832,-10.19761181,2.547757864,2024-06-04 16:18:13.732272
23.77227235,-3.667598963,-8.221439362,1.903191328,2024-06-04 16:18:13.772272
23.81227235,-4.05912447,-9.515059471,1.27328074,2024-06-04 16:18:13.812272
23.85227235,-4.083052635,-8.094321251,1.57028985,2024-06-04 16:18:13.852272
23.89227235,-5.837889194,-7.995018482,3.163311481,2024-06-04 16:18:13.892272
23.93227235,-4.502394676,-8.076375008,2.073380709,2024-06-04 16:18:13.932272
23.93227235,-4.502394676,-8.076375008,2.073380709,2024-06-04 16:18:13.932272
24.01227235,-4.502394676,-8.076375008,2.073380709,2024-06-04 16:18:14.012272
24.05227235,-4.502394676,-8.076375008,2.073380709,2024-06-04 16:18:14.052272
24.09227235,-4.502394676,-8.076375008,2.073380709,2024-06-04 16:18:14.092272
24.13227235,-4.502394676,-8.076375008,2.073380709,2024-06-04 16:18:14.132272
24.17227235,-4.502394676,-8.076375008,2.073380709,2024-06-04 16:18:14.172272
24.21227235,-6.960123062,-7.778169155,3.144168854,2024-06-04 16:18:14.212272
24.25227235,-6.960123062,-7.778169155,3.144168854,2024-06-04 16:18:14.252272
24.29227235,-6.960123062,-7.778169155,3.144168854,2024-06-04 16:18:14.292272
24.33227235,-6.960123062,-7.778169155,3.144168854,2024-06-04 16:18:14.332272
24.37227235,-6.960123062,-7.778169155,3.144168854,2024-06-04 16:18:14.372272
24.41227235,-6.125326633,-7.309773922,3.744169235,2024-06-04 16:18:14.412272
24.45227235,-6.497709751,-6.430710793,2.983550787,2024-06-04 16:18:14.452272
24.49227235,-6.497709751,-6.430710793,2.983550787,2024-06-04 16:18:14.492272
24.53227235,-6.497709751,-6.430710793,2.983550787,2024-06-04 16:18:14.532272
24.57227235,-6.497709751,-6.430710793,2.983550787,2024-06-04 16:18:14.572272
24.61227235,-6.497709751,-6.430710793,2.983550787,2024-06-04 16:18:14.612272
24.65227235,-6.497709751,-6.430710793,2.983550787,2024-06-04 16:18:14.652272
24.69227235,-6.497709751,-6.430710793,2.983550787,2024-06-04 16:18:14.692272
24.73227235,-6.497709751,-6.430710793,2.983550787,2024-06-04 16:18:14.732272
24.77227235,-6.497709751,-6.430710793,2.983550787,2024-06-04 16:18:14.772272
24.81227235,-6.497709751,-6.430710793,2.983550787,2024-06-04 16:18:14.812272
24.85227235,-6.497709751,-6.430710793,2.983550787,2024-06-04 16:18:14.852272
24.89227235,-6.497709751,-6.430710793,2.983550787,2024-06-04 16:18:14.892272
24.93227235,-6.497709751,-6.430710793,2.983550787,2024-06-04 16:18:14.932272
24.97227235,-6.497709751,-6.430710793,2.983550787,2024-06-04 16:18:14.972272
25.01227235,-6.497709751,-6.430710793,2.983550787,2024-06-04 16:18:15.012272
25.05227235,-6.497709751,-6.430710793,2.983550787,2024-06-04 16:18:15.052272
25.09227235,-6.497709751,-6.430710793,2.983550787,2024-06-04 16:18:15.092272
25.13227235,-6.497709751,-6.430710793,2.983550787,2024-06-04 16:18:15.132272
25.17227235,-6.497709751,-6.430710793,2.983550787,2024-06-04 16:18:15.172272
25.21227235,-7.027122021,-3.218346357,3.829114437,2024-06-04 16:18:15.212272
25.25227235,-6.955337048,-3.1405797,4.454538345,2024-06-04 16:18:15.252272
25.29227235,-6.856035233,-3.714258909,4.525126934,2024-06-04 16:18:15.292272
25.33227235,-5.43649292,-3.40648222,4.108177185,2024-06-04 16:18:15.332272
25.37227235,-5.903691769,-2.804986238,4.100998878,2024-06-04 16:18:15.372272
25.41227235,-8.638090134,-3.006282568,3.965804338,2024-06-04 16:18:15.412272
25.45227235,-8.638090134,-3.006282568,3.965804338,2024-06-04 16:18:15.452272
25.49227235,-7.125526905,-2.203789711,4.73001194,2024-06-04 16:18:15.492272
25.53227235,-5.249852657,-2.306980133,3.81595397,2024-06-04 16:18:15.532272
25.57227235,-5.249852657,-2.306980133,3.81595397,2024-06-04 16:18:15.572272
25.61227235,-7.24995327,-2.789433002,4.483252525,2024-06-04 16:18:15.612272
25.65227235,-6.78873682,-4.016053677,4.30827713,2024-06-04 16:18:15.652272
25.69227235,-6.78873682,-4.016053677,4.30827713,2024-06-04 16:18:15.692272
25.73227235,-6.78873682,-4.016053677,4.30827713,2024-06-04 16:18:15.732272
25.77227235,-6.78873682,-4.016053677,4.30827713,2024-06-04 16:18:15.772272
25.81227235,-6.78873682,-4.016053677,4.30827713,2024-06-04 16:18:15.812272
25.85227235,-6.78873682,-4.016053677,4.30827713,2024-06-04 16:18:15.852272
25.89227235,-6.78873682,-4.016053677,4.30827713,2024-06-04 16:18:15.892272
25.93227235,-6.78873682,-4.016053677,4.30827713,2024-06-04 16:18:15.932272
25.97227235,-7.303792,-5.260620594,1.973779559,2024-06-04 16:18:15.972272
26.01227235,-7.303792,-5.260620594,1.973779559,2024-06-04 16:18:16.012272
26.05227235,-7.55294466,-7.663313389,2.452942371,2024-06-04 16:18:16.052272
26.09227235,-4.976771832,-8.203493118,2.583650351,2024-06-04 16:18:16.092272
26.13227235,-5.092823982,-9.686145782,3.368196964,2024-06-04 16:18:16.132272
26.17227235,-5.092823982,-9.686145782,3.368196964,2024-06-04 16:18:16.172272
26.21227235,-6.807879448,-8.980861664,3.796811342,2024-06-04 16:18:16.212272
26.25227235,-6.734898567,-8.058428764,2.261217356,2024-06-04 16:18:16.252272
26.29227235,-4.810171604,-6.57218647,1.487737536,2024-06-04 16:18:16.292272
26.33227235,-4.810171604,-6.57218647,1.487737536,2024-06-04 16:18:16.332272
26.37227235,-5.9515481,-8.132605553,3.153740168,2024-06-04 16:18:16.372272
26.37227235,-4.810171604,-6.57218647,1.487737536,2024-06-04 16:18:16.372272
26.45227235,-6.912266254,-7.9782691,2.679363251,2024-06-04 16:18:16.452272
26.49227235,-6.912266254,-7.9782691,2.679363251,2024-06-04 16:18:16.492272
26.53227235,-6.309873104,-6.999604225,2.432603359,2024-06-04 16:18:16.532272
26.53227235,-6.309873104,-6.999604225,2.432603359,2024-06-04 16:18:16.532272
26.61227235,-6.309873104,-6.999604225,2.432603359,2024-06-04 16:18:16.612272
26.65227235,-6.309873104,-6.999604225,2.432603359,2024-06-04 16:18:16.652272
26.69227235,-6.309873104,-6.999604225,2.432603359,2024-06-04 16:18:16.692272
26.73227235,-6.309873104,-6.999604225,2.432603359,2024-06-04 16:18:16.732272
26.77227235,-6.309873104,-6.999604225,2.432603359,2024-06-04 16:18:16.772272
26.81227235,-9.156734467,-6.779165745,3.266202927,2024-06-04 16:18:16.812272
26.85227235,-9.156734467,-6.779165745,3.266202927,2024-06-04 16:18:16.852272
26.89227235,-6.411568165,-5.189733028,3.175275564,2024-06-04 16:18:16.892272
26.93227235,-6.411568165,-5.189733028,3.175275564,2024-06-04 16:18:16.932272
26.97227235,-7.316952705,-5.430510998,4.039981842,2024-06-04 16:18:16.972272
27.01227235,-7.969893932,-5.510969639,3.888037682,2024-06-04 16:18:17.012272
27.05227235,-6.951747894,-3.349054337,3.662813187,2024-06-04 16:18:17.052272
27.09227235,-7.123134136,-3.263810158,4.847260475,2024-06-04 16:18:17.092272
27.13227235,-7.123134136,-3.263810158,4.847260475,2024-06-04 16:18:17.132272
27.17227235,-5.983851433,-2.800200701,4.205385685,2024-06-04 16:18:17.172272
27.21227235,-5.983851433,-2.800200701,4.205385685,2024-06-04 16:18:17.212272
27.25227235,-5.983851433,-2.800200701,4.205385685,2024-06-04 16:18:17.252272
27.25227235,-6.899106026,-2.467299223,4.292723656,2024-06-04 16:18:17.252272
27.33227235,-4.715655327,-1.848156333,3.967000723,2024-06-04 16:18:17.332272
27.37227235,-6.260521412,-3.917948008,4.854438782,2024-06-04 16:18:17.372272
27.41227235,-9.391530037,-5.364708424,4.204189301,2024-06-04 16:18:17.412272
27.45227235,-9.391530037,-5.364708424,4.204189301,2024-06-04 16:18:17.452272
27.49227235,-9.391530037,-5.364708424,4.204189301,2024-06-04 16:18:17.492272
27.53227235,-9.391530037,-5.364708424,4.204189301,2024-06-04 16:18:17.532272
27.57227235,-9.391530037,-5.364708424,4.204189301,2024-06-04 16:18:17.572272
27.61227235,-6.63679266,-6.256932259,3.209971666,2024-06-04 16:18:17.612272
27.61227235,-9.391530037,-5.364708424,4.204189301,2024-06-04 16:18:17.612272
27.69227235,-7.57806921,-8.22383213,2.749951363,2024-06-04 16:18:17.692272
27.73227235,-8.864510536,-9.359226227,4.100998878,2024-06-04 16:18:17.732272
27.77227235,-8.17956543,-7.85234642,3.268595695,2024-06-04 16:18:17.772272
27.81227235,-8.866903305,-9.193822861,1.939083695,2024-06-04 16:18:17.812272
27.85227235,-8.710173607,-8.449056625,3.025425196,2024-06-04 16:18:17.852272
27.85227235,-8.710173607,-8.449056625,3.025425196,2024-06-04 16:18:17.852272
27.93227235,-8.710173607,-8.449056625,3.025425196,2024-06-04 16:18:17.932272
27.97227235,-3.393321514,-8.105088234,1.315155149,2024-06-04 16:18:17.972272
28.01227235,-4.806582451,-7.960322857,2.200200319,2024-06-04 16:18:18.012272
28.05227235,-5.264209747,-6.707380772,2.049452543,2024-06-04 16:18:18.052272
28.09227235,-6.859624386,-6.404389858,2.637488842,2024-06-04 16:18:18.092272
28.13227235,-6.859624386,-6.404389858,2.637488842,2024-06-04 16:18:18.132272
28.17227235,-6.859624386,-6.404389858,2.637488842,2024-06-04 16:18:18.172272
28.21227235,-6.859624386,-6.404389858,2.637488842,2024-06-04 16:18:18.212272
28.25227235,-6.859624386,-6.404389858,2.637488842,2024-06-04 16:18:18.252272
28.29227235,-6.859624386,-6.404389858,2.637488842,2024-06-04 16:18:18.292272
28.33227235,-7.089335442,-6.48933506,2.877070189,2024-06-04 16:18:18.332272
28.37227235,-7.717152119,-6.421139717,3.236292601,2024-06-04 16:18:18.372272
28.41227235,-7.462017536,-5.362315655,3.388535976,2024-06-04 16:18:18.412272
28.45227235,-7.751848221,-5.253442287,3.479463339,2024-06-04 16:18:18.452272
28.49227235,-7.751848221,-5.253442287,3.479463339,2024-06-04 16:18:18.492272
28.53227235,-6.50369215,-4.595715046,4.163511276,2024-06-04 16:18:18.532272
28.57227235,-6.862017155,-4.697709084,4.024428368,2024-06-04 16:18:18.572272
28.61227235,-4.079463482,-3.10947299,3.716651678,2024-06-04 16:18:18.612272
28.65227235,-5.056931496,-3.195614576,3.92991209,2024-06-04 16:18:18.652272
28.69227235,-5.776872158,-2.54656148,4.593322277,2024-06-04 16:18:18.692272
28.73227235,-5.776872158,-2.54656148,4.593322277,2024-06-04 16:18:18.732272
28.77227235,-5.776872158,-2.54656148,4.593322277,2024-06-04 16:18:18.772272
28.81227235,-5.776872158,-2.54656148,4.593322277,2024-06-04 16:18:18.812272
28.85227235,-5.776872158,-2.54656148,4.593322277,2024-06-04 16:18:18.852272
28.89227235,-5.776872158,-2.54656148,4.593322277,2024-06-04 16:18:18.892272
28.93227235,-5.776872158,-2.54656148,4.593322277,2024-06-04 16:18:18.932272
28.97227235,-7.497909546,-4.866403103,4.007678986,2024-06-04 16:18:18.972272
29.01227235,-7.497909546,-4.866403103,4.007678986,2024-06-04 16:18:19.012272
29.05227235,-7.497909546,-4.866403103,4.007678986,2024-06-04 16:18:19.052272
29.09227235,-7.497909546,-4.866403103,4.007678986,2024-06-04 16:18:19.092272
29.13227235,-7.497909546,-4.866403103,4.007678986,2024-06-04 16:18:19.132272
29.17227235,-7.497909546,-4.866403103,4.007678986,2024-06-04 16:18:19.172272
29.21227235,-7.497909546,-4.866403103,4.007678986,2024-06-04 16:18:19.212272
29.25227235,-7.497909546,-4.866403103,4.007678986,2024-06-04 16:18:19.252272
29.29227235,-8.205885887,-8.935098648,3.927519321,2024-06-04 16:18:19.292272
29.33227235,-7.8810606,-8.186743736,3.009871721,2024-06-04 16:18:19.332272
29.37227235,-4.519144535,-6.158826351,2.49481678,2024-06-04 16:18:19.372272
29.41227235,-3.390928745,-6.697809696,1.799103498,2024-06-04 16:18:19.412272
29.45227235,-6.041578293,-7.980661869,2.68175602,2024-06-04 16:18:19.452272
29.49227235,-7.898109436,-6.823432922,2.323729992,2024-06-04 16:18:19.492272
29.53227235,-7.60678339,-6.887141705,3.158525944,2024-06-04 16:18:19.532272
29.57227235,-7.60678339,-6.887141705,3.158525944,2024-06-04 16:18:19.572272
29.61227235,-7.60678339,-6.887141705,3.158525944,2024-06-04 16:18:19.612272
29.65227235,-7.60678339,-6.887141705,3.158525944,2024-06-04 16:18:19.652272
29.69227235,-7.705187798,-5.933601856,3.351447105,2024-06-04 16:18:19.692272
29.73227235,-7.597211838,-5.054538727,3.39212513,2024-06-04 16:18:19.732272
29.77227235,-8.471788406,-6.958926678,4.298706055,2024-06-04 16:18:19.772272
29.81227235,-9.072985649,-6.090631008,4.521537304,2024-06-04 16:18:19.812272
29.85227235,-6.75284481,-5.38624382,3.345465183,2024-06-04 16:18:19.852272
29.89227235,-6.75284481,-5.38624382,3.345465183,2024-06-04 16:18:19.892272
29.93227235,-6.75284481,-5.38624382,3.345465183,2024-06-04 16:18:19.932272
29.97227235,-6.75284481,-5.38624382,3.345465183,2024-06-04 16:18:19.972272
30.01227235,-6.75284481,-5.38624382,3.345465183,2024-06-04 16:18:20.012272
30.05227235,-3.945465326,-1.646860242,3.24466753,2024-06-04 16:18:20.052272
30.05227235,-6.75284481,-1.646860242,3.24466753,2024-06-04 16:18:20.052272
30.13227235,-4.874777794,-2.232503414,3.961018801,2024-06-04 16:18:20.132272
30.17227235,-4.874777794,-2.232503414,3.961018801,2024-06-04 16:18:20.172272
30.21227235,-5.711966991,-4.086641788,3.139383316,2024-06-04 16:18:20.212272
30.25227235,-6.477370739,-4.616054058,3.965804338,2024-06-04 16:18:20.252272
30.29227235,-8.487341881,-5.606682777,3.914358854,2024-06-04 16:18:20.292272
30.33227235,-6.728916168,-5.010271549,4.677071095,2024-06-04 16:18:20.332272
30.37227235,-7.479963779,-5.842674732,4.617250443,2024-06-04 16:18:20.372272
30.41227235,-10.4288187,-9.614361763,3.836292982,2024-06-04 16:18:20.412272
30.45227235,-10.4288187,-9.614361763,3.836292982,2024-06-04 16:18:20.452272
30.49227235,-9.887442589,-8.49332428,2.614757061,2024-06-04 16:18:20.492272
30.53227235,-9.887442589,-8.49332428,2.614757061,2024-06-04 16:18:20.532272
30.57227235,-9.887442589,-8.49332428,2.614757061,2024-06-04 16:18:20.572272
30.61227235,-6.87517786,-8.271688461,2.630310297,2024-06-04 16:18:20.612272
30.65227235,-5.210072041,-7.034300327,3.520141125,2024-06-04 16:18:20.652272
30.69227235,-4.84845686,-7.339684486,1.742872238,2024-06-04 16:18:20.692272
30.73227235,-4.84845686,-7.339684486,1.742872238,2024-06-04 16:18:20.732272
30.77227235,-4.84845686,-7.339684486,1.742872238,2024-06-04 16:18:20.772272
30.81227235,-4.84845686,-7.339684486,1.742872238,2024-06-04 16:18:20.812272
30.85227235,-4.84845686,-7.339684486,1.742872238,2024-06-04 16:18:20.852272
30.89227235,-7.208079338,-7.365108013,2.580060959,2024-06-04 16:18:20.892272
30.93227235,-7.208079338,-7.365108013,2.580060959,2024-06-04 16:18:20.932272
30.97227235,-7.208079338,-7.365108013,2.580060959,2024-06-04 16:18:20.972272
31.01227235,-7.208079338,-7.365108013,2.580060959,2024-06-04 16:18:21.012272
31.05227235,-9.707681656,-4.08424902,3.752544165,2024-06-04 16:18:21.052272
31.09227235,-8.193922043,-4.474877357,2.807379246,2024-06-04 16:18:21.092272
31.13227235,-8.744869232,-4.859224796,3.703491211,2024-06-04 16:18:21.132272
31.17227235,-8.744869232,-4.859224796,3.703491211,2024-06-04 16:18:21.172272
31.21227235,-2.060220242,-0.7414759398,3.51894474,2024-06-04 16:18:21.212272
31.25227235,-5.441278458,-2.853141785,3.944268942,2024-06-04 16:18:21.252272
31.29227235,-5.441278458,-2.853141785,3.944268942,2024-06-04 16:18:21.292272
31.33227235,-5.441278458,-2.853141785,3.944268942,2024-06-04 16:18:21.332272
31.37227235,-5.441278458,-2.853141785,3.944268942,2024-06-04 16:18:21.372272
31.37227235,-6.16121912,-2.823231697,3.479463339,2024-06-04 16:18:21.372272
31.45227235,-8.482556343,-6.352943897,5.068895817,2024-06-04 16:18:21.452272
31.49227235,-6.639185429,-5.102395058,4.323830605,2024-06-04 16:18:21.492272
31.53227235,-6.639185429,-5.102395058,4.323830605,2024-06-04 16:18:21.532272
31.57227235,-6.639185429,-5.102395058,4.323830605,2024-06-04 16:18:21.572272
31.61227235,-6.639185429,-5.102395058,4.323830605,2024-06-04 16:18:21.612272
31.65227235,-6.639185429,-5.102395058,4.323830605,2024-06-04 16:18:21.652272
31.69227235,-6.639185429,-5.102395058,4.323830605,2024-06-04 16:18:21.692272
31.73227235,-6.2401824,-6.5288167,2.437388897,2024-06-04 16:18:21.732272
31.77227235,-6.128916264,-7.294220924,2.940479994,2024-06-04 16:18:21.772272
31.81227235,-6.128916264,-7.294220924,2.940479994,2024-06-04 16:18:21.812272
31.85227235,-6.418746948,-8.081160545,3.265006542,2024-06-04 16:18:21.852272
31.89227235,-7.143472672,-8.318348885,3.563211918,2024-06-04 16:18:21.892272
31.93227235,-7.143472672,-8.318348885,3.563211918,2024-06-04 16:18:21.932272
31.97227235,-7.967501163,-7.645367622,3.763311863,2024-06-04 16:18:21.972272
32.01227235,-9.181859016,-7.016354084,2.678166628,2024-06-04 16:18:22.012272
32.05227235,-7.432106972,-6.683452606,2.44935298,2024-06-04 16:18:22.052272
32.09227235,-7.432106972,-6.683452606,2.44935298,2024-06-04 16:18:22.092272
32.13227235,-7.432106972,-6.683452606,2.44935298,2024-06-04 16:18:22.132272
32.17227235,-8.710173607,-6.57218647,3.496212959,2024-06-04 16:18:22.172272
32.21227235,-7.18534708,-5.610271931,3.526123285,2024-06-04 16:18:22.212272
32.25227235,-7.035496712,-5.652146339,2.651845694,2024-06-04 16:18:22.252272
32.29227235,-7.035496712,-5.652146339,2.651845694,2024-06-04 16:18:22.292272
32.33227235,-7.035496712,-5.652146339,2.651845694,2024-06-04 16:18:22.332272
32.37227235,-7.035496712,-5.652146339,2.651845694,2024-06-04 16:18:22.372272
32.41227235,-4.102195263,-1.927119493,3.172882795,2024-06-04 16:18:22.412272
32.45227235,-4.102195263,-1.927119493,3.172882795,2024-06-04 16:18:22.452272
32.49227235,-4.102195263,-1.927119493,3.172882795,2024-06-04 16:18:22.492272
32.53227235,-4.102195263,-1.927119493,3.172882795,2024-06-04 16:18:22.532272
32.57227235,-4.102195263,-1.927119493,3.172882795,2024-06-04 16:18:22.572272
32.61227235,-4.102195263,-1.927119493,3.172882795,2024-06-04 16:18:22.612272
32.65227235,-9.141180992,-5.365904808,4.743172646,2024-06-04 16:18:22.652272
32.69227235,-8.85733223,-6.718148708,4.321437836,2024-06-04 16:18:22.692272
32.73227235,-8.85733223,-6.718148708,4.321437836,2024-06-04 16:18:22.732272
32.77227235,-8.85733223,-6.718148708,4.321437836,2024-06-04 16:18:22.772272
32.81227235,-8.85733223,-6.718148708,4.321437836,2024-06-04 16:18:22.812272
32.85227235,-8.85733223,-6.718148708,4.321437836,2024-06-04 16:18:22.852272
32.89227235,-8.191529274,-6.801897526,3.55244422,2024-06-04 16:18:22.892272
32.93227235,-8.191529274,-6.801897526,3.55244422,2024-06-04 16:18:22.932272
32.97227235,-8.191529274,-6.801897526,3.55244422,2024-06-04 16:18:22.972272
33.01227235,-8.191529274,-6.801897526,3.55244422,2024-06-04 16:18:23.012272
33.05227235,-7.348059177,-7.299006462,3.448356628,2024-06-04 16:18:23.052272
33.09227235,-8.653642654,-7.371089935,2.831606388,2024-06-04 16:18:23.092272
33.13227235,-8.196314812,-7.226025105,2.506780863,2024-06-04 16:18:23.132272
33.17227235,-8.196314812,-7.226025105,2.506780863,2024-06-04 16:18:23.172272
33.21227235,-8.196314812,-7.226025105,2.506780863,2024-06-04 16:18:23.212272
33.25227235,-8.196314812,-7.226025105,2.506780863,2024-06-04 16:18:23.252272
33.29227235,-8.196314812,-7.226025105,2.506780863,2024-06-04 16:18:23.292272
33.33227235,-8.196314812,-7.226025105,2.506780863,2024-06-04 16:18:23.332272
33.37227235,-8.196314812,-7.226025105,2.506780863,2024-06-04 16:18:23.372272
33.41227235,-3.695116282,-2.606382132,3.884448528,2024-06-04 16:18:23.412272
33.45227235,-3.695116282,-2.606382132,3.884448528,2024-06-04 16:18:23.452272
33.49227235,-5.655735493,-1.492523074,3.270988464,2024-06-04 16:18:23.492272
33.53227235,-5.289334297,-0.4049852192,3.947858334,2024-06-04 16:18:23.532272
33.57227235,-5.289334297,-0.4049852192,3.947858334,2024-06-04 16:18:23.572272
33.61227235,-4.161118507,-1.992922187,3.468695641,2024-06-04 16:18:23.612272
33.65227235,-5.574379444,-3.516551971,3.30927372,2024-06-04 16:18:23.652272
33.69227235,-6.699006081,-5.770890236,3.588336706,2024-06-04 16:18:23.692272
33.73227235,-8.130212784,-7.381857872,4.507180691,2024-06-04 16:18:23.732272
33.77227235,-8.130212784,-7.381857872,4.507180691,2024-06-04 16:18:23.772272
33.81227235,-8.130212784,-7.381857872,4.507180691,2024-06-04 16:18:23.812272
33.85227235,-7.991429329,-8.573483467,3.248256683,2024-06-04 16:18:23.852272
33.89227235,-8.502895355,-7.966304779,2.615953445,2024-06-04 16:18:23.892272
33.93227235,-8.502895355,-7.966304779,2.615953445,2024-06-04 16:18:23.932272
33.97227235,-8.860920906,-8.372187614,3.774079561,2024-06-04 16:18:23.972272
34.01227235,-6.812664986,-7.600800991,3.512962818,2024-06-04 16:18:24.012272
34.05227235,-5.402993679,-6.873981476,3.428017616,2024-06-04 16:18:24.052272
34.09227235,-5.402993679,-6.873981476,3.428017616,2024-06-04 16:18:24.092272
34.13227235,-5.402993679,-6.873981476,3.428017616,2024-06-04 16:18:24.132272
34.17227235,-7.883453369,-7.816454411,2.863909483,2024-06-04 16:18:24.172272
34.21227235,-7.883453369,-7.816454411,2.863909483,2024-06-04 16:18:24.212272
34.25227235,-7.883453369,-7.816454411,2.863909483,2024-06-04 16:18:24.252272
34.29227235,-7.883453369,-7.816454411,2.863909483,2024-06-04 16:18:24.292272
34.33227235,-8.362615585,-6.25453949,3.009871721,2024-06-04 16:18:24.332272
34.37227235,-9.01675415,-5.895316601,2.151147604,2024-06-04 16:18:24.372272
34.41227235,-8.953044891,-6.010172367,2.728415966,2024-06-04 16:18:24.412272
34.45227235,-8.953044891,-6.010172367,2.728415966,2024-06-04 16:18:24.452272
34.49227235,-3.128615618,-1.750050664,3.186043262,2024-06-04 16:18:24.492272
34.53227235,-3.212364435,-1.718644857,2.581257343,2024-06-04 16:18:24.532272
34.57227235,-3.212364435,-1.718644857,2.581257343,2024-06-04 16:18:24.572272
34.61227235,-4.087838173,-2.092523336,3.959822416,2024-06-04 16:18:24.612272
34.65227235,-4.087838173,-2.092523336,3.959822416,2024-06-04 16:18:24.652272
34.69227235,-4.087838173,-2.092523336,3.959822416,2024-06-04 16:18:24.692272
34.73227235,-4.087838173,-2.092523336,3.959822416,2024-06-04 16:18:24.732272
34.77227235,-8.190332413,-6.463014126,3.619742393,2024-06-04 16:18:24.772272
34.81227235,-6.370890141,-6.53958416,3.941876173,2024-06-04 16:18:24.812272
34.85227235,-6.370890141,-6.53958416,3.941876173,2024-06-04 16:18:24.852272
34.89227235,-6.370890141,-6.53958416,3.941876173,2024-06-04 16:18:24.892272
34.93227235,-6.370890141,-6.53958416,3.941876173,2024-06-04 16:18:24.932272
34.97227235,-6.370890141,-6.53958416,3.941876173,2024-06-04 16:18:24.972272
35.01227235,-6.370890141,-6.53958416,3.941876173,2024-06-04 16:18:25.012272
35.05227235,-7.265506744,-6.943373203,0.9882357717,2024-06-04 16:18:25.052272
35.09227235,-7.265506744,-6.943373203,0.9882357717,2024-06-04 16:18:25.092272
35.13227235,-5.078466892,-8.412865639,3.014657497,2024-06-04 16:18:25.132272
35.17227235,-5.078466892,-8.412865639,3.014657497,2024-06-04 16:18:25.172272
35.21227235,-8.472985268,-7.495516777,3.259024382,2024-06-04 16:18:25.212272
35.25227235,-8.682356834,-6.703791618,2.332104683,2024-06-04 16:18:25.252272
35.29227235,-9.574879646,-7.77936554,3.882055521,2024-06-04 16:18:25.292272
35.33227235,-7.864310741,-7.41535759,2.072184324,2024-06-04 16:18:25.332272
35.37227235,-8.866903305,-6.913462639,3.196810961,2024-06-04 16:18:25.372272
35.41227235,-7.623532772,-6.087041855,3.346661568,2024-06-04 16:18:25.412272
35.45227235,-7.623532772,-6.087041855,3.346661568,2024-06-04 16:18:25.452272
35.49227235,-7.623532772,-6.087041855,3.346661568,2024-06-04 16:18:25.492272
35.53227235,-5.260620594,-3.772883177,2.757129908,2024-06-04 16:18:25.532272
35.53227235,-5.260620594,-3.772883177,2.757129908,2024-06-04 16:18:25.532272
35.61227235,-5.260620594,-3.772883177,2.757129908,2024-06-04 16:18:25.612272
35.61227235,-3.619742393,-0.9329017401,3.242274761,2024-06-04 16:18:25.612272
35.69227235,-3.619742393,-0.9329017401,3.242274761,2024-06-04 16:18:25.692272
35.73227235,-3.619742393,-0.9329017401,3.242274761,2024-06-04 16:18:25.732272
35.77227235,-3.619742393,-0.9329017401,3.242274761,2024-06-04 16:18:25.772272
35.81227235,-3.619742393,-0.9329017401,3.242274761,2024-06-04 16:18:25.812272
35.85227235,-3.619742393,-0.9329017401,3.242274761,2024-06-04 16:18:25.852272
35.89227235,-3.619742393,-0.9329017401,3.242274761,2024-06-04 16:18:25.892272
35.93227235,-8.166404724,-8.525627136,2.582453728,2024-06-04 16:18:25.932272
35.97227235,-8.166404724,-8.525627136,2.582453728,2024-06-04 16:18:25.972272
36.01227235,-8.166404724,-8.525627136,2.582453728,2024-06-04 16:18:26.012272
36.05227235,-8.615358353,-7.806882858,3.485445261,2024-06-04 16:18:26.052272
36.09227235,-7.943572998,-8.801100731,4.151547432,2024-06-04 16:18:26.092272
36.13227235,-5.939583778,-7.100401878,3.600300789,2024-06-04 16:18:26.132272
36.17227235,-4.61126852,-6.862017155,2.255235434,2024-06-04 16:18:26.172272
36.21227235,-4.967200756,-7.980661869,2.305783749,2024-06-04 16:18:26.212272
36.25227235,-7.817650795,-8.196314812,3.429214001,2024-06-04 16:18:26.252272
36.29227235,-7.817650795,-8.196314812,3.429214001,2024-06-04 16:18:26.292272
36.33227235,-7.817650795,-8.196314812,3.429214001,2024-06-04 16:18:26.332272
36.37227235,-8.038089752,-6.575775623,2.496013165,2024-06-04 16:18:26.372272
36.41227235,-7.662117004,-6.370890141,3.675973892,2024-06-04 16:18:26.412272
36.45227235,-7.662117004,-6.370890141,3.675973892,2024-06-04 16:18:26.452272
36.49227235,-7.662117004,-6.370890141,3.675973892,2024-06-04 16:18:26.492272
36.53227235,-7.662117004,-6.370890141,3.675973892,2024-06-04 16:18:26.532272
36.57227235,-7.662117004,-6.370890141,3.675973892,2024-06-04 16:18:26.572272
36.61227235,-7.662117004,-6.370890141,3.675973892,2024-06-04 16:18:26.612272
36.65227235,-7.662117004,-6.370890141,3.675973892,2024-06-04 16:18:26.652272
36.69227235,-3.322434187,-1.221835017,3.595515013,2024-06-04 16:18:26.692272
36.73227235,-3.40648222,-2.566900492,3.640081406,2024-06-04 16:18:26.732272
36.77227235,-3.40648222,-2.566900492,3.640081406,2024-06-04 16:18:26.772272
36.81227235,-3.40648222,-2.566900492,3.640081406,2024-06-04 16:18:26.812272
36.85227235,-8.365009308,-6.325426579,4.41625309,2024-06-04 16:18:26.852272
36.89227235,-7.726723194,-6.358926296,3.635295868,2024-06-04 16:18:26.892272
36.93227235,-10.15693378,-8.125427246,3.068495989,2024-06-04 16:18:26.932272
36.97227235,-9.340084076,-10.0142622,3.009871721,2024-06-04 16:18:26.972272
37.01227235,-9.340084076,-10.0142622,3.009871721,2024-06-04 16:18:27.012272
37.05227235,-8.584251404,-7.941180229,2.73798728,2024-06-04 16:18:27.052272
37.09227235,-9.021539688,-7.657331467,3.587140322,2024-06-04 16:18:27.092272
37.13227235,-9.051449776,-7.846364498,4.17069006,2024-06-04 16:18:27.132272
37.17227235,-7.77936554,-7.89182806,3.30927372,2024-06-04 16:18:27.172272
37.21227235,-4.844867706,-6.76361227,1.864906192,2024-06-04 16:18:27.212272
37.25227235,-4.844867706,-6.76361227,1.864906192,2024-06-04 16:18:27.252272
37.29227235,-4.844867706,-6.76361227,1.864906192,2024-06-04 16:18:27.292272
37.33227235,-4.844867706,-6.76361227,1.864906192,2024-06-04 16:18:27.332272
37.37227235,-4.844867706,-6.76361227,1.864906192,2024-06-04 16:18:27.372272
37.41227235,-4.844867706,-6.76361227,1.864906192,2024-06-04 16:18:27.412272
37.45227235,-4.844867706,-6.76361227,1.864906192,2024-06-04 16:18:27.452272
37.49227235,-10.57388306,-7.794919014,3.520141125,2024-06-04 16:18:27.492272
37.53227235,-10.57388306,-7.794919014,3.520141125,2024-06-04 16:18:27.532272
37.57227235,-10.57388306,-7.794919014,3.520141125,2024-06-04 16:18:27.572272
37.61227235,-10.57388306,-7.794919014,3.520141125,2024-06-04 16:18:27.612272
37.65227235,-5.073681355,-0.774975419,2.881855726,2024-06-04 16:18:27.652272
37.69227235,-4.011268139,-1.034895778,3.103491068,2024-06-04 16:18:27.692272
37.73227235,-3.975375652,-0.9762716293,3.097508907,2024-06-04 16:18:27.732272
37.73227235,-3.975375652,-0.9762716293,3.097508907,2024-06-04 16:18:27.732272
37.81227235,-3.975375652,-0.9762716293,3.097508907,2024-06-04 16:18:27.812272
37.85227235,-8.577073097,-6.483353138,4.128516197,2024-06-04 16:18:27.852272
37.89227235,-8.657232285,-7.035496712,3.388535976,2024-06-04 16:18:27.892272
37.93227235,-8.701798439,-9.45613575,2.02073884,2024-06-04 16:18:27.932272
37.97227235,-9.138788223,-9.371191025,3.341576815,2024-06-04 16:18:27.972272
38.01227235,-9.138788223,-9.371191025,3.341576815,2024-06-04 16:18:28.012272
38.05227235,-7.291827679,-7.496713161,2.923730135,2024-06-04 16:18:28.052272
38.09227235,-7.291827679,-7.496713161,2.923730135,2024-06-04 16:18:28.092272
38.13227235,-7.291827679,-7.496713161,2.923730135,2024-06-04 16:18:28.132272
38.17227235,-7.291827679,-7.496713161,2.923730135,2024-06-04 16:18:28.172272
38.21227235,-7.291827679,-7.496713161,2.923730135,2024-06-04 16:18:28.212272
38.25227235,-7.834400654,-7.172186852,3.273381472,2024-06-04 16:18:28.252272
38.29227235,-10.11147022,-8.028517723,3.061317444,2024-06-04 16:18:28.292272
38.33227235,-10.11147022,-8.028517723,3.061317444,2024-06-04 16:18:28.332272
38.37227235,-10.11147022,-8.028517723,3.061317444,2024-06-04 16:18:28.372272
38.41227235,-10.11147022,-8.028517723,3.061317444,2024-06-04 16:18:28.412272
38.45227235,-7.647760391,-6.419943333,3.054138899,2024-06-04 16:18:28.452272
38.49227235,-8.863314629,-5.816353798,2.791825771,2024-06-04 16:18:28.492272
38.53227235,-7.27866745,-5.998208046,1.258923769,2024-06-04 16:18:28.532272
38.57227235,-7.27866745,-5.998208046,1.258923769,2024-06-04 16:18:28.572272
38.61227235,-7.27866745,-5.998208046,1.258923769,2024-06-04 16:18:28.612272
38.65227235,-5.340780258,-1.873281002,3.824328899,2024-06-04 16:18:28.652272
38.69227235,-3.247060299,-0.9511470199,3.328416348,2024-06-04 16:18:28.692272
38.73227235,-3.293720484,-1.534397483,3.345465183,2024-06-04 16:18:28.732272
38.77227235,-4.194618225,-2.759522676,2.836392164,2024-06-04 16:18:28.772272
38.81227235,-5.809175014,-3.945465326,2.227717876,2024-06-04 16:18:28.812272
38.85227235,-5.809175014,-3.945465326,2.227717876,2024-06-04 16:18:28.852272
38.89227235,-5.809175014,-3.945465326,2.227717876,2024-06-04 16:18:28.892272
38.93227235,-5.809175014,-3.945465326,2.227717876,2024-06-04 16:18:28.932272
38.97227235,-5.809175014,-3.945465326,2.227717876,2024-06-04 16:18:28.972272
39.01227235,-8.345866203,-8.956634521,3.052942514,2024-06-04 16:18:29.012272
39.05227235,-9.397511482,-7.893024445,3.73699069,2024-06-04 16:18:29.052272
39.09227235,-7.763812065,-7.430910587,3.371786118,2024-06-04 16:18:29.092272
39.13227235,-7.763812065,-7.430910587,3.371786118,2024-06-04 16:18:29.132272
39.17227235,-7.763812065,-7.430910587,3.371786118,2024-06-04 16:18:29.172272
39.21227235,-7.763812065,-7.430910587,3.371786118,2024-06-04 16:18:29.212272
39.25227235,-7.763812065,-7.430910587,3.371786118,2024-06-04 16:18:29.252272
39.29227235,-6.675077915,-7.908876896,2.87467742,2024-06-04 16:18:29.292272
39.33227235,-9.975976944,-8.33150959,3.742972851,2024-06-04 16:18:29.332272
39.37227235,-9.975976944,-8.33150959,3.742972851,2024-06-04 16:18:29.372272
39.41227235,-9.975976944,-8.33150959,3.742972851,2024-06-04 16:18:29.412272
39.45227235,-9.975976944,-8.33150959,3.742972851,2024-06-04 16:18:29.452272
39.49227235,-8.752047539,-4.564608097,2.839981318,2024-06-04 16:18:29.492272
39.53227235,-7.232007504,-3.359822035,1.067198873,2024-06-04 16:18:29.532272
39.57227235,-7.232007504,-3.359822035,1.067198873,2024-06-04 16:18:29.572272
39.61227235,-2.073380709,-0.4145565331,2.280659199,2024-06-04 16:18:29.612272
39.65227235,-3.940679789,-0.6095715761,3.958626032,2024-06-04 16:18:29.652272
39.69227235,-3.940679789,-0.6095715761,3.958626032,2024-06-04 16:18:29.692272
39.73227235,-3.940679789,-0.6095715761,3.958626032,2024-06-04 16:18:29.732272
39.77227235,-3.940679789,-0.6095715761,3.958626032,2024-06-04 16:18:29.772272
39.81227235,-3.940679789,-0.6095715761,3.958626032,2024-06-04 16:18:29.812272
39.85227235,-8.551948547,-5.927619934,3.510569811,2024-06-04 16:18:29.852272
39.85227235,-8.551948547,-5.927619934,3.510569811,2024-06-04 16:18:29.852272
39.93227235,-8.551948547,-5.927619934,3.510569811,2024-06-04 16:18:29.932272
39.97227235,-8.551948547,-5.927619934,3.510569811,2024-06-04 16:18:29.972272
40.01227235,-8.551948547,-5.927619934,3.510569811,2024-06-04 16:18:30.012272
40.05227235,-8.551948547,-5.927619934,3.510569811,2024-06-04 16:18:30.052272
40.09227235,-8.551948547,-5.927619934,3.510569811,2024-06-04 16:18:30.092272
40.13227235,-8.519644737,-7.863114357,3.21356082,2024-06-04 16:18:30.132272
40.17227235,-7.48833847,-7.373483181,3.089133978,2024-06-04 16:18:30.172272
40.21227235,-7.48833847,-7.373483181,3.089133978,2024-06-04 16:18:30.212272
40.25227235,-7.368697166,-6.938587666,3.145365477,2024-06-04 16:18:30.252272
40.29227235,-7.368697166,-6.938587666,3.145365477,2024-06-04 16:18:30.292272
40.33227235,-9.102895737,-7.07737112,2.954836845,2024-06-04 16:18:30.332272
40.37227235,-9.999904633,-8.397312164,3.626920938,2024-06-04 16:18:30.372272
40.41227235,-10.05404282,-8.663214684,2.741576433,2024-06-04 16:18:30.412272
40.45227235,-9.031110764,-6.72413063,3.138186932,2024-06-04 16:18:30.452272
40.49227235,-7.433303356,-4.82333231,3.49382019,2024-06-04 16:18:30.492272
40.53227235,-7.939983845,-5.613861084,2.14995122,2024-06-04 16:18:30.532272
40.57227235,-7.939983845,-5.613861084,2.14995122,2024-06-04 16:18:30.572272
40.61227235,-7.939983845,-5.613861084,2.14995122,2024-06-04 16:18:30.612272
40.65227235,-7.939983845,-5.613861084,2.14995122,2024-06-04 16:18:30.652272
40.69227235,-7.939983845,-5.613861084,2.14995122,2024-06-04 16:18:30.692272
40.73227235,-7.939983845,-5.613861084,2.14995122,2024-06-04 16:18:30.732272
40.77227235,-7.939983845,-5.613861084,2.14995122,2024-06-04 16:18:30.772272
40.81227235,-7.939983845,-5.613861084,2.14995122,2024-06-04 16:18:30.812272
40.85227235,-8.920742035,-6.261717796,3.17407918,2024-06-04 16:18:30.852272
40.89227235,-8.920742035,-6.261717796,3.17407918,2024-06-04 16:18:30.892272
40.93227235,-8.539983749,-8.646464348,2.589632273,2024-06-04 16:18:30.932272
40.93227235,-8.539983749,-8.646464348,2.589632273,2024-06-04 16:18:30.932272
41.01227235,-7.669295788,-7.53858757,2.923730135,2024-06-04 16:18:31.012272
41.05227235,-10.48504925,-8.705388069,3.927519321,2024-06-04 16:18:31.052272
41.09227235,-8.601000786,-7.957930088,3.677170277,2024-06-04 16:18:31.092272
41.13227235,-8.14696312,-8.319544792,3.372982502,2024-06-04 16:18:31.132272
41.17227235,-8.14696312,-8.319544792,3.372982502,2024-06-04 16:18:31.172272
41.21227235,-5.297709465,-7.153044224,2.796611547,2024-06-04 16:18:31.212272
41.25227235,-7.065407276,-6.727719784,3.351447105,2024-06-04 16:18:31.252272
41.29227235,-7.065407276,-6.727719784,3.351447105,2024-06-04 16:18:31.292272
41.33227235,-10.03609657,-6.952944279,3.880859137,2024-06-04 16:18:31.332272
41.37227235,-10.14975548,-7.953144073,3.575176239,2024-06-04 16:18:31.372272
41.41227235,-10.14975548,-7.953144073,3.575176239,2024-06-04 16:18:31.412272
41.45227235,-10.14975548,-7.953144073,3.575176239,2024-06-04 16:18:31.452272
41.49227235,-10.14975548,-7.953144073,3.575176239,2024-06-04 16:18:31.492272
41.53227235,-10.14975548,-7.953144073,3.575176239,2024-06-04 16:18:31.532272
41.57227235,-10.14975548,-7.953144073,3.575176239,2024-06-04 16:18:31.572272
41.61227235,-10.14975548,-7.953144073,3.575176239,2024-06-04 16:18:31.612272
41.65227235,-10.14975548,-7.953144073,3.575176239,2024-06-04 16:18:31.652272
41.69227235,-10.14975548,-7.953144073,3.575176239,2024-06-04 16:18:31.692272
41.73227235,-10.14975548,-7.953144073,3.575176239,2024-06-04 16:18:31.732272
41.77227235,-5.71077013,-2.632703066,2.702095032,2024-06-04 16:18:31.772272
41.81227235,-5.888138294,-3.605086327,3.389732361,2024-06-04 16:18:31.812272
41.85227235,-5.888138294,-3.605086327,3.389732361,2024-06-04 16:18:31.852272
41.89227235,-9.330513,-6.819843769,3.251846075,2024-06-04 16:18:31.892272
41.93227235,-9.80608654,-8.773583412,3.242274761,2024-06-04 16:18:31.932272
41.97227235,-7.226025105,-7.332505703,3.378964663,2024-06-04 16:18:31.972272
42.01227235,-7.500302792,-8.32791996,2.787040234,2024-06-04 16:18:32.012272
42.05227235,-8.392526627,-7.525427341,3.867399693,2024-06-04 16:18:32.052272
42.09227235,-8.556734085,-7.18534708,3.697509289,2024-06-04 16:18:32.092272
42.13227235,-8.556734085,-7.18534708,3.697509289,2024-06-04 16:18:32.132272
42.17227235,-8.556734085,-7.18534708,3.697509289,2024-06-04 16:18:32.172272
42.21227235,-7.034300327,-7.507481098,3.1405797,2024-06-04 16:18:32.212272
42.25227235,-6.291927338,-6.726523399,2.883052111,2024-06-04 16:18:32.252272
42.29227235,-7.396214962,-6.416353703,3.046960592,2024-06-04 16:18:32.292272
42.33227235,-7.396214962,-6.416353703,3.046960592,2024-06-04 16:18:32.332272
42.37227235,-7.396214962,-6.416353703,3.046960592,2024-06-04 16:18:32.372272
42.41227235,-7.396214962,-6.416353703,3.046960592,2024-06-04 16:18:32.412272
42.45227235,-7.396214962,-6.416353703,3.046960592,2024-06-04 16:18:32.452272
42.49227235,-7.396214962,-6.416353703,3.046960592,2024-06-04 16:18:32.492272
42.53227235,-6.163611889,-4.740779877,2.173879385,2024-06-04 16:18:32.532272
42.53227235,-6.163611889,-4.740779877,2.173879385,2024-06-04 16:18:32.532272
42.61227235,-6.163611889,-4.740779877,2.173879385,2024-06-04 16:18:32.612272
42.65227235,-4.488038063,-1.715055585,4.37288332,2024-06-04 16:18:32.652272
42.69227235,-2.691327333,-1.116251707,3.950251102,2024-06-04 16:18:32.692272
42.73227235,-3.637688637,-1.409671664,3.182454109,2024-06-04 16:18:32.732272
42.77227235,-5.199304581,-2.467299223,3.083152056,2024-06-04 16:18:32.772272
42.81227235,-7.064210415,-3.896412611,3.677170277,2024-06-04 16:18:32.812272
42.81227235,-7.064210415,-3.896412611,3.677170277,2024-06-04 16:18:32.812272
42.89227235,-7.064210415,-3.896412611,3.677170277,2024-06-04 16:18:32.892272
42.93227235,-7.064210415,-3.896412611,3.677170277,2024-06-04 16:18:32.932272
42.97227235,-7.190133095,-7.308577538,3.030210733,2024-06-04 16:18:32.972272
43.01227235,-9.337691307,-6.701398849,2.342872381,2024-06-04 16:18:33.012272
43.05227235,-8.402097702,-7.518248558,3.450749397,2024-06-04 16:18:33.052272
43.09227235,-9.283852577,-8.453842163,3.710669756,2024-06-04 16:18:33.092272
43.13227235,-9.283852577,-8.453842163,3.710669756,2024-06-04 16:18:33.132272
43.17227235,-9.283852577,-8.453842163,3.710669756,2024-06-04 16:18:33.172272
43.21227235,-9.283852577,-8.453842163,3.710669756,2024-06-04 16:18:33.212272
43.25227235,-9.283852577,-8.453842163,3.710669756,2024-06-04 16:18:33.252272
43.29227235,-9.283852577,-8.453842163,3.710669756,2024-06-04 16:18:33.292272
43.33227235,-9.283852577,-8.453842163,3.710669756,2024-06-04 16:18:33.332272
43.37227235,-9.283852577,-8.453842163,3.710669756,2024-06-04 16:18:33.372272
43.41227235,-9.337691307,-6.829713821,3.637688637,2024-06-04 16:18:33.412272
43.45227235,-8.43948555,-6.549155712,4.256831646,2024-06-04 16:18:33.452272
43.49227235,-7.66451025,-5.688038349,2.984747171,2024-06-04 16:18:33.492272
43.53227235,-6.520441532,-3.952643871,2.607578516,2024-06-04 16:18:33.532272
43.57227235,-6.520441532,-3.952643871,2.607578516,2024-06-04 16:18:33.572272
43.61227235,-3.101098061,-1.832603097,3.320041418,2024-06-04 16:18:33.612272
43.65227235,-3.101098061,-1.832603097,3.320041418,2024-06-04 16:18:33.652272
43.69227235,-3.101098061,-1.832603097,3.320041418,2024-06-04 16:18:33.692272
43.73227235,-3.101098061,-1.832603097,3.320041418,2024-06-04 16:18:33.732272
43.73227235,-2.875873804,-0.8539385796,3.425624609,2024-06-04 16:18:33.732272
43.81227235,-5.54805851,-3.748954773,3.739383698,2024-06-04 16:18:33.812272
43.85227235,-7.540980339,-5.728716373,4.03399992,2024-06-04 16:18:33.852272
43.89227235,-7.540980339,-5.728716373,4.03399992,2024-06-04 16:18:33.892272
43.93227235,-7.540980339,-5.728716373,4.03399992,2024-06-04 16:18:33.932272
43.97227235,-7.540980339,-5.728716373,4.03399992,2024-06-04 16:18:33.972272
44.01227235,-7.540980339,-5.728716373,4.03399992,2024-06-04 16:18:34.012272
44.05227235,-7.086942673,-7.02951479,3.668795347,2024-06-04 16:18:34.052272
44.09227235,-7.086942673,-7.02951479,3.668795347,2024-06-04 16:18:34.092272
44.13227235,-7.086942673,-7.02951479,3.668795347,2024-06-04 16:18:34.132272
44.17227235,-7.086942673,-7.02951479,3.668795347,2024-06-04 16:18:34.172272
44.21227235,-7.086942673,-7.02951479,3.668795347,2024-06-04 16:18:34.212272
44.25227235,-5.034199715,-7.007979393,2.38474679,2024-06-04 16:18:34.252272
44.29227235,-8.722137451,-7.622336388,3.947858334,2024-06-04 16:18:34.292272
44.33227235,-9.319745064,-6.300302029,3.860221148,2024-06-04 16:18:34.332272
44.37227235,-10.78804111,-8.300402641,3.176471949,2024-06-04 16:18:34.372272
44.41227235,-10.78804111,-8.300402641,3.176471949,2024-06-04 16:18:34.412272
44.45227235,-10.78804111,-8.300402641,3.176471949,2024-06-04 16:18:34.452272
44.49227235,-7.068996429,-5.289334297,2.869891644,2024-06-04 16:18:34.492272
44.53227235,-5.464010715,-3.374179125,2.524727106,2024-06-04 16:18:34.532272
44.57227235,-5.464010715,-3.374179125,2.524727106,2024-06-04 16:18:34.572272
44.61227235,-5.102395058,-1.60977149,2.944069147,2024-06-04 16:18:34.612272
44.65227235,-5.102395058,-1.60977149,2.944069147,2024-06-04 16:18:34.652272
44.69227235,-5.102395058,-1.60977149,2.944069147,2024-06-04 16:18:34.692272
44.73227235,-5.102395058,-1.60977149,2.944069147,2024-06-04 16:18:34.732272
44.77227235,-5.102395058,-1.60977149,2.944069147,2024-06-04 16:18:34.772272
44.81227235,-5.102395058,-1.60977149,2.944069147,2024-06-04 16:18:34.812272
44.85227235,-5.102395058,-1.60977149,2.944069147,2024-06-04 16:18:34.852272
44.89227235,-5.102395058,-1.60977149,2.944069147,2024-06-04 16:18:34.892272
44.93227235,-5.102395058,-1.60977149,2.944069147,2024-06-04 16:18:34.932272
44.97227235,-5.102395058,-1.60977149,2.944069147,2024-06-04 16:18:34.972272
45.01227235,-5.102395058,-1.60977149,2.944069147,2024-06-04 16:18:35.012272
45.05227235,-9.034700394,-7.977072716,4.067499161,2024-06-04 16:18:35.052272
45.09227235,-9.637093544,-7.572087288,3.618546009,2024-06-04 16:18:35.092272
45.13227235,-8.162815094,-7.731509209,3.382553816,2024-06-04 16:18:35.132272
45.17227235,-6.709774017,-7.235596657,2.952444077,2024-06-04 16:18:35.172272
45.21227235,-6.746862411,-6.416353703,3.16570425,2024-06-04 16:18:35.212272
45.25227235,-6.740880489,-7.31814909,3.405285835,2024-06-04 16:18:35.252272
45.29227235,-8.634500504,-6.862017155,3.388535976,2024-06-04 16:18:35.292272
45.33227235,-9.212965012,-6.6260252,3.661616802,2024-06-04 16:18:35.332272
45.37227235,-9.212965012,-6.6260252,3.661616802,2024-06-04 16:18:35.372272
45.41227235,-9.212965012,-6.6260252,3.661616802,2024-06-04 16:18:35.412272
45.45227235,-9.212965012,-6.6260252,3.661616802,2024-06-04 16:18:35.452272
45.49227235,-9.212965012,-6.6260252,3.661616802,2024-06-04 16:18:35.492272
45.53227235,-9.212965012,-6.6260252,3.661616802,2024-06-04 16:18:35.532272
45.57227235,-9.212965012,-6.6260252,3.661616802,2024-06-04 16:18:35.572272
45.61227235,-9.212965012,-6.6260252,3.661616802,2024-06-04 16:18:35.612272
45.65227235,-9.212965012,-6.6260252,3.661616802,2024-06-04 16:18:35.652272
45.69227235,-9.212965012,-6.6260252,3.661616802,2024-06-04 16:18:35.692272
45.73227235,-9.212965012,-6.6260252,3.661616802,2024-06-04 16:18:35.732272
45.77227235,-9.212965012,-6.6260252,3.661616802,2024-06-04 16:18:35.772272
45.81227235,-7.968697548,-5.288137913,3.885644913,2024-06-04 16:18:35.812272
45.85227235,-8.48973465,-6.29790926,3.687937975,2024-06-04 16:18:35.852272
45.89227235,-8.559126854,-7.203293324,3.172882795,2024-06-04 16:18:35.892272
45.93227235,-8.117053032,-7.652545929,3.263810158,2024-06-04 16:18:35.932272
45.97227235,-7.77936554,-7.6896348,3.908376694,2024-06-04 16:18:35.972272
46.01227235,-9.131608963,-8.872885704,3.163311481,2024-06-04 16:18:36.012272
46.05227235,-8.659625053,-7.975875854,4.738387108,2024-06-04 16:18:36.052272
46.09227235,-9.676574707,-7.690831184,3.97776866,2024-06-04 16:18:36.092272
46.13227235,-7.339684486,-7.424928665,3.168097258,2024-06-04 16:18:36.132272
46.17227235,-7.339684486,-7.424928665,3.168097258,2024-06-04 16:18:36.172272
46.21227235,-7.339684486,-7.424928665,3.168097258,2024-06-04 16:18:36.212272
46.25227235,-7.339684486,-7.424928665,3.168097258,2024-06-04 16:18:36.252272
46.29227235,-8.524430275,-6.603293419,3.647259951,2024-06-04 16:18:36.292272
46.33227235,-9.548559189,-7.247560501,3.517748356,2024-06-04 16:18:36.332272
46.37227235,-9.548559189,-7.247560501,3.517748356,2024-06-04 16:18:36.372272
46.41227235,-9.548559189,-7.247560501,3.517748356,2024-06-04 16:18:36.412272
46.45227235,-9.548559189,-7.247560501,3.517748356,2024-06-04 16:18:36.452272
46.49227235,-9.548559189,-7.247560501,3.517748356,2024-06-04 16:18:36.492272
46.53227235,-9.548559189,-7.247560501,3.517748356,2024-06-04 16:18:36.532272
46.57227235,-9.548559189,-7.247560501,3.517748356,2024-06-04 16:18:36.572272
46.61227235,-3.195614576,-1.174875975,2.994318485,2024-06-04 16:18:36.612272
46.65227235,-3.195614576,-1.174875975,2.994318485,2024-06-04 16:18:36.652272
46.69227235,-3.195614576,-1.174875975,2.994318485,2024-06-04 16:18:36.692272
46.73227235,-3.195614576,-1.174875975,2.994318485,2024-06-04 16:18:36.732272
46.77227235,-3.195614576,-1.174875975,2.994318485,2024-06-04 16:18:36.772272
46.81227235,-6.107380867,-3.481856108,3.685544968,2024-06-04 16:18:36.812272
46.85227235,-8.024929047,-6.126523495,3.932304859,2024-06-04 16:18:36.852272
46.89227235,-9.576076508,-8.483752251,3.623331785,2024-06-04 16:18:36.892272
46.93227235,-9.576076508,-8.483752251,3.623331785,2024-06-04 16:18:36.932272
46.97227235,-7.788936615,-8.004590034,3.17407918,2024-06-04 16:18:36.972272
47.01227235,-7.788936615,-8.004590034,3.17407918,2024-06-04 16:18:37.012272
47.05227235,-8.802297592,-8.157731056,3.967000723,2024-06-04 16:18:37.052272
47.09227235,-8.802297592,-8.157731056,3.967000723,2024-06-04 16:18:37.092272
47.13227235,-8.802297592,-8.157731056,3.967000723,2024-06-04 16:18:37.132272
47.17227235,-8.802297592,-8.157731056,3.967000723,2024-06-04 16:18:37.172272
47.21227235,-8.802297592,-8.157731056,3.967000723,2024-06-04 16:18:37.212272
47.25227235,-8.802297592,-8.157731056,3.967000723,2024-06-04 16:18:37.252272
47.29227235,-8.802297592,-8.157731056,3.967000723,2024-06-04 16:18:37.292272
47.33227235,-8.802297592,-8.157731056,3.967000723,2024-06-04 16:18:37.332272
47.37227235,-8.802297592,-8.157731056,3.967000723,2024-06-04 16:18:37.372272
47.41227235,-8.630910873,-6.525227547,3.612264872,2024-06-04 16:18:37.412272
47.45227235,-8.630910873,-6.525227547,3.612264872,2024-06-04 16:18:37.452272
47.49227235,-8.630910873,-6.525227547,3.612264872,2024-06-04 16:18:37.492272
47.53227235,-8.630910873,-6.525227547,3.612264872,2024-06-04 16:18:37.532272
47.57227235,-8.630910873,-6.525227547,3.612264872,2024-06-04 16:18:37.572272
47.61227235,-3.007478952,-1.803889155,2.626721144,2024-06-04 16:18:37.612272
47.65227235,-3.489034414,-0.4671986103,3.46271348,2024-06-04 16:18:37.652272
47.69227235,-3.868596077,-1.136590719,4.00887537,2024-06-04 16:18:37.692272
47.73227235,-4.779065132,-1.60378933,3.380161047,2024-06-04 16:18:37.732272
47.77227235,-4.779065132,-1.60378933,3.380161047,2024-06-04 16:18:37.772272
47.81227235,-4.779065132,-1.60378933,3.380161047,2024-06-04 16:18:37.812272
47.85227235,-8.12183857,-5.902495384,3.311666489,2024-06-04 16:18:37.852272
47.89227235,-9.020342827,-6.546762943,3.848257065,2024-06-04 16:18:37.892272
47.93227235,-9.4812603,-7.36151886,2.941676378,2024-06-04 16:18:37.932272
47.97227235,-7.961519241,-8.234600067,2.679363251,2024-06-04 16:18:37.972272
48.01227235,-7.961519241,-8.234600067,2.679363251,2024-06-04 16:18:38.012272
48.05227235,-9.191430092,-8.393722534,3.758526087,2024-06-04 16:18:38.052272
48.09227235,-9.191430092,-8.393722534,3.758526087,2024-06-04 16:18:38.092272
48.13227235,-7.495516777,-8.148159027,2.936890602,2024-06-04 16:18:38.132272
48.17227235,-6.157629967,-6.996015072,2.98713994,2024-06-04 16:18:38.172272
48.21227235,-6.157629967,-6.996015072,2.98713994,2024-06-04 16:18:38.212272
48.25227235,-6.157629967,-6.996015072,2.98713994,2024-06-04 16:18:38.252272
48.29227235,-6.157629967,-6.996015072,2.98713994,2024-06-04 16:18:38.292272
48.33227235,-6.157629967,-6.996015072,2.98713994,2024-06-04 16:18:38.332272
48.37227235,-9.163912773,-8.130212784,2.757129908,2024-06-04 16:18:38.372272
48.41227235,-9.002396584,-7.475177765,2.645863533,2024-06-04 16:18:38.412272
48.41227235,-9.002396584,-7.475177765,2.645863533,2024-06-04 16:18:38.412272
48.49227235,-10.37737274,-5.532505035,2.541476727,2024-06-04 16:18:38.492272
48.53227235,-6.471388817,-5.55882597,2.348854542,2024-06-04 16:18:38.532272
48.57227235,-6.471388817,-5.55882597,2.348854542,2024-06-04 16:18:38.572272
48.61227235,-2.509173632,-1.80508554,2.878266573,2024-06-04 16:18:38.612272
48.65227235,-5.497808933,-2.440978289,2.844767094,2024-06-04 16:18:38.652272
48.69227235,-4.134498596,-0.4193421602,3.405285835,2024-06-04 16:18:38.692272
48.73227235,-2.838784933,-1.741675735,2.550150633,2024-06-04 16:18:38.732272
48.77227235,-2.838784933,-1.741675735,2.550150633,2024-06-04 16:18:38.772272
48.81227235,-7.32891655,-3.662813187,3.500998735,2024-06-04 16:18:38.812272
48.85227235,-7.32891655,-3.662813187,3.500998735,2024-06-04 16:18:38.852272
48.89227235,-7.32891655,-3.662813187,3.500998735,2024-06-04 16:18:38.892272
48.93227235,-7.32891655,-3.662813187,3.500998735,2024-06-04 16:18:38.932272
48.97227235,-7.32891655,-3.662813187,3.500998735,2024-06-04 16:18:38.972272
49.01227235,-7.32891655,-3.662813187,3.500998735,2024-06-04 16:18:39.012272
49.05227235,-8.376973152,-7.878667831,3.824328899,2024-06-04 16:18:39.052272
49.05227235,-8.376973152,-7.878667831,3.824328899,2024-06-04 16:18:39.052272
49.13227235,-8.376973152,-7.878667831,3.824328899,2024-06-04 16:18:39.132272
49.17227235,-8.376973152,-7.878667831,3.824328899,2024-06-04 16:18:39.172272
49.21227235,-6.244967937,-7.999804497,3.062513828,2024-06-04 16:18:39.212272
49.25227235,-6.615257263,-7.129116058,3.10947299,2024-06-04 16:18:39.252272
49.29227235,-7.636992455,-6.865606308,3.208775282,2024-06-04 16:18:39.292272
49.33227235,-8.896813393,-7.243971348,3.107080221,2024-06-04 16:18:39.332272
49.37227235,-9.808479309,-7.798508167,3.196810961,2024-06-04 16:18:39.372272
49.41227235,-9.808479309,-7.798508167,3.196810961,2024-06-04 16:18:39.412272
49.45227235,-9.808479309,-7.798508167,3.196810961,2024-06-04 16:18:39.452272
49.49227235,-9.808479309,-7.798508167,3.196810961,2024-06-04 16:18:39.492272
49.53227235,-7.85593605,-4.743172646,3.009871721,2024-06-04 16:18:39.532272
49.57227235,-7.85593605,-4.743172646,3.009871721,2024-06-04 16:18:39.572272
49.61227235,-2.46371007,-1.260120273,2.787040234,2024-06-04 16:18:39.612272
49.65227235,-2.042274237,0.1280160099,3.120240688,2024-06-04 16:18:39.652272
49.69227235,-3.495016575,-1.213460207,3.752544165,2024-06-04 16:18:39.692272
49.73227235,-4.616054058,-2.358425856,3.052942514,2024-06-04 16:18:39.732272
49.77227235,-4.616054058,-2.358425856,3.052942514,2024-06-04 16:18:39.772272
49.81227235,-4.616054058,-2.358425856,3.052942514,2024-06-04 16:18:39.812272
49.85227235,-4.616054058,-2.358425856,3.052942514,2024-06-04 16:18:39.852272
49.89227235,-4.616054058,-2.358425856,3.052942514,2024-06-04 16:18:39.892272
49.93227235,-4.616054058,-2.358425856,3.052942514,2024-06-04 16:18:39.932272
49.97227235,-4.616054058,-2.358425856,3.052942514,2024-06-04 16:18:39.972272
50.01227235,-4.616054058,-2.358425856,3.052942514,2024-06-04 16:18:40.012272
50.05227235,-8.286046028,-6.627221584,4.323830605,2024-06-04 16:18:40.052272
50.09227235,-8.408080101,-7.051050186,4.022035599,2024-06-04 16:18:40.092272
50.13227235,-8.408080101,-7.051050186,4.022035599,2024-06-04 16:18:40.132272
50.17227235,-7.878667831,-7.324131012,2.467299223,2024-06-04 16:18:40.172272
50.21227235,-7.326523781,-7.223632336,2.803789854,2024-06-04 16:18:40.212272
50.25227235,-6.896713257,-8.06441021,2.793022156,2024-06-04 16:18:40.252272
50.29227235,-7.585247993,-7.055835724,2.885445118,2024-06-04 16:18:40.292272
50.33227235,-9.144769669,-6.615257263,3.166900873,2024-06-04 16:18:40.332272
50.37227235,-9.601201057,-7.187740326,3.523730516,2024-06-04 16:18:40.372272
50.41227235,-9.166305542,-7.266703129,2.66739893,2024-06-04 16:18:40.412272
50.45227235,-9.166305542,-7.266703129,2.66739893,2024-06-04 16:18:40.452272
50.49227235,-9.166305542,-7.266703129,2.66739893,2024-06-04 16:18:40.492272
50.53227235,-9.166305542,-7.266703129,2.66739893,2024-06-04 16:18:40.532272
50.57227235,-9.166305542,-7.266703129,2.66739893,2024-06-04 16:18:40.572272
50.61227235,-9.166305542,-7.266703129,2.66739893,2024-06-04 16:18:40.612272
50.65227235,-9.166305542,-7.266703129,2.66739893,2024-06-04 16:18:40.652272
50.69227235,-2.20618248,-0.7163512707,3.617349625,2024-06-04 16:18:40.692272
50.73227235,-3.249453068,-1.0863415,2.456531525,2024-06-04 16:18:40.732272
50.77227235,-4.802993298,-0.7175477147,2.993122101,2024-06-04 16:18:40.772272
50.81227235,-6.566204548,-3.602693558,3.517748356,2024-06-04 16:18:40.812272
50.85227235,-8.233403206,-5.692824364,4.069892406,2024-06-04 16:18:40.852272
50.89227235,-8.64167881,-7.610372543,3.098705292,2024-06-04 16:18:40.892272
50.93227235,-10.0899353,-8.164011955,4.301098824,2024-06-04 16:18:40.932272
50.97227235,-8.971290588,-7.937591076,4.295116425,2024-06-04 16:18:40.972272
51.01227235,-9.655039787,-8.621339798,4.976771832,2024-06-04 16:18:41.012272
51.05227235,-8.676374435,-7.393822193,2.886641502,2024-06-04 16:18:41.052272
51.09227235,-8.676374435,-7.393822193,2.886641502,2024-06-04 16:18:41.092272
51.13227235,-8.676374435,-7.393822193,2.886641502,2024-06-04 16:18:41.132272
51.17227235,-8.676374435,-7.393822193,2.886641502,2024-06-04 16:18:41.172272
51.21227235,-8.676374435,-7.393822193,2.886641502,2024-06-04 16:18:41.212272
51.25227235,-7.986643791,-5.678467274,3.426821232,2024-06-04 16:18:41.252272
51.29227235,-7.986643791,-5.678467274,3.426821232,2024-06-04 16:18:41.292272
51.33227235,-7.259524822,-7.00439024,2.512762785,2024-06-04 16:18:41.332272
51.37227235,-9.650253296,-6.314659119,3.121437073,2024-06-04 16:18:41.372272
51.41227235,-9.650253296,-6.314659119,3.121437073,2024-06-04 16:18:41.412272
51.45227235,-9.650253296,-6.314659119,3.121437073,2024-06-04 16:18:41.452272
51.49227235,-9.650253296,-6.314659119,3.121437073,2024-06-04 16:18:41.492272
51.53227235,-9.650253296,-6.314659119,3.121437073,2024-06-04 16:18:41.532272
51.57227235,-9.650253296,-6.314659119,3.121437073,2024-06-04 16:18:41.572272
51.61227235,-9.650253296,-6.314659119,3.121437073,2024-06-04 16:18:41.612272
51.65227235,-9.650253296,-6.314659119,3.121437073,2024-06-04 16:18:41.652272
51.69227235,-9.650253296,-6.314659119,3.121437073,2024-06-04 16:18:41.692272
51.73227235,-4.737190723,-0.7917252183,3.453142166,2024-06-04 16:18:41.732272
51.77227235,-5.288137913,-1.018146038,3.042174816,2024-06-04 16:18:41.772272
51.81227235,-5.138287544,-2.347658157,3.060121059,2024-06-04 16:18:41.812272
51.85227235,-5.75772953,-3.30927372,2.952444077,2024-06-04 16:18:41.852272
51.89227235,-5.75772953,-3.30927372,2.952444077,2024-06-04 16:18:41.892272
51.93227235,-5.75772953,-3.30927372,2.952444077,2024-06-04 16:18:41.932272
51.97227235,-5.75772953,-3.30927372,2.952444077,2024-06-04 16:18:41.972272
52.01227235,-5.75772953,-3.30927372,2.952444077,2024-06-04 16:18:42.012272
52.05227235,-8.914759636,-8.624929428,3.215953588,2024-06-04 16:18:42.052272
52.09227235,-8.914759636,-8.624929428,3.215953588,2024-06-04 16:18:42.092272
52.13227235,-8.914759636,-8.624929428,3.215953588,2024-06-04 16:18:42.132272
52.17227235,-8.914759636,-8.624929428,3.215953588,2024-06-04 16:18:42.172272
52.21227235,-8.914759636,-8.624929428,3.215953588,2024-06-04 16:18:42.212272
52.25227235,-8.914759636,-8.624929428,3.215953588,2024-06-04 16:18:42.252272
52.29227235,-7.367500782,-7.255935669,3.825525284,2024-06-04 16:18:42.292272
52.33227235,-7.367500782,-7.255935669,3.825525284,2024-06-04 16:18:42.332272
52.37227235,-7.367500782,-7.255935669,3.825525284,2024-06-04 16:18:42.372272
52.41227235,-7.367500782,-7.255935669,3.825525284,2024-06-04 16:18:42.412272
52.45227235,-7.367500782,-7.255935669,3.825525284,2024-06-04 16:18:42.452272
52.49227235,-6.894320011,-5.888138294,3.008675337,2024-06-04 16:18:42.492272
52.53227235,-8.210671425,-5.089234829,4.022035599,2024-06-04 16:18:42.532272
52.57227235,-8.210671425,-5.089234829,4.022035599,2024-06-04 16:18:42.572272
52.61227235,-6.863213539,-3.276970625,3.011068106,2024-06-04 16:18:42.612272
52.65227235,-2.684148788,-1.074377418,2.686541557,2024-06-04 16:18:42.652272
52.69227235,-3.535694599,-0.8132606149,3.150151014,2024-06-04 16:18:42.692272
52.73227235,-2.932105064,-0.6251249313,3.21954298,2024-06-04 16:18:42.732272
52.77227235,-3.949054718,-1.420439363,3.466302633,2024-06-04 16:18:42.772272
52.81227235,-5.852245808,-2.584846735,3.154936552,2024-06-04 16:18:42.812272
52.85227235,-7.86670351,-4.885545731,3.806382656,2024-06-04 16:18:42.852272
52.89227235,-7.86670351,-4.885545731,3.806382656,2024-06-04 16:18:42.892272
52.93227235,-7.86670351,-4.885545731,3.806382656,2024-06-04 16:18:42.932272
52.97227235,-9.283852577,-8.529216766,2.766701221,2024-06-04 16:18:42.972272
53.01227235,-9.283852577,-8.529216766,2.766701221,2024-06-04 16:18:43.012272
53.05227235,-8.918349266,-7.662117004,2.797807932,2024-06-04 16:18:43.052272
53.09227235,-8.918349266,-7.662117004,2.797807932,2024-06-04 16:18:43.092272
53.13227235,-8.918349266,-7.662117004,2.797807932,2024-06-04 16:18:43.132272
53.17227235,-8.918349266,-7.662117004,2.797807932,2024-06-04 16:18:43.172272
53.21227235,-8.918349266,-7.662117004,2.797807932,2024-06-04 16:18:43.212272
53.25227235,-8.918349266,-7.662117004,2.797807932,2024-06-04 16:18:43.252272
53.29227235,-8.918349266,-7.662117004,2.797807932,2024-06-04 16:18:43.292272
53.33227235,-8.918349266,-7.662117004,2.797807932,2024-06-04 16:18:43.332272
53.37227235,-8.918349266,-7.662117004,2.797807932,2024-06-04 16:18:43.372272
53.41227235,-8.918349266,-7.662117004,2.797807932,2024-06-04 16:18:43.412272
53.45227235,-11.18584728,-8.488538742,2.61714983,2024-06-04 16:18:43.452272
53.49227235,-8.057231903,-6.929016113,4.083052635,2024-06-04 16:18:43.492272
53.53227235,-7.833203793,-6.237789631,2.493620396,2024-06-04 16:18:43.532272
53.57227235,-7.833203793,-6.237789631,2.493620396,2024-06-04 16:18:43.572272
53.61227235,-4.513162613,-3.091526747,1.412064433,2024-06-04 16:18:43.612272
53.65227235,-1.129412293,-0.3293122053,2.44935298,2024-06-04 16:18:43.652272
53.69227235,-1.129412293,-0.3293122053,2.44935298,2024-06-04 16:18:43.692272
53.73227235,-1.129412293,-0.3293122053,2.44935298,2024-06-04 16:18:43.732272
53.77227235,-1.129412293,-0.3293122053,2.44935298,2024-06-04 16:18:43.772272
53.81227235,-3.771686792,-1.481755376,2.836392164,2024-06-04 16:18:43.812272
53.85227235,-3.771686792,-1.481755376,2.836392164,2024-06-04 16:18:43.852272
53.89227235,-3.771686792,-1.481755376,2.836392164,2024-06-04 16:18:43.892272
53.93227235,-3.771686792,-1.481755376,2.836392164,2024-06-04 16:18:43.932272
53.97227235,-3.771686792,-1.481755376,2.836392164,2024-06-04 16:18:43.972272
54.01227235,-3.771686792,-1.481755376,2.836392164,2024-06-04 16:18:44.012272
54.05227235,-5.167001247,-8.568697929,3.281756163,2024-06-04 16:18:44.052272
54.09227235,-5.167001247,-8.568697929,3.281756163,2024-06-04 16:18:44.092272
54.13227235,-5.167001247,-8.568697929,3.281756163,2024-06-04 16:18:44.132272
54.17227235,-6.630810738,-7.339684486,3.692723513,2024-06-04 16:18:44.172272
54.21227235,-8.671588898,-6.069095612,3.24466753,2024-06-04 16:18:44.212272
54.25227235,-8.738887787,-7.439285755,3.647259951,2024-06-04 16:18:44.252272
54.29227235,-7.451249599,-7.674081326,2.363211393,2024-06-04 16:18:44.292272
54.33227235,-7.451249599,-7.674081326,2.363211393,2024-06-04 16:18:44.332272
54.37227235,-8.25254631,-6.870391846,3.083152056,2024-06-04 16:18:44.372272
54.41227235,-6.926623344,-6.211468697,3.207578659,2024-06-04 16:18:44.412272
54.45227235,-6.926623344,-6.211468697,3.207578659,2024-06-04 16:18:44.452272
54.49227235,-6.926623344,-6.211468697,3.207578659,2024-06-04 16:18:44.492272
54.53227235,-6.926623344,-6.211468697,3.207578659,2024-06-04 16:18:44.532272
54.57227235,-6.926623344,-6.211468697,3.207578659,2024-06-04 16:18:44.572272
54.61227235,-5.04736042,-3.245863914,3.913162231,2024-06-04 16:18:44.612272
54.65227235,-2.789433002,-1.349851131,2.388336182,2024-06-04 16:18:44.652272
54.69227235,-1.874477386,-0.8060821295,2.11645174,2024-06-04 16:18:44.692272
54.73227235,-3.632902861,-0.5389832854,2.746362209,2024-06-04 16:18:44.732272
54.77227235,-4.006482601,-1.727019787,2.843570709,2024-06-04 16:18:44.772272
54.81227235,-4.006482601,-1.727019787,2.843570709,2024-06-04 16:18:44.812272
54.85227235,-4.006482601,-1.727019787,2.843570709,2024-06-04 16:18:44.852272
54.89227235,-4.006482601,-1.727019787,2.843570709,2024-06-04 16:18:44.892272
54.93227235,-4.006482601,-1.727019787,2.843570709,2024-06-04 16:18:44.932272
54.97227235,-9.822835922,-8.474181175,2.436192513,2024-06-04 16:18:44.972272
55.01227235,-7.631010532,-7.966304779,3.006282568,2024-06-04 16:18:45.012272
55.05227235,-8.484949112,-8.54357338,3.389732361,2024-06-04 16:18:45.052272
55.09227235,-8.484949112,-8.54357338,3.389732361,2024-06-04 16:18:45.092272
55.13227235,-7.639385223,-6.526423931,3.444767237,2024-06-04 16:18:45.132272
55.17227235,-7.639385223,-6.526423931,3.444767237,2024-06-04 16:18:45.172272
55.21227235,-7.639385223,-6.526423931,3.444767237,2024-06-04 16:18:45.212272
55.25227235,-7.639385223,-6.526423931,3.444767237,2024-06-04 16:18:45.252272
55.29227235,-7.639385223,-6.526423931,3.444767237,2024-06-04 16:18:45.292272
55.33227235,-7.861917973,-7.086942673,3.189632654,2024-06-04 16:18:45.332272
55.33227235,-7.861917973,-7.086942673,3.189632654,2024-06-04 16:18:45.332272
55.41227235,-7.861917973,-7.086942673,3.189632654,2024-06-04 16:18:45.412272
55.45227235,-7.861917973,-7.086942673,3.189632654,2024-06-04 16:18:45.452272
55.49227235,-7.861917973,-7.086942673,3.189632654,2024-06-04 16:18:45.492272
55.53227235,-7.861917973,-7.086942673,3.189632654,2024-06-04 16:18:45.532272
55.57227235,-7.861917973,-7.086942673,3.189632654,2024-06-04 16:18:45.572272
55.61227235,-7.861917973,-7.086942673,3.189632654,2024-06-04 16:18:45.612272
55.65227235,-3.889234066,-2.630310297,2.656631231,2024-06-04 16:18:45.652272
55.69227235,-3.889234066,-2.630310297,2.656631231,2024-06-04 16:18:45.692272
55.73227235,-3.889234066,-2.630310297,2.656631231,2024-06-04 16:18:45.732272
55.77227235,-3.889234066,-2.630310297,2.656631231,2024-06-04 16:18:45.772272
55.81227235,-4.791028976,-2.456531525,2.122433662,2024-06-04 16:18:45.812272
55.85227235,-6.97567606,-3.416053534,3.937090635,2024-06-04 16:18:45.852272
55.89227235,-8.324331284,-4.267599106,4.075874329,2024-06-04 16:18:45.892272
55.93227235,-8.551948547,-7.079763889,3.850649834,2024-06-04 16:18:45.932272
55.97227235,-8.551948547,-7.079763889,3.850649834,2024-06-04 16:18:45.972272
56.01227235,-8.313563347,-7.770990849,3.646063566,2024-06-04 16:18:46.012272
56.05227235,-8.313563347,-7.770990849,3.646063566,2024-06-04 16:18:46.052272
56.09227235,-9.482457161,-7.898109436,3.50219512,2024-06-04 16:18:46.092272
56.13227235,-9.616754532,-6.961319447,3.177668571,2024-06-04 16:18:46.132272
56.17227235,-8.235795975,-7.237989426,2.317747831,2024-06-04 16:18:46.172272
56.21227235,-7.202096939,-7.408178806,3.414856911,2024-06-04 16:18:46.212272
56.25227235,-6.407979012,-7.495516777,2.746362209,2024-06-04 16:18:46.252272
56.29227235,-6.407979012,-7.495516777,2.746362209,2024-06-04 16:18:46.292272
56.33227235,-6.407979012,-7.495516777,2.746362209,2024-06-04 16:18:46.332272
56.37227235,-6.407979012,-7.495516777,2.746362209,2024-06-04 16:18:46.372272
56.41227235,-6.407979012,-7.495516777,2.746362209,2024-06-04 16:18:46.412272
56.45227235,-10.02742195,-6.804290295,3.221935749,2024-06-04 16:18:46.452272
56.45227235,-10.02742195,-6.804290295,3.221935749,2024-06-04 16:18:46.452272
56.53227235,-10.02742195,-6.804290295,3.221935749,2024-06-04 16:18:46.532272
56.57227235,-10.02742195,-6.804290295,3.221935749,2024-06-04 16:18:46.572272
56.61227235,-10.02742195,-6.804290295,3.221935749,2024-06-04 16:18:46.612272
56.65227235,-3.080759048,-1.322333574,2.972783089,2024-06-04 16:18:46.652272
56.69227235,-3.573979616,-1.154536963,3.424428225,2024-06-04 16:18:46.692272
56.73227235,-4.92502737,-1.414457321,3.637688637,2024-06-04 16:18:46.732272
56.77227235,-4.92502737,-1.414457321,3.637688637,2024-06-04 16:18:46.772272
56.81227235,-3.040978432,-1.53918314,2.951247692,2024-06-04 16:18:46.812272
56.85227235,-3.040978432,-1.53918314,2.951247692,2024-06-04 16:18:46.852272
56.89227235,-6.961319447,-4.659124851,3.512962818,2024-06-04 16:18:46.892272
56.93227235,-9.157930374,-6.336194515,4.128516197,2024-06-04 16:18:46.932272
56.97227235,-9.662218094,-7.847560883,3.987339735,2024-06-04 16:18:46.972272
57.01227235,-8.678768158,-7.942376614,3.190829039,2024-06-04 16:18:47.012272
57.05227235,-8.678768158,-7.942376614,3.190829039,2024-06-04 16:18:47.052272
57.09227235,-8.678768158,-7.942376614,3.190829039,2024-06-04 16:18:47.092272
57.13227235,-8.678768158,-7.942376614,3.190829039,2024-06-04 16:18:47.132272
57.17227235,-8.678768158,-7.942376614,3.190829039,2024-06-04 16:18:47.172272
57.21227235,-7.133901596,-7.576872826,3.534498215,2024-06-04 16:18:47.212272
57.25227235,-6.634399891,-7.337291718,3.178864956,2024-06-04 16:18:47.252272
57.29227235,-6.634399891,-7.337291718,3.178864956,2024-06-04 16:18:47.292272
57.33227235,-6.634399891,-7.337291718,3.178864956,2024-06-04 16:18:47.332272
57.37227235,-6.634399891,-7.337291718,3.178864956,2024-06-04 16:18:47.372272
57.41227235,-6.634399891,-7.337291718,3.178864956,2024-06-04 16:18:47.412272
57.45227235,-6.634399891,-7.337291718,3.178864956,2024-06-04 16:18:47.452272
57.49227235,-7.327720165,-6.130112648,3.758526087,2024-06-04 16:18:47.492272
57.53227235,-7.327720165,-6.130112648,3.758526087,2024-06-04 16:18:47.532272
57.57227235,-7.327720165,-6.130112648,3.758526087,2024-06-04 16:18:47.572272
57.61227235,-7.327720165,-6.130112648,3.758526087,2024-06-04 16:18:47.612272
57.65227235,-7.327720165,-6.130112648,3.758526087,2024-06-04 16:18:47.652272
57.69227235,-3.365804195,-0.4145565331,2.659024239,2024-06-04 16:18:47.692272
57.73227235,-4.005286217,-0.7977072597,3.95503664,2024-06-04 16:18:47.732272
57.77227235,-3.037389278,-0.6406782866,4.025625229,2024-06-04 16:18:47.772272
57.81227235,-5.525326729,-1.473380566,3.355036497,2024-06-04 16:18:47.812272
57.85227235,-5.525326729,-1.473380566,3.355036497,2024-06-04 16:18:47.852272
57.89227235,-5.525326729,-1.473380566,3.355036497,2024-06-04 16:18:47.892272
57.93227235,-5.525326729,-1.473380566,3.355036497,2024-06-04 16:18:47.932272
57.97227235,-5.525326729,-1.473380566,3.355036497,2024-06-04 16:18:47.972272
58.01227235,-5.525326729,-1.473380566,3.355036497,2024-06-04 16:18:48.012272
58.05227235,-5.525326729,-1.473380566,3.355036497,2024-06-04 16:18:48.052272
58.09227235,-5.525326729,-1.473380566,3.355036497,2024-06-04 16:18:48.092272
58.13227235,-5.525326729,-1.473380566,3.355036497,2024-06-04 16:18:48.132272
58.17227235,-5.525326729,-1.473380566,3.355036497,2024-06-04 16:18:48.172272
58.21227235,-5.525326729,-1.473380566,3.355036497,2024-06-04 16:18:48.212272
58.25227235,-5.525326729,-1.473380566,3.355036497,2024-06-04 16:18:48.252272
58.29227235,-5.484349728,-7.054639339,2.336890459,2024-06-04 16:18:48.292272
58.33227235,-5.484349728,-7.054639339,2.336890459,2024-06-04 16:18:48.332272
58.37227235,-6.666703224,-6.229414463,2.444567442,2024-06-04 16:18:48.372272
58.41227235,-9.475278854,-6.582954407,3.606282711,2024-06-04 16:18:48.412272
58.45227235,-9.771389961,-6.051149368,2.958425999,2024-06-04 16:18:48.452272
58.49227235,-9.583254814,-6.305087566,3.545265913,2024-06-04 16:18:48.492272
58.53227235,-9.099306107,-6.384050846,3.903591156,2024-06-04 16:18:48.532272
58.57227235,-7.194918633,-6.167201042,2.626721144,2024-06-04 16:18:48.572272
58.61227235,-6.725327015,-5.213661671,4.111766815,2024-06-04 16:18:48.612272
58.65227235,-6.725327015,-5.213661671,4.111766815,2024-06-04 16:18:48.652272
58.69227235,-6.725327015,-5.213661671,4.111766815,2024-06-04 16:18:48.692272
58.73227235,-6.725327015,-5.213661671,4.111766815,2024-06-04 16:18:48.732272
58.77227235,-6.725327015,-5.213661671,4.111766815,2024-06-04 16:18:48.772272
58.81227235,-3.475873947,-0.5557330847,3.266202927,2024-06-04 16:18:48.812272
58.85227235,-3.475873947,-0.5557330847,3.266202927,2024-06-04 16:18:48.852272
58.89227235,-3.475873947,-0.5557330847,3.266202927,2024-06-04 16:18:48.892272
58.93227235,-3.475873947,-0.5557330847,3.266202927,2024-06-04 16:18:48.932272
58.97227235,-3.475873947,-0.5557330847,3.266202927,2024-06-04 16:18:48.972272
59.01227235,-3.475873947,-0.5557330847,3.266202927,2024-06-04 16:18:49.012272
59.05227235,-3.475873947,-0.5557330847,3.266202927,2024-06-04 16:18:49.052272
59.09227235,-8.762815475,-7.766204834,2.133201361,2024-06-04 16:18:49.092272
59.13227235,-8.501698494,-8.152944565,2.988336325,2024-06-04 16:18:49.132272
59.17227235,-8.989236832,-7.137490749,3.660420418,2024-06-04 16:18:49.172272
59.21227235,-8.989236832,-7.137490749,3.660420418,2024-06-04 16:18:49.212272
59.25227235,-7.124330521,-7.38664341,3.015853882,2024-06-04 16:18:49.252272
59.29227235,-5.387440205,-6.113362789,2.562114954,2024-06-04 16:18:49.292272
59.33227235,-5.387440205,-6.113362789,2.562114954,2024-06-04 16:18:49.332272
59.37227235,-9.307781219,-6.592525482,2.576471806,2024-06-04 16:18:49.372272
59.41227235,-9.151947975,-6.502495766,3.341576815,2024-06-04 16:18:49.412272
59.45227235,-9.151947975,-6.502495766,3.341576815,2024-06-04 16:18:49.452272
59.49227235,-9.151947975,-6.502495766,3.341576815,2024-06-04 16:18:49.492272
59.53227235,-9.151947975,-6.502495766,3.341576815,2024-06-04 16:18:49.532272
59.57227235,-8.203493118,-6.356533527,2.48883462,2024-06-04 16:18:49.572272
59.61227235,-8.203493118,-6.356533527,2.48883462,2024-06-04 16:18:49.612272
59.65227235,-8.203493118,-6.356533527,2.48883462,2024-06-04 16:18:49.652272
59.69227235,-8.203493118,-6.356533527,2.48883462,2024-06-04 16:18:49.692272
59.73227235,-8.203493118,-6.356533527,2.48883462,2024-06-04 16:18:49.732272
59.77227235,-8.203493118,-6.356533527,2.48883462,2024-06-04 16:18:49.772272
59.77227235,-3.492623806,-1.001396298,2.921337366,2024-06-04 16:18:49.772272
59.85227235,-3.492623806,-1.001396298,2.921337366,2024-06-04 16:18:49.852272
59.89227235,-3.492623806,-1.001396298,2.921337366,2024-06-04 16:18:49.892272
59.93227235,-8.889635086,-6.107380867,4.575376034,2024-06-04 16:18:49.932272
59.97227235,-9.358030319,-6.063113689,4.498805523,2024-06-04 16:18:49.972272
60.01227235,-8.896813393,-6.162415504,3.225524902,2024-06-04 16:18:50.012272
60.05227235,-10.7054882,-8.986844063,2.356033087,2024-06-04 16:18:50.052272
60.09227235,-8.408080101,-6.943373203,3.097508907,2024-06-04 16:18:50.092272
60.13227235,-8.408080101,-6.943373203,3.097508907,2024-06-04 16:18:50.132272
60.17227235,-8.408080101,-6.943373203,3.097508907,2024-06-04 16:18:50.172272
60.21227235,-8.408080101,-6.943373203,3.097508907,2024-06-04 16:18:50.212272
60.25227235,-8.408080101,-6.943373203,3.097508907,2024-06-04 16:18:50.252272
60.29227235,-8.408080101,-6.943373203,3.097508907,2024-06-04 16:18:50.292272
60.33227235,-8.408080101,-6.943373203,3.097508907,2024-06-04 16:18:50.332272
60.37227235,-8.408080101,-6.943373203,3.097508907,2024-06-04 16:18:50.372272
60.41227235,-8.408080101,-6.943373203,3.097508907,2024-06-04 16:18:50.412272
60.45227235,-8.408080101,-6.943373203,3.097508907,2024-06-04 16:18:50.452272
60.49227235,-8.408080101,-6.943373203,3.097508907,2024-06-04 16:18:50.492272
60.53227235,-8.408080101,-6.943373203,3.097508907,2024-06-04 16:18:50.532272
60.57227235,-8.408080101,-6.943373203,3.097508907,2024-06-04 16:18:50.572272
60.61227235,-8.408080101,-6.943373203,3.097508907,2024-06-04 16:18:50.612272
60.65227235,-8.408080101,-6.943373203,3.097508907,2024-06-04 16:18:50.652272
60.69227235,-8.408080101,-6.943373203,3.097508907,2024-06-04 16:18:50.692272
60.73227235,-8.408080101,-6.943373203,3.097508907,2024-06-04 16:18:50.732272
60.77227235,-8.408080101,-6.943373203,3.097508907,2024-06-04 16:18:50.772272
60.81227235,-3.577569008,-1.505683661,3.677170277,2024-06-04 16:18:50.812272
60.85227235,-3.577569008,-1.505683661,3.677170277,2024-06-04 16:18:50.852272
60.89227235,-3.577569008,-1.505683661,3.677170277,2024-06-04 16:18:50.892272
60.93227235,-3.577569008,-1.505683661,3.677170277,2024-06-04 16:18:50.932272
60.97227235,-3.577569008,-1.505683661,3.677170277,2024-06-04 16:18:50.972272
61.01227235,-3.577569008,-1.505683661,3.677170277,2024-06-04 16:18:51.012272
61.05227235,-9.943673134,-9.081359863,2.296212435,2024-06-04 16:18:51.052272
61.09227235,-9.943673134,-9.081359863,2.296212435,2024-06-04 16:18:51.092272
61.13227235,-9.943673134,-9.081359863,2.296212435,2024-06-04 16:18:51.132272
61.17227235,-9.943673134,-9.081359863,2.296212435,2024-06-04 16:18:51.172272
61.21227235,-9.943673134,-9.081359863,2.296212435,2024-06-04 16:18:51.212272
61.25227235,-9.943673134,-9.081359863,2.296212435,2024-06-04 16:18:51.252272
61.29227235,-9.943673134,-9.081359863,2.296212435,2024-06-04 16:18:51.292272
61.33227235,-9.943673134,-9.081359863,2.296212435,2024-06-04 16:18:51.332272
61.37227235,-9.943673134,-9.081359863,2.296212435,2024-06-04 16:18:51.372272
61.41227235,-9.943673134,-9.081359863,2.296212435,2024-06-04 16:18:51.412272
61.45227235,-9.943673134,-9.081359863,2.296212435,2024-06-04 16:18:51.452272
61.49227235,-9.943673134,-9.081359863,2.296212435,2024-06-04 16:18:51.492272
61.53227235,-9.943673134,-9.081359863,2.296212435,2024-06-04 16:18:51.532272
61.57227235,-9.943673134,-9.081359863,2.296212435,2024-06-04 16:18:51.572272
61.61227235,-9.943673134,-9.081359863,2.296212435,2024-06-04 16:18:51.612272
