Time (s),Gyroscope x (rad/s),Gyroscope y (rad/s),Gyroscope z (rad/s),Datetime
0.03327964,-0.7433995008,-1.697315693,-0.2906754613,2024-06-04 16:17:50.033280
0.073706203,-0.6700315475,0.03222329915,-0.2672403455,2024-06-04 16:17:50.073706
0.11419563,0.2161091566,-0.5513912439,0.5900059342,2024-06-04 16:17:50.114196
0.199269276,-2.245111704,-2.303033829,0.7633726001,2024-06-04 16:17:50.199269
0.23976464,-2.252568483,-1.71116364,2.155898571,2024-06-04 16:17:50.239765
0.28024714,-1.003050089,-0.6379414201,2.884118319,2024-06-04 16:17:50.280247
0.320787817,-1.215031385,0.3113143444,2.285590649,2024-06-04 16:17:50.320788
0.361224745,-1.185737491,0.9705604315,-1.215697169,2024-06-04 16:17:50.361225
0.401701411,0.133819893,0.4292888939,0.04207670316,2024-06-04 16:17:50.401701
0.442198286,2.086525202,-0.018907886,1.569620848,2024-06-04 16:17:50.442198
0.482694015,1.646717072,0.9793485999,0.7649704814,2024-06-04 16:17:50.482694
0.523178338,0.2091851383,1.507038474,0.27536273,2024-06-04 16:17:50.523178
0.563669536,0.1346188188,1.837660074,1.288931966,2024-06-04 16:17:50.563670
0.60415938,-2.322607517,2.330463648,1.827540398,2024-06-04 16:17:50.604159
0.644645838,-1.277880192,1.344590425,1.705704331,2024-06-04 16:17:50.644646
0.685154797,-1.399716139,1.134473205,0.8808145523,2024-06-04 16:17:50.685155
0.725660682,-1.40877068,0.5431357026,0.219171688,2024-06-04 16:17:50.725661
0.766114901,0.1316894293,0.5015916228,-0.08282186836,2024-06-04 16:17:50.766115
0.806604536,-0.3477985859,0.04473978654,0.340608269,2024-06-04 16:17:50.806605
0.84709688,-0.3105154335,-0.06071828306,-0.5479292274,2024-06-04 16:17:50.847097
0.887586151,-1.495054603,1.056844354,-1.120625138,2024-06-04 16:17:50.887586
0.928071359,-2.581858635,2.954556942,-1.759631753,2024-06-04 16:17:50.928071
0.968558651,-2.002238512,3.134315014,-1.79505074,2024-06-04 16:17:50.968559
1.009064328,-1.514495015,2.514216185,-1.367892385,2024-06-04 16:17:51.009064
1.04953037,-2.446973324,1.248719454,-1.514628172,2024-06-04 16:17:51.049530
1.090031984,-2.652696609,0.2577863932,-0.3407414258,2024-06-04 16:17:51.090032
1.130498026,-3.456281662,0.6768224239,0.9870715737,2024-06-04 16:17:51.130498
1.171020734,-0.9117063284,1.786262631,0.9966586232,2024-06-04 16:17:51.171021
1.211512297,-1.344057798,-0.1745650619,1.155511498,2024-06-04 16:17:51.211512
1.252017088,0.6159709692,0.9042496681,0.9191629291,2024-06-04 16:17:51.252017
1.292492817,0.5050535798,1.536332369,0.3264939189,2024-06-04 16:17:51.292493
1.332958703,0.5547201037,0.0007989247679,1.122755647,2024-06-04 16:17:51.332959
1.37344589,0.749125123,-0.4488625526,1.593588591,2024-06-04 16:17:51.373446
1.413937245,0.6657706499,-1.252181411,-0.7061163187,2024-06-04 16:17:51.413937
1.454442453,0.9978570342,-0.06258244067,-1.871214986,2024-06-04 16:17:51.454442
1.494917401,2.053503036,0.2428731322,-3.421262264,2024-06-04 16:17:51.494917
1.535404484,1.03460753,-0.843398273,-2.715145826,2024-06-04 16:17:51.535404
1.57589964,0.1892120093,-0.03275591508,-1.590526104,2024-06-04 16:17:51.575900
1.616396099,-0.5283555984,1.668953896,-0.2592510879,2024-06-04 16:17:51.616396
1.656873599,-0.9460600615,0.1456706226,-1.459768653,2024-06-04 16:17:51.656874
1.697373078,0.05499265343,0.1914756298,-1.135804653,2024-06-04 16:17:51.697373
1.737863182,0.2070546746,0.03675054014,-0.1676410437,2024-06-04 16:17:51.737863
1.778355995,0.5211652517,0.4994611442,-0.9379376769,2024-06-04 16:17:51.778356
1.818842765,0.4459331632,0.5165048838,-0.3189041317,2024-06-04 16:17:51.818843
1.859331099,0.3023930192,0.9316794276,-3.248428106,2024-06-04 16:17:51.859331
1.899797036,1.450447917,-0.2925396264,-3.030987501,2024-06-04 16:17:51.899797
1.940298911,0.1119826213,-0.6358109713,0.5351464152,2024-06-04 16:17:51.940299
1.980794432,0.3103822768,-0.1937392503,0.2199706137,2024-06-04 16:17:51.980794
2.021283651,0.1356840581,0.2639114857,-0.104392834,2024-06-04 16:17:52.021284
2.061769901,0.2214353085,-0.08149032295,-0.01677742042,2024-06-04 16:17:52.061770
2.102291099,0.3125127256,-0.01837527007,0.1190397888,2024-06-04 16:17:52.102291
2.142765838,0.8271534443,-0.4422048628,0.875754714,2024-06-04 16:17:52.142766
2.183261567,0.8258218765,-0.7034532428,0.597196281,2024-06-04 16:17:52.183262
2.223742557,0.7134398222,-0.3655080795,-0.03701684624,2024-06-04 16:17:52.223743
2.264240786,0.2264951766,0.01251648832,-0.2022611201,2024-06-04 16:17:52.264241
2.304719276,-0.2306229472,-0.01517957076,-0.3623123765,2024-06-04 16:17:52.304719
2.34521313,-0.4026580751,-0.00186415785,-0.3114475012,2024-06-04 16:17:52.345213
2.385681932,-0.3430050313,0.1312899739,-0.1817553788,2024-06-04 16:17:52.385682
2.42618537,-0.04247616604,-0.0330222249,-0.1263632625,2024-06-04 16:17:52.426185
2.466674797,0.3047898114,-0.1242327988,0.08122401685,2024-06-04 16:17:52.466675
2.507151515,0.5696333647,-0.3314206302,0.1896114796,2024-06-04 16:17:52.507152
2.54763313,0.7208964229,-0.3154421151,0.1653774232,2024-06-04 16:17:52.547633
2.588133547,0.8356752992,-0.4286231399,0.1504641622,2024-06-04 16:17:52.588134
2.628612557,0.8178326488,-0.168706283,0.2159759998,2024-06-04 16:17:52.628613
2.669082713,0.9485899806,-0.1561897993,0.2466014475,2024-06-04 16:17:52.669083
2.709607817,0.9674978852,-0.230756104,0.3725652397,2024-06-04 16:17:52.709608
2.750096463,1.028482437,-0.2616478503,0.1507304758,2024-06-04 16:17:52.750096
2.79058688,0.8931978941,-0.1857500076,0.002130466048,2024-06-04 16:17:52.790587
2.831073651,0.4901403487,-0.2677729428,-0.0705716908,2024-06-04 16:17:52.831074
2.871556359,-0.1163767055,-0.04500609636,-0.250729233,2024-06-04 16:17:52.871556
2.912059484,-0.5936011076,0.1051917598,-0.3620460629,2024-06-04 16:17:52.912059
2.952546255,-0.937271893,0.2985315621,-0.4416722357,2024-06-04 16:17:52.952546
2.99302714,-0.9141030908,0.1989322603,-0.5175700784,2024-06-04 16:17:52.993027
3.033530578,-0.9223586321,-0.06391397864,-0.6443328261,2024-06-04 16:17:53.033531
3.074010422,-0.6119763851,0.04447348043,-0.5489944816,2024-06-04 16:17:53.074010
3.114529536,-0.5770899653,0.06551183015,-0.5418041348,2024-06-04 16:17:53.114530
3.155026724,-0.73221457,0.1153114736,-0.7098446488,2024-06-04 16:17:53.155027
3.195479276,-1.153247952,0.4745613039,-0.6824148893,2024-06-04 16:17:53.195479
3.23595938,-1.516625524,1.55870223,-0.8764204979,2024-06-04 16:17:53.235959
3.276469692,-1.328079224,2.312487841,-0.6195661426,2024-06-04 16:17:53.276470
3.316957817,-0.9415328503,1.88559556,-0.2880123854,2024-06-04 16:17:53.316958
3.357437765,-0.7969274521,0.9628375173,-0.1274285018,2024-06-04 16:17:53.357438
3.397915734,-0.8001231551,0.3672390878,-0.2115819156,2024-06-04 16:17:53.397916
3.438406463,-0.7745575905,-0.01944050193,-0.2291582525,2024-06-04 16:17:53.438406
3.478902765,-0.8595098853,0.03275591508,-0.3197030723,2024-06-04 16:17:53.478903
3.51939938,-0.8808145523,0.3589835167,-0.2041252851,2024-06-04 16:17:53.519399
3.559898547,-0.7700303197,0.3975982368,-0.0713706091,2024-06-04 16:17:53.559899
3.600366672,-0.6202319264,0.1712362021,-0.1159772426,2024-06-04 16:17:53.600367
3.640847192,-0.5009258389,0.009320789017,-0.167374745,2024-06-04 16:17:53.640847
3.681355213,-0.4367455542,-0.02716344222,-0.2757622004,2024-06-04 16:17:53.681355
3.721851307,-0.339276731,0.0926752761,-0.3585840762,2024-06-04 16:17:53.721851
3.762326515,-0.1195724085,0.3190372884,-0.3412740231,2024-06-04 16:17:53.762327
3.802820995,0.1577876359,0.447930485,-0.2017285079,2024-06-04 16:17:53.802821
3.843300838,0.229424566,0.3858806491,-0.2147776037,2024-06-04 16:17:53.843301
3.883805474,0.418769747,0.3778914213,0.0980014354,2024-06-04 16:17:53.883805
3.924297817,0.164179042,0.5561847687,-0.006125089712,2024-06-04 16:17:53.924298
3.964796672,0.1308905035,0.2194380015,0.2660419345,2024-06-04 16:17:53.964797
4.00528287,0.4400743842,0.1150451675,0.2833519876,2024-06-04 16:17:54.005283
4.045742453,0.1229012609,0.6278216839,0.4327509105,2024-06-04 16:17:54.045742
4.086250213,-0.02623136342,0.3512606025,0.5191679597,2024-06-04 16:17:54.086250
4.126753182,0.3945356905,-0.01517957076,0.8491238952,2024-06-04 16:17:54.126753
4.167237817,0.9155677557,0.1177082509,1.002783775,2024-06-04 16:17:54.167238
4.207732922,0.9041165113,-0.2832188308,0.6267564893,2024-06-04 16:17:54.207733
4.248204276,0.365241766,0.233286038,-0.01065232977,2024-06-04 16:17:54.248204
4.288697036,0.1820216924,0.6179683208,-0.5348801613,2024-06-04 16:17:54.288697
4.329191672,0.1785596907,0.4093157947,-0.385214895,2024-06-04 16:17:54.329192
4.369680838,0.1183740199,-0.03089175746,0.03009283356,2024-06-04 16:17:54.369681
4.410162974,0.382019192,0.2226337045,0.570032835,2024-06-04 16:17:54.410163
4.450643599,0.4587159753,-0.2861482203,0.7465952039,2024-06-04 16:17:54.450644
4.491123755,0.2600499988,-0.2605826259,0.5756253004,2024-06-04 16:17:54.491124
4.531628182,0.159651801,-0.2302234918,0.3997286856,2024-06-04 16:17:54.531628
4.572118651,0.2496639937,-0.142874375,0.3491301239,2024-06-04 16:17:54.572119
4.612596099,0.3724320829,-0.4978632927,0.4481967986,2024-06-04 16:17:54.612596
4.653092922,0.2890776098,-0.4014596939,0.4830831885,2024-06-04 16:17:54.653093
4.693589172,-0.02676397935,-0.2371474952,0.08335448056,2024-06-04 16:17:54.693589
4.734094484,-0.145404309,-0.5862776041,-0.056723658,2024-06-04 16:17:54.734094
4.774575734,-0.4652405083,-0.3103822768,-0.02742975019,2024-06-04 16:17:54.774576
4.81505438,-0.3126458824,-0.9669652581,0.1672415882,2024-06-04 16:17:54.815054
4.855548442,-0.1765623689,-1.112902164,0.134485662,2024-06-04 16:17:54.855548
4.896044276,-0.03661738336,-1.166430116,0.1933397949,2024-06-04 16:17:54.896044
4.936522609,-0.08295502514,-0.9997211695,0.1999974996,2024-06-04 16:17:54.936523
4.977007036,0.02596505545,-0.6328815818,0.2183727771,2024-06-04 16:17:54.977007
5.017502817,-0.02969337068,-0.7890713811,0.2529928386,2024-06-04 16:17:55.017503
5.057987609,-0.0275629051,-0.6896052361,-0.0146469539,2024-06-04 16:17:55.057988
5.098472817,0.1833532304,-0.850055933,0.0458050184,2024-06-04 16:17:55.098473
5.138968182,0.02090519853,-0.2842840552,0.2711018026,2024-06-04 16:17:55.138968
5.179455109,-0.01185071748,-0.2371474952,0.1541924775,2024-06-04 16:17:55.179455
5.219930526,0.3644428551,-0.3159747422,0.5729622245,2024-06-04 16:17:55.219931
5.260417713,0.3825518191,-0.4430037737,0.4639089704,2024-06-04 16:17:55.260418
5.300904328,0.2813546658,-0.352991581,0.2023942769,2024-06-04 16:17:55.300904
5.341436255,-0.0352858454,-0.3708342612,-0.1282274276,2024-06-04 16:17:55.341436
5.381899276,-0.6018566489,0.164844811,-0.39746508,2024-06-04 16:17:55.381899
5.422412765,-1.125019193,1.201316595,-0.5231625438,2024-06-04 16:17:55.422413
5.462889172,-1.302646875,1.325149894,-0.7520545125,2024-06-04 16:17:55.462889
5.503351411,-1.377878904,1.564028382,-0.7698971629,2024-06-04 16:17:55.503351
5.543870942,-1.33526957,1.64179039,-0.7512555718,2024-06-04 16:17:55.543871
5.584366984,-0.9662995338,1.13633728,-0.6376751065,2024-06-04 16:17:55.584367
5.624823286,-0.8014547229,0.6456643939,-0.8388710022,2024-06-04 16:17:55.624823
5.66532464,-0.7862751484,0.5066514611,-0.8820129633,2024-06-04 16:17:55.665325
5.70583188,-0.8664339185,0.3829512596,-0.9089100957,2024-06-04 16:17:55.705832
5.746305161,-0.8243572116,0.527423501,-0.9722914696,2024-06-04 16:17:55.746305
5.786792192,-0.8403357267,0.6456643939,-0.9267527461,2024-06-04 16:17:55.786792
5.827292817,-0.4809527099,0.01651111245,-0.698659718,2024-06-04 16:17:55.827293
5.867782088,-0.4838820994,-0.7117088437,-0.6099790335,2024-06-04 16:17:55.867782
5.908272974,-0.4428706169,-0.3583177626,-0.4043890834,2024-06-04 16:17:55.908273
5.948743911,-0.4471315742,-0.2784252763,-0.4363460839,2024-06-04 16:17:55.948744
5.989242713,-0.3818860352,-0.3604482114,-0.3721657991,2024-06-04 16:17:55.989243
6.029709172,-0.3121132851,-0.2523270845,-0.3966661394,2024-06-04 16:17:56.029709
6.07019438,-0.5049204826,-0.3436708152,-0.389742136,2024-06-04 16:17:56.070194
6.110691099,-0.4998605847,-0.6461969614,-0.2704360485,2024-06-04 16:17:56.110691
6.151219328,-0.3592498302,0.1328878254,-0.4651073813,2024-06-04 16:17:56.151219
6.19170188,-0.1944050342,0.2719007432,-0.4339492917,2024-06-04 16:17:56.191702
6.232157765,-0.02569874749,0.5047873259,-0.1665758193,2024-06-04 16:17:56.232158
6.272679901,-0.02063889056,0.1456706226,-0.2344844192,2024-06-04 16:17:56.272680
6.313154224,-0.09427312016,-0.2762948275,-0.07696308941,2024-06-04 16:17:56.313154
6.35366063,0.02250304818,-0.4299546778,-0.08495233208,2024-06-04 16:17:56.353661
6.394127297,0.1556571722,-0.3236976862,-0.1221023351,2024-06-04 16:17:56.394127
6.434637245,0.6087806821,-0.2011958808,0.2207695395,2024-06-04 16:17:56.434637
6.475136255,0.9579107761,0.1065233052,0.5077167153,2024-06-04 16:17:56.475136
6.515592661,0.6202319264,-0.0487344116,0.4157072008,2024-06-04 16:17:56.515593
6.556091672,1.128081799,0.3352820873,0.6778876781,2024-06-04 16:17:56.556092
6.596598182,0.5323501825,0.1765623689,0.2394111156,2024-06-04 16:17:56.596598
6.637079224,0.9065132737,-0.5178363919,0.4303541481,2024-06-04 16:17:56.637079
6.677533078,1.155378342,-0.1410102248,0.6027887464,2024-06-04 16:17:56.677533
6.71804912,1.079613686,0.5002600551,0.6797518134,2024-06-04 16:17:56.718049
6.758538755,1.224618554,0.4596480429,0.8328790665,2024-06-04 16:17:56.758539
6.799027401,1.487464786,0.5300865769,1.135272145,2024-06-04 16:17:56.799027
6.839527609,1.616357923,-0.224897325,1.243393302,2024-06-04 16:17:56.839528
6.880008026,1.347919226,-0.1580539495,1.168294311,2024-06-04 16:17:56.880008
6.920494484,1.324750423,0.4959991276,0.9548482299,2024-06-04 16:17:56.920494
6.961011672,1.057510138,-0.3442034125,1.299850583,2024-06-04 16:17:56.961012
7.001491411,0.7595111728,-2.531526327,0.3848154247,2024-06-04 16:17:57.001491
7.041984692,0.1167761683,-0.3418066502,-0.04926702753,2024-06-04 16:17:57.041985
7.082472453,-0.6905373335,1.560832739,-0.07962616533,2024-06-04 16:17:57.082472
7.12295787,-1.19239521,1.965221763,-0.634745717,2024-06-04 16:17:57.122958
7.163456567,-1.387732267,2.377866507,-0.8423330188,2024-06-04 16:17:57.163457
7.203934536,-1.117296338,1.911427498,-0.7087793946,2024-06-04 16:17:57.203935
7.244434484,-0.7127740383,0.7069152594,-0.883610785,2024-06-04 16:17:57.244434
7.284931359,-0.7354102731,0.09081111848,-1.18240869,2024-06-04 16:17:57.284931
7.325404901,-0.8808145523,0.1874810159,-1.250317216,2024-06-04 16:17:57.325405
7.365895422,-1.018762231,0.148067385,-1.135005832,2024-06-04 16:17:57.365895
7.40637464,-0.8443303108,0.01624480449,-1.069760323,2024-06-04 16:17:57.406375
7.446870057,-0.4631100595,-0.7850767374,-1.154712558,2024-06-04 16:17:57.446870
7.487355317,-0.3459344208,-1.139000416,-0.859110415,2024-06-04 16:17:57.487355
7.527848442,-0.2886781394,-0.2800231278,-0.7448641658,2024-06-04 16:17:57.527848
7.568334588,-0.4854799509,-0.08655018359,-0.8647028804,2024-06-04 16:17:57.568335
7.608806515,-0.5539211631,0.09906667471,-0.7432663441,2024-06-04 16:17:57.608807
7.649294067,-0.4045222402,-0.146070078,-0.8045172691,2024-06-04 16:17:57.649294
7.689797661,-0.1113168523,0.4870778024,-0.5492607951,2024-06-04 16:17:57.689798
7.730302245,-0.07123745978,0.1014634445,-0.4368786812,2024-06-04 16:17:57.730302
7.770774797,-0.0845528692,-0.4219654202,-0.4014596939,2024-06-04 16:17:57.770775
7.811264745,0.01424749196,-0.3966661394,-0.37296471,2024-06-04 16:17:57.811265
7.851774692,0.4153077304,-0.3599156141,-0.0330222249,2024-06-04 16:17:57.851775
7.892269953,0.7464620471,-0.1011971384,0.3701684773,2024-06-04 16:17:57.892270
7.932763026,0.7832126021,-0.2280930281,0.7250242233,2024-06-04 16:17:57.932763
7.973241151,0.9011871219,-0.6778876781,1.127282858,2024-06-04 16:17:57.973241
8.013715526,0.8697627783,-0.4419385493,1.509435177,2024-06-04 16:17:58.013716
8.054210942,0.7027874589,-0.665104866,1.356840611,2024-06-04 16:17:58.054211
8.09470464,0.8939968348,-0.2973331809,1.367226601,2024-06-04 16:17:58.094705
8.135190526,1.208373666,-0.217174381,1.379210472,2024-06-04 16:17:58.135191
8.175684901,1.130079031,0.3443365693,1.538995385,2024-06-04 16:17:58.175685
8.216191359,0.8844097257,0.4026580751,1.029680848,2024-06-04 16:17:58.216191
8.256677349,1.083341956,0.9252880216,1.615159631,2024-06-04 16:17:58.256677
8.297143286,1.386800289,-0.7722939253,1.592257023,2024-06-04 16:17:58.297143
8.337637922,1.179878712,-2.687716007,0.6363435984,2024-06-04 16:17:58.337638
8.378123026,0.3889431953,-0.5322170258,0.3339505494,2024-06-04 16:17:58.378123
8.418606672,-0.5422036052,1.09066546,-0.07190322876,2024-06-04 16:17:58.418607
8.459096411,-0.9489894509,1.586664557,-0.6328815818,2024-06-04 16:17:58.459096
8.499580578,-1.281342149,1.95909667,-1.110239148,2024-06-04 16:17:58.499581
8.540089432,-1.185737491,1.951906323,-1.297986388,2024-06-04 16:17:58.540089
8.580606151,-0.8941299915,1.118228316,-1.302247405,2024-06-04 16:17:58.580606
8.621052765,-0.5850792527,0.7721607685,-1.316627979,2024-06-04 16:17:58.621053
8.661531099,-0.599193573,0.2055899799,-1.068961382,2024-06-04 16:17:58.661531
8.702025578,-0.6274222732,-0.3034582436,-1.204778552,2024-06-04 16:17:58.702026
8.742515213,-0.9652342796,-0.800788939,-1.681070924,2024-06-04 16:17:58.742515
8.783037401,-1.028082967,-1.598515272,-0.975487113,2024-06-04 16:17:58.783037
8.823515317,-1.089866519,-1.790523529,-0.7344781756,2024-06-04 16:17:58.823515
8.86400063,-0.7138392925,-0.7288857102,-0.6509905457,2024-06-04 16:17:58.864001
8.904484849,-0.4540555775,0.710909903,-0.4600475132,2024-06-04 16:17:58.904485
8.945007557,-0.413044095,0.6368761659,-0.5801525116,2024-06-04 16:17:58.945008
8.985476932,-0.3608476818,0.07856093347,-0.8974588513,2024-06-04 16:17:58.985477
9.025963859,-0.3640433848,0.03142437339,-0.7435326576,2024-06-04 16:17:59.025964
9.066440942,-0.2860150635,-0.1881467849,-0.4789553881,2024-06-04 16:17:59.066441
9.106919328,0.01504641678,-0.5527228117,-0.03834838793,2024-06-04 16:17:59.106919
9.147428911,0.3250292242,-0.4725640118,0.6659038067,2024-06-04 16:17:59.147429
9.18791089,0.8173000216,-0.1244991124,1.245523691,2024-06-04 16:17:59.187911
9.22838412,0.7259563208,0.06178351492,0.9641690254,2024-06-04 16:17:59.228384
9.268912609,0.9054480791,-0.1617822647,0.6943987608,2024-06-04 16:17:59.268913
9.309366672,1.031145573,-0.2826862037,0.9244890809,2024-06-04 16:17:59.309367
9.34991438,1.003982067,0.07616416365,1.093328595,2024-06-04 16:17:59.349914
9.390323026,1.084673524,0.5825493336,1.452977896,2024-06-04 16:17:59.390323
9.430846984,1.256575465,0.2050573528,1.852307081,2024-06-04 16:17:59.430847
9.471372349,1.202248573,-1.047922969,1.656703711,2024-06-04 16:17:59.471372
9.51178313,1.372153282,0.03994623944,1.219958067,2024-06-04 16:17:59.511783
9.552337922,1.338065863,-0.9459269047,1.553376079,2024-06-04 16:17:59.552338
9.592781984,1.079347372,-2.548836231,0.6765561104,2024-06-04 16:17:59.592782
9.633311515,-0.02037258074,-0.3210346103,-0.2219679356,2024-06-04 16:17:59.633312
9.67373537,-0.9532504082,1.28254056,-0.4501941204,2024-06-04 16:17:59.673735
9.71428037,-1.327280402,2.353099823,-0.7890713811,2024-06-04 16:17:59.714280
9.754768442,-1.578675389,2.459356785,-1.182142377,2024-06-04 16:17:59.754768
9.79525464,-1.233672976,1.459369302,-1.455774069,2024-06-04 16:17:59.795255
9.835780005,-0.7790848017,0.3960003853,-1.723413825,2024-06-04 16:17:59.835780
9.876226672,-0.7854762077,0.248199299,-1.895182729,2024-06-04 16:17:59.876227
9.916708338,-0.4260932207,-0.3961335421,-1.973876834,2024-06-04 16:17:59.916708
9.957205213,-0.3081186414,-1.221289635,-1.709565878,2024-06-04 16:17:59.957205
9.99768287,-0.7916013002,-0.8215609789,-1.22022438,2024-06-04 16:17:59.997683
10.03816667,-0.9327446818,-0.6544525623,-0.8367405534,2024-06-04 16:18:00.038167
10.07867547,-0.8302159905,0.2964010835,-0.4099815488,2024-06-04 16:18:00.078675
10.11919157,-0.5358121991,0.2157096863,0.1177082509,2024-06-04 16:18:00.119192
10.15966839,-0.3893426657,0.2045247406,0.3909405172,2024-06-04 16:18:00.159668
10.20015469,-0.4378107786,0.1976007223,0.09240896255,2024-06-04 16:18:00.200155
10.24062568,-0.09187635034,-0.2107829899,0.2495308369,2024-06-04 16:18:00.240626
10.2811324,0.2957353294,-0.2680392563,0.3299559355,2024-06-04 16:18:00.281132
10.32162178,0.01957365684,-0.3748288751,0.2998631001,2024-06-04 16:18:00.321622
10.36211964,0.04220985994,0.1430075318,0.6629744172,2024-06-04 16:18:00.362120
10.40261881,-0.240476355,-0.1308905035,0.5953320861,2024-06-04 16:18:00.402619
10.44308797,-0.213312909,-0.1476679295,0.3624455333,2024-06-04 16:18:00.443088
10.48358823,0.008655018173,-0.05086487532,0.2987978756,2024-06-04 16:18:00.483588
10.52405839,-0.1142462417,0.2937380075,0.5884081125,2024-06-04 16:18:00.524058
10.56453308,-0.07070484012,0.1880136281,0.4609795809,2024-06-04 16:18:00.564533
10.6050275,0.3354152441,-0.3202356696,0.3411408663,2024-06-04 16:18:00.605028
10.64549402,-0.05312849581,0.2386122048,0.2372806519,2024-06-04 16:18:00.645494
10.68599157,0.3495295942,0.2993304729,0.4263595045,2024-06-04 16:18:00.685992
10.72651115,0.3926715255,0.2295577228,0.3121132851,2024-06-04 16:18:00.726511
10.76701355,0.3577851355,0.3840165138,0.446598947,2024-06-04 16:18:00.767014
10.80748995,0.3157084286,0.2655093372,0.3826849759,2024-06-04 16:18:00.807490
10.84798766,0.1306242049,-0.03675054014,0.4977301359,2024-06-04 16:18:00.847988
10.88846646,0.3569862247,0.9476579428,0.5442008972,2024-06-04 16:18:00.888466
10.92894053,0.6228950024,-0.07962616533,0.5774894357,2024-06-04 16:18:00.928941
10.96943995,0.4025249183,0.9428643584,0.4210333526,2024-06-04 16:18:00.969440
11.00994735,0.4286231399,0.0817566365,0.3525921404,2024-06-04 16:18:01.009947
11.05042907,0.3894758224,-0.0181089621,0.24234052,2024-06-04 16:18:01.050429
11.09088428,0.2182396203,-0.2741643488,0.03462007269,2024-06-04 16:18:01.090884
11.13141037,0.250729233,-0.2616478503,-0.05698996782,2024-06-04 16:18:01.131410
11.17193256,0.2637783289,-0.3074528873,-0.1025286764,2024-06-04 16:18:01.171933
11.21238183,0.2640446424,-0.1615159512,-0.02822867595,2024-06-04 16:18:01.212382
11.25286167,0.1942718774,-0.02769605815,0.0007989247679,2024-06-04 16:18:01.252862
11.29335672,0.1274285018,0.155790329,0.02077204362,2024-06-04 16:18:01.293357
11.33384959,0.1809564531,-0.05139749497,0.05299534276,2024-06-04 16:18:01.333850
11.37434433,0.141542837,-0.06684337556,0.01384802908,2024-06-04 16:18:01.374344
11.41483714,0.1631138027,-0.4853467941,0.04394086078,2024-06-04 16:18:01.414837
11.4553198,-0.2609820962,-0.07909355313,-0.1852173954,2024-06-04 16:18:01.455320
11.49580485,-0.06777545065,-0.1282274276,0.06764229387,2024-06-04 16:18:01.495805
11.53628787,-0.05872096866,-0.2272941023,-0.1745650619,2024-06-04 16:18:01.536288
11.57677954,-0.09533835202,0.07802832127,-0.09720251709,2024-06-04 16:18:01.576780
11.61725417,-0.02889444493,-0.3588503897,0.02050573565,2024-06-04 16:18:01.617254
11.65770823,-0.09161003679,0.4117125571,0.03541899845,2024-06-04 16:18:01.657708
11.69825761,0.03288906813,0.01651111245,0.1113168523,2024-06-04 16:18:01.698258
11.7387636,0.1559234858,0.4774906933,0.1283605844,2024-06-04 16:18:01.738764
11.77924047,0.1604507267,-0.4464657903,0.09320788831,2024-06-04 16:18:01.779240
11.81971448,0.07629731297,0.7165023685,0.04607132822,2024-06-04 16:18:01.819714
11.86018693,0.4046553969,-0.1865489334,0.5359453559,2024-06-04 16:18:01.860187
11.90066829,0.2661750913,0.5689675808,0.4942681193,2024-06-04 16:18:01.900668
11.94123641,0.05605788901,-0.03435376659,0.2418078929,2024-06-04 16:18:01.941236
11.98166079,0.3660407066,-0.1508636326,0.5351464152,2024-06-04 16:18:01.981661
12.0221786,0.6149057746,0.1701709777,0.790536046,2024-06-04 16:18:02.022179
12.06267844,1.514095545,-0.5607120395,1.214631915,2024-06-04 16:18:02.062678
12.10313526,0.810642302,1.484934807,0.9705604315,2024-06-04 16:18:02.103135
12.14365912,0.7414022088,0.1962691844,0.5197005868,2024-06-04 16:18:02.143659
12.18412058,0.9483237267,-0.04713656008,0.8334116936,2024-06-04 16:18:02.184121
12.22459558,0.7432663441,-0.2411421239,0.8786841035,2024-06-04 16:18:02.224596
12.26512204,1.404909253,-1.351381302,0.8906679749,2024-06-04 16:18:02.265122
12.30557308,1.048189282,-0.08868064731,0.4993279874,2024-06-04 16:18:02.305573
12.34606126,1.249118924,-0.8636376858,1.33526957,2024-06-04 16:18:02.346061
12.38655006,1.038069606,-1.358571529,1.488663197,2024-06-04 16:18:02.386550
12.42703219,1.265363693,-1.679206729,0.9516525269,2024-06-04 16:18:02.427032
12.46753891,1.119293571,-0.9904004335,0.6432675719,2024-06-04 16:18:02.467539
12.50802969,0.8497896194,-0.2374138087,0.5718969703,2024-06-04 16:18:02.508030
12.54854475,0.3386109471,0.3944025338,0.426625818,2024-06-04 16:18:02.548545
12.58901891,-0.3139774203,0.7034532428,-0.001597849536,2024-06-04 16:18:02.589019
12.62946943,-0.8411346078,1.374416947,-0.5726959109,2024-06-04 16:18:02.629469
12.66996907,-1.110105991,0.4852136374,-0.6978607774,2024-06-04 16:18:02.669969
12.71045865,-1.413297892,0.8637708426,-1.008509398,2024-06-04 16:18:02.710459
12.7509499,-1.573082924,0.8435314298,-1.034074903,2024-06-04 16:18:02.750950
12.79143943,-1.652709007,1.481206536,-1.16083765,2024-06-04 16:18:02.791439
12.83192896,-1.480940223,1.059241056,-1.330875516,2024-06-04 16:18:02.831929
12.87242672,-1.024354696,0.579087317,-1.567357183,2024-06-04 16:18:02.872427
12.91292318,-0.648194313,0.8475260139,-1.456306696,2024-06-04 16:18:02.912923
12.9534087,-0.4753602445,0.1387466043,-1.161902905,2024-06-04 16:18:02.953409
12.99389563,-0.5619103909,0.05352795869,-1.118228316,2024-06-04 16:18:02.993896
13.03436964,-0.4503272474,-0.2467346042,-0.4328840673,2024-06-04 16:18:03.034370
13.0748787,-0.2987978756,-0.3213009238,-0.104392834,2024-06-04 16:18:03.074879
13.11540011,0.05605788901,-0.2762948275,0.3467333615,2024-06-04 16:18:03.115400
13.15586292,0.6612433791,-0.3106485903,0.7892045379,2024-06-04 16:18:03.155863
13.19637917,0.932078898,-0.01784265228,0.8509880304,2024-06-04 16:18:03.196379
13.23685547,1.041531563,0.1041265279,0.8155690432,2024-06-04 16:18:03.236855
13.2773374,1.15005219,-0.146070078,0.7817478776,2024-06-04 16:18:03.277337
13.31787428,0.9653674364,-0.3524589837,0.6848116517,2024-06-04 16:18:03.317874
13.35831615,0.8753552437,-0.3231650591,0.6765561104,2024-06-04 16:18:03.358316
13.39878027,0.7414022088,-0.3386109471,0.7111762166,2024-06-04 16:18:03.398780
13.43929344,0.7339455485,-0.3418066502,0.8411346078,2024-06-04 16:18:03.439293
13.47979073,0.6002588272,-0.5236951709,1.133674264,2024-06-04 16:18:03.479791
13.5202798,1.054048061,-1.30997026,1.438597202,2024-06-04 16:18:03.520280
13.56070678,0.9765523672,-1.136070967,1.192528367,2024-06-04 16:18:03.560707
13.60127464,0.8223599195,-0.2187722325,1.054447532,2024-06-04 16:18:03.601275
13.64173855,0.4904066622,0.1991985738,0.9918650985,2024-06-04 16:18:03.641739
13.68221558,0.009720250964,0.6222292185,0.5828156471,2024-06-04 16:18:03.682216
13.72270365,-0.3970656097,0.5444672108,0.06391397864,2024-06-04 16:18:03.722704
13.76317912,-0.5448666811,0.4933360517,-0.5010589957,2024-06-04 16:18:03.763179
13.80367141,-0.663906455,0.7487256527,-0.8444634676,2024-06-04 16:18:03.803671
13.84416839,-0.747926712,0.9657669067,-1.115298986,2024-06-04 16:18:03.844168
13.88465928,-0.8155690432,0.8621729612,-1.300649524,2024-06-04 16:18:03.884659
13.92514527,-0.8355421424,0.628354311,-1.516492367,2024-06-04 16:18:03.925145
13.96563745,-0.826753974,0.5623098612,-1.715158343,2024-06-04 16:18:03.965637
14.00611417,-0.8840102553,0.5324833393,-1.821148992,2024-06-04 16:18:04.006114
14.04660636,-0.9143694043,0.3440702558,-1.695984125,2024-06-04 16:18:04.046606
14.08710803,-0.8808145523,0.2745638192,-1.475480914,2024-06-04 16:18:04.087108
14.12761948,-0.7441984415,0.04074516147,-1.12595129,2024-06-04 16:18:04.127619
14.16812896,-0.5621767044,0.07163692266,-0.9315462708,2024-06-04 16:18:04.168129
14.20857198,-0.4250279665,0.2303566486,-0.8460613489,2024-06-04 16:18:04.208572
14.2490837,-0.2527265251,0.199731186,-0.6232944727,2024-06-04 16:18:04.249084
14.28956016,0.004660394508,0.134485662,-0.4536561072,2024-06-04 16:18:04.289560
14.33005105,0.2531259954,0.03328853101,-0.2235657871,2024-06-04 16:18:04.330051
14.37052797,0.3082517982,-0.09347419441,0.01517957076,2024-06-04 16:18:04.370528
14.41103204,0.2299571782,-0.09187635034,0.1081211492,2024-06-04 16:18:04.411032
14.45152047,0.1354177445,-0.1394123733,0.09587097168,2024-06-04 16:18:04.451520
14.49199959,0.02010627277,-0.08548495173,-0.0037283157,2024-06-04 16:18:04.492000
14.53248511,-0.0926752761,-0.3122464418,-0.1652442664,2024-06-04 16:18:04.532485
14.57298094,-0.317972064,-0.2810883522,-0.2259625494,2024-06-04 16:18:04.572981
14.61347667,-0.4852136374,-0.368437469,-0.3170399666,2024-06-04 16:18:04.613477
14.6539187,-0.4820179343,-0.3258281648,-0.2912080884,2024-06-04 16:18:04.653919
14.69444266,-0.328358084,-0.1378145218,-0.1724345982,2024-06-04 16:18:04.694443
14.73494037,-0.1334204376,-0.3210346103,0.009054481052,2024-06-04 16:18:04.734940
14.77543886,0.04993279651,0.01970681176,0.1507304758,2024-06-04 16:18:04.775439
14.81593318,0.002263620263,-0.1607170254,0.2085193694,2024-06-04 16:18:04.815933
14.8564099,-0.1459369212,-0.1593854874,0.05033225939,2024-06-04 16:18:04.856410
14.89689719,-0.1904104054,-0.09453943372,0.02396774292,2024-06-04 16:18:04.896897
14.93739938,-0.2476666719,-0.1439396143,-0.04447348043,2024-06-04 16:18:04.937399
14.9778712,-0.2950695455,-0.02556559257,-0.01118494663,2024-06-04 16:18:04.977871
15.01835855,-0.2609820962,0.1110505462,0.03142437339,2024-06-04 16:18:05.018359
15.05884652,-0.1675078869,0.06870753318,0.07962616533,2024-06-04 16:18:05.058847
15.09933605,-0.08215609938,0.09187635034,0.09134373069,2024-06-04 16:18:05.099336
15.13983657,-0.02995967865,0.1515294015,0.06977276504,2024-06-04 16:18:05.139837
15.18032735,0.02410089783,0.1198387146,0.05565842614,2024-06-04 16:18:05.180327
15.22083245,0.06378082931,0.1416759938,0.04953333735,2024-06-04 16:18:05.220832
15.2613261,0.084020257,0.1379476786,0.07962616533,2024-06-04 16:18:05.261326
15.3017798,0.03315537795,0.1773612946,0.05885412544,2024-06-04 16:18:05.301780
15.34226568,0.002796236658,0.1850842386,0.02876129188,2024-06-04 16:18:05.342266
15.38277047,0.03768261895,0.1158440933,0.008521864191,2024-06-04 16:18:05.382770
15.42322615,-0.1073222235,0.1097190008,-0.2675066292,2024-06-04 16:18:05.423226
15.46376579,-0.02303566411,0.1643121988,-0.1247654185,2024-06-04 16:18:05.463766
15.50425079,0.2019948065,0.1925408691,0.1137136221,2024-06-04 16:18:05.504251
15.54474829,0.2999962568,0.3312874734,0.1549914032,2024-06-04 16:18:05.544748
15.58519678,0.2906754613,0.03328853101,0.2063889056,2024-06-04 16:18:05.585197
15.62572521,0.1458037645,0.1991985738,0.02769605815,2024-06-04 16:18:05.625725
15.6661412,0.1575213373,-0.05246272683,-0.009587096982,2024-06-04 16:18:05.666141
15.70669183,-0.07975932211,-0.004527240526,-0.08149032295,2024-06-04 16:18:05.706692
15.74720823,-0.03075860441,-0.05885412544,0.1003982127,2024-06-04 16:18:05.747208
15.78766089,-0.0541937314,-0.2848166823,0.01331541315,2024-06-04 16:18:05.787661
15.82815297,-0.0006657706108,0.04447348043,0.01225017942,2024-06-04 16:18:05.828153
15.8686375,-0.06937330216,0.04287562892,-0.03808208182,2024-06-04 16:18:05.868638
15.9091398,-0.03981308267,-0.1577876359,-0.0713706091,2024-06-04 16:18:05.909140
15.94960089,-0.108920075,-0.02742975019,-0.03621792421,2024-06-04 16:18:05.949601
15.99009896,-0.1193061024,0.07509893179,0.08761541545,2024-06-04 16:18:05.990099
16.03057954,-0.06511236727,0.1517957002,0.2399437428,2024-06-04 16:18:06.030580
16.07107146,0.1489994675,0.03754946589,0.3573856652,2024-06-04 16:18:06.071071
16.11158443,0.1926740259,0.03941362351,0.2801562846,2024-06-04 16:18:06.111584
16.15206329,0.1189066395,0.02929390781,0.1310236603,2024-06-04 16:18:06.152063
16.1925573,0.06324820966,0.04207670316,0.02263620123,2024-06-04 16:18:06.192557
16.23303073,0.06777545065,0.05379426852,-0.07563154399,2024-06-04 16:18:06.233031
16.27353922,0.0544600375,0.113447316,-0.1098521575,2024-06-04 16:18:06.273539
16.31402855,0.04460663348,0.1110505462,-0.1785596907,2024-06-04 16:18:06.314029
16.35452584,0.06058513001,0.06817491353,-0.158320263,2024-06-04 16:18:06.354526
16.3950062,0.06804175675,0.1611164957,-0.07003907114,2024-06-04 16:18:06.395006
16.435501,0.02463351376,0.1174419373,0.01278279629,2024-06-04 16:18:06.435501
16.47596391,0.04593817517,0.213312909,0.1102516204,2024-06-04 16:18:06.475964
16.5164548,0.05019910634,0.08708280325,0.1336867511,2024-06-04 16:18:06.516455
16.55696063,0.07869409025,-0.006924014539,0.08894696087,2024-06-04 16:18:06.556961
16.597436,0.06058513001,-0.04394086078,-0.01438064594,2024-06-04 16:18:06.597436
16.63791209,0.03342168778,-0.0487344116,-0.09533835202,2024-06-04 16:18:06.637912
16.67837719,0.05366111174,0.03888100386,-0.1085206121,2024-06-04 16:18:06.678377
16.7189023,0.05898727849,0.1065233052,-0.112781547,2024-06-04 16:18:06.718902
16.75939355,0.06271559745,0.1406107545,-0.1106510833,2024-06-04 16:18:06.759394
16.79987276,0.06031882018,0.1256974936,-0.07909355313,2024-06-04 16:18:06.799873
16.8403585,0.02569874749,0.1536598653,-0.04527240247,2024-06-04 16:18:06.840359
16.88085146,0.02782921307,0.1270290315,-0.01198387146,2024-06-04 16:18:06.880851
16.92134073,0.0954715088,0.1091863886,0.04607132822,2024-06-04 16:18:06.921341
16.96183792,0.1287600398,0.09986559302,0.06790860742,2024-06-04 16:18:06.961838
17.00233469,0.07709623873,0.04527240247,0.006125089712,2024-06-04 16:18:07.002335
17.04284073,-0.003861469682,0.04021254554,-0.07456631213,2024-06-04 16:18:07.042841
17.08330787,0.009187635034,0.06151720881,-0.06284874678,2024-06-04 16:18:07.083308
17.12381344,0.05659050494,0.1131810099,-0.04074516147,2024-06-04 16:18:07.123813
17.16431761,0.08694964647,0.07403369248,-0.03142437339,2024-06-04 16:18:07.164318
17.20479079,0.05978620425,0.08441971987,-0.05139749497,2024-06-04 16:18:07.204791
17.24526266,0.08242240548,0.09560466558,-0.03408745676,2024-06-04 16:18:07.245263
17.28575725,0.09014534205,0.164844811,-0.01038602181,2024-06-04 16:18:07.285757
17.3262512,0.1154446304,0.1565892547,-0.01571218669,2024-06-04 16:18:07.326251
17.36674948,0.1202381775,0.1882799417,-0.03435376659,2024-06-04 16:18:07.366749
17.4072149,0.1111836955,0.1597849578,-0.05592473224,2024-06-04 16:18:07.407215
17.44773558,0.1364829838,0.1869483888,-0.02396774292,2024-06-04 16:18:07.447736
17.48821589,0.1998643428,0.2279598713,0.006125089712,2024-06-04 16:18:07.488216
17.52870558,0.2190385461,0.199731186,0.009853405878,2024-06-04 16:18:07.528706
17.56918865,0.2091851383,0.208785668,-0.02689713426,2024-06-04 16:18:07.569189
17.6096985,0.1945381761,0.2306229472,-0.0298265256,2024-06-04 16:18:07.609699
17.65014954,0.2198374718,0.2660419345,0.01784265228,2024-06-04 16:18:07.650150
17.69061995,0.2382127345,0.1930734813,0.07483261824,2024-06-04 16:18:07.690620
17.73114365,0.2573869228,0.1448716968,0.1387466043,2024-06-04 16:18:07.731144
17.77163584,0.1671084315,0.03062544949,0.1552577168,2024-06-04 16:18:07.771636
17.81212782,0.09999874979,0.09880036116,0.1789591461,2024-06-04 16:18:07.812128
17.85261969,0.084020257,0.009320789017,0.1781602204,2024-06-04 16:18:07.852620
17.89309662,0.09387365729,0.04793548584,0.1629806459,2024-06-04 16:18:07.893097
17.93358683,0.1335535944,0.01304910425,0.1491326243,2024-06-04 16:18:07.933587
17.97410594,0.1396786869,-0.018907886,0.09427312016,2024-06-04 16:18:07.974106
18.01459657,0.1484668553,-0.06444659829,0.05326165259,2024-06-04 16:18:08.014597
18.05505839,0.1423417628,-0.03541899845,0.03275591508,2024-06-04 16:18:08.055058
18.09555021,0.08801487833,0.0149132628,-0.0074566314,2024-06-04 16:18:08.095550
18.13604084,0.05153064802,0.07376738638,-0.04340824485,2024-06-04 16:18:08.136041
18.17651808,0.03635107726,0.0820229426,-0.01411433797,2024-06-04 16:18:08.176518
18.21700652,0.02223674022,0.137681365,0.02077204362,2024-06-04 16:18:08.217007
18.25749771,0.05872096866,0.1254311949,0.09054480493,2024-06-04 16:18:08.257498
18.29799032,0.06564498693,0.04340824485,0.06284874678,2024-06-04 16:18:08.297990
18.33848834,0.09919982404,0.01517957076,0.004527240526,2024-06-04 16:18:08.338488
18.37900167,0.132488355,-0.03248960897,-0.07643046975,2024-06-04 16:18:08.379002
18.4195012,0.1617822647,0.02423405088,-0.09507204592,2024-06-04 16:18:08.419501
18.45997667,0.2014621943,0.0519301109,-0.07430000603,2024-06-04 16:18:08.459977
18.50046761,0.137015596,0.09853405505,-0.06071828306,2024-06-04 16:18:08.500468
18.54093105,0.03129122034,0.06924014539,-0.04154408723,2024-06-04 16:18:08.540931
18.58140579,-0.01371487509,0.06844121963,0.004527240526,2024-06-04 16:18:08.581406
18.62189948,-0.04007939249,-0.0149132628,-0.005858781748,2024-06-04 16:18:08.621899
18.66239563,-0.06990591437,-0.08734910935,0.02130465955,2024-06-04 16:18:08.662396
18.70288407,-0.08055824786,-0.160983339,0.02077204362,2024-06-04 16:18:08.702884
18.74345386,-0.09187635034,-0.1798912287,0.01331541315,2024-06-04 16:18:08.743454
18.78388047,-0.1025286764,-0.1921414137,0.01251648832,2024-06-04 16:18:08.783880
18.82434553,-0.1153114736,-0.22303316,0.0260982085,2024-06-04 16:18:08.824346
18.86484756,-0.148067385,-0.2589847744,0.06204982474,2024-06-04 16:18:08.864848
18.90534735,-0.1483336985,-0.2898765504,0.1653774232,2024-06-04 16:18:08.905347
18.94584688,-0.08109086752,-0.2501966059,0.3480648994,2024-06-04 16:18:08.945847
18.98630219,-0.1456706226,-0.3159747422,0.3121132851,2024-06-04 16:18:08.986302
19.02681724,-0.07629731297,-0.4864120185,0.4876104295,2024-06-04 16:18:09.026817
19.06728026,0.06085143611,-0.4232969582,0.7346113324,2024-06-04 16:18:09.067280
19.10779641,0.343937099,-0.4991948307,0.7567148805,2024-06-04 16:18:09.107796
19.14829308,0.3228987455,-0.1378145218,0.7239589691,2024-06-04 16:18:09.148293
19.18877636,0.2813546658,-0.1569887102,0.7966611385,2024-06-04 16:18:09.188776
19.22928657,0.3588503897,-0.1210371032,0.9670984149,2024-06-04 16:18:09.229287
19.26973834,0.568834424,-0.3756277859,1.476413012,2024-06-04 16:18:09.269738
19.31022386,0.6194329858,-0.6022561193,1.775610328,2024-06-04 16:18:09.310224
19.35071178,0.6463301182,-0.8063814044,1.62101841,2024-06-04 16:18:09.350712
19.391185,0.7477935553,-1.129945874,1.534734488,2024-06-04 16:18:09.391185
19.43167417,0.694265604,-0.7749570012,1.202914357,2024-06-04 16:18:09.431674
19.47218245,0.4515256584,-0.5111786723,0.5921363831,2024-06-04 16:18:09.472182
19.51269256,0.1213034093,-0.04340824485,0.06444659829,2024-06-04 16:18:09.512693
19.55316261,-0.1272953451,0.643800199,-0.5806851387,2024-06-04 16:18:09.553163
19.59363573,-0.1685731262,0.9836095572,-1.000786424,2024-06-04 16:18:09.593636
19.63414928,0.09307473898,0.6688331962,-0.3354152441,2024-06-04 16:18:09.634149
19.67459579,0.374296248,-0.1420754492,0.05858781561,2024-06-04 16:18:09.674596
19.71512318,0.3540568352,-0.0868164897,0.08335448056,2024-06-04 16:18:09.715123
19.75561126,0.3018604219,0.1035939083,0.07856093347,2024-06-04 16:18:09.755611
19.79612287,0.009187635034,0.1661763489,-0.03834838793,2024-06-04 16:18:09.796123
19.83659896,0.00599193573,-0.1046591476,0.05778888986,2024-06-04 16:18:09.836599
19.87707063,-0.03874785081,-0.4406070113,0.2117150575,2024-06-04 16:18:09.877071
19.9175724,-0.06165036187,-0.4139761925,0.3414071798,2024-06-04 16:18:09.917572
19.95806079,-0.1171756312,-0.506118834,0.5039883852,2024-06-04 16:18:09.958061
19.99853506,-0.04940018058,-0.4746944606,0.3501953483,2024-06-04 16:18:09.998535
20.03905355,0.1181077138,-0.901719749,-0.151928857,2024-06-04 16:18:10.039054
20.07954115,0.1908098608,-1.116097927,-0.39746508,2024-06-04 16:18:10.079541
20.1200148,0.2347507328,-1.066298246,-0.3359478712,2024-06-04 16:18:10.120015
20.16048193,0.4477973282,-0.8985240459,-0.2227668613,2024-06-04 16:18:10.160482
20.20100865,0.4616453648,-1.499182343,-0.2536586225,2024-06-04 16:18:10.201009
20.24150396,0.06804175675,-0.9113068581,-0.03914731368,2024-06-04 16:18:10.241504
20.2819837,-0.3214340508,-0.356187284,0.03621792421,2024-06-04 16:18:10.281984
20.32247636,-0.3456681073,-0.1394123733,0.001597849536,2024-06-04 16:18:10.322476
20.36298714,-0.1395455301,-0.2890776098,-0.1521951705,2024-06-04 16:18:10.362987
20.40342995,-0.01611164957,-0.2209026963,-0.1466026902,2024-06-04 16:18:10.403430
20.44392047,0.04860125855,-0.04500609636,-0.08388710022,2024-06-04 16:18:10.443920
20.48442886,0.05579157919,-0.04553871229,-0.129292652,2024-06-04 16:18:10.484429
20.52493584,0.03129122034,-0.06418029219,-0.1027949899,2024-06-04 16:18:10.524936
20.56540204,-0.08947957307,0.08575125784,-0.04766917601,2024-06-04 16:18:10.565402
20.60590198,-0.09693620354,-0.004793548491,-0.02663082629,2024-06-04 16:18:10.605902
20.64638808,-0.06910699606,0.0005326165119,-0.009054481052,2024-06-04 16:18:10.646388
20.68685198,-0.1006645188,0.09320788831,0.01438064594,2024-06-04 16:18:10.686852
20.72736323,-0.07576470077,-0.1189066395,-0.04074516147,2024-06-04 16:18:10.727363
20.76785058,-0.02303566411,-0.09027849883,-0.04021254554,2024-06-04 16:18:10.767851
20.80838386,-0.01930734888,-0.01091863867,-0.03115806542,2024-06-04 16:18:10.808384
20.84891006,-0.01105179265,-0.01544587873,-0.01651111245,2024-06-04 16:18:10.848910
20.88932745,0.001997311832,0.02236989327,0.002130466048,2024-06-04 16:18:10.889327
20.92982662,-0.04354140162,0.01677742042,-0.005326164886,2024-06-04 16:18:10.929827
20.97028683,-0.028361829,-0.1003982127,-0.007190322969,2024-06-04 16:18:10.970287
21.01077667,0.02010627277,-0.1147788614,0.02742975019,2024-06-04 16:18:11.010777
21.05126714,-0.03928046674,-0.06604444981,0.03914731368,2024-06-04 16:18:11.051267
21.09177172,-0.01904104091,-0.1910761744,0.06364767253,2024-06-04 16:18:11.091772
21.13226006,-0.03422060981,-0.03035914153,0.05912043154,2024-06-04 16:18:11.132260
21.17274495,-0.1866820902,0.06231613085,0.009587096982,2024-06-04 16:18:11.172745
21.21324178,-0.3206351399,0.1595186442,-0.005858781748,2024-06-04 16:18:11.213242
21.25373501,-0.3203688264,0.2620473206,0.01225017942,2024-06-04 16:18:11.253735
21.29421474,-0.08481918275,-0.07323476672,-0.1041265279,2024-06-04 16:18:11.294215
21.33470844,0.04753602296,0.1254311949,-0.1684399694,2024-06-04 16:18:11.334708
21.37518907,0.09387365729,-0.02929390781,-0.2491313666,2024-06-04 16:18:11.375189
21.41564157,0.08854749799,-0.09374050796,-0.2182396203,2024-06-04 16:18:11.415642
21.45616355,0.02489982173,-0.001331541222,-0.05725627393,2024-06-04 16:18:11.456164
21.49666912,-0.09427312016,-0.002663082443,0.00798924733,2024-06-04 16:18:11.496669
21.53716469,-0.1483336985,-0.01970681176,0.004793548491,2024-06-04 16:18:11.537165
21.57765709,-0.1632469594,0.02663082629,0.01597849466,2024-06-04 16:18:11.577657
21.61811714,-0.1509967744,-0.07669677585,-0.07296846062,2024-06-04 16:18:11.618117
21.65860308,-0.1933397949,-0.008788172156,-0.03568530455,2024-06-04 16:18:11.658603
21.69909974,-0.1443390697,0.06524552405,0.06764229387,2024-06-04 16:18:11.699100
21.73959412,-0.06484606117,0.06817491353,0.0820229426,2024-06-04 16:18:11.739594
21.78007568,-0.1035939083,-0.00798924733,0.01517957076,2024-06-04 16:18:11.780076
21.82056063,-0.1193061024,0.02370143496,0.009320789017,2024-06-04 16:18:11.820561
21.861055,-0.1531272531,0.01757634431,0.0260982085,2024-06-04 16:18:11.861055
21.90154678,-0.1515294015,0.04420717061,-0.008255556226,2024-06-04 16:18:11.901547
21.94209902,-0.1203713343,0.04340824485,0.02636451647,2024-06-04 16:18:11.942099
21.98253136,-0.1504641622,0.0005326165119,-0.02902759984,2024-06-04 16:18:11.982531
22.02300891,-0.1651111245,-0.0146469539,-0.06577813625,2024-06-04 16:18:12.023009
22.06350178,-0.09320788831,-0.01997311972,-0.06045197323,2024-06-04 16:18:12.063502
22.10403537,-0.0541937314,-0.03248960897,-0.06524552405,2024-06-04 16:18:12.104035
22.14450313,-0.06457975507,0.03515268862,-0.05912043154,2024-06-04 16:18:12.144503
22.18499235,-0.1038602218,0.05885412544,-0.05778888986,2024-06-04 16:18:12.184992
22.22558907,-0.1501978636,0.01944050193,-0.07003907114,2024-06-04 16:18:12.225589
22.26596834,-0.1677742004,0.02130465955,-0.03169068322,2024-06-04 16:18:12.265968
22.30644308,-0.1515294015,-0.07323476672,-0.02956021577,2024-06-04 16:18:12.306443
22.34696016,-0.1238333359,-0.1300915778,-0.03888100386,2024-06-04 16:18:12.346960
22.38743771,-0.1392792165,-0.09986559302,-0.05059856921,2024-06-04 16:18:12.387438
22.42792725,-0.1677742004,-0.0705716908,-0.02343512699,2024-06-04 16:18:12.427927
22.46841902,-0.1858831644,-0.1131810099,0.002396774245,2024-06-04 16:18:12.468419
22.5089085,-0.1954702586,-0.09453943372,-0.007722939365,2024-06-04 16:18:12.508909
22.54939672,-0.2079867423,-0.0487344116,-0.03435376659,2024-06-04 16:18:12.549397
22.58987886,-0.2636451721,-0.01011971384,-0.06764229387,2024-06-04 16:18:12.589879
22.63033985,-0.3171731234,0.06790860742,-0.07376738638,2024-06-04 16:18:12.630340
22.67082823,-0.3595161438,0.06844121963,-0.08308817446,2024-06-04 16:18:12.670828
22.71131776,-0.3930709958,0.06418029219,-0.1027949899,2024-06-04 16:18:12.711318
22.75182626,-0.5158390999,0.09959928691,-0.1402112991,2024-06-04 16:18:12.751826
22.79235521,-0.6151720881,0.172567755,-0.1982664913,2024-06-04 16:18:12.792355
22.83283287,-0.7292851806,0.3973319232,-0.3098496497,2024-06-04 16:18:12.832833
22.87330433,-0.778285861,0.677355051,-0.2707023323,2024-06-04 16:18:12.873304
22.91381297,-0.7186328173,0.952185154,-0.1103847697,2024-06-04 16:18:12.913813
22.95429433,-0.5874760151,0.9931966662,-0.2973331809,2024-06-04 16:18:12.954294
22.99478318,-0.5608451962,0.8917331696,-0.3364804685,2024-06-04 16:18:12.994783
23.03527183,-0.7228937745,0.7154371142,-0.08415340632,2024-06-04 16:18:13.035272
23.07574329,-0.8224930763,0.4687025249,-0.1623148769,2024-06-04 16:18:13.075743
23.11625376,-0.5880086422,0.1784265339,-0.4267589748,2024-06-04 16:18:13.116254
23.15674688,-0.33474949,-0.07190322876,-0.4600475132,2024-06-04 16:18:13.156747
23.19721594,-0.3475322723,-0.04340824485,-0.4584496617,2024-06-04 16:18:13.197216
23.23773323,-0.5382089615,-0.2256962508,-0.2432725877,2024-06-04 16:18:13.237733
23.2782873,-0.7125077248,-0.3284912407,-0.08921326697,2024-06-04 16:18:13.278287
23.31870683,-0.7119750977,-0.4539224207,-0.1330209672,2024-06-04 16:18:13.318707
23.3591887,-0.6026555896,-0.6200987697,-0.2131797522,2024-06-04 16:18:13.359189
23.39969276,-0.4655068219,-0.591337502,-0.1252980381,2024-06-04 16:18:13.399693
23.44017553,-0.3938699067,-0.5782883763,-0.01651111245,2024-06-04 16:18:13.440176
23.48065073,-0.4881430268,-0.6762897968,-0.07776200771,2024-06-04 16:18:13.480651
23.52117027,-0.441539079,-0.7688319087,-0.1535267085,2024-06-04 16:18:13.521170
23.56168287,-0.3272928596,-0.6754909158,0.0007989247679,2024-06-04 16:18:13.561683
23.60213266,-0.2567211688,-0.3540568352,0.08788172156,2024-06-04 16:18:13.602133
23.64260584,-0.2308892608,-0.3769593239,0.1475347728,2024-06-04 16:18:13.642606
23.68309152,-0.09054480493,-0.1073222235,0.2583190203,2024-06-04 16:18:13.683092
23.72359657,-0.02063889056,-0.2856155932,0.1717688292,2024-06-04 16:18:13.723597
23.76407459,0.003861469682,-0.4821510911,0.3243634701,2024-06-04 16:18:13.764075
23.80457844,0.02889444493,-0.1102516204,0.4239627421,2024-06-04 16:18:13.804578
23.84507011,0.1042596847,0.08495233208,0.5319507122,2024-06-04 16:18:13.845070
23.88554912,0.07816147059,-0.08495233208,0.7378070354,2024-06-04 16:18:13.885549
23.92604412,-0.04753602296,0.158986032,0.4580501914,2024-06-04 16:18:13.926044
23.96652172,0.06111774594,-0.253392309,0.8339443207,2024-06-04 16:18:13.966522
24.00700678,0.24753353,-0.4054543078,0.9436632991,2024-06-04 16:18:14.007007
24.04751547,0.2576532364,-0.4267589748,0.7252905369,2024-06-04 16:18:14.047515
24.08800318,-0.01025286783,-0.594533205,0.2487319112,2024-06-04 16:18:14.088003
24.12849839,-0.172567755,-0.4454005659,0.1081211492,2024-06-04 16:18:14.128498
24.16897464,-0.1925408691,-0.2760285139,0.1302247345,2024-06-04 16:18:14.168975
24.20947105,-0.1073222235,-0.1926740259,0.2079867423,2024-06-04 16:18:14.209471
24.2499462,-0.08055824786,-0.1865489334,0.2854824364,2024-06-04 16:18:14.249946
24.29043605,-0.05632419512,-0.2749632597,0.3390104175,2024-06-04 16:18:14.290436
24.33091766,0.07203638554,-0.3665733039,0.4007939398,2024-06-04 16:18:14.330918
24.37141589,0.1524614692,-0.0149132628,0.3592498302,2024-06-04 16:18:14.371416
24.41185985,0.2105166763,0.05698996782,0.2612484097,2024-06-04 16:18:14.411860
24.45240021,0.1399449855,0.08601756394,0.1608501822,2024-06-04 16:18:14.452400
24.49288235,0.138347134,0.06977276504,0.1933397949,2024-06-04 16:18:14.492882
24.53338214,0.03262276202,0.02396774292,0.2290250957,2024-06-04 16:18:14.533382
24.57387881,0.03342168778,0.001331541222,0.2886781394,2024-06-04 16:18:14.573879
24.61434771,0.0541937314,-0.1178414002,0.352858454,2024-06-04 16:18:14.614348
24.65485308,0.0384815447,0.09347419441,0.3573856652,2024-06-04 16:18:14.654853
24.69535396,0.05073172227,-0.0229025092,0.4244953692,2024-06-04 16:18:14.695354
24.73583339,0.1210371032,0.0149132628,0.4170387387,2024-06-04 16:18:14.735833
24.77632594,0.1561897993,0.07243584841,0.4652405083,2024-06-04 16:18:14.776326
24.8168085,0.1841521561,0.1326215118,0.4971975088,2024-06-04 16:18:14.816809
24.85731058,0.273365438,0.1941387206,0.5066514611,2024-06-04 16:18:14.857311
24.89779126,0.3841496706,0.02050573565,0.4258269072,2024-06-04 16:18:14.897791
24.93826803,0.5186353326,-0.118640326,0.4061200917,2024-06-04 16:18:14.938268
24.97877365,0.6657706499,-0.3085181117,0.3672390878,2024-06-04 16:18:14.978774
25.01925402,0.7927996516,-0.4232969582,0.2860150635,2024-06-04 16:18:15.019254
25.05974448,0.8449960947,-0.3047898114,0.3169068098,2024-06-04 16:18:15.059744
25.10021136,0.8141043186,-0.3769593239,0.4484631121,2024-06-04 16:18:15.100211
25.14068396,0.7760222554,-0.3836170435,0.5841471553,2024-06-04 16:18:15.140684
25.18122105,0.7014559507,-0.4536561072,0.6342130899,2024-06-04 16:18:15.181221
25.2217035,0.5744268894,-0.3556546867,0.5484618545,2024-06-04 16:18:15.221704
25.26219105,0.4544550478,-0.1423417628,0.4252942801,2024-06-04 16:18:15.262191
25.30268334,0.1553908736,0.2466014475,0.3725652397,2024-06-04 16:18:15.302683
25.34318407,-0.07469946891,0.4852136374,0.3177057505,2024-06-04 16:18:15.343184
25.38369178,-0.3504616618,0.612642169,0.3715000153,2024-06-04 16:18:15.383692
25.42410058,-0.3730978668,0.3217003644,0.2711018026,2024-06-04 16:18:15.424101
25.46464954,-0.2884118557,-0.1580539495,-0.006125089712,2024-06-04 16:18:15.464650
25.50511797,-0.3573856652,-0.07856093347,-0.2235657871,2024-06-04 16:18:15.505118
25.54562157,-0.4463326335,0.08015878499,-0.4304873049,2024-06-04 16:18:15.545622
25.58610443,-0.4396749437,0.01864157803,-0.6408708096,2024-06-04 16:18:15.586104
25.62656724,-0.6497921348,0.3462007344,-0.6579145193,2024-06-04 16:18:15.626567
25.66706188,-0.799590528,0.6491263509,-0.5966636539,2024-06-04 16:18:15.667062
25.70755105,-0.7868077159,0.6182346344,-0.6331478953,2024-06-04 16:18:15.707551
25.74806839,-0.7583127618,0.6467295885,-0.8226261735,2024-06-04 16:18:15.748068
25.78854766,-0.6737598777,0.6083812118,-1.0316782,2024-06-04 16:18:15.788548
25.82904912,-0.5030562878,0.4194355011,-1.171756268,2024-06-04 16:18:15.829049
25.86953964,-0.3549889028,0.4308867455,-1.271621943,2024-06-04 16:18:15.869540
25.9100536,-0.3629781604,0.4306204617,-0.9706935883,2024-06-04 16:18:15.910054
25.95051402,-0.2484655976,0.4090494812,-0.9238233566,2024-06-04 16:18:15.950514
25.99096615,-0.3991960883,0.3701684773,-0.9195623994,2024-06-04 16:18:15.990966
26.031455,-0.4519250989,0.1272953451,-0.8279523849,2024-06-04 16:18:16.031455
26.07197839,-0.3086512685,0.07403369248,-0.7077142,2024-06-04 16:18:16.071978
26.11246188,-0.2186390758,0.2892107666,-0.5987941027,2024-06-04 16:18:16.112462
26.15295178,0.1157109365,0.4439358711,-0.3876116574,2024-06-04 16:18:16.152952
26.1934586,0.343937099,0.2239652425,-0.1716356725,2024-06-04 16:18:16.193459
26.23393251,0.3932041526,0.3190372884,0.0149132628,2024-06-04 16:18:16.233933
26.27445422,0.2302234918,0.413044095,0.3219666779,2024-06-04 16:18:16.274454
26.31492813,0.01930734888,0.03169068322,0.3174394369,2024-06-04 16:18:16.314928
26.35540652,0.1577876359,-0.1260969639,0.2750964165,2024-06-04 16:18:16.355407
26.39589829,0.416905582,0.02077204362,0.3432713449,2024-06-04 16:18:16.395898
26.43635167,0.5157059431,0.1003982127,0.2252967805,2024-06-04 16:18:16.436352
26.47687928,0.4605801404,0.199731186,0.08894696087,2024-06-04 16:18:16.476879
26.51737761,0.4645747542,0.08708280325,0.1941387206,2024-06-04 16:18:16.517378
26.55784521,0.4957328141,0.009054481052,0.2221010923,2024-06-04 16:18:16.557845
26.59835355,0.4957328141,0.2308892608,0.3254286945,2024-06-04 16:18:16.598354
26.63883303,0.4456668794,-0.0117175635,0.5006595254,2024-06-04 16:18:16.638833
26.67928152,0.3452686667,0.01997311972,0.6145063043,2024-06-04 16:18:16.679282
26.7198286,0.3436708152,0.08095771074,0.7372744083,2024-06-04 16:18:16.719829
26.7602775,0.3814865649,-0.2989310026,0.6584471464,2024-06-04 16:18:16.760278
26.80076719,0.3894758224,-0.3583177626,0.7955959439,2024-06-04 16:18:16.800767
26.84126652,0.3255618513,-0.3780245781,0.9625712037,2024-06-04 16:18:16.841267
26.88176683,0.3636439145,-0.3655080795,0.9106410742,2024-06-04 16:18:16.881767
26.92227782,0.4584496617,-0.3450023532,0.9364729524,2024-06-04 16:18:16.922278
26.96275865,0.5517907143,-0.3250292242,0.9780170918,2024-06-04 16:18:16.962759
27.00323542,0.6460638046,-0.5529890656,0.9444622397,2024-06-04 16:18:17.003235
27.04373266,0.6189003587,-0.5402063131,0.8014547229,2024-06-04 16:18:17.043733
27.08421834,0.6196992993,-0.3263607621,0.5103797913,2024-06-04 16:18:17.084218
27.12470527,0.6279548407,0.056723658,0.3477985859,2024-06-04 16:18:17.124705
27.16518959,0.34846434,0.3675054014,0.1968017966,2024-06-04 16:18:17.165190
27.20567198,0.1444722265,0.3717663288,0.1493989378,2024-06-04 16:18:17.205672
27.24617667,0.05339480564,0.287612915,0.02103835158,2024-06-04 16:18:17.246177
27.28668277,-0.1129147038,0.2066552043,-0.3700353205,2024-06-04 16:18:17.286683
27.32718594,-0.2450035959,0.5362116694,-0.8026530743,2024-06-04 16:18:17.327186
27.36765891,-0.2447372824,0.918364048,-1.154978871,2024-06-04 16:18:17.367659
27.40809386,-0.2926727831,0.7063826323,-1.177615166,2024-06-04 16:18:17.408094
27.44860636,-0.3728315532,0.5141080618,-1.172022581,2024-06-04 16:18:17.448606
27.48912756,-0.5089150667,0.6086475253,-1.290529847,2024-06-04 16:18:17.489128
27.52959829,-0.6202319264,1.077882648,-1.341794133,2024-06-04 16:18:17.529598
27.57010714,-0.4135767221,0.9468590021,-1.459502339,2024-06-04 16:18:17.570107
27.61058438,-0.2399437428,0.9913324714,-1.428344369,2024-06-04 16:18:17.610584
27.6510536,-0.1712362021,0.6573819518,-1.44325757,2024-06-04 16:18:17.651054
27.69155172,-0.1203713343,0.6275554299,-1.480274439,2024-06-04 16:18:17.691552
27.7320398,0.1806901544,0.4920045137,-1.114766359,2024-06-04 16:18:17.732040
27.77252672,0.3418066502,0.3701684773,-0.7536523938,2024-06-04 16:18:17.772527
27.81301876,0.2017285079,0.06018566713,-0.4597811997,2024-06-04 16:18:17.813019
27.85353646,0.1090532318,-0.142874375,0.2031932026,2024-06-04 16:18:17.853536
27.89401912,0.5360785127,-0.4784227908,0.9833432436,2024-06-04 16:18:17.894019
27.93449829,0.7999899983,-0.5284887552,1.033142924,2024-06-04 16:18:17.934498
27.97499105,0.6641727686,-0.4403406978,0.5479292274,2024-06-04 16:18:17.974991
28.015481,0.395600915,-0.1703041345,0.151263088,2024-06-04 16:18:18.015481
28.05596318,0.2525933683,-0.04527240247,-0.01944050193,2024-06-04 16:18:18.055963
28.09645584,0.2525933683,-0.2557890713,-0.03595161438,2024-06-04 16:18:18.096456
28.13694844,0.277892679,-0.1183740199,0.1129147038,2024-06-04 16:18:18.136948
28.17738344,0.2813546658,-0.1210371032,0.3009283245,2024-06-04 16:18:18.177383
28.21790698,0.3071865737,-0.129292652,0.6043865681,2024-06-04 16:18:18.217907
28.25840735,0.2515281439,-0.1908098608,0.9226249456,2024-06-04 16:18:18.258407
28.29889506,0.2051905096,-0.2712349594,1.11183691,2024-06-04 16:18:18.298895
28.33942271,0.3021267056,-0.4952002168,1.162435532,2024-06-04 16:18:18.339423
28.37992594,0.4107804894,-0.692268312,1.082409859,2024-06-04 16:18:18.379926
28.42041287,0.3961335421,-0.667767942,0.8722926974,2024-06-04 16:18:18.420413
28.46083381,0.5581821203,-0.8537842631,0.9386034608,2024-06-04 16:18:18.460834
28.5013398,0.6655043364,-0.8545832038,0.9537830353,2024-06-04 16:18:18.501340
28.54185969,0.6676347852,-0.6030550599,0.925021708,2024-06-04 16:18:18.541860
28.58234948,0.6015903354,-0.06071828306,0.7892045379,2024-06-04 16:18:18.582349
28.62280313,0.4166392684,0.08814803511,0.5689675808,2024-06-04 16:18:18.622803
28.66332032,0.1905435622,0.3296896219,0.3874785006,2024-06-04 16:18:18.663320
28.70379964,-0.006790860556,0.3078523576,0.08388710022,2024-06-04 16:18:18.703800
28.74430928,-0.139012903,0.3520595133,-0.2938711643,2024-06-04 16:18:18.744309
28.78480532,-0.283085674,0.2972000241,-0.7125077248,2024-06-04 16:18:18.784805
28.82527495,-0.5187684894,0.5663045049,-1.0591079,2024-06-04 16:18:18.825275
28.86577172,-0.6798849702,0.7218285203,-1.121690392,2024-06-04 16:18:18.865772
28.90630235,-0.7609758377,0.7532529235,-1.244991064,2024-06-04 16:18:18.906302
28.94675235,-0.7426005602,0.7210295796,-1.344723582,2024-06-04 16:18:18.946752
28.98721813,-0.7433995008,0.8661676049,-1.300116897,2024-06-04 16:18:18.987218
29.02770001,-0.5371437669,0.7668346167,-1.348718166,2024-06-04 16:18:19.027700
29.06820756,-0.3917394578,0.432484597,-1.438464046,2024-06-04 16:18:19.068208
29.10870615,-0.294803232,0.4423380196,-1.277747035,2024-06-04 16:18:19.108706
29.14919776,-0.1651111245,0.2284924835,-1.147788525,2024-06-04 16:18:19.149198
29.1896873,-0.1115831584,0.2884118557,-0.8085118532,2024-06-04 16:18:19.189687
29.23018803,-0.06378082931,0.06524552405,-0.4525908828,2024-06-04 16:18:19.230188
29.27062501,-0.2684387267,-0.056723658,-0.3018604219,2024-06-04 16:18:19.270625
29.31112667,-0.01105179265,-0.4877435565,0.2474003732,2024-06-04 16:18:19.311127
29.3516161,0.3508611321,-0.8298165202,0.6227618456,2024-06-04 16:18:19.351616
29.39210276,0.3844159544,-0.4105141759,0.506118834,2024-06-04 16:18:19.392103
29.43258079,0.3234313726,-0.1330209672,0.3150426745,2024-06-04 16:18:19.432581
29.47317339,0.3205019832,0.004527240526,0.2577863932,2024-06-04 16:18:19.473173
29.51358141,0.3473991156,-0.09320788831,0.2905423045,2024-06-04 16:18:19.513581
29.55411553,0.3660407066,-0.1412765235,0.5162385702,2024-06-04 16:18:19.554116
29.594576,0.354855746,0.08415340632,0.5902722478,2024-06-04 16:18:19.594576
29.63503532,0.2949363887,0.1965354979,0.7207632661,2024-06-04 16:18:19.635035
29.67555782,0.3665733039,-0.06897383928,0.9231575727,2024-06-04 16:18:19.675558
29.71604959,0.5826824903,-0.3679048419,0.946326375,2024-06-04 16:18:19.716050
29.75656735,0.7555165291,-0.5849460959,0.9191629291,2024-06-04 16:18:19.756567
29.79701891,0.7935985923,-0.5993267298,1.021425366,2024-06-04 16:18:19.797019
29.83752652,0.9070459008,-0.7103772759,1.182142377,2024-06-04 16:18:19.837527
29.87800376,0.9864057899,-0.5524564981,1.252447724,2024-06-04 16:18:19.878004
29.91848589,0.8604419827,-0.3740299344,1.018762231,2024-06-04 16:18:19.918486
29.95892995,0.6551182866,-0.03888100386,0.7212958932,2024-06-04 16:18:19.958930
29.9994785,0.3362141848,0.2085193694,0.4255605936,2024-06-04 16:18:19.999478
30.0399685,0.03422060981,0.1432738453,0.06125089899,2024-06-04 16:18:20.039969
30.08045813,-0.3414071798,0.2681724131,-0.3580514491,2024-06-04 16:18:20.080458
30.12094797,-0.590139091,0.4798874855,-0.718765974,2024-06-04 16:18:20.120948
30.16146193,-0.6623086333,0.7567148805,-1.055379629,2024-06-04 16:18:20.161462
30.20190594,-0.8688306808,0.9436632991,-1.26176846,2024-06-04 16:18:20.201906
30.24240287,-0.9378045201,1.117163181,-1.360702038,2024-06-04 16:18:20.242403
30.2829012,-0.7609758377,0.8043841124,-1.419822454,2024-06-04 16:18:20.282901
30.32339766,-0.6476616859,0.73221457,-1.59025979,2024-06-04 16:18:20.323398
30.36387589,-0.4250279665,0.4766917825,-1.697582006,2024-06-04 16:18:20.363876
30.40435568,-0.3821523488,0.3022598624,-1.347120285,2024-06-04 16:18:20.404356
30.44483542,-0.3001294136,0.1107842326,-1.160571337,2024-06-04 16:18:20.444835
30.48533402,-0.3858806491,-0.1388797611,-0.8556483984,2024-06-04 16:18:20.485334
30.52582433,-0.3930709958,-0.3990629315,-0.5268908739,2024-06-04 16:18:20.525824
30.56632803,-0.3920057416,-0.573228538,-0.1006645188,2024-06-04 16:18:20.566328
30.60682183,-0.1744319052,-0.8231588006,0.4484631121,2024-06-04 16:18:20.606822
30.6473149,0.1093195379,-0.4696346223,0.7958621979,2024-06-04 16:18:20.647315
30.68778777,0.1878804713,0.1001319066,0.7055837512,2024-06-04 16:18:20.687788
30.72828073,0.2326202542,0.1099853069,0.5599130988,2024-06-04 16:18:20.728281
30.76880641,0.2746969759,-0.168706283,0.6227618456,2024-06-04 16:18:20.768806
30.80928209,0.4147751033,-0.2776263654,0.7085131407,2024-06-04 16:18:20.809282
30.84974865,0.5207657814,-0.1684399694,0.7473941445,2024-06-04 16:18:20.849749
30.89024292,0.6623086333,-0.1692388952,0.9801475406,2024-06-04 16:18:20.890243
30.93070381,0.7150376439,-0.3846822679,1.151783228,2024-06-04 16:18:20.930704
30.97119339,0.7483261824,-0.2512618303,1.312100768,2024-06-04 16:18:20.971193
31.01168605,0.7637720704,-0.4930697381,1.284138441,2024-06-04 16:18:21.011686
31.05217542,0.9432638288,-0.8354089856,1.17415309,2024-06-04 16:18:21.052175
31.09269261,0.7927996516,-0.8750889301,1.035805941,2024-06-04 16:18:21.092693
31.133196,0.6756240726,-1.001585364,1.072290182,2024-06-04 16:18:21.133196
31.1736849,0.3692364097,-0.5777557492,0.8163679838,2024-06-04 16:18:21.173685
31.21415501,0.1322220564,0.2122476846,0.4260932207,2024-06-04 16:18:21.214155
31.25463933,-0.1150451675,0.6603113413,0.1342193633,2024-06-04 16:18:21.254639
31.29514474,-0.3890763521,0.5860112906,-0.1559234858,2024-06-04 16:18:21.295145
31.33564823,-0.632748425,0.6789528728,-0.7573806643,2024-06-04 16:18:21.335648
31.37612073,-0.8248898387,0.7383396626,-1.230077863,2024-06-04 16:18:21.376121
31.41664995,-0.9492557645,0.6523220539,-1.466160059,2024-06-04 16:18:21.416650
31.45711261,-0.8808145523,0.5500596762,-1.605439305,2024-06-04 16:18:21.457113
31.49758204,-0.66949898,0.4657731354,-1.778273344,2024-06-04 16:18:21.497582
31.53808969,-0.455653429,0.585478723,-1.858698487,2024-06-04 16:18:21.538090
31.57857011,-0.4407401681,0.3712337017,-1.562031031,2024-06-04 16:18:21.578570
31.61906396,-0.3680379987,0.1222354919,-1.206642747,2024-06-04 16:18:21.619064
31.65952172,-0.2093182951,-0.08441971987,-0.8013215661,2024-06-04 16:18:21.659522
31.70001303,-0.08668334037,-0.05539211631,-0.226228863,2024-06-04 16:18:21.700013
31.7404912,-0.1504641622,-0.04127778113,0.139012903,2024-06-04 16:18:21.740491
31.78097678,-0.1488663107,-0.4384765327,0.1981333494,2024-06-04 16:18:21.780977
31.82147001,0.01478010789,-0.4523245692,0.1797580719,2024-06-04 16:18:21.821470
31.86197646,0.1199718714,-0.2723001838,0.214644447,2024-06-04 16:18:21.861976
31.90252839,0.2813546658,-0.09107742459,0.2543243766,2024-06-04 16:18:21.902528
31.94297386,0.4035901725,-0.04047885537,0.4436695576,2024-06-04 16:18:21.942974
31.98344829,0.4818847775,-0.2531259954,0.60678339,2024-06-04 16:18:21.983448
32.02396032,0.5047873259,-0.08921326697,0.8491238952,2024-06-04 16:18:22.023960
32.06443313,0.5312849879,-0.2480661422,0.9820116758,2024-06-04 16:18:22.064433
32.10494308,0.5736280084,-0.4930697381,1.149652719,2024-06-04 16:18:22.104943
32.14541975,0.6183677912,-0.634745717,1.336334825,2024-06-04 16:18:22.145420
32.18593303,0.8082455397,-0.9826774597,1.343258858,2024-06-04 16:18:22.185933
32.22639334,0.8697627783,-0.7765548825,1.387466073,2024-06-04 16:18:22.226393
32.26688094,0.6716294289,-0.1679073572,1.109307051,2024-06-04 16:18:22.266881
32.30736776,0.672960937,-0.256588012,0.8256887197,2024-06-04 16:18:22.307368
32.34784969,0.4081174135,-0.05858781561,0.551923871,2024-06-04 16:18:22.347850
32.388395,0.01051917579,0.08335448056,0.1960028708,2024-06-04 16:18:22.388395
32.42880907,-0.2548570037,0.1041265279,-0.1559234858,2024-06-04 16:18:22.428809
32.46932573,-0.5661713481,0.2695039511,-0.6717625856,2024-06-04 16:18:22.469326
32.50983376,-0.8326127529,0.6541862488,-1.188267469,2024-06-04 16:18:22.509834
32.55028829,-1.023555756,0.8496564627,-1.418224573,2024-06-04 16:18:22.550288
32.59075724,-1.10477984,0.8371400237,-1.500247598,2024-06-04 16:18:22.590757
32.631246,-0.9050486088,0.634745717,-1.585199952,2024-06-04 16:18:22.631246
32.67177761,-0.7652367949,0.478289634,-1.640059352,2024-06-04 16:18:22.671778
32.7122735,-0.7396711707,0.5039883852,-1.446187019,2024-06-04 16:18:22.712274
32.75277417,-0.6981270909,0.2569874525,-1.090798616,2024-06-04 16:18:22.752774
32.79326141,-0.6932004094,0.2412752807,-0.8449960947,2024-06-04 16:18:22.793261
32.83374563,-0.3733641803,0.03994623944,-0.374296248,2024-06-04 16:18:22.833746
32.87423402,-0.163513273,-0.4443353117,0.1288931966,2024-06-04 16:18:22.874234
32.91470865,-0.06644391268,-0.588141799,0.3581846058,2024-06-04 16:18:22.914709
32.95517152,0.1908098608,-0.2467346042,0.437011838,2024-06-04 16:18:22.955172
32.99567594,0.3098496497,-0.2470009029,0.4199681282,2024-06-04 16:18:22.995676
33.03616474,0.484814167,-0.3031919599,0.4111799598,2024-06-04 16:18:23.036165
33.07668323,0.6607108116,-0.1009308323,0.5055862069,2024-06-04 16:18:23.076683
33.11717865,0.6932004094,-0.1676410437,0.7852098942,2024-06-04 16:18:23.117179
33.15765313,0.6977276206,-0.1926740259,1.068029284,2024-06-04 16:18:23.157653
33.19814948,0.6924014688,-0.2699034214,1.410368562,2024-06-04 16:18:23.198149
33.23866844,0.7270215154,-0.6158378124,1.470820546,2024-06-04 16:18:23.238668
33.27912084,0.7629731297,-0.8995893002,1.536066055,2024-06-04 16:18:23.279121
33.31960053,0.8489907384,-1.334204316,1.597316861,2024-06-04 16:18:23.319601
33.36011954,0.5880086422,-0.990933001,1.384802938,2024-06-04 16:18:23.360120
33.40060938,0.1865489334,-0.1798912287,0.9785496593,2024-06-04 16:18:23.400609
33.44104422,-0.05712312087,0.4838820994,0.6059844494,2024-06-04 16:18:23.441044
33.48154776,-0.2551233172,0.5063851476,0.2910749316,2024-06-04 16:18:23.481548
33.52206391,-0.4916050434,0.2817541361,-0.1495320797,2024-06-04 16:18:23.522064
33.56255162,-0.7388722301,0.3810871243,-0.6600450277,2024-06-04 16:18:23.562552
33.60303178,-0.8608414531,0.5782883763,-1.058575273,2024-06-04 16:18:23.603032
33.64350641,-1.043262601,0.8163679838,-1.333006024,2024-06-04 16:18:23.643506
33.68402292,-1.061371565,0.9516525269,-1.49891603,2024-06-04 16:18:23.684023
33.72451719,-0.8688306808,0.9772181511,-1.649380207,2024-06-04 16:18:23.724517
33.76499287,-0.6607108116,0.8065145612,-1.83073616,2024-06-04 16:18:23.764993
33.80549777,-0.6130415797,0.4962654412,-1.779338598,2024-06-04 16:18:23.805498
33.84598876,-0.4354139864,0.1448716968,-1.40091455,2024-06-04 16:18:23.845989
33.88647626,-0.3880111277,0.06817491353,-0.9848079085,2024-06-04 16:18:23.886476
33.92697594,-0.4391423166,-0.3569862247,-0.5529890656,2024-06-04 16:18:23.926976
33.96746568,-0.2154433727,-0.3615134656,-0.08734910935,2024-06-04 16:18:23.967466
34.00795068,-0.02969337068,-0.3226324618,0.2881455421,2024-06-04 16:18:24.007951
34.04843006,0.1327546686,-0.1466026902,0.3933372796,2024-06-04 16:18:24.048430
34.08892105,0.2720338702,-0.04181039706,0.4351477027,2024-06-04 16:18:24.088921
34.12941282,0.5098471642,0.1046591476,0.5415378213,2024-06-04 16:18:24.129413
34.16990818,0.6055849791,0.08282186836,0.6667027473,2024-06-04 16:18:24.169908
34.21038188,0.7805495262,-0.1207707971,0.9625712037,2024-06-04 16:18:24.210382
34.25085766,0.8266208172,-0.1948044896,1.237800717,2024-06-04 16:18:24.250858
34.29131922,0.7643046975,-0.2499302924,1.399449944,2024-06-04 16:18:24.291319
34.33186495,0.779484272,-0.5625761747,1.501179695,2024-06-04 16:18:24.331865
34.3723398,0.8354089856,-0.7957290411,1.580006838,2024-06-04 16:18:24.372340
34.41280964,0.7347444892,-0.7920007706,1.758566618,2024-06-04 16:18:24.412810
34.45332276,0.5520570278,-0.7242252827,1.560300112,2024-06-04 16:18:24.453323
34.49380516,0.342605561,-0.2925396264,0.9876041412,2024-06-04 16:18:24.493805
34.53430073,-0.1217028722,0.499727428,0.4252942801,2024-06-04 16:18:24.534301
34.57478808,-0.3264939189,0.3240971565,-0.08761541545,2024-06-04 16:18:24.574788
34.61527912,-0.517170608,0.4087831676,-0.6440665126,2024-06-04 16:18:24.615279
34.65577709,-0.6460638046,0.7420679331,-1.111304402,2024-06-04 16:18:24.655777
34.69626443,-0.7521876693,1.060306311,-1.36682713,2024-06-04 16:18:24.696264
34.73675016,-0.799590528,1.13260901,-1.553242922,2024-06-04 16:18:24.736750
34.77724188,-0.7729597092,0.83314538,-1.746050119,2024-06-04 16:18:24.777242
34.817735,-0.6258243918,0.5953320861,-2.115286589,2024-06-04 16:18:24.817735
34.85822355,-0.4093157947,0.5505923033,-1.981866002,2024-06-04 16:18:24.858224
34.89871714,-0.2647103965,0.1928071827,-1.599580526,2024-06-04 16:18:24.898717
34.93918089,-0.1864157766,0.09507204592,-1.008775711,2024-06-04 16:18:24.939181
34.97966563,-0.02782921307,-0.04500609636,-0.3063876629,2024-06-04 16:18:24.979666
35.02016766,0.1298252791,-0.58894068,0.2788247466,2024-06-04 16:18:25.020168
35.06064751,-0.05232957378,-0.5308855176,0.5087819099,2024-06-04 16:18:25.060648
35.1011811,0.0464707911,-0.5902722478,0.5055862069,2024-06-04 16:18:25.101181
35.14162693,0.3207682967,-0.334882617,0.4351477027,2024-06-04 16:18:25.141627
35.18214704,0.5539211631,0.0260982085,0.4793548584,2024-06-04 16:18:25.182147
35.22260532,0.6926677823,-0.1057243794,0.6432675719,2024-06-04 16:18:25.222605
35.26313813,0.8111749291,-0.4374113083,0.7862751484,2024-06-04 16:18:25.263138
35.30360136,0.9137036204,-0.2089188248,1.244458437,2024-06-04 16:18:25.303601
35.34410745,0.7837451696,-0.5133091807,1.501179695,2024-06-04 16:18:25.344107
35.3846186,0.8356752992,-0.5846797824,1.54085958,2024-06-04 16:18:25.384619
35.42502079,0.9347419739,-0.8535179496,1.535533428,2024-06-04 16:18:25.425021
35.46555485,0.9493889213,-1.155245185,1.413297892,2024-06-04 16:18:25.465555
35.50604126,0.733679235,-1.060173154,1.255643368,2024-06-04 16:18:25.506041
35.54654308,0.3990629315,-0.4989285171,0.8973256946,2024-06-04 16:18:25.546543
35.58701448,-0.1091863886,0.2679060996,0.258585304,2024-06-04 16:18:25.587014
35.62749542,-0.5733616948,0.5985277891,-0.4209001958,2024-06-04 16:18:25.627495
35.66801021,-0.7804163694,0.6336805224,-0.8961272836,2024-06-04 16:18:25.668010
35.70850115,-0.9433969855,0.5314181447,-1.100918293,2024-06-04 16:18:25.708501
35.74898011,-1.119693041,0.7527202964,-1.348185539,2024-06-04 16:18:25.748980
35.78947641,-1.158840418,1.191463113,-1.652842164,2024-06-04 16:18:25.789476
35.82996662,-1.029680848,1.18453908,-1.908498168,2024-06-04 16:18:25.829967
35.87045636,-0.7801500559,0.8595098853,-1.719419241,2024-06-04 16:18:25.870456
35.91094615,-0.64499861,0.304390341,-1.63100493,2024-06-04 16:18:25.910946
35.95139042,-0.6167699099,-0.02077204362,-1.273219824,2024-06-04 16:18:25.951390
35.99191037,-0.5824161768,-0.1482005417,-0.868164897,2024-06-04 16:18:25.991910
36.03239896,-0.4889419675,-0.6054518223,-0.3428718746,2024-06-04 16:18:26.032399
36.07288271,-0.1882799417,-0.859110415,0.2386122048,2024-06-04 16:18:26.072883
36.11339537,0.04780233279,-0.3418066502,0.6105116606,2024-06-04 16:18:26.113395
36.15388709,0.2512618303,-0.04154408723,0.7383396626,2024-06-04 16:18:26.153887
36.19435532,0.354855746,-0.104392834,0.4948007464,2024-06-04 16:18:26.194355
36.23484579,0.5208989382,-0.02929390781,0.4364792407,2024-06-04 16:18:26.234846
36.27533834,0.7733591795,-0.08548495173,0.6845453978,2024-06-04 16:18:26.275338
36.31584214,0.785343051,-0.007190322969,1.23433876,2024-06-04 16:18:26.315842
36.35631808,0.7488588095,-0.3231650591,1.599979997,2024-06-04 16:18:26.356318
36.39682709,0.8572462797,-0.5987941027,1.607969284,2024-06-04 16:18:26.396827
36.43736178,1.058042645,-1.063102603,1.642056704,2024-06-04 16:18:26.437362
36.47780511,1.033276081,-1.038602233,1.55044663,2024-06-04 16:18:26.477805
36.51832511,0.776288569,-0.6789528728,1.185870647,2024-06-04 16:18:26.518325
36.55878886,0.3343500197,-0.2038589716,0.9505873322,2024-06-04 16:18:26.558789
36.59927391,-0.1182408631,0.1536598653,0.4764254689,2024-06-04 16:18:26.599274
36.63976297,-0.3581846058,0.08921326697,0.02849498391,2024-06-04 16:18:26.639763
36.68025615,-0.553388536,0.3477985859,-0.5601794124,2024-06-04 16:18:26.680256
36.72071219,-0.6452649236,0.5300865769,-0.987737298,2024-06-04 16:18:26.720712
36.76120193,-0.8137048483,0.8768199086,-1.414229989,2024-06-04 16:18:26.761202
36.80170235,-0.894662559,1.03953433,-1.569754004,2024-06-04 16:18:26.801702
36.84219594,-0.7993242145,0.9620385766,-1.748713136,2024-06-04 16:18:26.842196
36.88269256,-0.672960937,0.7266221046,-1.944849253,2024-06-04 16:18:26.882693
36.92319521,-0.5608451962,-0.06764229387,-1.858964801,2024-06-04 16:18:26.923195
36.96369047,-0.629552722,-0.1022623703,-1.517823935,2024-06-04 16:18:26.963690
37.00418563,-0.6961297989,-0.2472672164,-1.297720075,2024-06-04 16:18:27.004186
37.04462667,-0.7697640061,-0.2531259954,-0.8892032504,2024-06-04 16:18:27.044627
37.08511058,-0.5179695487,-0.6006582975,-0.2142449915,2024-06-04 16:18:27.085111
37.12562261,0.0006657706108,-0.7252905369,0.6275554299,2024-06-04 16:18:27.125623
37.1661285,0.4086500108,-0.4959991276,1.023822069,2024-06-04 16:18:27.166128
37.20661865,0.5485950112,-0.1189066395,0.8123733401,2024-06-04 16:18:27.206619
37.24711589,0.5079829693,-0.2685718834,0.5111786723,2024-06-04 16:18:27.247116
37.28759474,0.5143743753,-0.21264714,0.5910711884,2024-06-04 16:18:27.287595
37.32806917,0.6093133092,0.1571218669,1.091730714,2024-06-04 16:18:27.328069
37.36856521,0.5451329947,0.1986659616,1.635665298,2024-06-04 16:18:27.368565
37.40905563,0.204924196,0.2583190203,1.75350666,2024-06-04 16:18:27.409056
37.44957433,0.2451367527,-0.7154371142,1.741256475,2024-06-04 16:18:27.449574
37.4900686,0.4376776218,-1.613694906,1.91009593,2024-06-04 16:18:27.490069
37.53051032,0.7893376946,-1.594520688,1.758566618,2024-06-04 16:18:27.530510
37.57098506,0.7738918066,-0.8356752992,1.12302196,2024-06-04 16:18:27.570985
37.61148282,0.4030575454,-0.04793548584,0.5021241903,2024-06-04 16:18:27.611483
37.65197412,-0.09374050796,0.1209039465,-0.05246272683,2024-06-04 16:18:27.651974
37.6924799,-0.4276910722,0.2412752807,-0.4701672196,2024-06-04 16:18:27.692480
37.73296938,-0.6886731386,0.418902874,-0.9070459008,2024-06-04 16:18:27.732969
37.77346485,-0.8832113147,0.8680317402,-1.35937047,2024-06-04 16:18:27.773465
37.81395782,-0.9907998443,0.9780170918,-1.59025979,2024-06-04 16:18:27.813958
37.85443266,-0.9838758707,1.045393109,-1.607037187,2024-06-04 16:18:27.854433
37.89495886,-0.8184984326,0.7143719196,-1.8507092,2024-06-04 16:18:27.894959
37.93545058,-0.7804163694,0.199731186,-1.747381568,2024-06-04 16:18:27.935451
37.97591178,-0.766035676,-0.05805519968,-1.266828418,2024-06-04 16:18:27.975912
38.01641683,-0.6833469868,-0.1782933772,-1.006378889,2024-06-04 16:18:28.016417
38.05686214,-0.5680354834,-0.2459356785,-0.5359453559,2024-06-04 16:18:28.056862
38.09736818,-0.2878792286,-0.7781527042,-0.1019960642,2024-06-04 16:18:28.097368
38.13787282,0.04540555924,-0.4304873049,0.2995967865,2024-06-04 16:18:28.137873
38.17836053,0.07816147059,-0.2619141638,0.3845491111,2024-06-04 16:18:28.178361
38.21885115,0.2989310026,-0.08042509109,0.5535216928,2024-06-04 16:18:28.218851
38.25934047,0.4770912528,-0.2083862126,0.6714962721,2024-06-04 16:18:28.259340
38.29980876,0.5741605759,-0.03462007269,1.008109927,2024-06-04 16:18:28.299809
38.34032542,0.6394061446,-0.0410114713,1.480407596,2024-06-04 16:18:28.340325
38.38081141,0.7706961036,-0.2392779738,1.668421268,2024-06-04 16:18:28.380811
38.42126568,0.7973269224,-0.3418066502,1.643121958,2024-06-04 16:18:28.421266
38.4617687,0.9342093468,-0.7659025192,1.659366727,2024-06-04 16:18:28.461769
38.5022962,0.724624753,-0.7291520238,1.708900094,2024-06-04 16:18:28.502296
38.54277896,0.4107804894,-0.6051855087,1.673214793,2024-06-04 16:18:28.542779
38.58327646,0.2541912198,-0.2629793882,1.062436819,2024-06-04 16:18:28.583276
38.6237461,0.06644391268,0.00186415785,0.3928046823,2024-06-04 16:18:28.623746
38.66425521,-0.1470021605,0.03701684624,-0.1396786869,2024-06-04 16:18:28.664255
38.70472152,-0.4292888939,0.2599168718,-0.6616428494,2024-06-04 16:18:28.704722
38.74520688,-0.6511237025,0.7204970121,-1.081211567,2024-06-04 16:18:28.745207
38.78572589,-0.8957278132,0.8919994831,-1.333272338,2024-06-04 16:18:28.785726
38.82619792,-1.142861843,1.077083707,-1.48932898,2024-06-04 16:18:28.826198
38.86675058,-1.096790552,1.033941746,-1.568955064,2024-06-04 16:18:28.866751
38.90717376,-0.90291816,0.6190335155,-1.880535722,2024-06-04 16:18:28.907174
38.94767016,-0.8797492981,0.1438064575,-1.837393761,2024-06-04 16:18:28.947670
38.98816636,-0.8597761989,-0.1862826198,-1.466692686,2024-06-04 16:18:28.988166
39.02866318,-0.7441984415,-0.2800231278,-1.103847742,2024-06-04 16:18:29.028663
39.06910527,-0.5944000483,-0.4531235099,-0.5673697591,2024-06-04 16:18:29.069105
39.10960605,-0.2319544852,-0.4448679388,0.04181039706,2024-06-04 16:18:29.109606
39.15010152,0.103727065,-0.1420754492,0.4372781515,2024-06-04 16:18:29.150102
39.1905899,0.3045234978,-0.1740324497,0.5825493336,2024-06-04 16:18:29.190590
39.23108141,0.5135754943,-0.06524552405,0.686409533,2024-06-04 16:18:29.231081
39.27162995,0.6543194056,-0.056723658,0.6861432195,2024-06-04 16:18:29.271630
39.31206282,0.7837451696,-0.04074516147,0.8475260139,2024-06-04 16:18:29.312063
39.35258829,0.8569799662,0.1347519755,1.256442308,2024-06-04 16:18:29.352588
39.3930635,1.006645203,0.01597849466,1.534734488,2024-06-04 16:18:29.393063
39.43355766,1.162036061,-0.1633801162,1.761229634,2024-06-04 16:18:29.433558
39.4740437,1.181476593,-0.4206338823,1.859231114,2024-06-04 16:18:29.474044
39.51450761,1.08147788,-0.4171718955,1.542990088,2024-06-04 16:18:29.514508
39.55503402,0.7515218854,-0.6430012584,1.125684977,2024-06-04 16:18:29.555034
39.59550829,0.3284912407,-0.4057206213,0.7955959439,2024-06-04 16:18:29.595508
39.63601334,-0.1291595101,-0.09560466558,0.2894770801,2024-06-04 16:18:29.636013
39.67647693,-0.3163742125,-0.00798924733,-0.217174381,2024-06-04 16:18:29.676477
39.71695683,-0.4993279874,0.3240971565,-0.7219616771,2024-06-04 16:18:29.716957
39.75745813,-0.760176897,0.6342130899,-1.125152349,2024-06-04 16:18:29.757458
39.79793876,-1.021425366,0.7681661844,-1.468290567,2024-06-04 16:18:29.797939
39.83843297,-1.106910229,0.7620410919,-1.649380207,2024-06-04 16:18:29.838433
39.87891381,-1.04166472,0.7146382332,-1.73566401,2024-06-04 16:18:29.878914
39.91945219,-0.92741853,0.3893426657,-1.868285537,2024-06-04 16:18:29.919452
39.95989006,-0.7276872993,-0.07696308941,-1.762028575,2024-06-04 16:18:29.959890
40.00037959,-0.4910724163,-0.1311568171,-1.315296531,2024-06-04 16:18:30.000380
40.04086829,-0.3581846058,0.004527240526,-0.8588441014,2024-06-04 16:18:30.040868
40.08135776,-0.3017272651,-0.1468690038,-0.3226324618,2024-06-04 16:18:30.081358
40.12186396,-0.1078548431,-0.4736292362,0.2109161317,2024-06-04 16:18:30.121864
40.16234386,0.04780233279,-0.3295564651,0.5175700784,2024-06-04 16:18:30.162344
40.20284198,0.15512456,0.01278279629,0.5394073725,2024-06-04 16:18:30.202842
40.24332865,0.258452177,-0.02050573565,0.5066514611,2024-06-04 16:18:30.243329
40.28382412,0.386546433,0.0260982085,0.6714962721,2024-06-04 16:18:30.283824
40.32431626,0.4725640118,-0.1035939083,0.9010539651,2024-06-04 16:18:30.324316
40.36481532,0.6886731386,0.4986622036,1.42208612,2024-06-04 16:18:30.364815
40.40528152,0.8777520061,0.1041265279,1.696916223,2024-06-04 16:18:30.405282
40.44578068,1.046857715,-0.6730940938,1.676943064,2024-06-04 16:18:30.445781
40.48628053,1.258173347,-0.9270190597,1.427145958,2024-06-04 16:18:30.486281
40.52674839,1.220890164,-1.35271275,1.409036994,2024-06-04 16:18:30.526748
40.56724021,0.8215609789,-0.8734911084,1.16003871,2024-06-04 16:18:30.567240
40.60775188,0.3154421151,-0.4376776218,0.6722952127,2024-06-04 16:18:30.607752
40.64823339,-0.1302247345,0.02529928461,0.2207695395,2024-06-04 16:18:30.648233
40.68871829,-0.5078498721,0.2551233172,-0.2866808474,2024-06-04 16:18:30.688718
40.7292199,-0.8539174199,0.7117088437,-0.868164897,2024-06-04 16:18:30.729220
40.76969678,-1.097323179,0.8595098853,-1.256442308,2024-06-04 16:18:30.769697
40.81018381,-1.161237121,0.8137048483,-1.548449397,2024-06-04 16:18:30.810184
40.85067605,-1.132209539,0.6941324472,-1.748446822,2024-06-04 16:18:30.850676
40.89112881,-1.002251148,0.1352845877,-1.792920351,2024-06-04 16:18:30.891129
40.93163396,-1.046458244,-0.1364829838,-1.582270503,2024-06-04 16:18:30.931634
40.97213506,-1.073355436,0.1917419434,-1.212767839,2024-06-04 16:18:30.972135
41.01268339,-0.9524514675,0.4063864052,-0.9427312016,2024-06-04 16:18:31.012683
41.05311469,-0.6687000394,0.2985315621,-0.4001281559,2024-06-04 16:18:31.053115
41.09360881,-0.2511286736,-0.06391397864,0.0490007177,2024-06-04 16:18:31.093609
41.13410193,0.04993279651,-0.220370084,0.3091838956,2024-06-04 16:18:31.134102
41.1746085,0.1900109351,-0.04500609636,0.4330172241,2024-06-04 16:18:31.174608
41.21509303,0.3553883731,-0.104392834,0.4599143565,2024-06-04 16:18:31.215093
41.25557157,0.6535204649,0.03408745676,0.5695002079,2024-06-04 16:18:31.255572
41.29606662,0.7738918066,0.03967992961,0.8033188581,2024-06-04 16:18:31.296067
41.33655714,0.908111155,-0.05725627393,1.088002324,2024-06-04 16:18:31.336557
41.37705568,1.026618361,0.2865476906,1.459102988,2024-06-04 16:18:31.377056
41.41753667,0.9858731627,-0.05299534276,1.581604719,2024-06-04 16:18:31.417537
41.45803287,1.179079771,-0.493868649,1.487864256,2024-06-04 16:18:31.458033
41.49854391,1.439795613,-1.253246665,1.281741619,2024-06-04 16:18:31.498544
41.53902396,1.32448411,-1.460567594,1.143793941,2024-06-04 16:18:31.539024
41.5795035,0.8726921678,-0.6959966421,0.8738905191,2024-06-04 16:18:31.579504
41.61999141,0.3556546867,-0.0330222249,0.3901416063,2024-06-04 16:18:31.619991
41.66049662,0.004660394508,0.09107742459,-0.1106510833,2024-06-04 16:18:31.660497
41.70096964,-0.3904078901,0.2726996541,-0.6999912262,2024-06-04 16:18:31.700970
41.74144547,-0.7410027385,0.6230281591,-1.117695808,2024-06-04 16:18:31.741445
41.7819511,-0.9737561345,0.7737586498,-1.424349666,2024-06-04 16:18:31.781951
41.82243224,-1.043528914,0.869363308,-1.691456914,2024-06-04 16:18:31.822432
41.86291959,-1.094660044,0.6310173869,-1.786262631,2024-06-04 16:18:31.862920
41.90342157,-1.102915645,0.04473978654,-1.72527802,2024-06-04 16:18:31.903422
41.94390167,-1.053382277,-0.1300915778,-1.463763356,2024-06-04 16:18:31.943902
41.98439516,-0.9370055795,-0.0005326165119,-1.201316595,2024-06-04 16:18:31.984395
42.02489417,-0.8499227762,-0.05565842614,-0.8796161413,2024-06-04 16:18:32.024894
42.06535516,-0.5291544795,-0.1559234858,-0.4477973282,2024-06-04 16:18:32.065355
42.10586547,-0.2364817262,-0.3873453438,0.03462007269,2024-06-04 16:18:32.105865
42.14636594,-0.07469946891,-0.233951807,0.3611139953,2024-06-04 16:18:32.146366
42.18683073,0.04780233279,-0.158320263,0.5234288573,2024-06-04 16:18:32.186831
42.22732917,0.3074528873,0.06151720881,0.5958647132,2024-06-04 16:18:32.227329
42.26784157,0.5818835497,-0.07616416365,0.8376725912,2024-06-04 16:18:32.267842
42.30831089,0.7906692028,-0.04340824485,1.009441495,2024-06-04 16:18:32.308311
42.34882896,0.8279523849,0.1989322603,1.284937382,2024-06-04 16:18:32.348829
42.38929438,0.6769555807,0.2055899799,1.495587111,2024-06-04 16:18:32.389294
42.42980558,0.6836133003,-0.1639127284,1.735397696,2024-06-04 16:18:32.429806
42.47024766,0.8492570519,-0.5252930522,1.482005477,2024-06-04 16:18:32.470248
42.5107487,1.046857715,-0.8780183196,1.243126988,2024-06-04 16:18:32.510749
42.55122667,0.9094427228,-1.018096447,1.019827485,2024-06-04 16:18:32.551227
42.59176047,0.5501928329,-0.5220973492,0.6440665126,2024-06-04 16:18:32.591760
42.63225412,0.05978620425,-0.1237001866,0.2716344297,2024-06-04 16:18:32.632254
42.67272376,-0.211981371,0.1826874614,-0.1716356725,2024-06-04 16:18:32.672724
42.71319365,-0.4077179432,0.5314181447,-0.7935985923,2024-06-04 16:18:32.713194
42.75368193,-0.5065183043,0.7734923363,-1.174419403,2024-06-04 16:18:32.753682
42.79422657,-0.5611115098,0.9023855329,-1.492790937,2024-06-04 16:18:32.794227
42.83467448,-0.5579158068,0.8392704725,-1.805170536,2024-06-04 16:18:32.834674
42.8751412,-0.5850792527,0.4146419466,-1.945648074,2024-06-04 16:18:32.875141
42.91567204,-0.654053092,0.2013290375,-1.899976254,2024-06-04 16:18:32.915672
42.9561425,-0.7383396626,0.008255556226,-1.473350406,2024-06-04 16:18:32.956142
42.99666157,-0.8392704725,-0.05459319428,-1.196256638,2024-06-04 16:18:32.996662
43.03714355,-0.8834776282,-0.129292652,-0.7243584394,2024-06-04 16:18:33.037144
43.07759995,-0.6274222732,-0.5279561281,-0.261115253,2024-06-04 16:18:33.077600
43.11823537,-0.311580658,-0.6075822711,0.219171688,2024-06-04 16:18:33.118235
43.15860277,0.005459319334,-0.3849485815,0.4945344329,2024-06-04 16:18:33.158603
43.19909527,0.2043915838,-0.1548582464,0.5553858876,2024-06-04 16:18:33.199095
43.23958209,0.4813521802,0.03462007269,0.6331478953,2024-06-04 16:18:33.239582
43.28006042,0.6657706499,-0.06497921795,0.8078460693,2024-06-04 16:18:33.280060
43.32052667,0.8647028804,0.06684337556,0.9926640391,2024-06-04 16:18:33.320527
43.36104011,1.099054217,0.1872147024,1.368824482,2024-06-04 16:18:33.361040
43.40151912,1.054580688,-0.158320263,1.486532688,2024-06-04 16:18:33.401519
43.44202443,1.036738038,-0.1332872808,1.509967804,2024-06-04 16:18:33.442024
43.48251917,1.005579948,-0.6137073636,1.571218729,2024-06-04 16:18:33.482519
43.52301803,0.9872047305,-0.797593236,1.33899796,2024-06-04 16:18:33.523018
43.56350594,0.7725602388,-0.6501916051,0.9050486088,2024-06-04 16:18:33.563506
43.60398214,0.3500621915,-0.1870815456,0.5729622245,2024-06-04 16:18:33.603982
43.64446969,-0.04007939249,0.05033225939,0.1323551983,2024-06-04 16:18:33.644470
43.68499047,-0.332885325,0.122501798,-0.4584496617,2024-06-04 16:18:33.684990
43.72545683,-0.5270240307,0.3201025128,-0.9302147627,2024-06-04 16:18:33.725457
43.7659712,-0.7575138211,0.6294195652,-1.393990517,2024-06-04 16:18:33.765971
43.80645412,-0.9090432525,0.8864070177,-1.658700943,2024-06-04 16:18:33.806454
43.84690558,-0.9066464305,0.6637732983,-1.770284176,2024-06-04 16:18:33.846906
43.88740225,-0.8696296215,0.4138430357,-1.923411369,2024-06-04 16:18:33.887402
43.92792178,-0.9402012825,0.08708280325,-1.611031771,2024-06-04 16:18:33.927922
43.96841964,-1.04246366,-0.03861469775,-1.379876256,2024-06-04 16:18:33.968420
44.00890282,-1.156709909,-0.2075872868,-1.086537719,2024-06-04 16:18:34.008903
44.04935662,-0.9332773089,-0.2355496585,-0.5745600462,2024-06-04 16:18:34.049357
44.08982756,-0.5153064728,-0.5636414289,-0.1471353173,2024-06-04 16:18:34.089828
44.13033521,-0.113447316,-0.04234301299,0.4383433759,2024-06-04 16:18:34.130335
44.17082464,0.1553908736,-0.05272903293,0.619299829,2024-06-04 16:18:34.170825
44.21131511,0.4270252883,0.243672058,0.6802844405,2024-06-04 16:18:34.211315
44.25180433,0.4824174047,-0.08734910935,0.5045210123,2024-06-04 16:18:34.251804
44.29230594,0.7507229447,0.1187734827,0.734877646,2024-06-04 16:18:34.292306
44.33279438,0.9501878619,0.1320888996,1.113434792,2024-06-04 16:18:34.332794
44.37327844,0.8841434121,0.233286038,1.485467434,2024-06-04 16:18:34.373278
44.41379256,1.050852418,-0.1964023411,1.762028575,2024-06-04 16:18:34.413793
44.45427776,1.19159627,-0.4637758136,1.715824127,2024-06-04 16:18:34.454278
44.49480641,1.238466501,-0.8122401834,1.551778197,2024-06-04 16:18:34.494806
44.53528391,1.05617857,-0.8399362564,1.289198279,2024-06-04 16:18:34.535284
44.5757387,0.776288569,-0.5572500229,0.8395367861,2024-06-04 16:18:34.575739
44.6162285,0.2829525173,-0.3796224296,0.4314193726,2024-06-04 16:18:34.616228
44.65672553,-0.1310236603,-0.04447348043,-0.1716356725,2024-06-04 16:18:34.656726
44.69724386,-0.537676394,0.3816197217,-0.7302172184,2024-06-04 16:18:34.697244
44.73772516,-0.7785521746,0.8589772582,-1.113701105,2024-06-04 16:18:34.737725
44.77819209,-0.8680317402,0.9367392659,-1.481606007,2024-06-04 16:18:34.778192
44.81867615,-0.8275529146,0.8997224569,-1.707169056,2024-06-04 16:18:34.818676
44.85916511,-0.7079805136,0.5340812206,-1.828339338,2024-06-04 16:18:34.859165
44.89966402,-0.6553846002,0.02236989327,-1.820350051,2024-06-04 16:18:34.899664
44.94015745,-0.6537867785,-0.1620485783,-1.513562918,2024-06-04 16:18:34.940157
44.98062813,-0.799590528,-0.01198387146,-1.268692493,2024-06-04 16:18:34.980628
45.02109776,-0.8736242056,-0.06151720881,-0.9083774686,2024-06-04 16:18:35.021098
45.06161428,-0.6436670423,-0.3252955377,-0.4850804806,2024-06-04 16:18:35.061614
45.10208844,-0.3414071798,-0.4717650712,0.06684337556,2024-06-04 16:18:35.102088
45.14260745,-0.1123820841,-0.4190360308,0.449262023,2024-06-04 16:18:35.142607
45.18307428,0.07469946891,-0.2411421239,0.5950657725,2024-06-04 16:18:35.183074
45.22357037,0.3481980562,-0.1001319066,0.6698983908,2024-06-04 16:18:35.223570
45.26407329,0.5403394699,-0.1822880059,0.7868077159,2024-06-04 16:18:35.264073
45.30454329,0.706515789,0.008788172156,0.9838758707,2024-06-04 16:18:35.304543
45.34507032,0.7701634765,0.03488638252,1.27588284,2024-06-04 16:18:35.345070
45.38552407,0.9243559837,-0.0817566365,1.499848127,2024-06-04 16:18:35.385524
45.42601969,1.040199995,-0.1814890802,1.529940963,2024-06-04 16:18:35.426020
45.46652876,1.046591401,-0.7047848105,1.461499691,2024-06-04 16:18:35.466529
45.50701662,1.093461752,-0.8998556137,1.376014709,2024-06-04 16:18:35.507017
45.54758547,0.7701634765,-0.7143719196,1.106111288,2024-06-04 16:18:35.547585
45.58799422,0.4850804806,-0.4856131077,0.7825468183,2024-06-04 16:18:35.587994
45.62848652,0.1306242049,-0.1354177445,0.2593842447,2024-06-04 16:18:35.628487
45.66896636,-0.3107817471,0.2463351339,-0.2858819067,2024-06-04 16:18:35.668966
45.70946245,-0.6947982311,0.6451317668,-0.779484272,2024-06-04 16:18:35.709462
45.74997823,-0.9673647285,0.9311468005,-1.253512979,2024-06-04 16:18:35.749978
45.79046792,-1.007843614,1.03207767,-1.547117829,2024-06-04 16:18:35.790468
45.83088459,-0.9162335396,0.9175651073,-1.685598135,2024-06-04 16:18:35.830885
45.87143068,-0.8563141823,0.6896052361,-1.822214246,2024-06-04 16:18:35.871431
45.91188776,-0.7766880393,0.05698996782,-1.662429333,2024-06-04 16:18:35.911888
45.95240047,-0.7284862399,0.08388710022,-1.38387084,2024-06-04 16:18:35.952400
45.99289042,-0.6495258212,0.2074541301,-1.248719454,2024-06-04 16:18:35.992890
46.03337021,-0.522763133,-0.09054480493,-0.8670997024,2024-06-04 16:18:36.033370
46.07382126,-0.1765623689,-0.343937099,-0.3481980562,2024-06-04 16:18:36.073821
46.11439443,0.1159772426,-0.3508611321,0.2101172209,2024-06-04 16:18:36.114394
46.15486026,0.3146432042,-0.1734998226,0.4788222313,2024-06-04 16:18:36.154860
46.1953485,0.4978632927,0.005592473317,0.6022561193,2024-06-04 16:18:36.195349
46.23582928,0.6628412604,-0.002396774245,0.6536536217,2024-06-04 16:18:36.235829
46.27634407,0.6710968018,-0.1354177445,0.790536046,2024-06-04 16:18:36.276344
46.31683641,0.6929340959,-0.0519301109,0.9527177811,2024-06-04 16:18:36.316836
46.35729459,0.7259563208,-0.01651111245,1.286002517,2024-06-04 16:18:36.357295
46.39779698,0.8758878708,-0.3013277948,1.561897874,2024-06-04 16:18:36.397797
46.43826334,0.9488562942,-0.5905385613,1.587729812,2024-06-04 16:18:36.438263
46.47878313,1.052183867,-0.8170337081,1.532337666,2024-06-04 16:18:36.478783
46.51925943,1.003183246,-0.9022523761,1.348318696,2024-06-04 16:18:36.519259
46.55975261,0.6868090034,-0.6153052449,0.997990191,2024-06-04 16:18:36.559753
46.60022985,0.329023838,-0.2906754613,0.5111786723,2024-06-04 16:18:36.600230
46.64069777,0.02516612969,0.06977276504,-0.03195698932,2024-06-04 16:18:36.640698
46.68118047,-0.3746957183,0.2636451721,-0.5511249304,2024-06-04 16:18:36.681180
46.72170334,-0.6841459274,0.5111786723,-0.99679178,2024-06-04 16:18:36.721703
46.76219902,-0.8765535951,0.5998593569,-1.356174827,2024-06-04 16:18:36.762199
46.80269042,-1.080013156,0.6358109713,-1.629140735,2024-06-04 16:18:36.802690
46.84316886,-1.221156478,0.7223611474,-1.698913574,2024-06-04 16:18:36.843169
46.88364902,-1.1396662,0.5617772937,-1.594520688,2024-06-04 16:18:36.883649
46.92416615,-1.087469816,0.305721879,-1.454176188,2024-06-04 16:18:36.924166
46.96465183,-1.001718521,0.3081186414,-1.201582909,2024-06-04 16:18:36.964652
47.00512792,-0.8595098853,0.2513949871,-0.886806488,2024-06-04 16:18:37.005128
47.04560823,-0.6503247619,-0.005592473317,-0.5750926733,2024-06-04 16:18:37.045608
47.08609792,-0.2354165018,-0.3564535975,-0.1748313755,2024-06-04 16:18:37.086098
47.12660308,0.06537867337,-0.2392779738,0.1856168509,2024-06-04 16:18:37.126603
47.16711506,0.1849510819,0.0458050184,0.4934692085,2024-06-04 16:18:37.167115
47.20758323,0.3932041526,0.03648423031,0.6254249215,2024-06-04 16:18:37.207583
47.24807282,0.568834424,0.2580527067,0.8049166799,2024-06-04 16:18:37.248073
47.28855537,0.6766892672,-0.0926752761,0.8717600703,2024-06-04 16:18:37.288555
47.3290462,0.7701634765,-0.008521864191,1.033409238,2024-06-04 16:18:37.329046
47.36954464,0.7850767374,-0.1588528752,1.25511086,2024-06-04 16:18:37.369545
47.41005271,0.9011871219,-0.2121145278,1.346454501,2024-06-04 16:18:37.410053
47.4505299,1.054580688,-0.5788210034,1.41835773,2024-06-04 16:18:37.450530
47.49098334,1.158307791,-0.7448641658,1.428477526,2024-06-04 16:18:37.490983
47.53147006,0.9589760303,-0.7496577501,1.304111481,2024-06-04 16:18:37.531470
47.57197797,0.5797531009,-0.4800206423,0.9745550752,2024-06-04 16:18:37.571978
47.61247193,0.2355496585,-0.03621792421,0.447930485,2024-06-04 16:18:37.612472
47.65301876,-0.1459369212,0.1874810159,-0.1103847697,2024-06-04 16:18:37.653019
47.693506,-0.4167724252,0.591337502,-0.7398043275,2024-06-04 16:18:37.693506
47.73395503,-0.5754921436,0.5647066832,-1.181343436,2024-06-04 16:18:37.733955
47.77444733,-0.6994586587,0.7857425213,-1.508769393,2024-06-04 16:18:37.774447
47.81494446,-0.7676335573,0.9700278044,-1.731403112,2024-06-04 16:18:37.814944
47.85541894,-0.8083786964,0.8930647373,-1.816888094,2024-06-04 16:18:37.855419
47.89590769,-0.6981270909,0.6147726178,-1.846181989,2024-06-04 16:18:37.895908
47.93639576,-0.6908035874,0.06284874678,-1.730071545,2024-06-04 16:18:37.936396
47.97688279,-0.7878729701,-0.1359503716,-1.332207084,2024-06-04 16:18:37.976883
48.01738399,-0.7881392837,-0.2256962508,-1.006645203,2024-06-04 16:18:38.017384
48.0578405,-0.5922695398,-0.4469984174,-0.4629769027,2024-06-04 16:18:38.057840
48.09835175,-0.2071878165,-0.4640421271,0.1272953451,2024-06-04 16:18:38.098352
48.13885514,0.02090519853,-0.4765586257,0.3967992961,2024-06-04 16:18:38.138855
48.17936587,0.1902772486,-0.1585865617,0.5410051942,2024-06-04 16:18:38.179366
48.21984774,0.1846847683,-0.1958697289,0.5202331543,2024-06-04 16:18:38.219848
48.26029222,0.345801264,-0.1918751001,0.7532529235,2024-06-04 16:18:38.260292
48.30076399,0.5520570278,-0.0705716908,1.120625138,2024-06-04 16:18:38.300764
48.34125384,0.648194313,0.1640458852,1.430075288,2024-06-04 16:18:38.341254
48.38177983,0.7062494755,0.05912043154,1.604240894,2024-06-04 16:18:38.381780
48.42227936,0.8354089856,-0.4469984174,1.639659882,2024-06-04 16:18:38.422279
48.46274878,0.9730903506,-1.05697751,1.473749876,2024-06-04 16:18:38.462749
48.50325769,1.112635851,-1.677875161,1.346987128,2024-06-04 16:18:38.503258
48.54374253,0.9616391063,-1.266562104,1.12967968,2024-06-04 16:18:38.543743
48.58423238,0.5331491232,-0.01304910425,0.6539199352,2024-06-04 16:18:38.584232
48.62470259,0.217174381,0.3810871243,0.2764279842,2024-06-04 16:18:38.624703
48.66519785,-0.04620448127,0.3014609516,-0.2635120153,2024-06-04 16:18:38.665198
48.7056893,-0.3469996452,0.610245347,-0.791734457,2024-06-04 16:18:38.705689
48.74621332,-0.6255580783,0.7969274521,-1.170691133,2024-06-04 16:18:38.746213
48.78666811,-0.771894455,0.9079779983,-1.59239018,2024-06-04 16:18:38.786668
48.82718509,-0.8552489877,0.9790822864,-1.88266623,2024-06-04 16:18:38.827185
48.86766535,-0.9215596914,0.7029206157,-1.900775194,2024-06-04 16:18:38.867665
48.90813462,-0.979881227,0.1470021605,-1.696783066,2024-06-04 16:18:38.908135
48.94865509,-0.9801475406,0.09480573982,-1.401447177,2024-06-04 16:18:38.948655
48.98911425,-0.8981245756,0.112115778,-1.106244445,2024-06-04 16:18:38.989114
49.02968779,-0.7335460782,0.1123820841,-0.7539186478,2024-06-04 16:18:39.029688
49.07007009,-0.4050548673,-0.004527240526,-0.3362141848,2024-06-04 16:18:39.070070
49.11055936,-0.07709623873,-0.1194392517,0.07989247888,2024-06-04 16:18:39.110559
49.15108514,0.1319557428,-0.3210346103,0.3408745527,2024-06-04 16:18:39.151085
49.19158238,0.3213009238,-0.2680392563,0.4535229504,2024-06-04 16:18:39.191582
49.23205404,0.5103797913,-0.2539249361,0.499594301,2024-06-04 16:18:39.232054
49.27254285,0.7656362653,-0.1322220564,0.649658978,2024-06-04 16:18:39.272543
49.31307675,0.8934642076,-0.2102503628,0.903717041,2024-06-04 16:18:39.313077
49.35352498,0.9464595318,0.2090519816,1.300915837,2024-06-04 16:18:39.353525
49.39403649,0.9504541755,-0.1308905035,1.661763549,2024-06-04 16:18:39.394036
49.4345055,0.9214265943,-0.5830819011,1.497451305,2024-06-04 16:18:39.434506
49.47501951,0.9557803273,-0.585478723,1.360302567,2024-06-04 16:18:39.475020
49.51551566,0.9390029311,-1.045526266,1.495853424,2024-06-04 16:18:39.515516
49.55599139,0.6809502244,-0.9485899806,1.243393302,2024-06-04 16:18:39.555991
49.59647894,0.3540568352,-0.6595124006,0.8701622486,2024-06-04 16:18:39.596479
49.63697404,0.06138405204,-0.1844184697,0.3195699155,2024-06-04 16:18:39.636974
49.67747608,-0.3842828274,0.4271584451,-0.3442034125,2024-06-04 16:18:39.677476
49.71795566,-0.7316819429,0.9133041501,-0.8516538143,2024-06-04 16:18:39.717956
49.75843649,-0.9260869622,1.021957874,-1.182142377,2024-06-04 16:18:39.758436
49.79897217,-0.9623048902,0.9492557645,-1.456573009,2024-06-04 16:18:39.798972
49.83941056,-0.9588428736,1.104912996,-1.644852996,2024-06-04 16:18:39.839411
49.87988842,-0.8464608192,0.7785521746,-1.745251179,2024-06-04 16:18:39.879888
49.92040404,-0.7729597092,0.1280942708,-1.711429954,2024-06-04 16:18:39.920404
49.96087149,-0.7053174376,0.03115806542,-1.520486951,2024-06-04 16:18:39.960871
50.00136983,-0.6426018476,0.01704372838,-1.309703946,2024-06-04 16:18:40.001370
50.04185056,-0.4655068219,-0.05592473224,-0.9579107761,2024-06-04 16:18:40.041851
50.08233873,-0.1366161406,-0.1083874628,-0.4174381793,2024-06-04 16:18:40.082339
50.12285498,0.1484668553,-0.09986559302,0.1592523307,2024-06-04 16:18:40.122855
50.16334509,0.2816209793,-0.1207707971,0.4710993171,2024-06-04 16:18:40.163345
50.20382644,0.3434045017,-0.1711030602,0.6046528816,2024-06-04 16:18:40.203826
50.24432425,0.4328840673,-0.03648423031,0.6083812118,2024-06-04 16:18:40.244324
50.28479681,0.5877423286,-0.1423417628,0.7449973226,2024-06-04 16:18:40.284797
50.32530529,0.7097114921,-0.2366148829,0.9796149135,2024-06-04 16:18:40.325305
50.36580946,0.834610045,0.09134373069,1.397319436,2024-06-04 16:18:40.365809
50.40629253,0.8937305212,-0.1500647068,1.646583915,2024-06-04 16:18:40.406293
50.4467991,0.9557803273,-0.5191679597,1.458836675,2024-06-04 16:18:40.446799
50.48725332,1.158574104,-0.8455287218,1.221289635,2024-06-04 16:18:40.487253
50.52774863,1.163101315,-1.016498566,1.185870647,2024-06-04 16:18:40.527749
50.56824972,0.8583115339,-1.009574652,0.9665657878,2024-06-04 16:18:40.568250
50.60874108,0.4842815697,-0.5947995186,0.6565830112,2024-06-04 16:18:40.608741
50.64922868,0.1601844132,-0.2786915898,0.3725652397,2024-06-04 16:18:40.649229
50.68970691,-0.2822867632,0.290275991,-0.177760765,2024-06-04 16:18:40.689707
50.73018519,-0.4942681193,0.3587172329,-0.591337502,2024-06-04 16:18:40.730185
50.77066457,-0.906912744,0.7271546721,-1.115032673,2024-06-04 16:18:40.770665
50.81116535,-1.203313828,0.7066489458,-1.346587658,2024-06-04 16:18:40.811165
50.85165503,-1.325416207,0.8595098853,-1.518090248,2024-06-04 16:18:40.851655
50.89215399,-1.382406116,0.692268312,-1.587064028,2024-06-04 16:18:40.892154
50.93265821,-1.151916385,0.4617785215,-1.436067224,2024-06-04 16:18:40.932658
50.97314222,-0.8885374665,0.07323476672,-1.164299726,2024-06-04 16:18:40.973142
51.01363248,-0.5387415886,0.03648423031,-0.773625493,2024-06-04 16:18:41.013632
51.0540704,-0.475093931,-0.0758978501,-0.4344819188,2024-06-04 16:18:41.054070
51.09458389,-0.4354139864,-0.2107829899,-0.394269377,2024-06-04 16:18:41.094584
51.13510279,-0.3603150845,-0.3705679476,-0.2477998286,2024-06-04 16:18:41.135103
51.17562384,-0.1203713343,-0.3753614724,0.1062569916,2024-06-04 16:18:41.175624
51.21610144,0.1093195379,0.09853405505,0.4689688385,2024-06-04 16:18:41.216101
51.25656915,0.2994636297,0.2290250957,0.5292876363,2024-06-04 16:18:41.256569
51.29705764,0.4683030546,0.1632469594,0.7186328173,2024-06-04 16:18:41.297058
51.33754904,0.6063839197,0.05166380107,0.8770862222,2024-06-04 16:18:41.337549
51.37803988,0.6202319264,0.1246322617,1.193859935,2024-06-04 16:18:41.378040
51.41852306,0.6673684716,0.07856093347,1.320090055,2024-06-04 16:18:41.418523
51.45901894,0.7464620471,0.1701709777,1.562963128,2024-06-04 16:18:41.459019
51.4995205,0.9286168814,-0.5641740561,1.592523336,2024-06-04 16:18:41.499521
51.539993,1.29332602,-0.9917319417,1.465760589,2024-06-04 16:18:41.539993
51.58047769,1.232075095,-0.843398273,1.109573364,2024-06-04 16:18:41.580478
51.62097279,0.9094427228,-0.6448654532,0.6182346344,2024-06-04 16:18:41.620973
51.66145847,0.4991948307,-0.2158428431,0.05246272683,2024-06-04 16:18:41.661458
51.70196071,0.0952052027,0.1978670359,-0.5106461048,2024-06-04 16:18:41.701961
51.74246009,-0.348331213,0.4106473327,-0.8314144015,2024-06-04 16:18:41.742460
51.78293316,-0.6750914454,0.600391984,-1.225816846,2024-06-04 16:18:41.782933
51.82340108,-0.9252880216,0.6368761659,-1.484535336,2024-06-04 16:18:41.823401
51.86391644,-1.086937189,0.7748238444,-1.708766937,2024-06-04 16:18:41.863916
51.90441113,-1.068029284,0.8219604492,-1.776142955,2024-06-04 16:18:41.904411
51.94495196,-0.9732235074,0.5170374513,-1.816888094,2024-06-04 16:18:41.944952
51.98538748,-0.8509880304,0.08521863818,-1.535932899,2024-06-04 16:18:41.985387
52.02587613,-0.7007901669,-0.1540593207,-1.171756268,2024-06-04 16:18:42.025876
52.06633123,-0.6798849702,-0.160983339,-0.7416685224,2024-06-04 16:18:42.066331
52.10684753,-0.5259587765,-0.5114449859,-0.3892095089,2024-06-04 16:18:42.106848
52.14735863,-0.2090519816,-0.6398055553,0.06364767253,2024-06-04 16:18:42.147359
52.18785946,0.01744319126,-0.5266245604,0.4194355011,2024-06-04 16:18:42.187859
52.22833556,0.1998643428,-0.3431381881,0.6717625856,2024-06-04 16:18:42.228336
52.2688205,0.3846822679,-0.05139749497,0.7908023596,2024-06-04 16:18:42.268820
52.30932472,0.635944128,0.1302247345,0.9569787383,2024-06-04 16:18:42.309325
52.34981826,0.6170362234,-0.07563154399,1.139799356,2024-06-04 16:18:42.349818
52.39031191,0.5917369723,0.1624480337,1.44658649,2024-06-04 16:18:42.390312
52.43076384,0.6575151086,-0.2629793882,1.568022966,2024-06-04 16:18:42.430764
52.47125404,0.901719749,-0.4302209914,1.382406116,2024-06-04 16:18:42.471254
52.51178316,1.095325828,-0.6826812029,1.222621202,2024-06-04 16:18:42.511783
52.55226972,1.146057606,-0.797593236,1.213300467,2024-06-04 16:18:42.552270
52.59275524,0.837805748,-0.6768224239,1.090399146,2024-06-04 16:18:42.592755
52.63320592,0.4896077216,-0.4054543078,0.6805507541,2024-06-04 16:18:42.633206
52.67370738,0.06990591437,0.02556559257,0.1941387206,2024-06-04 16:18:42.673707
52.71422238,-0.3523258269,0.3515268862,-0.3247629106,2024-06-04 16:18:42.714222
52.75469233,-0.6989260316,0.6698983908,-0.8122401834,2024-06-04 16:18:42.754692
52.79521201,-0.8200962543,0.906113863,-1.282274246,2024-06-04 16:18:42.795212
52.83565279,-0.906113863,0.83314538,-1.520753264,2024-06-04 16:18:42.835653
52.87615936,-0.9215596914,0.8760210276,-1.626477718,2024-06-04 16:18:42.876159
52.9166566,-0.8845428824,0.7732260227,-1.759631753,2024-06-04 16:18:42.916657
52.95715509,-0.8097102642,0.5055862069,-1.769218922,2024-06-04 16:18:42.957155
52.99768186,-0.66949898,-0.007190322969,-1.467225313,2024-06-04 16:18:42.997682
53.03814535,-0.5717638135,-0.07616416365,-1.252447724,2024-06-04 16:18:43.038145
53.07860545,-0.5200999975,-0.05352795869,-0.8247566819,2024-06-04 16:18:43.078605
53.11909149,-0.288944453,-0.2541912198,-0.3567199111,2024-06-04 16:18:43.119091
53.15962571,0.01158440951,-0.3892095089,0.1219691783,2024-06-04 16:18:43.159626
53.20011571,0.2025274336,-0.2776263654,0.3017272651,2024-06-04 16:18:43.200116
53.24055634,0.3900084496,-0.1990654171,0.4218322635,2024-06-04 16:18:43.240556
53.28106665,0.6045197248,-0.06284874678,0.6294195652,2024-06-04 16:18:43.281067
53.32155613,0.7115756869,-0.1223686412,0.7428668737,2024-06-04 16:18:43.321556
53.36204056,0.7129071951,0.0977351293,1.025952578,2024-06-04 16:18:43.362041
53.40252842,0.8647028804,-0.06071828306,1.387732267,2024-06-04 16:18:43.402528
53.4430317,0.978682816,-0.2392779738,1.60024631,2024-06-04 16:18:43.443032
53.48352852,1.164432883,-0.5495271087,1.524614811,2024-06-04 16:18:43.483529
53.52403993,1.295456529,-0.850055933,1.618621588,2024-06-04 16:18:43.524040
53.56449332,1.185737491,-1.093728065,1.400515079,2024-06-04 16:18:43.564493
53.60499009,0.6860100627,-0.733679235,1.098921061,2024-06-04 16:18:43.604990
53.6454955,0.2022611201,-0.1268958896,0.5689675808,2024-06-04 16:18:43.645496
53.68598217,-0.1664426625,0.116643019,0.1126483902,2024-06-04 16:18:43.685982
53.72646451,-0.5025236607,0.3909405172,-0.3412740231,2024-06-04 16:18:43.726465
53.76696134,-0.7207632661,0.4007939398,-0.8274197578,2024-06-04 16:18:43.766961
53.80745102,-0.8927984238,0.7431331873,-1.402246118,2024-06-04 16:18:43.807451
53.84793691,-1.03207767,0.9228912592,-1.699446082,2024-06-04 16:18:43.847937
53.88842227,-1.125285506,0.8541837335,-1.718353987,2024-06-04 16:18:43.888422
53.92892311,-1.091997027,0.3331516385,-1.795317054,2024-06-04 16:18:43.928923
53.96941363,-0.9870715737,-0.235283345,-1.617423177,2024-06-04 16:18:43.969414
54.00989269,-0.9082443118,0.04473978654,-1.274018645,2024-06-04 16:18:44.009893
54.05037998,-0.6306179762,-0.008788172156,-1.218626618,2024-06-04 16:18:44.050380
54.09086722,-0.3123795986,-0.147401616,-0.7738918066,2024-06-04 16:18:44.090867
54.13135769,-0.0845528692,-0.5138418078,-0.2062557489,2024-06-04 16:18:44.131358
54.17184774,0.156456098,-0.2613815665,0.4071853161,2024-06-04 16:18:44.171848
54.21233946,0.1966686398,-0.1255643368,0.5987941027,2024-06-04 16:18:44.212339
54.25284634,0.3135779798,0.08069140464,0.6858769059,2024-06-04 16:18:44.252846
54.29332925,0.357518822,-0.07509893179,0.7170349956,2024-06-04 16:18:44.293329
54.33381196,0.4485962689,-0.1171756312,0.7822805047,2024-06-04 16:18:44.333812
54.37432332,0.4818847775,0.001597849536,1.050452948,2024-06-04 16:18:44.374323
54.41481191,0.6796186566,0.2982652485,1.303845167,2024-06-04 16:18:44.414812
54.455293,0.8255556226,-0.0458050184,1.42288506,2024-06-04 16:18:44.455293
54.49577597,0.9158340693,-0.2802894413,1.716623068,2024-06-04 16:18:44.495776
54.53627337,1.017031193,-0.5356790423,1.539794326,2024-06-04 16:18:44.536273
54.57676873,0.9115731716,-0.9856068492,1.250050902,2024-06-04 16:18:44.576769
54.61724102,0.7930659652,-0.7523208261,0.8893364072,2024-06-04 16:18:44.617241
54.657728,0.4944012761,-0.365241766,0.5014584661,2024-06-04 16:18:44.657728
54.69822628,0.07150376588,0.1898777932,-0.01038602181,2024-06-04 16:18:44.698226
54.73871483,-0.3232982159,0.4268921316,-0.591337502,2024-06-04 16:18:44.738715
54.77920472,-0.6849448085,0.6334142089,-1.015965939,2024-06-04 16:18:44.779205
54.81969571,-0.8850755095,0.7604432106,-1.305975676,2024-06-04 16:18:44.819696
54.86018915,-1.037670135,0.8445966244,-1.582004189,2024-06-04 16:18:44.860189
54.90067514,-0.9841421843,0.8885374665,-1.741522789,2024-06-04 16:18:44.900675
54.9411355,-0.8456618786,0.5953320861,-1.817687035,2024-06-04 16:18:44.941136
54.98164832,-0.8611077666,0.2308892608,-1.591857553,2024-06-04 16:18:44.981648
55.02217326,-0.8411346078,0.000266308256,-1.358837843,2024-06-04 16:18:45.022173
55.06267014,-0.7921339273,0.03248960897,-1.085472465,2024-06-04 16:18:45.062670
55.10313399,-0.581084609,-0.158320263,-0.5258256793,2024-06-04 16:18:45.103134
55.14363681,-0.2609820962,-0.3178389072,-0.01944050193,2024-06-04 16:18:45.143637
55.18413149,0.005725627299,-0.378823489,0.3294233084,2024-06-04 16:18:45.184131
55.22459878,0.2054568231,-0.1306242049,0.6142399907,2024-06-04 16:18:45.224599
55.26509238,0.3663070202,-0.1153114736,0.6360772848,2024-06-04 16:18:45.265092
55.3056243,0.6098458767,0.1360835135,0.8419335485,2024-06-04 16:18:45.305624
55.34611503,0.7395380139,-0.09374050796,0.9279510975,2024-06-04 16:18:45.346115
55.38655936,0.8194305301,-0.08814803511,1.214898229,2024-06-04 16:18:45.386559
55.42710014,0.724624753,-0.1878804713,1.359503627,2024-06-04 16:18:45.427100
55.46756441,0.7659025192,-0.5412715077,1.449782133,2024-06-04 16:18:45.467564
55.5080479,0.9584434032,-0.6443328261,1.32488358,2024-06-04 16:18:45.508048
55.54854904,1.072689652,-0.7576469779,1.338731647,2024-06-04 16:18:45.548549
55.58903977,0.9600412846,-0.9350082874,1.202914357,2024-06-04 16:18:45.589040
55.62953686,0.8204957247,-0.7480598688,0.9138367772,2024-06-04 16:18:45.629537
55.66999373,0.4315525293,-0.3247629106,0.5340812206,2024-06-04 16:18:45.669994
55.71048451,-0.05552527308,0.1645784974,0.09933298081,2024-06-04 16:18:45.710485
55.75097207,-0.5003932118,0.5676360726,-0.5303528905,2024-06-04 16:18:45.750972
55.79146967,-0.8499227762,0.9356740713,-0.9698946476,2024-06-04 16:18:45.791470
55.83197014,-1.118361473,0.9822779894,-1.249518394,2024-06-04 16:18:45.831970
55.8724342,-1.11809516,1.09439373,-1.59239018,2024-06-04 16:18:45.872434
55.91294707,-0.8922657967,0.8392704725,-1.824344754,2024-06-04 16:18:45.912947
55.95342717,-0.811840713,0.2085193694,-1.715957284,2024-06-04 16:18:45.953427
55.99393358,-0.8030525446,-0.3002625704,-1.56575942,2024-06-04 16:18:45.993934
56.0344229,-0.6745588183,-0.0708379969,-1.430208445,2024-06-04 16:18:46.034423
56.07487863,-0.6487269402,0.07323476672,-1.146989703,2024-06-04 16:18:46.074879
56.11542352,-0.4748276174,-0.09134373069,-0.5247604251,2024-06-04 16:18:46.115424
56.15589717,-0.2825530469,-0.2826862037,0.03488638252,2024-06-04 16:18:46.155897
56.19642915,-0.1877473146,-0.2624467909,0.3757609427,2024-06-04 16:18:46.196429
56.23689597,0.1146457046,-0.02157096937,0.5753589869,2024-06-04 16:18:46.236896
56.27736425,0.3665733039,0.12117026,0.5774894357,2024-06-04 16:18:46.277364
56.31788529,0.4517919421,0.1451379955,0.771894455,2024-06-04 16:18:46.317885
56.35833259,0.5461982489,-0.08894696087,0.9010539651,2024-06-04 16:18:46.358333
56.39884644,0.6284874678,-0.04660394415,1.163234472,2024-06-04 16:18:46.398846
56.43932014,0.7115756869,-0.3047898114,1.463097572,2024-06-04 16:18:46.439320
56.47985743,0.9118394852,-0.412378341,1.590659261,2024-06-04 16:18:46.479857
56.52032056,1.047390342,-0.7250242233,1.432205796,2024-06-04 16:18:46.520321
56.56078394,1.050586104,-1.135272145,1.449249506,2024-06-04 16:18:46.560784
56.60130743,0.9400681257,-1.115831614,1.244192123,2024-06-04 16:18:46.601307
56.6418042,0.6473953724,-0.6515231729,0.8184984326,2024-06-04 16:18:46.641804
56.68226108,0.2187722325,-0.1916087866,0.3840165138,2024-06-04 16:18:46.682261
56.72276785,-0.2037258148,0.0708379969,-0.01011971384,2024-06-04 16:18:46.722768
56.76325884,-0.5792204738,0.3888100684,-0.6073159575,2024-06-04 16:18:46.763259
56.80372587,-0.8006557822,0.603587687,-1.128081799,2024-06-04 16:18:46.803726
56.84421759,-0.9588428736,0.8829450011,-1.511166215,2024-06-04 16:18:46.844218
56.88472592,-1.00012064,0.9702941179,-1.685864449,2024-06-04 16:18:46.884726
56.92521363,-0.9785496593,0.8824124336,-1.807034612,2024-06-04 16:18:46.925214
56.96572134,-0.8443303108,0.5077167153,-1.765224218,2024-06-04 16:18:46.965721
57.00623983,-0.8805482388,0.3720326424,-1.456573009,2024-06-04 16:18:47.006240
57.04673108,-0.8768199086,0.1781602204,-1.250849843,2024-06-04 16:18:47.046731
57.08716956,-0.8099765778,0.1659100503,-0.9914656281,2024-06-04 16:18:47.087170
57.12766868,-0.6439333558,-0.1932066381,-0.4941349626,2024-06-04 16:18:47.127669
57.16815493,-0.225563094,-0.3527252972,0.03728315607,2024-06-04 16:18:47.168155
57.20866045,0.1314231306,-0.0822892487,0.4327509105,2024-06-04 16:18:47.208660
57.24916233,0.33807832,0.2031932026,0.5729622245,2024-06-04 16:18:47.249162
57.28963134,0.5053198934,0.1605838835,0.6030550599,2024-06-04 16:18:47.289631
57.33012931,0.574693203,-0.01411433797,0.7926664948,2024-06-04 16:18:47.330129
57.37063206,0.6441996694,-0.03754946589,1.065099835,2024-06-04 16:18:47.370632
57.4111217,0.7275541425,-0.05539211631,1.237001896,2024-06-04 16:18:47.411122
57.45160373,0.7914681435,-0.07536523789,1.361101508,2024-06-04 16:18:47.451604
57.49208852,0.9840090275,-0.2264951766,1.421020865,2024-06-04 16:18:47.492089
57.53258436,1.107309699,-0.3053224087,1.311035514,2024-06-04 16:18:47.532584
57.57307753,1.151383758,-0.5497934222,1.263632655,2024-06-04 16:18:47.573078
57.61356769,0.9083774686,-0.5860112906,1.140864611,2024-06-04 16:18:47.613568
57.65404998,0.6460638046,-0.6573819518,0.9929303527,2024-06-04 16:18:47.654050
57.69455139,0.2760285139,-0.2832188308,0.5018579364,2024-06-04 16:18:47.694551
57.73503649,-0.0512643382,-0.123167567,-0.1620485783,2024-06-04 16:18:47.735036
57.77554316,-0.4037233293,0.2806889117,-0.7422010899,2024-06-04 16:18:47.775543
57.81598274,-0.6423355341,0.4844147265,-1.221822262,2024-06-04 16:18:47.815983
57.85649597,-0.8435314298,0.6017234921,-1.578542233,2024-06-04 16:18:47.856496
57.89700587,-0.9846747518,0.8898690343,-1.738060832,2024-06-04 16:18:47.897006
57.93750399,-0.8906679749,0.8182321191,-1.977605104,2024-06-04 16:18:47.937504
57.97800279,-0.7990579009,0.4460663199,-1.795317054,2024-06-04 16:18:47.978003
58.01847149,-0.6708304882,0.04473978654,-1.316627979,2024-06-04 16:18:48.018471
58.05894592,-0.5347470045,0.2987978756,-1.20983839,2024-06-04 16:18:48.058946
58.09944743,-0.4202344418,0.1041265279,-1.008509398,2024-06-04 16:18:48.099447
58.13994186,-0.2476666719,-0.1426080763,-0.4930697381,2024-06-04 16:18:48.139942
58.18041373,-0.1073222235,-0.4741618633,-0.006391398143,2024-06-04 16:18:48.180414
58.22091066,0.04434032366,-0.2723001838,0.3643096983,2024-06-04 16:18:48.220911
58.26140884,0.2501966059,-0.1126483902,0.6291532516,2024-06-04 16:18:48.261409
58.3018866,0.3386109471,-0.09720251709,0.6339467764,2024-06-04 16:18:48.301887
58.34237712,0.3388772607,-0.235283345,0.5444672108,2024-06-04 16:18:48.342377
58.3828967,0.5989272594,-0.1155777797,0.7029206157,2024-06-04 16:18:48.382897
58.4233905,0.6889394522,0.03142437339,1.192794681,2024-06-04 16:18:48.423390
58.46388134,0.6977276206,0.1169093251,1.628474951,2024-06-04 16:18:48.463881
58.50434717,0.9105079174,-0.471232444,1.788126826,2024-06-04 16:18:48.504347
58.54488462,1.117163181,-0.8250229955,1.454309344,2024-06-04 16:18:48.544885
58.58537535,1.091863871,-1.019960642,1.246588945,2024-06-04 16:18:48.585375
58.62580951,0.9222254753,-0.913969934,0.9196955562,2024-06-04 16:18:48.625810
58.66633529,0.4483299553,-0.3556546867,0.6398055553,2024-06-04 16:18:48.666335
58.70684675,0.09227581322,-0.01038602181,0.4165061116,2024-06-04 16:18:48.706847
58.74732165,-0.1565892547,0.2793573737,-0.002929390874,2024-06-04 16:18:48.747322
58.78782243,-0.467903614,0.4852136374,-0.6659038067,2024-06-04 16:18:48.787822
58.82829852,-0.6380745769,0.7279536128,-1.124886036,2024-06-04 16:18:48.828299
58.86879561,-0.8461945057,0.9058475494,-1.437665105,2024-06-04 16:18:48.868796
58.90927972,-0.8342106342,0.9945281744,-1.608901381,2024-06-04 16:18:48.909280
58.94975988,-0.7234264016,0.8898690343,-1.831801295,2024-06-04 16:18:48.949760
58.99024852,-0.5792204738,0.4764254689,-1.929802775,2024-06-04 16:18:48.990249
59.03071415,-0.5528559685,0.02769605815,-1.499981284,2024-06-04 16:18:49.030714
59.07121514,-0.6431344151,-0.1620485783,-1.259371758,2024-06-04 16:18:49.071215
59.11170587,-0.6284874678,-0.04127778113,-0.892665267,2024-06-04 16:18:49.111706
59.152213,-0.4945344329,-0.2999962568,-0.4430037737,2024-06-04 16:18:49.152213
59.19269509,-0.2303566486,-0.4563191831,0.05565842614,2024-06-04 16:18:49.192695
59.23322467,0.04220985994,-0.3513937294,0.5505923033,2024-06-04 16:18:49.233225
59.27368894,0.173233524,-0.1625811905,0.5774894357,2024-06-04 16:18:49.273689
59.31418894,0.3481980562,-0.0229025092,0.5524564981,2024-06-04 16:18:49.314189
59.35468535,0.4664389193,-0.2001306564,0.6816160083,2024-06-04 16:18:49.354685
59.39520441,0.5571168661,-0.2296908647,0.9724246264,2024-06-04 16:18:49.395204
59.43566206,0.6311505437,-0.1073222235,1.215697169,2024-06-04 16:18:49.435662
59.47618681,0.7272878289,0.1054580659,1.520353794,2024-06-04 16:18:49.476187
59.51663477,0.8244903684,-0.4592485726,1.519022346,2024-06-04 16:18:49.516635
59.55713233,0.9006544948,-0.6643059254,1.483869553,2024-06-04 16:18:49.557132
59.59762316,0.9248885512,-0.9666989446,1.46442914,2024-06-04 16:18:49.597623
59.63809904,0.7872071862,-0.8748226166,1.065898776,2024-06-04 16:18:49.638099
59.67860915,0.4693683088,-0.4014596939,0.8483249545,2024-06-04 16:18:49.678609
59.71909785,0.1013302878,0.002396774245,0.5362116694,2024-06-04 16:18:49.719098
59.75957316,-0.226894632,0.1834863871,-0.01837527007,2024-06-04 16:18:49.759573
59.80008118,-0.5499265194,0.5186353326,-0.6134410501,2024-06-04 16:18:49.800081
59.84059394,-0.7524539828,0.7868077159,-1.145658135,2024-06-04 16:18:49.840594
59.88101462,-0.8515206575,1.070692301,-1.576145411,2024-06-04 16:18:49.881015
59.92154384,-0.7543181181,1.06696403,-1.696250439,2024-06-04 16:18:49.921544
59.96205321,-0.6122426987,0.7564486265,-1.792920351,2024-06-04 16:18:49.962053
60.00253196,-0.5440677404,0.3251623809,-1.839257956,2024-06-04 16:18:50.002532
60.04303139,-0.5909380317,-0.04820179567,-1.48932898,2024-06-04 16:18:50.043031
60.08350363,-0.5150401592,-0.009320789017,-0.803984642,2024-06-04 16:18:50.083504
60.12399623,-0.46018067,-0.1078548431,-0.5857450366,2024-06-04 16:18:50.123996
60.16451113,-0.504121542,-0.3785571754,-0.4105141759,2024-06-04 16:18:50.164511
60.20499706,-0.2774932086,-0.4091826379,-0.1705704331,2024-06-04 16:18:50.204997
60.24546217,-0.0685743764,-0.2864145339,0.1624480337,2024-06-04 16:18:50.245462
60.28597946,0.03342168778,0.09081111848,0.3730978668,2024-06-04 16:18:50.285979
60.32642858,0.1934729517,-0.02663082629,0.5639077425,2024-06-04 16:18:50.326429
60.36695904,0.3170399666,-0.004527240526,0.8275529146,2024-06-04 16:18:50.366959
60.40743238,0.409715265,-0.164179042,1.034474373,2024-06-04 16:18:50.407432
60.44793665,0.5496602654,0.04207670316,1.274018645,2024-06-04 16:18:50.447937
60.48841087,0.687874198,-0.1372819096,1.473749876,2024-06-04 16:18:50.488411
60.52889087,0.8793498874,-0.4150414169,1.507304788,2024-06-04 16:18:50.528891
60.56943201,1.042863131,-0.7728265524,1.461233377,2024-06-04 16:18:50.569432
60.60987514,1.011971354,-1.031145573,1.23433876,2024-06-04 16:18:50.609875
60.65040399,0.7009233236,-0.8146369457,1.057643294,2024-06-04 16:18:50.650404
60.69088472,0.3210346103,-0.5191679597,0.7982590199,2024-06-04 16:18:50.690885
