Time (s),Linear Acceleration x (m/s^2),Linear Acceleration y (m/s^2),Linear Acceleration z (m/s^2),Datetime
0.073706203,0.0,0.0,0.0,2024-06-04 16:17:50.073706
0.11419563,-0.7580399513,0.5878844261,-3.436579704,2024-06-04 16:17:50.114196
0.199269276,-1.473381996,1.130217791,-2.411627769,2024-06-04 16:17:50.199269
0.23976464,0.403326273,-1.489827871,0.4945421219,2024-06-04 16:17:50.239765
0.28024714,0.5695806742,0.8032345772,2.996946335,2024-06-04 16:17:50.280247
0.320787817,2.872721672,-0.2803440094,-0.5768136978,2024-06-04 16:17:50.320788
0.361224745,10.29879284,1.176125288,-2.443772316,2024-06-04 16:17:50.361225
0.401701411,2.54241991,0.03218197823,2.579907417,2024-06-04 16:17:50.401701
0.442198286,-4.492236137,-4.577432632,0.5228652954,2024-06-04 16:17:50.442198
0.482694015,-0.01718322933,-2.682939529,-0.0779914856,2024-06-04 16:17:50.482694
0.523178338,5.399412155,3.119175673,-4.156615257,2024-06-04 16:17:50.523178
0.563669536,0.3627874255,0.5969250202,-1.128126621,2024-06-04 16:17:50.563670
0.60415938,0.9609951973,1.139399529,-3.540699005,2024-06-04 16:17:50.604159
0.644645838,0.2352511883,-0.1559786797,0.1817264557,2024-06-04 16:17:50.644646
0.685154797,1.600161076,-0.5999646187,2.884971619,2024-06-04 16:17:50.685155
0.725660682,2.241126776,-2.043740273,0.6738300323,2024-06-04 16:17:50.725661
0.766114901,0.4635810852,-2.293356657,2.03759861,2024-06-04 16:17:50.766115
0.806604536,-0.254639864,0.07232069969,-0.3689718246,2024-06-04 16:17:50.806605
0.84709688,-0.20652771,0.6024516225,-0.6154928207,2024-06-04 16:17:50.847097
0.887586151,1.17202282,-0.8318221569,-0.2735500336,2024-06-04 16:17:50.887586
0.928071359,2.594950914,-1.515337348,-3.562498569,2024-06-04 16:17:50.928071
0.968558651,1.433512688,-3.143431902,-0.3802714348,2024-06-04 16:17:50.968559
1.009064328,-0.4469232559,-3.183450937,0.2197847366,2024-06-04 16:17:51.009064
1.04953037,-0.3835744858,0.1617069244,-2.666025162,2024-06-04 16:17:51.049530
1.090031984,-7.2027421,0.8794226646,-1.418771267,2024-06-04 16:17:51.090032
1.130498026,-10.74222279,2.144799232,-0.5525083542,2024-06-04 16:17:51.130498
1.171020734,-8.79734993,3.074417591,7.929896355,2024-06-04 16:17:51.171021
1.211512297,-0.589553833,3.53954649,4.141663551,2024-06-04 16:17:51.211512
1.252017088,0.01228237152,3.07908535,5.421063423,2024-06-04 16:17:51.252017
1.292492817,4.307168007,3.343087912,6.042079449,2024-06-04 16:17:51.292493
1.332958703,5.312730312,3.649344921,-2.811160088,2024-06-04 16:17:51.332959
1.37344589,-1.466274261,0.9168860912,1.11873436,2024-06-04 16:17:51.373446
1.413937245,2.81016922,2.886182785,-0.135491848,2024-06-04 16:17:51.413937
1.454442453,8.781850815,2.749019384,-0.365087986,2024-06-04 16:17:51.454442
1.494917401,-4.302241325,-5.346065044,0.951043129,2024-06-04 16:17:51.494917
1.535404484,0.5644173622,-7.185603619,-3.393878937,2024-06-04 16:17:51.535404
1.57589964,-2.884362698,-1.561806679,-0.4959306717,2024-06-04 16:17:51.575900
1.616396099,-4.658793449,-1.614830017,0.5827288628,2024-06-04 16:17:51.616396
1.656873599,-1.285400391,-2.733195305,-0.6027460098,2024-06-04 16:17:51.656874
1.697373078,2.309256077,1.153915882,0.5736737251,2024-06-04 16:17:51.697373
1.737863182,-0.9090723991,-2.542308331,-0.7515525818,2024-06-04 16:17:51.737863
1.778355995,0.7053861618,1.146498203,0.2947454453,2024-06-04 16:17:51.778356
1.818842765,0.04595994949,14.48985481,1.583675385,2024-06-04 16:17:51.818843
1.859331099,2.834284306,-0.3524336815,-0.6504778862,2024-06-04 16:17:51.859331
1.899797036,2.739896297,-7.566368103,-0.7935757637,2024-06-04 16:17:51.899797
1.940298911,-2.389323711,-9.420747757,-1.592093945,2024-06-04 16:17:51.940299
1.980794432,0.2651920319,-4.160397053,-0.8056077957,2024-06-04 16:17:51.980794
2.021283651,0.3387823105,3.800179005,0.0777053833,2024-06-04 16:17:52.021284
2.061769901,0.08748817444,-1.2242589,0.1930141449,2024-06-04 16:17:52.061770
2.102291099,-0.5598635674,-0.7741274834,-0.01682424545,2024-06-04 16:17:52.102291
2.142765838,-1.533733845,-1.177023888,1.802846432,2024-06-04 16:17:52.142766
2.183261567,-0.2080945969,-2.497262001,-1.228702068,2024-06-04 16:17:52.183262
2.223742557,3.20873642,1.896507502,-2.592505932,2024-06-04 16:17:52.223743
2.264240786,0.2328908443,1.370643616,0.1146678925,2024-06-04 16:17:52.264241
2.304719276,0.3677768707,0.8653860092,-1.20449543,2024-06-04 16:17:52.304719
2.34521313,0.3595583439,0.2316513062,-0.720846653,2024-06-04 16:17:52.345213
2.385681932,0.5803871155,0.5099606514,-0.1312742233,2024-06-04 16:17:52.385682
2.42618537,-0.6381208897,0.7983598709,0.213640213,2024-06-04 16:17:52.426185
2.466674797,-2.513184786,0.9137330055,1.66133213,2024-06-04 16:17:52.466675
2.507151515,-1.313313007,-1.030831814,1.041102409,2024-06-04 16:17:52.507152
2.54763313,-0.6879816055,-1.873603821,0.9797053337,2024-06-04 16:17:52.547633
2.588133547,-0.7998571396,-0.02577114105,0.7678370476,2024-06-04 16:17:52.588134
2.628612557,-0.07168865204,0.4635868073,0.9304714203,2024-06-04 16:17:52.628613
2.669082713,1.15329957,-0.8060603142,-0.2849764824,2024-06-04 16:17:52.669083
2.709607817,-0.5192556381,0.6904783249,-0.1072368622,2024-06-04 16:17:52.709608
2.750096463,0.1976892948,0.01023674011,-0.6796112061,2024-06-04 16:17:52.750096
2.79058688,1.456452608,0.8882277012,-0.9330224991,2024-06-04 16:17:52.790587
2.831073651,0.3781855106,0.2678685188,-1.291271687,2024-06-04 16:17:52.831074
2.871556359,0.4473931789,2.230669022,-1.981887817,2024-06-04 16:17:52.871556
2.912059484,1.243241072,2.121038914,-1.517342567,2024-06-04 16:17:52.912059
2.952546255,1.680002689,2.391394377,-1.419224262,2024-06-04 16:17:52.952546
2.99302714,1.169590712,1.778701782,-0.1750130653,2024-06-04 16:17:52.993027
3.033530578,0.4606540203,1.802781343,0.1351594925,2024-06-04 16:17:53.033531
3.074010422,-0.9899179935,1.990044355,1.16611433,2024-06-04 16:17:53.074010
3.114529536,-1.519035816,0.02836704254,1.62755394,2024-06-04 16:17:53.114530
3.155026724,0.9013051987,1.219220638,1.354435444,2024-06-04 16:17:53.155027
3.195479276,2.060517788,2.144945145,0.4346218109,2024-06-04 16:17:53.195479
3.23595938,1.550951481,1.218349934,0.004626274109,2024-06-04 16:17:53.235959
3.276469692,3.072406054,-0.2271003723,-0.1907334328,2024-06-04 16:17:53.276470
3.316957817,1.004000664,-1.025415897,-0.5022630692,2024-06-04 16:17:53.316958
3.357437765,-2.622433186,0.1706581116,0.9564971924,2024-06-04 16:17:53.357438
3.397915734,-5.119612694,1.300222397,0.7197699547,2024-06-04 16:17:53.397916
3.438406463,-3.315863848,-0.6012635231,0.2111830711,2024-06-04 16:17:53.438406
3.478902765,-1.599617004,0.4022879601,0.6287760735,2024-06-04 16:17:53.478903
3.51939938,0.5531659126,-0.7588787079,0.7893307209,2024-06-04 16:17:53.519399
3.559898547,-0.45312953,-0.2842741013,1.270168781,2024-06-04 16:17:53.559899
3.600366672,-1.130589724,0.5168142319,1.023674488,2024-06-04 16:17:53.600367
3.640847192,-1.831055641,0.8724102974,0.3800802231,2024-06-04 16:17:53.640847
3.681355213,-0.6583316326,1.869606972,0.6714901924,2024-06-04 16:17:53.681355
3.721851307,0.7306947708,0.6519846916,0.5423438549,2024-06-04 16:17:53.721851
3.762326515,1.48929584,0.4147663116,0.3053565025,2024-06-04 16:17:53.762327
3.802820995,1.070348263,-0.446023941,1.03237772,2024-06-04 16:17:53.802821
3.843300838,-0.1512362957,0.3928613663,0.5553364754,2024-06-04 16:17:53.843301
3.883805474,-0.4539709091,0.01541423798,-0.110822916,2024-06-04 16:17:53.883805
3.924297817,-0.557528019,0.3131628036,1.086773634,2024-06-04 16:17:53.924298
3.964796672,0.8011300564,0.6171798706,-0.613758564,2024-06-04 16:17:53.964797
4.00528287,-1.530286074,-1.322401047,-0.7856342793,2024-06-04 16:17:54.005283
4.045742453,0.7327017784,-1.871228218,1.702595234,2024-06-04 16:17:54.045742
4.086250213,1.606516838,0.2527160645,0.1959793568,2024-06-04 16:17:54.086250
4.126753182,-1.239457607,-0.2108669281,-0.5150513649,2024-06-04 16:17:54.126753
4.167237817,0.08442592621,-3.377505302,1.00902915,2024-06-04 16:17:54.167238
4.207732922,3.244176626,-5.931456566,-1.36998558,2024-06-04 16:17:54.207733
4.248204276,1.871264696,1.34405756,-0.8154585361,2024-06-04 16:17:54.248204
4.288697036,1.784534454,2.720014572,-0.6496956348,2024-06-04 16:17:54.288697
4.329191672,0.6176023483,1.110273361,0.007465839386,2024-06-04 16:17:54.329192
4.369680838,-1.002526283,2.124733925,-1.811864257,2024-06-04 16:17:54.369681
4.410162974,-4.604043007,-0.8520588875,0.9174423218,2024-06-04 16:17:54.410163
4.450643599,-2.61396265,-0.6733584404,0.2276284695,2024-06-04 16:17:54.450644
4.491123755,-0.1240744591,0.02536010742,-0.3092191219,2024-06-04 16:17:54.491124
4.531628182,0.8217668533,0.1930837631,-1.161723137,2024-06-04 16:17:54.531628
4.572118651,0.2485637665,-0.06384325027,-0.2844121456,2024-06-04 16:17:54.572119
4.612596099,-1.017885685,-0.7068581581,-0.1086273193,2024-06-04 16:17:54.612596
4.653092922,-3.153785229,-1.735975266,0.7046051025,2024-06-04 16:17:54.653093
4.693589172,-1.03263092,-1.805550098,-0.6232256889,2024-06-04 16:17:54.693589
4.734094484,0.5390586853,-2.127061844,-0.2967448235,2024-06-04 16:17:54.734094
4.774575734,-0.7449698448,-0.4282708168,-0.4360566139,2024-06-04 16:17:54.774576
4.81505438,-0.7506542206,1.99598217,-0.7992110252,2024-06-04 16:17:54.815054
4.855548442,-2.566971302,3.063298225,0.203745842,2024-06-04 16:17:54.855548
4.896044276,-2.995913982,0.8590416908,-0.1738734245,2024-06-04 16:17:54.896044
4.936522609,0.295460701,1.623034,-2.009602308,2024-06-04 16:17:54.936523
4.977007036,0.6493725777,1.451447487,-1.44600296,2024-06-04 16:17:54.977007
5.017502817,0.1788597107,-0.1102972031,-0.8561406136,2024-06-04 16:17:55.017503
5.057987609,0.463889122,0.5162849426,-0.8963356018,2024-06-04 16:17:55.057988
5.098472817,0.9278621674,0.1786022186,-0.3078575134,2024-06-04 16:17:55.098473
5.138968182,0.361123085,-1.783329964,-0.2108545303,2024-06-04 16:17:55.138968
5.179455109,0.3619039059,-1.261503696,-0.5471448898,2024-06-04 16:17:55.179455
5.219930526,0.8443756104,-4.119389534,-0.129117012,2024-06-04 16:17:55.219931
5.260417713,0.1423110962,-5.22214365,0.05279588699,2024-06-04 16:17:55.260418
5.300904328,1.253023386,-2.142730713,-0.6541581154,2024-06-04 16:17:55.300904
5.341436255,0.7892723083,-1.543719769,-0.6995658875,2024-06-04 16:17:55.341436
5.381899276,2.089675426,0.7123250961,-1.698394299,2024-06-04 16:17:55.381899
5.422412765,3.542149067,3.742171049,-1.268558979,2024-06-04 16:17:55.422413
5.462889172,1.691523075,2.712589264,-0.6941566467,2024-06-04 16:17:55.462889
5.503351411,0.4704442024,1.818610668,-0.5971500874,2024-06-04 16:17:55.503351
5.543870942,-0.08962535858,3.20655632,-0.2118577957,2024-06-04 16:17:55.543871
5.584366984,-0.8983626366,2.747791767,1.111012697,2024-06-04 16:17:55.584367
5.624823286,-1.539851665,1.371362686,1.861659288,2024-06-04 16:17:55.624823
5.66532464,-0.9711322784,2.999448776,0.8196322918,2024-06-04 16:17:55.665325
5.70583188,-0.6549756527,2.979895592,1.102807283,2024-06-04 16:17:55.705832
5.746305161,0.4730498791,2.665346622,0.6140463352,2024-06-04 16:17:55.746305
5.786792192,0.1094770432,0.9753518105,0.9262982607,2024-06-04 16:17:55.786792
5.827292817,-2.193958759,-1.563591957,0.4674950838,2024-06-04 16:17:55.827293
5.867782088,-2.715584755,-1.661634445,0.6580207348,2024-06-04 16:17:55.867782
5.908272974,-1.185340643,0.2931051254,0.01336205006,2024-06-04 16:17:55.908273
5.948743911,0.1499414444,0.4614562988,0.5272653103,2024-06-04 16:17:55.948744
5.989242713,1.49484539,0.3324451447,-0.1453135014,2024-06-04 16:17:55.989243
6.029709172,0.3655958176,-1.124544144,-0.2090084553,2024-06-04 16:17:56.029709
6.07019438,1.175302267,-0.01339912415,-1.042897463,2024-06-04 16:17:56.070194
6.110691099,1.255004644,-0.9309444427,-1.446675301,2024-06-04 16:17:56.110691
6.151219328,0.9211785197,-4.342312813,-0.02096840739,2024-06-04 16:17:56.151219
6.19170188,2.013428688,-3.204295158,0.133294642,2024-06-04 16:17:56.191702
6.232157765,-0.05989444256,-5.2339077,2.04900527,2024-06-04 16:17:56.232158
6.272679901,-0.6627316475,-2.23124218,0.6011198759,2024-06-04 16:17:56.272680
6.313154224,-2.180542231,-1.766377449,0.8003873825,2024-06-04 16:17:56.313154
6.35366063,-1.139219165,0.6424121857,0.4524041414,2024-06-04 16:17:56.353661
6.394127297,-0.6531335115,1.038367271,0.7178637981,2024-06-04 16:17:56.394127
6.434637245,0.4072650075,1.072246552,0.3628374338,2024-06-04 16:17:56.434637
6.475136255,-0.2527612448,0.2123241425,2.400753498,2024-06-04 16:17:56.475136
6.515592661,0.3687403202,1.813148499,-0.0346736908,2024-06-04 16:17:56.515593
6.556091672,0.4038745165,2.26417923,2.043238163,2024-06-04 16:17:56.556092
6.596598182,-1.786004066,1.223677635,-0.1495164633,2024-06-04 16:17:56.596598
6.637079224,1.339598656,1.833593845,-1.321423769,2024-06-04 16:17:56.637079
6.677533078,0.6152065992,0.7351818085,0.4585132599,2024-06-04 16:17:56.677533
6.71804912,-0.07958841324,-0.4349927902,0.3307619095,2024-06-04 16:17:56.718049
6.758538755,0.8959741592,-0.3529109955,-0.4688005447,2024-06-04 16:17:56.758539
6.799027401,1.97312963,-2.267965317,-0.6523211002,2024-06-04 16:17:56.799027
6.839527609,0.882912159,-4.320109844,0.7171607018,2024-06-04 16:17:56.839528
6.880008026,1.496480942,-5.660676479,-1.600735188,2024-06-04 16:17:56.880008
6.920494484,2.614540339,-5.382775307,0.8957147598,2024-06-04 16:17:56.920494
6.961011672,-0.5291490555,-4.586472511,-0.07157564163,2024-06-04 16:17:56.961012
7.001491411,-5.796873569,-4.359050274,-2.10370636,2024-06-04 16:17:57.001491
7.041984692,3.258015156,-0.2907295227,-2.526201248,2024-06-04 16:17:57.041985
7.082472453,4.739398003,2.454497337,-2.220889568,2024-06-04 16:17:57.082472
7.12295787,5.746182442,4.39247036,-2.963691711,2024-06-04 16:17:57.122958
7.163456567,4.93842268,5.210817814,-2.829676628,2024-06-04 16:17:57.163457
7.203934536,0.3103952408,3.243460655,-1.421387911,2024-06-04 16:17:57.203935
7.244434484,-2.586344719,0.5783815384,0.3232018948,2024-06-04 16:17:57.244434
7.284931359,-0.2304229736,4.551527023,0.3559317589,2024-06-04 16:17:57.284931
7.325404901,1.294160604,5.643981934,-0.108394146,2024-06-04 16:17:57.325405
7.365895422,0.0163333416,2.201735497,-0.674916029,2024-06-04 16:17:57.365895
7.40637464,-1.269205093,-2.140173912,0.3508162498,2024-06-04 16:17:57.406375
7.446870057,-2.289860487,-2.777856827,0.959895134,2024-06-04 16:17:57.446870
7.487355317,-1.22426033,-1.404794693,0.2671717405,2024-06-04 16:17:57.487355
7.527848442,-0.5753005743,-1.548308372,-0.5395822525,2024-06-04 16:17:57.527848
7.568334588,1.885056138,-4.215370178,-0.6000611186,2024-06-04 16:17:57.568335
7.608806515,-1.591688395,-3.063570976,-1.808562636,2024-06-04 16:17:57.608807
7.649294067,0.01676774025,-2.425005913,0.1744912863,2024-06-04 16:17:57.649294
7.689797661,-0.3477306366,-4.914365768,1.088260055,2024-06-04 16:17:57.689798
7.730302245,-1.36998558,-3.128686905,1.867379308,2024-06-04 16:17:57.730302
7.770774797,-3.155122519,-0.1646003723,-0.1887871027,2024-06-04 16:17:57.770775
7.811264745,-1.786487103,0.3257665634,0.6831688881,2024-06-04 16:17:57.811265
7.851774692,-1.11578393,-0.4260454178,-0.3344888091,2024-06-04 16:17:57.851775
7.892269953,-1.5545609,-0.4290618896,1.112314343,2024-06-04 16:17:57.892270
7.932763026,-1.841902494,0.9759120941,-0.1234030724,2024-06-04 16:17:57.932763
7.973241151,-0.843816638,4.533120155,-0.887337327,2024-06-04 16:17:57.973241
8.013715526,-1.409388065,4.451766014,0.193076849,2024-06-04 16:17:58.013716
8.054210942,-1.663571596,1.75830555,-0.7315175533,2024-06-04 16:17:58.054211
8.09470464,1.805328727,1.362473488,-2.841940165,2024-06-04 16:17:58.094705
8.135190526,3.179073095,-0.877415657,0.3893375397,2024-06-04 16:17:58.135191
8.175684901,4.167248249,-4.628307343,-0.866610527,2024-06-04 16:17:58.175685
8.216191359,1.499768257,-4.914778709,-1.134077787,2024-06-04 16:17:58.216191
8.256677349,3.442135811,-3.175738811,-0.09264659882,2024-06-04 16:17:58.256677
8.297143286,-4.327946186,-7.667340755,1.460387707,2024-06-04 16:17:58.297143
8.337637922,-3.865701675,-6.059700966,-1.921888113,2024-06-04 16:17:58.337638
8.378123026,4.433506489,-0.2405233383,-2.502370596,2024-06-04 16:17:58.378123
8.418606672,4.792117119,0.7383313179,-2.009454966,2024-06-04 16:17:58.418607
8.459096411,5.27970314,3.49530983,-2.393827915,2024-06-04 16:17:58.459096
8.499580578,3.552803993,3.930053473,-2.021538973,2024-06-04 16:17:58.499581
8.540089432,3.427003145,3.915475368,-1.917572618,2024-06-04 16:17:58.540089
8.580606151,0.4417829514,2.166645527,-0.1926808357,2024-06-04 16:17:58.580606
8.621052765,-0.3157858849,3.057299137,-0.2328324318,2024-06-04 16:17:58.621053
8.661531099,-0.1916668415,4.07896328,0.235252142,2024-06-04 16:17:58.661531
8.702025578,-1.896354914,1.699688435,-0.3515644073,2024-06-04 16:17:58.702026
8.742515213,-0.6218268871,1.459544182,-1.188537717,2024-06-04 16:17:58.742515
8.783037401,-1.54221487,-0.1675510406,-1.222514868,2024-06-04 16:17:58.783037
8.823515317,-4.169486046,-4.362007141,-0.9490746856,2024-06-04 16:17:58.823515
8.86400063,0.7631621957,-2.52915287,-0.4428668022,2024-06-04 16:17:58.864001
8.904484849,3.437289715,-6.294750214,2.803764343,2024-06-04 16:17:58.904485
8.945007557,-0.2095172405,-4.702688217,0.8738656044,2024-06-04 16:17:58.945008
8.985476932,-0.826302886,-2.956505775,-0.298325479,2024-06-04 16:17:58.985477
9.025963859,-1.467271566,-1.316468239,0.2374174893,2024-06-04 16:17:59.025964
9.066440942,-2.790602207,-1.614398003,0.544455409,2024-06-04 16:17:59.066441
9.106919328,-3.123343706,0.5370941162,0.6713604927,2024-06-04 16:17:59.106919
9.147428911,-3.118268967,1.074086189,1.452230573,2024-06-04 16:17:59.147429
9.18791089,-2.540120125,1.196716309,1.354909301,2024-06-04 16:17:59.187911
9.22838412,0.4027626514,2.18959713,0.932138443,2024-06-04 16:17:59.228384
9.268912609,1.904165864,3.503863811,0.3282328844,2024-06-04 16:17:59.268913
9.309366672,0.169683218,3.002614021,0.9104351997,2024-06-04 16:17:59.309367
9.34991438,-1.407133818,0.4180088043,-0.05469727516,2024-06-04 16:17:59.349914
9.390323026,1.460839987,-0.5950584412,-1.174838185,2024-06-04 16:17:59.390323
9.430846984,1.945732117,-3.649560928,0.7915401459,2024-06-04 16:17:59.430847
9.471372349,1.430761814,-6.34227562,-0.8919744492,2024-06-04 16:17:59.471372
9.51178313,0.4402828217,-5.517504215,-0.5499315262,2024-06-04 16:17:59.511783
9.552337922,-1.981831551,-5.931363583,0.7575187683,2024-06-04 16:17:59.552338
9.592781984,-3.269847393,-5.485856056,-2.480182409,2024-06-04 16:17:59.592782
9.633311515,5.035929203,2.684915066,-3.366473675,2024-06-04 16:17:59.633312
9.67373537,6.672128201,5.172637939,-3.721910477,2024-06-04 16:17:59.673735
9.71428037,5.651479721,5.501029968,-2.778618097,2024-06-04 16:17:59.714280
9.754768442,4.670786858,4.414223671,-1.851197839,2024-06-04 16:17:59.754768
9.79525464,1.600264549,1.444825172,-0.8120970726,2024-06-04 16:17:59.795255
9.835780005,-1.210698605,1.414549351,1.661152601,2024-06-04 16:17:59.835780
9.876226672,-0.6534404755,5.118880272,1.433933973,2024-06-04 16:17:59.876227
9.916708338,-0.7759773731,0.4325466156,0.574379921,2024-06-04 16:17:59.916708
9.957205213,-1.273979068,-3.454864502,-0.1483039856,2024-06-04 16:17:59.957205
9.99768287,-2.639567614,0.1107521057,-1.16384387,2024-06-04 16:17:59.997683
10.03816667,-2.497499943,0.7364664078,-1.712551951,2024-06-04 16:18:00.038167
10.07867547,-2.60209322,-2.749110222,0.8382576704,2024-06-04 16:18:00.078675
10.11919157,-0.05835473537,0.05070400238,0.4339799881,2024-06-04 16:18:00.119192
10.15966839,-2.415372849,-4.765776634,0.5580750704,2024-06-04 16:18:00.159668
10.20015469,-1.164413691,-1.421243668,0.09698611498,2024-06-04 16:18:00.200155
10.24062568,-0.8493121862,-3.097761154,0.3512169123,2024-06-04 16:18:00.240626
10.2811324,0.1439278126,-2.136945724,0.6529574394,2024-06-04 16:18:00.281132
10.32162178,1.58819294,2.251559734,0.2599758208,2024-06-04 16:18:00.321622
10.36211964,1.162500381,-3.665550232,-0.8378269076,2024-06-04 16:18:00.362120
10.40261881,1.164412618,3.506985664,-1.626443982,2024-06-04 16:18:00.402619
10.44308797,1.884964705,-1.886944771,-1.323871851,2024-06-04 16:18:00.443088
10.48358823,1.383752108,0.8915090561,0.6227469444,2024-06-04 16:18:00.483588
10.52405839,2.369262218,1.413739681,1.957080841,2024-06-04 16:18:00.524058
10.56453308,-1.270924807,-4.059909821,-1.926221728,2024-06-04 16:18:00.564533
10.6050275,1.613994241,3.003117085,1.453332067,2024-06-04 16:18:00.605028
10.64549402,0.8380405903,-3.061553955,0.1628782749,2024-06-04 16:18:00.645494
10.68599157,2.484216213,-3.14888382,0.3820631802,2024-06-04 16:18:00.685992
10.72651115,0.3768520355,-0.1137914658,-0.1713767946,2024-06-04 16:18:00.726511
10.76701355,1.942377567,1.0144701,1.22621274,2024-06-04 16:18:00.767014
10.80748995,-0.4911589622,0.8229064941,-0.2423510551,2024-06-04 16:18:00.807490
10.84798766,1.719764709,2.930482864,1.952580929,2024-06-04 16:18:00.847988
10.88846646,-2.516491652,-8.713635445,-2.103786707,2024-06-04 16:18:00.888466
10.92894053,3.747046947,2.807131767,4.186172485,2024-06-04 16:18:00.928941
10.96943995,2.254427433,-3.2085495,-0.1023706794,2024-06-04 16:18:00.969440
11.00994735,-0.4942803383,-0.05419445038,0.7489601374,2024-06-04 16:18:01.009947
11.05042907,0.04465436935,-0.1325330734,0.04690778255,2024-06-04 16:18:01.050429
11.09088428,0.1451694965,1.34640789,-0.4162887335,2024-06-04 16:18:01.090884
11.13141037,0.8090415001,-0.3862047195,-0.2134023905,2024-06-04 16:18:01.131410
11.17193256,0.7933423519,0.493265152,-0.1003659964,2024-06-04 16:18:01.171933
11.21238183,1.258328199,0.1725492477,-0.01497256756,2024-06-04 16:18:01.212382
11.25286167,1.532294989,0.1258087158,-0.5109109879,2024-06-04 16:18:01.252862
11.29335672,0.6833357811,0.3304157257,0.2882182598,2024-06-04 16:18:01.293357
11.33384959,-0.01555418968,-1.272062302,0.4455275536,2024-06-04 16:18:01.333850
11.37434433,-0.5830211639,-0.867893219,0.266313076,2024-06-04 16:18:01.374344
11.41483714,0.536493063,-0.08641242981,0.02927613258,2024-06-04 16:18:01.414837
11.4553198,-1.360036135,1.141789436,-1.285843015,2024-06-04 16:18:01.455320
11.49580485,2.829750538,-2.095324516,0.1140420437,2024-06-04 16:18:01.495805
11.53628787,0.06870031357,1.843150616,-0.5901219845,2024-06-04 16:18:01.536288
11.57677954,1.76713872,-0.4928092957,-0.3310543299,2024-06-04 16:18:01.576780
11.61725417,0.1564612389,0.2636833191,-0.436537385,2024-06-04 16:18:01.617254
11.65770823,1.313411951,2.193861961,-0.9922953248,2024-06-04 16:18:01.657708
11.69825761,2.766351223,2.055537224,0.3496463299,2024-06-04 16:18:01.698258
11.7387636,-3.86468029,-6.069361687,1.673216224,2024-06-04 16:18:01.738764
11.77924047,2.432675362,3.120551109,-1.208133459,2024-06-04 16:18:01.779240
11.81971448,-1.673031569,-0.6577577591,1.42883575,2024-06-04 16:18:01.819714
11.86018693,0.2957723141,-3.048922539,0.1130821705,2024-06-04 16:18:01.860187
11.90066829,-0.7993941307,-2.138216972,0.4455373287,2024-06-04 16:18:01.900668
11.94123641,2.173936367,1.81510067,-0.1509487629,2024-06-04 16:18:01.941236
11.98166079,1.335466623,-0.1278629303,0.289567709,2024-06-04 16:18:01.981661
12.0221786,-0.4630804062,-0.005417823792,0.671797514,2024-06-04 16:18:02.022179
12.06267844,-0.3971099854,-2.006783962,0.3286752701,2024-06-04 16:18:02.062678
12.10313526,-2.695185184,-7.054138184,4.354339123,2024-06-04 16:18:02.103135
12.14365912,3.270652771,0.2160797119,-1.96781671,2024-06-04 16:18:02.143659
12.18412058,0.19597435,0.4283518791,0.1410222054,2024-06-04 16:18:02.184121
12.22459558,-1.026375294,-0.3961524963,-2.032632589,2024-06-04 16:18:02.224596
12.26512204,-0.387424469,-1.16744566,-1.280127525,2024-06-04 16:18:02.265122
12.30557308,-2.745219707,-1.686380386,1.157641888,2024-06-04 16:18:02.305573
12.34606126,-0.853618145,-2.010208607,-0.873521328,2024-06-04 16:18:02.346061
12.38655006,-2.04882431,-3.384457588,-0.6648464203,2024-06-04 16:18:02.386550
12.42703219,0.4782676697,-0.9421648979,-1.997175694,2024-06-04 16:18:02.427032
12.46753891,1.394217014,0.2072496414,-4.564419746,2024-06-04 16:18:02.467539
12.50802969,5.051459312,0.7637591362,-2.739868641,2024-06-04 16:18:02.508030
12.54854475,2.03348875,-1.212685585,-2.849304438,2024-06-04 16:18:02.548545
12.58901891,3.528082609,1.710359216,-2.474982738,2024-06-04 16:18:02.589019
12.62946943,4.515512466,4.273754597,-3.277424812,2024-06-04 16:18:02.629469
12.66996907,-0.8781819344,0.8350863457,0.3717398643,2024-06-04 16:18:02.669969
12.71045865,2.486075401,1.41983223,-2.066925526,2024-06-04 16:18:02.710459
12.7509499,1.712561607,1.561810493,-0.812520504,2024-06-04 16:18:02.750950
12.79143943,2.886800528,1.741370678,-1.313306808,2024-06-04 16:18:02.791439
12.83192896,1.042575836,0.3553619385,0.5091223717,2024-06-04 16:18:02.831929
12.87242672,0.208237648,0.7804670334,2.743508577,2024-06-04 16:18:02.872427
12.91292318,-5.367450237,-2.265796661,2.00144434,2024-06-04 16:18:02.912923
12.9534087,-2.690535069,-3.394501686,1.731564283,2024-06-04 16:18:02.953409
12.99389563,-3.521274567,-2.949979305,0.8005993366,2024-06-04 16:18:02.993896
13.03436964,-3.592671394,-2.504647255,0.5139877796,2024-06-04 16:18:03.034370
13.0748787,-0.5846409798,0.1122398376,1.050696135,2024-06-04 16:18:03.074879
13.11540011,-0.4053688049,-0.510225296,0.2232835293,2024-06-04 16:18:03.115400
13.15586292,0.1408519745,0.03719902039,1.772222042,2024-06-04 16:18:03.155863
13.19637917,-0.082051754,0.08817625046,1.480213165,2024-06-04 16:18:03.196379
13.23685547,0.1013231277,-1.045115948,0.6548631191,2024-06-04 16:18:03.236855
13.2773374,-0.7844338417,-1.403485775,1.432643175,2024-06-04 16:18:03.277337
13.31787428,-0.4036092758,-0.5358428955,-1.173103094,2024-06-04 16:18:03.317874
13.35831615,-0.9956698418,-0.29529953,-0.8550906181,2024-06-04 16:18:03.358316
13.39878027,-2.237790108,-1.07457304,-0.2401151657,2024-06-04 16:18:03.398780
13.43929344,-0.3249750137,-0.5053400993,-1.249410152,2024-06-04 16:18:03.439293
13.47979073,-1.558535576,-2.250752449,-1.303353071,2024-06-04 16:18:03.479791
13.5202798,-1.098318577,-2.972398281,-0.2350106239,2024-06-04 16:18:03.520280
13.56070678,0.49665308,-1.584256172,-3.387093067,2024-06-04 16:18:03.560707
13.60127464,0.9294977188,0.3232064247,-2.156030655,2024-06-04 16:18:03.601275
13.64173855,3.54572463,-1.029040337,-1.91945982,2024-06-04 16:18:03.641739
13.68221558,2.748848438,0.1426689625,-1.443772793,2024-06-04 16:18:03.682216
13.72270365,3.18201828,1.355113745,-1.809120655,2024-06-04 16:18:03.722704
13.76317912,2.928121567,1.753151536,-0.8828907013,2024-06-04 16:18:03.763179
13.80367141,3.698470592,2.380486488,-0.5589365959,2024-06-04 16:18:03.803671
13.84416839,2.975362778,1.742702723,-0.2170500755,2024-06-04 16:18:03.844168
13.88465928,1.631491184,1.082546473,0.2522063255,2024-06-04 16:18:03.884659
13.92514527,1.147548199,0.5424466133,-0.1409881115,2024-06-04 16:18:03.925145
13.96563745,0.2602748871,0.1949777603,0.3910536766,2024-06-04 16:18:03.965637
14.00611417,0.1273570061,-0.5159344673,0.4683918953,2024-06-04 16:18:04.006114
14.04660636,-1.339927673,-1.184141636,1.072081089,2024-06-04 16:18:04.046606
14.08710803,-3.13001442,-2.00338459,0.9459719658,2024-06-04 16:18:04.087108
14.12761948,-3.14054966,-1.539345264,0.9116909504,2024-06-04 16:18:04.127619
14.16812896,-2.504731655,-1.13884449,0.4975423813,2024-06-04 16:18:04.168129
14.20857198,-0.2652029991,-0.2759790421,0.5943467617,2024-06-04 16:18:04.208572
14.2490837,-1.260793209,-0.5813579559,0.6565415859,2024-06-04 16:18:04.249084
14.28956016,-1.515134811,-0.2950944901,1.110724688,2024-06-04 16:18:04.289560
14.33005105,-1.358558178,-0.01184368134,1.191526771,2024-06-04 16:18:04.330051
14.37052797,-1.578203678,0.183842659,0.2695896626,2024-06-04 16:18:04.370528
14.41103204,-0.2177410126,-0.4803152084,-0.5557255745,2024-06-04 16:18:04.411032
14.45152047,0.522664547,-0.2357244492,-1.629541039,2024-06-04 16:18:04.451520
14.49199959,0.3127670288,0.1620807648,-1.424347401,2024-06-04 16:18:04.492000
14.53248511,1.295132637,0.4439105988,-1.128336549,2024-06-04 16:18:04.532485
14.57298094,-0.3486690521,-0.09049415588,-1.322200656,2024-06-04 16:18:04.572981
14.61347667,0.6703593731,0.7152242661,-1.531709909,2024-06-04 16:18:04.613477
14.6539187,1.148869276,-0.7090444565,-0.758851409,2024-06-04 16:18:04.653919
14.69444266,-0.1581377983,-2.0484972,0.08363580704,2024-06-04 16:18:04.694443
14.73494037,0.5478150845,-0.1998577118,-0.05098485947,2024-06-04 16:18:04.734940
14.77543886,0.00717830658,-1.356776237,0.2197004557,2024-06-04 16:18:04.775439
14.81593318,0.5525684357,-0.5607213974,-0.6131224632,2024-06-04 16:18:04.815933
14.8564099,0.4676902294,1.042443275,-1.589899302,2024-06-04 16:18:04.856410
14.89689719,1.295038462,-0.8359413147,-0.8600229025,2024-06-04 16:18:04.896897
14.93739938,1.019217968,0.4311590195,-0.8439127207,2024-06-04 16:18:04.937399
14.9778712,1.450411797,-0.06862735748,-0.4497631788,2024-06-04 16:18:04.977871
15.01835855,0.3178958893,-0.6616544724,-0.2141398191,2024-06-04 16:18:05.018359
15.05884652,0.737459898,-0.7480220795,-0.2523511648,2024-06-04 16:18:05.058847
15.09933605,1.0626297,0.1204166412,-0.2661390305,2024-06-04 16:18:05.099336
15.13983657,0.3022150993,-0.9933109283,0.6301877499,2024-06-04 16:18:05.139837
15.18032735,0.8973751068,-0.08684921265,-0.2243882418,2024-06-04 16:18:05.180327
15.22083245,0.597430706,-0.732178688,0.3213684559,2024-06-04 16:18:05.220832
15.2613261,0.4691383839,-0.8955411911,0.2535489798,2024-06-04 16:18:05.261326
15.3017798,0.4407165051,-0.8740167618,0.00726878643,2024-06-04 16:18:05.301780
15.34226568,0.9234707355,-0.3891963959,-0.2666302919,2024-06-04 16:18:05.342266
15.38277047,0.7626516819,0.2955369949,0.2423442602,2024-06-04 16:18:05.382770
15.42322615,0.623071909,2.39466095,-0.5541096926,2024-06-04 16:18:05.423226
15.46376579,2.364481449,-1.65935421,-0.1616461277,2024-06-04 16:18:05.463766
15.50425079,0.1077065468,-2.586333275,0.1626523733,2024-06-04 16:18:05.504251
15.54474829,-0.4336702824,-0.9538145065,1.000483513,2024-06-04 16:18:05.544748
15.58519678,0.749083519,-0.8337068558,0.337990284,2024-06-04 16:18:05.585197
15.62572521,-0.2628898621,0.6635169983,-0.02732980251,2024-06-04 16:18:05.625725
15.6661412,2.720838547,2.920500755,-1.130221605,2024-06-04 16:18:05.666141
15.70669183,2.494283438,1.707320213,-0.1925060749,2024-06-04 16:18:05.706692
15.74720823,-5.583864212,-6.900643349,1.534234405,2024-06-04 16:18:05.747208
15.78766089,0.9499266148,0.8295230865,-1.572954893,2024-06-04 16:18:05.787661
15.82815297,0.3094213009,-5.159974098,0.9794313908,2024-06-04 16:18:05.828153
15.8686375,1.403624773,-0.978767395,-0.401286602,2024-06-04 16:18:05.868638
15.9091398,2.193566799,2.234469891,-0.356307745,2024-06-04 16:18:05.909140
15.94960089,1.917788982,2.64985466,-0.5298363566,2024-06-04 16:18:05.949601
15.99009896,2.026043892,1.860918999,-0.62913239,2024-06-04 16:18:05.990099
16.03057954,0.8105168343,-0.1234111786,-0.789998889,2024-06-04 16:18:06.030580
16.07107146,-0.4375715256,-1.403914452,0.7719026804,2024-06-04 16:18:06.071071
16.11158443,0.006071567535,-2.498346329,0.4837429523,2024-06-04 16:18:06.111584
16.15206329,-0.8762226105,-2.927168846,0.3226257563,2024-06-04 16:18:06.152063
16.1925573,0.4685497284,-2.736582756,-0.1279569864,2024-06-04 16:18:06.192557
16.23303073,1.684821129,-0.971411705,-0.3892799616,2024-06-04 16:18:06.233031
16.27353922,2.623785973,-0.362244606,-0.5189620256,2024-06-04 16:18:06.273539
16.31402855,2.339268684,0.2514362335,-0.6612846255,2024-06-04 16:18:06.314029
16.35452584,2.260530233,0.4996147156,-0.4920722842,2024-06-04 16:18:06.354526
16.3950062,1.652711153,0.2161388397,-0.3953062296,2024-06-04 16:18:06.395006
16.435501,1.256288052,0.4357461929,-0.2090916634,2024-06-04 16:18:06.435501
16.47596391,0.460955143,-0.6735448837,-0.1380745173,2024-06-04 16:18:06.475964
16.5164548,0.2167832851,-0.8262310028,-0.0379294157,2024-06-04 16:18:06.516455
16.55696063,0.2166552544,-1.233955383,-0.06545317173,2024-06-04 16:18:06.556961
16.597436,0.3130171299,-1.710205078,0.1742627621,2024-06-04 16:18:06.597436
16.63791209,1.27929306,-1.080018997,-0.480360508,2024-06-04 16:18:06.637912
16.67837719,1.9993577,-1.120633125,-0.5045768023,2024-06-04 16:18:06.678377
16.7189023,1.869259834,-0.4195976257,-0.400523901,2024-06-04 16:18:06.718902
16.75939355,1.715955496,0.01927947998,-0.4691596031,2024-06-04 16:18:06.759394
16.79987276,1.569006681,0.05923175812,-0.4831441641,2024-06-04 16:18:06.799873
16.8403585,1.096723795,0.2514724731,-0.3869484663,2024-06-04 16:18:06.840359
16.88085146,0.8454904556,-0.2364320755,-0.3494404554,2024-06-04 16:18:06.880851
16.92134073,0.451280117,-0.9827260971,-0.06196177006,2024-06-04 16:18:06.921341
16.96183792,0.4020121098,-1.04412365,0.0204782486,2024-06-04 16:18:06.961838
17.00233469,0.7497980595,-0.5603675842,-0.3613734245,2024-06-04 16:18:07.002335
17.04284073,1.035778522,-0.1746997833,-0.4835190773,2024-06-04 16:18:07.042841
17.08330787,1.343264341,-0.1637926102,-0.359162569,2024-06-04 16:18:07.083308
17.12381344,0.6880242825,-0.3650884628,-0.01068496704,2024-06-04 16:18:07.123813
17.16431761,0.655071497,-0.4675207138,-0.2083631754,2024-06-04 16:18:07.164318
17.20479079,0.1986992359,-0.3585271835,-0.1320817471,2024-06-04 16:18:07.204791
17.24526266,0.6934406757,-0.6519546509,-0.2289178371,2024-06-04 16:18:07.245263
17.28575725,0.7151637077,-0.5920276642,-0.06803226471,2024-06-04 16:18:07.285757
17.3262512,0.644225359,-0.06533336639,-0.04600656033,2024-06-04 16:18:07.326251
17.36674948,0.5424940586,0.01432991028,-0.03176653385,2024-06-04 16:18:07.366749
17.4072149,0.3956851959,0.2128715515,-0.2980899811,2024-06-04 16:18:07.407215
17.44773558,0.2429997921,-0.4881925583,-0.1540446281,2024-06-04 16:18:07.447736
17.48821589,0.02984786034,-0.590590477,-0.007264614105,2024-06-04 16:18:07.488216
17.52870558,-0.00044465065,-0.2254009247,0.1897466183,2024-06-04 16:18:07.528706
17.56918865,0.4262125492,0.1318864822,-0.1147305965,2024-06-04 16:18:07.569189
17.6096985,0.1902019978,0.118221283,0.1376906633,2024-06-04 16:18:07.609699
17.65014954,0.4301764965,0.6060237885,-0.1867294312,2024-06-04 16:18:07.650150
17.69061995,-0.6015126705,0.03191661835,-0.06624603271,2024-06-04 16:18:07.690620
17.73114365,-1.048258543,-0.4379835129,-0.05443811417,2024-06-04 16:18:07.731144
17.77163584,-0.8918709755,0.03539085388,-0.1334643364,2024-06-04 16:18:07.771636
17.81212782,-0.5510146618,-0.140039444,-0.1022298336,2024-06-04 16:18:07.812128
17.85261969,-0.07599520683,0.4785995483,-0.1554179192,2024-06-04 16:18:07.852620
17.89309662,0.08008337021,0.6142997742,-0.3562521935,2024-06-04 16:18:07.893097
17.93358683,0.1004910469,0.2882175446,-0.1643792391,2024-06-04 16:18:07.933587
17.97410594,-0.1433310509,0.06349754333,-0.104906559,2024-06-04 16:18:07.974106
18.01459657,-0.7727136612,-0.1527481079,0.105483532,2024-06-04 16:18:08.014597
18.05505839,-0.2625846863,-0.1948852539,-0.1541361809,2024-06-04 16:18:08.055058
18.09555021,-0.3316497803,-0.3953762054,-0.08026838303,2024-06-04 16:18:08.095550
18.13604084,-0.1287102699,0.005319595337,-0.1059834957,2024-06-04 16:18:08.136041
18.17651808,0.136244297,0.1761770248,-0.3167834282,2024-06-04 16:18:08.176518
18.21700652,-0.3146066666,0.3865270615,-0.393122673,2024-06-04 16:18:08.217007
18.25749771,-0.4794898033,-0.3013238907,-0.1667850018,2024-06-04 16:18:08.257498
18.29799032,-0.4909491539,0.4370145798,-0.3025918007,2024-06-04 16:18:08.297990
18.33848834,-0.1972537041,-0.2356739044,-0.07822275162,2024-06-04 16:18:08.338488
18.37900167,-0.007624149323,-0.4363851547,0.01391482353,2024-06-04 16:18:08.379002
18.4195012,0.1956849098,-0.1865377426,0.2058336735,2024-06-04 16:18:08.419501
18.45997667,0.2475833893,-0.2313585281,-0.1067974567,2024-06-04 16:18:08.459977
18.50046761,-0.1927833557,0.02476882935,-0.2238395214,2024-06-04 16:18:08.500468
18.54093105,0.0725903511,0.6198630333,-0.7059214115,2024-06-04 16:18:08.540931
18.58140579,-0.8141541481,0.1552991867,-0.2766349316,2024-06-04 16:18:08.581406
18.62189948,-0.6647057533,0.8077187538,-0.4117348194,2024-06-04 16:18:08.621899
18.66239563,-0.5600743294,-0.08376502991,-0.1617286205,2024-06-04 16:18:08.662396
18.70288407,-0.5424079895,-0.09846591949,-0.2088634968,2024-06-04 16:18:08.702884
18.74345386,-0.1586518288,0.1312198639,-0.08465313911,2024-06-04 16:18:08.743454
18.78388047,-0.01012277603,-0.04404354095,-0.1806116104,2024-06-04 16:18:08.783880
18.82434553,-0.140024662,0.1708889008,-0.3356356621,2024-06-04 16:18:08.824346
18.86484756,-0.3345031738,0.3030157089,-0.3357867002,2024-06-04 16:18:08.864848
18.90534735,-0.6509699821,0.3310184479,-0.2973582745,2024-06-04 16:18:08.905347
18.94584688,-0.9138345718,0.1915969849,0.04110860825,2024-06-04 16:18:08.945847
18.98630219,-0.7330093384,-0.005566596985,0.06452322006,2024-06-04 16:18:08.986302
19.02681724,-0.1752886772,-0.2642011642,-0.2357883453,2024-06-04 16:18:09.026817
19.06728026,-1.172221661,0.0384054184,0.27354002,2024-06-04 16:18:09.067280
19.10779641,-0.08556890488,-0.3227758408,0.6266469955,2024-06-04 16:18:09.107796
19.14829308,-0.9041872025,-0.00445318222,0.5726253986,2024-06-04 16:18:09.148293
19.18877636,-1.293946743,-1.141887665,-0.0695002079,2024-06-04 16:18:09.188776
19.22928657,-0.1100468636,-1.417223454,-0.247333765,2024-06-04 16:18:09.229287
19.26973834,-1.676600933,-1.869072437,-0.3158423901,2024-06-04 16:18:09.269738
19.31022386,-1.87528038,-2.711215973,-0.4826951027,2024-06-04 16:18:09.310224
19.35071178,-0.4907879829,-2.497359276,-1.000510931,2024-06-04 16:18:09.350712
19.391185,-0.08057308197,-1.955537796,-1.254262209,2024-06-04 16:18:09.391185
19.43167417,0.4169602394,-1.140968323,-1.279917717,2024-06-04 16:18:09.431674
19.47218245,2.513109684,0.5049958229,-2.512021303,2024-06-04 16:18:09.472182
19.51269256,5.524214745,2.059050083,-1.502682686,2024-06-04 16:18:09.512693
19.55316261,4.396636963,2.237588406,-2.03379178,2024-06-04 16:18:09.553163
19.59363573,5.731872559,2.848225117,-1.155403137,2024-06-04 16:18:09.593636
19.63414928,-1.05540657,1.268690586,1.491320133,2024-06-04 16:18:09.634149
19.67459579,-6.35602808,-4.729744434,2.316534996,2024-06-04 16:18:09.674596
19.71512318,-2.879692554,2.409266233,1.6721735,2024-06-04 16:18:09.715123
19.75561126,1.314883232,2.727795601,-0.211824894,2024-06-04 16:18:09.755611
19.79612287,1.609839916,0.4169254303,-1.445608139,2024-06-04 16:18:09.796123
19.83659896,-0.4795165062,0.6970763206,-1.471364021,2024-06-04 16:18:09.836599
19.87707063,-1.889444828,0.2321391106,-0.9059052467,2024-06-04 16:18:09.877071
19.9175724,-2.664940357,-0.1669573784,-0.1226415634,2024-06-04 16:18:09.917572
19.95806079,-1.123842239,-0.4576778412,0.1384320259,2024-06-04 16:18:09.958061
19.99853506,-0.04185819626,-0.6670284271,0.05716514587,2024-06-04 16:18:09.998535
20.03905355,0.7038283348,0.8549404144,-0.7954530716,2024-06-04 16:18:10.039054
20.07954115,0.8527536392,2.1548419,-1.294456482,2024-06-04 16:18:10.079541
20.1200148,-0.2495079041,-0.2786011696,-2.082276821,2024-06-04 16:18:10.120015
20.16048193,-1.136695862,0.8701398373,-0.06586170197,2024-06-04 16:18:10.160482
20.20100865,-1.890592098,-0.8957848549,-0.3262324333,2024-06-04 16:18:10.201009
20.24150396,-3.174012661,-1.62460804,-0.2772760391,2024-06-04 16:18:10.241504
20.2819837,-0.6167473793,-0.7383918762,0.5513410568,2024-06-04 16:18:10.281984
20.32247636,1.333180428,0.1674771309,0.7179265022,2024-06-04 16:18:10.322476
20.36298714,1.891230822,0.08819675446,-0.6200256348,2024-06-04 16:18:10.362987
20.40342995,1.585083961,0.3958778381,-0.4702038765,2024-06-04 16:18:10.403430
20.44392047,0.5117483139,0.1966948509,0.5167913437,2024-06-04 16:18:10.443920
20.48442886,0.8271443844,0.1792817116,0.4330415726,2024-06-04 16:18:10.484429
20.52493584,0.6440191269,0.1973147392,0.3316607475,2024-06-04 16:18:10.524936
20.56540204,0.2630987167,0.9540131092,0.3942327499,2024-06-04 16:18:10.565402
20.60590198,0.1023235321,0.3790283203,0.7160954475,2024-06-04 16:18:10.605902
20.64638808,-0.02002000809,0.2444434166,0.7411804199,2024-06-04 16:18:10.646388
20.68685198,-0.055164814,0.4320788383,0.8734641075,2024-06-04 16:18:10.686852
20.72736323,0.9675042629,0.6700382233,0.08636713028,2024-06-04 16:18:10.727363
20.76785058,0.4257411957,0.398686409,0.29814291,2024-06-04 16:18:10.767851
20.80838386,0.2381157875,0.5731363297,0.5843863487,2024-06-04 16:18:10.808384
20.84891006,0.1482048035,0.4259471893,0.4597911835,2024-06-04 16:18:10.848910
20.88932745,0.07334709167,0.219722271,0.4299492836,2024-06-04 16:18:10.889327
20.92982662,0.3469219208,0.5902733803,0.2596135139,2024-06-04 16:18:10.929827
20.97028683,-0.1416087151,0.4327573776,0.1347784996,2024-06-04 16:18:10.970287
21.01077667,-0.1637563705,0.4334406853,0.06461715698,2024-06-04 16:18:11.010777
21.05126714,-0.5004162788,0.3304243088,0.4543132782,2024-06-04 16:18:11.051267
21.09177172,0.2186336517,0.4878807068,-0.02643489838,2024-06-04 16:18:11.091772
21.13226006,-0.823996067,0.2535595894,-0.1380109787,2024-06-04 16:18:11.132260
21.17274495,-0.01546430588,0.6952428818,-0.2387924194,2024-06-04 16:18:11.172745
21.21324178,0.2376170158,0.5617570877,-0.1051855087,2024-06-04 16:18:11.213242
21.25373501,-0.1917629242,0.1361012459,0.5632405281,2024-06-04 16:18:11.253735
21.29421474,-0.6080989838,-0.1304330826,0.8182311058,2024-06-04 16:18:11.294215
21.33470844,0.3128910065,0.4926390648,0.5611553192,2024-06-04 16:18:11.334708
21.37518907,0.1141724586,0.4921326637,0.9091267586,2024-06-04 16:18:11.375189
21.41564157,-0.5681524277,0.7515659332,-0.08530950546,2024-06-04 16:18:11.415642
21.45616355,-1.237648964,1.189934492,0.2038187981,2024-06-04 16:18:11.456164
21.49666912,-1.20542717,1.383048534,0.5171060562,2024-06-04 16:18:11.496669
21.53716469,-0.1668362617,0.9630694389,0.2325901985,2024-06-04 16:18:11.537165
21.57765709,-0.05972099304,1.077426672,-0.08356714249,2024-06-04 16:18:11.577657
21.61811714,-0.4079971313,0.6627416611,0.3249835968,2024-06-04 16:18:11.618117
21.65860308,0.2824449539,0.948114872,0.07745981216,2024-06-04 16:18:11.658603
21.69909974,-0.08824300766,0.4532976151,0.4546189308,2024-06-04 16:18:11.699100
21.73959412,-0.3685150146,0.4291906357,0.2650351524,2024-06-04 16:18:11.739594
21.78007568,-0.5909123421,0.3611712456,0.2947654724,2024-06-04 16:18:11.780076
21.82056063,0.3725514412,0.6714105606,-0.3429956436,2024-06-04 16:18:11.820561
21.861055,-0.6976704597,0.3434023857,-0.002513408661,2024-06-04 16:18:11.861055
21.90154678,-0.08121538162,0.5817623138,0.06020784378,2024-06-04 16:18:11.901547
21.94209902,-0.2844142914,0.1322140694,0.4217543602,2024-06-04 16:18:11.942099
21.98253136,-0.4429130554,0.4049124718,0.37728405,2024-06-04 16:18:11.982531
22.02300891,-0.08943033218,0.6612167358,0.1216077805,2024-06-04 16:18:12.023009
22.06350178,-0.1957530975,0.3287301064,0.4380016327,2024-06-04 16:18:12.063502
22.10403537,-0.3002300262,0.3311362267,0.3280997276,2024-06-04 16:18:12.104035
22.14450313,-0.1159420013,0.8781657219,0.2194547653,2024-06-04 16:18:12.144503
22.18499235,-0.09148025513,0.5357584953,0.2582330704,2024-06-04 16:18:12.184992
22.22558907,-0.137377739,0.3812942505,0.001913070679,2024-06-04 16:18:12.225589
22.26596834,-0.06519985199,0.405766964,0.1578288078,2024-06-04 16:18:12.265968
22.30644308,-0.3893871307,0.3113369942,0.3086500168,2024-06-04 16:18:12.306443
22.34696016,-0.1148586273,0.3836278915,0.2224917412,2024-06-04 16:18:12.346960
22.38743771,0.05242872238,0.5167016983,0.08151245117,2024-06-04 16:18:12.387438
22.42792725,0.001705169678,0.3641028404,0.2389349937,2024-06-04 16:18:12.427927
22.46841902,-0.3720436096,0.2869610786,0.2790689468,2024-06-04 16:18:12.468419
22.5089085,-0.1958270073,0.5074443817,0.2269458771,2024-06-04 16:18:12.508909
22.54939672,0.1502990723,0.5441231728,0.2247905731,2024-06-04 16:18:12.549397
22.58987886,0.2017903328,0.4876828194,0.1514778137,2024-06-04 16:18:12.589879
22.63033985,0.04913949966,0.5392847061,0.04456806183,2024-06-04 16:18:12.630340
22.67082823,-0.1084570885,0.3280706406,0.2231001854,2024-06-04 16:18:12.670828
22.71131776,-0.366437912,0.5630068779,-0.1222600937,2024-06-04 16:18:12.711318
22.75182626,-0.3153009415,0.7148761749,-0.04692411423,2024-06-04 16:18:12.751826
22.79235521,-0.275323391,0.3389778137,-0.2727866173,2024-06-04 16:18:12.792355
22.83283287,0.3336925507,0.3354959488,0.09090137482,2024-06-04 16:18:12.832833
22.87330433,0.9673397541,1.004946232,0.4114127159,2024-06-04 16:18:12.873304
22.91381297,0.4463896751,-0.7591500282,0.5047922134,2024-06-04 16:18:12.913813
22.95429433,0.5262393951,0.4313707352,0.04769849777,2024-06-04 16:18:12.954294
22.99478318,0.4897899628,1.755761147,-0.1703701019,2024-06-04 16:18:12.994783
23.03527183,-2.775653839,-1.422988415,-0.3785991669,2024-06-04 16:18:13.035272
23.07574329,-3.855237007,1.21289587,-0.05092692375,2024-06-04 16:18:13.075743
23.11625376,-2.467529774,-0.04545736313,0.1756284237,2024-06-04 16:18:13.116254
23.15674688,-0.9702377319,-0.9925251007,-0.3502352238,2024-06-04 16:18:13.156747
23.19721594,-0.6827087402,-0.60825634,0.1339411736,2024-06-04 16:18:13.197216
23.23773323,-1.251224041,0.5877099037,-0.01333141327,2024-06-04 16:18:13.237733
23.2782873,-2.439519882,0.8880009651,0.1175198555,2024-06-04 16:18:13.278287
23.31870683,-1.7323246,0.5812034607,-0.3308830261,2024-06-04 16:18:13.318707
23.3591887,-0.7397685051,1.183490753,-0.008470535278,2024-06-04 16:18:13.359189
23.39969276,-0.2772521973,0.5742931366,0.2317678928,2024-06-04 16:18:13.399693
23.44017553,-1.241335392,0.04029083252,0.2928249836,2024-06-04 16:18:13.440176
23.48065073,-1.237627029,1.048346519,-0.2733678818,2024-06-04 16:18:13.480651
23.52117027,-0.4289340973,1.031387329,-1.052054167,2024-06-04 16:18:13.521170
23.56168287,-0.2029929161,-0.3247842789,-0.5633958578,2024-06-04 16:18:13.561683
23.60213266,-0.07249832153,-1.42803669,-0.5145421028,2024-06-04 16:18:13.602133
23.64260584,-0.01852607727,-0.4261217117,-0.7168314457,2024-06-04 16:18:13.642606
23.68309152,-0.2343945503,-0.8162460327,-0.3290994167,2024-06-04 16:18:13.683092
23.72359657,-1.036806107,-0.8080387115,-0.180201292,2024-06-04 16:18:13.723597
23.76407459,-0.06805610657,1.772810459,-0.9751764536,2024-06-04 16:18:13.764075
23.80457844,0.6536412239,-0.7253818512,-0.3759644032,2024-06-04 16:18:13.804578
23.84507011,0.5641274452,-0.9463319778,-1.05266726,2024-06-04 16:18:13.845070
23.88554912,0.3352360725,-0.04199934006,-0.05874371529,2024-06-04 16:18:13.885549
23.92604412,-0.6870808601,-0.2016320229,0.5268104076,2024-06-04 16:18:13.926044
23.96652172,0.4373011589,-0.4556026459,-0.4229235649,2024-06-04 16:18:13.966522
24.00700678,-0.5691351891,-1.121181965,0.0005531311035,2024-06-04 16:18:14.007007
24.04751547,-1.091919422,-0.793735981,-0.5405716896,2024-06-04 16:18:14.047515
24.08800318,2.155614614,-0.3779754639,-1.809619069,2024-06-04 16:18:14.088003
24.12849839,0.3937859535,-0.2936120033,-1.68073225,2024-06-04 16:18:14.128498
24.16897464,-0.7293086052,-0.2131142616,-0.788954258,2024-06-04 16:18:14.168975
24.20947105,-0.9395856857,-0.7362442017,-0.4242405891,2024-06-04 16:18:14.209471
24.2499462,-1.157135487,-0.3077049255,0.1557154655,2024-06-04 16:18:14.249946
24.29043605,-0.4587364197,0.3389234543,-0.003039121628,2024-06-04 16:18:14.290436
24.33091766,-0.1640782356,0.1998324394,-0.3117022514,2024-06-04 16:18:14.330918
24.37141589,-0.04478597641,0.5113153458,0.1673927307,2024-06-04 16:18:14.371416
24.41185985,0.1850986481,0.1588597298,0.4472706318,2024-06-04 16:18:14.411860
24.45240021,-0.312684536,-0.3801283836,0.263210535,2024-06-04 16:18:14.452400
24.49288235,-0.4702367783,0.1690330505,-0.1140987873,2024-06-04 16:18:14.492882
24.53338214,-0.8407921791,-0.1549568176,-0.1845273972,2024-06-04 16:18:14.533382
24.57387881,-0.3868365288,-0.2353224754,-0.1668481827,2024-06-04 16:18:14.573879
24.61434771,-0.9514374733,-0.2156324387,-0.0976691246,2024-06-04 16:18:14.614348
24.65485308,-0.2794423103,0.4092168808,0.1393022537,2024-06-04 16:18:14.654853
24.69535396,-0.4083032608,0.07740211487,0.1102252007,2024-06-04 16:18:14.695354
24.73583339,-0.3059563637,0.2014832497,0.08389854431,2024-06-04 16:18:14.735833
24.77632594,-0.747833252,0.03464508057,-0.17800951,2024-06-04 16:18:14.776326
24.8168085,-0.4474549294,-0.5530371666,0.4569506645,2024-06-04 16:18:14.816809
24.85731058,-0.6686096191,-0.6742620468,0.3108921051,2024-06-04 16:18:14.857311
24.89779126,-0.1986384392,-0.4258694649,0.1790401936,2024-06-04 16:18:14.897791
24.93826803,-0.05686569214,-0.2422909737,0.2774598598,2024-06-04 16:18:14.938268
24.97877365,0.02861690521,-0.5048856735,0.0627887249,2024-06-04 16:18:14.978774
25.01925402,0.03762483597,0.1185951233,-0.2633235455,2024-06-04 16:18:15.019254
25.05974448,-0.06485795975,-0.2582440376,-0.7918834686,2024-06-04 16:18:15.059744
25.10021136,-0.1363606453,-0.3190832138,-0.7073631287,2024-06-04 16:18:15.100211
25.14068396,-0.4842448235,0.4435060024,-0.1996135712,2024-06-04 16:18:15.140684
25.18122105,-0.6971139908,0.3399734497,-0.9078316689,2024-06-04 16:18:15.181221
25.2217035,0.0002574920654,0.05948829651,-1.178565502,2024-06-04 16:18:15.221704
25.26219105,0.3084759712,0.05695915222,-1.569106102,2024-06-04 16:18:15.262191
25.30268334,0.5758252144,-0.4396071434,-0.8230800629,2024-06-04 16:18:15.302683
25.34318407,1.934315205,-0.497979641,-0.8648915291,2024-06-04 16:18:15.343184
25.38369178,2.315820694,-0.07091283798,-0.3238649368,2024-06-04 16:18:15.383692
25.42410058,-0.2819952965,0.02228760719,-0.8203573227,2024-06-04 16:18:15.424101
25.46464954,-1.112307072,-0.03247117996,0.4099817276,2024-06-04 16:18:15.464650
25.50511797,0.03332233429,0.6112279892,-0.003505706787,2024-06-04 16:18:15.505118
25.54562157,2.02306366,0.9896411896,-0.6519374847,2024-06-04 16:18:15.545622
25.58610443,1.65929842,1.022788048,-0.1322412491,2024-06-04 16:18:15.586104
25.62656724,0.1790890694,1.125051022,0.01187801361,2024-06-04 16:18:15.626567
25.66706188,0.7658557892,0.412112236,0.08559417725,2024-06-04 16:18:15.667062
25.70755105,-0.1917462349,0.2163352966,0.4799602032,2024-06-04 16:18:15.707551
25.74806839,-0.4497842789,0.6980748177,0.7354235649,2024-06-04 16:18:15.748068
25.78854766,0.900683403,1.624148846,0.6009171009,2024-06-04 16:18:15.788548
25.82904912,0.5409698486,0.7137565613,1.186409712,2024-06-04 16:18:15.829049
25.86953964,0.4495882988,0.5387201309,1.337892532,2024-06-04 16:18:15.869540
25.9100536,-1.513953686,0.8826556206,1.385538816,2024-06-04 16:18:15.910054
25.95051402,-1.910676479,0.4959292412,0.9088482857,2024-06-04 16:18:15.950514
25.99096615,-0.4965090752,1.340763092,0.3308022022,2024-06-04 16:18:15.990966
26.031455,-1.351613522,0.8591403961,0.7369610071,2024-06-04 16:18:16.031455
26.07197839,-1.859684944,-0.4780988693,0.4313447475,2024-06-04 16:18:16.071978
26.11246188,0.5242395401,-0.4926252365,0.9898045063,2024-06-04 16:18:16.112462
26.15295178,0.7503051758,-1.860641956,1.225645065,2024-06-04 16:18:16.152952
26.1934586,-0.7452630997,-1.662909985,1.638670564,2024-06-04 16:18:16.193459
26.23393251,-1.475289822,-1.328619957,1.509949803,2024-06-04 16:18:16.233933
26.27445422,-0.9546937943,-1.165987015,0.5255203247,2024-06-04 16:18:16.274454
26.31492813,0.1477050781,0.5313282013,-0.07521533966,2024-06-04 16:18:16.314928
26.35540652,1.757677078,-0.1408538818,0.07826960087,2024-06-04 16:18:16.355407
26.39589829,0.3238005638,-0.9505267143,0.8519349098,2024-06-04 16:18:16.395898
26.43635167,0.2013888359,-0.8398404121,0.7755582333,2024-06-04 16:18:16.436352
26.47687928,-0.3418159485,-0.9240412712,0.4506514072,2024-06-04 16:18:16.476879
26.51737761,-0.8468589783,-0.449681282,0.4000968933,2024-06-04 16:18:16.517378
26.55784521,-0.01708126068,-0.1773958206,-0.06454825401,2024-06-04 16:18:16.557845
26.59835355,-0.7283263206,0.02635478973,0.3410265446,2024-06-04 16:18:16.598354
26.63883303,-0.4408736229,-0.2026758194,0.0129263401,2024-06-04 16:18:16.638833
26.67928152,-0.414785862,-0.252863884,-0.300014019,2024-06-04 16:18:16.679282
26.7198286,-1.531508923,-0.4626026154,0.149805069,2024-06-04 16:18:16.719829
26.7602775,-0.02101182938,0.09548425674,-0.5994324684,2024-06-04 16:18:16.760278
26.80076719,-0.3860864639,-0.1477808952,-0.8793582916,2024-06-04 16:18:16.800767
26.84126652,-1.571408272,-1.280814171,-0.02240824699,2024-06-04 16:18:16.841267
26.88176683,-0.5886330605,-1.460751057,-0.7801077366,2024-06-04 16:18:16.881767
26.92227782,1.129459381,-0.7252674103,-0.6963734627,2024-06-04 16:18:16.922278
26.96275865,1.238285065,-1.160902023,-0.2503881454,2024-06-04 16:18:16.962759
27.00323542,0.3707957268,-1.64341712,0.02216386795,2024-06-04 16:18:17.003235
27.04373266,0.07023048401,-1.609226227,-0.6145071983,2024-06-04 16:18:17.043733
27.08421834,1.023309708,-0.02257084846,-0.9670095444,2024-06-04 16:18:17.084218
27.12470527,1.025171757,-0.5097801685,-0.1429772377,2024-06-04 16:18:17.124705
27.16518959,3.147071838,-0.1391367912,-0.108250618,2024-06-04 16:18:17.165190
27.20567198,1.828269958,-0.2083146572,-0.1704463959,2024-06-04 16:18:17.205672
27.24617667,2.656121254,-0.4598255157,-0.03219175339,2024-06-04 16:18:17.246177
27.28668277,1.714696884,0.5882837772,-0.1729784012,2024-06-04 16:18:17.286683
27.32718594,3.106354713,2.012595654,-0.7419288158,2024-06-04 16:18:17.327186
27.36765891,3.005303383,1.271044493,0.4437346458,2024-06-04 16:18:17.367659
27.40809386,0.9284291267,-0.2791404724,1.231395721,2024-06-04 16:18:17.408094
27.44860636,-1.6189394,-0.9130806923,0.9985802174,2024-06-04 16:18:17.448606
27.48912756,-0.1347951889,0.8620295525,0.6117725372,2024-06-04 16:18:17.489128
27.52959829,0.8844809532,0.7090821266,0.7347693443,2024-06-04 16:18:17.529598
27.57010714,0.3660521507,-0.8446588516,2.134623528,2024-06-04 16:18:17.570107
27.61058438,-1.081972599,-0.2894263268,2.117210865,2024-06-04 16:18:17.610584
27.6510536,0.3899507523,0.5720305443,0.8679190874,2024-06-04 16:18:17.651054
27.69155172,0.4054656029,0.8976154327,1.287421823,2024-06-04 16:18:17.691552
27.7320398,-2.143391132,-1.462224007,1.718938708,2024-06-04 16:18:17.732040
27.77252672,-2.890575409,-1.386908531,2.151610374,2024-06-04 16:18:17.772527
27.81301876,-2.641213417,-0.5757069588,1.672267675,2024-06-04 16:18:17.813019
27.85353646,-2.729115486,-1.295154095,0.4143761396,2024-06-04 16:18:17.853536
27.89401912,-2.657142162,-1.346858025,1.51695025,2024-06-04 16:18:17.894019
27.93449829,-0.9635486603,-1.004938126,0.9912126064,2024-06-04 16:18:17.934498
27.97499105,1.370014191,-0.9484210014,-0.6857984066,2024-06-04 16:18:17.974991
28.015481,2.840178013,-1.488852978,-1.255581021,2024-06-04 16:18:18.015481
28.05596318,1.581941128,-0.8290629387,-0.4686698914,2024-06-04 16:18:18.055963
28.09645584,0.8964729309,0.09590053558,-0.7290742397,2024-06-04 16:18:18.096456
28.13694844,-0.6503381729,0.3476042747,-0.5063793659,2024-06-04 16:18:18.136948
28.17738344,-0.0207567215,0.4997005463,-0.6773021221,2024-06-04 16:18:18.177383
28.21790698,-1.153108597,0.05011558533,-0.562582016,2024-06-04 16:18:18.217907
28.25840735,-2.083923817,-0.4161300659,-0.5142319202,2024-06-04 16:18:18.258407
28.29889506,-1.883569241,-0.9852523804,-0.3660867214,2024-06-04 16:18:18.298895
28.33942271,-0.7818431854,-1.246442795,-0.6261768341,2024-06-04 16:18:18.339423
28.37992594,0.1554875374,-1.404318333,-1.001039982,2024-06-04 16:18:18.379926
28.42041287,-0.2807440758,-1.529585361,-1.202789068,2024-06-04 16:18:18.420413
28.46083381,-0.001269340515,-0.938284874,-0.7631788254,2024-06-04 16:18:18.460834
28.5013398,-0.5173969269,-1.357506037,-1.876634359,2024-06-04 16:18:18.501340
28.54185969,0.1050047874,-1.133259296,-0.7374520302,2024-06-04 16:18:18.541860
28.58234948,0.851831913,-1.484986067,-1.210243702,2024-06-04 16:18:18.582349
28.62280313,3.051316738,-0.4171435833,-1.248578548,2024-06-04 16:18:18.622803
28.66332032,3.176516056,-0.2994742393,-1.136928082,2024-06-04 16:18:18.663320
28.70379964,2.097233772,-0.2386033535,-0.7213673592,2024-06-04 16:18:18.703800
28.74430928,2.192532063,0.7459914684,-0.3829035759,2024-06-04 16:18:18.744309
28.78480532,3.726160288,0.8700864315,-0.7090668678,2024-06-04 16:18:18.784805
28.82527495,3.574821472,1.595057249,-0.9801464081,2024-06-04 16:18:18.825275
28.86577172,1.480101585,0.8307557106,0.01576042175,2024-06-04 16:18:18.865772
28.90630235,0.09065437317,-0.1540222168,0.3416836262,2024-06-04 16:18:18.906302
28.94675235,-0.3766436577,0.7323055267,1.075194359,2024-06-04 16:18:18.946752
28.98721813,-0.2607116699,0.8468518257,0.6041929722,2024-06-04 16:18:18.987218
29.02770001,-0.7217392921,0.07396364212,1.392213106,2024-06-04 16:18:19.027700
29.06820756,-0.4555854797,0.2323746681,1.069936037,2024-06-04 16:18:19.068208
29.10870615,-1.313744068,1.163034439,0.708637476,2024-06-04 16:18:19.108706
29.14919776,-0.7768025398,-0.501698494,1.683317184,2024-06-04 16:18:19.149198
29.1896873,-1.61943531,-1.685883999,1.178587914,2024-06-04 16:18:19.189687
29.23018803,-2.770269394,-1.617385864,1.458087444,2024-06-04 16:18:19.230188
29.27062501,-1.378076553,-0.3898153305,0.4354059696,2024-06-04 16:18:19.270625
29.31112667,-2.045607567,-1.090987682,1.022775173,2024-06-04 16:18:19.311127
29.3516161,-2.091329098,-1.412212849,1.137758493,2024-06-04 16:18:19.351616
29.39210276,0.520075798,0.6372971535,-0.5371420383,2024-06-04 16:18:19.392103
29.43258079,2.615384579,0.5649752617,-0.9756003618,2024-06-04 16:18:19.432581
29.47317339,0.8151903152,-0.8515882492,-0.5337543488,2024-06-04 16:18:19.473173
29.51358141,-1.269748211,-0.3244371414,-0.5848867893,2024-06-04 16:18:19.513581
29.55411553,-1.488627434,-0.2015109062,-0.4675652981,2024-06-04 16:18:19.554116
29.594576,-0.435362339,-1.363393784,0.4751152992,2024-06-04 16:18:19.594576
29.63503532,0.1970367432,-1.364302158,0.2209277153,2024-06-04 16:18:19.635035
29.67555782,-0.9750828743,-1.155271053,-0.4948165417,2024-06-04 16:18:19.675558
29.71604959,-0.6403560638,-0.6867175102,-0.4982397556,2024-06-04 16:18:19.716050
29.75656735,-0.4248924255,-0.0163693428,-0.7813973427,2024-06-04 16:18:19.756567
29.79701891,-0.9009003639,-1.644908905,-0.1571769714,2024-06-04 16:18:19.797019
29.83752652,-1.128664017,-2.373185158,-0.2992053032,2024-06-04 16:18:19.837527
29.87800376,-0.1353349686,-2.043180704,-1.486029625,2024-06-04 16:18:19.878004
29.91848589,1.185747623,-1.062144756,-0.9651927948,2024-06-04 16:18:19.918486
29.95892995,2.208946705,-0.7544074059,-2.0794487,2024-06-04 16:18:19.958930
29.9994785,2.154528141,-0.2054011822,-1.701459169,2024-06-04 16:18:19.999478
30.0399685,2.99682045,0.3965857029,-1.814003229,2024-06-04 16:18:20.039969
30.08045813,3.105643272,1.049903154,-1.272844791,2024-06-04 16:18:20.080458
30.12094797,2.773189545,1.022912025,-0.9948899746,2024-06-04 16:18:20.120948
30.16146193,2.804276466,1.287594795,-0.3648180962,2024-06-04 16:18:20.161462
30.20190594,2.289960384,1.218200684,-0.43136549,2024-06-04 16:18:20.201906
30.24240287,1.953082085,0.8436312675,-0.4012928009,2024-06-04 16:18:20.242403
30.2829012,0.3054289818,0.3011140823,0.988758564,2024-06-04 16:18:20.282901
30.32339766,-1.288290977,0.1106357574,1.209034443,2024-06-04 16:18:20.323398
30.36387589,0.3296642303,1.346083164,2.104467392,2024-06-04 16:18:20.363876
30.40435568,-2.223342896,-0.4340472221,1.687351465,2024-06-04 16:18:20.404356
30.44483542,-3.720824718,-1.957574368,1.13973856,2024-06-04 16:18:20.444835
30.48533402,-2.239533901,-0.05554866791,0.5694420338,2024-06-04 16:18:20.485334
30.52582433,-4.108462334,-1.195617199,0.6461286545,2024-06-04 16:18:20.525824
30.56632803,-2.240090847,-1.308033466,0.7666268349,2024-06-04 16:18:20.566328
30.60682183,-0.8404622078,-0.4726595879,0.6856071949,2024-06-04 16:18:20.606822
30.6473149,-0.9095392227,-1.183096886,0.4164681435,2024-06-04 16:18:20.647315
30.68778777,1.071125507,-0.04179382324,0.1684131622,2024-06-04 16:18:20.687788
30.72828073,1.455711365,-0.6976733208,-1.141355991,2024-06-04 16:18:20.728281
30.76880641,-0.2409420013,-0.9027500153,-0.6564805508,2024-06-04 16:18:20.768806
30.80928209,-1.31039238,-0.9219865799,0.7689166069,2024-06-04 16:18:20.809282
30.84974865,-2.229167461,-0.9127149582,0.3564395905,2024-06-04 16:18:20.849749
30.89024292,-1.532926559,-1.678647518,-0.1769278049,2024-06-04 16:18:20.890243
30.93070381,-0.000834941864,-1.709245205,-1.284022331,2024-06-04 16:18:20.930704
30.97119339,-0.7229661942,-1.188622952,-1.425412416,2024-06-04 16:18:20.971193
31.01168605,0.007667064667,-1.530426025,-1.69608593,2024-06-04 16:18:21.011686
31.05217542,0.3085832596,-1.382309914,-1.029193163,2024-06-04 16:18:21.052175
31.09269261,-1.866688251,-0.811368227,-1.506590366,2024-06-04 16:18:21.092693
31.133196,-0.3663039207,-1.599020958,-2.266740322,2024-06-04 16:18:21.133196
31.1736849,-0.1747341156,-2.007882118,-2.1315732,2024-06-04 16:18:21.173685
31.21415501,4.944549084,0.6635376215,-3.229041576,2024-06-04 16:18:21.214155
31.25463933,5.283833981,1.092725992,-1.803112507,2024-06-04 16:18:21.254639
31.29514474,1.79731226,-0.4169225693,-0.9686183929,2024-06-04 16:18:21.295145
31.33564823,2.852572441,0.7226080894,-1.063218594,2024-06-04 16:18:21.335648
31.37612073,2.945820808,1.15547657,-0.5845570564,2024-06-04 16:18:21.376121
31.41664995,1.434807777,1.012158632,-0.4868576527,2024-06-04 16:18:21.416650
31.45711261,0.3650798798,0.07703113556,0.6246697903,2024-06-04 16:18:21.457113
31.49758204,-1.094382286,-0.888299942,1.726143122,2024-06-04 16:18:21.497582
31.53808969,0.1737828255,1.172917843,1.304299831,2024-06-04 16:18:21.538090
31.57857011,-1.434830189,1.245559692,1.797651529,2024-06-04 16:18:21.578570
31.61906396,-3.185290813,-1.776042938,0.8833403587,2024-06-04 16:18:21.619064
31.65952172,-2.135632992,-1.001214981,0.7271850109,2024-06-04 16:18:21.659522
31.70001303,-2.371944427,-0.3161578178,1.347654104,2024-06-04 16:18:21.700013
31.7404912,-2.20380497,-0.6826057434,0.3844146729,2024-06-04 16:18:21.740491
31.78097678,-0.2504181862,0.4571380615,-0.2621705532,2024-06-04 16:18:21.780977
31.82147001,-0.2395691872,-0.4772720337,-0.1436898708,2024-06-04 16:18:21.821470
31.86197646,0.3411326408,-0.8186435699,0.1710104942,2024-06-04 16:18:21.861976
31.90252839,-0.6527495384,-1.377308369,0.3097751141,2024-06-04 16:18:21.902528
31.94297386,-0.8736796379,-0.9073748589,0.2274620533,2024-06-04 16:18:21.942974
31.98344829,-0.9621696472,-1.121964931,0.2531337738,2024-06-04 16:18:21.983448
32.02396032,-2.078674793,-1.001894474,-0.3936572075,2024-06-04 16:18:22.023960
32.06443313,-0.8532886505,-0.8967385292,-1.268649578,2024-06-04 16:18:22.064433
32.10494308,-1.53119421,-1.216282845,-1.534465313,2024-06-04 16:18:22.104943
32.14541975,-1.60989666,-1.387765408,-1.549095869,2024-06-04 16:18:22.145420
32.18593303,-1.489688396,-2.249810696,-1.459574461,2024-06-04 16:18:22.185933
32.22639334,-0.04945468903,-1.676646471,-1.013434887,2024-06-04 16:18:22.226393
32.26688094,0.5239071846,-2.521155596,-2.439443111,2024-06-04 16:18:22.266881
32.30736776,1.302564144,-0.4115035534,-1.048619747,2024-06-04 16:18:22.307368
32.34784969,1.978987694,-0.9041883945,-2.459888697,2024-06-04 16:18:22.347850
32.388395,3.865898371,0.7105641365,-2.801788807,2024-06-04 16:18:22.388395
32.42880907,3.803752899,0.9813138247,-2.687941074,2024-06-04 16:18:22.428809
32.46932573,2.189803123,1.579768181,-1.002796173,2024-06-04 16:18:22.469326
32.50983376,4.701291561,2.187487125,-1.642354012,2024-06-04 16:18:22.509834
32.55028829,2.689356804,1.049973488,-1.197337866,2024-06-04 16:18:22.550288
32.59075724,0.352722168,-0.02859640121,-0.09867286682,2024-06-04 16:18:22.590757
32.631246,-0.7902498245,-0.102001667,0.7533481121,2024-06-04 16:18:22.631246
32.67177761,-1.98853159,0.3346576691,1.611260414,2024-06-04 16:18:22.671778
32.7122735,-2.531988144,0.4276361465,1.607049227,2024-06-04 16:18:22.712274
32.75277417,-1.441097736,-1.134019852,0.1527345181,2024-06-04 16:18:22.752774
32.79326141,-1.34210825,-0.7097682953,0.708186388,2024-06-04 16:18:22.793261
32.83374563,-1.479959488,-1.537796497,0.6521208286,2024-06-04 16:18:22.833746
32.87423402,-2.767528534,-2.033432961,0.8607525826,2024-06-04 16:18:22.874234
32.91470865,-2.369910717,0.09594535828,0.776948452,2024-06-04 16:18:22.914709
32.95517152,-1.695617676,-0.09327554703,1.807082176,2024-06-04 16:18:22.955172
32.99567594,0.07736635208,-0.7842669487,0.5199213028,2024-06-04 16:18:22.995676
33.03616474,0.3970365524,-1.716852665,-0.559248209,2024-06-04 16:18:23.036165
33.07668323,-0.5416288376,-1.172197819,0.04075026512,2024-06-04 16:18:23.076683
33.11717865,-1.777885914,-1.001718521,-0.2645127773,2024-06-04 16:18:23.117179
33.15765313,-1.684831619,-1.370048523,-1.145327091,2024-06-04 16:18:23.157653
33.19814948,-2.197075844,-2.050884247,-1.51447916,2024-06-04 16:18:23.198149
33.23866844,-1.3925457,-2.159739017,-1.723193645,2024-06-04 16:18:23.238668
33.27912084,-1.10313797,-2.450880051,-1.506220818,2024-06-04 16:18:23.279121
33.31960053,-0.8199725151,-2.253933907,-1.820890903,2024-06-04 16:18:23.319601
33.36011954,-0.8262853622,-2.236786366,-2.875186443,2024-06-04 16:18:23.360120
33.40060938,3.787720203,-0.5290646553,-2.990775585,2024-06-04 16:18:23.400609
33.44104422,4.393190384,0.1810770035,-2.213349819,2024-06-04 16:18:23.441044
33.48154776,4.033425808,0.1502270699,-1.516653776,2024-06-04 16:18:23.481548
33.52206391,2.464715481,0.5567209721,-1.582738161,2024-06-04 16:18:23.522064
33.56255162,3.246059418,2.488076448,-1.180145264,2024-06-04 16:18:23.562552
33.60303178,4.149132252,1.934895039,-1.069272757,2024-06-04 16:18:23.603032
33.64350641,3.204016685,1.818482876,-0.6885254383,2024-06-04 16:18:23.643506
33.68402292,1.571959496,0.6763563156,-0.2032423019,2024-06-04 16:18:23.684023
33.72451719,-0.02952528,-0.8841834068,0.5679926872,2024-06-04 16:18:23.724517
33.76499287,-1.074617386,-1.320775509,1.649457216,2024-06-04 16:18:23.764993
33.80549777,-0.9816699028,-0.6099996567,1.004880667,2024-06-04 16:18:23.805498
33.84598876,-1.836030483,-2.135587215,0.5216145515,2024-06-04 16:18:23.845989
33.88647626,-2.32192564,-1.162834167,0.833116293,2024-06-04 16:18:23.886476
33.92697594,-3.29887867,-0.7746310234,0.223130703,2024-06-04 16:18:23.926976
33.96746568,-3.397004128,-0.8778963089,1.668641567,2024-06-04 16:18:23.967466
34.00795068,-2.669319153,-0.8145999908,1.531252384,2024-06-04 16:18:24.007951
34.04843006,-0.4659981728,0.02268314362,1.102289915,2024-06-04 16:18:24.048430
34.08892105,0.9518461227,0.4921517372,1.002959013,2024-06-04 16:18:24.088921
34.12941282,0.006293773651,-0.4523940086,0.6704416275,2024-06-04 16:18:24.129413
34.16990818,-0.7592329979,-1.453033924,0.6123170853,2024-06-04 16:18:24.169908
34.21038188,-1.563061714,-1.138417721,-0.147903204,2024-06-04 16:18:24.210382
34.25085766,-2.845201015,-2.028290749,-0.354177475,2024-06-04 16:18:24.250858
34.29131922,-1.585165977,-2.164574623,-0.8862099648,2024-06-04 16:18:24.291319
34.33186495,-0.3607745171,-1.919860363,-1.469733715,2024-06-04 16:18:24.331865
34.3723398,-0.8121194839,-1.72249651,-1.227937698,2024-06-04 16:18:24.372340
34.41280964,-1.458699226,-2.2473104,-2.521081209,2024-06-04 16:18:24.412810
34.45332276,0.1133527756,-2.461409807,-1.820457458,2024-06-04 16:18:24.453323
34.49380516,4.921611309,-0.8462119102,-2.246766567,2024-06-04 16:18:24.493805
34.53430073,4.963837624,0.9480836391,-2.011020184,2024-06-04 16:18:24.534301
34.57478808,4.290307522,0.6155767441,-1.599692106,2024-06-04 16:18:24.574788
34.61527912,3.40144825,0.7581369877,-1.162187099,2024-06-04 16:18:24.615279
34.65577709,3.702502251,1.491951942,-0.375988245,2024-06-04 16:18:24.655777
34.69626443,3.389027596,1.162718534,0.2295415401,2024-06-04 16:18:24.696264
34.73675016,1.77408123,1.181265831,0.4274122715,2024-06-04 16:18:24.736750
34.77724188,-0.3002462387,-0.03939676285,0.8792741299,2024-06-04 16:18:24.777242
34.817735,-0.6749401093,-0.6366734505,1.39708209,2024-06-04 16:18:24.817735
34.85822355,-0.5463137627,-0.4487342834,2.059895992,2024-06-04 16:18:24.858224
34.89871714,-4.291543484,-2.700825214,2.091425419,2024-06-04 16:18:24.898717
34.93918089,-3.112061501,-1.035385132,1.780037284,2024-06-04 16:18:24.939181
34.97966563,-4.304293156,-0.5526971817,0.9368027449,2024-06-04 16:18:24.979666
35.02016766,-4.08276844,0.05973052979,1.333070517,2024-06-04 16:18:25.020168
35.06064751,-1.767361164,-0.1164522171,-0.4361976385,2024-06-04 16:18:25.060648
35.1011811,-0.3487887383,0.1937999725,-0.8490544558,2024-06-04 16:18:25.101181
35.14162693,1.434693336,-0.2700223923,-0.348937273,2024-06-04 16:18:25.141627
35.18214704,0.9734730721,-1.762104511,0.4787597656,2024-06-04 16:18:25.182147
35.22260532,-1.164862633,-1.214279652,0.5926053524,2024-06-04 16:18:25.222605
35.26313813,-2.086562634,-0.7059879303,-0.9266440868,2024-06-04 16:18:25.263138
35.30360136,-1.99433136,-1.60478878,0.0748231411,2024-06-04 16:18:25.303601
35.34410745,-0.9314079285,-2.369781017,-1.488258362,2024-06-04 16:18:25.344107
35.3846186,-1.264648438,-2.401255608,-1.359585762,2024-06-04 16:18:25.384619
35.42502079,-0.1717739105,-2.235695362,-1.209779978,2024-06-04 16:18:25.425021
35.46555485,0.5456662178,-2.068709135,-2.543848515,2024-06-04 16:18:25.465555
35.50604126,-1.04915905,-1.916471958,-2.659123421,2024-06-04 16:18:25.506041
35.54654308,1.324405193,-1.67363596,-2.727452278,2024-06-04 16:18:25.546543
35.58701448,6.364830971,1.482158065,-2.175309658,2024-06-04 16:18:25.587014
35.62749542,4.561142921,1.88145268,-2.003109932,2024-06-04 16:18:25.627495
35.66801021,4.87624073,2.075884819,-1.466627836,2024-06-04 16:18:25.668010
35.70850115,2.633131981,1.158254147,-1.482991219,2024-06-04 16:18:25.708501
35.74898011,2.241472721,0.917031765,-0.961432457,2024-06-04 16:18:25.748980
35.78947641,3.048666,1.48073411,-0.4759907722,2024-06-04 16:18:25.789476
35.82996662,1.880828381,0.3210701942,0.3397679329,2024-06-04 16:18:25.829967
35.87045636,-2.507228851,-1.573459625,1.852635145,2024-06-04 16:18:25.870456
35.91094615,-4.654322147,-2.064256191,1.598294973,2024-06-04 16:18:25.910946
35.95139042,-2.196294785,-1.103299141,0.4350113869,2024-06-04 16:18:25.951390
35.99191037,-2.433882236,-1.820252419,0.4422712326,2024-06-04 16:18:25.991910
36.03239896,-3.964663029,-0.7845802307,0.712136507,2024-06-04 16:18:26.032399
36.07288271,-3.342369556,-0.2074341774,0.9155774117,2024-06-04 16:18:26.072883
36.11339537,-2.046283722,-1.2692523,1.634735346,2024-06-04 16:18:26.113395
36.15388709,-0.4301290512,-0.3928127289,1.346558571,2024-06-04 16:18:26.153887
36.19435532,1.41042757,0.02867984772,-0.1328377724,2024-06-04 16:18:26.194355
36.23484579,1.455517769,-0.7217049599,-0.6298434734,2024-06-04 16:18:26.234846
36.27533834,-0.4976062775,-1.912779331,0.05280947685,2024-06-04 16:18:26.275338
36.31584214,-4.042264462,-1.164395809,0.1727530956,2024-06-04 16:18:26.315842
36.35631808,-4.24602747,-2.38737011,-0.8843843937,2024-06-04 16:18:26.356318
36.39682709,-1.274267673,-1.885276794,-1.286629677,2024-06-04 16:18:26.396827
36.43736178,0.1408023834,-2.116795063,-1.014937162,2024-06-04 16:18:26.437362
36.47780511,0.2357177734,-2.320393324,-2.291064262,2024-06-04 16:18:26.477805
36.51832511,1.427037716,-1.679875135,-2.529551744,2024-06-04 16:18:26.518325
36.55878886,1.941232681,-1.498617649,-2.527924061,2024-06-04 16:18:26.558789
36.59927391,4.689500809,-0.2436387539,-3.059721231,2024-06-04 16:18:26.599274
36.63976297,3.736581802,1.668743372,-1.8495543,2024-06-04 16:18:26.639763
36.68025615,2.637514591,1.215395927,-0.9513597488,2024-06-04 16:18:26.680256
36.72071219,4.759828568,2.256634235,-1.008375645,2024-06-04 16:18:26.720712
36.76120193,3.802801609,1.657914877,-0.3477263451,2024-06-04 16:18:26.761202
36.80170235,3.371604443,1.356622219,-0.7966184616,2024-06-04 16:18:26.801702
36.84219594,0.3953843117,-0.1046719551,0.4750180244,2024-06-04 16:18:26.842196
36.88269256,-0.9901256561,-0.3549041748,1.183144569,2024-06-04 16:18:26.882693
36.92319521,-1.830691338,-0.2814612389,0.734921217,2024-06-04 16:18:26.923195
36.96369047,-4.142395973,-1.896388531,-0.1449079514,2024-06-04 16:18:26.963690
37.00418563,-2.611295223,-2.225922108,0.6422791481,2024-06-04 16:18:27.004186
37.04462667,-1.526987553,-0.6080989838,-0.05983090401,2024-06-04 16:18:27.044627
37.08511058,-3.14598465,0.2276449203,0.9620113373,2024-06-04 16:18:27.085111
37.12562261,-4.011384487,-0.330596447,1.240017891,2024-06-04 16:18:27.125623
37.1661285,-2.829458714,-0.5002827644,1.363781691,2024-06-04 16:18:27.166128
37.20661865,-0.9042153358,-0.390124321,0.1556348801,2024-06-04 16:18:27.206619
37.24711589,1.496677876,-0.1599731445,-1.262816072,2024-06-04 16:18:27.247116
37.28759474,0.2933082581,-1.459720612,-0.1435012817,2024-06-04 16:18:27.287595
37.32806917,-2.451655865,-1.190672398,0.01711249352,2024-06-04 16:18:27.328069
37.36856521,-2.259421349,-0.7627725601,-0.3834989071,2024-06-04 16:18:27.368565
37.40905563,-2.626909256,-2.324098587,-1.384323597,2024-06-04 16:18:27.409056
37.44957433,-0.6651864052,-2.737884521,-2.006253958,2024-06-04 16:18:27.449574
37.4900686,-2.075439453,-2.918195248,-1.904604912,2024-06-04 16:18:27.490069
37.53051032,-1.56930542,-3.877809286,-1.72000289,2024-06-04 16:18:27.530510
37.57098506,3.202657223,-2.418824673,-1.812622309,2024-06-04 16:18:27.570985
37.61148282,5.679946899,-0.4817156792,-3.341390133,2024-06-04 16:18:27.611483
37.65197412,5.589560509,1.217933536,-3.249780893,2024-06-04 16:18:27.651974
37.6924799,2.461822033,2.119432449,-2.036973476,2024-06-04 16:18:27.692480
37.73296938,3.72599411,2.356378078,-1.914322853,2024-06-04 16:18:27.732969
37.77346485,3.556524515,2.679049492,-1.222107649,2024-06-04 16:18:27.773465
37.81395782,2.791086674,1.447733402,-1.399405241,2024-06-04 16:18:27.813958
37.85443266,0.7674732208,-0.1740088463,-0.7529373169,2024-06-04 16:18:27.854433
37.89495886,-1.732141972,-0.8635520935,1.269344807,2024-06-04 16:18:27.894959
37.93545058,-1.890557766,-1.273653507,0.4415888786,2024-06-04 16:18:27.935451
37.97591178,-3.158350945,-2.949346542,-0.2947363853,2024-06-04 16:18:27.975912
38.01641683,-2.957453728,-1.867277145,0.6915268898,2024-06-04 16:18:28.016417
38.05686214,-2.939847469,-0.1202101707,1.219005108,2024-06-04 16:18:28.056862
38.09736818,-1.565589428,-0.5224823952,0.5891900063,2024-06-04 16:18:28.097368
38.13787282,-3.358876705,-0.9657921791,0.8387212753,2024-06-04 16:18:28.137873
38.17836053,-1.129407406,-0.05728197098,0.7241837978,2024-06-04 16:18:28.178361
38.21885115,-0.5366659164,-0.3423390388,0.2326340675,2024-06-04 16:18:28.218851
38.25934047,0.4984331131,0.3308520317,-0.2928888798,2024-06-04 16:18:28.259340
38.29980876,-2.446676731,-1.279725075,0.2278220654,2024-06-04 16:18:28.299809
38.34032542,-3.205553532,-1.694800854,-0.4210124016,2024-06-04 16:18:28.340325
38.38081141,-1.989533424,-2.005600452,-0.6922466755,2024-06-04 16:18:28.380811
38.42126568,-1.438993931,-3.281513214,-1.159101725,2024-06-04 16:18:28.421266
38.4617687,0.02161026001,-3.219404221,-1.113528013,2024-06-04 16:18:28.461769
38.5022962,-0.3760175705,-2.504822016,-1.622027159,2024-06-04 16:18:28.502296
38.54277896,0.08621168137,-2.909048319,-3.04314971,2024-06-04 16:18:28.542779
38.58327646,2.734725952,-0.9431345463,-1.637378454,2024-06-04 16:18:28.583276
38.6237461,6.075485229,1.728672028,-2.444825411,2024-06-04 16:18:28.623746
38.66425521,3.681856632,0.722299099,-1.687532902,2024-06-04 16:18:28.664255
38.70472152,3.821994781,1.410548568,-1.237307549,2024-06-04 16:18:28.704722
38.74520688,4.367860794,2.179102421,-0.7732799053,2024-06-04 16:18:28.745207
38.78572589,3.69227314,1.336555004,-0.9723100662,2024-06-04 16:18:28.785726
38.82619792,2.263786316,0.7846593857,-0.8646023273,2024-06-04 16:18:28.826198
38.86675058,-0.5344257355,-0.3046722412,0.1480121613,2024-06-04 16:18:28.866751
38.90717376,-1.898325443,-0.9766969681,1.181976557,2024-06-04 16:18:28.907174
38.94767016,-1.174232006,0.3071260452,0.7545340061,2024-06-04 16:18:28.947670
38.98816636,-3.076456547,-2.974982262,0.2178339958,2024-06-04 16:18:28.988166
39.02866318,-2.301407814,-2.249963284,1.166599631,2024-06-04 16:18:29.028663
39.06910527,-3.752788544,-0.6166243553,1.610458732,2024-06-04 16:18:29.069105
39.10960605,-2.283196926,-0.214468956,1.386649489,2024-06-04 16:18:29.109606
39.15010152,-1.336958408,-0.4232611656,1.523801327,2024-06-04 16:18:29.150102
39.1905899,-0.1434235573,0.2455463409,0.7733359337,2024-06-04 16:18:29.190590
39.23108141,-1.182735443,0.1816282272,0.4835476875,2024-06-04 16:18:29.231081
39.27162995,0.1023430824,-0.4715061188,0.3394920826,2024-06-04 16:18:29.271630
39.31206282,0.3982481956,-1.565112591,-0.03999662399,2024-06-04 16:18:29.312063
39.35258829,-1.953929424,-2.074101925,0.5268166065,2024-06-04 16:18:29.352588
39.3930635,-1.99698019,-2.876472473,0.1134386063,2024-06-04 16:18:29.393063
39.43355766,-0.4265670776,-2.664717674,0.1374073029,2024-06-04 16:18:29.433558
39.4740437,0.2825813293,-3.391609669,-0.5012397766,2024-06-04 16:18:29.474044
39.51450761,-0.5251779556,-2.031583548,-1.08659935,2024-06-04 16:18:29.514508
39.55503402,0.9105257988,-0.4529931545,-2.351287603,2024-06-04 16:18:29.555034
39.59550829,1.460368156,-1.03599906,-3.062724113,2024-06-04 16:18:29.595508
39.63601334,5.501603127,1.165053368,-2.382595539,2024-06-04 16:18:29.636013
39.67647693,4.716880322,2.111509085,-1.0851717,2024-06-04 16:18:29.676477
39.71695683,3.634163857,2.074504852,-0.5923728943,2024-06-04 16:18:29.716957
39.75745813,4.59610796,2.416406155,-0.6599214077,2024-06-04 16:18:29.757458
39.79793876,3.136683464,1.638695955,-1.003127813,2024-06-04 16:18:29.797939
39.83843297,1.973175049,0.675570488,-0.5908646584,2024-06-04 16:18:29.838433
39.87891381,-0.8959870338,-0.3076705933,0.7856936455,2024-06-04 16:18:29.878914
39.91945219,-1.339610577,-0.7589726448,0.8568742275,2024-06-04 16:18:29.919452
39.95989006,-1.879617214,-0.5204415321,1.173660994,2024-06-04 16:18:29.959890
40.00037959,-3.288700581,-3.069809437,1.476094723,2024-06-04 16:18:30.000380
40.04086829,-0.814260006,-2.248762131,1.334997654,2024-06-04 16:18:30.040868
40.08135776,-2.960428715,-0.2353153229,1.184029579,2024-06-04 16:18:30.081358
40.12186396,-3.271500587,0.8003692627,1.312670946,2024-06-04 16:18:30.121864
40.16234386,-2.619728088,-0.5615391731,1.005896807,2024-06-04 16:18:30.162344
40.20284198,-0.7432951927,-0.05383777618,0.6256346703,2024-06-04 16:18:30.202842
40.24332865,0.3252482414,0.6764550209,0.0892457962,2024-06-04 16:18:30.243329
40.28382412,-0.9346208572,-0.7790021896,0.8527958393,2024-06-04 16:18:30.283824
40.32431626,-0.582408905,-1.249673843,0.2834331989,2024-06-04 16:18:30.324316
40.36481532,-2.104281425,-1.687924385,0.766559124,2024-06-04 16:18:30.364815
40.40528152,-2.002215862,-3.30728054,0.3833503723,2024-06-04 16:18:30.405282
40.44578068,-1.822134972,-3.708037376,-0.6971986294,2024-06-04 16:18:30.445781
40.48628053,-0.1632242203,-2.026844501,-0.346306324,2024-06-04 16:18:30.486281
40.52674839,0.630320549,-1.74023962,-1.372121811,2024-06-04 16:18:30.526748
40.56724021,0.5708322525,-2.219476938,-2.421873331,2024-06-04 16:18:30.567240
40.60775188,3.636004448,0.2185399532,-2.79766202,2024-06-04 16:18:30.607752
40.64823339,4.361619949,0.6055561304,-2.578485489,2024-06-04 16:18:30.648233
40.68871829,4.975538254,1.575808764,-1.723734617,2024-06-04 16:18:30.688718
40.7292199,4.132079124,2.345953703,-1.240175724,2024-06-04 16:18:30.729220
40.76969678,4.803547382,2.040257692,-1.13734746,2024-06-04 16:18:30.769697
40.81018381,3.469231606,1.804897308,-0.4399456978,2024-06-04 16:18:30.810184
40.85067605,0.1529493332,0.5811629295,0.3566918373,2024-06-04 16:18:30.850676
40.89112881,-1.731246948,-1.383425713,0.521841526,2024-06-04 16:18:30.891129
40.93163396,-2.257585049,-2.545973301,0.1717612743,2024-06-04 16:18:30.931634
40.97213506,-1.756515503,-1.446421623,0.7874491215,2024-06-04 16:18:30.972135
41.01268339,-1.103535652,-0.9258127213,1.25063026,2024-06-04 16:18:31.012683
41.05311469,-2.149781704,-0.622341156,1.288665056,2024-06-04 16:18:31.053115
41.09360881,-3.421947479,-1.090408802,2.230472565,2024-06-04 16:18:31.093609
41.13410193,-2.379570484,-1.120759964,2.081295013,2024-06-04 16:18:31.134102
41.1746085,-1.647283554,-1.072465897,1.428821802,2024-06-04 16:18:31.174608
41.21509303,0.3168301582,-0.4012322426,0.8521754742,2024-06-04 16:18:31.215093
41.25557157,0.9093742371,-0.4982471466,0.9021234512,2024-06-04 16:18:31.255572
41.29606662,-0.1730589867,-0.4458608627,1.14111948,2024-06-04 16:18:31.296067
41.33655714,-1.28558588,-1.283180714,0.4386925697,2024-06-04 16:18:31.336557
41.37705568,-2.505609035,-1.596244812,1.158194542,2024-06-04 16:18:31.377056
41.41753667,-2.023452759,-3.615505695,0.3128256798,2024-06-04 16:18:31.417537
41.45803287,-0.8096694946,-3.638475418,-0.3858089447,2024-06-04 16:18:31.458033
41.49854391,0.3384943008,-2.219276667,-0.7036261559,2024-06-04 16:18:31.498544
41.53902396,0.8548951149,-1.528759003,-1.84394908,2024-06-04 16:18:31.539024
41.5795035,2.249162674,-1.433795929,-3.270570278,2024-06-04 16:18:31.579504
41.61999141,5.575645447,0.9043434858,-2.071378708,2024-06-04 16:18:31.619991
41.66049662,4.043066502,0.9977151155,-1.537251472,2024-06-04 16:18:31.660497
41.70096964,2.734075069,1.687554121,-1.080267429,2024-06-04 16:18:31.700970
41.74144547,4.644918442,2.916293144,-1.403209925,2024-06-04 16:18:31.741445
41.7819511,3.842115164,2.55256772,-1.219047785,2024-06-04 16:18:31.781951
41.82243224,1.832240582,1.297094345,-0.4910724163,2024-06-04 16:18:31.822432
41.86291959,0.1819009781,0.1626238823,-0.1545176506,2024-06-04 16:18:31.862920
41.90342157,-1.723197937,-0.7730646133,0.2679154873,2024-06-04 16:18:31.903422
41.94390167,-3.428277016,-2.39925766,0.2253735065,2024-06-04 16:18:31.943902
41.98439516,-1.185254097,-0.6738767624,0.9137539864,2024-06-04 16:18:31.984395
42.02489417,-1.181192875,-1.079984188,0.9447665215,2024-06-04 16:18:32.024894
42.06535516,-2.51080513,-0.8561162949,1.514860392,2024-06-04 16:18:32.065355
42.10586547,-2.236932755,0.3173131943,1.916059017,2024-06-04 16:18:32.105865
42.14636594,-2.888914585,-0.9925909042,1.258693695,2024-06-04 16:18:32.146366
42.18683073,-1.358808994,-1.16321516,0.8986752033,2024-06-04 16:18:32.186831
42.22732917,-0.6352701187,-0.7866482735,0.8322398663,2024-06-04 16:18:32.227329
42.26784157,0.1481966972,-0.2814393044,0.4590837955,2024-06-04 16:18:32.267842
42.30831089,0.1350064278,-0.2769918442,0.08724761009,2024-06-04 16:18:32.308311
42.34882896,-1.244410992,-0.9651436806,0.7886400223,2024-06-04 16:18:32.348829
42.38929438,-1.754231453,-1.78934288,0.2272467613,2024-06-04 16:18:32.389294
42.42980558,-2.81213665,-2.652696133,-0.2053575516,2024-06-04 16:18:32.429806
42.47024766,-1.336602211,-3.091146469,-0.4499688148,2024-06-04 16:18:32.470248
42.5107487,0.5011868477,-2.161421299,-0.05387449265,2024-06-04 16:18:32.510749
42.55122667,2.097033024,-1.916586399,-1.792560101,2024-06-04 16:18:32.551227
42.59176047,2.540317535,-0.6949138641,-2.712733984,2024-06-04 16:18:32.591760
42.63225412,5.00457859,0.9114233255,-2.075664043,2024-06-04 16:18:32.632254
42.67272376,4.098183155,0.9324361086,-0.9300823212,2024-06-04 16:18:32.672724
42.71319365,4.832125664,1.909393668,-0.5791993141,2024-06-04 16:18:32.713194
42.75368193,4.503401279,2.175109625,-0.6251380444,2024-06-04 16:18:32.753682
42.79422657,3.248684883,1.718397856,-0.2173647881,2024-06-04 16:18:32.794227
42.83467448,1.131238461,1.144673109,0.3501219749,2024-06-04 16:18:32.834674
42.8751412,-0.6523966789,0.2308249474,0.3588502407,2024-06-04 16:18:32.875141
42.91567204,-1.828835964,-0.2292461395,0.7458446026,2024-06-04 16:18:32.915672
42.9561425,-3.760300159,-2.740390301,-0.1116101742,2024-06-04 16:18:32.956142
42.99666157,-1.604026318,-1.135057449,0.5508069992,2024-06-04 16:18:32.996662
43.03714355,-2.849096298,0.203962326,0.2560436726,2024-06-04 16:18:33.037144
43.07759995,-2.65147543,-0.07214021683,1.17673111,2024-06-04 16:18:33.077600
43.11823537,-2.893045425,-1.039219856,1.559651613,2024-06-04 16:18:33.118235
43.15860277,-2.415652752,-1.231503963,1.242823124,2024-06-04 16:18:33.158603
43.19909527,-0.2419133186,-0.1989531517,0.5302531719,2024-06-04 16:18:33.199095
43.23958209,0.4703984261,-0.7319054604,0.9306030273,2024-06-04 16:18:33.239582
43.28006042,-0.5215344429,-0.8560428619,0.5860953331,2024-06-04 16:18:33.280060
43.32052667,-1.448166847,-0.8793716431,0.4664490223,2024-06-04 16:18:33.320527
43.36104011,-1.309211731,-1.443788052,1.093698502,2024-06-04 16:18:33.361040
43.40151912,-0.8422698975,-2.341094017,-1.091826677,2024-06-04 16:18:33.401519
43.44202443,-1.178685665,-2.634515285,-0.9319524765,2024-06-04 16:18:33.442024
43.48251917,-0.2750892639,-2.671352386,-0.2879087925,2024-06-04 16:18:33.482519
43.52301803,0.3614835739,-1.976910591,-1.175625801,2024-06-04 16:18:33.523018
43.56350594,1.926707268,-0.9768736362,-2.254764318,2024-06-04 16:18:33.563506
43.60398214,3.629045486,0.1512818336,-1.860138178,2024-06-04 16:18:33.603982
43.64446969,4.461485386,0.7809165716,-1.288889408,2024-06-04 16:18:33.644470
43.68499047,2.937128067,1.53147006,-1.371485233,2024-06-04 16:18:33.684990
43.72545683,4.357944965,1.9788872,-1.082359791,2024-06-04 16:18:33.725457
43.7659712,4.828035355,2.581732512,-1.039020538,2024-06-04 16:18:33.765971
43.80645412,3.444971085,1.873417377,-0.4729697704,2024-06-04 16:18:33.806454
43.84690558,1.302362919,0.6298570633,0.2097532749,2024-06-04 16:18:33.846906
43.88740225,-0.9974193573,-0.6107468605,1.192050934,2024-06-04 16:18:33.887402
43.92792178,-3.032754421,-1.979485035,0.5774888992,2024-06-04 16:18:33.927922
43.96841964,-3.270691872,-2.028443336,0.5449576378,2024-06-04 16:18:33.968420
44.00890282,-2.152100086,-0.6995148659,0.7294912338,2024-06-04 16:18:34.008903
44.04935662,-3.615648746,-0.1017665863,1.052564859,2024-06-04 16:18:34.049357
44.08982756,-0.8925180435,-0.0003685951233,1.58435154,2024-06-04 16:18:34.089828
44.13033521,-3.137001038,-0.6524772644,1.5073452,2024-06-04 16:18:34.130335
44.17082464,-0.7965116501,-0.844578743,1.495905638,2024-06-04 16:18:34.170825
44.21131511,-0.8066482544,-0.6631231308,1.442121029,2024-06-04 16:18:34.211315
44.25180433,1.34411335,-0.2045149803,0.117297411,2024-06-04 16:18:34.251804
44.29230594,0.662706852,-0.7548575401,0.2812621593,2024-06-04 16:18:34.292306
44.33279438,-2.05873394,-1.149240971,0.977568388,2024-06-04 16:18:34.332794
44.37327844,-2.284420967,-1.308927059,0.6121809483,2024-06-04 16:18:34.373278
44.41379256,-2.585675716,-3.431612015,0.1016573906,2024-06-04 16:18:34.413793
44.45427776,-0.377371788,-2.597600937,-0.1308970451,2024-06-04 16:18:34.454278
44.49480641,-0.8735561371,-3.190130711,-1.139258385,2024-06-04 16:18:34.494806
44.53528391,1.811131001,-1.743102074,-1.881767035,2024-06-04 16:18:34.535284
44.5757387,2.85256815,-0.6862044334,-1.670572758,2024-06-04 16:18:34.575739
44.6162285,2.572799206,0.2040979862,-1.949934006,2024-06-04 16:18:34.616228
44.65672553,3.260406494,1.275110602,-1.578589678,2024-06-04 16:18:34.656726
44.69724386,5.460864067,2.294519424,-1.651559114,2024-06-04 16:18:34.697244
44.73772516,5.53271389,2.394617081,-1.607494116,2024-06-04 16:18:34.737725
44.77819209,3.626178265,1.442679882,-0.7939779758,2024-06-04 16:18:34.778192
44.81867615,1.488234043,0.8358955383,-0.04179024696,2024-06-04 16:18:34.818676
44.85916511,-0.7881908417,0.2735610008,0.9260623455,2024-06-04 16:18:34.859165
44.89966402,-1.352305412,-0.447221756,0.8720521927,2024-06-04 16:18:34.899664
44.94015745,-2.351253033,-1.749137878,0.2463333607,2024-06-04 16:18:34.940157
44.98062813,-1.909495354,-0.9275336266,0.5296161175,2024-06-04 16:18:34.980628
45.02109776,-2.205048084,-0.4030499458,0.06791424751,2024-06-04 16:18:35.021098
45.06161428,-2.697750092,-0.2551269531,1.017987728,2024-06-04 16:18:35.061614
45.10208844,-3.449101925,-0.818315506,1.708056211,2024-06-04 16:18:35.102088
45.14260745,-2.779822826,-0.5751070976,1.057304382,2024-06-04 16:18:35.142607
45.18307428,-0.6282420158,-0.5803637505,0.4005477428,2024-06-04 16:18:35.183074
45.22357037,-0.240301609,0.3159141541,0.4675393105,2024-06-04 16:18:35.223570
45.26407329,-0.02133989334,-0.6689324379,0.4764280319,2024-06-04 16:18:35.264073
45.30454329,-1.145101547,-0.9511208534,0.1975588799,2024-06-04 16:18:35.304543
45.34507032,-1.780571461,-0.9106855392,0.3438594341,2024-06-04 16:18:35.345070
45.38552407,-1.711359978,-2.00303793,-0.3130970001,2024-06-04 16:18:35.385524
45.42601969,-1.02310133,-2.222401619,0.2785315514,2024-06-04 16:18:35.426020
45.46652876,-0.03670930862,-3.660828352,-1.403269053,2024-06-04 16:18:35.466529
45.50701662,-0.4671030045,-2.428309679,-0.7156295776,2024-06-04 16:18:35.507017
45.54758547,1.480134964,-1.589318275,-1.799458027,2024-06-04 16:18:35.547585
45.58799422,2.299934864,-0.7185609341,-2.188324451,2024-06-04 16:18:35.587994
45.62848652,4.308664322,0.4427682161,-2.186753273,2024-06-04 16:18:35.628487
45.66896636,4.505953312,2.053045034,-1.435097218,2024-06-04 16:18:35.668966
45.70946245,4.792450905,2.206701756,-1.509674072,2024-06-04 16:18:35.709462
45.74997823,4.578150272,2.327408314,-1.044393063,2024-06-04 16:18:35.749978
45.79046792,2.593896389,1.780118465,-0.4960665703,2024-06-04 16:18:35.790468
45.83088459,0.18937397,-0.06995534897,0.5095853806,2024-06-04 16:18:35.830885
45.87143068,-1.132228851,-0.8844623566,0.7877848148,2024-06-04 16:18:35.871431
45.91188776,-1.420931339,-0.820555687,0.7433495522,2024-06-04 16:18:35.911888
45.95240047,-2.103443623,-1.644001007,0.459010601,2024-06-04 16:18:35.952400
45.99289042,-1.26194191,-0.6921076775,1.163717508,2024-06-04 16:18:35.992890
46.03337021,-2.642304897,-1.46081686,1.041414976,2024-06-04 16:18:36.033370
46.07382126,-2.816592693,-1.166552544,2.061225653,2024-06-04 16:18:36.073821
46.11439443,-3.365670681,-0.3764467239,1.78542304,2024-06-04 16:18:36.114394
46.15486026,-1.725455761,-0.6280779839,0.9346776009,2024-06-04 16:18:36.154860
46.1953485,-0.0300655365,0.4039258957,0.5761041641,2024-06-04 16:18:36.195349
46.23582928,-0.02465581894,0.1256256104,0.3366985321,2024-06-04 16:18:36.235829
46.27634407,-0.5934791565,-0.6678071022,-0.2513382435,2024-06-04 16:18:36.276344
46.31683641,-1.419489384,-0.797068119,0.1801872253,2024-06-04 16:18:36.316836
46.35729459,-2.311656475,-1.659064293,0.05565595627,2024-06-04 16:18:36.357295
46.39779698,-1.811775684,-2.441947937,-0.1935818195,2024-06-04 16:18:36.397797
46.43826334,-0.8314838409,-2.909747601,-0.3340525627,2024-06-04 16:18:36.438263
46.47878313,-0.4043107033,-2.799578905,-1.189185143,2024-06-04 16:18:36.478783
46.51925943,0.4933748245,-1.919865847,-1.597818375,2024-06-04 16:18:36.519259
46.55975261,2.030789375,-0.8290739059,-2.224689007,2024-06-04 16:18:36.559753
46.60022985,3.12901926,-0.3833138943,-2.033209562,2024-06-04 16:18:36.600230
46.64069777,4.394723415,0.9124577045,-2.126001358,2024-06-04 16:18:36.640698
46.68118047,4.318734169,1.864625931,-1.60925889,2024-06-04 16:18:36.681180
46.72170334,4.424670219,2.340996265,-1.453747272,2024-06-04 16:18:36.721703
46.76219902,4.34085989,2.129811525,-1.269729853,2024-06-04 16:18:36.762199
46.80269042,2.236811161,1.634343624,-1.281698942,2024-06-04 16:18:36.802690
46.84316886,0.4163937569,0.8967962265,-0.2605245113,2024-06-04 16:18:36.843169
46.88364902,-1.615803719,-1.383334637,0.8649573326,2024-06-04 16:18:36.883649
46.92416615,-2.702932358,-2.256802082,0.4822974205,2024-06-04 16:18:36.924166
46.96465183,-1.830613613,-0.8487391472,0.82173419,2024-06-04 16:18:36.964652
47.00512792,-1.209500313,-1.122256756,0.9408679008,2024-06-04 16:18:37.005128
47.04560823,-1.896152496,-0.7715907097,1.027217865,2024-06-04 16:18:37.045608
47.08609792,-3.048898697,-0.9175610542,2.124420404,2024-06-04 16:18:37.086098
47.12660308,-3.317303658,-0.8030314445,2.367064953,2024-06-04 16:18:37.126603
47.16711506,-1.139575481,-0.7049303055,1.421690941,2024-06-04 16:18:37.167115
47.20758323,-0.3156147003,-0.1969470978,1.052434206,2024-06-04 16:18:37.207583
47.24807282,-1.345899105,0.03230905533,0.9635903835,2024-06-04 16:18:37.248073
47.28855537,0.03973865509,-0.6085953712,0.1318178177,2024-06-04 16:18:37.288555
47.3290462,-0.8801226616,-1.013158798,-0.113653183,2024-06-04 16:18:37.329046
47.36954464,-2.250561237,-1.713423729,0.4429085255,2024-06-04 16:18:37.369545
47.41005271,-1.236149788,-2.028337955,-0.2335906029,2024-06-04 16:18:37.410053
47.4505299,-0.06341695786,-2.170134068,0.1967375278,2024-06-04 16:18:37.450530
47.49098334,-0.07565498352,-2.771577835,-0.8756554127,2024-06-04 16:18:37.490983
47.53147006,1.074287415,-2.217827082,-1.326362133,2024-06-04 16:18:37.531470
47.57197797,1.713906288,-1.42631793,-2.416643143,2024-06-04 16:18:37.571978
47.61247193,3.533607006,-0.1559975147,-2.65197134,2024-06-04 16:18:37.612472
47.65301876,5.227311134,1.183915257,-1.649833679,2024-06-04 16:18:37.653019
47.693506,4.324149132,2.072288513,-0.7028660774,2024-06-04 16:18:37.693506
47.73395503,3.824707031,1.991913795,-0.2302875519,2024-06-04 16:18:37.733955
47.77444733,2.959035397,2.138908863,-0.2386674881,2024-06-04 16:18:37.774447
47.81494446,1.883752823,1.839430809,0.3694570065,2024-06-04 16:18:37.814944
47.85541894,0.6193881035,0.7841415405,0.7516255379,2024-06-04 16:18:37.855419
47.89590769,-1.412597656,-0.4953503609,1.032042265,2024-06-04 16:18:37.895908
47.93639576,-2.289646149,-0.3675346375,0.9930026531,2024-06-04 16:18:37.936396
47.97688279,-3.40118742,-1.344873905,0.3991804123,2024-06-04 16:18:37.976883
48.01738399,-1.748551369,-0.8560066223,0.4204740524,2024-06-04 16:18:38.017384
48.0578405,-2.83786869,-0.6527943611,1.189133644,2024-06-04 16:18:38.057840
48.09835175,-3.189555645,-1.007175922,1.628614902,2024-06-04 16:18:38.098352
48.13885514,-2.217934608,-0.6273207664,0.9901533127,2024-06-04 16:18:38.138855
48.17936587,-0.9973306656,-0.87266922,0.8154981136,2024-06-04 16:18:38.179366
48.21984774,0.4128804207,0.1361889839,0.507869482,2024-06-04 16:18:38.219848
48.26029222,-0.5170941353,-0.0524597168,-0.4750869274,2024-06-04 16:18:38.260292
48.30076399,-1.595309734,-0.5182027817,0.3862991333,2024-06-04 16:18:38.300764
48.34125384,-1.99220562,-0.4795179367,0.3958058357,2024-06-04 16:18:38.341254
48.38177983,-1.719536781,-2.182580471,-0.2149369717,2024-06-04 16:18:38.381780
48.42227936,-1.19440937,-3.116918087,-0.6493787766,2024-06-04 16:18:38.422279
48.46274878,-1.350084305,-2.648676872,-0.3915240765,2024-06-04 16:18:38.462749
48.50325769,-2.276269913,-2.171233416,-1.986887217,2024-06-04 16:18:38.503258
48.54374253,-0.06018161774,-2.948920012,-2.472165585,2024-06-04 16:18:38.543743
48.58423238,6.771858215,0.3487927914,-1.966562748,2024-06-04 16:18:38.584232
48.62470259,6.800492287,1.165860891,-2.075022697,2024-06-04 16:18:38.624703
48.66519785,2.560423374,0.03212380409,-1.888022184,2024-06-04 16:18:38.665198
48.7056893,3.810210228,2.359557867,-1.088545322,2024-06-04 16:18:38.705689
48.74621332,4.76482296,1.917651176,-1.47089529,2024-06-04 16:18:38.746213
48.78666811,3.161183357,1.796624899,-0.2654969692,2024-06-04 16:18:38.786668
48.82718509,0.7693839073,1.438749075,0.2139494419,2024-06-04 16:18:38.827185
48.86766535,-0.3922362328,0.05939483643,0.4069273472,2024-06-04 16:18:38.867665
48.90813462,-2.413166523,-1.795998096,0.7979748249,2024-06-04 16:18:38.908135
48.94865509,-2.950857639,-2.392758369,0.5836868286,2024-06-04 16:18:38.948655
48.98911425,-0.8982481956,-0.194234848,0.5462741852,2024-06-04 16:18:38.989114
49.02968779,-0.9347786903,0.3918557167,0.7770857811,2024-06-04 16:18:39.029688
49.07007009,-2.3886199,-0.4271821976,1.573264956,2024-06-04 16:18:39.070070
49.11055936,-3.223380566,-1.554589748,1.900798202,2024-06-04 16:18:39.110559
49.15108514,-3.514490128,-1.430977345,1.336429596,2024-06-04 16:18:39.151085
49.19158238,-1.418816566,-0.06057500839,0.7813744545,2024-06-04 16:18:39.191582
49.23205404,-0.007962226868,-0.967754364,0.8034188747,2024-06-04 16:18:39.232054
49.27254285,0.3124089241,-0.8438477516,0.2579517365,2024-06-04 16:18:39.272543
49.31307675,-0.9508934021,-0.7080211639,0.2821416855,2024-06-04 16:18:39.313077
49.35352498,-1.365221977,-1.29325676,-0.02832365036,2024-06-04 16:18:39.353525
49.39403649,-2.236152649,-2.454341888,-0.0460293293,2024-06-04 16:18:39.394036
49.4345055,-1.266559124,-2.355724335,-1.546410322,2024-06-04 16:18:39.434506
49.47501951,0.43460989,-0.88823843,-1.014373064,2024-06-04 16:18:39.475020
49.51551566,0.5546827316,-2.155854225,-0.9871580601,2024-06-04 16:18:39.515516
49.55599139,-0.1752719879,-2.368239403,-2.091731548,2024-06-04 16:18:39.555991
49.59647894,1.932789803,-1.538874626,-2.952887774,2024-06-04 16:18:39.596479
49.63697404,4.862950325,0.5338065624,-2.682337999,2024-06-04 16:18:39.636974
49.67747608,5.696914673,2.58447504,-1.874535799,2024-06-04 16:18:39.677476
49.71795566,4.706549644,2.109728098,-1.001151085,2024-06-04 16:18:39.717956
49.75843649,3.782307625,1.523075342,-0.8492958546,2024-06-04 16:18:39.758436
49.79897217,1.778584957,0.7577681541,-0.3569257259,2024-06-04 16:18:39.798972
49.83941056,0.7318763733,0.5782175064,-0.1614642143,2024-06-04 16:18:39.839411
49.87988842,-0.4738154411,-0.3649201393,0.4877195358,2024-06-04 16:18:39.879888
49.92040404,-2.527179241,-2.034537792,0.815515995,2024-06-04 16:18:39.920404
49.96087149,-2.331822395,-0.9886164665,0.9393060207,2024-06-04 16:18:39.960871
50.00136983,-1.495186329,-1.426134109,0.6577186584,2024-06-04 16:18:40.001370
50.04185056,-1.246124744,-0.7200341225,1.204978466,2024-06-04 16:18:40.041851
50.08233873,-2.54646349,0.5289969444,1.831324339,2024-06-04 16:18:40.082339
50.12285498,-3.108548164,-0.169485569,1.484566927,2024-06-04 16:18:40.122855
50.16334509,-2.486002445,-0.6477122307,0.5548758507,2024-06-04 16:18:40.163345
50.20382644,-1.602678299,-0.3222699165,0.05318593979,2024-06-04 16:18:40.203826
50.24432425,-0.6957969666,-0.7005157471,0.2318048477,2024-06-04 16:18:40.244324
50.28479681,-0.5248904228,-1.404338837,0.01484537125,2024-06-04 16:18:40.284797
50.32530529,-0.9110450745,-0.5873708725,-0.1394982338,2024-06-04 16:18:40.325305
50.36580946,-2.005301476,-1.036696434,0.2284357548,2024-06-04 16:18:40.365809
50.40629253,-1.917868614,-2.223528385,-0.2811977863,2024-06-04 16:18:40.406293
50.4467991,-0.7962522507,-2.526966572,-1.121741772,2024-06-04 16:18:40.446799
50.48725332,0.4954304695,-2.230984926,-0.2893462181,2024-06-04 16:18:40.487253
50.52774863,0.4084424973,-2.032763243,-1.162103176,2024-06-04 16:18:40.527749
50.56824972,-0.1115298271,-1.813698292,-2.157764912,2024-06-04 16:18:40.568250
50.60874108,1.69109726,-0.8055276871,-3.846446037,2024-06-04 16:18:40.608741
50.64922868,3.845057487,0.8423728943,-2.651128769,2024-06-04 16:18:40.649229
50.68970691,4.313871384,2.293311357,-2.818779945,2024-06-04 16:18:40.689707
50.73018519,4.580606461,2.329758167,-1.801220894,2024-06-04 16:18:40.730185
50.77066457,4.723412514,2.637604237,-2.043800592,2024-06-04 16:18:40.770665
50.81116535,2.117678642,2.529489756,-1.278930664,2024-06-04 16:18:40.811165
50.85165503,0.1506652832,0.4585118294,-0.6088883877,2024-06-04 16:18:40.851655
50.89215399,-0.9969382286,-0.9666805267,0.6180202961,2024-06-04 16:18:40.892154
50.93265821,-2.257887363,-2.047205448,0.8703429699,2024-06-04 16:18:40.932658
50.97314222,-3.235189915,-1.73426199,1.39647603,2024-06-04 16:18:40.973142
51.01363248,-2.329668045,-1.529008865,1.915505648,2024-06-04 16:18:41.013632
51.0540704,-3.501615047,-1.782417297,1.950080156,2024-06-04 16:18:41.054070
51.09458389,-1.491298199,0.1364803314,0.5210092068,2024-06-04 16:18:41.094584
51.13510279,0.5584607124,1.198459625,0.05215263367,2024-06-04 16:18:41.135103
51.17562384,-0.06778717041,0.1399140358,0.3316287994,2024-06-04 16:18:41.175624
51.21610144,-1.197469711,-1.334465981,1.446499348,2024-06-04 16:18:41.216101
51.25656915,-1.042985916,-0.2265629768,1.179219723,2024-06-04 16:18:41.256569
51.29705764,-1.204220772,0.4457678795,0.7851583958,2024-06-04 16:18:41.297058
51.33754904,-0.8235259056,-1.194822311,0.4757359028,2024-06-04 16:18:41.337549
51.37803988,-0.9892249107,-1.203857422,0.0637242794,2024-06-04 16:18:41.378040
51.41852306,-1.985420704,-0.9631505013,0.2015004158,2024-06-04 16:18:41.418523
51.45901894,-1.466818333,-2.062338352,0.4765856266,2024-06-04 16:18:41.459019
51.4995205,0.1215715408,-3.867227554,-0.1233980656,2024-06-04 16:18:41.499521
51.539993,-1.501081467,-2.48014307,0.7442808151,2024-06-04 16:18:41.539993
51.58047769,1.789047718,-1.983121634,-1.416097641,2024-06-04 16:18:41.580478
51.62097279,2.672049046,-0.737310648,-1.796818972,2024-06-04 16:18:41.620973
51.66145847,3.727860451,0.9974950552,-2.817397118,2024-06-04 16:18:41.661458
51.70196071,5.137207985,2.327983141,-2.468220234,2024-06-04 16:18:41.701961
51.74246009,4.087913513,2.208265305,-0.7168326378,2024-06-04 16:18:41.742460
51.78293316,2.329266071,2.34577775,-1.04394269,2024-06-04 16:18:41.782933
51.82340108,2.702868462,1.901344299,-0.6287786961,2024-06-04 16:18:41.823401
51.86391644,2.03850317,1.531814098,-0.6528398991,2024-06-04 16:18:41.863916
51.90441113,0.4315104485,0.622979641,0.3963944912,2024-06-04 16:18:41.904411
51.94495196,-1.650936604,-1.133410931,1.477165937,2024-06-04 16:18:41.944952
51.98538748,-2.506215096,-1.271615505,0.4435007572,2024-06-04 16:18:41.985387
52.02587613,-2.639067173,-1.54875803,0.9580235481,2024-06-04 16:18:42.025876
52.06633123,-2.319555283,-1.593667984,0.8157835007,2024-06-04 16:18:42.066331
52.10684753,-2.658239365,-0.6765589714,1.48286128,2024-06-04 16:18:42.106848
52.14735863,-3.019198895,-0.03146743774,1.704752922,2024-06-04 16:18:42.147359
52.18785946,-2.377572536,-0.06321287155,0.8103704453,2024-06-04 16:18:42.187859
52.22833556,-0.442305088,-0.4222474098,0.2247061729,2024-06-04 16:18:42.228336
52.2688205,-0.001281261444,-0.001797199249,0.670599699,2024-06-04 16:18:42.268820
52.30932472,-0.5719723701,-0.7129058838,0.5996508598,2024-06-04 16:18:42.309325
52.34981826,-0.9762420654,-1.325451374,-0.1416170597,2024-06-04 16:18:42.349818
52.39031191,-2.502004623,-1.045855522,-0.3186635971,2024-06-04 16:18:42.390312
52.43076384,-2.014569759,-2.541739941,-0.3290362358,2024-06-04 16:18:42.430764
52.47125404,0.3972434998,-2.02513361,-0.5521705151,2024-06-04 16:18:42.471254
52.51178316,1.262821198,-2.006546021,-0.4400954247,2024-06-04 16:18:42.511783
52.55226972,-0.05357456207,-2.166429043,-0.4007706642,2024-06-04 16:18:42.552270
52.59275524,0.5032243729,-1.343281031,-2.519188404,2024-06-04 16:18:42.592755
52.63320592,0.6492958069,-0.8935747147,-2.61955905,2024-06-04 16:18:42.633206
52.67370738,4.579696178,0.8776290417,-2.469404459,2024-06-04 16:18:42.673707
52.71422238,4.999567032,1.685047388,-1.549411535,2024-06-04 16:18:42.714222
52.75469233,4.631613255,2.338674068,-1.323097706,2024-06-04 16:18:42.754692
52.79521201,4.370202541,2.325686455,-0.9141190052,2024-06-04 16:18:42.795212
52.83565279,2.208890915,1.808149576,-0.2462916374,2024-06-04 16:18:42.835653
52.87615936,0.08403873444,0.4021234512,0.5631453991,2024-06-04 16:18:42.876159
52.9166566,-1.220003605,-0.7905359268,1.008527756,2024-06-04 16:18:42.916657
52.95715509,-1.330471039,-0.8904027939,1.17526865,2024-06-04 16:18:42.957155
52.99768186,-2.300796986,-1.57520771,0.6239385605,2024-06-04 16:18:42.997682
53.03814535,-2.122148514,-1.180433273,0.7436025143,2024-06-04 16:18:43.038145
53.07860545,-2.162105083,-0.5582728386,0.8218710423,2024-06-04 16:18:43.078605
53.11909149,-2.680790424,-0.7814283371,1.358787298,2024-06-04 16:18:43.119091
53.15962571,-3.485881805,-1.235163212,1.588153362,2024-06-04 16:18:43.159626
53.20011571,-1.899633884,-0.1475000381,0.8307890892,2024-06-04 16:18:43.200116
53.24055634,0.3764557838,0.1645956039,0.4849803448,2024-06-04 16:18:43.240556
53.28106665,-0.01776647568,0.3417816162,0.4018211365,2024-06-04 16:18:43.281067
53.32155613,-0.1667895317,0.3379197121,0.1654989719,2024-06-04 16:18:43.321556
53.36204056,-1.434109211,-0.01758813858,0.01658368111,2024-06-04 16:18:43.362041
53.40252842,-2.461474419,-1.402451515,0.2834181786,2024-06-04 16:18:43.402528
53.4430317,-3.330851078,-2.858089924,-0.2398254871,2024-06-04 16:18:43.443032
53.48352852,-2.337613583,-3.832676888,-0.8895895481,2024-06-04 16:18:43.483529
53.52403993,-0.4011659622,-3.235143661,-0.6588032246,2024-06-04 16:18:43.524040
53.56449332,0.3116936684,-2.498180628,-2.217414618,2024-06-04 16:18:43.564493
53.60499009,1.836117744,-1.307448149,-3.372526169,2024-06-04 16:18:43.604990
53.6454955,3.999419689,-0.06694436073,-3.251203537,2024-06-04 16:18:43.645496
53.68598217,6.44689703,1.792830944,-2.151488543,2024-06-04 16:18:43.685982
53.72646451,2.625203133,0.8888546228,-0.8979620934,2024-06-04 16:18:43.726465
53.76696134,3.519529819,1.483486772,-0.5990052223,2024-06-04 16:18:43.766961
53.80745102,3.564876556,2.7018435,-0.9592325687,2024-06-04 16:18:43.807451
53.84793691,3.644735336,2.193292141,-1.433696508,2024-06-04 16:18:43.847937
53.88842227,2.337657928,0.4775929451,-0.7968091965,2024-06-04 16:18:43.888422
53.92892311,-2.243397713,-1.350107193,0.8586068153,2024-06-04 16:18:43.928923
53.96941363,-4.763187408,-1.930176735,0.2201545238,2024-06-04 16:18:43.969414
54.00989269,-2.097205162,-0.3849515915,1.087457657,2024-06-04 16:18:44.009893
54.05037998,-0.1590971947,-2.984928131,0.5777652264,2024-06-04 16:18:44.050380
54.09086722,-0.1029663086,-0.8855681419,1.359538317,2024-06-04 16:18:44.090867
54.13135769,-2.89087534,0.2697143555,1.244580984,2024-06-04 16:18:44.131358
54.17184774,-3.911921978,-0.4614553452,1.48458004,2024-06-04 16:18:44.171848
54.21233946,-0.9692277908,0.113014698,0.7056593895,2024-06-04 16:18:44.212339
54.25284634,-2.353295326,0.5618214607,0.5291242599,2024-06-04 16:18:44.252846
54.29332925,-2.03182745,-1.09442234,0.3056249619,2024-06-04 16:18:44.293329
54.33381196,-0.7223300934,-1.093017578,-0.7241287231,2024-06-04 16:18:44.333812
54.37432332,-0.8803877831,-1.545104027,-0.01376581192,2024-06-04 16:18:44.374323
54.41481191,-0.799946785,-1.043765068,-0.09505867958,2024-06-04 16:18:44.414812
54.455293,0.935646534,-1.244165421,-0.4189610481,2024-06-04 16:18:44.455293
54.49577597,-0.5821852684,-2.287412167,0.1503610611,2024-06-04 16:18:44.495776
54.53627337,-1.03225708,-2.180051565,-0.1895973682,2024-06-04 16:18:44.536273
54.57676873,-0.9062709808,-2.410098076,0.07175683975,2024-06-04 16:18:44.576769
54.61724102,0.4987621307,-3.027804613,-2.060749054,2024-06-04 16:18:44.617241
54.657728,3.745727539,0.03184390068,-1.478734016,2024-06-04 16:18:44.657728
54.69822628,5.527471542,1.254850268,-2.532146454,2024-06-04 16:18:44.698226
54.73871483,5.770473957,2.064360142,-2.425724983,2024-06-04 16:18:44.738715
54.77920472,3.712878704,2.409024715,-1.497727871,2024-06-04 16:18:44.779205
54.81969571,3.697635174,1.735346437,-1.154981852,2024-06-04 16:18:44.819696
54.86018915,1.862313747,1.358965397,0.1392638683,2024-06-04 16:18:44.860189
54.90067514,0.1424193382,0.4478616714,0.6294791698,2024-06-04 16:18:44.900675
54.9411355,-1.081567287,-0.4153065681,0.7066011429,2024-06-04 16:18:44.941136
54.98164832,-2.544866085,-0.5512228012,0.9884924889,2024-06-04 16:18:44.981648
55.02217326,-2.635752201,-1.635773182,0.7494375706,2024-06-04 16:18:45.022173
55.06267014,-1.891335487,-1.232656479,1.060482979,2024-06-04 16:18:45.062670
55.10313399,-3.687551498,-1.834285259,1.184877157,2024-06-04 16:18:45.103134
55.14363681,-2.185444355,-0.02100229263,1.526159048,2024-06-04 16:18:45.143637
55.18413149,-1.419351101,0.1636404991,1.165956974,2024-06-04 16:18:45.184131
55.22459878,-1.40423584,-0.7234067917,0.9476642609,2024-06-04 16:18:45.224599
55.26509238,-0.1286482811,0.174176693,0.5200004578,2024-06-04 16:18:45.265092
55.3056243,-1.357596397,-0.8679585457,0.8042747974,2024-06-04 16:18:45.305624
55.34611503,-0.8840298653,-1.101425648,0.3888068199,2024-06-04 16:18:45.346115
55.38655936,-2.861708641,-1.137593746,0.1951069832,2024-06-04 16:18:45.386559
55.42710014,-3.099010468,-1.463562489,-0.7118299007,2024-06-04 16:18:45.427100
55.46756441,-0.4900889397,-2.02727747,-0.4584941864,2024-06-04 16:18:45.467564
55.5080479,0.4574885368,-2.573822975,-1.055012941,2024-06-04 16:18:45.508048
55.54854904,0.9059495926,-2.199590921,-0.6770627499,2024-06-04 16:18:45.548549
55.58903977,0.8825054169,-2.056631565,-1.705901146,2024-06-04 16:18:45.589040
55.62953686,0.6469774246,-1.725750923,-2.473005772,2024-06-04 16:18:45.629537
55.66999373,3.676805019,-0.4957313538,-2.507824421,2024-06-04 16:18:45.669994
55.71048451,3.807549,1.307403326,-1.587496996,2024-06-04 16:18:45.710485
55.75097207,5.164573669,2.707994699,-2.261403322,2024-06-04 16:18:45.750972
55.79146967,4.093191624,2.508524895,-1.623752594,2024-06-04 16:18:45.791470
55.83197014,3.242842197,1.566178322,-1.604828358,2024-06-04 16:18:45.831970
55.8724342,1.537435055,1.003899813,0.2460222244,2024-06-04 16:18:45.872434
55.91294707,-0.6767988205,0.9828004837,1.076585531,2024-06-04 16:18:45.912947
55.95342717,-1.373373508,-0.7208065987,1.335863829,2024-06-04 16:18:45.953427
55.99393358,-1.743736744,-2.201376438,0.1799240112,2024-06-04 16:18:45.993934
56.0344229,-2.011366367,-1.382572174,1.062560081,2024-06-04 16:18:46.034423
56.07487863,-1.092568398,-0.6358346939,0.6882982254,2024-06-04 16:18:46.074879
56.11542352,-2.90265274,-0.7994074821,1.088586092,2024-06-04 16:18:46.115424
56.15589717,-3.686280727,-0.06372404099,1.276238918,2024-06-04 16:18:46.155897
56.19642915,-2.64522934,-0.1710510254,0.2849709988,2024-06-04 16:18:46.196429
56.23689597,-1.110636711,-0.4383130074,0.8282470703,2024-06-04 16:18:46.236896
56.27736425,0.07568883896,-0.6882343292,0.5384793282,2024-06-04 16:18:46.277364
56.31788529,0.09312486649,-0.7378101349,0.7982308865,2024-06-04 16:18:46.317885
56.35833259,-0.7930970192,-0.01415395737,-0.3193852901,2024-06-04 16:18:46.358333
56.39884644,-1.582083225,0.03399324417,0.06317687035,2024-06-04 16:18:46.398846
56.43932014,-2.811411858,-1.961849689,-0.2662007809,2024-06-04 16:18:46.439320
56.47985743,-2.174526691,-2.116537571,-0.600985527,2024-06-04 16:18:46.479857
56.52032056,-0.4742927551,-2.946736813,-0.0601682663,2024-06-04 16:18:46.520321
56.56078394,0.163189888,-2.804773569,-1.205653667,2024-06-04 16:18:46.560784
56.60130743,0.6689248085,-1.683146,-2.153826475,2024-06-04 16:18:46.601307
56.6418042,1.324303627,-0.92152071,-2.663028955,2024-06-04 16:18:46.641804
56.68226108,4.457468987,0.7766554356,-2.291307926,2024-06-04 16:18:46.682261
56.72276785,3.230826855,0.8871362209,-1.568223953,2024-06-04 16:18:46.722768
56.76325884,3.782454491,1.602114439,-1.105119228,2024-06-04 16:18:46.763259
56.80372587,4.676898956,2.311456203,-1.406143188,2024-06-04 16:18:46.803726
56.84421759,4.458067417,1.975530267,-1.249007225,2024-06-04 16:18:46.844218
56.88472592,2.722322941,1.059302092,-0.628978014,2024-06-04 16:18:46.884726
56.92521363,-0.2262983322,0.07800912857,0.3961863518,2024-06-04 16:18:46.925214
56.96572134,-2.488740444,-0.9609246254,1.245306015,2024-06-04 16:18:46.965721
57.00623983,-2.873216152,-1.758675575,1.095192671,2024-06-04 16:18:47.006240
57.04673108,-1.529708385,-1.19202137,0.9659662247,2024-06-04 16:18:47.046731
57.08716956,-1.233095646,-0.944334507,0.9038151503,2024-06-04 16:18:47.087170
57.12766868,-2.725880146,-0.4515280724,1.48151195,2024-06-04 16:18:47.127669
57.16815493,-2.634138107,-0.4923262596,1.915652633,2024-06-04 16:18:47.168155
57.20866045,-0.9662165642,-0.6270909309,1.811940551,2024-06-04 16:18:47.208660
57.24916233,-0.7003660202,-0.5521330833,1.458168983,2024-06-04 16:18:47.249162
57.28963134,-0.4764151573,-0.519015789,1.323932886,2024-06-04 16:18:47.289631
57.33012931,-1.812531948,-0.3714056015,0.8117640018,2024-06-04 16:18:47.330129
57.37063206,-1.629858017,-1.12467289,0.567435503,2024-06-04 16:18:47.370632
57.4111217,-0.8849272728,-1.354100227,0.3398916721,2024-06-04 16:18:47.411122
57.45160373,-1.167713165,-1.054216862,0.1013326645,2024-06-04 16:18:47.451604
57.49208852,-0.8755865097,-1.707602978,-0.02260899544,2024-06-04 16:18:47.492089
57.53258436,0.6950612068,-1.990986347,0.2530047894,2024-06-04 16:18:47.532584
57.57307753,-0.2406663895,-2.612519503,-0.5239531994,2024-06-04 16:18:47.573078
57.61356769,0.7626962662,-2.401842833,-1.622875452,2024-06-04 16:18:47.613568
57.65404998,1.892912865,-1.597380638,-2.099642277,2024-06-04 16:18:47.654050
57.69455139,4.573928356,0.2467405796,-2.221137047,2024-06-04 16:18:47.694551
57.73503649,4.736234188,1.854445219,-1.042938709,2024-06-04 16:18:47.735036
57.77554316,4.088618755,2.229856968,-0.6309173107,2024-06-04 16:18:47.775543
57.81598274,4.571950912,2.394108295,-0.1677913666,2024-06-04 16:18:47.815983
57.85649597,2.23876524,1.94777894,-0.3356266022,2024-06-04 16:18:47.856496
57.89700587,1.343135834,0.8593859673,-0.2254548073,2024-06-04 16:18:47.897006
57.93750399,-0.04671621323,-0.2487597466,0.9661033154,2024-06-04 16:18:47.937504
57.97800279,-1.096221447,-0.7221207619,1.155415773,2024-06-04 16:18:47.978003
58.01847149,-2.278870583,-2.506633759,0.8581159115,2024-06-04 16:18:48.018471
58.05894592,-1.480890274,-1.332357883,1.120568514,2024-06-04 16:18:48.058946
58.09944743,-1.377938271,-1.050003529,0.6540570259,2024-06-04 16:18:48.099447
58.13994186,-2.450769424,-0.1074852943,1.962107897,2024-06-04 16:18:48.139942
58.18041373,-3.582537174,0.4710893631,1.66549325,2024-06-04 16:18:48.180414
58.22091066,-3.01092577,-0.6719512939,0.929410696,2024-06-04 16:18:48.220911
58.26140884,-1.767604351,-0.6241292953,1.321033001,2024-06-04 16:18:48.261409
58.3018866,-1.363340855,-1.076886177,0.6187741756,2024-06-04 16:18:48.301887
58.34237712,1.523419857,-0.4580483437,-0.7309811115,2024-06-04 16:18:48.342377
58.3828967,0.8886780739,-0.01886987686,-0.7756025791,2024-06-04 16:18:48.382897
58.4233905,-1.612682819,-0.5839071274,0.4014174938,2024-06-04 16:18:48.423390
58.46388134,-2.113787651,-0.9250440598,-0.1579458714,2024-06-04 16:18:48.463881
58.50434717,-1.996594906,-1.430129528,-0.1894762516,2024-06-04 16:18:48.504347
58.54488462,-1.44024992,-2.546114445,-0.3565044403,2024-06-04 16:18:48.544885
58.58537535,0.422328949,-2.727660418,-1.135696888,2024-06-04 16:18:48.585375
58.62580951,1.204641819,-2.434091568,-1.066287518,2024-06-04 16:18:48.625810
58.66633529,1.891953468,-1.619568348,-2.568822861,2024-06-04 16:18:48.666335
58.70684675,3.222569942,-0.1832547188,-2.223277092,2024-06-04 16:18:48.706847
58.74732165,5.197094917,1.425530434,-2.195606947,2024-06-04 16:18:48.747322
58.78782243,5.043713093,2.558517456,-1.441509008,2024-06-04 16:18:48.787822
58.82829852,4.927779198,3.129960299,-1.418536186,2024-06-04 16:18:48.828299
58.86879561,2.630502701,2.008833408,-0.2744266987,2024-06-04 16:18:48.868796
58.90927972,0.3641881943,0.3440475464,0.8518702984,2024-06-04 16:18:48.909280
58.94975988,-1.033752441,-1.024681091,1.539601088,2024-06-04 16:18:48.949760
58.99024852,-1.222943783,0.01823949814,1.551907539,2024-06-04 16:18:48.990249
59.03071415,-2.454895973,-0.1781191826,0.5723927021,2024-06-04 16:18:49.030714
59.07121514,-2.679691792,-1.242447853,-0.448423624,2024-06-04 16:18:49.071215
59.11170587,-1.869884491,-0.4657926559,-0.03740143776,2024-06-04 16:18:49.111706
59.152213,-2.559989929,-0.7342557907,0.9585776329,2024-06-04 16:18:49.152213
59.19269509,-2.728807926,-0.2408218384,1.095991135,2024-06-04 16:18:49.192695
59.23322467,-3.199901581,-1.279224873,1.21495676,2024-06-04 16:18:49.233225
59.27368894,-0.953807354,-0.9876794815,0.5916304588,2024-06-04 16:18:49.273689
59.31418894,0.8177871704,0.6603131294,-0.0161690712,2024-06-04 16:18:49.314189
59.35468535,0.1869974136,-0.3929953575,0.123360157,2024-06-04 16:18:49.354685
59.39520441,-2.034971714,-0.694152832,-0.390857935,2024-06-04 16:18:49.395204
59.43566206,-2.062419891,-0.6405339241,-0.05540299416,2024-06-04 16:18:49.435662
59.47618681,-2.417367935,-2.007939816,0.2176692486,2024-06-04 16:18:49.476187
59.51663477,-0.4588079453,-2.915826797,-1.061606169,2024-06-04 16:18:49.516635
59.55713233,-0.02625703812,-2.085490704,-0.7219851017,2024-06-04 16:18:49.557132
59.59762316,-0.5255527496,-2.74860096,-1.354362965,2024-06-04 16:18:49.597623
59.63809904,0.9914474487,-1.593337774,-2.382177353,2024-06-04 16:18:49.638099
59.67860915,2.376982689,-0.6678817272,-2.630052805,2024-06-04 16:18:49.678609
59.71909785,4.330528259,-0.5421564579,-2.383985519,2024-06-04 16:18:49.719098
59.75957316,3.468020439,1.198504448,-1.132889748,2024-06-04 16:18:49.759573
59.80008118,3.647535324,1.936378956,-1.203648567,2024-06-04 16:18:49.800081
59.84059394,4.528040886,1.989584446,-1.098351002,2024-06-04 16:18:49.840594
59.88101462,3.8963902,2.532373905,-0.5262589455,2024-06-04 16:18:49.881015
59.92154384,1.095126152,1.022056103,0.8845205307,2024-06-04 16:18:49.921544
59.96205321,-1.153632164,-0.6903705597,1.505055666,2024-06-04 16:18:49.962053
60.00253196,-1.966412544,-0.2352080345,1.361065865,2024-06-04 16:18:50.002532
60.04303139,-2.141152859,-0.6589326859,0.4588356018,2024-06-04 16:18:50.043031
60.08350363,-4.26111412,-2.417219639,0.483338356,2024-06-04 16:18:50.083504
60.12399623,-1.83124876,0.2979302406,0.2029690742,2024-06-04 16:18:50.123996
60.16451113,-1.370179653,1.23059988,0.1409878731,2024-06-04 16:18:50.164511
60.20499706,-0.3904614449,-0.2812085152,0.3998382092,2024-06-04 16:18:50.204997
60.24546217,-1.465602398,-1.859601021,1.040917397,2024-06-04 16:18:50.245462
60.28597946,-2.272212505,-0.6679296494,1.066881657,2024-06-04 16:18:50.285979
60.32642858,-1.268404007,-0.151597023,0.6151924133,2024-06-04 16:18:50.326429
60.36695904,-1.503103733,-0.1765913963,0.2483501434,2024-06-04 16:18:50.366959
60.40743238,-0.7765994072,-0.5529789925,-0.1352376938,2024-06-04 16:18:50.407432
60.44793665,-1.381651402,-1.164067745,-0.1033661366,2024-06-04 16:18:50.447937
60.48841087,-1.189706326,-1.418652058,-0.1005864143,2024-06-04 16:18:50.488411
60.52889087,-1.126666069,-1.908848286,-0.1649472713,2024-06-04 16:18:50.528891
60.56943201,-0.3167686462,-1.640545845,-0.4310340881,2024-06-04 16:18:50.569432
60.60987514,-0.3200712204,-2.203371048,-1.432450294,2024-06-04 16:18:50.609875
60.65040399,0.02461719513,-1.697804213,-1.855611801,2024-06-04 16:18:50.650404
60.69088472,0.9198980331,-1.693513393,-2.708777666,2024-06-04 16:18:50.690885
60.73136207,4.800340652,0.6993944645,-2.688766003,2024-06-04 16:18:50.731362
60.7718405,5.497321129,2.424692154,-2.202859402,2024-06-04 16:18:50.771841
60.81234378,5.111502647,2.464849472,-1.131537437,2024-06-04 16:18:50.812344
60.85285941,3.901011467,1.654713392,-0.2467713356,2024-06-04 16:18:50.852859
60.89330988,2.814411163,1.110577822,-0.1218519211,2024-06-04 16:18:50.893310
60.93383128,1.198105812,0.4313383102,0.912293911,2024-06-04 16:18:50.933831
60.97435358,0.3843564987,0.6192326546,1.381073952,2024-06-04 16:18:50.974354
61.01483003,-0.97473526,0.04638719559,0.9013340473,2024-06-04 16:18:51.014830
61.05527592,-3.78528595,-2.492122173,0.7061109543,2024-06-04 16:18:51.055276
61.0957542,-3.11423111,-2.100459576,0.7317210436,2024-06-04 16:18:51.095754
61.13627795,-1.879126072,-0.4535927773,0.8059926033,2024-06-04 16:18:51.136278
61.17678217,-3.266907215,-1.314768314,1.941570878,2024-06-04 16:18:51.176782
61.21725602,-3.149463654,-0.8335580826,1.667461753,2024-06-04 16:18:51.217256
61.25774342,-1.580849648,-0.2834115028,1.202338457,2024-06-04 16:18:51.257743
61.29822816,-0.3373508453,0.1061425209,0.9976141453,2024-06-04 16:18:51.298228
61.33871576,0.1495718956,-0.1673388481,0.8177850246,2024-06-04 16:18:51.338716
61.37924311,-0.399230957,-0.6623601913,0.4448142052,2024-06-04 16:18:51.379243
61.41972509,-1.292298317,-0.8189725876,0.2324867249,2024-06-04 16:18:51.419725
61.46018785,-1.981237888,-1.596691608,0.4087617397,2024-06-04 16:18:51.460188
61.50068352,-0.7709774971,-2.360307217,0.7635369301,2024-06-04 16:18:51.500684
61.54118045,-0.9447388649,-2.420703411,-1.178584099,2024-06-04 16:18:51.541180
61.58166071,-0.7977361679,-2.505100012,-1.459491253,2024-06-04 16:18:51.581661
61.62213811,-1.22539711,-2.449561834,-1.287425041,2024-06-04 16:18:51.622138
61.66263561,1.584663391,-1.54557991,-2.993042946,2024-06-04 16:18:51.662636
61.70312113,4.068862915,0.00220489502,-3.183202267,2024-06-04 16:18:51.703121
61.74365936,5.786842346,2.275538445,-2.035762787,2024-06-04 16:18:51.743659
61.78414613,3.199983597,1.111291528,-0.9346699715,2024-06-04 16:18:51.784146
61.82462326,2.991484642,1.479743004,-0.3871650696,2024-06-04 16:18:51.824623
61.86511967,3.378812313,1.368153334,-0.330573082,2024-06-04 16:18:51.865120
61.90559665,3.765511036,1.42445755,-0.4032008648,2024-06-04 16:18:51.905597
61.94611962,1.564830303,0.4963531494,0.1179106236,2024-06-04 16:18:51.946120
61.98659472,-0.8626508713,0.280503273,1.226988316,2024-06-04 16:18:51.986595
62.02708394,-1.701666355,-0.4545207024,1.080593824,2024-06-04 16:18:52.027084
62.06751821,-3.116870403,-1.867215157,0.1692020893,2024-06-04 16:18:52.067518
62.10804706,-3.016476631,-1.092124939,0.928804636,2024-06-04 16:18:52.108047
62.14855123,-3.458423138,-1.169959068,1.017929792,2024-06-04 16:18:52.148551
62.18903878,-3.314872742,-2.564064503,0.9239723682,2024-06-04 16:18:52.189039
62.22952951,-2.438913822,0.481546402,0.9209840298,2024-06-04 16:18:52.229530
62.27002061,-0.0002183914185,0.5181503296,0.5718057156,2024-06-04 16:18:52.270021
62.31050123,2.71583724,0.8389005661,0.2688698769,2024-06-04 16:18:52.310501
62.35100332,-2.472355843,0.2454843521,0.2742071152,2024-06-04 16:18:52.351003
