Time (s),Acceleration x (m/s^2),Acceleration y (m/s^2),Acceleration z (m/s^2),Datetime
0.00090641,-1.765604019,5.662913799,5.528915882,2024-06-11 14:01:25.000906
0.020918493,-2.723630428,5.368297577,4.436592102,2024-06-11 14:01:25.020918
0.060918493,0.0,0.0,0.0,2024-06-11 14:01:25.060918
0.100918493,0.0,0.0,0.0,2024-06-11 14:01:25.100918
0.140918493,0.0,0.0,0.0,2024-06-11 14:01:25.140918
0.180918493,0.0,0.0,0.0,2024-06-11 14:01:25.180918
0.220918493,0.0,0.0,0.0,2024-06-11 14:01:25.220918
0.260918493,0.0,0.0,0.0,2024-06-11 14:01:25.260918
0.300918493,0.0,0.0,0.0,2024-06-11 14:01:25.300918
0.340918493,0.5054838061,-2.822035313,15.62931919,2024-06-11 14:01:25.340918
0.380918493,0.5054838061,-2.822035313,15.62931919,2024-06-11 14:01:25.380918
0.420918493,0.5054838061,-2.822035313,15.62931919,2024-06-11 14:01:25.420918
0.460918493,0.5054838061,-2.822035313,15.62931919,2024-06-11 14:01:25.460918
0.500918493,0.5054838061,-2.822035313,15.62931919,2024-06-11 14:01:25.500918
0.540918493,0.5054838061,-2.822035313,15.62931919,2024-06-11 14:01:25.540918
0.580918493,0.5054838061,-2.822035313,15.62931919,2024-06-11 14:01:25.580918
0.620918493,0.5054838061,-2.822035313,15.62931919,2024-06-11 14:01:25.620918
0.660918493,0.5054838061,-2.822035313,15.62931919,2024-06-11 14:01:25.660918
0.700918493,0.5054838061,-2.822035313,15.62931919,2024-06-11 14:01:25.700918
0.740918493,0.5054838061,-2.822035313,15.62931919,2024-06-11 14:01:25.740918
0.780918493,0.5054838061,-2.822035313,15.62931919,2024-06-11 14:01:25.780918
0.820918493,-2.542972326,-7.760222912,17.67996788,2024-06-11 14:01:25.820918
0.860918493,-2.542972326,-7.760222912,17.67996788,2024-06-11 14:01:25.860918
0.900918493,-2.542972326,-7.760222912,17.67996788,2024-06-11 14:01:25.900918
0.940918493,-2.542972326,-7.760222912,17.67996788,2024-06-11 14:01:25.940918
0.980918493,-2.542972326,-7.760222912,17.67996788,2024-06-11 14:01:25.980918
1.020918493,-2.542972326,-7.760222912,17.67996788,2024-06-11 14:01:26.020918
1.060918493,-2.542972326,-7.760222912,17.67996788,2024-06-11 14:01:26.060918
1.100918493,-2.542972326,-7.760222912,17.67996788,2024-06-11 14:01:26.100918
1.140918493,-2.542972326,-7.760222912,17.67996788,2024-06-11 14:01:26.140918
1.180918493,-2.542972326,-7.760222912,17.67996788,2024-06-11 14:01:26.180918
1.220918493,-2.542972326,-7.760222912,17.67996788,2024-06-11 14:01:26.220918
1.260918493,-2.542972326,-7.760222912,17.67996788,2024-06-11 14:01:26.260918
1.300918493,-7.366304398,-2.757129908,5.729912758,2024-06-11 14:01:26.300918
1.340918493,-8.380561829,-2.587239504,3.920340776,2024-06-11 14:01:26.340918
1.380918493,-3.463909864,-1.131805062,5.164608479,2024-06-11 14:01:26.380918
1.420918493,-5.117948532,-7.406982422,2.316551447,2024-06-11 14:01:26.420918
1.460918493,-5.117948532,-7.406982422,2.316551447,2024-06-11 14:01:26.460918
1.500918493,-5.117948532,-7.406982422,2.316551447,2024-06-11 14:01:26.500918
1.540918493,-5.117948532,-7.406982422,2.316551447,2024-06-11 14:01:26.540918
1.580918493,-3.77647233,-8.688339233,3.418446302,2024-06-11 14:01:26.580918
1.620918493,-3.77647233,-8.688339233,3.418446302,2024-06-11 14:01:26.620918
1.660918493,-3.77647233,-8.688339233,3.418446302,2024-06-11 14:01:26.660918
1.700918493,-3.77647233,-8.688339233,3.418446302,2024-06-11 14:01:26.700918
1.740918493,-3.77647233,-8.688339233,3.418446302,2024-06-11 14:01:26.740918
1.780918493,-3.77647233,-8.688339233,3.418446302,2024-06-11 14:01:26.780918
1.820918493,-1.372582912,-8.974879265,2.972783089,2024-06-11 14:01:26.820918
1.860918493,-1.372582912,-8.974879265,2.972783089,2024-06-11 14:01:26.860918
1.900918493,-1.372582912,-8.974879265,2.972783089,2024-06-11 14:01:26.900918
1.940918493,-1.372582912,-8.974879265,2.972783089,2024-06-11 14:01:26.940918
1.980918493,-1.372582912,-8.974879265,2.972783089,2024-06-11 14:01:26.980918
2.020918493,-1.372582912,-8.974879265,2.972783089,2024-06-11 14:01:27.020918
2.060918493,-1.372582912,-8.974879265,2.972783089,2024-06-11 14:01:27.060918
2.100918493,-1.372582912,-8.974879265,2.972783089,2024-06-11 14:01:27.100918
2.140918493,-1.372582912,-8.974879265,2.972783089,2024-06-11 14:01:27.140918
2.180918493,-1.372582912,-8.974879265,2.972783089,2024-06-11 14:01:27.180918
2.220918493,-1.372582912,-8.974879265,2.972783089,2024-06-11 14:01:27.220918
2.260918493,-1.372582912,-8.974879265,2.972783089,2024-06-11 14:01:27.260918
2.300918493,-1.372582912,-8.974879265,2.972783089,2024-06-11 14:01:27.300918
2.340918493,-1.372582912,-8.974879265,2.972783089,2024-06-11 14:01:27.340918
2.380918493,-1.372582912,-8.974879265,2.972783089,2024-06-11 14:01:27.380918
2.420918493,-1.372582912,-8.974879265,2.972783089,2024-06-11 14:01:27.420918
2.460918493,-1.372582912,-8.974879265,2.972783089,2024-06-11 14:01:27.460918
2.500918493,-1.372582912,-8.974879265,2.972783089,2024-06-11 14:01:27.500918
2.540918493,-1.372582912,-8.974879265,2.972783089,2024-06-11 14:01:27.540918
2.580918493,4.570590496,-8.100302696,3.371786118,2024-06-11 14:01:27.580918
2.620918493,4.570590496,-8.100302696,3.371786118,2024-06-11 14:01:27.620918
2.660918493,4.570590496,-8.100302696,3.371786118,2024-06-11 14:01:27.660918
2.700918493,4.570590496,-8.100302696,3.371786118,2024-06-11 14:01:27.700918
2.740918493,4.570590496,-8.100302696,3.371786118,2024-06-11 14:01:27.740918
2.780918493,4.570590496,-8.100302696,3.371786118,2024-06-11 14:01:27.780918
2.820918493,5.441278458,-12.606287,3.702294827,2024-06-11 14:01:27.820918
2.860918493,5.441278458,-12.606287,3.702294827,2024-06-11 14:01:27.860918
2.900918493,5.441278458,-12.606287,3.702294827,2024-06-11 14:01:27.900918
2.940918493,5.441278458,-12.606287,3.702294827,2024-06-11 14:01:27.940918
2.980918493,2.848356247,-9.32692337,-1.135394335,2024-06-11 14:01:27.980918
3.020918493,2.190629244,-9.948459625,-2.189432621,2024-06-11 14:01:28.020918
3.060918493,2.346461773,-10.19521904,1.180858016,2024-06-11 14:01:28.060918
3.100918493,0.5473581553,-9.584450722,1.025324464,2024-06-11 14:01:28.100918
3.140918493,0.1004985496,-10.73300552,3.692723513,2024-06-11 14:01:28.140918
3.180918493,0.1004985496,-10.73300552,3.692723513,2024-06-11 14:01:28.180918
3.220918493,0.1004985496,-10.73300552,3.692723513,2024-06-11 14:01:28.220918
3.260918493,0.1004985496,-10.73300552,3.692723513,2024-06-11 14:01:28.260918
3.300918493,0.1004985496,-10.73300552,3.692723513,2024-06-11 14:01:28.300918
3.340918493,1.000199914,-9.7196455,-0.4109672904,2024-06-11 14:01:28.340918
3.380918493,1.000199914,-9.7196455,-0.4109672904,2024-06-11 14:01:28.380918
3.420918493,1.000199914,-9.7196455,-0.4109672904,2024-06-11 14:01:28.420918
3.460918493,1.000199914,-9.7196455,-0.4109672904,2024-06-11 14:01:28.460918
3.500918493,1.000199914,-9.7196455,-0.4109672904,2024-06-11 14:01:28.500918
3.540918493,1.000199914,-9.7196455,-0.4109672904,2024-06-11 14:01:28.540918
3.580918493,1.000199914,-9.7196455,-0.4109672904,2024-06-11 14:01:28.580918
3.620918493,1.000199914,-9.7196455,-0.4109672904,2024-06-11 14:01:28.620918
3.660918493,1.000199914,-9.7196455,-0.4109672904,2024-06-11 14:01:28.660918
3.700918493,1.000199914,-9.7196455,-0.4109672904,2024-06-11 14:01:28.700918
3.740918493,1.000199914,-9.7196455,-0.4109672904,2024-06-11 14:01:28.740918
3.780918493,1.000199914,-9.7196455,-0.4109672904,2024-06-11 14:01:28.780918
3.820918493,1.000199914,-9.7196455,-0.4109672904,2024-06-11 14:01:28.820918
3.860918493,1.000199914,-9.7196455,-0.4109672904,2024-06-11 14:01:28.860918
3.900918493,1.000199914,-9.7196455,-0.4109672904,2024-06-11 14:01:28.900918
3.940918493,1.000199914,-9.7196455,-0.4109672904,2024-06-11 14:01:28.940918
3.980918493,1.000199914,-9.7196455,-0.4109672904,2024-06-11 14:01:28.980918
4.020918493,1.000199914,-9.7196455,-0.4109672904,2024-06-11 14:01:29.020918
4.060918493,1.000199914,-9.7196455,-0.4109672904,2024-06-11 14:01:29.060918
4.100918493,1.000199914,-9.7196455,-0.4109672904,2024-06-11 14:01:29.100918
4.140918493,1.000199914,-9.7196455,-0.4109672904,2024-06-11 14:01:29.140918
4.180918493,1.000199914,-9.7196455,-0.4109672904,2024-06-11 14:01:29.180918
4.220918493,1.000199914,-9.7196455,-0.4109672904,2024-06-11 14:01:29.220918
4.260918493,1.000199914,-9.7196455,-0.4109672904,2024-06-11 14:01:29.260918
4.300918493,1.000199914,-9.7196455,-0.4109672904,2024-06-11 14:01:29.300918
4.340918493,1.000199914,-9.7196455,-0.4109672904,2024-06-11 14:01:29.340918
4.380918493,1.000199914,-9.7196455,-0.4109672904,2024-06-11 14:01:29.380918
4.420918493,1.000199914,-9.7196455,-0.4109672904,2024-06-11 14:01:29.420918
4.460918493,1.000199914,-9.7196455,-0.4109672904,2024-06-11 14:01:29.460918
4.500918493,1.000199914,-9.7196455,-0.4109672904,2024-06-11 14:01:29.500918
4.540918493,1.000199914,-9.7196455,-0.4109672904,2024-06-11 14:01:29.540918
4.580918493,1.000199914,-9.7196455,-0.4109672904,2024-06-11 14:01:29.580918
4.620918493,1.000199914,-9.7196455,-0.4109672904,2024-06-11 14:01:29.620918
4.660918493,6.25094986,-8.496912956,1.00737834,2024-06-11 14:01:29.660918
4.700918493,1.731805444,-10.42522907,2.746362209,2024-06-11 14:01:29.700918
4.740918493,2.29501605,-9.466903687,-0.4010969102,2024-06-11 14:01:29.740918
4.780918493,3.660420418,-9.129216194,-1.432403445,2024-06-11 14:01:29.780918
4.820918493,4.641178608,-9.193822861,-1.384546995,2024-06-11 14:01:29.820918
4.860918493,4.641178608,-9.193822861,-1.384546995,2024-06-11 14:01:29.860918
4.900918493,4.641178608,-9.193822861,-1.384546995,2024-06-11 14:01:29.900918
4.940918493,4.641178608,-9.193822861,-1.384546995,2024-06-11 14:01:29.940918
4.980918493,4.641178608,-9.193822861,-1.384546995,2024-06-11 14:01:29.980918
5.020918493,4.641178608,-9.193822861,-1.384546995,2024-06-11 14:01:30.020918
5.060918493,4.641178608,-9.193822861,-1.384546995,2024-06-11 14:01:30.060918
5.100918493,4.641178608,-9.193822861,-1.384546995,2024-06-11 14:01:30.100918
5.140918493,4.641178608,-9.193822861,-1.384546995,2024-06-11 14:01:30.140918
5.180918493,4.641178608,-9.193822861,-1.384546995,2024-06-11 14:01:30.180918
5.220918493,4.641178608,-9.193822861,-1.384546995,2024-06-11 14:01:30.220918
5.260918493,4.641178608,-9.193822861,-1.384546995,2024-06-11 14:01:30.260918
5.300918493,4.641178608,-9.193822861,-1.384546995,2024-06-11 14:01:30.300918
5.340918493,4.641178608,-9.193822861,-1.384546995,2024-06-11 14:01:30.340918
5.380918493,4.641178608,-9.193822861,-1.384546995,2024-06-11 14:01:30.380918
5.420918493,4.641178608,-9.193822861,-1.384546995,2024-06-11 14:01:30.420918
5.460918493,4.641178608,-9.193822861,-1.384546995,2024-06-11 14:01:30.460918
5.500918493,4.641178608,-9.193822861,-1.384546995,2024-06-11 14:01:30.500918
5.540918493,4.641178608,-9.193822861,-1.384546995,2024-06-11 14:01:30.540918
5.580918493,4.072285175,-8.795118332,4.931009293,2024-06-11 14:01:30.580918
5.620918493,4.072285175,-8.795118332,4.931009293,2024-06-11 14:01:30.620918
5.660918493,4.072285175,-8.795118332,4.931009293,2024-06-11 14:01:30.660918
5.700918493,4.072285175,-8.795118332,4.931009293,2024-06-11 14:01:30.700918
5.740918493,4.072285175,-8.795118332,4.931009293,2024-06-11 14:01:30.740918
5.780918493,4.072285175,-8.795118332,4.931009293,2024-06-11 14:01:30.780918
5.820918493,4.072285175,-8.795118332,4.931009293,2024-06-11 14:01:30.820918
5.860918493,4.072285175,-8.795118332,4.931009293,2024-06-11 14:01:30.860918
5.900918493,4.072285175,-8.795118332,4.931009293,2024-06-11 14:01:30.900918
5.940918493,4.072285175,-8.795118332,4.931009293,2024-06-11 14:01:30.940918
5.980918493,4.072285175,-8.795118332,4.931009293,2024-06-11 14:01:30.980918
6.020918493,4.072285175,-8.795118332,4.931009293,2024-06-11 14:01:31.020918
6.060918493,4.072285175,-8.795118332,4.931009293,2024-06-11 14:01:31.060918
6.100918493,4.072285175,-8.795118332,4.931009293,2024-06-11 14:01:31.100918
6.140918493,4.072285175,-8.795118332,4.931009293,2024-06-11 14:01:31.140918
6.180918493,4.072285175,-8.795118332,4.931009293,2024-06-11 14:01:31.180918
6.220918493,4.072285175,-8.795118332,4.931009293,2024-06-11 14:01:31.220918
6.260918493,4.072285175,-8.795118332,4.931009293,2024-06-11 14:01:31.260918
6.300918493,4.072285175,-8.795118332,4.931009293,2024-06-11 14:01:31.300918
6.340918493,1.346261859,-11.60249805,3.400500059,2024-06-11 14:01:31.340918
6.380918493,1.413260818,-8.865707397,0.5401797295,2024-06-11 14:01:31.380918
6.420918493,2.575275421,-6.792325974,3.259024382,2024-06-11 14:01:31.420918
6.460918493,2.499602318,-9.307781219,4.321437836,2024-06-11 14:01:31.460918
6.500918493,2.77746892,-9.354440689,2.043470621,2024-06-11 14:01:31.500918
6.540918493,2.77746892,-9.354440689,2.043470621,2024-06-11 14:01:31.540918
6.580918493,1.179661512,-9.741181374,1.242174029,2024-06-11 14:01:31.580918
6.620918493,1.179661512,-9.741181374,1.242174029,2024-06-11 14:01:31.620918
6.660918493,1.179661512,-9.741181374,1.242174029,2024-06-11 14:01:31.660918
6.700918493,1.179661512,-9.741181374,1.242174029,2024-06-11 14:01:31.700918
6.740918493,1.179661512,-9.741181374,1.242174029,2024-06-11 14:01:31.740918
6.780918493,1.179661512,-9.741181374,1.242174029,2024-06-11 14:01:31.780918
6.820918493,2.224128723,-9.447761536,7.534998417,2024-06-11 14:01:31.820918
6.860918493,2.224128723,-9.447761536,7.534998417,2024-06-11 14:01:31.860918
6.900918493,2.224128723,-9.447761536,7.534998417,2024-06-11 14:01:31.900918
6.940918493,2.224128723,-9.447761536,7.534998417,2024-06-11 14:01:31.940918
6.980918493,2.224128723,-9.447761536,7.534998417,2024-06-11 14:01:31.980918
7.020918493,2.224128723,-9.447761536,7.534998417,2024-06-11 14:01:32.020918
7.060918493,2.224128723,-9.447761536,7.534998417,2024-06-11 14:01:32.060918
7.100918493,2.224128723,-9.447761536,7.534998417,2024-06-11 14:01:32.100918
7.140918493,2.224128723,-9.447761536,7.534998417,2024-06-11 14:01:32.140918
7.180918493,2.224128723,-9.447761536,7.534998417,2024-06-11 14:01:32.180918
7.220918493,2.224128723,-9.447761536,7.534998417,2024-06-11 14:01:32.220918
7.260918493,2.224128723,-9.447761536,7.534998417,2024-06-11 14:01:32.260918
7.300918493,2.224128723,-9.447761536,7.534998417,2024-06-11 14:01:32.300918
7.340918493,2.224128723,-9.447761536,7.534998417,2024-06-11 14:01:32.340918
7.380918493,2.224128723,-9.447761536,7.534998417,2024-06-11 14:01:32.380918
7.420918493,2.224128723,-9.447761536,7.534998417,2024-06-11 14:01:32.420918
7.460918493,2.224128723,-9.447761536,7.534998417,2024-06-11 14:01:32.460918
7.500918493,2.224128723,-9.447761536,7.534998417,2024-06-11 14:01:32.500918
7.540918493,2.224128723,-9.447761536,7.534998417,2024-06-11 14:01:32.540918
7.580918493,2.224128723,-9.447761536,7.534998417,2024-06-11 14:01:32.580918
7.620918493,2.224128723,-9.447761536,7.534998417,2024-06-11 14:01:32.620918
7.660918493,2.224128723,-9.447761536,7.534998417,2024-06-11 14:01:32.660918
7.700918493,2.224128723,-9.447761536,7.534998417,2024-06-11 14:01:32.700918
7.740918493,2.224128723,-9.447761536,7.534998417,2024-06-11 14:01:32.740918
7.780918493,2.224128723,-9.447761536,7.534998417,2024-06-11 14:01:32.780918
7.820918493,2.224128723,-9.447761536,7.534998417,2024-06-11 14:01:32.820918
7.860918493,2.224128723,-9.447761536,7.534998417,2024-06-11 14:01:32.860918
7.900918493,2.224128723,-9.447761536,7.534998417,2024-06-11 14:01:32.900918
7.940918493,2.224128723,-9.447761536,7.534998417,2024-06-11 14:01:32.940918
7.980918493,2.224128723,-9.447761536,7.534998417,2024-06-11 14:01:32.980918
8.020918493,2.224128723,-9.447761536,7.534998417,2024-06-11 14:01:33.020918
8.060918493,-1.248156071,-11.58215904,5.127519608,2024-06-11 14:01:33.060918
8.100918493,-0.06699903309,-11.78584766,2.240878344,2024-06-11 14:01:33.100918
8.140918493,0.9559326172,-19.44676781,-0.2036890239,2024-06-11 14:01:33.140918
8.180918493,-0.5928218365,-27.5769825,11.08863926,2024-06-11 14:01:33.180918
8.220918493,-0.5928218365,-27.5769825,11.08863926,2024-06-11 14:01:33.220918
8.260918493,-0.5928218365,-27.5769825,11.08863926,2024-06-11 14:01:33.260918
8.300918493,-0.5928218365,-27.5769825,11.08863926,2024-06-11 14:01:33.300918
8.340918493,3.056531906,-0.94277215,-3.508177042,2024-06-11 14:01:33.340918
8.380918493,3.056531906,-0.94277215,-3.508177042,2024-06-11 14:01:33.380918
8.420918493,3.056531906,-0.94277215,-3.508177042,2024-06-11 14:01:33.420918
8.460918493,3.056531906,-0.94277215,-3.508177042,2024-06-11 14:01:33.460918
8.500918493,3.056531906,-0.94277215,-3.508177042,2024-06-11 14:01:33.500918
8.540918493,3.056531906,-0.94277215,-3.508177042,2024-06-11 14:01:33.540918
8.580918493,6.078666687,-2.748754978,-5.957530022,2024-06-11 14:01:33.580918
8.620918493,6.078666687,-2.748754978,-5.957530022,2024-06-11 14:01:33.620918
8.660918493,6.078666687,-2.748754978,-5.957530022,2024-06-11 14:01:33.660918
8.700918493,6.078666687,-2.748754978,-5.957530022,2024-06-11 14:01:33.700918
8.740918493,6.078666687,-2.748754978,-5.957530022,2024-06-11 14:01:33.740918
8.780918493,6.078666687,-2.748754978,-5.957530022,2024-06-11 14:01:33.780918
8.820918493,6.078666687,-2.748754978,-5.957530022,2024-06-11 14:01:33.820918
8.860918493,6.078666687,-2.748754978,-5.957530022,2024-06-11 14:01:33.860918
8.900918493,6.078666687,-2.748754978,-5.957530022,2024-06-11 14:01:33.900918
8.940918493,6.078666687,-2.748754978,-5.957530022,2024-06-11 14:01:33.940918
8.980918493,6.078666687,-2.748754978,-5.957530022,2024-06-11 14:01:33.980918
9.020918493,6.078666687,-2.748754978,-5.957530022,2024-06-11 14:01:34.020918
9.060918493,6.078666687,-2.748754978,-5.957530022,2024-06-11 14:01:34.060918
9.100918493,6.078666687,-2.748754978,-5.957530022,2024-06-11 14:01:34.100918
9.140918493,6.078666687,-2.748754978,-5.957530022,2024-06-11 14:01:34.140918
9.180918493,6.078666687,-2.748754978,-5.957530022,2024-06-11 14:01:34.180918
9.220918493,6.078666687,-2.748754978,-5.957530022,2024-06-11 14:01:34.220918
9.260918493,6.078666687,-2.748754978,-5.957530022,2024-06-11 14:01:34.260918
9.300918493,6.078666687,-2.748754978,-5.957530022,2024-06-11 14:01:34.300918
9.340918493,6.078666687,-2.748754978,-5.957530022,2024-06-11 14:01:34.340918
9.380918493,6.078666687,-2.748754978,-5.957530022,2024-06-11 14:01:34.380918
9.420918493,6.078666687,-2.748754978,-5.957530022,2024-06-11 14:01:34.420918
9.460918493,6.078666687,-2.748754978,-5.957530022,2024-06-11 14:01:34.460918
9.500918493,6.078666687,-2.748754978,-5.957530022,2024-06-11 14:01:34.500918
9.540918493,6.078666687,-2.748754978,-5.957530022,2024-06-11 14:01:34.540918
9.580918493,6.078666687,-2.748754978,-5.957530022,2024-06-11 14:01:34.580918
9.620918493,6.078666687,-2.748754978,-5.957530022,2024-06-11 14:01:34.620918
9.660918493,6.078666687,-2.748754978,-5.957530022,2024-06-11 14:01:34.660918
9.700918493,6.078666687,-2.748754978,-5.957530022,2024-06-11 14:01:34.700918
9.740918493,6.019743443,-3.346661568,-3.151347399,2024-06-11 14:01:34.740918
9.780918493,5.605485916,-2.923730135,3.310470104,2024-06-11 14:01:34.780918
9.820918493,3.407678604,-5.231906891,0.5389832854,2024-06-11 14:01:34.820918
9.860918493,2.362015009,-11.41705418,-0.2838485837,2024-06-11 14:01:34.860918
9.900918493,2.362015009,-11.41705418,-0.2838485837,2024-06-11 14:01:34.900918
9.940918493,2.362015009,-11.41705418,-0.2838485837,2024-06-11 14:01:34.940918
9.980918493,2.362015009,-11.41705418,-0.2838485837,2024-06-11 14:01:34.980918
10.02091849,2.362015009,-11.41705418,-0.2838485837,2024-06-11 14:01:35.020918
10.06091849,2.362015009,-11.41705418,-0.2838485837,2024-06-11 14:01:35.060918
10.10091849,2.362015009,-11.41705418,-0.2838485837,2024-06-11 14:01:35.100918
10.14091849,2.362015009,-11.41705418,-0.2838485837,2024-06-11 14:01:35.140918
10.18091849,2.362015009,-11.41705418,-0.2838485837,2024-06-11 14:01:35.180918
10.22091849,2.362015009,-11.41705418,-0.2838485837,2024-06-11 14:01:35.220918
10.26091849,2.362015009,-11.41705418,-0.2838485837,2024-06-11 14:01:35.260918
10.30091849,2.362015009,-11.41705418,-0.2838485837,2024-06-11 14:01:35.300918
10.34091849,2.362015009,-11.41705418,-0.2838485837,2024-06-11 14:01:35.340918
10.38091849,2.362015009,-11.41705418,-0.2838485837,2024-06-11 14:01:35.380918
10.42091849,2.362015009,-11.41705418,-0.2838485837,2024-06-11 14:01:35.420918
10.46091849,2.362015009,-11.41705418,-0.2838485837,2024-06-11 14:01:35.460918
10.50091849,2.362015009,-11.41705418,-0.2838485837,2024-06-11 14:01:35.500918
10.54091849,2.362015009,-11.41705418,-0.2838485837,2024-06-11 14:01:35.540918
10.58091849,2.362015009,-11.41705418,-0.2838485837,2024-06-11 14:01:35.580918
10.62091849,2.362015009,-11.41705418,-0.2838485837,2024-06-11 14:01:35.620918
10.66091849,2.362015009,-11.41705418,-0.2838485837,2024-06-11 14:01:35.660918
10.70091849,2.362015009,-11.41705418,-0.2838485837,2024-06-11 14:01:35.700918
10.74091849,2.362015009,-11.41705418,-0.2838485837,2024-06-11 14:01:35.740918
10.78091849,2.362015009,-11.41705418,-0.2838485837,2024-06-11 14:01:35.780918
10.82091849,2.362015009,-11.41705418,-0.2838485837,2024-06-11 14:01:35.820918
10.86091849,2.362015009,-11.41705418,-0.2838485837,2024-06-11 14:01:35.860918
10.90091849,2.362015009,-11.41705418,-0.2838485837,2024-06-11 14:01:35.900918
10.94091849,2.362015009,-11.41705418,-0.2838485837,2024-06-11 14:01:35.940918
10.98091849,2.362015009,-11.41705418,-0.2838485837,2024-06-11 14:01:35.980918
11.02091849,2.362015009,-11.41705418,-0.2838485837,2024-06-11 14:01:36.020918
11.06091849,2.362015009,-11.41705418,-0.2838485837,2024-06-11 14:01:36.060918
11.10091849,2.362015009,-11.41705418,-0.2838485837,2024-06-11 14:01:36.100918
11.14091849,2.362015009,-11.41705418,-0.2838485837,2024-06-11 14:01:36.140918
11.18091849,2.362015009,-11.41705418,-0.2838485837,2024-06-11 14:01:36.180918
11.22091849,2.362015009,-11.41705418,-0.2838485837,2024-06-11 14:01:36.220918
11.26091849,2.362015009,-11.41705418,-0.2838485837,2024-06-11 14:01:36.260918
11.30091849,2.362015009,-11.41705418,-0.2838485837,2024-06-11 14:01:36.300918
11.34091849,2.362015009,-11.41705418,-0.2838485837,2024-06-11 14:01:36.340918
11.38091849,2.362015009,-11.41705418,-0.2838485837,2024-06-11 14:01:36.380918
11.42091849,0.6669993401,-3.719044685,-3.14895463,2024-06-11 14:01:36.420918
11.46091849,1.230209947,-3.92392993,-2.862713099,2024-06-11 14:01:36.460918
11.50091849,10.33549786,-8.593822479,13.86281776,2024-06-11 14:01:36.500918
11.54091849,9.631111145,-10.41446114,0.06340979785,2024-06-11 14:01:36.540918
11.58091849,1.105484009,-1.172483087,5.754140377,2024-06-11 14:01:36.580918
11.62091849,1.105484009,-1.172483087,5.754140377,2024-06-11 14:01:36.620918
11.66091849,1.105484009,-1.172483087,5.754140377,2024-06-11 14:01:36.660918
11.70091849,1.105484009,-1.172483087,5.754140377,2024-06-11 14:01:36.700918
11.74091849,1.105484009,-1.172483087,5.754140377,2024-06-11 14:01:36.740918
11.78091849,1.105484009,-1.172483087,5.754140377,2024-06-11 14:01:36.780918
11.82091849,3.658027649,-6.472585201,5.653342724,2024-06-11 14:01:36.820918
11.86091849,3.658027649,-6.472585201,5.653342724,2024-06-11 14:01:36.860918
11.90091849,3.658027649,-6.472585201,5.653342724,2024-06-11 14:01:36.900918
11.94091849,3.658027649,-6.472585201,5.653342724,2024-06-11 14:01:36.940918
11.98091849,3.658027649,-6.472585201,5.653342724,2024-06-11 14:01:36.980918
12.02091849,3.658027649,-6.472585201,5.653342724,2024-06-11 14:01:37.020918
12.06091849,3.658027649,-6.472585201,5.653342724,2024-06-11 14:01:37.060918
12.10091849,3.658027649,-6.472585201,5.653342724,2024-06-11 14:01:37.100918
12.14091849,3.658027649,-6.472585201,5.653342724,2024-06-11 14:01:37.140918
12.18091849,3.658027649,-6.472585201,5.653342724,2024-06-11 14:01:37.180918
12.22091849,3.658027649,-6.472585201,5.653342724,2024-06-11 14:01:37.220918
12.26091849,3.658027649,-6.472585201,5.653342724,2024-06-11 14:01:37.260918
12.30091849,3.658027649,-6.472585201,5.653342724,2024-06-11 14:01:37.300918
12.34091849,3.658027649,-6.472585201,5.653342724,2024-06-11 14:01:37.340918
12.38091849,3.658027649,-6.472585201,5.653342724,2024-06-11 14:01:37.380918
12.42091849,3.658027649,-6.472585201,5.653342724,2024-06-11 14:01:37.420918
12.46091849,3.658027649,-6.472585201,5.653342724,2024-06-11 14:01:37.460918
12.50091849,3.658027649,-6.472585201,5.653342724,2024-06-11 14:01:37.500918
12.54091849,3.658027649,-6.472585201,5.653342724,2024-06-11 14:01:37.540918
12.58091849,2.97039032,-9.751948357,3.505784273,2024-06-11 14:01:37.580918
12.62091849,2.97039032,-9.751948357,3.505784273,2024-06-11 14:01:37.620918
12.66091849,2.97039032,-9.751948357,3.505784273,2024-06-11 14:01:37.660918
12.70091849,2.97039032,-9.751948357,3.505784273,2024-06-11 14:01:37.700918
12.74091849,2.97039032,-9.751948357,3.505784273,2024-06-11 14:01:37.740918
12.78091849,2.97039032,-9.751948357,3.505784273,2024-06-11 14:01:37.780918
12.82091849,4.592125893,-6.641578197,-2.662613392,2024-06-11 14:01:37.820918
12.86091849,4.592125893,-6.641578197,-2.662613392,2024-06-11 14:01:37.860918
12.90091849,4.592125893,-6.641578197,-2.662613392,2024-06-11 14:01:37.900918
12.94091849,4.592125893,-6.641578197,-2.662613392,2024-06-11 14:01:37.940918
12.98091849,4.592125893,-6.641578197,-2.662613392,2024-06-11 14:01:37.980918
13.02091849,4.592125893,-6.641578197,-2.662613392,2024-06-11 14:01:38.020918
13.06091849,4.592125893,-6.641578197,-2.662613392,2024-06-11 14:01:38.060918
13.10091849,8.793922424,-21.29492569,18.80818367,2024-06-11 14:01:38.100918
13.14091849,3.829114437,-6.612864494,-4.643571377,2024-06-11 14:01:38.140918
13.18091849,8.099106789,-13.20389462,-2.306980133,2024-06-11 14:01:38.180918
13.22091849,1.860120535,-5.110770226,-4.807778835,2024-06-11 14:01:38.220918
13.26091849,-0.7438687682,-6.677470684,-2.391925335,2024-06-11 14:01:38.260918
13.30091849,-0.7438687682,-6.677470684,-2.391925335,2024-06-11 14:01:38.300918
13.34091849,-1.160519004,-13.22184086,1.781157374,2024-06-11 14:01:38.340918
13.38091849,-1.160519004,-13.22184086,1.781157374,2024-06-11 14:01:38.380918
13.42091849,-1.160519004,-13.22184086,1.781157374,2024-06-11 14:01:38.420918
13.46091849,-1.160519004,-13.22184086,1.781157374,2024-06-11 14:01:38.460918
13.50091849,-1.160519004,-13.22184086,1.781157374,2024-06-11 14:01:38.500918
13.54091849,-1.160519004,-13.22184086,1.781157374,2024-06-11 14:01:38.540918
13.58091849,-1.160519004,-13.22184086,1.781157374,2024-06-11 14:01:38.580918
13.62091849,-1.160519004,-13.22184086,1.781157374,2024-06-11 14:01:38.620918
13.66091849,-1.160519004,-13.22184086,1.781157374,2024-06-11 14:01:38.660918
13.70091849,-1.160519004,-13.22184086,1.781157374,2024-06-11 14:01:38.700918
13.74091849,-1.160519004,-13.22184086,1.781157374,2024-06-11 14:01:38.740918
13.78091849,-1.160519004,-13.22184086,1.781157374,2024-06-11 14:01:38.780918
13.82091849,3.087937593,-6.128916264,0.5784648657,2024-06-11 14:01:38.820918
13.86091849,3.087937593,-6.128916264,0.5784648657,2024-06-11 14:01:38.860918
13.90091849,3.087937593,-6.128916264,0.5784648657,2024-06-11 14:01:38.900918
13.94091849,3.087937593,-6.128916264,0.5784648657,2024-06-11 14:01:38.940918
13.98091849,3.087937593,-6.128916264,0.5784648657,2024-06-11 14:01:38.980918
14.02091849,3.087937593,-6.128916264,0.5784648657,2024-06-11 14:01:39.020918
14.06091849,3.087937593,-6.128916264,0.5784648657,2024-06-11 14:01:39.060918
14.10091849,3.087937593,-6.128916264,0.5784648657,2024-06-11 14:01:39.100918
14.14091849,3.087937593,-6.128916264,0.5784648657,2024-06-11 14:01:39.140918
14.18091849,3.087937593,-6.128916264,0.5784648657,2024-06-11 14:01:39.180918
14.22091849,3.087937593,-6.128916264,0.5784648657,2024-06-11 14:01:39.220918
14.26091849,3.087937593,-6.128916264,0.5784648657,2024-06-11 14:01:39.260918
14.30091849,3.087937593,-6.128916264,0.5784648657,2024-06-11 14:01:39.300918
14.34091849,3.087937593,-6.128916264,0.5784648657,2024-06-11 14:01:39.340918
14.38091849,3.087937593,-6.128916264,0.5784648657,2024-06-11 14:01:39.380918
14.42091849,3.087937593,-6.128916264,0.5784648657,2024-06-11 14:01:39.420918
14.46091849,3.087937593,-6.128916264,0.5784648657,2024-06-11 14:01:39.460918
14.50091849,3.087937593,-6.128916264,0.5784648657,2024-06-11 14:01:39.500918
14.54091849,3.087937593,-6.128916264,0.5784648657,2024-06-11 14:01:39.540918
14.58091849,3.087937593,-6.128916264,0.5784648657,2024-06-11 14:01:39.580918
14.62091849,3.087937593,-6.128916264,0.5784648657,2024-06-11 14:01:39.620918
14.66091849,3.087937593,-6.128916264,0.5784648657,2024-06-11 14:01:39.660918
14.70091849,3.087937593,-6.128916264,0.5784648657,2024-06-11 14:01:39.700918
14.74091849,3.087937593,-6.128916264,0.5784648657,2024-06-11 14:01:39.740918
14.78091849,3.087937593,-6.128916264,0.5784648657,2024-06-11 14:01:39.780918
14.82091849,9.051449776,-9.43460083,0.3987040818,2024-06-11 14:01:39.820918
14.86091849,4.159922123,-5.691627979,-0.7390831113,2024-06-11 14:01:39.860918
14.90091849,0.2467598319,-7.099205494,0.2838485837,2024-06-11 14:01:39.900918
14.94091849,-0.6900302172,-7.41176796,-2.511566401,2024-06-11 14:01:39.940918
14.98091849,-0.6900302172,-7.41176796,-2.511566401,2024-06-11 14:01:39.980918
15.02091849,-0.6900302172,-7.41176796,-2.511566401,2024-06-11 14:01:40.020918
15.06091849,-0.6900302172,-7.41176796,-2.511566401,2024-06-11 14:01:40.060918
15.10091849,-0.6900302172,-7.41176796,-2.511566401,2024-06-11 14:01:40.100918
15.14091849,-0.6900302172,-7.41176796,-2.511566401,2024-06-11 14:01:40.140918
15.18091849,-0.6900302172,-7.41176796,-2.511566401,2024-06-11 14:01:40.180918
15.22091849,-0.6900302172,-7.41176796,-2.511566401,2024-06-11 14:01:40.220918
15.26091849,-0.6900302172,-7.41176796,-2.511566401,2024-06-11 14:01:40.260918
15.30091849,-0.6900302172,-7.41176796,-2.511566401,2024-06-11 14:01:40.300918
15.34091849,-0.6900302172,-7.41176796,-2.511566401,2024-06-11 14:01:40.340918
15.38091849,-0.6900302172,-7.41176796,-2.511566401,2024-06-11 14:01:40.380918
15.42091849,-0.6900302172,-7.41176796,-2.511566401,2024-06-11 14:01:40.420918
15.46091849,-0.6900302172,-7.41176796,-2.511566401,2024-06-11 14:01:40.460918
15.50091849,-0.6900302172,-7.41176796,-2.511566401,2024-06-11 14:01:40.500918
15.54091849,-0.6900302172,-7.41176796,-2.511566401,2024-06-11 14:01:40.540918
15.58091849,0.07776673883,-10.81555843,0.8718847632,2024-06-11 14:01:40.580918
15.62091849,0.07776673883,-10.81555843,0.8718847632,2024-06-11 14:01:40.620918
15.66091849,0.07776673883,-10.81555843,0.8718847632,2024-06-11 14:01:40.660918
15.70091849,0.07776673883,-10.81555843,0.8718847632,2024-06-11 14:01:40.700918
15.74091849,0.07776673883,-10.81555843,0.8718847632,2024-06-11 14:01:40.740918
15.78091849,0.07776673883,-10.81555843,0.8718847632,2024-06-11 14:01:40.780918
15.82091849,-1.328315616,-9.392725945,-1.309173107,2024-06-11 14:01:40.820918
15.86091849,-1.328315616,-9.392725945,-1.309173107,2024-06-11 14:01:40.860918
15.90091849,-1.328315616,-9.392725945,-1.309173107,2024-06-11 14:01:40.900918
15.94091849,-1.328315616,-9.392725945,-1.309173107,2024-06-11 14:01:40.940918
15.98091849,-1.328315616,-9.392725945,-1.309173107,2024-06-11 14:01:40.980918
16.02091849,-1.328315616,-9.392725945,-1.309173107,2024-06-11 14:01:41.020918
16.06091849,-1.328315616,-9.392725945,-1.309173107,2024-06-11 14:01:41.060918
16.10091849,-1.328315616,-9.392725945,-1.309173107,2024-06-11 14:01:41.100918
16.14091849,-1.328315616,-9.392725945,-1.309173107,2024-06-11 14:01:41.140918
16.18091849,-1.328315616,-9.392725945,-1.309173107,2024-06-11 14:01:41.180918
16.22091849,-1.328315616,-9.392725945,-1.309173107,2024-06-11 14:01:41.220918
16.26091849,-1.328315616,-9.392725945,-1.309173107,2024-06-11 14:01:41.260918
16.30091849,-1.328315616,-9.392725945,-1.309173107,2024-06-11 14:01:41.300918
16.34091849,-1.328315616,-9.392725945,-1.309173107,2024-06-11 14:01:41.340918
16.38091849,-1.328315616,-9.392725945,-1.309173107,2024-06-11 14:01:41.380918
16.42091849,-1.328315616,-9.392725945,-1.309173107,2024-06-11 14:01:41.420918
16.46091849,-1.328315616,-9.392725945,-1.309173107,2024-06-11 14:01:41.460918
16.50091849,4.37288332,-8.890831947,0.7929216027,2024-06-11 14:01:41.500918
16.54091849,4.671088696,-9.223732948,-0.4959124923,2024-06-11 14:01:41.540918
16.58091849,3.521337509,-8.690732002,-0.1833500415,2024-06-11 14:01:41.580918
16.62091849,2.208575249,-9.839586258,0.5413761139,2024-06-11 14:01:41.620918
16.66091849,2.208575249,-9.839586258,0.5413761139,2024-06-11 14:01:41.660918
16.70091849,2.208575249,-9.839586258,0.5413761139,2024-06-11 14:01:41.700918
16.74091849,2.208575249,-9.839586258,0.5413761139,2024-06-11 14:01:41.740918
16.78091849,2.208575249,-9.839586258,0.5413761139,2024-06-11 14:01:41.780918
16.82091849,3.569194078,-8.341080666,1.515254974,2024-06-11 14:01:41.820918
16.86091849,3.569194078,-8.341080666,1.515254974,2024-06-11 14:01:41.860918
16.90091849,3.569194078,-8.341080666,1.515254974,2024-06-11 14:01:41.900918
16.94091849,3.569194078,-8.341080666,1.515254974,2024-06-11 14:01:41.940918
16.98091849,3.569194078,-8.341080666,1.515254974,2024-06-11 14:01:41.980918
17.02091849,3.569194078,-8.341080666,1.515254974,2024-06-11 14:01:42.020918
17.06091849,3.569194078,-8.341080666,1.515254974,2024-06-11 14:01:42.060918
17.10091849,3.569194078,-8.341080666,1.515254974,2024-06-11 14:01:42.100918
17.14091849,3.569194078,-8.341080666,1.515254974,2024-06-11 14:01:42.140918
17.18091849,3.569194078,-8.341080666,1.515254974,2024-06-11 14:01:42.180918
17.22091849,3.569194078,-8.341080666,1.515254974,2024-06-11 14:01:42.220918
17.26091849,3.569194078,-8.341080666,1.515254974,2024-06-11 14:01:42.260918
17.30091849,3.569194078,-8.341080666,1.515254974,2024-06-11 14:01:42.300918
17.34091849,3.569194078,-8.341080666,1.515254974,2024-06-11 14:01:42.340918
17.38091849,3.569194078,-8.341080666,1.515254974,2024-06-11 14:01:42.380918
17.42091849,3.569194078,-8.341080666,1.515254974,2024-06-11 14:01:42.420918
17.46091849,3.569194078,-8.341080666,1.515254974,2024-06-11 14:01:42.460918
17.50091849,3.569194078,-8.341080666,1.515254974,2024-06-11 14:01:42.500918
17.54091849,3.569194078,-8.341080666,1.515254974,2024-06-11 14:01:42.540918
17.58091849,3.320041418,-12.45314598,4.476073742,2024-06-11 14:01:42.580918
17.62091849,3.320041418,-12.45314598,4.476073742,2024-06-11 14:01:42.620918
17.66091849,3.320041418,-12.45314598,4.476073742,2024-06-11 14:01:42.660918
17.70091849,3.320041418,-12.45314598,4.476073742,2024-06-11 14:01:42.700918
17.74091849,3.320041418,-12.45314598,4.476073742,2024-06-11 14:01:42.740918
17.78091849,3.320041418,-12.45314598,4.476073742,2024-06-11 14:01:42.780918
17.82091849,3.320041418,-12.45314598,4.476073742,2024-06-11 14:01:42.820918
17.86091849,3.320041418,-12.45314598,4.476073742,2024-06-11 14:01:42.860918
17.90091849,3.320041418,-12.45314598,4.476073742,2024-06-11 14:01:42.900918
17.94091849,3.320041418,-12.45314598,4.476073742,2024-06-11 14:01:42.940918
17.98091849,3.320041418,-12.45314598,4.476073742,2024-06-11 14:01:42.980918
18.02091849,3.320041418,-12.45314598,4.476073742,2024-06-11 14:01:43.020918
18.06091849,3.320041418,-12.45314598,4.476073742,2024-06-11 14:01:43.060918
18.10091849,3.320041418,-12.45314598,4.476073742,2024-06-11 14:01:43.100918
18.14091849,3.320041418,-12.45314598,4.476073742,2024-06-11 14:01:43.140918
18.18091849,5.781657696,-6.406782627,6.42472887,2024-06-11 14:01:43.180918
18.22091849,4.363312244,-6.565008163,3.131008387,2024-06-11 14:01:43.220918
18.26091849,3.417249918,-8.870492935,3.387339592,2024-06-11 14:01:43.260918
18.30091849,6.267699718,-9.094520569,0.8168498278,2024-06-11 14:01:43.300918
18.34091849,4.236492634,-8.429615021,-1.050449133,2024-06-11 14:01:43.340918
18.38091849,4.236492634,-8.429615021,-1.050449133,2024-06-11 14:01:43.380918
18.42091849,4.236492634,-8.429615021,-1.050449133,2024-06-11 14:01:43.420918
18.46091849,4.236492634,-8.429615021,-1.050449133,2024-06-11 14:01:43.460918
18.50091849,4.236492634,-8.429615021,-1.050449133,2024-06-11 14:01:43.500918
18.54091849,4.236492634,-8.429615021,-1.050449133,2024-06-11 14:01:43.540918
18.58091849,4.759922504,-9.228518486,1.793121457,2024-06-11 14:01:43.580918
18.62091849,4.759922504,-9.228518486,1.793121457,2024-06-11 14:01:43.620918
18.66091849,4.759922504,-9.228518486,1.793121457,2024-06-11 14:01:43.660918
18.70091849,4.759922504,-9.228518486,1.793121457,2024-06-11 14:01:43.700918
18.74091849,4.759922504,-9.228518486,1.793121457,2024-06-11 14:01:43.740918
18.78091849,4.759922504,-9.228518486,1.793121457,2024-06-11 14:01:43.780918
18.82091849,4.759922504,-9.228518486,1.793121457,2024-06-11 14:01:43.820918
18.86091849,4.759922504,-9.228518486,1.793121457,2024-06-11 14:01:43.860918
18.90091849,4.759922504,-9.228518486,1.793121457,2024-06-11 14:01:43.900918
18.94091849,4.759922504,-9.228518486,1.793121457,2024-06-11 14:01:43.940918
18.98091849,4.759922504,-9.228518486,1.793121457,2024-06-11 14:01:43.980918
19.02091849,4.759922504,-9.228518486,1.793121457,2024-06-11 14:01:44.020918
19.06091849,4.759922504,-9.228518486,1.793121457,2024-06-11 14:01:44.060918
19.10091849,4.759922504,-9.228518486,1.793121457,2024-06-11 14:01:44.100918
19.14091849,4.759922504,-9.228518486,1.793121457,2024-06-11 14:01:44.140918
19.18091849,4.759922504,-9.228518486,1.793121457,2024-06-11 14:01:44.180918
19.22091849,4.759922504,-9.228518486,1.793121457,2024-06-11 14:01:44.220918
19.26091849,4.759922504,-9.228518486,1.793121457,2024-06-11 14:01:44.260918
19.30091849,4.759922504,-9.228518486,1.793121457,2024-06-11 14:01:44.300918
19.34091849,4.759922504,-9.228518486,1.793121457,2024-06-11 14:01:44.340918
19.38091849,4.759922504,-9.228518486,1.793121457,2024-06-11 14:01:44.380918
19.42091849,4.759922504,-9.228518486,1.793121457,2024-06-11 14:01:44.420918
19.46091849,4.759922504,-9.228518486,1.793121457,2024-06-11 14:01:44.460918
19.50091849,4.759922504,-9.228518486,1.793121457,2024-06-11 14:01:44.500918
19.54091849,4.759922504,-9.228518486,1.793121457,2024-06-11 14:01:44.540918
19.58091849,4.759922504,-9.228518486,1.793121457,2024-06-11 14:01:44.580918
19.62091849,4.759922504,-9.228518486,1.793121457,2024-06-11 14:01:44.620918
19.66091849,4.759922504,-9.228518486,1.793121457,2024-06-11 14:01:44.660918
19.70091849,4.759922504,-9.228518486,1.793121457,2024-06-11 14:01:44.700918
19.74091849,4.759922504,-9.228518486,1.793121457,2024-06-11 14:01:44.740918
19.78091849,4.759922504,-9.228518486,1.793121457,2024-06-11 14:01:44.780918
19.82091849,5.952744484,-12.76451206,-1.974975944,2024-06-11 14:01:44.820918
19.86091849,4.966004372,-13.89512062,0.3173480928,2024-06-11 14:01:44.860918
19.90091849,5.37188673,-8.009375572,1.63489604,2024-06-11 14:01:44.900918
19.94091849,4.697709084,-6.594918251,0.9305089116,2024-06-11 14:01:44.940918
19.98091849,9.747162819,-12.79801178,0.4911268353,2024-06-11 14:01:44.980918
20.02091849,9.747162819,-12.79801178,0.4911268353,2024-06-11 14:01:45.020918
20.06091849,9.747162819,-12.79801178,0.4911268353,2024-06-11 14:01:45.060918
20.10091849,9.747162819,-12.79801178,0.4911268353,2024-06-11 14:01:45.100918
20.14091849,9.747162819,-12.79801178,0.4911268353,2024-06-11 14:01:45.140918
20.18091849,9.747162819,-12.79801178,0.4911268353,2024-06-11 14:01:45.180918
20.22091849,9.747162819,-12.79801178,0.4911268353,2024-06-11 14:01:45.220918
20.26091849,9.747162819,-12.79801178,0.4911268353,2024-06-11 14:01:45.260918
20.30091849,9.747162819,-12.79801178,0.4911268353,2024-06-11 14:01:45.300918
20.34091849,9.747162819,-12.79801178,0.4911268353,2024-06-11 14:01:45.340918
20.38091849,4.201796532,-9.417850494,15.22822285,2024-06-11 14:01:45.380918
20.42091849,1.612164259,-8.799904823,-2.967997313,2024-06-11 14:01:45.420918
20.46091849,1.829013824,-9.558130264,-1.840977907,2024-06-11 14:01:45.460918
20.50091849,3.735794306,-9.432208061,-2.948854923,2024-06-11 14:01:45.500918
20.54091849,4.413561344,-8.678768158,0.5401797295,2024-06-11 14:01:45.540918
20.58091849,3.064906597,-9.48843956,1.122233868,2024-06-11 14:01:45.580918
20.62091849,2.982354403,-8.865707397,-0.6550351977,2024-06-11 14:01:45.620918
20.66091849,1.85294199,-10.17368412,0.5449653864,2024-06-11 14:01:45.660918
20.70091849,0.7366902828,-9.689735413,1.100698471,2024-06-11 14:01:45.700918
20.74091849,2.234896421,-9.480064392,-0.1606182158,2024-06-11 14:01:45.740918
20.78091849,2.234896421,-9.480064392,-0.1606182158,2024-06-11 14:01:45.780918
20.82091849,2.234896421,-9.480064392,-0.1606182158,2024-06-11 14:01:45.820918
20.86091849,2.234896421,-9.480064392,-0.1606182158,2024-06-11 14:01:45.860918
20.90091849,2.234896421,-9.480064392,-0.1606182158,2024-06-11 14:01:45.900918
20.94091849,2.234896421,-9.480064392,-0.1606182158,2024-06-11 14:01:45.940918
20.98091849,2.234896421,-9.480064392,-0.1606182158,2024-06-11 14:01:45.980918
21.02091849,2.234896421,-9.480064392,-0.1606182158,2024-06-11 14:01:46.020918
21.06091849,2.234896421,-9.480064392,-0.1606182158,2024-06-11 14:01:46.060918
21.10091849,2.234896421,-9.480064392,-0.1606182158,2024-06-11 14:01:46.100918
21.14091849,2.234896421,-9.480064392,-0.1606182158,2024-06-11 14:01:46.140918
21.18091849,2.234896421,-9.480064392,-0.1606182158,2024-06-11 14:01:46.180918
21.22091849,2.234896421,-9.480064392,-0.1606182158,2024-06-11 14:01:46.220918
21.26091849,2.234896421,-9.480064392,-0.1606182158,2024-06-11 14:01:46.260918
21.30091849,2.234896421,-9.480064392,-0.1606182158,2024-06-11 14:01:46.300918
21.34091849,2.234896421,-9.480064392,-0.1606182158,2024-06-11 14:01:46.340918
21.38091849,2.234896421,-9.480064392,-0.1606182158,2024-06-11 14:01:46.380918
21.42091849,2.234896421,-9.480064392,-0.1606182158,2024-06-11 14:01:46.420918
21.46091849,2.234896421,-9.480064392,-0.1606182158,2024-06-11 14:01:46.460918
21.50091849,2.234896421,-9.480064392,-0.1606182158,2024-06-11 14:01:46.500918
21.54091849,3.24466753,-6.579364777,2.200200319,2024-06-11 14:01:46.540918
21.58091849,3.729812384,-5.507380486,0.1280160099,2024-06-11 14:01:46.580918
21.62091849,4.867599487,-5.976672649,-0.8527421951,2024-06-11 14:01:46.620918
21.66091849,7.296613693,-6.024828434,4.16710043,2024-06-11 14:01:46.660918
21.70091849,2.481656075,-6.091827393,2.360818624,2024-06-11 14:01:46.700918
21.74091849,4.406383038,-8.396115303,1.220638633,2024-06-11 14:01:46.740918
21.78091849,5.268995285,-11.32941723,-2.170290232,2024-06-11 14:01:46.780918
21.82091849,9.008378983,-12.72383404,-4.338187218,2024-06-11 14:01:46.820918
21.86091849,2.261217356,-11.26002502,-4.600500584,2024-06-11 14:01:46.860918
21.90091849,0.7414759398,-13.04596806,0.8730811477,2024-06-11 14:01:46.900918
21.94091849,0.8395816684,-11.51157093,4.280759811,2024-06-11 14:01:46.940918
21.98091849,2.833999395,-6.879963398,-1.886441588,2024-06-11 14:01:46.980918
22.02091849,5.704788208,-7.299006462,-0.7235297561,2024-06-11 14:01:47.020918
22.06091849,2.521137714,-10.24187946,2.724826813,2024-06-11 14:01:47.060918
22.10091849,0.375972271,-10.0899353,0.7486543655,2024-06-11 14:01:47.100918
22.14091849,1.462313771,-9.559326172,0.8407780528,2024-06-11 14:01:47.140918
22.18091849,3.851846218,-9.235996246,0.3269194067,2024-06-11 14:01:47.180918
22.22091849,5.831906796,-8.997611046,0.5832505226,2024-06-11 14:01:47.220918
22.26091849,2.513959408,-9.0418787,0.3388835192,2024-06-11 14:01:47.260918
22.30091849,0.8910273314,-9.946066856,-1.60378933,2024-06-11 14:01:47.300918
22.34091849,1.636092424,-9.114859581,-0.861117065,2024-06-11 14:01:47.340918
22.38091849,6.246164322,-9.411869049,4.686941147,2024-06-11 14:01:47.380918
22.42091849,2.984747171,-9.657432556,5.369493961,2024-06-11 14:01:47.420918
22.46091849,2.984747171,-9.657432556,5.369493961,2024-06-11 14:01:47.460918
22.50091849,2.984747171,-9.657432556,5.369493961,2024-06-11 14:01:47.500918
22.54091849,2.984747171,-9.657432556,5.369493961,2024-06-11 14:01:47.540918
22.58091849,3.428017616,-7.907680511,3.029014349,2024-06-11 14:01:47.580918
22.62091849,3.428017616,-7.907680511,3.029014349,2024-06-11 14:01:47.620918
22.66091849,3.428017616,-7.907680511,3.029014349,2024-06-11 14:01:47.660918
22.70091849,3.428017616,-7.907680511,3.029014349,2024-06-11 14:01:47.700918
22.74091849,3.428017616,-7.907680511,3.029014349,2024-06-11 14:01:47.740918
22.78091849,3.428017616,-7.907680511,3.029014349,2024-06-11 14:01:47.780918
22.82091849,6.76361227,-8.927920341,2.867498875,2024-06-11 14:01:47.820918
22.86091849,6.76361227,-8.927920341,2.867498875,2024-06-11 14:01:47.860918
22.90091849,6.76361227,-8.927920341,2.867498875,2024-06-11 14:01:47.900918
22.94091849,6.76361227,-8.927920341,2.867498875,2024-06-11 14:01:47.940918
22.98091849,6.76361227,-8.927920341,2.867498875,2024-06-11 14:01:47.980918
23.02091849,6.76361227,-8.927920341,2.867498875,2024-06-11 14:01:48.020918
23.06091849,6.76361227,-8.927920341,2.867498875,2024-06-11 14:01:48.060918
23.10091849,6.76361227,-8.927920341,2.867498875,2024-06-11 14:01:48.100918
23.14091849,6.76361227,-8.927920341,2.867498875,2024-06-11 14:01:48.140918
23.18091849,6.76361227,-8.927920341,2.867498875,2024-06-11 14:01:48.180918
23.22091849,0.6035895348,-11.45653534,1.725823283,2024-06-11 14:01:48.220918
23.26091849,0.3173480928,-9.887442589,-0.4695914388,2024-06-11 14:01:48.260918
23.30091849,4.108177185,-7.196115017,-2.170290232,2024-06-11 14:01:48.300918
23.34091849,6.633203506,-7.820043564,0.06939185411,2024-06-11 14:01:48.340918
23.38091849,5.68564558,-9.191430092,1.658824325,2024-06-11 14:01:48.380918
23.42091849,0.3664009571,-10.6612215,1.166501045,2024-06-11 14:01:48.420918
23.46091849,0.5437689424,-10.07916737,1.455135226,2024-06-11 14:01:48.460918
23.50091849,2.67338109,-9.662218094,-1.052842021,2024-06-11 14:01:48.500918
23.54091849,1.967797518,-9.810872078,0.5796613097,2024-06-11 14:01:48.540918
23.58091849,3.40648222,-9.25753212,-0.8216354847,2024-06-11 14:01:48.580918
23.62091849,2.641077995,-8.516056061,-0.3113660514,2024-06-11 14:01:48.620918
23.66091849,2.336890459,-8.839385986,-0.176171571,2024-06-11 14:01:48.660918
23.70091849,2.338086843,-10.73180962,-1.767996788,2024-06-11 14:01:48.700918
23.74091849,2.582453728,-10.39053345,-1.834995866,2024-06-11 14:01:48.740918
23.78091849,1.608574986,-9.172286987,-1.734198213,2024-06-11 14:01:48.780918
23.82091849,3.958626032,-9.027522087,-2.175075769,2024-06-11 14:01:48.820918
23.86091849,6.521637917,-8.61296463,-1.820638895,2024-06-11 14:01:48.860918
23.90091849,6.913462639,-8.335098267,-0.752243638,2024-06-11 14:01:48.900918
23.94091849,4.590929508,-8.044071198,-1.026520967,2024-06-11 14:01:48.940918
23.98091849,2.93090868,-9.086145401,-0.4983053207,2024-06-11 14:01:48.980918
24.02091849,3.272184849,-9.017950058,0.5246263742,2024-06-11 14:01:49.020918
24.06091849,5.680860043,-8.809475899,3.974179268,2024-06-11 14:01:49.060918
24.10091849,6.367300987,-8.833403587,2.771486759,2024-06-11 14:01:49.100918
24.14091849,6.367300987,-8.833403587,2.771486759,2024-06-11 14:01:49.140918
24.18091849,6.367300987,-8.833403587,2.771486759,2024-06-11 14:01:49.180918
24.22091849,6.367300987,-8.833403587,2.771486759,2024-06-11 14:01:49.220918
24.26091849,6.367300987,-8.833403587,2.771486759,2024-06-11 14:01:49.260918
24.30091849,6.367300987,-8.833403587,2.771486759,2024-06-11 14:01:49.300918
24.34091849,6.367300987,-8.833403587,2.771486759,2024-06-11 14:01:49.340918
24.38091849,6.367300987,-8.833403587,2.771486759,2024-06-11 14:01:49.380918
24.42091849,6.367300987,-8.833403587,2.771486759,2024-06-11 14:01:49.420918
24.46091849,6.367300987,-8.833403587,2.771486759,2024-06-11 14:01:49.460918
24.50091849,6.367300987,-8.833403587,2.771486759,2024-06-11 14:01:49.500918
24.54091849,6.367300987,-8.833403587,2.771486759,2024-06-11 14:01:49.540918
24.58091849,6.367300987,-8.833403587,2.771486759,2024-06-11 14:01:49.580918
24.62091849,6.367300987,-8.833403587,2.771486759,2024-06-11 14:01:49.620918
24.66091849,6.367300987,-8.833403587,2.771486759,2024-06-11 14:01:49.660918
24.70091849,6.367300987,-8.833403587,2.771486759,2024-06-11 14:01:49.700918
24.74091849,6.367300987,-8.833403587,2.771486759,2024-06-11 14:01:49.740918
24.78091849,6.367300987,-8.833403587,2.771486759,2024-06-11 14:01:49.780918
24.82091849,6.367300987,-8.833403587,2.771486759,2024-06-11 14:01:49.820918
24.86091849,6.367300987,-8.833403587,2.771486759,2024-06-11 14:01:49.860918
24.90091849,6.367300987,-8.833403587,2.771486759,2024-06-11 14:01:49.900918
24.94091849,6.289534092,-9.323334694,0.8527421951,2024-06-11 14:01:49.940918
24.98091849,3.913162231,-9.472886086,-0.06939185411,2024-06-11 14:01:49.980918
25.02091849,4.204189301,-10.87328529,-1.088734269,2024-06-11 14:01:50.020918
25.06091849,3.831507206,-7.241578579,-1.31276238,2024-06-11 14:01:50.060918
25.10091849,3.281756163,-5.864210129,-0.7187440991,2024-06-11 14:01:50.100918
25.14091849,0.6514459848,-5.720341682,-0.375972271,2024-06-11 14:01:50.140918
25.18091849,-3.119044304,-11.01206875,-0.1677966863,2024-06-11 14:01:50.180918
25.22091849,0.04546362907,-12.11994553,9.234800339,2024-06-11 14:01:50.220918
25.26091849,5.561218739,-7.708777428,5.243870735,2024-06-11 14:01:50.260918
25.30091849,5.75025177,-8.725727081,2.636292458,2024-06-11 14:01:50.300918
25.34091849,5.537290573,-8.571090698,5.497808933,2024-06-11 14:01:50.340918
25.38091849,4.110570431,-7.598408222,3.523730516,2024-06-11 14:01:50.380918
25.42091849,2.979961395,-7.229614735,3.814757586,2024-06-11 14:01:50.420918
25.46091849,3.201596737,-8.520841599,3.400500059,2024-06-11 14:01:50.460918
25.50091849,4.825725079,-8.066802979,4.679463863,2024-06-11 14:01:50.500918
25.54091849,4.745565414,-7.267899513,5.479563713,2024-06-11 14:01:50.540918
25.58091849,4.298706055,-8.520841599,3.965804338,2024-06-11 14:01:50.580918
25.62091849,5.776872158,-7.72552681,5.381458282,2024-06-11 14:01:50.620918
25.66091849,5.050949574,-6.853642464,3.605086327,2024-06-11 14:01:50.660918
25.70091849,2.991925716,-6.771986961,2.906980515,2024-06-11 14:01:50.700918
25.74091849,3.602693558,-6.734898567,2.705684185,2024-06-11 14:01:50.740918
25.78091849,1.945065737,-7.912466049,3.278167009,2024-06-11 14:01:50.780918
25.82091849,1.945065737,-7.912466049,3.278167009,2024-06-11 14:01:50.820918
25.86091849,1.945065737,-7.912466049,3.278167009,2024-06-11 14:01:50.860918
25.90091849,1.945065737,-7.912466049,3.278167009,2024-06-11 14:01:50.900918
25.94091849,1.945065737,-7.912466049,3.278167009,2024-06-11 14:01:50.940918
25.98091849,1.945065737,-7.912466049,3.278167009,2024-06-11 14:01:50.980918
26.02091849,1.945065737,-7.912466049,3.278167009,2024-06-11 14:01:51.020918
26.06091849,1.945065737,-7.912466049,3.278167009,2024-06-11 14:01:51.060918
26.10091849,1.945065737,-7.912466049,3.278167009,2024-06-11 14:01:51.100918
26.14091849,1.945065737,-7.912466049,3.278167009,2024-06-11 14:01:51.140918
26.18091849,1.945065737,-7.912466049,3.278167009,2024-06-11 14:01:51.180918
26.22091849,1.945065737,-7.912466049,3.278167009,2024-06-11 14:01:51.220918
26.26091849,1.945065737,-7.912466049,3.278167009,2024-06-11 14:01:51.260918
26.30091849,1.945065737,-7.912466049,3.278167009,2024-06-11 14:01:51.300918
26.34091849,1.945065737,-7.912466049,3.278167009,2024-06-11 14:01:51.340918
26.38091849,1.945065737,-7.912466049,3.278167009,2024-06-11 14:01:51.380918
26.42091849,1.945065737,-7.912466049,3.278167009,2024-06-11 14:01:51.420918
26.46091849,1.945065737,-7.912466049,3.278167009,2024-06-11 14:01:51.460918
26.50091849,1.945065737,-7.912466049,3.278167009,2024-06-11 14:01:51.500918
26.54091849,1.945065737,-7.912466049,3.278167009,2024-06-11 14:01:51.540918
26.58091849,1.945065737,-7.912466049,3.278167009,2024-06-11 14:01:51.580918
26.62091849,9.808479309,-5.983851433,-1.515254974,2024-06-11 14:01:51.620918
26.66091849,3.857828379,-11.49123192,1.621735573,2024-06-11 14:01:51.660918
26.70091849,1.131805062,-9.336494446,3.103491068,2024-06-11 14:01:51.700918
26.74091849,3.915555239,-6.400800705,3.492623806,2024-06-11 14:01:51.740918
26.78091849,5.884549141,-6.629614353,5.192125797,2024-06-11 14:01:51.780918
26.82091849,1.484148264,-6.923034191,6.982854843,2024-06-11 14:01:51.820918
26.86091849,-0.4301098585,-7.682456017,5.167001247,2024-06-11 14:01:51.860918
26.90091849,3.139383316,-8.508877754,3.169293642,2024-06-11 14:01:51.900918
26.94091849,4.941776752,-8.213064194,1.365404367,2024-06-11 14:01:51.940918
26.98091849,6.277271271,-6.203093529,1.82781744,2024-06-11 14:01:51.980918
27.02091849,7.397411346,-10.27418232,3.413660526,2024-06-11 14:01:52.020918
27.06091849,5.243870735,-10.04686451,10.09591675,2024-06-11 14:01:52.060918
27.10091849,6.342176437,-11.64706421,11.65783215,2024-06-11 14:01:52.100918
27.14091849,4.122534275,-9.391530037,5.021039009,2024-06-11 14:01:52.140918
27.18091849,1.84456718,-5.916851997,2.693720102,2024-06-11 14:01:52.180918
27.22091849,0.4205385745,-6.040381432,1.486541033,2024-06-11 14:01:52.220918
27.26091849,1.407278776,-6.93978405,0.2204387933,2024-06-11 14:01:52.260918
27.30091849,2.718844652,-6.657131672,0.3580260873,2024-06-11 14:01:52.300918
27.34091849,3.380161047,-6.670292377,1.419242978,2024-06-11 14:01:52.340918
27.38091849,2.676970243,-7.854739666,-0.4803591371,2024-06-11 14:01:52.380918
27.42091849,3.374179125,-10.74377346,-0.8024929166,2024-06-11 14:01:52.420918
27.46091849,5.049753189,-11.63599777,2.296212435,2024-06-11 14:01:52.460918
27.50091849,5.405386448,-10.04088211,4.486841679,2024-06-11 14:01:52.500918
27.54091849,5.405386448,-10.04088211,4.486841679,2024-06-11 14:01:52.540918
27.58091849,5.405386448,-10.04088211,4.486841679,2024-06-11 14:01:52.580918
27.62091849,5.405386448,-10.04088211,4.486841679,2024-06-11 14:01:52.620918
27.66091849,5.405386448,-10.04088211,4.486841679,2024-06-11 14:01:52.660918
27.70091849,5.405386448,-10.04088211,4.486841679,2024-06-11 14:01:52.700918
27.74091849,5.405386448,-10.04088211,4.486841679,2024-06-11 14:01:52.740918
27.78091849,5.405386448,-10.04088211,4.486841679,2024-06-11 14:01:52.780918
27.82091849,5.405386448,-10.04088211,4.486841679,2024-06-11 14:01:52.820918
27.86091849,5.405386448,-10.04088211,4.486841679,2024-06-11 14:01:52.860918
27.90091849,5.405386448,-10.04088211,4.486841679,2024-06-11 14:01:52.900918
27.94091849,5.405386448,-10.04088211,4.486841679,2024-06-11 14:01:52.940918
27.98091849,5.405386448,-10.04088211,4.486841679,2024-06-11 14:01:52.980918
28.02091849,5.405386448,-10.04088211,4.486841679,2024-06-11 14:01:53.020918
28.06091849,5.405386448,-10.04088211,4.486841679,2024-06-11 14:01:53.060918
28.10091849,5.405386448,-10.04088211,4.486841679,2024-06-11 14:01:53.100918
28.14091849,5.405386448,-10.04088211,4.486841679,2024-06-11 14:01:53.140918
28.18091849,5.405386448,-10.04088211,4.486841679,2024-06-11 14:01:53.180918
28.22091849,5.405386448,-10.04088211,4.486841679,2024-06-11 14:01:53.220918
28.26091849,5.405386448,-10.04088211,4.486841679,2024-06-11 14:01:53.260918
28.30091849,13.37049484,-12.39661598,11.83011532,2024-06-11 14:01:53.300918
28.34091849,2.722434044,-18.43580055,6.73848772,2024-06-11 14:01:53.340918
28.38091849,1.364207983,-10.4790678,1.373779297,2024-06-11 14:01:53.380918
28.42091849,3.262613773,-5.357530117,-2.059023857,2024-06-11 14:01:53.420918
28.46091849,6.138487339,-6.510870457,-0.05024927482,2024-06-11 14:01:53.460918
28.50091849,3.61615324,-11.9847517,10.02383327,2024-06-11 14:01:53.500918
28.54091849,-1.826620936,-7.662117004,3.86620307,2024-06-11 14:01:53.540918
28.58091849,-0.8407780528,-8.606983185,1.686341763,2024-06-11 14:01:53.580918
28.62091849,-1.226620674,-11.03001499,2.246860504,2024-06-11 14:01:53.620918
28.66091849,0.0466600433,-10.67916775,2.084148407,2024-06-11 14:01:53.660918
28.70091849,4.28315258,-8.33150959,2.261217356,2024-06-11 14:01:53.700918
28.74091849,4.063910007,-8.134998322,1.880459547,2024-06-11 14:01:53.740918
28.78091849,2.284248352,-8.844171524,0.7295117974,2024-06-11 14:01:53.780918
28.82091849,2.645863533,-9.911370277,1.994118571,2024-06-11 14:01:53.820918
28.86091849,0.4863412082,-11.59651566,2.984747171,2024-06-11 14:01:53.860918
28.90091849,6.761219501,-10.89482021,5.05812788,2024-06-11 14:01:53.900918
28.94091849,10.40249729,-9.501898766,7.634599686,2024-06-11 14:01:53.940918
28.98091849,7.726723194,-7.556533813,2.952444077,2024-06-11 14:01:53.980918
29.02091849,4.485645294,-5.283352375,-2.411067963,2024-06-11 14:01:54.020918
29.06091849,1.284048438,-5.883352757,-0.5246263742,2024-06-11 14:01:54.060918
29.10091849,2.407478571,-9.432208061,2.822035313,2024-06-11 14:01:54.100918
29.14091849,2.710469961,-8.864510536,2.123630047,2024-06-11 14:01:54.140918
29.18091849,3.692723513,-6.726523399,2.897409201,2024-06-11 14:01:54.180918
29.22091849,3.692723513,-6.726523399,2.897409201,2024-06-11 14:01:54.220918
29.26091849,3.692723513,-6.726523399,2.897409201,2024-06-11 14:01:54.260918
29.30091849,3.692723513,-6.726523399,2.897409201,2024-06-11 14:01:54.300918
29.34091849,3.692723513,-6.726523399,2.897409201,2024-06-11 14:01:54.340918
29.38091849,3.692723513,-6.726523399,2.897409201,2024-06-11 14:01:54.380918
29.42091849,3.692723513,-6.726523399,2.897409201,2024-06-11 14:01:54.420918
29.46091849,3.692723513,-6.726523399,2.897409201,2024-06-11 14:01:54.460918
29.50091849,3.692723513,-6.726523399,2.897409201,2024-06-11 14:01:54.500918
29.54091849,3.692723513,-6.726523399,2.897409201,2024-06-11 14:01:54.540918
29.58091849,3.198007345,-5.690431118,-0.3293122053,2024-06-11 14:01:54.580918
29.62091849,3.198007345,-5.690431118,-0.3293122053,2024-06-11 14:01:54.620918
29.66091849,3.198007345,-5.690431118,-0.3293122053,2024-06-11 14:01:54.660918
29.70091849,3.198007345,-5.690431118,-0.3293122053,2024-06-11 14:01:54.700918
29.74091849,3.198007345,-5.690431118,-0.3293122053,2024-06-11 14:01:54.740918
29.78091849,3.198007345,-5.690431118,-0.3293122053,2024-06-11 14:01:54.780918
29.82091849,1.811067581,-10.09830952,-0.1941177398,2024-06-11 14:01:54.820918
29.86091849,1.811067581,-10.09830952,-0.1941177398,2024-06-11 14:01:54.860918
29.90091849,1.811067581,-10.09830952,-0.1941177398,2024-06-11 14:01:54.900918
29.94091849,1.811067581,-10.09830952,-0.1941177398,2024-06-11 14:01:54.940918
29.98091849,3.726222992,-9.130413055,1.189232826,2024-06-11 14:01:54.980918
30.02091849,2.128415823,-9.582057953,0.1256231815,2024-06-11 14:01:55.020918
30.06091849,1.1820544,-9.792925835,-0.2012962103,2024-06-11 14:01:55.060918
30.10091849,1.983350873,-9.046664238,-0.5066801906,2024-06-11 14:01:55.100918
30.14091849,3.410071373,-8.887242317,1.4479568,2024-06-11 14:01:55.140918
30.18091849,1.854138494,-9.699306488,1.406082392,2024-06-11 14:01:55.180918
30.22091849,1.260120273,-9.825228691,-0.4480560422,2024-06-11 14:01:55.220918
30.26091849,1.396511078,-10.1712904,-0.3532404304,2024-06-11 14:01:55.260918
30.30091849,2.414657116,-9.128020287,1.301994562,2024-06-11 14:01:55.300918
30.34091849,1.506880045,-10.11147022,1.452742457,2024-06-11 14:01:55.340918
30.38091849,2.448156595,-12.11874962,-0.9185447693,2024-06-11 14:01:55.380918
30.42091849,5.200500965,-12.41336536,-1.546361685,2024-06-11 14:01:55.420918
30.46091849,11.69372463,-8.568697929,5.866602898,2024-06-11 14:01:55.460918
30.50091849,9.862318039,-7.383054256,1.958226204,2024-06-11 14:01:55.500918
30.54091849,6.605686188,-8.597412109,-0.8491529226,2024-06-11 14:01:55.540918
30.58091849,2.14995122,-9.977172852,-2.676970243,2024-06-11 14:01:55.580918
30.62091849,1.984547257,-11.55344486,-5.539683342,2024-06-11 14:01:55.620918
30.66091849,0.8814560175,-7.662117004,2.57766819,2024-06-11 14:01:55.660918
30.70091849,1.737787485,-7.511070251,2.377568483,2024-06-11 14:01:55.700918
30.74091849,3.317648649,-7.265506744,0.4552344978,2024-06-11 14:01:55.740918
30.78091849,5.77208662,-7.824829102,0.7941179872,2024-06-11 14:01:55.780918
30.82091849,8.420043945,-7.093223572,3.237488985,2024-06-11 14:01:55.820918
30.86091849,8.205885887,-6.744469643,5.109573841,2024-06-11 14:01:55.860918
30.90091849,8.205885887,-6.744469643,5.109573841,2024-06-11 14:01:55.900918
30.94091849,8.205885887,-6.744469643,5.109573841,2024-06-11 14:01:55.940918
30.98091849,8.205885887,-6.744469643,5.109573841,2024-06-11 14:01:55.980918
31.02091849,8.205885887,-6.744469643,5.109573841,2024-06-11 14:01:56.020918
31.06091849,8.205885887,-6.744469643,5.109573841,2024-06-11 14:01:56.060918
31.10091849,8.205885887,-6.744469643,5.109573841,2024-06-11 14:01:56.100918
31.14091849,8.205885887,-6.744469643,5.109573841,2024-06-11 14:01:56.140918
31.18091849,8.205885887,-6.744469643,5.109573841,2024-06-11 14:01:56.180918
31.22091849,8.205885887,-6.744469643,5.109573841,2024-06-11 14:01:56.220918
31.26091849,8.205885887,-6.744469643,5.109573841,2024-06-11 14:01:56.260918
31.30091849,8.205885887,-6.744469643,5.109573841,2024-06-11 14:01:56.300918
31.34091849,8.205885887,-6.744469643,5.109573841,2024-06-11 14:01:56.340918
31.38091849,8.205885887,-6.744469643,5.109573841,2024-06-11 14:01:56.380918
31.42091849,8.205885887,-6.744469643,5.109573841,2024-06-11 14:01:56.420918
31.46091849,8.205885887,-6.744469643,5.109573841,2024-06-11 14:01:56.460918
31.50091849,8.205885887,-6.744469643,5.109573841,2024-06-11 14:01:56.500918
31.54091849,8.205885887,-6.744469643,5.109573841,2024-06-11 14:01:56.540918
31.58091849,8.205885887,-6.744469643,5.109573841,2024-06-11 14:01:56.580918
31.62091849,8.205885887,-6.744469643,5.109573841,2024-06-11 14:01:56.620918
31.66091849,4.859224796,-7.628617764,0.3747758567,2024-06-11 14:01:56.660918
31.70091849,4.202992916,-9.034700394,-0.2455634177,2024-06-11 14:01:56.700918
31.74091849,5.267798901,-8.935098648,-1.391725421,2024-06-11 14:01:56.740918
31.78091849,8.191529274,-7.762615681,2.012363911,2024-06-11 14:01:56.780918
31.82091849,5.813961029,-5.258227825,4.934598446,2024-06-11 14:01:56.820918
31.86091849,8.161319733,-4.036392689,10.74257755,2024-06-11 14:01:56.860918
31.90091849,4.728815556,-9.446564674,6.422336102,2024-06-11 14:01:56.900918
31.94091849,2.184647083,-8.761619568,1.803889155,2024-06-11 14:01:56.940918
31.98091849,4.47009182,-7.430910587,2.685345173,2024-06-11 14:01:56.980918
32.02091849,3.619742393,-6.691827774,-0.3460619748,2024-06-11 14:01:57.020918
32.06091849,4.741976261,-6.113362789,0.142672047,2024-06-11 14:01:57.060918
32.10091849,6.417550564,-6.452246189,0.2180459648,2024-06-11 14:01:57.100918
32.14091849,7.06301403,-6.639185429,-1.174875975,2024-06-11 14:01:57.140918
32.18091849,6.5288167,-8.432307243,-1.183250785,2024-06-11 14:01:57.180918
32.22091849,5.282155991,-9.308977127,0.2958126962,2024-06-11 14:01:57.220918
32.26091849,6.857231617,-11.5019989,1.016949654,2024-06-11 14:01:57.260918
32.30091849,10.7677021,-16.36002731,-0.5054838061,2024-06-11 14:01:57.300918
32.34091849,2.724826813,-10.68036366,8.839385986,2024-06-11 14:01:57.340918
32.38091849,-1.250548959,-9.516255379,3.426821232,2024-06-11 14:01:57.380918
32.42091849,-2.819642305,-9.077771187,-1.492523074,2024-06-11 14:01:57.420918
32.46091849,0.3771686554,-10.8804636,-1.781157374,2024-06-11 14:01:57.460918
32.50091849,-0.332901448,-10.82632637,-2.632703066,2024-06-11 14:01:57.500918
32.54091849,4.57178688,-8.35304451,6.052345753,2024-06-11 14:01:57.540918
32.58091849,2.041077614,-9.410672188,-0.9065806866,2024-06-11 14:01:57.580918
32.62091849,2.041077614,-9.410672188,-0.9065806866,2024-06-11 14:01:57.620918
32.66091849,2.041077614,-9.410672188,-0.9065806866,2024-06-11 14:01:57.660918
32.70091849,2.041077614,-9.410672188,-0.9065806866,2024-06-11 14:01:57.700918
32.74091849,2.041077614,-9.410672188,-0.9065806866,2024-06-11 14:01:57.740918
32.78091849,2.041077614,-9.410672188,-0.9065806866,2024-06-11 14:01:57.780918
32.82091849,7.953144073,-10.20957565,16.66182137,2024-06-11 14:01:57.820918
32.86091849,7.953144073,-10.20957565,16.66182137,2024-06-11 14:01:57.860918
32.90091849,7.953144073,-10.20957565,16.66182137,2024-06-11 14:01:57.900918
32.94091849,7.953144073,-10.20957565,16.66182137,2024-06-11 14:01:57.940918
32.98091849,7.953144073,-10.20957565,16.66182137,2024-06-11 14:01:57.980918
33.02091849,7.953144073,-10.20957565,16.66182137,2024-06-11 14:01:58.020918
33.06091849,7.953144073,-10.20957565,16.66182137,2024-06-11 14:01:58.060918
33.10091849,7.953144073,-10.20957565,16.66182137,2024-06-11 14:01:58.100918
33.14091849,7.953144073,-10.20957565,16.66182137,2024-06-11 14:01:58.140918
33.18091849,7.953144073,-10.20957565,16.66182137,2024-06-11 14:01:58.180918
33.22091849,7.953144073,-10.20957565,16.66182137,2024-06-11 14:01:58.220918
33.26091849,7.953144073,-10.20957565,16.66182137,2024-06-11 14:01:58.260918
33.30091849,7.953144073,-10.20957565,16.66182137,2024-06-11 14:01:58.300918
33.34091849,5.064109802,-16.20688629,-2.214557409,2024-06-11 14:01:58.340918
33.38091849,3.107080221,-8.840581894,-3.292523861,2024-06-11 14:01:58.380918
33.42091849,1.986940145,-8.133802414,4.453341961,2024-06-11 14:01:58.420918
33.46091849,-0.9643075466,-10.47428226,6.53958416,2024-06-11 14:01:58.460918
33.50091849,0.6514459848,-7.902894974,2.214557409,2024-06-11 14:01:58.500918
33.54091849,2.04586339,-9.323334694,3.113062143,2024-06-11 14:01:58.540918
33.58091849,1.067198873,-8.495717049,4.459323883,2024-06-11 14:01:58.580918
33.62091849,3.147758245,-8.893224716,7.785347462,2024-06-11 14:01:58.620918
33.66091849,8.154141426,-8.420043945,7.496713161,2024-06-11 14:01:58.660918
33.70091849,7.802097321,-4.402793884,1.45633173,2024-06-11 14:01:58.700918
33.74091849,8.740083694,-4.023231983,5.75025177,2024-06-11 14:01:58.740918
33.78091849,1.89242363,-6.660720825,0.4444667995,2024-06-11 14:01:58.780918
33.82091849,-0.1462612897,-7.391428947,8.766405106,2024-06-11 14:01:58.820918
33.86091849,2.816053152,-3.052942514,6.836892605,2024-06-11 14:01:58.860918
33.90091849,3.017050266,-0.8730811477,9.756733894,2024-06-11 14:01:58.900918
33.94091849,12.04935741,3.869792461,11.19541931,2024-06-11 14:01:58.940918
33.98091849,2.853141785,-6.547959328,-2.557329178,2024-06-11 14:01:58.980918
34.02091849,-0.6562315822,-14.35753441,-11.57976627,2024-06-11 14:01:59.020918
34.06091849,7.570890903,-19.79881287,-2.232503414,2024-06-11 14:01:59.060918
34.10091849,13.94178104,-23.42334175,-5.933601856,2024-06-11 14:01:59.100918
34.14091849,9.74477005,-18.72922134,11.87916756,2024-06-11 14:01:59.140918
34.18091849,8.457431793,-6.545566559,1.284048438,2024-06-11 14:01:59.180918
34.22091849,3.550051451,0.8335995674,14.20409393,2024-06-11 14:01:59.220918
34.26091849,3.550051451,0.8335995674,14.20409393,2024-06-11 14:01:59.260918
34.30091849,3.550051451,0.8335995674,14.20409393,2024-06-11 14:01:59.300918
34.34091849,3.550051451,0.8335995674,14.20409393,2024-06-11 14:01:59.340918
34.38091849,3.550051451,0.8335995674,14.20409393,2024-06-11 14:01:59.380918
34.42091849,3.550051451,0.8335995674,14.20409393,2024-06-11 14:01:59.420918
34.46091849,3.550051451,0.8335995674,14.20409393,2024-06-11 14:01:59.460918
34.50091849,3.550051451,0.8335995674,14.20409393,2024-06-11 14:01:59.500918
34.54091849,3.550051451,0.8335995674,14.20409393,2024-06-11 14:01:59.540918
34.58091849,3.550051451,0.8335995674,14.20409393,2024-06-11 14:01:59.580918
34.62091849,3.550051451,0.8335995674,14.20409393,2024-06-11 14:01:59.620918
34.66091849,3.550051451,0.8335995674,14.20409393,2024-06-11 14:01:59.660918
34.70091849,3.550051451,0.8335995674,14.20409393,2024-06-11 14:01:59.700918
34.74091849,3.550051451,0.8335995674,14.20409393,2024-06-11 14:01:59.740918
34.78091849,3.550051451,0.8335995674,14.20409393,2024-06-11 14:01:59.780918
34.82091849,3.550051451,0.8335995674,14.20409393,2024-06-11 14:01:59.820918
34.86091849,3.550051451,0.8335995674,14.20409393,2024-06-11 14:01:59.860918
34.90091849,3.550051451,0.8335995674,14.20409393,2024-06-11 14:01:59.900918
34.94091849,3.550051451,0.8335995674,14.20409393,2024-06-11 14:01:59.940918
34.98091849,3.550051451,0.8335995674,14.20409393,2024-06-11 14:01:59.980918
35.02091849,5.888138294,-12.5991087,14.70479202,2024-06-11 14:02:00.020918
35.06091849,3.268595695,-11.54865932,3.20518589,2024-06-11 14:02:00.060918
35.10091849,-0.4061816335,-9.889835358,3.473481178,2024-06-11 14:02:00.100918
35.14091849,1.742872238,-11.18225861,4.768297195,2024-06-11 14:02:00.140918
35.18091849,7.260721207,-18.21775436,6.830910206,2024-06-11 14:02:00.180918
35.22091849,19.64896202,-30.27907753,0.1546361595,2024-06-11 14:02:00.220918
35.26091849,5.600700378,-14.33958817,1.693520188,2024-06-11 14:02:00.260918
35.30091849,-2.434996128,-6.413960934,-3.043371201,2024-06-11 14:02:00.300918
35.34091849,0.1558325738,-5.125126839,-2.80259347,2024-06-11 14:02:00.340918
35.38091849,1.643270969,-3.101098061,-6.229414463,2024-06-11 14:02:00.380918
35.42091849,0.4049852192,-1.775175333,-6.720541477,2024-06-11 14:02:00.420918
35.46091849,-1.185643673,-0.6972087026,13.40758324,2024-06-11 14:02:00.460918
35.50091849,-0.8168498278,-5.434100151,-15.49412441,2024-06-11 14:02:00.500918
35.54091849,4.639982224,-6.108577251,-7.854739666,2024-06-11 14:02:00.540918
35.58091849,14.87019634,-21.83031845,-12.99571896,2024-06-11 14:02:00.580918
35.62091849,8.351848602,-9.639486313,-5.860620975,2024-06-11 14:02:00.620918
35.66091849,10.03609657,-20.40838432,-14.96710587,2024-06-11 14:02:00.660918
35.70091849,-0.4073780477,-36.70619965,59.18676758,2024-06-11 14:02:00.700918
35.74091849,5.20169735,-11.36052418,9.710074425,2024-06-11 14:02:00.740918
35.78091849,0.7235297561,-8.459824562,3.168097258,2024-06-11 14:02:00.780918
35.82091849,-1.221835017,-2.484049082,2.99551487,2024-06-11 14:02:00.820918
35.86091849,-1.790728688,-1.233799219,-0.08135596663,2024-06-11 14:02:00.860918
35.90091849,-0.03110669367,0.432502687,-0.3317050338,2024-06-11 14:02:00.900918
35.94091849,-0.03110669367,0.432502687,-0.3317050338,2024-06-11 14:02:00.940918
35.98091849,-0.03110669367,0.432502687,-0.3317050338,2024-06-11 14:02:00.980918
36.02091849,-0.03110669367,0.432502687,-0.3317050338,2024-06-11 14:02:01.020918
36.06091849,-0.03110669367,0.432502687,-0.3317050338,2024-06-11 14:02:01.060918
36.10091849,-0.03110669367,0.432502687,-0.3317050338,2024-06-11 14:02:01.100918
36.14091849,-0.03110669367,0.432502687,-0.3317050338,2024-06-11 14:02:01.140918
36.18091849,-0.03110669367,0.432502687,-0.3317050338,2024-06-11 14:02:01.180918
36.22091849,-0.03110669367,0.432502687,-0.3317050338,2024-06-11 14:02:01.220918
36.26091849,-0.03110669367,0.432502687,-0.3317050338,2024-06-11 14:02:01.260918
36.30091849,-0.03110669367,0.432502687,-0.3317050338,2024-06-11 14:02:01.300918
36.34091849,-0.03110669367,0.432502687,-0.3317050338,2024-06-11 14:02:01.340918
36.38091849,-0.03110669367,0.432502687,-0.3317050338,2024-06-11 14:02:01.380918
36.42091849,-0.03110669367,0.432502687,-0.3317050338,2024-06-11 14:02:01.420918
36.46091849,-0.03110669367,0.432502687,-0.3317050338,2024-06-11 14:02:01.460918
36.50091849,-0.03110669367,0.432502687,-0.3317050338,2024-06-11 14:02:01.500918
36.54091849,-0.03110669367,0.432502687,-0.3317050338,2024-06-11 14:02:01.540918
36.58091849,-0.03110669367,0.432502687,-0.3317050338,2024-06-11 14:02:01.580918
36.62091849,-0.03110669367,0.432502687,-0.3317050338,2024-06-11 14:02:01.620918
36.66091849,-0.03110669367,0.432502687,-0.3317050338,2024-06-11 14:02:01.660918
36.70091849,1.897209287,-1.939083695,5.619843006,2024-06-11 14:02:01.700918
36.74091849,0.9149555564,-6.468996048,1.040877819,2024-06-11 14:02:01.740918
36.78091849,0.1064806059,-10.23948669,6.51445961,2024-06-11 14:02:01.780918
36.82091849,-2.043470621,-14.76700592,-1.681556106,2024-06-11 14:02:01.820918
36.86091849,4.624428749,-18.85963058,0.9523434043,2024-06-11 14:02:01.860918
36.90091849,11.57976627,-20.77269173,0.94277215,2024-06-11 14:02:01.900918
36.94091849,6.318248272,-12.28654575,0.8635098934,2024-06-11 14:02:01.940918
36.98091849,3.59790802,-8.095517159,-2.068595171,2024-06-11 14:02:01.980918
37.02091849,1.571486235,-6.416353703,-4.090231419,2024-06-11 14:02:02.020918
37.06091849,1.309173107,-4.564608097,-3.43758893,2024-06-11 14:02:02.060918
37.10091849,1.434796333,-4.532305241,2.158325911,2024-06-11 14:02:02.100918
37.14091849,1.049252748,-5.79721117,0.9738788009,2024-06-11 14:02:02.140918
37.18091849,5.334797859,-9.217751503,10.00588703,2024-06-11 14:02:02.180918
37.22091849,4.280759811,-5.51934433,0.7498508096,2024-06-11 14:02:02.220918
37.26091849,4.00887537,-4.319045067,2.624328136,2024-06-11 14:02:02.260918
37.30091849,4.698905468,-8.854939461,4.138087749,2024-06-11 14:02:02.300918
37.34091849,2.842374086,-12.62303638,-1.520040631,2024-06-11 14:02:02.340918
37.38091849,8.056035995,-19.0322113,-7.726723194,2024-06-11 14:02:02.380918
37.42091849,4.850849628,-9.59641552,-3.093919754,2024-06-11 14:02:02.420918
37.46091849,11.98235893,-9.222537041,12.42891884,2024-06-11 14:02:02.460918
37.50091849,6.722934246,-2.814856768,6.991229534,2024-06-11 14:02:02.500918
37.54091849,4.281956196,0.5940182209,5.455635548,2024-06-11 14:02:02.540918
37.58091849,3.937090635,-9.861121178,8.492127419,2024-06-11 14:02:02.580918
37.62091849,3.937090635,-9.861121178,8.492127419,2024-06-11 14:02:02.620918
37.66091849,3.937090635,-9.861121178,8.492127419,2024-06-11 14:02:02.660918
37.70091849,3.937090635,-9.861121178,8.492127419,2024-06-11 14:02:02.700918
37.74091849,3.937090635,-9.861121178,8.492127419,2024-06-11 14:02:02.740918
37.78091849,3.937090635,-9.861121178,8.492127419,2024-06-11 14:02:02.780918
37.82091849,3.937090635,-9.861121178,8.492127419,2024-06-11 14:02:02.820918
37.86091849,3.937090635,-9.861121178,8.492127419,2024-06-11 14:02:02.860918
37.90091849,3.937090635,-9.861121178,8.492127419,2024-06-11 14:02:02.900918
37.94091849,3.937090635,-9.861121178,8.492127419,2024-06-11 14:02:02.940918
37.98091849,3.937090635,-9.861121178,8.492127419,2024-06-11 14:02:02.980918
38.02091849,3.937090635,-9.861121178,8.492127419,2024-06-11 14:02:03.020918
38.06091849,3.937090635,-9.861121178,8.492127419,2024-06-11 14:02:03.060918
38.10091849,3.937090635,-9.861121178,8.492127419,2024-06-11 14:02:03.100918
38.14091849,3.937090635,-9.861121178,8.492127419,2024-06-11 14:02:03.140918
38.18091849,3.937090635,-9.861121178,8.492127419,2024-06-11 14:02:03.180918
38.22091849,3.937090635,-9.861121178,8.492127419,2024-06-11 14:02:03.220918
38.26091849,3.937090635,-9.861121178,8.492127419,2024-06-11 14:02:03.260918
38.30091849,3.937090635,-9.861121178,8.492127419,2024-06-11 14:02:03.300918
38.34091849,3.937090635,-9.861121178,8.492127419,2024-06-11 14:02:03.340918
38.38091849,3.937090635,-9.861121178,8.492127419,2024-06-11 14:02:03.380918
38.42091849,4.498805523,-10.9426775,4.660321236,2024-06-11 14:02:03.420918
38.46091849,5.296513081,-10.46231747,4.605286121,2024-06-11 14:02:03.460918
38.50091849,11.07787132,-10.87687397,1.723430514,2024-06-11 14:02:03.500918
38.54091849,8.30638504,-8.026124954,1.911566138,2024-06-11 14:02:03.540918
38.58091849,-1.839781523,-9.661021233,0.2670988142,2024-06-11 14:02:03.580918
38.62091849,0.2742772996,-11.0371933,1.081555843,2024-06-11 14:02:03.620918
38.66091849,1.970190287,-8.196314812,-4.319045067,2024-06-11 14:02:03.660918
38.70091849,-2.873480797,-8.145766258,1.529611826,2024-06-11 14:02:03.700918
38.74091849,-1.248156071,-8.62014389,-0.4025924206,2024-06-11 14:02:03.740918
38.78091849,-1.419242978,-11.41466141,-2.971586704,2024-06-11 14:02:03.780918
38.82091849,5.053342342,-10.14257717,-3.68674159,2024-06-11 14:02:03.820918
38.86091849,6.552744865,-7.767401218,0.1606182158,2024-06-11 14:02:03.860918
38.90091849,12.48425293,-7.980661869,3.710669756,2024-06-11 14:02:03.900918
38.94091849,10.83470058,-4.73360157,7.300202847,2024-06-11 14:02:03.940918
38.98091849,-0.5629115105,-7.269095898,0.6864410043,2024-06-11 14:02:03.980918
39.02091849,0.509073019,-11.77029419,-4.099802494,2024-06-11 14:02:04.020918
39.06091849,13.67468262,-25.35404968,27.8979187,2024-06-11 14:02:04.060918
39.10091849,2.936890602,-5.441278458,-10.15932655,2024-06-11 14:02:04.100918
39.14091849,2.033899307,-2.222932339,-0.8682954907,2024-06-11 14:02:04.140918
39.18091849,4.547858715,-11.0060873,-1.75722909,2024-06-11 14:02:04.180918
39.22091849,-1.138983607,-12.05175018,-4.405186653,2024-06-11 14:02:04.220918
39.26091849,0.1462612897,-9.008378983,-3.412464142,2024-06-11 14:02:04.260918
39.30091849,0.1462612897,-9.008378983,-3.412464142,2024-06-11 14:02:04.300918
39.34091849,0.1462612897,-9.008378983,-3.412464142,2024-06-11 14:02:04.340918
39.38091849,0.1462612897,-9.008378983,-3.412464142,2024-06-11 14:02:04.380918
39.42091849,0.1462612897,-9.008378983,-3.412464142,2024-06-11 14:02:04.420918
39.46091849,0.1462612897,-9.008378983,-3.412464142,2024-06-11 14:02:04.460918
39.50091849,0.1462612897,-9.008378983,-3.412464142,2024-06-11 14:02:04.500918
39.54091849,0.1462612897,-9.008378983,-3.412464142,2024-06-11 14:02:04.540918
39.58091849,-0.3975076675,-14.84357643,0.08973085135,2024-06-11 14:02:04.580918
39.62091849,-0.3975076675,-14.84357643,0.08973085135,2024-06-11 14:02:04.620918
39.66091849,-0.3975076675,-14.84357643,0.08973085135,2024-06-11 14:02:04.660918
39.70091849,-0.3975076675,-14.84357643,0.08973085135,2024-06-11 14:02:04.700918
39.74091849,-0.3975076675,-14.84357643,0.08973085135,2024-06-11 14:02:04.740918
39.78091849,-0.3975076675,-14.84357643,0.08973085135,2024-06-11 14:02:04.780918
39.82091849,-0.3975076675,-14.84357643,0.08973085135,2024-06-11 14:02:04.820918
39.86091849,-0.3975076675,-14.84357643,0.08973085135,2024-06-11 14:02:04.860918
39.90091849,-0.3975076675,-14.84357643,0.08973085135,2024-06-11 14:02:04.900918
39.94091849,-0.3975076675,-14.84357643,0.08973085135,2024-06-11 14:02:04.940918
39.98091849,-0.3975076675,-14.84357643,0.08973085135,2024-06-11 14:02:04.980918
40.02091849,-0.3975076675,-14.84357643,0.08973085135,2024-06-11 14:02:05.020918
40.06091849,-0.3975076675,-14.84357643,0.08973085135,2024-06-11 14:02:05.060918
40.10091849,7.299006462,-14.50828171,-9.870692253,2024-06-11 14:02:05.100918
40.14091849,0.3532404304,-4.941776752,-5.727519989,2024-06-11 14:02:05.140918
40.18091849,-0.08733802289,-8.443074226,-2.105684042,2024-06-11 14:02:05.180918
40.22091849,-1.066002488,-13.59571934,-1.955833435,2024-06-11 14:02:05.220918
40.26091849,-1.878066659,-9.45972538,-0.1028913707,2024-06-11 14:02:05.260918
40.30091849,0.7450651526,-7.13509798,2.492423773,2024-06-11 14:02:05.300918
40.34091849,5.489434242,-7.380661488,2.958425999,2024-06-11 14:02:05.340918
40.38091849,5.962316036,-9.008378983,2.054238319,2024-06-11 14:02:05.380918
40.42091849,5.874977589,-10.22871876,2.791825771,2024-06-11 14:02:05.420918
40.46091849,-1.763211131,-13.59691525,3.625724554,2024-06-11 14:02:05.460918
40.50091849,-5.000699997,-14.07847118,-1.813460469,2024-06-11 14:02:05.500918
40.54091849,-2.848356247,-17.4870472,11.90070343,2024-06-11 14:02:05.540918
40.58091849,-1.478166223,-14.16580868,-1.165304661,2024-06-11 14:02:05.580918
40.62091849,6.850052834,-13.24576855,-3.192025423,2024-06-11 14:02:05.620918
40.66091849,13.28435326,-16.00559044,2.051845312,2024-06-11 14:02:05.660918
40.70091849,5.046164036,-9.114859581,-4.104588032,2024-06-11 14:02:05.700918
40.74091849,2.114058733,-4.505984306,-0.7821539044,2024-06-11 14:02:05.740918
40.78091849,-0.7773682475,-3.935894251,-3.588336706,2024-06-11 14:02:05.780918
40.82091849,-2.660220623,-3.654438496,-2.291426897,2024-06-11 14:02:05.820918
40.86091849,2.958425999,-1.449153185,-4.465306282,2024-06-11 14:02:05.860918
40.90091849,2.478066921,-5.426921844,-3.753740549,2024-06-11 14:02:05.900918
40.94091849,12.79322624,-22.39083862,45.62335205,2024-06-11 14:02:05.940918
40.98091849,9.7196455,-9.664610863,-0.9352945685,2024-06-11 14:02:05.980918
41.02091849,9.7196455,-9.664610863,-0.9352945685,2024-06-11 14:02:06.020918
41.06091849,9.7196455,-9.664610863,-0.9352945685,2024-06-11 14:02:06.060918
41.10091849,9.7196455,-9.664610863,-0.9352945685,2024-06-11 14:02:06.100918
41.14091849,9.7196455,-9.664610863,-0.9352945685,2024-06-11 14:02:06.140918
41.18091849,9.7196455,-9.664610863,-0.9352945685,2024-06-11 14:02:06.180918
41.22091849,9.7196455,-9.664610863,-0.9352945685,2024-06-11 14:02:06.220918
41.26091849,9.7196455,-9.664610863,-0.9352945685,2024-06-11 14:02:06.260918
41.30091849,9.7196455,-9.664610863,-0.9352945685,2024-06-11 14:02:06.300918
41.34091849,9.7196455,-9.664610863,-0.9352945685,2024-06-11 14:02:06.340918
41.38091849,9.7196455,-9.664610863,-0.9352945685,2024-06-11 14:02:06.380918
41.42091849,9.7196455,-9.664610863,-0.9352945685,2024-06-11 14:02:06.420918
41.46091849,9.7196455,-9.664610863,-0.9352945685,2024-06-11 14:02:06.460918
41.50091849,9.7196455,-9.664610863,-0.9352945685,2024-06-11 14:02:06.500918
41.54091849,9.7196455,-9.664610863,-0.9352945685,2024-06-11 14:02:06.540918
41.58091849,9.7196455,-9.664610863,-0.9352945685,2024-06-11 14:02:06.580918
41.62091849,9.7196455,-9.664610863,-0.9352945685,2024-06-11 14:02:06.620918
41.66091849,9.7196455,-9.664610863,-0.9352945685,2024-06-11 14:02:06.660918
41.70091849,9.7196455,-9.664610863,-0.9352945685,2024-06-11 14:02:06.700918
41.74091849,9.7196455,-9.664610863,-0.9352945685,2024-06-11 14:02:06.740918
41.78091849,-0.8718847632,-4.047160625,-4.785047054,2024-06-11 14:02:06.780918
41.82091849,-2.067398787,-4.403990269,-2.195414782,2024-06-11 14:02:06.820918
41.86091849,2.128415823,-3.998107433,-1.778764486,2024-06-11 14:02:06.860918
41.90091849,2.108076811,-4.194618225,-2.896212816,2024-06-11 14:02:06.900918
41.94091849,8.379365921,-10.84816074,16.40908051,2024-06-11 14:02:06.940918
41.98091849,7.202096939,-17.12064552,1.772782445,2024-06-11 14:02:06.980918
42.02091849,4.428217411,-6.318248272,-1.364207983,2024-06-11 14:02:07.020918
42.06091849,12.45195007,-14.67129326,-2.179861546,2024-06-11 14:02:07.060918
42.10091849,4.399204254,-10.6109724,-7.514659405,2024-06-11 14:02:07.100918
42.14091849,1.445564032,-3.186043262,-3.590729475,2024-06-11 14:02:07.140918
42.18091849,2.059023857,-8.239385605,-1.873281002,2024-06-11 14:02:07.180918
42.22091849,2.222932339,-13.30110264,-1.291226864,2024-06-11 14:02:07.220918
42.26091849,0.9281160831,-8.549555779,-1.84456718,2024-06-11 14:02:07.260918
42.30091849,0.347258389,-8.221439362,-1.315155149,2024-06-11 14:02:07.300918
42.34091849,0.8994022012,-11.0060873,1.317547917,2024-06-11 14:02:07.340918
42.38091849,3.564408541,-8.20468998,4.727619171,2024-06-11 14:02:07.380918
42.42091849,1.351047516,-9.367601395,-1.258923769,2024-06-11 14:02:07.420918
42.46091849,0.584446907,-9.722038269,2.029113531,2024-06-11 14:02:07.460918
42.50091849,-1.36061883,-12.82433319,2.603989124,2024-06-11 14:02:07.500918
42.54091849,-1.921137452,-12.05414295,-0.2096710801,2024-06-11 14:02:07.540918
42.58091849,1.441974759,-13.67946815,7.113562584,2024-06-11 14:02:07.580918
42.62091849,2.718844652,-13.08425331,-0.1232303679,2024-06-11 14:02:07.620918
42.66091849,6.270092487,-12.28295708,-0.2228316069,2024-06-11 14:02:07.660918
42.70091849,6.270092487,-12.28295708,-0.2228316069,2024-06-11 14:02:07.700918
42.74091849,6.270092487,-12.28295708,-0.2228316069,2024-06-11 14:02:07.740918
42.78091849,6.270092487,-12.28295708,-0.2228316069,2024-06-11 14:02:07.780918
42.82091849,6.270092487,-12.28295708,-0.2228316069,2024-06-11 14:02:07.820918
42.86091849,6.270092487,-12.28295708,-0.2228316069,2024-06-11 14:02:07.860918
42.90091849,6.270092487,-12.28295708,-0.2228316069,2024-06-11 14:02:07.900918
42.94091849,6.270092487,-12.28295708,-0.2228316069,2024-06-11 14:02:07.940918
42.98091849,6.270092487,-12.28295708,-0.2228316069,2024-06-11 14:02:07.980918
43.02091849,6.270092487,-12.28295708,-0.2228316069,2024-06-11 14:02:08.020918
43.06091849,6.270092487,-12.28295708,-0.2228316069,2024-06-11 14:02:08.060918
43.10091849,6.270092487,-12.28295708,-0.2228316069,2024-06-11 14:02:08.100918
43.14091849,6.270092487,-12.28295708,-0.2228316069,2024-06-11 14:02:08.140918
43.18091849,6.270092487,-12.28295708,-0.2228316069,2024-06-11 14:02:08.180918
43.22091849,6.270092487,-12.28295708,-0.2228316069,2024-06-11 14:02:08.220918
43.26091849,6.270092487,-12.28295708,-0.2228316069,2024-06-11 14:02:08.260918
43.30091849,6.270092487,-12.28295708,-0.2228316069,2024-06-11 14:02:08.300918
43.34091849,6.270092487,-12.28295708,-0.2228316069,2024-06-11 14:02:08.340918
43.38091849,6.270092487,-12.28295708,-0.2228316069,2024-06-11 14:02:08.380918
43.42091849,6.270092487,-12.28295708,-0.2228316069,2024-06-11 14:02:08.420918
43.46091849,4.348955154,-8.120641708,-1.006181955,2024-06-11 14:02:08.460918
43.50091849,5.831906796,-8.368597984,0.2694916427,2024-06-11 14:02:08.500918
43.54091849,3.029014349,-9.869496346,1.772782445,2024-06-11 14:02:08.540918
43.58091849,0.3687937856,-9.680164337,-1.503290772,2024-06-11 14:02:08.580918
43.62091849,0.4588237405,-9.730413437,0.9774680734,2024-06-11 14:02:08.620918
43.66091849,2.132004976,-9.975976944,0.8802596331,2024-06-11 14:02:08.660918
43.70091849,1.834995866,-9.983155251,-0.7773682475,2024-06-11 14:02:08.700918
43.74091849,2.800200701,-9.0418787,-1.060020447,2024-06-11 14:02:08.740918
43.78091849,4.443770885,-9.021539688,1.316351533,2024-06-11 14:02:08.780918
43.82091849,2.928515911,-9.710074425,-0.9245268703,2024-06-11 14:02:08.820918
43.86091849,2.370389938,-10.28495026,-1.305583835,2024-06-11 14:02:08.860918
43.90091849,2.013560295,-8.028517723,-1.881655931,2024-06-11 14:02:08.900918
43.94091849,0.4612165689,-8.505288124,-3.01226449,2024-06-11 14:02:08.940918
43.98091849,0.6876373887,-10.24786091,-2.304587364,2024-06-11 14:02:08.980918
44.02091849,2.024327993,-10.96062279,3.845864296,2024-06-11 14:02:09.020918
44.06091849,2.594418049,-10.28973579,0.7342974544,2024-06-11 14:02:09.060918
44.10091849,4.934598446,-8.662017822,0.722333312,2024-06-11 14:02:09.100918
44.14091849,3.603889942,-8.769993782,-0.1390828192,2024-06-11 14:02:09.140918
44.18091849,2.358425856,-9.541379929,0.9559326172,2024-06-11 14:02:09.180918
44.22091849,1.639681697,-9.785747528,-0.007178467698,2024-06-11 14:02:09.220918
44.26091849,1.838585138,-10.06600666,0.1354935765,2024-06-11 14:02:09.260918
44.30091849,2.002493382,-9.283852577,-0.2407777756,2024-06-11 14:02:09.300918
44.34091849,2.002493382,-9.283852577,-0.2407777756,2024-06-11 14:02:09.340918
44.38091849,2.002493382,-9.283852577,-0.2407777756,2024-06-11 14:02:09.380918
44.42091849,2.002493382,-9.283852577,-0.2407777756,2024-06-11 14:02:09.420918
44.46091849,2.002493382,-9.283852577,-0.2407777756,2024-06-11 14:02:09.460918
44.50091849,2.002493382,-9.283852577,-0.2407777756,2024-06-11 14:02:09.500918
44.54091849,2.002493382,-9.283852577,-0.2407777756,2024-06-11 14:02:09.540918
44.58091849,2.002493382,-9.283852577,-0.2407777756,2024-06-11 14:02:09.580918
44.62091849,2.002493382,-9.283852577,-0.2407777756,2024-06-11 14:02:09.620918
44.66091849,2.002493382,-9.283852577,-0.2407777756,2024-06-11 14:02:09.660918
44.70091849,2.002493382,-9.283852577,-0.2407777756,2024-06-11 14:02:09.700918
44.74091849,2.002493382,-9.283852577,-0.2407777756,2024-06-11 14:02:09.740918
44.78091849,2.002493382,-9.283852577,-0.2407777756,2024-06-11 14:02:09.780918
44.82091849,2.002493382,-9.283852577,-0.2407777756,2024-06-11 14:02:09.820918
44.86091849,2.002493382,-9.283852577,-0.2407777756,2024-06-11 14:02:09.860918
44.90091849,2.002493382,-9.283852577,-0.2407777756,2024-06-11 14:02:09.900918
44.94091849,2.002493382,-9.283852577,-0.2407777756,2024-06-11 14:02:09.940918
44.98091849,2.002493382,-9.283852577,-0.2407777756,2024-06-11 14:02:09.980918
45.02091849,2.002493382,-9.283852577,-0.2407777756,2024-06-11 14:02:10.020918
45.06091849,2.002493382,-9.283852577,-0.2407777756,2024-06-11 14:02:10.060918
45.10091849,2.002493382,-9.283852577,-0.2407777756,2024-06-11 14:02:10.100918
45.14091849,8.995218277,-4.099802494,6.736094952,2024-06-11 14:02:10.140918
45.18091849,3.376571894,-6.704988003,4.22931385,2024-06-11 14:02:10.180918
45.22091849,4.525126934,-14.41855145,6.728916168,2024-06-11 14:02:10.220918
45.26091849,4.056731701,-4.745565414,5.697609901,2024-06-11 14:02:10.260918
45.30091849,2.498405933,-9.728020668,6.494120598,2024-06-11 14:02:10.300918
45.34091849,2.64825654,-8.056035995,6.422336102,2024-06-11 14:02:10.340918
45.38091849,3.145365477,-7.66092062,6.231807709,2024-06-11 14:02:10.380918
45.42091849,3.520141125,-8.155337334,4.504787922,2024-06-11 14:02:10.420918
45.46091849,3.687937975,-7.561319351,5.665306568,2024-06-11 14:02:10.460918
45.50091849,3.056531906,-7.257132053,4.802993298,2024-06-11 14:02:10.500918
45.54091849,3.835096598,-7.312166691,4.144069672,2024-06-11 14:02:10.540918
45.58091849,3.836292982,-7.030711174,4.567001343,2024-06-11 14:02:10.580918
45.62091849,3.695116282,-6.918248653,4.671088696,2024-06-11 14:02:10.620918
45.66091849,4.186243057,-7.477570534,3.573979616,2024-06-11 14:02:10.660918
45.70091849,5.331208706,-7.995018482,3.703491211,2024-06-11 14:02:10.700918
45.74091849,4.604089737,-8.684749603,2.216950178,2024-06-11 14:02:10.740918
45.78091849,6.546762943,-9.463314056,1.58703959,2024-06-11 14:02:10.780918
45.82091849,6.352943897,-10.21795082,-0.8216354847,2024-06-11 14:02:10.820918
45.86091849,6.236593246,-7.365108013,0.0382851623,2024-06-11 14:02:10.860918
45.90091849,5.513362408,-5.585147381,2.20618248,2024-06-11 14:02:10.900918
45.94091849,7.068996429,-5.549254894,8.865707397,2024-06-11 14:02:10.940918
45.98091849,8.138587952,-9.153144836,9.123234749,2024-06-11 14:02:10.980918
46.02091849,3.157329559,-5.073681355,1.451546073,2024-06-11 14:02:11.020918
46.06091849,4.922634602,-6.678667068,-0.5054838061,2024-06-11 14:02:11.060918
46.10091849,4.922634602,-6.678667068,-0.5054838061,2024-06-11 14:02:11.100918
46.14091849,4.922634602,-6.678667068,-0.5054838061,2024-06-11 14:02:11.140918
46.18091849,4.922634602,-6.678667068,-0.5054838061,2024-06-11 14:02:11.180918
46.22091849,4.922634602,-6.678667068,-0.5054838061,2024-06-11 14:02:11.220918
46.26091849,4.922634602,-6.678667068,-0.5054838061,2024-06-11 14:02:11.260918
46.30091849,4.922634602,-6.678667068,-0.5054838061,2024-06-11 14:02:11.300918
46.34091849,4.922634602,-6.678667068,-0.5054838061,2024-06-11 14:02:11.340918
46.38091849,4.922634602,-6.678667068,-0.5054838061,2024-06-11 14:02:11.380918
46.42091849,4.922634602,-6.678667068,-0.5054838061,2024-06-11 14:02:11.420918
46.46091849,4.922634602,-6.678667068,-0.5054838061,2024-06-11 14:02:11.460918
46.50091849,4.922634602,-6.678667068,-0.5054838061,2024-06-11 14:02:11.500918
46.54091849,4.922634602,-6.678667068,-0.5054838061,2024-06-11 14:02:11.540918
46.58091849,4.922634602,-6.678667068,-0.5054838061,2024-06-11 14:02:11.580918
46.62091849,4.922634602,-6.678667068,-0.5054838061,2024-06-11 14:02:11.620918
46.66091849,4.922634602,-6.678667068,-0.5054838061,2024-06-11 14:02:11.660918
46.70091849,4.922634602,-6.678667068,-0.5054838061,2024-06-11 14:02:11.700918
46.74091849,4.922634602,-6.678667068,-0.5054838061,2024-06-11 14:02:11.740918
46.78091849,4.922634602,-6.678667068,-0.5054838061,2024-06-11 14:02:11.780918
46.82091849,2.160718918,-13.05314636,4.068696022,2024-06-11 14:02:11.820918
46.86091849,8.492127419,-12.17767239,-3.772883177,2024-06-11 14:02:11.860918
46.90091849,3.011068106,-10.89242744,-5.132305622,2024-06-11 14:02:11.900918
46.94091849,1.097109199,-9.276674271,-3.987339735,2024-06-11 14:02:11.940918
46.98091849,1.646860242,-8.581858635,8.46819973,2024-06-11 14:02:11.980918
47.02091849,1.226620674,-7.035496712,-1.301994562,2024-06-11 14:02:12.020918
47.06091849,-2.322533369,-7.246364117,0.294616282,2024-06-11 14:02:12.060918
47.10091849,-1.045663476,-9.411869049,7.057032108,2024-06-11 14:02:12.100918
47.14091849,4.174279213,-8.29920578,1.028913736,2024-06-11 14:02:12.140918
47.18091849,3.61615324,-10.64088249,11.6084795,2024-06-11 14:02:12.180918
47.22091849,1.465902925,-12.94038486,4.963611603,2024-06-11 14:02:12.220918
47.26091849,3.058924675,-6.102594852,2.172683001,2024-06-11 14:02:12.260918
47.30091849,1.876870275,-6.380461693,1.099501967,2024-06-11 14:02:12.300918
47.34091849,0.8898309469,-7.105187893,-0.8515457511,2024-06-11 14:02:12.340918
47.38091849,1.718644857,-8.268099785,0.1244267747,2024-06-11 14:02:12.380918
47.42091849,1.113858938,-8.681160927,-0.6948158741,2024-06-11 14:02:12.420918
47.46091849,1.063609719,-8.191529274,-1.061216831,2024-06-11 14:02:12.460918
47.50091849,3.782454491,-9.100502968,-2.06261301,2024-06-11 14:02:12.500918
47.54091849,5.719145298,-9.268299103,-1.571486235,2024-06-11 14:02:12.540918
47.58091849,10.75693417,-9.818050385,-1.503290772,2024-06-11 14:02:12.580918
47.62091849,8.623732567,-11.01565838,5.701199055,2024-06-11 14:02:12.620918
47.66091849,3.970590115,-14.42812252,6.302694798,2024-06-11 14:02:12.660918
47.70091849,1.111466169,-10.39890766,1.675574064,2024-06-11 14:02:12.700918
47.74091849,1.111466169,-10.39890766,1.675574064,2024-06-11 14:02:12.740918
47.78091849,1.111466169,-10.39890766,1.675574064,2024-06-11 14:02:12.780918
47.82091849,1.111466169,-10.39890766,1.675574064,2024-06-11 14:02:12.820918
47.86091849,1.111466169,-10.39890766,1.675574064,2024-06-11 14:02:12.860918
47.90091849,1.111466169,-10.39890766,1.675574064,2024-06-11 14:02:12.900918
47.94091849,1.111466169,-10.39890766,1.675574064,2024-06-11 14:02:12.940918
47.98091849,1.111466169,-10.39890766,1.675574064,2024-06-11 14:02:12.980918
48.02091849,1.111466169,-10.39890766,1.675574064,2024-06-11 14:02:13.020918
48.06091849,1.111466169,-10.39890766,1.675574064,2024-06-11 14:02:13.060918
48.10091849,1.111466169,-10.39890766,1.675574064,2024-06-11 14:02:13.100918
48.14091849,1.111466169,-10.39890766,1.675574064,2024-06-11 14:02:13.140918
48.18091849,1.111466169,-10.39890766,1.675574064,2024-06-11 14:02:13.180918
48.22091849,1.111466169,-10.39890766,1.675574064,2024-06-11 14:02:13.220918
48.26091849,1.111466169,-10.39890766,1.675574064,2024-06-11 14:02:13.260918
48.30091849,1.111466169,-10.39890766,1.675574064,2024-06-11 14:02:13.300918
48.34091849,1.111466169,-10.39890766,1.675574064,2024-06-11 14:02:13.340918
48.38091849,1.111466169,-10.39890766,1.675574064,2024-06-11 14:02:13.380918
48.42091849,1.111466169,-10.39890766,1.675574064,2024-06-11 14:02:13.420918
48.46091849,1.111466169,-10.39890766,1.675574064,2024-06-11 14:02:13.460918
48.50091849,1.615753531,-12.02542973,1.426421404,2024-06-11 14:02:13.500918
48.54091849,1.7883358,-12.73220921,2.902194738,2024-06-11 14:02:13.540918
48.58091849,3.381357431,-9.837192535,3.73699069,2024-06-11 14:02:13.580918
48.62091849,3.285345554,-9.80249691,0.5425725579,2024-06-11 14:02:13.620918
48.66091849,4.473680973,-9.541379929,-1.970190287,2024-06-11 14:02:13.660918
48.70091849,4.867599487,-10.35105133,-2.458924294,2024-06-11 14:02:13.700918
48.74091849,3.620938778,-9.952048302,-1.209870934,2024-06-11 14:02:13.740918
48.78091849,1.719841242,-10.41087246,3.294916868,2024-06-11 14:02:13.780918
48.82091849,0.6900302172,-9.638289452,-1.824228168,2024-06-11 14:02:13.820918
48.86091849,2.18105793,-6.857231617,0.2778665423,2024-06-11 14:02:13.860918
48.90091849,2.989532709,-3.735794306,-3.330809116,2024-06-11 14:02:13.900918
48.94091849,2.074577332,-6.363711834,26.0712986,2024-06-11 14:02:13.940918
48.98091849,8.61655426,-6.830910206,-11.39073277,2024-06-11 14:02:13.980918
49.02091849,2.594418049,-6.25094986,-3.772883177,2024-06-11 14:02:14.020918
49.06091849,3.371786118,-14.35753441,8.140980721,2024-06-11 14:02:14.060918
49.10091849,-1.7883358,-15.92662716,-3.719044685,2024-06-11 14:02:14.100918
49.14091849,4.956432819,-12.49741364,2.69850564,2024-06-11 14:02:14.140918
49.18091849,7.683652401,-10.29212856,0.6550351977,2024-06-11 14:02:14.180918
49.22091849,2.89142704,-10.21555805,0.4025924206,2024-06-11 14:02:14.220918
49.26091849,0.727118969,-8.044071198,1.65762794,2024-06-11 14:02:14.260918
49.30091849,1.155733347,-9.039485931,0.561715126,2024-06-11 14:02:14.300918
49.34091849,1.137787223,-7.028318405,3.605086327,2024-06-11 14:02:14.340918
49.38091849,2.254039049,-9.822835922,2.271985054,2024-06-11 14:02:14.380918
49.42091849,2.254039049,-9.822835922,2.271985054,2024-06-11 14:02:14.420918
49.46091849,2.254039049,-9.822835922,2.271985054,2024-06-11 14:02:14.460918
49.50091849,2.254039049,-9.822835922,2.271985054,2024-06-11 14:02:14.500918
49.54091849,2.254039049,-9.822835922,2.271985054,2024-06-11 14:02:14.540918
49.58091849,9.832406998,-5.214858055,3.833899975,2024-06-11 14:02:14.580918
49.62091849,9.832406998,-5.214858055,3.833899975,2024-06-11 14:02:14.620918
49.66091849,9.832406998,-5.214858055,3.833899975,2024-06-11 14:02:14.660918
49.70091849,9.832406998,-5.214858055,3.833899975,2024-06-11 14:02:14.700918
49.74091849,9.832406998,-5.214858055,3.833899975,2024-06-11 14:02:14.740918
49.78091849,9.832406998,-5.214858055,3.833899975,2024-06-11 14:02:14.780918
49.82091849,5.452046394,-7.854739666,1.083948612,2024-06-11 14:02:14.820918
49.86091849,5.452046394,-7.854739666,1.083948612,2024-06-11 14:02:14.860918
49.90091849,5.452046394,-7.854739666,1.083948612,2024-06-11 14:02:14.900918
49.94091849,5.452046394,-7.854739666,1.083948612,2024-06-11 14:02:14.940918
49.98091849,5.452046394,-7.854739666,1.083948612,2024-06-11 14:02:14.980918
50.02091849,5.452046394,-7.854739666,1.083948612,2024-06-11 14:02:15.020918
50.06091849,5.452046394,-7.854739666,1.083948612,2024-06-11 14:02:15.060918
50.10091849,5.452046394,-7.854739666,1.083948612,2024-06-11 14:02:15.100918
50.14091849,5.452046394,-7.854739666,1.083948612,2024-06-11 14:02:15.140918
50.18091849,9.026325226,-10.22871876,6.457031727,2024-06-11 14:02:15.180918
50.22091849,8.035696983,-7.212864876,-2.044667006,2024-06-11 14:02:15.220918
50.26091849,2.183450699,-5.291727066,-3.750151396,2024-06-11 14:02:15.260918
50.30091849,3.085544825,-9.457332611,0.1558325738,2024-06-11 14:02:15.300918
50.34091849,3.110669374,-8.714959145,3.237488985,2024-06-11 14:02:15.340918
50.38091849,2.801397085,-5.542076111,-0.7091727853,2024-06-11 14:02:15.380918
50.42091849,3.101098061,-7.088139057,2.390728951,2024-06-11 14:02:15.420918
50.46091849,5.551647663,-6.707380772,3.048156977,2024-06-11 14:02:15.460918
50.50091849,5.755336761,-4.188635826,2.76311183,2024-06-11 14:02:15.500918
50.54091849,6.670292377,-6.826124668,8.162815094,2024-06-11 14:02:15.540918
50.58091849,5.194519043,-10.73180962,7.399804115,2024-06-11 14:02:15.580918
50.62091849,-0.6311069727,-10.15095139,10.04088211,2024-06-11 14:02:15.620918
50.66091849,2.709273338,-6.218647003,-8.115856171,2024-06-11 14:02:15.660918
50.70091849,8.902795792,-11.30070305,16.68814278,2024-06-11 14:02:15.700918
50.74091849,7.368697166,-7.826025486,-3.221935749,2024-06-11 14:02:15.740918
50.78091849,5.538486958,-9.436993599,6.823432922,2024-06-11 14:02:15.780918
50.82091849,1.765604019,-10.63490009,4.737190723,2024-06-11 14:02:15.820918
50.86091849,3.236292601,-9.193822861,0.5641079545,2024-06-11 14:02:15.860918
50.90091849,4.962415218,-7.132705212,4.062713623,2024-06-11 14:02:15.900918
50.94091849,3.806382656,-8.312366486,2.89980197,2024-06-11 14:02:15.940918
50.98091849,6.445067883,-9.643074989,0.1040877849,2024-06-11 14:02:15.980918
51.02091849,7.234400272,-11.29472065,1.624128342,2024-06-11 14:02:16.020918
51.06091849,4.09860611,-6.919445038,6.154040813,2024-06-11 14:02:16.060918
51.10091849,4.09860611,-6.919445038,6.154040813,2024-06-11 14:02:16.100918
51.14091849,4.09860611,-6.919445038,6.154040813,2024-06-11 14:02:16.140918
51.18091849,4.09860611,-6.919445038,6.154040813,2024-06-11 14:02:16.180918
51.22091849,4.09860611,-6.919445038,6.154040813,2024-06-11 14:02:16.220918
51.26091849,4.09860611,-6.919445038,6.154040813,2024-06-11 14:02:16.260918
51.30091849,4.09860611,-6.919445038,6.154040813,2024-06-11 14:02:16.300918
51.34091849,4.09860611,-6.919445038,6.154040813,2024-06-11 14:02:16.340918
51.38091849,4.09860611,-6.919445038,6.154040813,2024-06-11 14:02:16.380918
51.42091849,4.09860611,-6.919445038,6.154040813,2024-06-11 14:02:16.420918
51.46091849,4.09860611,-6.919445038,6.154040813,2024-06-11 14:02:16.460918
51.50091849,4.09860611,-6.919445038,6.154040813,2024-06-11 14:02:16.500918
51.54091849,4.09860611,-6.919445038,6.154040813,2024-06-11 14:02:16.540918
51.58091849,4.09860611,-6.919445038,6.154040813,2024-06-11 14:02:16.580918
51.62091849,4.09860611,-6.919445038,6.154040813,2024-06-11 14:02:16.620918
51.66091849,4.09860611,-6.919445038,6.154040813,2024-06-11 14:02:16.660918
51.70091849,4.09860611,-6.919445038,6.154040813,2024-06-11 14:02:16.700918
51.74091849,4.09860611,-6.919445038,6.154040813,2024-06-11 14:02:16.740918
51.78091849,4.09860611,-6.919445038,6.154040813,2024-06-11 14:02:16.780918
51.82091849,4.09860611,-6.919445038,6.154040813,2024-06-11 14:02:16.820918
51.86091849,2.381157637,-10.03101158,0.5306084156,2024-06-11 14:02:16.860918
51.90091849,4.317848682,-10.00947666,2.193022013,2024-06-11 14:02:16.900918
51.94091849,3.920340776,-8.455039024,0.7175477147,2024-06-11 14:02:16.940918
51.98091849,2.529512644,-7.870292664,0.7103692293,2024-06-11 14:02:16.980918
52.02091849,3.186043262,-9.441779137,1.692323804,2024-06-11 14:02:17.020918
52.06091849,3.108276606,-9.726823807,1.318744421,2024-06-11 14:02:17.060918
52.10091849,2.838784933,-9.029914856,1.675574064,2024-06-11 14:02:17.100918
52.14091849,2.580060959,-8.585447311,0.2060818523,2024-06-11 14:02:17.140918
52.18091849,1.680359721,-8.056035995,1.868495345,2024-06-11 14:02:17.180918
52.22091849,1.254138112,-9.991530418,1.60977149,2024-06-11 14:02:17.220918
52.26091849,2.432603359,-14.23280811,2.87467742,2024-06-11 14:02:17.260918
52.30091849,4.49521637,-11.67099285,6.033203125,2024-06-11 14:02:17.300918
52.34091849,6.166004658,-9.622735977,2.748754978,2024-06-11 14:02:17.340918
52.38091849,6.99003315,-10.66481018,-0.2084746659,2024-06-11 14:02:17.380918
52.42091849,5.113162994,-8.62014389,-2.663809776,2024-06-11 14:02:17.420918
52.46091849,2.357229471,-9.323334694,-1.394118309,2024-06-11 14:02:17.460918
52.50091849,2.11046958,-10.33071232,2.445763826,2024-06-11 14:02:17.500918
52.54091849,3.203989506,-8.465806961,0.4600201547,2024-06-11 14:02:17.540918
52.58091849,3.747758389,-6.012565136,-0.5102694035,2024-06-11 14:02:17.580918
52.62091849,4.641178608,-5.230710506,-1.523629785,2024-06-11 14:02:17.620918
52.66091849,3.721437454,-6.463014126,-1.351047516,2024-06-11 14:02:17.660918
52.70091849,1.983350873,-8.496912956,2.845963478,2024-06-11 14:02:17.700918
52.74091849,4.580161572,-13.26521015,13.3525486,2024-06-11 14:02:17.740918
52.78091849,4.580161572,-13.26521015,13.3525486,2024-06-11 14:02:17.780918
52.82091849,4.580161572,-13.26521015,13.3525486,2024-06-11 14:02:17.820918
52.86091849,4.580161572,-13.26521015,13.3525486,2024-06-11 14:02:17.860918
52.90091849,4.580161572,-13.26521015,13.3525486,2024-06-11 14:02:17.900918
52.94091849,4.580161572,-13.26521015,13.3525486,2024-06-11 14:02:17.940918
52.98091849,4.580161572,-13.26521015,13.3525486,2024-06-11 14:02:17.980918
53.02091849,4.580161572,-13.26521015,13.3525486,2024-06-11 14:02:18.020918
53.06091849,4.580161572,-13.26521015,13.3525486,2024-06-11 14:02:18.060918
53.10091849,4.580161572,-13.26521015,13.3525486,2024-06-11 14:02:18.100918
53.14091849,4.580161572,-13.26521015,13.3525486,2024-06-11 14:02:18.140918
53.18091849,4.580161572,-13.26521015,13.3525486,2024-06-11 14:02:18.180918
53.22091849,4.580161572,-13.26521015,13.3525486,2024-06-11 14:02:18.220918
53.26091849,4.580161572,-13.26521015,13.3525486,2024-06-11 14:02:18.260918
53.30091849,4.580161572,-13.26521015,13.3525486,2024-06-11 14:02:18.300918
53.34091849,4.580161572,-13.26521015,13.3525486,2024-06-11 14:02:18.340918
53.38091849,4.580161572,-13.26521015,13.3525486,2024-06-11 14:02:18.380918
53.42091849,4.580161572,-13.26521015,13.3525486,2024-06-11 14:02:18.420918
53.46091849,4.580161572,-13.26521015,13.3525486,2024-06-11 14:02:18.460918
53.50091849,4.580161572,-13.26521015,13.3525486,2024-06-11 14:02:18.500918
53.54091849,2.191825628,-9.59641552,0.8383852243,2024-06-11 14:02:18.540918
53.58091849,2.932105064,-9.483653069,0.7761718631,2024-06-11 14:02:18.580918
53.62091849,3.310470104,-9.16750145,2.079362869,2024-06-11 14:02:18.620918
53.66091849,2.338086843,-9.668199539,1.376172066,2024-06-11 14:02:18.660918
53.70091849,3.07836628,-9.118449211,0.9499505758,2024-06-11 14:02:18.700918
53.74091849,2.953640461,-9.122037888,0.6960122585,2024-06-11 14:02:18.740918
53.78091849,4.305884361,-8.793922424,-0.6598208547,2024-06-11 14:02:18.780918
53.82091849,6.046363831,-8.602197647,1.054038405,2024-06-11 14:02:18.820918
53.86091849,7.227221489,-8.548358917,0.9990034699,2024-06-11 14:02:18.860918
53.90091849,10.00947666,-9.464510918,1.49132669,2024-06-11 14:02:18.900918
53.94091849,5.733502388,-6.913462639,6.374479294,2024-06-11 14:02:18.940918
53.98091849,2.080559254,-7.530212879,6.792325974,2024-06-11 14:02:18.980918
54.02091849,3.233899832,-8.220243454,5.398207664,2024-06-11 14:02:19.020918
54.06091849,4.079463482,-5.720341682,3.554837227,2024-06-11 14:02:19.060918
54.10091849,6.333801746,-4.363312244,3.993321896,2024-06-11 14:02:19.100918
54.14091849,1.590628862,-6.847660065,2.933301449,2024-06-11 14:02:19.140918
54.18091849,2.629113913,-8.20468998,2.269592285,2024-06-11 14:02:19.180918
54.22091849,8.166404724,-7.191329479,-2.120040894,2024-06-11 14:02:19.220918
54.26091849,11.55105209,-9.413064957,4.952843666,2024-06-11 14:02:19.260918
54.30091849,3.859024763,-11.09462166,4.532305241,2024-06-11 14:02:19.300918
54.34091849,3.55244422,-6.688238621,2.523530483,2024-06-11 14:02:19.340918
54.38091849,3.125026464,-12.06012535,1.266102314,2024-06-11 14:02:19.380918
54.42091849,0.3568296731,-9.559326172,-0.8024929166,2024-06-11 14:02:19.420918
54.46091849,0.3568296731,-9.559326172,-0.8024929166,2024-06-11 14:02:19.460918
54.50091849,0.3568296731,-9.559326172,-0.8024929166,2024-06-11 14:02:19.500918
54.54091849,0.3568296731,-9.559326172,-0.8024929166,2024-06-11 14:02:19.540918
54.58091849,0.3568296731,-9.559326172,-0.8024929166,2024-06-11 14:02:19.580918
54.62091849,0.3568296731,-9.559326172,-0.8024929166,2024-06-11 14:02:19.620918
54.66091849,0.3568296731,-9.559326172,-0.8024929166,2024-06-11 14:02:19.660918
54.70091849,0.3568296731,-9.559326172,-0.8024929166,2024-06-11 14:02:19.700918
54.74091849,0.3568296731,-9.559326172,-0.8024929166,2024-06-11 14:02:19.740918
54.78091849,0.3568296731,-9.559326172,-0.8024929166,2024-06-11 14:02:19.780918
54.82091849,0.3568296731,-9.559326172,-0.8024929166,2024-06-11 14:02:19.820918
54.86091849,0.3568296731,-9.559326172,-0.8024929166,2024-06-11 14:02:19.860918
54.90091849,0.3568296731,-9.559326172,-0.8024929166,2024-06-11 14:02:19.900918
54.94091849,0.3568296731,-9.559326172,-0.8024929166,2024-06-11 14:02:19.940918
54.98091849,0.3568296731,-9.559326172,-0.8024929166,2024-06-11 14:02:19.980918
55.02091849,0.3568296731,-9.559326172,-0.8024929166,2024-06-11 14:02:20.020918
55.06091849,0.3568296731,-9.559326172,-0.8024929166,2024-06-11 14:02:20.060918
55.10091849,0.3568296731,-9.559326172,-0.8024929166,2024-06-11 14:02:20.100918
55.14091849,0.3568296731,-9.559326172,-0.8024929166,2024-06-11 14:02:20.140918
55.18091849,0.3568296731,-9.559326172,-0.8024929166,2024-06-11 14:02:20.180918
55.22091849,0.3568296731,-9.559326172,-0.8024929166,2024-06-11 14:02:20.220918
55.26091849,3.984946966,-9.362815857,-0.1677966863,2024-06-11 14:02:20.260918
55.30091849,4.41236496,-9.25394249,0.8060821295,2024-06-11 14:02:20.300918
55.34091849,3.740580082,-9.360423088,1.153340459,2024-06-11 14:02:20.340918
55.38091849,1.526022673,-9.471689224,0.3448655605,2024-06-11 14:02:20.380918
55.42091849,0.5126622319,-10.14975548,0.3424727321,2024-06-11 14:02:20.420918
55.46091849,1.107876897,-10.277771,0.7773682475,2024-06-11 14:02:20.460918
55.50091849,3.369393349,-8.948259354,1.331904888,2024-06-11 14:02:20.500918
55.54091849,5.615057468,-8.398508072,0.7630113363,2024-06-11 14:02:20.540918
55.58091849,3.497409344,-9.798908234,3.905983925,2024-06-11 14:02:20.580918
55.62091849,2.401496649,-7.47398138,-0.7558328509,2024-06-11 14:02:20.620918
55.66091849,4.431806564,-9.496813774,1.606182218,2024-06-11 14:02:20.660918
55.70091849,6.940980434,-9.591629982,-0.2670988142,2024-06-11 14:02:20.700918
55.74091849,6.937391281,-7.624729156,1.443171144,2024-06-11 14:02:20.740918
55.78091849,3.243471146,-16.26192093,1.000199914,2024-06-11 14:02:20.780918
55.82091849,0.6155536175,-8.892027855,1.111466169,2024-06-11 14:02:20.820918
55.86091849,4.394418716,-3.996911049,9.353244781,2024-06-11 14:02:20.860918
55.90091849,8.088338852,-12.03739357,10.11386299,2024-06-11 14:02:20.900918
55.94091849,3.402892828,-4.176671982,-3.080759048,2024-06-11 14:02:20.940918
55.98091849,7.730312824,-0.7881359458,0.499501735,2024-06-11 14:02:20.980918
56.02091849,5.503791332,-6.761219501,1.111466169,2024-06-11 14:02:21.020918
56.06091849,5.011467934,-2.358425856,3.02662158,2024-06-11 14:02:21.060918
56.10091849,8.263314247,-4.380061626,0.9281160831,2024-06-11 14:02:21.100918
56.14091849,8.263314247,-4.380061626,0.9281160831,2024-06-11 14:02:21.140918
56.18091849,8.263314247,-4.380061626,0.9281160831,2024-06-11 14:02:21.180918
56.22091849,8.263314247,-4.380061626,0.9281160831,2024-06-11 14:02:21.220918
56.26091849,8.263314247,-4.380061626,0.9281160831,2024-06-11 14:02:21.260918
56.30091849,8.263314247,-4.380061626,0.9281160831,2024-06-11 14:02:21.300918
56.34091849,8.263314247,-4.380061626,0.9281160831,2024-06-11 14:02:21.340918
56.38091849,8.263314247,-4.380061626,0.9281160831,2024-06-11 14:02:21.380918
56.42091849,8.263314247,-4.380061626,0.9281160831,2024-06-11 14:02:21.420918
56.46091849,8.263314247,-4.380061626,0.9281160831,2024-06-11 14:02:21.460918
56.50091849,8.263314247,-4.380061626,0.9281160831,2024-06-11 14:02:21.500918
56.54091849,8.263314247,-4.380061626,0.9281160831,2024-06-11 14:02:21.540918
56.58091849,8.263314247,-4.380061626,0.9281160831,2024-06-11 14:02:21.580918
56.62091849,8.263314247,-4.380061626,0.9281160831,2024-06-11 14:02:21.620918
56.66091849,8.263314247,-4.380061626,0.9281160831,2024-06-11 14:02:21.660918
56.70091849,8.263314247,-4.380061626,0.9281160831,2024-06-11 14:02:21.700918
56.74091849,8.263314247,-4.380061626,0.9281160831,2024-06-11 14:02:21.740918
56.78091849,8.263314247,-4.380061626,0.9281160831,2024-06-11 14:02:21.780918
56.82091849,1.676770449,-9.948459625,0.7438687682,2024-06-11 14:02:21.820918
56.86091849,1.676770449,-9.948459625,0.7438687682,2024-06-11 14:02:21.860918
56.90091849,1.676770449,-9.948459625,0.7438687682,2024-06-11 14:02:21.900918
56.94091849,4.898705959,-9.220144272,-0.3520440459,2024-06-11 14:02:21.940918
56.98091849,2.451745987,-9.576076508,0.1414756328,2024-06-11 14:02:21.980918
57.02091849,1.409671664,-9.674181938,0.7761718631,2024-06-11 14:02:22.020918
57.06091849,3.254238844,-8.966505051,-0.2012962103,2024-06-11 14:02:22.060918
57.10091849,3.595515013,-8.762815475,0.07896314561,2024-06-11 14:02:22.100918
57.14091849,2.165504456,-10.02981567,1.013360381,2024-06-11 14:02:22.140918
57.18091849,2.123630047,-10.1270237,2.207378864,2024-06-11 14:02:22.180918
57.22091849,4.292723656,-8.626125336,0.8228318691,2024-06-11 14:02:22.220918
57.26091849,7.144669533,-8.28126049,1.790728688,2024-06-11 14:02:22.260918
57.30091849,9.062217712,-6.805486679,1.687538147,2024-06-11 14:02:22.300918
57.34091849,3.573979616,-6.422336102,6.914659023,2024-06-11 14:02:22.340918
57.38091849,-0.7594220638,-9.237193108,0.9305089116,2024-06-11 14:02:22.380918
57.42091849,-0.02632104978,-8.963812828,-4.691727161,2024-06-11 14:02:22.420918
57.46091849,8.601000786,-10.42762184,9.119645119,2024-06-11 14:02:22.460918
57.50091849,0.1725823283,-13.32503128,4.747958183,2024-06-11 14:02:22.500918
57.54091849,3.457927704,-6.745666027,0.5461617708,2024-06-11 14:02:22.540918
57.58091849,7.139883518,-7.180561543,3.769293785,2024-06-11 14:02:22.580918
57.62091849,2.134397745,-10.72223854,0.8132606149,2024-06-11 14:02:22.620918
57.66091849,1.196411371,-10.15454102,1.323530078,2024-06-11 14:02:22.660918
57.70091849,2.963211775,-8.963812828,1.750050664,2024-06-11 14:02:22.700918
57.74091849,4.090231419,-9.180662155,0.6382854581,2024-06-11 14:02:22.740918
57.78091849,3.961018801,-7.639385223,-0.4767699242,2024-06-11 14:02:22.780918
57.82091849,3.774079561,-7.598408222,1.003789067,2024-06-11 14:02:22.820918
57.86091849,3.774079561,-7.598408222,1.003789067,2024-06-11 14:02:22.860918
57.90091849,3.774079561,-7.598408222,1.003789067,2024-06-11 14:02:22.900918
57.94091849,3.774079561,-7.598408222,1.003789067,2024-06-11 14:02:22.940918
57.98091849,3.774079561,-7.598408222,1.003789067,2024-06-11 14:02:22.980918
58.02091849,3.774079561,-7.598408222,1.003789067,2024-06-11 14:02:23.020918
58.06091849,3.774079561,-7.598408222,1.003789067,2024-06-11 14:02:23.060918
58.10091849,3.774079561,-7.598408222,1.003789067,2024-06-11 14:02:23.100918
58.14091849,3.774079561,-7.598408222,1.003789067,2024-06-11 14:02:23.140918
58.18091849,3.774079561,-7.598408222,1.003789067,2024-06-11 14:02:23.180918
58.22091849,3.774079561,-7.598408222,1.003789067,2024-06-11 14:02:23.220918
58.26091849,3.774079561,-7.598408222,1.003789067,2024-06-11 14:02:23.260918
58.30091849,3.774079561,-7.598408222,1.003789067,2024-06-11 14:02:23.300918
58.34091849,3.774079561,-7.598408222,1.003789067,2024-06-11 14:02:23.340918
58.38091849,3.774079561,-7.598408222,1.003789067,2024-06-11 14:02:23.380918
58.42091849,3.774079561,-7.598408222,1.003789067,2024-06-11 14:02:23.420918
58.46091849,3.774079561,-7.598408222,1.003789067,2024-06-11 14:02:23.460918
58.50091849,3.774079561,-7.598408222,1.003789067,2024-06-11 14:02:23.500918
58.54091849,3.774079561,-7.598408222,1.003789067,2024-06-11 14:02:23.540918
58.58091849,3.774079561,-7.598408222,1.003789067,2024-06-11 14:02:23.580918
58.62091849,6.169594288,-9.034700394,1.221835017,2024-06-11 14:02:23.620918
58.66091849,6.201897144,-6.742076874,0.9858429432,2024-06-11 14:02:23.660918
58.70091849,4.889134884,-8.769993782,0.9726824164,2024-06-11 14:02:23.700918
58.74091849,2.534298182,-8.810671806,0.4121637046,2024-06-11 14:02:23.740918
58.78091849,2.653042078,-8.088338852,0.1148554832,2024-06-11 14:02:23.780918
58.82091849,1.752443433,-9.937691689,-1.992922187,2024-06-11 14:02:23.820918
58.86091849,1.673181176,-11.34616661,-2.284248352,2024-06-11 14:02:23.860918
58.90091849,0.7929216027,-10.44197845,-2.587239504,2024-06-11 14:02:23.900918
58.94091849,0.7426723242,-9.110074043,-1.910369754,2024-06-11 14:02:23.940918
58.98091849,5.224728107,-8.914759636,4.946562767,2024-06-11 14:02:23.980918
59.02091849,3.218346357,-9.807282448,3.055335522,2024-06-11 14:02:24.020918
59.06091849,0.2958126962,-9.757930756,1.159322619,2024-06-11 14:02:24.060918
59.10091849,2.501995087,-9.057432175,-1.472184181,2024-06-11 14:02:24.100918
59.14091849,5.16221571,-8.789136887,0.01555334684,2024-06-11 14:02:24.140918
59.18091849,3.31525588,-7.89930582,1.358225942,2024-06-11 14:02:24.180918
59.22091849,0.3197409213,-9.742377281,1.683948994,2024-06-11 14:02:24.220918
59.26091849,2.660220623,-8.900403023,-0.3496512175,2024-06-11 14:02:24.260918
59.30091849,2.194218397,-7.962715626,0.8958129883,2024-06-11 14:02:24.300918
59.34091849,2.199003935,-8.12183857,0.3364906907,2024-06-11 14:02:24.340918
59.38091849,2.433799744,-8.388936996,-0.6478567123,2024-06-11 14:02:24.380918
59.42091849,1.819442511,-9.611968994,-2.721237659,2024-06-11 14:02:24.420918
59.46091849,0.8635098934,-10.06122112,-2.109273195,2024-06-11 14:02:24.460918
59.50091849,3.380161047,-10.54008484,-0.05264209956,2024-06-11 14:02:24.500918
59.54091849,3.380161047,-10.54008484,-0.05264209956,2024-06-11 14:02:24.540918
59.58091849,-2.372782707,-14.00160217,1.313958764,2024-06-11 14:02:24.580918
59.62091849,-2.372782707,-14.00160217,1.313958764,2024-06-11 14:02:24.620918
59.66091849,-2.372782707,-14.00160217,1.313958764,2024-06-11 14:02:24.660918
59.70091849,-2.372782707,-14.00160217,1.313958764,2024-06-11 14:02:24.700918
59.74091849,-2.372782707,-14.00160217,1.313958764,2024-06-11 14:02:24.740918
59.78091849,-2.372782707,-14.00160217,1.313958764,2024-06-11 14:02:24.780918
59.82091849,2.306980133,-2.699702263,-4.147658825,2024-06-11 14:02:24.820918
59.86091849,2.306980133,-2.699702263,-4.147658825,2024-06-11 14:02:24.860918
59.90091849,2.306980133,-2.699702263,-4.147658825,2024-06-11 14:02:24.900918
59.94091849,2.306980133,-2.699702263,-4.147658825,2024-06-11 14:02:24.940918
59.98091849,2.306980133,-2.699702263,-4.147658825,2024-06-11 14:02:24.980918
60.02091849,2.306980133,-2.699702263,-4.147658825,2024-06-11 14:02:25.020918
60.06091849,2.306980133,-2.699702263,-4.147658825,2024-06-11 14:02:25.060918
60.10091849,2.306980133,-2.699702263,-4.147658825,2024-06-11 14:02:25.100918
60.14091849,2.306980133,-2.699702263,-4.147658825,2024-06-11 14:02:25.140918
60.18091849,2.306980133,-2.699702263,-4.147658825,2024-06-11 14:02:25.180918
60.22091849,2.306980133,-2.699702263,-4.147658825,2024-06-11 14:02:25.220918
60.26091849,2.306980133,-2.699702263,-4.147658825,2024-06-11 14:02:25.260918
60.30091849,4.036392689,-9.383154869,-3.389732361,2024-06-11 14:02:25.300918
60.34091849,5.017449856,-10.31874847,-3.378964663,2024-06-11 14:02:25.340918
60.38091849,6.209075451,-16.06900024,23.74667168,2024-06-11 14:02:25.380918
60.42091849,6.007779598,-8.234600067,-3.697509289,2024-06-11 14:02:25.420918
60.46091849,1.087537885,-7.031907558,-4.852046013,2024-06-11 14:02:25.460918
60.50091849,0.9595218897,-2.499602318,-4.656732082,2024-06-11 14:02:25.500918
60.54091849,-0.7869395614,-1.143769264,-1.868495345,2024-06-11 14:02:25.540918
60.58091849,-0.9619147182,-2.065006018,-0.8407780528,2024-06-11 14:02:25.580918
60.62091849,-2.358425856,-8.664410591,-4.403990269,2024-06-11 14:02:25.620918
60.66091849,8.168797493,-20.02882195,-6.516852379,2024-06-11 14:02:25.660918
60.70091849,4.567001343,-24.61376953,-1.529611826,2024-06-11 14:02:25.700918
60.74091849,16.97677803,-6.851249218,7.662117004,2024-06-11 14:02:25.740918
60.78091849,1.542772412,-5.682056427,-0.3987040818,2024-06-11 14:02:25.780918
60.82091849,3.486641645,-4.057928085,3.742972851,2024-06-11 14:02:25.820918
60.86091849,2.653042078,-5.908477306,0.4456632137,2024-06-11 14:02:25.860918
60.90091849,6.775576591,-8.665607452,-2.332104683,2024-06-11 14:02:25.900918
60.94091849,5.076074123,-8.889635086,-2.381157637,2024-06-11 14:02:25.940918
60.98091849,2.105684042,-8.443074226,-0.7199404836,2024-06-11 14:02:25.980918
61.02091849,1.912762642,-9.222537041,-0.2862414122,2024-06-11 14:02:26.020918
61.06091849,0.2742772996,-10.34746265,-1.486541033,2024-06-11 14:02:26.060918
61.10091849,4.540679932,-14.21964741,-3.625724554,2024-06-11 14:02:26.100918
61.14091849,10.77488041,-11.87557888,-8.412865639,2024-06-11 14:02:26.140918
61.18091849,11.0491581,-5.528915882,-4.674678326,2024-06-11 14:02:26.180918
61.22091849,11.0491581,-5.528915882,-4.674678326,2024-06-11 14:02:26.220918
61.26091849,11.0491581,-5.528915882,-4.674678326,2024-06-11 14:02:26.260918
61.30091849,11.0491581,-5.528915882,-4.674678326,2024-06-11 14:02:26.300918
61.34091849,11.0491581,-5.528915882,-4.674678326,2024-06-11 14:02:26.340918
61.38091849,11.0491581,-5.528915882,-4.674678326,2024-06-11 14:02:26.380918
61.42091849,11.0491581,-5.528915882,-4.674678326,2024-06-11 14:02:26.420918
61.46091849,11.0491581,-5.528915882,-4.674678326,2024-06-11 14:02:26.460918
61.50091849,11.0491581,-5.528915882,-4.674678326,2024-06-11 14:02:26.500918
61.54091849,11.0491581,-5.528915882,-4.674678326,2024-06-11 14:02:26.540918
61.58091849,11.0491581,-5.528915882,-4.674678326,2024-06-11 14:02:26.580918
61.62091849,11.0491581,-5.528915882,-4.674678326,2024-06-11 14:02:26.620918
61.66091849,11.0491581,-5.528915882,-4.674678326,2024-06-11 14:02:26.660918
61.70091849,11.0491581,-5.528915882,-4.674678326,2024-06-11 14:02:26.700918
61.74091849,11.0491581,-5.528915882,-4.674678326,2024-06-11 14:02:26.740918
