Time (s),Gyroscope x (rad/s),Gyroscope y (rad/s),Gyroscope z (rad/s),Datetime
0.127108285,-0.9424648881,-2.250171661,-0.3704347908,2024-06-11 14:01:25.127108
0.167424743,-1.420088768,-3.251224279,-0.134485662,2024-06-11 14:01:25.167425
0.207921514,-1.767354727,-2.0666852,1.038335919,2024-06-11 14:01:25.207922
0.24843266,-1.616624236,-0.7559159994,2.402366877,2024-06-11 14:01:25.248433
0.288874171,-1.995714068,-1.331008673,0.8133054376,2024-06-11 14:01:25.288874
0.329368858,-0.3093170524,1.710631132,2.375735998,2024-06-11 14:01:25.329369
0.369489171,2.019814968,0.7174344659,2.59663868,2024-06-11 14:01:25.369489
0.410357087,2.493976831,1.564427853,1.200783968,2024-06-11 14:01:25.410357
0.450836254,1.783466339,0.4232969582,1.469888449,2024-06-11 14:01:25.450836
0.491287608,2.794905186,-0.3395430148,1.044461012,2024-06-11 14:01:25.491288
0.531835473,0.6640396118,-1.250450373,0.7770875096,2024-06-11 14:01:25.531835
0.572278337,-0.6798849702,0.6426018476,1.305176735,2024-06-11 14:01:25.572278
0.612755889,-2.158428431,1.005313635,2.15310216,2024-06-11 14:01:25.612756
0.653111671,-1.584667325,-1.735797167,1.604107738,2024-06-11 14:01:25.653112
0.693541046,-2.833919287,-0.6786866188,1.780137539,2024-06-11 14:01:25.693541
0.73399365,-5.585016727,1.044194698,1.828339338,2024-06-11 14:01:25.733994
0.774484691,-4.839753151,1.0316782,1.760963321,2024-06-11 14:01:25.774485
0.814957087,-4.485163689,3.879179239,1.641124606,2024-06-11 14:01:25.814957
0.854977712,-3.850151539,3.912201405,1.481606007,2024-06-11 14:01:25.854978
0.895960993,-2.234326363,3.029256344,2.248706818,2024-06-11 14:01:25.895961
0.936438754,-0.7432663441,3.417001247,1.923278213,2024-06-11 14:01:25.936439
0.976908546,0.1848179251,2.603828907,2.028470039,2024-06-11 14:01:25.976909
1.017402712,0.6244928837,2.139520645,0.9493889213,2024-06-11 14:01:26.017403
1.057873025,0.3198362291,1.912892222,0.5159722567,2024-06-11 14:01:26.057873
1.098304952,-0.1170424819,0.9264864326,0.8034520149,2024-06-11 14:01:26.098305
1.13881766,-0.261115253,0.8372731805,0.8830781579,2024-06-11 14:01:26.138818
1.179306931,-0.4507267177,0.672162056,0.5284887552,2024-06-11 14:01:26.179307
1.219775004,-0.2651098669,0.5840139985,0.06631075591,2024-06-11 14:01:26.219775
1.260293546,0.4031907022,0.6183677912,0.01438064594,2024-06-11 14:01:26.260294
1.300820889,0.5603125691,0.682015419,-0.1102516204,2024-06-11 14:01:26.300821
1.341255421,0.418902874,-0.2127802968,-0.1826874614,2024-06-11 14:01:26.341255
1.381722868,0.3142437339,-0.6701647043,-1.166163802,2024-06-11 14:01:26.381723
1.422272868,-0.7360759974,-0.05712312087,-1.70490551,2024-06-11 14:01:26.422273
1.462570473,-1.599314213,-0.4902735054,-0.8935973644,2024-06-11 14:01:26.462570
1.503207868,-0.5734948516,-1.394389987,-1.377612591,2024-06-11 14:01:26.503208
1.543692921,-0.3213009238,0.8178326488,-2.344844103,2024-06-11 14:01:26.543693
1.584050108,-0.5436683297,1.508236766,-2.023543358,2024-06-11 14:01:26.584050
1.624741462,0.06657706201,-0.6170362234,-1.618088961,2024-06-11 14:01:26.624741
1.665135316,0.4910724163,-1.23021102,-1.972412109,2024-06-11 14:01:26.665135
1.705611983,-0.4493951797,-0.2186390758,-1.968950033,2024-06-11 14:01:26.705612
1.746082816,-0.01424749196,-0.1885462403,-1.556838036,2024-06-11 14:01:26.746083
1.786587243,-0.2773600519,-0.46018067,-1.689193249,2024-06-11 14:01:26.786587
1.827145108,-0.6117100716,-0.06497921795,-2.540847063,2024-06-11 14:01:26.827145
1.867456566,-0.1945381761,-0.6279548407,-2.528863192,2024-06-11 14:01:26.867457
1.908010629,-0.4768249393,0.6055849791,-1.383737683,2024-06-11 14:01:26.908011
1.948485473,-0.9757534266,-0.3169068098,-1.188267469,2024-06-11 14:01:26.948485
1.988996462,-0.4584496617,0.6889394522,-1.611963868,2024-06-11 14:01:26.988996
2.029486514,0.4564523399,-1.693454146,-1.33526957,2024-06-11 14:01:27.029487
2.069960056,1.698514104,-4.129375935,-1.64179039,2024-06-11 14:01:27.069960
2.110391618,0.7607095242,-0.2607157826,1.264697909,2024-06-11 14:01:27.110392
2.150933493,-0.977883935,2.278799772,4.165726662,2024-06-11 14:01:27.150933
2.191420368,-3.758807898,-0.5057193637,-0.6616428494,2024-06-11 14:01:27.191420
2.231902296,-2.85202837,-7.788717747,-1.495320916,2024-06-11 14:01:27.231902
2.272237087,-0.5599130988,-2.183860779,-1.72567749,2024-06-11 14:01:27.272237
2.31273391,2.452832222,5.384886265,-2.384257793,2024-06-11 14:01:27.312734
2.353262504,3.27066493,4.134835243,-0.9812127948,2024-06-11 14:01:27.353263
2.393745577,0.5347470045,-1.570153475,-1.068828225,2024-06-11 14:01:27.393746
2.434294796,-0.7752233148,-0.6762897968,0.3023930192,2024-06-11 14:01:27.434295
2.474772764,-0.8268871307,0.6479279995,0.3609808385,2024-06-11 14:01:27.474773
2.515242243,-0.4736292362,-0.4758928418,0.09453943372,2024-06-11 14:01:27.515242
2.555732973,-0.2557890713,-2.220078707,-0.07882724702,2024-06-11 14:01:27.555733
2.596052764,-0.2717675865,-0.3653749228,0.2123808414,2024-06-11 14:01:27.596053
2.636744952,-0.2746969759,1.387066603,0.3370130956,2024-06-11 14:01:27.636745
2.677168546,-0.2773600519,1.187867999,0.4267589748,2024-06-11 14:01:27.677169
2.717640212,0.004394086078,-0.5507254601,0.3908073604,2024-06-11 14:01:27.717640
2.758153858,-0.02117150649,-0.909309566,0.5908048749,2024-06-11 14:01:27.758154
2.798651983,0.02676397935,-0.9149020314,0.5071840882,2024-06-11 14:01:27.798652
2.838980264,0.272167027,-0.4561860561,0.2022611201,2024-06-11 14:01:27.838980
2.87952016,0.05912043154,1.997844577,0.1721682847,2024-06-11 14:01:27.879520
2.920046879,-0.06324820966,2.213021517,0.03621792421,2024-06-11 14:01:27.920047
2.960557296,-0.2632457018,0.7592448592,-0.0820229426,2024-06-11 14:01:27.960557
3.001032556,-0.4296883643,-0.6853442788,-0.239144817,2024-06-11 14:01:28.001033
3.041472712,-0.6516563296,-2.258427143,-0.2394111156,2024-06-11 14:01:28.041473
3.081985629,-0.4118457139,-0.9969249368,-0.181622237,2024-06-11 14:01:28.081986
3.122398546,-0.3995955288,0.2121145278,0.203592658,2024-06-11 14:01:28.122399
3.162745212,-0.03768261895,1.543123245,0.3695026934,2024-06-11 14:01:28.162745
3.203421879,-0.1364829838,0.9408670664,0.1908098608,2024-06-11 14:01:28.203422
3.243937296,0.0929415822,0.2390116602,0.04793548584,2024-06-11 14:01:28.243937
3.284404952,0.1547250897,-0.1022623703,-0.018907886,2024-06-11 14:01:28.284405
3.324887712,0.1347519755,-0.1525946259,0.0298265256,2024-06-11 14:01:28.324888
3.365385421,0.06045197323,-0.09959928691,0.1463363916,2024-06-11 14:01:28.365385
3.405831723,-0.1756303012,-0.1584534049,0.2328865677,2024-06-11 14:01:28.405832
3.446292243,-0.2914743721,-0.2439383566,0.2288919389,2024-06-11 14:01:28.446292
3.486791098,-0.1607170254,-0.1163767055,0.1695052087,2024-06-11 14:01:28.486791
3.527260212,-0.1029281393,0.02170412242,0.1045259908,2024-06-11 14:01:28.527260
3.567753962,-0.02809552103,0.15512456,0.06710968167,2024-06-11 14:01:28.567754
3.608296254,0.08362079412,0.1934729517,0.07430000603,2024-06-11 14:01:28.608296
3.648707556,0.07483261824,0.2059894353,0.1175750941,2024-06-11 14:01:28.648708
3.689192973,0.06231613085,-0.03741630912,0.06444659829,2024-06-11 14:01:28.689193
3.729662243,0.2500634491,-0.1105179265,0.07509893179,2024-06-11 14:01:28.729662
3.770120368,0.3637770712,0.008122402243,0.03888100386,2024-06-11 14:01:28.770120
3.810672139,0.2881455421,-0.002263620263,0.01438064594,2024-06-11 14:01:28.810672
3.851024327,0.01744319126,-0.137681365,0.0708379969,2024-06-11 14:01:28.851024
3.891561775,-0.4667052329,-0.3845491111,0.1716356725,2024-06-11 14:01:28.891562
3.931914118,-0.6378082633,-0.5738942623,0.0957378149,2024-06-11 14:01:28.931914
3.972536358,-0.1649779677,0.02623136342,-0.0708379969,2024-06-11 14:01:28.972536
4.013064848,0.1613828093,1.409969091,-0.1744319052,2024-06-11 14:01:29.013065
4.053460941,-0.008388710208,1.415561557,-0.2777595222,2024-06-11 14:01:29.053461
4.094005629,0.07483261824,1.042330503,-0.3991960883,2024-06-11 14:01:29.094006
4.134418702,0.04553871229,0.5973294377,-0.4889419675,2024-06-11 14:01:29.134419
4.174906671,-0.2097177505,-0.01904104091,-0.4529903531,2024-06-11 14:01:29.174907
4.215400785,-0.334882617,-0.1414096802,-0.2074541301,2024-06-11 14:01:29.215401
4.255854952,0.02197043039,0.5034557581,0.09999874979,2024-06-11 14:01:29.255855
4.296362973,-0.2856155932,0.2312887162,0.3079854846,2024-06-11 14:01:29.296363
4.336814223,-0.418769747,-0.985740006,-0.08894696087,2024-06-11 14:01:29.336814
4.377313962,0.3507279754,-0.1597849578,-0.5049204826,2024-06-11 14:01:29.377314
4.417797087,0.05752258375,0.5643072128,-0.2537917793,2024-06-11 14:01:29.417797
4.458289691,0.2308892608,-0.5328828096,0.1282274276,2024-06-11 14:01:29.458290
4.498753546,0.2591179311,-0.7157034278,0.391073674,2024-06-11 14:01:29.498754
4.539236879,-0.2957353294,-0.172567755,0.3428718746,2024-06-11 14:01:29.539237
4.579725212,-0.0736342296,-0.7239589691,-0.4354139864,2024-06-11 14:01:29.579725
4.620185212,0.01850842312,-1.15750885,-0.3523258269,2024-06-11 14:01:29.620185
4.66071516,-0.05792204663,-0.6683005691,-0.3725652397,2024-06-11 14:01:29.660715
4.701198233,0.4268921316,0.3796224296,-0.1070559174,2024-06-11 14:01:29.701198
4.741576514,0.3792229593,0.7027874589,-0.08521863818,2024-06-11 14:01:29.741577
4.782117348,0.4758928418,0.1591191888,-0.0929415822,2024-06-11 14:01:29.782117
4.822587296,0.5539211631,-0.09853405505,-0.1597849578,2024-06-11 14:01:29.822587
4.863040629,0.3472659588,0.4251611233,-0.1664426625,2024-06-11 14:01:29.863041
4.903563754,0.03675054014,0.8204957247,-0.1773612946,2024-06-11 14:01:29.903564
4.944036098,-0.2613815665,-0.921826005,-0.0260982085,2024-06-11 14:01:29.944036
4.984525421,1.156443596,-3.128456354,-0.04687025398,2024-06-11 14:01:29.984525
5.025027087,1.729139447,1.4187572,0.02583190054,2024-06-11 14:01:30.025027
5.06550141,0.4287562966,4.817649364,0.6744256616,2024-06-11 14:01:30.065501
5.105964587,-0.2587184608,4.63136673,0.7222279906,2024-06-11 14:01:30.105965
5.146452296,-0.5644403696,2.043649673,0.3388772607,2024-06-11 14:01:30.146452
5.186924014,-0.6886731386,0.02676397935,0.05539211631,2024-06-11 14:01:30.186924
5.22741615,-0.6913362145,-0.7319482565,-0.3382114768,2024-06-11 14:01:30.227416
5.267898025,-0.4957328141,-1.196389794,-0.6238270998,2024-06-11 14:01:30.267898
5.308374014,-1.218759775,-3.651485682,-1.33899796,2024-06-11 14:01:30.308374
5.348872087,0.2700365782,-7.334262371,-0.1504641622,2024-06-11 14:01:30.348872
5.389358233,1.417292595,1.309304595,-0.3432713449,2024-06-11 14:01:30.389358
5.429790421,-0.5194342732,2.234326363,-0.1427412182,2024-06-11 14:01:30.429790
5.47029365,-0.6761566401,-1.193993092,0.3476654291,2024-06-11 14:01:30.470294
5.510792139,1.032343984,-2.164420366,-0.02929390781,2024-06-11 14:01:30.510792
5.551264691,0.1760297567,-1.183074474,0.07563154399,2024-06-11 14:01:30.551265
5.591767608,0.8326127529,1.098787904,0.1151783243,2024-06-11 14:01:30.591768
5.63220516,2.096245527,1.876407981,-0.1195724085,2024-06-11 14:01:30.632205
5.672705837,1.626877189,2.229266405,-0.5292876363,2024-06-11 14:01:30.672706
5.713174066,0.317972064,4.247084141,-0.4876104295,2024-06-11 14:01:30.713174
5.753644952,-0.3402087986,2.682656288,-0.6025224328,2024-06-11 14:01:30.753645
5.794155629,3.216870546,-2.084527969,-1.71156311,2024-06-11 14:01:30.794156
5.834615316,1.238732815,-0.4002613127,-1.116231084,2024-06-11 14:01:30.834615
5.875105681,-1.375881553,3.174660683,-0.1946713328,2024-06-11 14:01:30.875106
5.915580889,-0.1189066395,-0.03129122034,-1.08107841,2024-06-11 14:01:30.915581
5.956048181,0.08894696087,-4.958393574,-2.175338984,2024-06-11 14:01:30.956048
5.996546775,-0.6764229536,-1.891986966,0.04021254554,2024-06-11 14:01:30.996547
6.03703141,-2.289185762,1.583868384,0.9168993235,2024-06-11 14:01:31.037031
6.077490004,1.297986388,-1.879603624,-0.1459369212,2024-06-11 14:01:31.077490
6.117974431,0.8605751395,-1.44951582,-0.73221457,2024-06-11 14:01:31.117974
6.158455577,-2.500235081,7.211361408,1.003982067,2024-06-11 14:01:31.158456
6.198932608,-0.7051842809,2.691977024,1.308106184,2024-06-11 14:01:31.198933
6.239436306,0.743932128,0.01398118306,-0.5580489635,2024-06-11 14:01:31.239436
6.279891931,-0.638607204,-0.3075860441,-0.1738992929,2024-06-11 14:01:31.279892
6.320394327,-0.8780183196,2.040187597,0.7648373246,2024-06-11 14:01:31.320394
6.360870889,0.2567211688,-0.8065145612,0.1639127284,2024-06-11 14:01:31.360871
6.401316046,0.139012903,-2.62073946,0.112781547,2024-06-11 14:01:31.401316
6.441757816,-0.1569887102,-0.47056669,0.1727008969,2024-06-11 14:01:31.441758
6.482239483,-0.06963960826,-0.1920082569,0.1950708032,2024-06-11 14:01:31.482239
6.522699431,0.3499290347,-1.658035159,0.05166380107,2024-06-11 14:01:31.522699
6.563272608,0.5185021758,-2.263487101,0.02157096937,2024-06-11 14:01:31.563273
6.60376865,0.762839973,-2.222741842,0.002130466048,2024-06-11 14:01:31.603769
6.644211566,1.306508303,-2.940043211,0.1593854874,2024-06-11 14:01:31.644212
6.684690473,1.684399724,-2.559488535,0.3553883731,2024-06-11 14:01:31.684690
6.72518016,1.786662102,-1.122888803,0.5015916228,2024-06-11 14:01:31.725180
6.765674014,1.082676172,-0.06524552405,0.3908073604,2024-06-11 14:01:31.765674
6.806153233,0.2679060996,0.1561897993,0.8082455397,2024-06-11 14:01:31.806153
6.846578598,-0.003062544856,0.6828143597,0.6355446577,2024-06-11 14:01:31.846579
6.88710766,0.528621912,-0.1640458852,0.3998618424,2024-06-11 14:01:31.887108
6.927580316,-0.6732272506,-1.448716879,0.6512568593,2024-06-11 14:01:31.927580
6.968052608,-1.678407788,-0.3605813682,0.8900021911,2024-06-11 14:01:31.968053
7.008553441,-1.26802671,-0.6308842301,0.5745600462,2024-06-11 14:01:32.008553
7.049011254,-0.8516538143,-2.097577095,0.6488600373,2024-06-11 14:01:32.049011
7.089481566,-1.236336112,-1.360568881,0.5521901846,2024-06-11 14:01:32.089482
7.129973493,-0.2912080884,0.5736280084,-0.2079867423,2024-06-11 14:01:32.129973
7.170499535,0.4396749437,-0.7780195475,-0.6600450277,2024-06-11 14:01:32.170500
7.210975733,-0.2432725877,1.176683068,-0.6792191863,2024-06-11 14:01:32.210976
7.251406931,0.09853405505,2.341648579,-0.5212984085,2024-06-11 14:01:32.251407
7.291882504,-0.5391410589,0.5047873259,-0.4577838778,2024-06-11 14:01:32.291883
7.332396098,-1.71116364,-2.036592484,0.08441971987,2024-06-11 14:01:32.332396
7.372844171,-0.2278267145,-0.5006595254,-0.03808208182,2024-06-11 14:01:32.372844
7.413341254,-0.01877473295,0.8420667052,0.3460675776,2024-06-11 14:01:32.413341
7.453796462,-0.9275516272,-0.1659100503,0.3535242081,2024-06-11 14:01:32.453796
7.494289431,-0.5034557581,-0.1438064575,0.3415403366,2024-06-11 14:01:32.494289
7.534773754,-0.03448691964,-0.7817478776,0.1386134475,2024-06-11 14:01:32.534774
7.575259275,-0.1881467849,-0.6535204649,0.04740286991,2024-06-11 14:01:32.575259
7.615783233,-0.2632457018,-0.1158440933,-0.1195724085,2024-06-11 14:01:32.615783
7.656216723,-0.04487293959,-0.9207608104,-0.3898752928,2024-06-11 14:01:32.656217
7.696681827,-0.1572550237,-1.524348497,-0.5115781426,2024-06-11 14:01:32.696682
7.737160889,-0.2629793882,-0.8483249545,-0.2886781394,2024-06-11 14:01:32.737161
7.777650525,-0.3455349505,-0.3544562757,-0.3736304939,2024-06-11 14:01:32.777651
7.818141462,-0.5951989293,-1.013169765,-0.455653429,2024-06-11 14:01:32.818141
7.85858266,-0.8157021999,-1.270689845,-0.2324871123,2024-06-11 14:01:32.858583
7.899107504,-0.4209001958,-2.385722399,-0.8800156116,2024-06-11 14:01:32.899108
7.939557296,0.4926702678,-3.486108303,-1.578675389,2024-06-11 14:01:32.939557
7.980041618,1.949243307,-3.855610847,-2.142583132,2024-06-11 14:01:32.980042
8.020536879,3.541766644,-2.156697512,-2.630859375,2024-06-11 14:01:33.020537
8.061088181,3.896089792,2.190651655,-1.587197185,2024-06-11 14:01:33.061088
8.101452868,3.820458174,2.295310974,-0.8914669156,2024-06-11 14:01:33.101453
8.141941931,3.781311035,-0.3738967776,-0.3288906813,2024-06-11 14:01:33.141942
8.182445941,4.766518116,0.8284850121,1.834730744,2024-06-11 14:01:33.182446
8.222921879,3.594495773,0.2483324558,3.450289726,2024-06-11 14:01:33.222922
8.263411879,3.404351473,-2.429929733,2.884784222,2024-06-11 14:01:33.263412
8.303895577,3.056419849,-3.729380846,0.4672378302,2024-06-11 14:01:33.303896
8.344362296,1.675078988,-3.315670967,0.09919982404,2024-06-11 14:01:33.344362
8.38483641,0.7527202964,-5.441476822,0.6978607774,2024-06-11 14:01:33.384836
8.425333129,0.133154124,-5.49686861,1.869084477,2024-06-11 14:01:33.425333
8.465815056,3.154820681,2.244446039,0.2720338702,2024-06-11 14:01:33.465815
8.506302296,-3.116339207,1.661097765,1.175484657,2024-06-11 14:01:33.506302
8.546781098,-3.259613037,5.790340424,2.759352922,2024-06-11 14:01:33.546781
8.587259796,-1.710364819,0.9648348093,0.7573806643,2024-06-11 14:01:33.587260
8.62774766,-0.0957378149,-0.2428731322,-1.559767485,2024-06-11 14:01:33.627748
8.668194587,-1.671483755,-4.210865974,-1.513696074,2024-06-11 14:01:33.668195
8.708687608,-3.562938213,-2.018217087,0.791734457,2024-06-11 14:01:33.708688
8.749184379,-3.622724295,1.149919033,0.7682993412,2024-06-11 14:01:33.749184
8.789661254,-2.751896381,-3.203821421,1.170691133,2024-06-11 14:01:33.789661
8.830165316,-0.853251636,-4.358533859,-0.1003982127,2024-06-11 14:01:33.830165
8.870641098,-0.5695002079,0.99013412,-0.7394048572,2024-06-11 14:01:33.870641
8.911117816,0.1869483888,4.882628918,0.1902772486,2024-06-11 14:01:33.911118
8.951557087,1.416759968,3.015141964,0.8069140315,2024-06-11 14:01:33.951557
8.992026306,2.078402758,0.2296908647,1.286801457,2024-06-11 14:01:33.992026
9.032502556,3.655214071,-4.088098049,1.246855259,2024-06-11 14:01:34.032503
9.072996046,6.653445244,-6.380213261,-1.915954709,2024-06-11 14:01:34.072996
9.113499275,6.168764591,-0.2207695395,-3.392101526,2024-06-11 14:01:34.113499
9.153969118,5.52549696,-0.5693670511,-1.266562104,2024-06-11 14:01:34.153969
9.194457608,0.4335498512,3.4854424,-0.3299559355,2024-06-11 14:01:34.194458
9.234924066,0.9881367683,-2.22034502,0.9794817567,2024-06-11 14:01:34.234924
9.275420837,2.381727934,-5.924959183,0.6430012584,2024-06-11 14:01:34.275421
9.315905368,-0.5327496529,-2.203567743,0.5407389402,2024-06-11 14:01:34.315905
9.35637115,-0.611443758,-0.4412727654,1.165364981,2024-06-11 14:01:34.356371
9.396845733,0.7324808836,-2.274139404,1.8507092,2024-06-11 14:01:34.396846
9.437332243,-0.2571206093,-0.7908023596,3.415935993,2024-06-11 14:01:34.437332
9.477812921,-1.636064768,0.005193010904,3.380517006,2024-06-11 14:01:34.477813
9.518296306,-1.860429525,0.3583177626,1.006645203,2024-06-11 14:01:34.518296
9.558763337,-0.03874785081,-4.144555569,0.6411371231,2024-06-11 14:01:34.558763
9.599239431,-2.485854387,-5.776093006,-3.522326231,2024-06-11 14:01:34.599239
9.639727348,-1.283738971,1.362033606,1.319157958,2024-06-11 14:01:34.639727
9.68020016,-0.5252930522,1.750311017,4.189162254,2024-06-11 14:01:34.680200
9.720718806,-1.077216864,0.4280905128,2.168548107,2024-06-11 14:01:34.720719
9.76117865,-1.43580091,-3.363872766,0.09467258304,2024-06-11 14:01:34.761179
9.801630629,-1.054847002,-1.175085187,-1.017430663,2024-06-11 14:01:34.801631
9.842099639,-0.3657743931,2.118748426,-0.2572537661,2024-06-11 14:01:34.842100
9.88256865,-0.4576507509,3.478252172,1.224751711,2024-06-11 14:01:34.882569
9.923077816,-1.771082997,2.755891085,0.9243559837,2024-06-11 14:01:34.923078
9.963587608,-2.364817381,0.415574044,0.1668421179,2024-06-11 14:01:34.963588
10.00410667,-1.001851678,0.3860138059,-0.1158440933,2024-06-11 14:01:35.004107
10.04456511,0.3640433848,-0.632748425,0.04314193875,2024-06-11 14:01:35.044565
10.08506417,0.8153027296,2.074008703,0.162847504,2024-06-11 14:01:35.085064
10.12547745,3.482646227,0.3902747631,-0.8619066477,2024-06-11 14:01:35.125477
10.16598782,4.575042725,0.06191666797,-1.161902905,2024-06-11 14:01:35.165988
10.20643198,3.457346916,-0.452457726,-0.6981270909,2024-06-11 14:01:35.206432
10.24698193,1.898910999,2.049508333,-0.06657706201,2024-06-11 14:01:35.246982
10.28741782,1.497184992,0.8340774775,1.336734295,2024-06-11 14:01:35.287418
10.32787542,1.489994645,-2.922200441,1.909829617,2024-06-11 14:01:35.327875
10.36835719,2.167349815,-3.289839029,1.618754745,2024-06-11 14:01:35.368357
10.40885026,1.950574875,-2.800763845,-0.0817566365,2024-06-11 14:01:35.408850
10.44931667,1.409569621,-3.4887712,-1.108241796,2024-06-11 14:01:35.449317
10.4897998,1.013169765,-2.127137184,-0.4689688385,2024-06-11 14:01:35.489800
10.53033198,-0.6399387121,-3.922454357,0.4866783321,2024-06-11 14:01:35.530332
10.57081334,1.183607101,-0.5877423286,-0.281221509,2024-06-11 14:01:35.570813
10.6113086,-0.5561847687,0.3817528784,1.138201475,2024-06-11 14:01:35.611309
10.65178407,-1.124619722,2.214619398,0.9611064792,2024-06-11 14:01:35.651784
10.69220125,0.1595186442,2.056165934,-0.0149132628,2024-06-11 14:01:35.692201
10.73267459,-1.096923709,-1.949243307,0.3396761715,2024-06-11 14:01:35.732675
10.7731936,-1.88599503,-3.3982265,0.5346138477,2024-06-11 14:01:35.773194
10.81364818,-1.572949767,-1.064567208,0.7310161591,2024-06-11 14:01:35.813648
10.85407688,-1.732202053,-1.132475853,1.089999676,2024-06-11 14:01:35.854077
10.89459719,-1.80876565,-1.461499691,0.9701609612,2024-06-11 14:01:35.894597
10.93510198,-1.693587303,-0.01824211515,0.6046528816,2024-06-11 14:01:35.935102
10.97557933,-1.640325665,0.3021267056,0.4230306745,2024-06-11 14:01:35.975579
11.0160724,-0.6162372828,-1.418890357,-0.1864157766,2024-06-11 14:01:36.016072
11.05651594,0.517170608,0.7166355252,-0.441539079,2024-06-11 14:01:36.056516
11.09700454,2.468144894,2.086258888,0.2762948275,2024-06-11 14:01:36.097005
11.13746631,3.255485296,0.3873453438,1.006911516,2024-06-11 14:01:36.137466
11.17798131,2.72912693,-1.15378046,0.603853941,2024-06-11 14:01:36.177981
11.2184774,2.675332785,0.4645747542,-0.1573881805,2024-06-11 14:01:36.218477
11.25892042,3.142304182,0.1175750941,0.2536586225,2024-06-11 14:01:36.258920
11.29941292,2.357493877,-1.719286084,-0.1366161406,2024-06-11 14:01:36.299413
11.33989813,1.63513267,-2.444310427,0.3612471521,2024-06-11 14:01:36.339898
11.38041599,1.429276466,-2.880656481,1.191729426,2024-06-11 14:01:36.380416
11.4208725,0.8445966244,-2.710485458,0.9248885512,2024-06-11 14:01:36.420872
11.46139443,0.2513949871,-3.002093077,0.4563191831,2024-06-11 14:01:36.461394
11.50186834,2.994636297,-3.51699996,-1.032876611,2024-06-11 14:01:36.501868
11.54225521,3.092238426,-3.797023058,-1.443124413,2024-06-11 14:01:36.542255
11.58272985,2.119148016,0.7406032681,0.6174356937,2024-06-11 14:01:36.582730
11.62327355,3.117004871,-0.02330197208,-1.724079609,2024-06-11 14:01:36.623274
11.6637311,-0.4387428463,1.493856192,0.4544550478,2024-06-11 14:01:36.663731
11.7041999,0.453789264,0.9158340693,2.888778925,2024-06-11 14:01:36.704200
11.74467813,2.038989067,-3.096898794,-2.213953733,2024-06-11 14:01:36.744678
11.78517454,1.16416657,-1.504375339,-0.9902672768,2024-06-11 14:01:36.785175
11.82562047,0.3957340717,-0.1829537749,-1.238599658,2024-06-11 14:01:36.825620
11.86608735,1.434602618,-2.078402758,-0.2687050402,2024-06-11 14:01:36.866087
11.90661016,0.6338136196,-1.23393929,-0.2513949871,2024-06-11 14:01:36.906610
11.9470898,-0.7043853402,-0.2226337045,0.3143768907,2024-06-11 14:01:36.947090
11.98756948,-1.148853779,0.1364829838,0.8053161502,2024-06-11 14:01:36.987569
12.02805636,-1.667222857,0.233951807,1.256974936,2024-06-11 14:01:37.028056
12.06851511,-2.546306372,0.3708342612,1.513296723,2024-06-11 14:01:37.068515
12.1089836,-3.429517746,1.453909874,1.227947354,2024-06-11 14:01:37.108984
12.14947922,-2.743108273,1.546052575,0.6776213646,2024-06-11 14:01:37.149479
12.18996797,-1.378811002,-0.006258244161,-0.154458791,2024-06-11 14:01:37.189968
12.23044605,-0.2826862037,-1.954036832,-0.4178376496,2024-06-11 14:01:37.230446
12.27096688,0.08415340632,-2.570141077,0.2395442724,2024-06-11 14:01:37.270967
12.31144672,-0.5687012672,-1.597849488,0.5679023266,2024-06-11 14:01:37.311447
12.35186365,-0.8135717511,-0.7093120217,1.011438727,2024-06-11 14:01:37.351864
12.39233292,-1.322619915,-0.3616466224,1.104114056,2024-06-11 14:01:37.392333
12.43279516,-1.313032866,-0.2005301118,0.9704272747,2024-06-11 14:01:37.432795
12.47329198,-0.9611064792,-0.7191654444,0.5330159664,2024-06-11 14:01:37.473292
12.51381006,-1.039667487,-1.477478147,0.4304873049,2024-06-11 14:01:37.513810
12.55429526,-0.9714925289,-0.9742887616,0.5671034455,2024-06-11 14:01:37.554295
12.5947686,-0.264310956,0.518369019,0.3945356905,2024-06-11 14:01:37.594769
12.6352336,1.315030217,-1.173753619,-0.4018591642,2024-06-11 14:01:37.635234
12.67573094,3.170799255,-0.2098509073,-0.01837527007,2024-06-11 14:01:37.675731
12.71620719,2.539781809,2.63818264,0.6123758554,2024-06-11 14:01:37.716207
12.75668782,1.797048092,3.295564651,1.26842618,2024-06-11 14:01:37.756688
12.79720328,2.250437975,-0.05153064802,1.156310439,2024-06-11 14:01:37.797203
12.8376974,1.695584655,-0.4255605936,0.5034557581,2024-06-11 14:01:37.837697
12.8781536,1.281741619,-1.608235598,0.7437989712,2024-06-11 14:01:37.878154
12.9186199,1.072023869,-2.793040991,0.2499302924,2024-06-11 14:01:37.918620
12.95910261,1.083741426,-2.8857162,0.123167567,2024-06-11 14:01:37.959103
12.99958532,0.2151770741,-1.854038119,0.07616416365,2024-06-11 14:01:37.999585
13.0400561,-1.280543208,-2.469343185,0.2938711643,2024-06-11 14:01:38.040056
13.08051339,2.015287638,-2.854025602,-0.6435338855,2024-06-11 14:01:38.080513
13.12104875,0.7015891075,-0.8552489877,0.01358172111,2024-06-11 14:01:38.121049
13.16149084,-1.155245185,3.331782579,-0.1760297567,2024-06-11 14:01:38.161491
13.20196313,-0.2177069932,2.53059411,-0.1491326243,2024-06-11 14:01:38.201963
13.24245401,-0.3258281648,0.3540568352,0.1077216864,2024-06-11 14:01:38.242454
13.28293141,-1.507704139,-2.56215167,0.2608489394,2024-06-11 14:01:38.282931
13.32339032,-2.524735451,-3.222729445,0.3018604219,2024-06-11 14:01:38.323390
13.3638824,-1.808499336,-0.8741568327,1.162968159,2024-06-11 14:01:38.363882
13.4043799,-1.741256475,0.1625811905,0.9680305123,2024-06-11 14:01:38.404380
13.4448623,-1.632070184,0.6713631153,0.7350108027,2024-06-11 14:01:38.444862
13.48532151,-1.325815678,-0.8038514853,0.09706936032,2024-06-11 14:01:38.485322
13.52579808,-0.1391460598,-1.127948642,-0.4756265581,2024-06-11 14:01:38.525798
13.56630042,0.1741656065,1.398784161,-0.3880111277,2024-06-11 14:01:38.566300
13.60677875,1.176949382,0.8657681346,0.6344794035,2024-06-11 14:01:38.606779
13.64725573,3.003424406,-1.508636236,0.343937099,2024-06-11 14:01:38.647256
13.68771594,3.104754686,0.2653761804,0.4414059222,2024-06-11 14:01:38.687716
13.72819063,1.998244047,2.249505758,-0.04340824485,2024-06-11 14:01:38.728191
13.76869573,2.711550713,-1.448983192,0.2651098669,2024-06-11 14:01:38.768696
13.80921537,2.278400183,-1.147921681,0.1878804713,2024-06-11 14:01:38.809215
13.84969375,1.055512786,-0.7761554122,-0.06471290439,2024-06-11 14:01:38.849694
13.89011282,0.1688394397,-2.289052725,0.511977613,2024-06-11 14:01:38.890113
13.93067084,0.1893451661,-1.46735847,0.3460675776,2024-06-11 14:01:38.930671
13.97114474,-0.4006607831,-0.2186390758,0.01597849466,2024-06-11 14:01:38.971145
14.01157605,-1.039401174,-2.128202438,0.006391398143,2024-06-11 14:01:39.011576
14.05205438,2.418478489,-3.435243368,-0.5030562878,2024-06-11 14:01:39.052054
14.09252,-0.01877473295,-0.1483336985,-0.1973344237,2024-06-11 14:01:39.092520
14.13299834,-1.914756417,2.855223894,0.5588479042,2024-06-11 14:01:39.132998
14.17351365,-1.063901424,4.529637337,-0.5729622245,2024-06-11 14:01:39.173514
14.21397761,-1.200917125,0.6162372828,-0.5412715077,2024-06-11 14:01:39.213978
14.25444579,-2.144580364,-1.016099095,-0.162181735,2024-06-11 14:01:39.254446
14.29493766,-1.40464294,-0.5925358534,0.03195698932,2024-06-11 14:01:39.294938
14.33539219,-1.01010716,-0.6053186655,0.3239639997,2024-06-11 14:01:39.335392
14.37587063,-1.678407788,-0.3091838956,0.7541849613,2024-06-11 14:01:39.375871
14.41636828,-2.517012596,0.9648348093,0.7677667141,2024-06-11 14:01:39.416368
14.45686407,-1.824744225,0.9701609612,0.1101184636,2024-06-11 14:01:39.456864
14.49733511,-0.3047898114,1.631537557,-0.2364817262,2024-06-11 14:01:39.497335
14.53783334,-1.165897489,1.067896128,-0.2117150575,2024-06-11 14:01:39.537833
14.57830292,-0.7440652847,-0.04460663348,-0.09826774895,2024-06-11 14:01:39.578303
14.61882052,0.9987891316,-0.2282261699,-0.1890788674,2024-06-11 14:01:39.618821
14.6592375,1.913291693,-0.5219641924,0.3111811876,2024-06-11 14:01:39.659237
14.69972401,3.772256374,0.1982664913,0.3034582436,2024-06-11 14:01:39.699724
14.7402125,2.439250469,2.191184282,0.3601819277,2024-06-11 14:01:39.740213
14.78072547,1.416759968,3.58797121,0.395600915,2024-06-11 14:01:39.780725
14.82122037,2.326868296,-1.147655487,0.137015596,2024-06-11 14:01:39.821220
14.8617,1.884796739,-1.564028382,-0.6683005691,2024-06-11 14:01:39.861700
14.90209891,1.018229604,-0.8017209768,-0.2284924835,2024-06-11 14:01:39.902099
14.94258787,-0.01504641678,-0.5882749557,0.3508611321,2024-06-11 14:01:39.942588
14.98307651,-0.7997236848,-0.7756227851,0.2121145278,2024-06-11 14:01:39.983077
15.02357714,-1.800510168,-1.162036061,0.244337827,2024-06-11 14:01:40.023577
15.06405625,-0.3817528784,-2.63485384,0.07190322876,2024-06-11 14:01:40.064056
15.10453162,1.459635496,-1.408504367,-0.03888100386,2024-06-11 14:01:40.104532
15.14502547,-1.04579258,1.350316048,0.3135779798,2024-06-11 14:01:40.145025
15.18549474,-0.6090469956,2.783054352,-0.2418078929,2024-06-11 14:01:40.185495
15.22595943,0.1696383655,0.3258281648,-0.4934692085,2024-06-11 14:01:40.225959
15.26644193,-0.8151695728,-0.6095796227,-0.1352845877,2024-06-11 14:01:40.266442
15.3069298,-1.012237668,-1.257374406,0.1782933772,2024-06-11 14:01:40.306930
15.34740266,-1.120625138,-1.593322277,0.243006289,2024-06-11 14:01:40.347403
15.3878836,-1.099054217,-1.012104511,0.5212984085,2024-06-11 14:01:40.387884
15.42838006,-1.871348143,-0.7047848105,0.5947995186,2024-06-11 14:01:40.428380
15.4688687,-0.7531197667,0.8761541843,0.2605826259,2024-06-11 14:01:40.468869
15.50935209,-0.8724258542,1.662163019,0.151928857,2024-06-11 14:01:40.509352
15.5498348,-0.0731016174,1.904103994,0.1226349548,2024-06-11 14:01:40.549835
15.59030631,0.8805482388,1.865755677,0.3284912407,2024-06-11 14:01:40.590306
15.63079709,2.446440697,0.5282224417,-0.1254311949,2024-06-11 14:01:40.630797
15.67129438,3.264007092,0.3074528873,-0.04687025398,2024-06-11 14:01:40.671294
15.71176391,1.970281601,2.820870161,-0.3651086092,2024-06-11 14:01:40.711764
15.75222011,1.470820546,0.1252980381,-0.7833457589,2024-06-11 14:01:40.752220
15.79265256,1.104513526,0.2608489394,-1.100252509,2024-06-11 14:01:40.792653
15.83314516,0.008388710208,0.3239639997,-0.1925408691,2024-06-11 14:01:40.833145
15.87365105,-0.7776201367,0.1657768935,0.3125127256,2024-06-11 14:01:40.873651
15.91414178,-1.326081991,-1.196656108,0.4280905128,2024-06-11 14:01:40.914142
15.95462974,-1.644054055,-2.983185053,0.4536561072,2024-06-11 14:01:40.954630
15.99511276,0.8927984238,-4.765985489,-0.1475347728,2024-06-11 14:01:40.995113
16.03559016,-0.1045259908,-0.7812152505,0.2683055699,2024-06-11 14:01:41.035590
16.07603813,-0.6226286888,2.647769928,0.5226299763,2024-06-11 14:01:41.076038
16.11651797,-0.6862763762,2.453098536,0.4882761836,2024-06-11 14:01:41.116518
16.15700667,0.577888906,-1.255776525,0.3127790391,2024-06-11 14:01:41.157007
16.19749928,0.2588516176,-3.027658463,0.04287562892,2024-06-11 14:01:41.197499
16.23800214,-0.8913337588,-1.999309182,0.4198349714,2024-06-11 14:01:41.238002
16.27849058,-0.02463351376,-0.8882712126,-0.07003907114,2024-06-11 14:01:41.278491
16.31896532,-0.1937392503,0.9158340693,0.2387453467,2024-06-11 14:01:41.318965
16.35942271,-0.369769007,-0.2569874525,0.7174344659,2024-06-11 14:01:41.359423
16.39989928,0.2247641683,-1.539528012,0.5340812206,2024-06-11 14:01:41.399899
16.44040776,0.2372806519,-2.102370501,0.2960016131,2024-06-11 14:01:41.440408
16.4809,0.3861469626,-1.779471755,0.2832188308,2024-06-11 14:01:41.480900
16.52137917,0.2434057444,-1.356307983,-0.02956021577,2024-06-11 14:01:41.521379
16.56185823,0.1105179265,-1.21316731,-0.07563154399,2024-06-11 14:01:41.561858
16.6023373,0.5776225924,-0.8216941357,-0.3182383776,2024-06-11 14:01:41.602337
16.64274886,0.6058512926,-0.499594301,-0.294803232,2024-06-11 14:01:41.642749
16.6832725,0.5238283277,-0.2521939278,-0.3480648994,2024-06-11 14:01:41.683273
16.72375115,0.7974600792,-0.1478010863,-0.449262023,2024-06-11 14:01:41.723751
16.76422787,1.287600398,-0.01797580719,-0.7202306986,2024-06-11 14:01:41.764228
16.80472417,1.406107545,-0.4101147056,-0.8680317402,2024-06-11 14:01:41.804724
16.84520381,0.8464608192,0.4954665005,-0.9125052094,2024-06-11 14:01:41.845204
16.8856523,0.793199122,0.009453942999,-0.7822805047,2024-06-11 14:01:41.885652
16.92613985,1.086670876,-0.234617576,-0.5412715077,2024-06-11 14:01:41.926140
16.96662605,0.7111762166,-0.4260932207,-0.3331516385,2024-06-11 14:01:41.966626
17.00711636,0.7532529235,-0.4987953603,-0.7865414619,2024-06-11 14:01:42.007116
17.0476074,0.1890788674,0.1948044896,-0.2151770741,2024-06-11 14:01:42.047607
17.08803657,-0.9296821356,0.5279561281,0.05432688445,2024-06-11 14:01:42.088037
17.12854011,-0.6189003587,0.1122489274,-0.73221457,2024-06-11 14:01:42.128540
17.16903209,-0.06484606117,-0.05685681105,-0.461512208,2024-06-11 14:01:42.169032
17.20949896,-0.4262263775,0.5917369723,-0.07909355313,2024-06-11 14:01:42.209499
17.25001131,1.96575439,0.718765974,-0.2647103965,2024-06-11 14:01:42.250011
17.29050396,0.6621754766,0.84020257,-0.8986572027,2024-06-11 14:01:42.290504
17.33098818,-1.168826938,-0.8035851717,0.04047885537,2024-06-11 14:01:42.330988
17.37146771,-0.3857475221,-1.220091224,0.09427312016,2024-06-11 14:01:42.371468
17.41194719,-1.325016737,-0.02516612969,0.4624442756,2024-06-11 14:01:42.411947
17.45233105,-0.9137036204,-0.05259587988,0.8846760392,2024-06-11 14:01:42.452331
17.49285719,-1.413963675,-0.6556509137,1.18906641,2024-06-11 14:01:42.492857
17.5333648,-1.6911906,-0.528621912,0.08788172156,2024-06-11 14:01:42.533365
17.57380834,-0.2746969759,2.03512764,-0.8653686643,2024-06-11 14:01:42.573808
17.61428782,0.4450010955,1.710364819,-0.443403244,2024-06-11 14:01:42.614288
17.65481756,0.4740287066,0.6037208438,-0.1392792165,2024-06-11 14:01:42.654818
17.69528667,0.9239565134,0.8452624083,-0.5089150667,2024-06-11 14:01:42.695287
17.73574344,1.75976491,-1.439129829,-1.813692331,2024-06-11 14:01:42.735743
17.77622042,0.85764575,0.1950708032,-0.3142437339,2024-06-11 14:01:42.776220
17.81674724,-0.8420667052,1.526612043,0.749125123,2024-06-11 14:01:42.816747
17.85722688,-0.01504641678,-0.487344116,0.4147751033,2024-06-11 14:01:42.857227
17.89766969,0.5323501825,-1.927405953,0.536477983,2024-06-11 14:01:42.897670
17.93816271,-0.2448704392,-0.4857462645,0.6816160083,2024-06-11 14:01:42.938163
17.97863178,-0.9523183107,1.141929746,0.6155715585,2024-06-11 14:01:42.978632
18.01912089,-0.8010552526,0.5138418078,0.5489944816,2024-06-11 14:01:43.019121
18.05959178,-0.4230306745,-0.8435314298,0.4959991276,2024-06-11 14:01:43.059592
18.10003287,-0.2632457018,-1.225151181,0.4989285171,2024-06-11 14:01:43.100033
18.14054011,-0.07603100687,-0.8888037801,0.5673697591,2024-06-11 14:01:43.140540
18.18107183,0.449262023,-1.094127417,0.6390066743,2024-06-11 14:01:43.181072
18.22149912,-0.04460663348,-0.6284874678,0.7358096838,2024-06-11 14:01:43.221499
18.26197881,-0.5191679597,1.709299564,0.4933360517,2024-06-11 14:01:43.261979
18.3024649,0.3299559355,0.1005313694,0.2800231278,2024-06-11 14:01:43.302465
18.34294448,0.2135792226,-1.803439498,0.1857500076,2024-06-11 14:01:43.342944
18.3834336,-0.03874785081,-0.03182383627,0.1902772486,2024-06-11 14:01:43.383434
18.42392157,0.03009283356,0.672162056,0.1844184697,2024-06-11 14:01:43.423922
18.46438683,-0.1788259894,-0.1464695334,0.1487331539,2024-06-11 14:01:43.464387
18.50488214,0.05059856921,-0.7103772759,0.03675054014,2024-06-11 14:01:43.504882
18.54535578,0.5643072128,-1.833798647,-0.04926702753,2024-06-11 14:01:43.545356
18.58581443,0.3051892519,-1.260037541,0.1987991184,2024-06-11 14:01:43.585814
18.62630459,-0.3039908707,0.49839589,0.3772256374,2024-06-11 14:01:43.626305
18.6668025,-0.3985303044,1.388930678,0.3055887222,2024-06-11 14:01:43.666802
18.70727662,0.01531272475,0.05073172227,-0.01038602181,2024-06-11 14:01:43.707277
18.74775579,0.07989247888,-1.282007933,-0.2244978547,2024-06-11 14:01:43.747756
18.78825115,-0.1237001866,-0.01797580719,-0.1685731262,2024-06-11 14:01:43.788251
18.82876318,-0.2102503628,1.376147866,-0.2484655976,2024-06-11 14:01:43.828763
18.86918782,-0.01824211515,0.9685631394,-0.4226312041,2024-06-11 14:01:43.869188
18.90967485,0.1760297567,0.3649754524,-0.422098577,2024-06-11 14:01:43.909675
18.95013683,0.5461982489,0.2414084375,-0.3469996452,2024-06-11 14:01:43.950137
18.99062802,0.4061200917,0.568834424,-0.5793536305,2024-06-11 14:01:43.990628
19.03110506,0.02010627277,-0.1086537689,-0.9900009632,2024-06-11 14:01:44.031105
19.07154933,-0.3165073693,2.007165432,-0.7830794454,2024-06-11 14:01:44.071549
19.1120386,-0.04780233279,1.562829971,-0.3792229593,2024-06-11 14:01:44.112039
19.1525186,1.454043031,1.60650456,-1.156843066,2024-06-11 14:01:44.152519
19.1929986,-0.2848166823,1.449648976,-0.80864501,2024-06-11 14:01:44.192999
19.23349797,-0.7717612982,3.374924421,-0.2263620198,2024-06-11 14:01:44.233498
19.27400037,1.271355629,-0.1419423074,-1.256442308,2024-06-11 14:01:44.274000
19.31448657,-0.1018629074,0.8274197578,0.4374113083,2024-06-11 14:01:44.314487
19.35496641,-0.8862738609,2.170678616,0.3963998258,2024-06-11 14:01:44.354966
19.39545896,-0.3292901516,-0.2774932086,0.2480661422,2024-06-11 14:01:44.395459
19.43592401,-1.130212188,-0.5579158068,0.3308880031,2024-06-11 14:01:44.435924
19.47643026,-1.372952223,-1.47108686,0.0181089621,2024-06-11 14:01:44.476430
19.51689375,0.1832200736,-2.6148808,-0.1741656065,2024-06-11 14:01:44.516894
19.55735839,0.5022573471,3.417267561,-1.054713845,2024-06-11 14:01:44.557358
19.59783089,0.9854736924,4.097285748,-1.721682906,2024-06-11 14:01:44.597831
19.63831605,-0.6439333558,1.755104542,-0.8424661756,2024-06-11 14:01:44.638316
19.67878563,-1.332207084,0.8226261735,0.4387428463,2024-06-11 14:01:44.678786
19.71927756,-2.014089346,0.5856118798,1.074553847,2024-06-11 14:01:44.719278
19.75975568,-1.77720809,-0.1616491079,1.247387886,2024-06-11 14:01:44.759756
19.80026146,-2.298506498,-2.000640869,0.5617772937,2024-06-11 14:01:44.800261
19.8407574,-3.438838482,-3.084914923,0.8844097257,2024-06-11 14:01:44.840757
19.8812111,-3.178655386,-0.5232957006,1.80623579,2024-06-11 14:01:44.881211
19.92167792,-2.781190157,1.800243855,1.320489526,2024-06-11 14:01:44.921678
19.96215787,-1.905435562,2.014089346,0.158320263,2024-06-11 14:01:44.962158
20.00264704,-0.1801575422,-5.695401669,-1.274018645,2024-06-11 14:01:45.002647
20.04313328,1.246855259,-1.403977156,-0.7982590199,2024-06-11 14:01:45.043133
20.0835973,0.16031757,4.282769203,-0.5351464152,2024-06-11 14:01:45.083597
20.12406646,0.6696321368,4.283035755,-0.05752258375,2024-06-11 14:01:45.124066
20.16456094,0.9596418142,2.308093548,0.2259625494,2024-06-11 14:01:45.164561
20.20504761,0.7567148805,-0.0708379969,-0.293471694,2024-06-11 14:01:45.205048
20.24552526,-0.1071890742,-2.210225344,-0.8611077666,2024-06-11 14:01:45.245525
20.28600323,-0.6758903265,-2.264019728,-0.1334204376,2024-06-11 14:01:45.286003
20.32647386,-1.41582787,-1.958297729,0.06338136643,2024-06-11 14:01:45.326474
20.36696881,-0.132488355,-0.273498565,0.06604444981,2024-06-11 14:01:45.366969
20.4074698,1.111437559,1.154712558,0.132488355,2024-06-11 14:01:45.407470
20.44792438,0.1174419373,0.5452661514,-0.02876129188,2024-06-11 14:01:45.447924
20.48842396,-0.2978657782,0.01344856713,0.01278279629,2024-06-11 14:01:45.488424
20.52890136,-0.608248055,-1.048322439,-0.05485950038,2024-06-11 14:01:45.528901
20.56940099,0.0458050184,-0.2055899799,-0.2633788586,2024-06-11 14:01:45.569401
20.60987745,-0.3090507388,0.4009270668,-0.2229000032,2024-06-11 14:01:45.609877
20.65034818,-0.2336854935,0.15512456,-0.2205032408,2024-06-11 14:01:45.650348
20.69082834,-0.08828118443,-0.1206376404,-0.146735847,2024-06-11 14:01:45.690828
20.73128813,-0.01105179265,-0.2053236663,-0.007722939365,2024-06-11 14:01:45.731288
20.77175813,-0.08135717362,-0.5025236607,-0.1493989378,2024-06-11 14:01:45.771758
20.81222318,-0.07975932211,-0.3901416063,0.002929390874,2024-06-11 14:01:45.812223
20.85270297,-0.224897325,-0.3621792197,-0.0487344116,2024-06-11 14:01:45.852703
20.89320526,-0.4371449947,-0.0758978501,-0.06231613085,2024-06-11 14:01:45.893205
20.9337125,-0.8058487773,0.2555227578,-0.06870753318,2024-06-11 14:01:45.933712
20.97415443,-1.03247714,0.4765586257,-0.01544587873,2024-06-11 14:01:45.974154
21.0146773,-1.14672339,0.2938711643,0.1948044896,2024-06-11 14:01:46.014677
21.05513391,-0.4312862158,-0.8808145523,-0.3661738634,2024-06-11 14:01:46.055134
21.0956137,0.7617747784,-0.8302159905,-0.610245347,2024-06-11 14:01:46.095614
21.13608995,1.823412657,-2.701963663,-0.1949376464,2024-06-11 14:01:46.136090
21.17657068,3.10289073,-0.6752246022,-0.3983971477,2024-06-11 14:01:46.176571
21.21705078,2.961081505,1.482404947,-0.1318225861,2024-06-11 14:01:46.217051
21.25754672,2.855623484,1.517823935,0.2720338702,2024-06-11 14:01:46.257547
21.29802724,2.782122374,0.2930722237,0.3234313726,2024-06-11 14:01:46.298027
21.33848928,2.669207573,-1.044860482,-0.172567755,2024-06-11 14:01:46.338489
21.37896162,2.815144539,-4.576107979,-0.5665708184,2024-06-11 14:01:46.378962
21.41949006,3.27652359,-5.27636528,-0.7338123918,2024-06-11 14:01:46.419490
21.45998443,1.447917938,-0.1898777932,-0.09746882319,2024-06-11 14:01:46.459984
21.50038553,-0.1391460598,-0.3059881926,0.4946675897,2024-06-11 14:01:46.500386
21.54086334,0.7037195563,-2.193448067,0.4416722357,2024-06-11 14:01:46.540863
21.58140282,0.7018554211,-2.537384987,0.3037245572,2024-06-11 14:01:46.581403
21.62188052,0.1629806459,-3.434178114,0.4406070113,2024-06-11 14:01:46.621881
21.66234412,1.085871935,-3.5111413,0.2661750913,2024-06-11 14:01:46.662344
21.70282578,0.6645722389,-1.32488358,0.9211602807,2024-06-11 14:01:46.702826
21.74331464,0.1664426625,-0.08841434121,1.001851678,2024-06-11 14:01:46.743315
21.78377839,0.266308248,1.827673554,1.109440207,2024-06-11 14:01:46.783778
21.82424078,0.06018566713,0.7725602388,0.5596467853,2024-06-11 14:01:46.824241
21.86468021,-0.4552539587,-3.158016443,0.2504629195,2024-06-11 14:01:46.864680
21.90522573,-0.1268958896,-2.137789488,0.6118432283,2024-06-11 14:01:46.905226
21.94568839,0.06364767253,0.9075785279,0.8274197578,2024-06-11 14:01:46.945688
21.98618042,-1.012237668,1.31489706,0.8966599107,2024-06-11 14:01:46.986180
22.02665214,-1.080146313,0.02942706272,0.2635120153,2024-06-11 14:01:47.026652
22.06713651,-0.03821523488,-0.7308830023,-0.1299584359,2024-06-11 14:01:47.067137
22.10761599,-0.05978620425,-0.2511286736,0.1042596847,2024-06-11 14:01:47.107616
22.14808131,-0.1013302878,0.7374075651,0.3167736828,2024-06-11 14:01:47.148081
22.18856204,-0.08641702682,-0.03821523488,0.1178414002,2024-06-11 14:01:47.188562
22.22908136,-0.07709623873,0.06511236727,-0.09560466558,2024-06-11 14:01:47.229081
22.26959256,-0.1910761744,0.8620398045,-0.1235670298,2024-06-11 14:01:47.269593
22.31006428,-0.3260944486,0.2999962568,0.01970681176,2024-06-11 14:01:47.310064
22.35047167,-0.2459356785,-0.7857425213,0.07270215452,2024-06-11 14:01:47.350472
22.39103735,0.408516854,-0.6380745769,-0.190676704,2024-06-11 14:01:47.391037
22.43151865,0.226894632,2.513816833,-0.1664426625,2024-06-11 14:01:47.431519
22.47197974,0.9122389555,1.913691163,-0.7633726001,2024-06-11 14:01:47.471980
22.5124311,1.14259553,3.356282949,-0.4865451753,2024-06-11 14:01:47.512431
22.55292105,2.213154793,2.603828907,-0.199731186,2024-06-11 14:01:47.552921
22.5933774,3.509010792,-1.663627625,-1.031545043,2024-06-11 14:01:47.593377
22.63386026,3.785838127,-2.715278864,-2.240051985,2024-06-11 14:01:47.633860
22.6743412,1.767487884,-2.963478327,-1.018495917,2024-06-11 14:01:47.674341
22.71481558,-2.457625628,2.227934837,0.2541912198,2024-06-11 14:01:47.714816
22.75530907,-1.277081251,-0.6125090122,0.7089125514,2024-06-11 14:01:47.755309
22.79581308,-1.89931047,-0.9071790576,0.8069140315,2024-06-11 14:01:47.795813
22.83628891,-1.516226053,1.312233925,0.9805470109,2024-06-11 14:01:47.836289
22.87675761,-1.940055609,1.036738038,1.089733362,2024-06-11 14:01:47.876758
22.9172161,-2.18665719,0.8814803362,0.8942631483,2024-06-11 14:01:47.917216
22.95770787,-1.490127802,0.4105141759,0.3990629315,2024-06-11 14:01:47.957708
22.99820365,-1.47441566,-0.9756202698,0.3633776009,2024-06-11 14:01:47.998204
23.03868495,-0.8045172691,-1.856701136,0.2009295821,2024-06-11 14:01:48.038685
23.07915735,-0.06005251035,-1.108774424,0.06657706201,2024-06-11 14:01:48.079157
23.11963995,-0.02516612969,0.3330184817,0.1695052087,2024-06-11 14:01:48.119640
23.16011808,-0.02250304818,-1.224085927,0.2054568231,2024-06-11 14:01:48.160118
23.20056995,0.169372052,-2.770671129,0.0868164897,2024-06-11 14:01:48.200570
23.24101875,0.4700340629,-0.7295514941,0.6472622156,2024-06-11 14:01:48.241019
23.28149355,-0.06271559745,0.7685656548,0.8961272836,2024-06-11 14:01:48.281494
23.32200313,-0.6058512926,-1.016631722,0.2840177417,2024-06-11 14:01:48.322003
23.36250828,0.3523258269,-1.518756032,-0.2793573737,2024-06-11 14:01:48.362508
23.40298052,0.3190372884,-1.651111245,-0.4263595045,2024-06-11 14:01:48.402981
23.44347646,-0.02170412242,0.07177007198,0.02849498391,2024-06-11 14:01:48.443476
23.4839537,-0.2278267145,0.9587097168,0.1330209672,2024-06-11 14:01:48.483954
23.52443313,-0.2331528813,0.1881467849,0.01731003635,2024-06-11 14:01:48.524433
23.56491162,0.122501798,0.6165035963,-0.06844121963,2024-06-11 14:01:48.564912
23.60539506,-0.08322133124,0.7406032681,-0.2569874525,2024-06-11 14:01:48.605395
23.6458649,0.1424749196,1.44032824,-0.3344831765,2024-06-11 14:01:48.645865
23.686355,0.2327534109,1.776009798,-0.3432713449,2024-06-11 14:01:48.686355
23.72684162,0.008921326138,1.048189282,-0.2772268951,2024-06-11 14:01:48.726842
23.76730615,-0.08162347972,0.7603100538,-0.1842853129,2024-06-11 14:01:48.767306
23.80779808,-0.3444697261,0.8383383751,-0.1187734827,2024-06-11 14:01:48.807798
23.84828766,-0.6524552107,0.663906455,-0.4066527188,2024-06-11 14:01:48.848288
23.88876459,-0.2925396264,-0.7577801347,-0.4338161349,2024-06-11 14:01:48.888765
23.92922917,-0.2989310026,-0.2588516176,-0.704518497,2024-06-11 14:01:48.929229
23.96973875,-0.6609770656,0.2909417748,-0.4703003764,2024-06-11 14:01:48.969739
24.01020912,-0.6428681016,1.036471725,-0.071104303,2024-06-11 14:01:49.010209
24.05064365,0.1009308323,-0.3334179223,0.02902759984,2024-06-11 14:01:49.050644
24.09110808,0.6074491143,0.4595148861,-0.01438064594,2024-06-11 14:01:49.091108
24.13163209,-0.208119899,3.013544321,0.3114475012,2024-06-11 14:01:49.131632
24.17211266,-0.4672378302,3.783308268,0.6334142089,2024-06-11 14:01:49.172113
24.21258401,-0.684412241,3.934571266,0.7179670334,2024-06-11 14:01:49.212584
24.25308058,-0.7959953547,2.75482583,0.6051855087,2024-06-11 14:01:49.253081
24.29358271,-1.073754907,1.455774069,0.4472647011,2024-06-11 14:01:49.293583
24.33402875,-1.460833907,0.8394036293,0.3082517982,2024-06-11 14:01:49.334029
24.37452047,-1.26802671,0.5789541602,0.07856093347,2024-06-11 14:01:49.374520
24.415025,-0.6833469868,0.1404775977,-0.3363473415,2024-06-11 14:01:49.415025
24.4554662,-0.5071840882,-0.7457962632,-0.5671034455,2024-06-11 14:01:49.455466
24.49595339,-1.786528945,-4.37131691,-0.4926702678,2024-06-11 14:01:49.495953
24.53644428,0.4567186534,-3.178788424,0.01677742042,2024-06-11 14:01:49.536444
24.57694886,1.07655108,0.9818785191,-0.3235645294,2024-06-11 14:01:49.576949
24.61741886,0.2372806519,2.329664707,0.127961114,2024-06-11 14:01:49.617419
24.65788813,0.5483286977,2.04551363,-0.14993155,2024-06-11 14:01:49.657888
24.69837318,0.5315513015,1.445121765,-0.1818885356,2024-06-11 14:01:49.698373
24.73884032,0.7314156294,-0.01025286783,-0.2913412452,2024-06-11 14:01:49.738840
24.77930219,0.5078498721,1.05697751,-0.3366136253,2024-06-11 14:01:49.779302
24.81981459,-0.392937839,0.8511211872,-0.1605838835,2024-06-11 14:01:49.819815
24.86023761,-0.1508636326,1.110505462,-0.03728315607,2024-06-11 14:01:49.860238
24.90071782,-0.1266295761,-0.004394086078,-0.04953333735,2024-06-11 14:01:49.900718
24.94120625,0.2439383566,-0.2711018026,-0.3488638103,2024-06-11 14:01:49.941206
24.9816861,0.1784265339,1.636863708,-0.4023917615,2024-06-11 14:01:49.981686
25.02219646,0.2279598713,3.618463516,-0.2910749316,2024-06-11 14:01:50.022196
25.06267459,0.03808208182,3.393832445,-0.276694268,2024-06-11 14:01:50.062675
25.10315443,-0.3649754524,3.745492458,-0.4378107786,2024-06-11 14:01:50.103154
25.14365105,0.06657706201,3.132584095,-0.3600487709,2024-06-11 14:01:50.143651
25.18413224,0.5312849879,-2.232861519,-0.3837502003,2024-06-11 14:01:50.184132
25.22461261,0.5741605759,-1.699312925,-0.263112545,2024-06-11 14:01:50.224613
25.26507657,0.4734960794,0.2089188248,-0.3773587942,2024-06-11 14:01:50.265077
25.30555891,0.4396749437,-0.4857462645,-0.1214365661,2024-06-11 14:01:50.305559
25.34602245,0.3821523488,0.4810858667,-0.09507204592,2024-06-11 14:01:50.346022
25.38652209,0.2010627389,0.4571181238,-0.03355484083,2024-06-11 14:01:50.386522
25.42704683,0.1424749196,-0.1555240154,-0.0037283157,2024-06-11 14:01:50.427047
25.46748401,0.0758978501,-0.756182313,0.1793586165,2024-06-11 14:01:50.467484
25.50798125,0.1025286764,-0.8206288815,0.1442059278,2024-06-11 14:01:50.507981
25.54844355,0.2559222281,-0.8424661756,0.02822867595,2024-06-11 14:01:50.548444
25.58894776,0.1347519755,-0.7106435895,0.09427312016,2024-06-11 14:01:50.588948
25.62943125,0.4367455542,-0.6439333558,0.04660394415,2024-06-11 14:01:50.629431
25.66993323,0.513176024,-0.8744231462,-0.08362079412,2024-06-11 14:01:50.669933
25.71042339,0.5427362323,-0.888004899,0.09680305421,2024-06-11 14:01:50.710423
25.75090386,0.07456631213,-0.7974600792,0.3476654291,2024-06-11 14:01:50.750904
25.79138433,-0.1703041345,-0.6460638046,0.7568480372,2024-06-11 14:01:50.791384
25.8318648,-0.1798912287,-1.301981091,0.6690995097,2024-06-11 14:01:50.831865
25.87232386,-0.3961335421,-1.715824127,0.4283568263,2024-06-11 14:01:50.872324
25.9127599,0.140877068,-1.651377439,0.09786828607,2024-06-11 14:01:50.912760
25.95325178,0.2833519876,-1.292660236,-0.01278279629,2024-06-11 14:01:50.953252
25.99374558,-0.1793586165,-0.4330172241,0.2496639937,2024-06-11 14:01:50.993746
26.03419443,-0.1822880059,-1.119426727,0.4603138268,2024-06-11 14:01:51.034194
26.07465271,0.2942706347,-0.8368737102,0.3953346014,2024-06-11 14:01:51.074653
26.11514516,0.2002638131,-0.574693203,0.5878754854,2024-06-11 14:01:51.115145
26.15567917,0.239144817,-0.848058641,0.2659088075,2024-06-11 14:01:51.155679
26.19614172,0.6706973314,-0.4671046734,-0.1083874628,2024-06-11 14:01:51.196142
26.23662922,0.5696333647,1.560433269,0.2496639937,2024-06-11 14:01:51.236629
26.2770874,0.9457937479,3.49955678,-0.3150426745,2024-06-11 14:01:51.277087
26.31756667,1.635931611,1.190797329,-1.457505107,2024-06-11 14:01:51.317567
26.3580386,2.058962345,0.4864120185,-2.02886939,2024-06-11 14:01:51.358039
26.39853907,-0.04434032366,2.49943614,-0.9513862729,2024-06-11 14:01:51.398539
26.43903792,-1.935528398,2.100639582,0.2667077184,2024-06-11 14:01:51.439038
26.4794999,-0.6109111309,0.008655018173,1.120891452,2024-06-11 14:01:51.479500
26.52000433,1.832200766,-4.263062477,-0.2162422985,2024-06-11 14:01:51.520004
26.56046136,-0.6378082633,3.078789711,0.7010564804,2024-06-11 14:01:51.560461
26.60092578,0.3792229593,-2.213421106,0.4944012761,2024-06-11 14:01:51.600926
26.6413761,0.4338161349,0.1548582464,-0.4165061116,2024-06-11 14:01:51.641376
26.68187073,-0.3130453527,1.511965156,0.0949388966,2024-06-11 14:01:51.681871
26.7223862,-0.5684349537,2.597970247,0.1039933711,2024-06-11 14:01:51.722386
26.76285344,0.6784203053,0.4451342523,-0.4631100595,2024-06-11 14:01:51.762853
26.80332813,-0.2983984053,0.3170399666,-0.2655093372,2024-06-11 14:01:51.803328
26.84381261,-0.9664326906,0.9584434032,0.4645747542,2024-06-11 14:01:51.843813
26.88431287,-0.05153064802,-1.01423502,0.6006582975,2024-06-11 14:01:51.884313
26.92479006,0.3746957183,-2.068016768,0.2627131045,2024-06-11 14:01:51.924790
26.96525881,0.3318201005,-2.192382812,0.3021267056,2024-06-11 14:01:51.965259
27.00573829,-0.1671084315,-1.572550297,0.1508636326,2024-06-11 14:01:52.005738
27.04623552,-0.2925396264,0.1271621883,-0.290275991,2024-06-11 14:01:52.046236
27.08667146,0.6485937834,0.8529853225,-0.2995967865,2024-06-11 14:01:52.086671
27.12720011,0.5235620141,0.7517881989,-0.1195724085,2024-06-11 14:01:52.127200
27.16767308,0.4127778113,-0.3635107577,-0.3472659588,2024-06-11 14:01:52.167673
27.20815917,-0.0904116556,-0.4953333437,-0.1611164957,2024-06-11 14:01:52.208159
27.24864271,-1.198253989,0.1119826213,0.1700378209,2024-06-11 14:01:52.248643
27.28909678,-1.982132316,-0.3398093283,0.3399424851,2024-06-11 14:01:52.289097
27.32956547,-1.912892222,-1.482538104,0.2107829899,2024-06-11 14:01:52.329565
27.37005256,-1.85776639,-2.16921401,0.1814890802,2024-06-11 14:01:52.370053
27.41049886,-2.25190258,-2.739246607,0.4872109592,2024-06-11 14:01:52.410499
27.45096037,-2.265484333,-2.356428623,0.7896040082,2024-06-11 14:01:52.450960
27.49145021,-1.481339693,-1.061105251,0.7760222554,2024-06-11 14:01:52.491450
27.53195271,-1.158973575,0.8247566819,0.6342130899,2024-06-11 14:01:52.531953
27.57248438,-0.9195623994,1.923544526,0.3351489305,2024-06-11 14:01:52.572484
27.61295422,0.1813559234,-0.05073172227,-0.2655093372,2024-06-11 14:01:52.612954
27.65342875,0.5304860473,-0.07616416365,-0.3331516385,2024-06-11 14:01:52.653429
27.69391886,0.5653724074,0.4616453648,0.07270215452,2024-06-11 14:01:52.693919
27.73439506,0.08947957307,-0.6370093226,0.037815772,2024-06-11 14:01:52.734395
27.77484443,0.134485662,0.008388710208,0.158320263,2024-06-11 14:01:52.774844
27.81533943,-0.4485962689,-1.562164187,0.04687025398,2024-06-11 14:01:52.815339
27.85581917,0.3019935489,-1.56828928,-0.117974557,2024-06-11 14:01:52.855819
27.89636287,-0.06777545065,2.056432247,0.08575125784,2024-06-11 14:01:52.896363
27.93679407,0.2484655976,2.000773907,0.3556546867,2024-06-11 14:01:52.936794
27.97728339,1.95909667,0.5143743753,0.1303578913,2024-06-11 14:01:52.977283
28.01780136,3.925916195,1.707701683,-0.9013202786,2024-06-11 14:01:53.017801
28.05823141,4.158403397,3.160812616,-2.84044385,2024-06-11 14:01:53.058231
28.09871183,2.370010376,3.711405039,-3.061612844,2024-06-11 14:01:53.098712
28.13921349,0.8158353567,2.313153505,-1.202914357,2024-06-11 14:01:53.139213
28.17972204,0.1699046642,-1.264564753,-0.113447316,2024-06-11 14:01:53.179722
28.22020151,-0.705716908,-0.5366111398,0.822892487,2024-06-11 14:01:53.220202
28.26059198,-1.407838583,-1.974808931,0.6030550599,2024-06-11 14:01:53.260592
28.30107235,-1.07695055,-0.02862813696,0.4014596939,2024-06-11 14:01:53.301072
28.3415836,-1.341261506,2.566279411,0.7153039575,2024-06-11 14:01:53.341584
28.38206401,-0.3615134656,1.5234164,0.2347507328,2024-06-11 14:01:53.382064
28.42254329,-0.5652392507,-0.7255568504,-0.1824211627,2024-06-11 14:01:53.422543
28.4630673,-0.8085118532,-0.921826005,-0.6507242322,2024-06-11 14:01:53.463067
28.50351974,-0.1801575422,1.940854549,-0.4838820994,2024-06-11 14:01:53.503520
28.54400678,-1.243526459,2.069215059,0.006924014539,2024-06-11 14:01:53.544007
28.58450896,-0.6649717093,-0.2370143533,-0.1203713343,2024-06-11 14:01:53.584509
28.6249899,-0.2472672164,-2.090652943,-0.2865476906,2024-06-11 14:01:53.624990
28.66546526,-0.2885449827,-1.437265635,0.1918751001,2024-06-11 14:01:53.665465
28.70595506,-0.6452649236,-0.5187684894,0.3383446336,2024-06-11 14:01:53.705955
28.74639631,-0.700124383,-0.01371487509,0.1748313755,2024-06-11 14:01:53.746396
28.78688422,-0.6881405115,-0.2732322812,0.1178414002,2024-06-11 14:01:53.786884
28.82736219,-0.3364804685,-0.4314193726,-0.1496652365,2024-06-11 14:01:53.827362
28.86782787,0.4247616827,-0.9923977256,0.1655105799,2024-06-11 14:01:53.867828
28.90831547,1.597849488,-2.14471364,-0.1946713328,2024-06-11 14:01:53.908315
28.94879714,2.272807837,-0.02410089783,-0.7836120725,2024-06-11 14:01:53.948797
28.98928047,2.078136444,1.514894485,-0.2615146935,2024-06-11 14:01:53.989280
29.02980407,0.8648360372,1.037004352,-0.03248960897,2024-06-11 14:01:54.029804
29.07029464,0.8315475583,-0.3957340717,0.392937839,2024-06-11 14:01:54.070295
29.11065469,0.695464015,-0.8983908892,0.6256912351,2024-06-11 14:01:54.110655
29.15113391,-0.1689725816,-0.5512580872,1.125152349,2024-06-11 14:01:54.151134
29.19167058,-0.1513962448,-0.7431331873,1.074553847,2024-06-11 14:01:54.191671
29.23214881,-0.2105166763,-1.329943419,1.168027997,2024-06-11 14:01:54.232149
29.27263422,0.05272903293,-1.271755099,0.9270190597,2024-06-11 14:01:54.272634
29.31313099,-0.2456693649,-0.623693943,0.3870790601,2024-06-11 14:01:54.313131
29.35361511,-0.0355521515,-0.8414009213,0.3023930192,2024-06-11 14:01:54.353615
29.3940874,0.1826874614,-1.882000446,0.1998643428,2024-06-11 14:01:54.394087
29.43455323,-0.2872134447,-0.9990554452,0.2632457018,2024-06-11 14:01:54.434553
29.47505292,-0.7600437403,0.2446041405,-0.03728315607,2024-06-11 14:01:54.475053
29.51553224,0.541138351,-0.3131785095,-0.307053417,2024-06-11 14:01:54.515532
29.55599594,-0.7248910666,-1.587996125,-0.08628387749,2024-06-11 14:01:54.555996
29.59646094,-1.448850036,0.5415378213,0.2030600458,2024-06-11 14:01:54.596461
29.6369936,-1.149120092,2.805690527,-0.05539211631,2024-06-11 14:01:54.636994
29.67746922,-0.5138418078,1.006112576,0.1388797611,2024-06-11 14:01:54.677469
29.71793094,-0.1822880059,-2.030200958,-0.002396774245,2024-06-11 14:01:54.717931
29.75839672,-0.1362166703,-0.3454017937,0.005326164886,2024-06-11 14:01:54.758397
29.79889011,-0.2744306624,0.3868127465,0.04740286991,2024-06-11 14:01:54.798890
29.83940198,-0.3189041317,0.5404726267,0.1591191888,2024-06-11 14:01:54.839402
29.87988308,-0.2832188308,0.2792242169,0.2517944574,2024-06-11 14:01:54.879883
29.92034381,-0.5066514611,-0.2050573528,0.1969349533,2024-06-11 14:01:54.920344
29.96078381,-0.376160413,-0.4460663199,0.08814803511,2024-06-11 14:01:54.960784
30.00125928,-0.2784252763,-0.3336842358,-0.02023942769,2024-06-11 14:01:55.001259
30.04172917,-0.4573844373,-0.02410089783,0.05299534276,2024-06-11 14:01:55.041729
30.08219391,-0.5146406889,-0.3030588031,0.1772281379,2024-06-11 14:01:55.082194
30.12272292,-0.5774894357,-0.9188966155,0.05485950038,2024-06-11 14:01:55.122723
30.16322245,-0.1636464298,-0.517170608,-0.2069215178,2024-06-11 14:01:55.163222
30.20368318,-0.3079854846,-0.1320888996,-0.1592523307,2024-06-11 14:01:55.203683
30.24417313,-0.5266245604,-0.230090335,-0.01118494663,2024-06-11 14:01:55.244173
30.28466454,-0.59599787,-0.434348762,0.09973244369,2024-06-11 14:01:55.284665
30.32511302,0.05938674137,0.2019948065,0.001597849536,2024-06-11 14:01:55.325113
30.36559521,0.68321383,0.8247566819,0.4523245692,2024-06-11 14:01:55.365595
30.40610646,0.6375419497,0.6849448085,0.4656399786,2024-06-11 14:01:55.406106
30.44659672,1.492125154,-0.8962604403,-0.219171688,2024-06-11 14:01:55.446597
30.48707053,2.9696033,0.3543231487,-1.264165282,2024-06-11 14:01:55.487071
30.52753599,2.132197142,2.584921122,-1.501712203,2024-06-11 14:01:55.527536
30.56802287,0.9255543351,3.545095444,-1.363764524,2024-06-11 14:01:55.568023
30.6085149,0.4391423166,1.558036447,-0.6592460871,2024-06-11 14:01:55.608515
30.64899943,0.7564486265,-2.337520599,-0.3741630912,2024-06-11 14:01:55.648999
30.68947052,1.135405302,-1.144726038,-0.1842853129,2024-06-11 14:01:55.689471
30.72996886,-0.151928857,-0.4607132971,0.1737661362,2024-06-11 14:01:55.729969
30.77046094,-0.9168993235,-0.3363473415,0.6667027473,2024-06-11 14:01:55.770461
30.81088063,-0.548728168,-1.515826583,0.640604496,2024-06-11 14:01:55.810881
30.85133084,-0.1316894293,-1.259238601,0.1987991184,2024-06-11 14:01:55.851331
30.89181157,-1.126483917,1.386267662,0.2232994735,2024-06-11 14:01:55.891812
30.9323049,-0.6692326665,0.9091764092,0.2131797522,2024-06-11 14:01:55.932305
30.9728162,1.017430663,-0.3416734934,-0.2591179311,2024-06-11 14:01:55.972816
31.01327625,-0.4150414169,0.9075785279,0.1660431921,2024-06-11 14:01:56.013276
31.05378105,-0.3079854846,2.019948006,0.1229012609,2024-06-11 14:01:56.053781
31.09419219,0.8613740802,0.07416684926,-0.03169068322,2024-06-11 14:01:56.094192
31.13473657,0.440207541,-2.068549395,0.2075872868,2024-06-11 14:01:56.134737
31.1752187,1.512897253,-3.388905764,-0.7426005602,2024-06-11 14:01:56.175219
31.21571412,-0.4304873049,3.760139465,-0.3725652397,2024-06-11 14:01:56.215714
31.25620115,-0.7272878289,2.41182065,0.2776263654,2024-06-11 14:01:56.256201
31.29665089,1.136736751,-1.261369109,-0.2063889056,2024-06-11 14:01:56.296651
31.33713089,0.4979964495,-1.019827485,-0.2039921284,2024-06-11 14:01:56.337131
31.37759448,-0.08588441461,1.149386406,0.004527240526,2024-06-11 14:01:56.377594
31.41811907,-0.03395430371,0.7789516449,0.06098458916,2024-06-11 14:01:56.418119
31.4585649,0.01744319126,0.3143768907,0.02822867595,2024-06-11 14:01:56.458565
31.49907073,0.1517957002,-0.5579158068,-0.04181039706,2024-06-11 14:01:56.499071
31.53958428,0.1986659616,-0.4316856861,-0.04234301299,2024-06-11 14:01:56.539584
31.58006261,0.1757634431,0.4701672196,0.06125089899,2024-06-11 14:01:56.580063
31.62045131,0.4031907022,0.2485987544,-0.05725627393,2024-06-11 14:01:56.620451
31.66094797,0.276694268,0.3812202811,-0.3275591433,2024-06-11 14:01:56.660948
31.70142771,0.06524552405,0.5712311864,-0.3720326424,2024-06-11 14:01:56.701428
31.7419074,-0.06111774594,-0.03342168778,-0.4473978579,2024-06-11 14:01:56.741907
31.7824299,0.3006620109,-1.41835773,-0.7926664948,2024-06-11 14:01:56.782430
31.82289214,-0.05286218971,-1.587729812,-0.4900071919,2024-06-11 14:01:56.822892
31.86337183,-0.3841496706,0.4922707975,-0.3600487709,2024-06-11 14:01:56.863372
31.90386042,-0.5287550688,1.329543948,0.1199718714,2024-06-11 14:01:56.903860
31.94434261,-0.7485924959,0.1436733007,0.8612409234,2024-06-11 14:01:56.944343
31.98483219,-0.3463338912,-0.7399374843,0.8476591706,2024-06-11 14:01:56.984832
32.0253586,-0.8702954054,-1.135671616,0.9896014929,2024-06-11 14:01:57.025359
32.06577183,-1.237401366,-1.14259553,0.9619054198,2024-06-11 14:01:57.065772
32.10623287,-1.094526887,-0.9447285533,0.7981258631,2024-06-11 14:01:57.106233
32.14675401,-1.266162634,-1.263499498,0.7978595495,2024-06-11 14:01:57.146754
32.18722073,-1.814091802,-0.5640408993,0.938470304,2024-06-11 14:01:57.187221
32.22774506,-1.906500816,1.021025896,0.8471265435,2024-06-11 14:01:57.227745
32.26818917,-1.153913617,0.8487244248,0.1876141727,2024-06-11 14:01:57.268189
32.30866584,-0.01344856713,-4.35054493,-0.6075822711,2024-06-11 14:01:57.308666
32.34911948,0.8629719019,-1.589327693,-0.7713618875,2024-06-11 14:01:57.349119
32.38962053,0.2356828004,2.691178083,-0.6025224328,2024-06-11 14:01:57.389621
32.43014401,-0.0006657706108,2.697303057,0.3990629315,2024-06-11 14:01:57.430144
32.47054412,-0.09653674066,0.7376738787,0.3109148741,2024-06-11 14:01:57.470544
32.51102438,0.0599193573,-3.062278748,0.02956021577,2024-06-11 14:01:57.511024
32.55153125,0.9926640391,-0.9769518375,-0.3139774203,2024-06-11 14:01:57.551531
32.59201151,-0.203592658,1.285336852,0.114113085,2024-06-11 14:01:57.592012
32.6325012,0.3296896219,1.801042676,0.367105931,2024-06-11 14:01:57.632501
32.67299735,0.7196980715,2.388119221,0.2001306564,2024-06-11 14:01:57.672997
32.71347605,1.716889381,1.085472465,-0.06764229387,2024-06-11 14:01:57.713476
32.75396318,1.020360112,0.6396724582,-0.5418041348,2024-06-11 14:01:57.753963
32.79445834,1.365362406,0.7035863996,-0.6054518223,2024-06-11 14:01:57.794458
32.83497516,5.225234509,-0.1059906855,-1.758832932,2024-06-11 14:01:57.834975
32.87539,1.858964801,0.7472609878,-1.570952415,2024-06-11 14:01:57.875390
32.9158774,-1.20198226,0.7677667141,-0.05299534276,2024-06-11 14:01:57.915877
32.95635386,0.2940043211,-2.393179178,-1.163767099,2024-06-11 14:01:57.956354
32.99682761,-0.1319557428,-1.932199597,-0.6384740472,2024-06-11 14:01:57.996828
33.03731881,-1.453377366,-1.557370663,0.6017234921,2024-06-11 14:01:58.037319
33.07778261,-1.020493269,-0.7540518045,0.2746969759,2024-06-11 14:01:58.077783
33.11827943,-0.7182333469,-2.339118481,-0.05858781561,2024-06-11 14:01:58.118279
33.15878375,-2.065753222,1.289331436,1.203446984,2024-06-11 14:01:58.158784
33.19925178,-1.173354149,2.650965452,0.9712262154,2024-06-11 14:01:58.199252
33.2397562,1.535000801,-1.154845715,-0.3440702558,2024-06-11 14:01:58.239756
33.28023516,0.01238333434,0.828751266,0.2232994735,2024-06-11 14:01:58.280235
33.32065136,-1.208373666,5.381157875,-0.3240971565,2024-06-11 14:01:58.320651
33.36112084,0.07536523789,2.38732028,-0.1022623703,2024-06-11 14:01:58.361121
33.40159568,-0.0621829778,-1.709166408,-0.4127778113,2024-06-11 14:01:58.401596
33.44211063,-0.4890751243,1.447252274,-0.2865476906,2024-06-11 14:01:58.442111
33.48261011,-0.9888025522,1.298385859,0.3093170524,2024-06-11 14:01:58.482610
33.52308511,-0.64499861,-0.005725627299,0.3042571843,2024-06-11 14:01:58.523085
33.56355355,-0.3450023532,-0.2066552043,0.2371474952,2024-06-11 14:01:58.563554
33.60402985,0.5025236607,-0.1792254597,0.2712349594,2024-06-11 14:01:58.604030
33.64451318,1.861894131,2.330197334,-0.3651086092,2024-06-11 14:01:58.644513
33.6850236,3.813267946,0.9733566642,-1.785730004,2024-06-11 14:01:58.685024
33.7255224,3.071599483,-2.251236916,-2.03259778,2024-06-11 14:01:58.725522
33.765985,-0.3924052119,3.795824766,-0.4007939398,2024-06-11 14:01:58.765985
33.80647808,-0.672162056,2.635253429,0.8495233655,2024-06-11 14:01:58.806478
33.84697016,1.06696403,-0.4820179343,0.9315462708,2024-06-11 14:01:58.846970
33.88742016,0.4924039543,-0.8416672349,1.675212026,2024-06-11 14:01:58.887420
33.92789224,-0.6362104416,-1.204645395,0.8226261735,2024-06-11 14:01:58.927892
33.96837266,-1.354843259,0.5906717181,0.383883357,2024-06-11 14:01:58.968373
34.00886412,-1.150185347,-0.7383396626,1.154712558,2024-06-11 14:01:59.008864
34.04933052,-3.309146404,2.385456085,1.79505074,2024-06-11 14:01:59.049331
34.0898011,-3.800884485,2.873599291,-0.06631075591,2024-06-11 14:01:59.089801
34.13025995,-1.599047899,-1.184672236,-0.7340787053,2024-06-11 14:01:59.130260
34.17072985,0.4745613039,-4.285698891,-0.8549826741,2024-06-11 14:01:59.170730
34.21121078,-1.750044703,2.098509073,-1.165897489,2024-06-11 14:01:59.211211
34.25168714,-1.228613138,9.005347252,-0.1536598653,2024-06-11 14:01:59.251687
34.29222011,-0.5647066832,7.808291435,0.4435364008,2024-06-11 14:01:59.292220
34.33270443,0.6218297482,3.563737154,-0.04687025398,2024-06-11 14:01:59.332704
34.37318183,1.972412109,0.4587159753,-1.55790329,2024-06-11 14:01:59.373182
34.4136523,1.345123053,-3.711271763,-3.935769796,2024-06-11 14:01:59.413652
34.45411959,4.107804775,-10.0784359,-3.904345274,2024-06-11 14:01:59.454120
34.49463401,-4.105541229,3.929777861,0.9685631394,2024-06-11 14:01:59.494634
34.5350761,-2.972399712,3.687437296,0.009320789017,2024-06-11 14:01:59.535076
34.57559454,-0.6306179762,1.190531015,0.2464682907,2024-06-11 14:01:59.575595
34.61607381,-1.422219276,3.102224827,0.1066564545,2024-06-11 14:01:59.616074
34.65651532,-3.089442015,4.882894993,0.4616453648,2024-06-11 14:01:59.656515
34.69705485,-3.645094156,5.815639496,1.023156285,2024-06-11 14:01:59.697055
34.73749875,-2.193314791,4.246018887,-0.4359466136,2024-06-11 14:01:59.737499
34.7779911,-1.957365632,1.330875516,-0.3536573648,2024-06-11 14:01:59.777991
34.81847849,-4.206205845,-0.5941337347,0.1535267085,2024-06-11 14:01:59.818478
34.85890219,-4.267057419,2.457093239,0.4081174135,2024-06-11 14:01:59.858902
34.89946526,-1.507970452,4.216192245,0.7208964229,2024-06-11 14:01:59.899465
34.93995537,-1.834331274,0.1812227666,0.345801264,2024-06-11 14:01:59.939955
34.9803561,-1.350582361,-1.351780653,0.5354127288,2024-06-11 14:01:59.980356
35.02081146,0.05565842614,1.995447755,0.4472647011,2024-06-11 14:02:00.020811
35.06128714,0.577888906,1.943783998,0.4115794003,2024-06-11 14:02:00.061287
35.10176683,2.412619591,0.8207620382,0.268838197,2024-06-11 14:02:00.101767
35.1422987,3.441368341,0.7267552018,0.4842815697,2024-06-11 14:02:00.142299
35.18277896,3.987699747,1.560699582,-0.4894745648,2024-06-11 14:02:00.182779
35.22325355,3.459211111,0.4741618633,-2.008896351,2024-06-11 14:02:00.223254
35.26372912,2.192116499,1.380675197,-0.3097164929,2024-06-11 14:02:00.263729
35.30422594,1.456173539,-1.274684429,0.056723658,2024-06-11 14:02:00.304226
35.34474235,0.237813279,-0.145404309,-0.1880136281,2024-06-11 14:02:00.344742
35.38518459,-1.344190955,-0.7551170588,-0.1041265279,2024-06-11 14:02:00.385185
35.42567454,-2.610753059,-1.97614038,0.05352795869,2024-06-11 14:02:00.425675
35.46616834,1.64924705,4.420184612,0.607049644,2024-06-11 14:02:00.466168
35.5066225,0.5246272683,-2.061891556,0.8316806555,2024-06-11 14:02:00.506622
35.54711235,-1.321022153,1.083874583,0.3564535975,2024-06-11 14:02:00.547112
35.5876112,-1.983996511,4.71898222,-0.03914731368,2024-06-11 14:02:00.587611
35.62808188,-1.607836127,0.2792242169,-1.216762424,2024-06-11 14:02:00.628082
35.66854912,-4.872775078,-7.733591557,-3.160679579,2024-06-11 14:02:00.668549
35.7090611,-4.048551083,6.015637398,0.7131735086,2024-06-11 14:02:00.709061
35.74952037,-0.4874772727,-3.036180496,-0.1813559234,2024-06-11 14:02:00.749520
35.79001776,1.293725491,-3.151358843,-0.3195699155,2024-06-11 14:02:00.790018
35.83046047,0.7335460782,-0.273498565,-0.1877473146,2024-06-11 14:02:00.830460
35.87094089,0.9886693954,0.008921326138,0.4912055731,2024-06-11 14:02:00.870941
35.91138724,1.215297699,-0.1547250897,0.5141080618,2024-06-11 14:02:00.911387
35.95190026,2.14604497,0.4105141759,0.258452177,2024-06-11 14:02:00.951900
35.99238745,4.31193018,2.482125998,0.5314181447,2024-06-11 14:02:00.992387
36.03286454,2.197442532,-3.260545015,-1.702242374,2024-06-11 14:02:01.032865
36.07331881,1.94205296,1.309570789,-0.2444709837,2024-06-11 14:02:01.073319
36.11379745,-0.04940018058,1.928870678,0.6443328261,2024-06-11 14:02:01.113797
36.15433068,-0.5983946323,-1.897313118,0.977883935,2024-06-11 14:02:01.154331
36.19482662,-1.289864063,-2.285590649,0.4773575366,2024-06-11 14:02:01.194827
36.23530323,0.5291544795,-0.8813471794,0.2304897904,2024-06-11 14:02:01.235303
36.27575396,3.819659233,-2.754692554,-0.5604457259,2024-06-11 14:02:01.275754
36.31622282,-0.7395380139,-1.411167502,0.1961360276,2024-06-11 14:02:01.316223
36.35670495,-1.357240081,3.49369812,0.6893389225,2024-06-11 14:02:01.356705
36.39719355,-0.5585815907,8.536377907,-0.181622237,2024-06-11 14:02:01.397194
36.43769224,-1.871614456,-0.9290163517,-1.027816772,2024-06-11 14:02:01.437692
36.47818204,-2.53059411,-3.882774353,-0.1579207927,2024-06-11 14:02:01.478182
36.51866026,-2.058296442,1.026352048,0.7299509048,2024-06-11 14:02:01.518660
36.55912537,-2.698634624,0.6066502333,0.7877398133,2024-06-11 14:02:01.559125
36.59960469,-1.703440785,0.1364829838,0.5053198934,2024-06-11 14:02:01.599605
36.64010308,-0.9581770897,-0.7386059761,0.3995955288,2024-06-11 14:02:01.640103
36.68054011,-0.5322170258,0.4038564563,0.1346188188,2024-06-11 14:02:01.680540
36.72100901,-0.07762885839,1.624879837,-0.137681365,2024-06-11 14:02:01.721009
36.76146683,1.012903452,1.488796353,-0.1728340536,2024-06-11 14:02:01.761467
36.80196818,2.709686518,0.1396786869,0.3162410557,2024-06-11 14:02:01.801968
36.84245891,2.87985754,-2.695838451,0.6515231729,2024-06-11 14:02:01.842459
36.8829511,2.603962183,-0.06577813625,-0.3296896219,2024-06-11 14:02:01.882951
36.9234461,2.18173027,1.543123245,-0.5902722478,2024-06-11 14:02:01.923446
36.96391323,1.762161732,1.758832932,-0.4228975177,2024-06-11 14:02:01.963913
37.00439907,1.24432528,-0.1661763489,-0.2090519816,2024-06-11 14:02:02.004399
37.0449024,0.7274209857,-2.76401329,0.07456631213,2024-06-11 14:02:02.044902
37.08530662,0.9266195893,-2.848699331,-0.2399437428,2024-06-11 14:02:02.085307
37.12582901,0.4247616827,-2.537118673,-0.1880136281,2024-06-11 14:02:02.125829
37.16633724,0.924222827,-2.120479584,-0.1976007223,2024-06-11 14:02:02.166337
37.20682662,1.978803515,-2.526200056,-0.5876091719,2024-06-11 14:02:02.206827
37.24729641,0.3387441039,-2.198507786,0.1450048387,2024-06-11 14:02:02.247296
37.28776709,1.328079224,-1.337666392,0.3159747422,2024-06-11 14:02:02.287767
37.32821417,2.054168701,-0.9287500381,0.749125123,2024-06-11 14:02:02.328214
37.36870224,1.331807613,-0.3746957183,0.4528571963,2024-06-11 14:02:02.368702
37.40921917,0.1443390697,0.6260907054,0.8063814044,2024-06-11 14:02:02.409219
37.44973381,0.9782834053,0.1194392517,0.5146406889,2024-06-11 14:02:02.449734
37.49019698,1.42501545,-2.425402403,-0.9292826653,2024-06-11 14:02:02.490197
37.53063526,-0.5761579275,0.92036134,-0.9833432436,2024-06-11 14:02:02.530635
37.57109219,-1.005579948,1.620885253,0.1559234858,2024-06-11 14:02:02.571092
37.61156823,1.060306311,-0.5967968106,-0.3667064607,2024-06-11 14:02:02.611568
37.65204881,1.304644108,-0.6077154279,-0.05698996782,2024-06-11 14:02:02.652049
37.69255901,1.755237699,-0.7785521746,-0.04021254554,2024-06-11 14:02:02.692559
37.73305047,0.9655005932,-0.009453942999,-0.5065183043,2024-06-11 14:02:02.733050
37.77354881,0.155790329,-0.348331213,0.4027912319,2024-06-11 14:02:02.773549
37.81401058,0.3893426657,-0.0708379969,0.160983339,2024-06-11 14:02:02.814011
37.85449073,0.05539211631,-0.1115831584,0.2312887162,2024-06-11 14:02:02.854491
37.89495547,-0.2472672164,-0.3014609516,0.8473928571,2024-06-11 14:02:02.894955
37.93545547,-0.4664389193,-0.541138351,0.9161003828,2024-06-11 14:02:02.935455
37.97597954,-1.46030128,0.09254211932,0.7714950442,2024-06-11 14:02:02.975980
38.01641547,-0.9091764092,0.2011958808,0.09240896255,2024-06-11 14:02:03.016415
38.05689412,-0.2813546658,-0.729018867,-0.2157096863,2024-06-11 14:02:03.056894
38.09734344,-0.4126446545,-0.744731009,0.01038602181,2024-06-11 14:02:03.097343
38.13783344,0.001464695437,-1.428477526,-0.3664401472,2024-06-11 14:02:03.137833
38.17833683,0.2665745616,-2.071478844,-0.1616491079,2024-06-11 14:02:03.178337
38.21884615,0.2039921284,-1.591724396,0.2861482203,2024-06-11 14:02:03.218846
38.25929464,0.1312899739,-1.060306311,0.4629769027,2024-06-11 14:02:03.259295
38.29982058,-0.4057206213,-1.685198665,0.7882724404,2024-06-11 14:02:03.299821
38.34024578,-0.6987928748,-2.754426241,1.091331244,2024-06-11 14:02:03.340246
38.38072662,0.466039449,-3.805545092,0.4651073813,2024-06-11 14:02:03.380727
38.42120745,1.346454501,-2.992505789,-0.2151770741,2024-06-11 14:02:03.421207
38.46168834,1.490793586,-2.155365944,0.4416722357,2024-06-11 14:02:03.461688
38.50215568,1.722481847,-2.793307304,0.7070484161,2024-06-11 14:02:03.502156
38.54265709,2.003037453,-0.6935998797,-0.1709699035,2024-06-11 14:02:03.542657
38.58316594,2.42220664,0.01611164957,1.526079416,2024-06-11 14:02:03.583166
38.62364678,2.617543936,0.7070484161,2.10277009,2024-06-11 14:02:03.623647
38.66410948,0.6722952127,0.5178363919,1.358305216,2024-06-11 14:02:03.664109
38.70459089,1.486000061,-2.242448568,2.023942709,2024-06-11 14:02:03.704591
38.74506782,1.253512979,-3.474923372,1.932599068,2024-06-11 14:02:03.745068
38.78556261,0.3432713449,-3.692230701,2.193847418,2024-06-11 14:02:03.785563
38.82604339,0.6085143685,-3.902214766,1.234072447,2024-06-11 14:02:03.826043
38.86652381,1.596251726,-3.442167282,-0.06418029219,2024-06-11 14:02:03.866524
38.90697391,1.556305408,-4.921243191,-0.4854799509,2024-06-11 14:02:03.906974
38.94752881,0.5754921436,-0.3480648994,-0.08122401685,2024-06-11 14:02:03.947529
38.98793834,-0.7017222643,0.7406032681,0.5718969703,2024-06-11 14:02:03.987938
39.02845334,-1.426480174,1.241662264,0.6957303286,2024-06-11 14:02:04.028453
39.06890407,1.057643294,5.498999119,-0.6834801435,2024-06-11 14:02:04.068904
39.10938443,-1.132875323,-1.75310719,-0.0037283157,2024-06-11 14:02:04.109384
39.1498636,-0.84020257,-2.423271894,0.01704372838,2024-06-11 14:02:04.149864
39.19034719,-0.2011958808,-2.355629683,-0.2726996541,2024-06-11 14:02:04.190347
39.2307825,-1.176017284,-3.018337727,0.4749607742,2024-06-11 14:02:04.230782
39.27126209,-3.195166349,-2.779725552,1.301182151,2024-06-11 14:02:04.271262
39.31176183,-2.070014,0.3990629315,0.9195623994,2024-06-11 14:02:04.311762
39.35227615,-0.9728240371,1.951773167,0.6722952127,2024-06-11 14:02:04.352276
39.39276459,-1.446453333,1.827407241,0.03888100386,2024-06-11 14:02:04.392765
39.43326985,-1.584401011,-1.652442694,-0.330222249,2024-06-11 14:02:04.433270
39.47371834,0.4987953603,-1.394656301,-0.2894770801,2024-06-11 14:02:04.473718
39.51419224,0.49506706,0.224897325,0.06231613085,2024-06-11 14:02:04.514192
39.55467657,3.1340487,-0.3169068098,0.071104303,2024-06-11 14:02:04.554677
39.59516631,3.717130661,-0.5379426479,0.385214895,2024-06-11 14:02:04.595166
39.63563209,2.939776897,1.148054838,0.1734998226,2024-06-11 14:02:04.635632
39.67612078,3.339106083,-0.4471315742,-0.4982627332,2024-06-11 14:02:04.676121
39.71662891,2.198774099,0.1761629134,-0.1334204376,2024-06-11 14:02:04.716629
39.75707896,1.509168863,0.02383458801,-0.3158415854,2024-06-11 14:02:04.757079
39.79757204,1.225417495,-1.98066771,-0.001065233024,2024-06-11 14:02:04.797572
39.8380962,0.9876041412,-2.358292818,-0.2127802968,2024-06-11 14:02:04.838096
39.87856016,-0.1553908736,-0.7255568504,-0.07616416365,2024-06-11 14:02:04.878560
39.91899891,-2.318213463,-2.521140337,0.4451342523,2024-06-11 14:02:04.918999
39.9594775,2.374004841,-2.486653328,-0.2444709837,2024-06-11 14:02:04.959477
39.99999141,-0.0685743764,-0.8840102553,-0.009853405878,2024-06-11 14:02:04.999991
40.04047823,-1.586531401,3.747356653,0.4675041437,2024-06-11 14:02:05.040478
40.08095881,0.3520595133,3.321662903,-0.6483274698,2024-06-11 14:02:05.080959
40.12141969,-1.375082731,1.146989703,-0.3459344208,2024-06-11 14:02:05.121420
40.16188052,-2.195711613,-0.854450047,0.127961114,2024-06-11 14:02:05.161881
40.2023725,-1.795849681,-2.122876167,0.4555202723,2024-06-11 14:02:05.202373
40.24284,-2.730591774,-2.08532691,0.7366086245,2024-06-11 14:02:05.242840
40.28333386,-2.63605237,-0.3488638103,1.385735035,2024-06-11 14:02:05.283334
40.32381672,-2.317680836,2.060959578,1.097190022,2024-06-11 14:02:05.323817
40.36429365,-1.865489364,1.927006483,0.1822880059,2024-06-11 14:02:05.364294
40.40479901,-0.9480574131,-0.3142437339,-0.1525946259,2024-06-11 14:02:05.404799
40.44526573,-0.3492632806,1.330609202,-0.490539819,2024-06-11 14:02:05.445266
40.48573719,0.172567755,1.48187232,0.3450023532,2024-06-11 14:02:05.485737
40.52621933,1.610898614,-1.251249313,0.4954665005,2024-06-11 14:02:05.526219
40.56669928,3.93150878,-2.005434275,0.5575163364,2024-06-11 14:02:05.566699
40.60719245,2.800763845,0.5095808506,0.6054518223,2024-06-11 14:02:05.607192
40.64767146,3.222995758,0.8684312105,-1.227148414,2024-06-11 14:02:05.647671
40.68816438,3.651219368,-1.287866712,-0.1760297567,2024-06-11 14:02:05.688164
40.7286274,1.66629076,-0.7468615174,-0.2588516176,2024-06-11 14:02:05.728627
40.76909829,1.0075773,-0.9878704548,-0.02956021577,2024-06-11 14:02:05.769098
40.809605,0.9468590021,-2.265617371,0.631550014,2024-06-11 14:02:05.809605
40.85009792,0.3635107577,-1.024354696,0.2334191799,2024-06-11 14:02:05.850098
40.8905786,-1.290663004,-1.317160606,-0.2298240215,2024-06-11 14:02:05.890579
40.93105928,-0.05712312087,-1.161769748,0.1894783229,2024-06-11 14:02:05.931059
40.97151948,1.448983192,-2.832454681,-0.3717663288,2024-06-11 14:02:05.971519
41.01202896,-1.015167117,0.9019860625,0.4544550478,2024-06-11 14:02:06.012029
41.05246542,-0.5452661514,4.663323879,-0.3912068307,2024-06-11 14:02:06.052465
41.0929461,-0.681216538,1.960827708,-0.5003932118,2024-06-11 14:02:06.092946
41.13342328,-1.892919064,0.3591166735,-0.1363498271,2024-06-11 14:02:06.133423
41.17390761,-1.941919804,-0.8113080859,0.1340862066,2024-06-11 14:02:06.173908
41.21438172,-1.6911906,-0.9990554452,0.232087642,2024-06-11 14:02:06.214382
41.25484605,-2.926061869,-0.9234238863,0.6525883675,2024-06-11 14:02:06.254846
41.29533271,-2.939909935,0.4845478833,0.9278179407,2024-06-11 14:02:06.295333
41.33578964,-2.438717842,2.164553404,0.705716908,2024-06-11 14:02:06.335790
41.37631412,-1.557237506,0.8732247949,0.1394123733,2024-06-11 14:02:06.376314
41.41678782,-0.7786853313,0.5824161768,0.06577813625,2024-06-11 14:02:06.416788
41.45726276,-0.1026618332,2.183994055,-0.1794917583,2024-06-11 14:02:06.457263
41.49774516,0.5680354834,0.2986647189,0.5362116694,2024-06-11 14:02:06.497745
41.53828162,2.799964905,-1.184139609,0.4643084407,2024-06-11 14:02:06.538282
41.57871646,3.524190187,-0.9255543351,0.8860075474,2024-06-11 14:02:06.578716
41.61921667,2.372140884,1.527410984,0.4240958989,2024-06-11 14:02:06.619217
41.65971782,2.991706848,-0.6468627453,-0.8288844228,2024-06-11 14:02:06.659718
41.70020386,2.969070673,-1.155644655,0.06577813625,2024-06-11 14:02:06.700204
41.7405873,1.558435917,-0.1110505462,-0.4841484129,2024-06-11 14:02:06.740587
41.78106766,0.5552527308,-1.263499498,0.02663082629,2024-06-11 14:02:06.781068
41.82154704,0.4042559266,-1.969748974,0.6805507541,2024-06-11 14:02:06.821547
41.86202693,-0.1202381775,-0.5033226013,0.1495320797,2024-06-11 14:02:06.862027
41.90257209,-1.426213861,-1.56535995,0.1713693589,2024-06-11 14:02:06.902572
41.94302474,0.5099803209,-1.027550459,-0.2170412242,2024-06-11 14:02:06.943025
41.98352709,0.8962604403,-2.491446972,-0.222367391,2024-06-11 14:02:06.983527
42.02400823,-0.9954602718,1.61396122,0.4006607831,2024-06-11 14:02:07.024008
42.06449651,-0.1601844132,3.318200827,-0.4977301359,2024-06-11 14:02:07.064497
42.10497641,-0.2786915898,1.0109061,-0.2612484097,2024-06-11 14:02:07.104976
42.14547386,-1.562297344,0.3423392773,-0.1400781423,2024-06-11 14:02:07.145474
42.18592901,-1.950175405,0.380687654,0.02396774292,2024-06-11 14:02:07.185929
42.22641818,-1.782001734,1.027683616,0.2334191799,2024-06-11 14:02:07.226418
42.26689375,-2.220211983,0.9898678064,0.2251636237,2024-06-11 14:02:07.266894
42.30735563,-2.799565554,0.5629756451,0.1881467849,2024-06-11 14:02:07.307356
42.34782891,-2.281196594,1.066031933,0.4392754734,2024-06-11 14:02:07.347829
42.38830724,-1.055912256,1.778406501,0.01944050193,2024-06-11 14:02:07.388307
42.42883157,-1.349783421,0.8545832038,-0.02450035885,2024-06-11 14:02:07.428832
42.46927667,-1.037004352,0.7765548825,-0.1547250897,2024-06-11 14:02:07.469277
42.50980553,0.09746882319,0.8865401745,-0.01038602181,2024-06-11 14:02:07.509806
42.55030053,0.6778876781,-0.4338161349,0.4930697381,2024-06-11 14:02:07.550301
42.59072334,1.963623881,0.6708304882,0.6754909158,2024-06-11 14:02:07.590723
42.63121256,2.15430069,1.458969831,1.035140157,2024-06-11 14:02:07.631213
42.67166131,2.711284399,1.433936834,0.351660043,2024-06-11 14:02:07.671661
42.71215823,2.56588006,0.5912043452,-0.7191654444,2024-06-11 14:02:07.712158
42.75265328,2.302634239,-1.049654007,-0.07030537724,2024-06-11 14:02:07.752653
42.79312131,1.654573202,0.2070546746,-0.9915987849,2024-06-11 14:02:07.793121
42.83359355,0.7335460782,2.133395433,-0.6872084737,2024-06-11 14:02:07.833594
42.87408297,-0.5178363919,0.5212984085,0.06897383928,2024-06-11 14:02:07.874083
42.91459141,-0.2944037914,-0.2170412242,0.2523270845,2024-06-11 14:02:07.914591
42.95508646,-0.3481980562,-0.5975957513,-0.1086537689,2024-06-11 14:02:07.955086
42.9955574,-0.886806488,-1.484135866,-0.04340824485,2024-06-11 14:02:07.995557
43.03604459,-1.043129444,-0.3600487709,0.1788259894,2024-06-11 14:02:08.036045
43.07652797,-0.6063839197,1.318625331,0.4853467941,2024-06-11 14:02:08.076528
43.11696901,1.527810454,-1.195058346,-0.04154408723,2024-06-11 14:02:08.116969
43.15747641,-0.2155765295,-2.350303411,0.1090532318,2024-06-11 14:02:08.157476
43.19795303,-1.446719646,1.209172606,-0.01091863867,2024-06-11 14:02:08.197953
43.23842974,0.5395405293,1.011172414,-0.325695008,2024-06-11 14:02:08.238430
43.27889782,-1.129413366,-1.886660814,-0.6661701202,2024-06-11 14:02:08.278898
43.31937063,-0.3687037826,-0.2764279842,0.2001306564,2024-06-11 14:02:08.319371
43.35984678,-0.1103847697,0.3255618513,0.04500609636,2024-06-11 14:02:08.359847
43.4003174,-0.9067795873,-1.731536269,0.2198374718,2024-06-11 14:02:08.400317
43.44080761,0.2034595013,-0.4258269072,0.4414059222,2024-06-11 14:02:08.440808
43.48130037,-0.5511249304,-0.8142374754,0.3695026934,2024-06-11 14:02:08.481300
43.52177219,-0.04860125855,-0.4836157858,0.02263620123,2024-06-11 14:02:08.521772
43.5622598,-0.2408758104,-0.4671046734,0.09919982404,2024-06-11 14:02:08.562260
43.60274391,-0.265642494,-1.317160606,0.3332847953,2024-06-11 14:02:08.602744
43.64322094,0.04047885537,-1.831135511,0.137015596,2024-06-11 14:02:08.643221
43.68370219,0.12117026,-1.203846455,0.2616478503,2024-06-11 14:02:08.683702
43.72419407,-0.2006632686,-0.7468615174,0.3900084496,2024-06-11 14:02:08.724194
43.76468141,-0.1615159512,-0.4111799598,0.1876141727,2024-06-11 14:02:08.764681
43.80518396,0.08415340632,0.1990654171,-0.04607132822,2024-06-11 14:02:08.805184
43.84567568,0.2474003732,0.204924196,-0.05059856921,2024-06-11 14:02:08.845676
43.88612078,0.3006620109,-0.09240896255,0.009320789017,2024-06-11 14:02:08.886121
43.92657459,0.1818885356,-0.6975944638,-0.02956021577,2024-06-11 14:02:08.926575
43.9670748,-0.3066539466,-1.349916577,0.004793548491,2024-06-11 14:02:08.967075
44.00757828,0.06897383928,-1.229412079,-0.1728340536,2024-06-11 14:02:09.007578
44.0480525,-0.1346188188,0.3657743931,0.07935985923,2024-06-11 14:02:09.048052
44.08852776,-0.1620485783,0.6300853491,-0.1464695334,2024-06-11 14:02:09.088528
44.12902563,-0.1657768935,0.6151720881,-0.3099828064,2024-06-11 14:02:09.129026
44.1695111,0.01531272475,0.6010577083,-0.4274247587,2024-06-11 14:02:09.169511
44.20998605,-0.07682993263,1.1155653,-0.3789566457,2024-06-11 14:02:09.209986
44.25046532,-0.0544600375,0.9211602807,-0.328358084,2024-06-11 14:02:09.250465
44.29093599,0.08734910935,0.7190322876,-0.3286243975,2024-06-11 14:02:09.290936
44.33139521,0.01238333434,0.4315525293,-0.3786903322,2024-06-11 14:02:09.331395
44.37193058,0.1145125479,0.1396786869,-0.3869459033,2024-06-11 14:02:09.371931
44.41235209,0.3504616618,0.7962616682,-0.3965329826,2024-06-11 14:02:09.412352
44.45286094,0.3081186414,0.8580452204,-0.2998631001,2024-06-11 14:02:09.452861
44.49333813,0.2085193694,0.1902772486,-0.3965329826,2024-06-11 14:02:09.493338
44.53381964,0.3707011044,-0.2726996541,-0.8600425124,2024-06-11 14:02:09.533820
44.57427678,0.2705691755,1.661896706,-0.1685731262,2024-06-11 14:02:09.574277
44.61472386,0.3517931998,1.202248573,-0.3970656097,2024-06-11 14:02:09.614724
44.65524891,0.8134385943,-0.3840165138,-1.117296338,2024-06-11 14:02:09.655249
44.69574141,1.108774424,0.3303554058,-0.6501916051,2024-06-11 14:02:09.695741
44.73620381,0.6119763851,1.93419683,0.2997299433,2024-06-11 14:02:09.736204
44.77673573,0.2583190203,0.6447322965,0.1782933772,2024-06-11 14:02:09.776736
44.8171737,0.7300840616,-1.029680848,-0.9838758707,2024-06-11 14:02:09.817174
44.85764094,1.243260145,-1.79837966,-1.174685717,2024-06-11 14:02:09.857641
44.89812407,-0.4573844373,1.582004189,-0.3842828274,2024-06-11 14:02:09.898124
44.93861214,0.01691057347,2.433125496,-0.5154396296,2024-06-11 14:02:09.938612
44.97908589,0.7577801347,2.212755203,-1.282274246,2024-06-11 14:02:09.979086
45.0195986,-0.6228950024,4.844280243,-0.3792229593,2024-06-11 14:02:10.019599
45.06011178,0.1003982127,2.710618496,-0.2521939278,2024-06-11 14:02:10.060112
45.1005923,2.905156851,-2.490648031,0.2792242169,2024-06-11 14:02:10.100592
45.14100683,-0.2832188308,0.7126408815,-0.7556496859,2024-06-11 14:02:10.141007
45.18148396,0.2556559145,0.548728168,-0.4354139864,2024-06-11 14:02:10.181484
45.22196454,-0.2581858635,0.7802832127,-0.08441971987,2024-06-11 14:02:10.221965
45.26245589,-0.2813546658,0.2214353085,-0.2282261699,2024-06-11 14:02:10.262456
45.30295172,-0.8753552437,0.5343475342,-0.1611164957,2024-06-11 14:02:10.302952
45.34342709,-0.1529940963,-0.7402037978,-0.1006645188,2024-06-11 14:02:10.343427
45.38389834,-0.4853467941,-0.5805519819,-0.02876129188,2024-06-11 14:02:10.383898
45.42435855,-0.4842815697,-0.8283518553,-0.01198387146,2024-06-11 14:02:10.424359
45.46485834,-0.3513937294,-0.9244890809,0.1130478531,2024-06-11 14:02:10.464858
45.50535303,-0.697461307,-0.4561860561,0.3721657991,2024-06-11 14:02:10.505353
45.54581646,-0.4344819188,-0.9380708337,0.2342181057,2024-06-11 14:02:10.545816
45.58630943,-0.1340862066,-1.371753812,0.2227668613,2024-06-11 14:02:10.586309
45.62679016,-0.2738980353,-1.12262249,0.4315525293,2024-06-11 14:02:10.626790
45.66725839,-0.2544575334,-1.021425366,0.493868649,2024-06-11 14:02:10.667258
45.70776157,-0.0685743764,-1.360568881,0.2925396264,2024-06-11 14:02:10.707762
45.74821209,-0.4185034335,-0.9777507782,0.4339492917,2024-06-11 14:02:10.748212
45.78870959,-0.5189016461,-0.3722989559,0.1841521561,2024-06-11 14:02:10.788710
45.8292099,-0.8002563119,0.08109086752,0.03089175746,2024-06-11 14:02:10.829210
45.86969094,-0.6841459274,-0.3821523488,0.1045259908,2024-06-11 14:02:10.869691
45.91021709,-0.2256962508,-2.121012211,0.3631113172,2024-06-11 14:02:10.910217
45.95062422,0.2937380075,-2.330330372,0.1540593207,2024-06-11 14:02:10.950624
45.99105901,0.2524602413,1.721283436,0.1758965999,2024-06-11 14:02:10.991059
46.03158933,-0.7632394433,1.587064028,0.8782846332,2024-06-11 14:02:11.031589
46.0720736,-1.172288895,2.008496761,0.9587097168,2024-06-11 14:02:11.072074
46.11255443,-0.1711030602,-0.608248055,0.5442008972,2024-06-11 14:02:11.112554
46.15303719,-0.1785596907,-2.571472406,0.5721632838,2024-06-11 14:02:11.153037
46.19352594,-1.227814198,-0.4881430268,1.106777072,2024-06-11 14:02:11.193526
46.23401349,-1.331408143,2.160825253,1.028748751,2024-06-11 14:02:11.234013
46.2744899,-1.251515627,0.3157084286,0.4203675687,2024-06-11 14:02:11.274490
46.31494792,0.4242290556,-1.969216347,0.06071828306,2024-06-11 14:02:11.314948
46.35543568,0.5613778234,-0.5765573978,-0.1517957002,2024-06-11 14:02:11.355436
46.39593094,0.1826874614,2.102503777,0.03541899845,2024-06-11 14:02:11.395931
46.43641245,0.3845491111,2.004502296,0.09760197252,2024-06-11 14:02:11.436412
46.47688771,0.6792191863,1.25551033,-0.154458791,2024-06-11 14:02:11.476888
46.51736287,2.916075468,-0.9433969855,-1.251648784,2024-06-11 14:02:11.517363
46.55785266,4.209268093,-3.539103508,-2.134327412,2024-06-11 14:02:11.557853
46.59834183,-0.575891614,4.351476669,-0.7202306986,2024-06-11 14:02:11.598342
46.63882146,-2.819538593,4.762923241,1.13260901,2024-06-11 14:02:11.638821
46.67930026,-2.706091404,0.1948044896,1.884796739,2024-06-11 14:02:11.679300
46.71980678,4.62430954,-8.352891922,-3.181451559,2024-06-11 14:02:11.719807
46.76026042,1.089866519,-0.08095771074,-0.5102466345,2024-06-11 14:02:11.760260
46.80069334,-3.268933773,9.291495323,0.4395417869,2024-06-11 14:02:11.800693
46.84114584,-0.3777582645,5.646800041,0.2187722325,2024-06-11 14:02:11.841146
46.88162651,0.3770924807,1.487198472,-1.415162086,2024-06-11 14:02:11.881627
46.92212719,-0.9424648881,-1.440195084,-1.100252509,2024-06-11 14:02:11.922127
46.96263073,-1.166430116,2.28971839,0.02583190054,2024-06-11 14:02:11.962631
47.00314224,-1.431540012,4.283035755,0.1274285018,2024-06-11 14:02:12.003142
47.04360974,-1.499182343,1.844717264,0.03914731368,2024-06-11 14:02:12.043610
47.08404828,-0.1197055578,-0.6324821115,0.1308905035,2024-06-11 14:02:12.084048
47.12455823,0.8560478687,-3.696225405,-0.9410002232,2024-06-11 14:02:12.124558
47.16504224,0.4106473327,-1.904503465,-0.7122414112,2024-06-11 14:02:12.165042
47.2055549,0.5243609548,2.093715429,0.2816209793,2024-06-11 14:02:12.205555
47.24601969,-0.4171718955,-0.2141118348,0.1593854874,2024-06-11 14:02:12.246020
47.28648896,-0.2424736619,-0.5568505526,-0.4119788706,2024-06-11 14:02:12.286489
47.32694089,-0.3037245572,-1.52301693,-0.6336805224,2024-06-11 14:02:12.326941
47.36743303,-1.210237861,-2.773067951,-0.1462032348,2024-06-11 14:02:12.367433
47.4079425,-1.68373394,-2.827927351,0.2730991244,2024-06-11 14:02:12.407942
47.44842094,-1.685331821,-2.209692717,0.7920007706,2024-06-11 14:02:12.448421
47.4888861,-2.142982483,-0.8736242056,0.986938417,2024-06-11 14:02:12.488886
47.52936901,-2.655226469,0.127961114,0.7651036382,2024-06-11 14:02:12.529369
47.56989511,-2.135792255,-2.229665756,0.1737661362,2024-06-11 14:02:12.569895
47.61034485,-0.368437469,-5.065981865,-0.6206313968,2024-06-11 14:02:12.610345
47.65083599,1.472684622,-2.780790806,-0.952185154,2024-06-11 14:02:12.650836
47.69129261,-0.4688356817,3.532312632,-0.1126483902,2024-06-11 14:02:12.691293
47.73175214,-0.277892679,5.305259705,0.1122489274,2024-06-11 14:02:12.731752
47.77226623,0.2977326214,-0.3435376585,-0.3914731443,2024-06-11 14:02:12.772266
47.81274701,0.9228912592,-0.1227681041,-0.2005301118,2024-06-11 14:02:12.812747
47.85329233,0.2348838747,0.3764267266,-0.1885462403,2024-06-11 14:02:12.853292
47.89373035,-0.06165036187,-0.3435376585,-0.1291595101,2024-06-11 14:02:12.893730
47.9341918,-0.4174381793,-1.172688365,0.1093195379,2024-06-11 14:02:12.934192
47.9746616,-0.4459331632,-0.5256925225,0.02636451647,2024-06-11 14:02:12.974662
48.01519701,0.1579207927,0.06351451576,-0.103061296,2024-06-11 14:02:13.015197
48.05563363,0.2987978756,-0.04940018058,-0.02450035885,2024-06-11 14:02:13.055634
48.09606894,0.186149478,0.2296908647,0.114113085,2024-06-11 14:02:13.096069
48.13658634,-0.1327546686,0.2579195499,0.2818872929,2024-06-11 14:02:13.136586
48.17707858,-0.6183677912,-0.1794917583,0.1849510819,2024-06-11 14:02:13.177079
48.21759457,-0.2153102309,-0.3139774203,-0.06684337556,2024-06-11 14:02:13.217595
48.25805618,0.09640359133,-0.2961347699,-0.1150451675,2024-06-11 14:02:13.258056
48.29851712,-0.1828206182,-0.5190348029,0.03568530455,2024-06-11 14:02:13.298517
48.338988,-0.1814890802,-0.2535254657,0.1215697154,2024-06-11 14:02:13.338988
48.3794404,-0.1727008969,-0.1613828093,0.05512581021,2024-06-11 14:02:13.379440
48.4199855,-0.1567224115,-0.4758928418,-0.08308817446,2024-06-11 14:02:13.419986
48.4604168,0.1914756298,-0.9236901999,-0.24234052,2024-06-11 14:02:13.460417
48.50089717,0.6930672526,-0.9114400148,-0.2870802879,2024-06-11 14:02:13.500897
48.54137753,1.536598682,-0.4503272474,-0.1238333359,2024-06-11 14:02:13.541378
48.58188102,2.660153151,0.3822855055,-0.1792254597,2024-06-11 14:02:13.581881
48.62236144,2.896368504,1.249118924,-0.1797580719,2024-06-11 14:02:13.622361
48.6628355,2.389983416,2.121145248,-0.05299534276,2024-06-11 14:02:13.662835
48.70332227,2.239253044,0.3753614724,-0.01038602181,2024-06-11 14:02:13.703322
48.74381628,2.189985991,-1.557370663,-0.3419398069,2024-06-11 14:02:13.743816
48.78427748,2.170811653,-0.8997224569,-0.3054555655,2024-06-11 14:02:13.784277
48.82479108,0.6877411008,-0.5219641924,0.1348851323,2024-06-11 14:02:13.824791
48.86527144,-0.3862801194,0.07896039635,0.4320851564,2024-06-11 14:02:13.865271
48.90571858,-1.381740332,0.6388735175,0.5215647221,2024-06-11 14:02:13.905719
48.94618686,3.615800381,-0.5816172361,-0.1382139921,2024-06-11 14:02:13.946187
48.98671425,1.22648263,-2.267747879,-1.665491819,2024-06-11 14:02:13.986714
49.02721279,-0.6644390821,0.2105166763,-0.1981333494,2024-06-11 14:02:14.027213
49.06767467,-0.4022586346,2.766277075,-0.1233007237,2024-06-11 14:02:14.067675
49.10815587,-0.4738955498,-0.5706986189,0.6443328261,2024-06-11 14:02:14.108156
49.14862514,-0.2667077184,-1.319557428,-0.145404309,2024-06-11 14:02:14.148625
49.18910321,-1.21609664,0.3444697261,-0.3299559355,2024-06-11 14:02:14.189103
49.22961852,-1.44245863,1.28959775,-0.3304885328,2024-06-11 14:02:14.229619
49.27011384,-0.8351426721,0.6039870977,-0.5078498721,2024-06-11 14:02:14.270114
49.31058904,-0.1074553803,-0.1387466043,-0.7982590199,2024-06-11 14:02:14.310589
49.35100389,0.1917419434,0.4786891043,-0.7497909069,2024-06-11 14:02:14.351004
49.39152352,0.4183702767,0.2150439173,-0.7420679331,2024-06-11 14:02:14.391524
49.43200352,1.304910421,-0.208785668,-0.90957582,2024-06-11 14:02:14.432004
49.47247285,1.057110667,-1.175617814,-0.8158353567,2024-06-11 14:02:14.472473
49.51294488,-0.2677729428,-0.1379476786,0.0007989247679,2024-06-11 14:02:14.512945
49.55344686,0.3248960674,-0.6816160083,-0.12117026,2024-06-11 14:02:14.553447
49.59393097,0.885608077,-2.811416149,-0.2577863932,2024-06-11 14:02:14.593931
49.63439951,-0.2424736619,-1.488396883,0.2406095117,2024-06-11 14:02:14.634400
49.67488884,-0.6947982311,1.246455789,-0.03621792421,2024-06-11 14:02:14.674889
49.71536555,-1.018895388,-0.1699046642,0.4392754734,2024-06-11 14:02:14.715366
49.75582675,-0.7962616682,-0.9625712037,0.7821473479,2024-06-11 14:02:14.755827
49.79631951,-0.6513900161,-1.681470275,0.8391373158,2024-06-11 14:02:14.796320
49.83680352,-0.8596430421,-1.460967064,0.7461957335,2024-06-11 14:02:14.836804
49.877278,-0.3862801194,-1.838059545,0.4467321038,2024-06-11 14:02:14.877278
49.91775076,-0.2624467909,-1.902106762,-0.01331541315,2024-06-11 14:02:14.917751
49.9582292,-0.5303528905,-0.7497909069,-0.05565842614,2024-06-11 14:02:14.958229
49.99870337,-0.3154421151,-0.2729659677,0.2949363887,2024-06-11 14:02:14.998703
50.03920337,0.1251648813,-0.7524539828,0.3612471521,2024-06-11 14:02:15.039203
50.07965847,1.160970807,-1.261369109,0.2131797522,2024-06-11 14:02:15.079658
50.12013222,2.02886939,-0.6882736683,-0.2324871123,2024-06-11 14:02:15.120132
50.16061212,2.551499367,0.8306154609,-0.8166342378,2024-06-11 14:02:15.160612
50.201108,2.583988905,1.735397696,-0.8842765689,2024-06-11 14:02:15.201108
50.24156358,1.172954679,2.458424568,-0.4391423166,2024-06-11 14:02:15.241564
50.28206087,0.466039449,-0.1438064575,0.2581858635,2024-06-11 14:02:15.282061
50.32255738,0.7865414619,0.3351489305,-0.002663082443,2024-06-11 14:02:15.322557
50.36303732,0.8078460693,-0.04407401755,0.1745650619,2024-06-11 14:02:15.363037
50.40351873,-0.2030600458,-0.5398068428,0.6275554299,2024-06-11 14:02:15.403519
50.44398884,-0.5652392507,1.064700365,0.8796161413,2024-06-11 14:02:15.443989
50.48448071,-0.6002588272,0.8545832038,0.6137073636,2024-06-11 14:02:15.484481
50.52495618,0.08575125784,0.0384815447,0.1969349533,2024-06-11 14:02:15.524956
50.5654405,0.5653724074,0.04380770773,-0.573228538,2024-06-11 14:02:15.565441
50.60592634,1.372552752,-0.8105092049,-0.2215684652,2024-06-11 14:02:15.605926
50.64641608,-0.2877460718,0.687607944,0.1676410437,2024-06-11 14:02:15.646416
50.68692467,0.06790860742,2.303832769,0.2270277888,2024-06-11 14:02:15.686925
50.72738956,3.085314274,-2.547770977,-1.498250246,2024-06-11 14:02:15.727390
50.76785628,1.393324852,-2.501699686,-0.03861469775,2024-06-11 14:02:15.767856
50.80836217,-2.19251585,3.542964935,0.7568480372,2024-06-11 14:02:15.808362
50.84885545,-0.9065132737,1.586265087,0.001331541222,2024-06-11 14:02:15.848855
50.88931576,0.872559011,-1.481206536,-0.4183702767,2024-06-11 14:02:15.889316
50.92981165,-0.1111836955,-0.9226249456,-0.08548495173,2024-06-11 14:02:15.929812
50.9702841,-1.682668686,1.465627432,0.4203675687,2024-06-11 14:02:15.970284
51.01071847,-1.212900996,0.4877435565,0.1122489274,2024-06-11 14:02:16.010718
51.05118097,-0.3005288541,-1.395455241,-0.6272891164,2024-06-11 14:02:16.051181
51.09164936,0.02356828004,-1.047523499,-0.8384715319,2024-06-11 14:02:16.091649
51.13217097,-0.4046553969,0.006524552125,-0.4798874855,2024-06-11 14:02:16.132171
51.17267587,-0.5840139985,0.2587184608,-0.311580658,2024-06-11 14:02:16.172676
51.21314993,-1.033276081,0.8114412427,-0.1264964193,2024-06-11 14:02:16.213150
51.25362061,-1.332739711,0.4746944606,-0.1451379955,2024-06-11 14:02:16.253621
51.2940991,-0.3473991156,-0.332885325,-0.426625818,2024-06-11 14:02:16.294099
51.33462832,-0.6292864084,-0.01611164957,-0.3230319023,2024-06-11 14:02:16.334628
51.37508285,-1.775344014,1.09772265,0.4683030546,2024-06-11 14:02:16.375083
51.41560076,-0.5951989293,0.5512580872,0.5886744261,2024-06-11 14:02:16.415601
51.45602285,0.866700232,-1.061904192,-0.276694268,2024-06-11 14:02:16.456023
51.49650852,-0.07443315536,-0.1672415882,-0.03941362351,2024-06-11 14:02:16.496509
51.53700701,-0.7888050675,0.7243584394,0.2730991244,2024-06-11 14:02:16.537007
51.57745425,-0.3836170435,0.3878779709,0.1585865617,2024-06-11 14:02:16.577454
51.61796087,-0.3138442934,-0.1645784974,0.2110492885,2024-06-11 14:02:16.617961
51.65843758,-0.2768274248,-0.1038602218,0.3175725937,2024-06-11 14:02:16.658438
51.69892576,-0.2629793882,0.1290263534,0.3812202811,2024-06-11 14:02:16.698926
51.73938258,-1.034341216,0.9368724227,0.392937839,2024-06-11 14:02:16.739383
51.77991472,-0.9121057987,1.58573246,0.363910228,2024-06-11 14:02:16.779915
51.8203417,-0.374296248,0.2925396264,0.2075872868,2024-06-11 14:02:16.820342
51.86082295,-0.7406032681,-0.4652405083,0.2826862037,2024-06-11 14:02:16.860823
51.90125201,-0.9896014929,1.172954679,0.4275579154,2024-06-11 14:02:16.901252
51.94173326,-0.9989222884,0.9872047305,0.2435389012,2024-06-11 14:02:16.941733
51.98221451,-0.9611064792,-0.1656437367,0.2312887162,2024-06-11 14:02:16.982215
52.02275102,-0.9390029311,0.02942706272,0.2280930281,2024-06-11 14:02:17.022751
52.06324957,-1.145658135,0.3551220596,0.2805557549,2024-06-11 14:02:17.063250
52.10373061,-1.19239521,0.8809477091,0.3833507299,2024-06-11 14:02:17.103731
52.14420316,-1.305842519,1.106244445,0.3977313936,2024-06-11 14:02:17.144203
52.18470727,-0.831946969,1.04579258,0.2917406857,2024-06-11 14:02:17.184707
52.22520165,-0.007323476952,0.9312799573,0.1937392503,2024-06-11 14:02:17.225202
52.26565639,1.179878712,-0.09693620354,0.2150439173,2024-06-11 14:02:17.265656
52.30611753,2.481460333,0.4792217016,-0.02876129188,2024-06-11 14:02:17.306118
52.34656602,2.544575453,1.63100493,-0.3938699067,2024-06-11 14:02:17.346566
52.38709368,1.905302405,2.663748264,-0.3222329915,2024-06-11 14:02:17.387094
52.42757743,1.260170698,2.270810604,-0.2695039511,2024-06-11 14:02:17.427577
52.46804826,1.430607915,-0.3336842358,-0.4684362113,2024-06-11 14:02:17.468048
52.50854977,1.53047359,-0.762839973,-0.349662751,2024-06-11 14:02:17.508550
52.54900972,0.5493939519,0.4177044928,0.03089175746,2024-06-11 14:02:17.549010
52.58948722,-0.2446041405,0.160983339,0.2256962508,2024-06-11 14:02:17.589487
52.62999337,-0.6990591884,-0.6810833812,0.03861469775,2024-06-11 14:02:17.629993
52.67044561,-1.339663625,-1.870282888,0.1647116542,2024-06-11 14:02:17.670446
52.71092639,-1.247254729,-2.69796896,0.3074528873,2024-06-11 14:02:17.710926
52.75140717,1.036072254,-2.877993345,0.1553908736,2024-06-11 14:02:17.751407
52.79188087,0.1371487528,-1.185204864,0.579886198,2024-06-11 14:02:17.791881
52.83234732,-0.9528509378,2.943904638,0.6754909158,2024-06-11 14:02:17.832347
52.87285436,0.09587097168,1.638727903,0.3599156141,2024-06-11 14:02:17.872854
52.91334764,0.7002575397,-1.587463498,0.1774944514,2024-06-11 14:02:17.913348
52.95381936,-0.8002563119,-0.7505898476,0.4898740351,2024-06-11 14:02:17.953819
52.99431576,-0.5716306567,-2.248041153,-0.09347419441,2024-06-11 14:02:17.994316
53.03480941,0.4708330035,-0.638607204,-0.216508612,2024-06-11 14:02:18.034809
53.07523758,-0.4680367708,1.726609588,0.2411421239,2024-06-11 14:02:18.075238
53.11571352,-0.3090507388,0.5994598866,0.7390053868,2024-06-11 14:02:18.115714
53.1562241,0.3264939189,-1.968950033,0.3711005449,2024-06-11 14:02:18.156224
53.19669686,0.4183702767,-3.527119637,0.1497983932,2024-06-11 14:02:18.196697
53.23717175,0.1616491079,-1.843119383,-0.0229025092,2024-06-11 14:02:18.237172
53.27766837,-0.1404775977,-0.4908061028,0.2209026963,2024-06-11 14:02:18.277668
53.31814597,0.225563094,-1.102649331,-0.06098458916,2024-06-11 14:02:18.318146
53.35860956,0.08069140464,-0.6671021581,0.03515268862,2024-06-11 14:02:18.358610
53.39910566,0.3422061205,-0.6354115009,-0.1038602218,2024-06-11 14:02:18.399106
53.43961613,0.03568530455,-0.2521939278,-0.1960028708,2024-06-11 14:02:18.439616
53.48009165,0.2061225921,-0.2788247466,-0.1778939217,2024-06-11 14:02:18.480092
53.52055509,0.2742975056,-0.5030562878,-0.2777595222,2024-06-11 14:02:18.520555
53.56105509,0.24234052,0.1287600398,-0.2450035959,2024-06-11 14:02:18.561055
53.60149951,0.5203663111,-0.08441971987,-0.4079842567,2024-06-11 14:02:18.601500
53.64199488,0.443403244,0.5818835497,-0.3890763521,2024-06-11 14:02:18.641995
53.6824793,0.6517894268,0.394269377,-0.2998631001,2024-06-11 14:02:18.682479
53.72296884,0.6906704903,0.06937330216,-0.3818860352,2024-06-11 14:02:18.722969
53.76346207,0.568834424,0.2291582525,-0.3038577139,2024-06-11 14:02:18.763462
53.80392232,0.3664401472,-0.2977326214,-0.2956021726,2024-06-11 14:02:18.803922
53.84439113,-0.1239664927,0.7382065058,-0.3097164929,2024-06-11 14:02:18.844391
53.88487634,-0.4174381793,0.9166330099,-0.4753602445,2024-06-11 14:02:18.884876
53.92537061,-0.233951807,-0.1403444558,-0.7087793946,2024-06-11 14:02:18.925371
53.96586243,0.0006657706108,0.4765586257,-0.7154371142,2024-06-11 14:02:18.965862
54.00633055,0.03994623944,0.5981283188,-0.1214365661,2024-06-11 14:02:19.006331
54.046818,0.02410089783,-0.2567211688,-0.000266308256,2024-06-11 14:02:19.046818
54.08730618,-0.1567224115,0.07150376588,-0.071104303,2024-06-11 14:02:19.087306
54.12775217,-0.05232957378,0.01424749196,0.02716344222,2024-06-11 14:02:19.127752
54.16822545,-0.8801487684,1.089467049,0.3900084496,2024-06-11 14:02:19.168225
54.20873795,-0.9549813867,1.067896128,0.3106485903,2024-06-11 14:02:19.208738
54.24920222,0.1081211492,-1.769085765,-0.6925346255,2024-06-11 14:02:19.249202
54.28969925,1.200384498,-1.873744845,-0.964435339,2024-06-11 14:02:19.289699
54.33013373,-1.255244017,3.850684166,0.3002625704,2024-06-11 14:02:19.330134
54.37061514,-0.4001281559,3.173595428,0.1529940963,2024-06-11 14:02:19.370615
54.41111972,0.1115831584,-0.4607132971,-0.0229025092,2024-06-11 14:02:19.411120
54.45161269,-0.2299571782,-2.564814806,0.04314193875,2024-06-11 14:02:19.451613
54.49207071,-0.6250254512,1.122489333,0.2991973162,2024-06-11 14:02:19.492071
54.53258706,-0.5005263686,0.8705616593,0.369769007,2024-06-11 14:02:19.532587
54.57306707,-0.5215647221,-0.1158440933,0.2549901605,2024-06-11 14:02:19.573067
54.61351373,-0.7163692117,-0.4077179432,-0.1936061084,2024-06-11 14:02:19.613514
54.65402321,-0.3127790391,-0.9375382066,-0.3611139953,2024-06-11 14:02:19.654023
54.69447217,0.4612458944,-0.7889382243,0.09161003679,2024-06-11 14:02:19.694472
54.7349929,0.3733641803,0.1524614692,0.5410051942,2024-06-11 14:02:19.734993
54.77546915,-0.03395430371,0.3037245572,0.8295502067,2024-06-11 14:02:19.775469
54.81593618,-0.4656399786,-0.4135767221,0.6637732983,2024-06-11 14:02:19.815936
54.85641738,-1.216629267,-0.3246297538,0.5428693891,2024-06-11 14:02:19.856417
54.89692113,-0.7403369546,-2.367080927,0.4661726058,2024-06-11 14:02:19.896921
54.93736321,-0.02596505545,-3.006353855,0.2408758104,2024-06-11 14:02:19.937363
54.97785722,-0.4717650712,-1.044061542,0.2134460658,2024-06-11 14:02:19.977857
55.01838259,0.1856168509,1.075086474,-0.1584534049,2024-06-11 14:02:20.018383
55.05882592,0.3041240275,2.260424376,-0.09613727778,2024-06-11 14:02:20.058826
55.0993068,0.4993279874,1.210770488,0.1697715074,2024-06-11 14:02:20.099307
55.13974675,0.2434057444,-2.285324335,0.5047873259,2024-06-11 14:02:20.139747
55.18026727,0.1294258088,-2.633255959,0.1431406885,2024-06-11 14:02:20.180267
55.22071108,0.7266221046,-1.096257925,-0.267639786,2024-06-11 14:02:20.220711
55.26117326,0.3757609427,1.224884868,-0.1470021605,2024-06-11 14:02:20.261173
55.30165415,0.4058537781,0.6117100716,-0.03595161438,2024-06-11 14:02:20.301654
55.34218628,0.5129097104,0.394269377,-0.2703028917,2024-06-11 14:02:20.342186
55.38268378,0.1869483888,0.5308855176,-0.1989322603,2024-06-11 14:02:20.382684
55.42317649,0.3712337017,0.3569862247,-0.1789591461,2024-06-11 14:02:20.423176
55.46361811,0.513176024,0.1713693589,-0.07935985923,2024-06-11 14:02:20.463618
55.50409821,0.670963645,0.09307473898,-0.3358147144,2024-06-11 14:02:20.504098
55.54459316,0.4612458944,-0.559779942,-0.6635070443,2024-06-11 14:02:20.544593
55.58508967,0.47056669,1.465893745,-0.53328228,2024-06-11 14:02:20.585090
55.62557076,0.4820179343,2.752162695,-0.3688369393,2024-06-11 14:02:20.625571
55.66604097,0.8038514853,0.4464657903,-0.5481955409,2024-06-11 14:02:20.666041
55.70657008,0.2987978756,-0.4809527099,-1.079746842,2024-06-11 14:02:20.706570
55.74698566,0.1049254537,0.08348763734,-1.358704686,2024-06-11 14:02:20.746986
55.78750483,-0.3617797792,1.412365794,-0.9993217587,2024-06-11 14:02:20.787505
55.82801509,-0.6993255019,-0.4990616739,-0.6555177569,2024-06-11 14:02:20.828015
55.86849618,-0.01424749196,-1.256309152,-1.035007,2024-06-11 14:02:20.868496
55.90892029,-0.2504629195,2.839778185,-0.9039833546,2024-06-11 14:02:20.908920
55.94941311,-1.732468367,2.417413235,-0.1781602204,2024-06-11 14:02:20.949413
55.98993451,-0.5572500229,-0.6141068339,-0.7340787053,2024-06-11 14:02:20.989935
56.03041847,-0.5505923033,-1.312899709,-0.3304885328,2024-06-11 14:02:21.030418
56.07089941,-1.081211567,-0.3621792197,0.7584459186,2024-06-11 14:02:21.070899
56.11129972,-2.069747686,-1.291861296,1.727941155,2024-06-11 14:02:21.111300
56.15180082,-2.3632195,1.668288112,1.194658875,2024-06-11 14:02:21.151801
56.19228561,-1.861760974,0.09866721183,1.142462373,2024-06-11 14:02:21.192286
56.23277545,-1.114766359,-3.090240955,0.5524564981,2024-06-11 14:02:21.232775
56.27325332,-0.2973331809,0.5250267386,0.2829525173,2024-06-11 14:02:21.273253
56.31373529,-0.3031919599,1.59691751,-0.1382139921,2024-06-11 14:02:21.313735
56.35422123,-0.5383421183,1.986127019,0.002663082443,2024-06-11 14:02:21.354221
56.39470389,-0.22303316,3.9497509,0.6810833812,2024-06-11 14:02:21.394704
56.43522238,-0.1543256342,3.352021933,0.8551158309,2024-06-11 14:02:21.435222
56.47567274,-0.4211665094,-0.8640371561,0.1332872808,2024-06-11 14:02:21.475673
56.5161392,-0.07842778414,-2.382793188,0.01011971384,2024-06-11 14:02:21.516139
56.55659941,-0.0621829778,0.2917406857,0.1713693589,2024-06-11 14:02:21.556599
56.59710149,0.06178351492,1.043129444,0.3013277948,2024-06-11 14:02:21.597101
56.63759295,0.2529928386,0.09999874979,0.3881442845,2024-06-11 14:02:21.637593
56.67807957,0.4380770922,-1.149519563,0.1780270636,2024-06-11 14:02:21.678080
56.7185755,0.4985290468,-1.027816772,0.03834838793,2024-06-11 14:02:21.718576
56.75903394,0.3834838867,-1.771748781,0.02902759984,2024-06-11 14:02:21.759034
56.7995191,0.4258269072,-2.798100948,0.2776263654,2024-06-11 14:02:21.799519
56.84002503,0.4628437459,-1.945781231,0.265642494,2024-06-11 14:02:21.840025
56.88048035,0.3954677582,-0.6834801435,0.01384802908,2024-06-11 14:02:21.880480
56.92091368,0.3123795986,-0.432484597,-0.1563229412,2024-06-11 14:02:21.920914
56.96140035,0.2673735023,-0.4346150756,-0.06178351492,2024-06-11 14:02:21.961400
57.00187691,0.1922745556,-0.06045197323,0.02370143496,2024-06-11 14:02:22.001877
57.04237071,0.02916075476,0.493868649,0.007722939365,2024-06-11 14:02:22.042371
57.08283326,-0.0544600375,0.1010639817,-0.2535254657,2024-06-11 14:02:22.082833
57.12334852,0.003595161485,0.3434045017,-0.3914731443,2024-06-11 14:02:22.123349
57.16385269,0.1584534049,0.99013412,-0.1981333494,2024-06-11 14:02:22.163853
57.20432259,0.6645722389,2.19704318,-0.21784015,2024-06-11 14:02:22.204323
57.24478951,1.118361473,1.248319983,-0.5892069936,2024-06-11 14:02:22.244790
57.28527868,1.946313858,-0.7295514941,-1.203713298,2024-06-11 14:02:22.285279
57.32574951,2.013157368,-0.6519225836,-1.219425559,2024-06-11 14:02:22.325750
57.36622311,0.1637795717,0.96563375,-0.7609758377,2024-06-11 14:02:22.366223
57.40672352,-1.971746325,2.608622551,0.2933385372,2024-06-11 14:02:22.406724
57.44721467,0.4505935609,-0.4050548673,-0.1424749196,2024-06-11 14:02:22.447215
57.48767904,1.207841039,-3.098496675,-0.444734782,2024-06-11 14:02:22.487679
57.52818014,-0.1964023411,0.243006289,0.2957353294,2024-06-11 14:02:22.528180
57.56864498,-0.6652380228,-0.523029387,0.2709686458,2024-06-11 14:02:22.568645
57.60913691,-0.0512643382,-0.5544537902,-0.1424749196,2024-06-11 14:02:22.609137
57.64965311,0.0330222249,-0.5081161261,-0.0117175635,2024-06-11 14:02:22.649653
57.69013061,0.01078548469,-0.8437976837,0.04287562892,2024-06-11 14:02:22.690131
57.73056285,-0.09706936032,0.2619141638,0.06950645149,2024-06-11 14:02:22.730563
57.77102363,-0.1125152409,0.3175725937,-0.02343512699,2024-06-11 14:02:22.771024
57.8115054,-0.06777545065,-0.7897371054,-0.1579207927,2024-06-11 14:02:22.811505
57.85198717,0.1880136281,-1.636464238,-0.2386122048,2024-06-11 14:02:22.851987
57.89247508,-0.3276923001,-0.5797531009,0.0117175635,2024-06-11 14:02:22.892475
57.93296967,-0.2283593267,-0.4684362113,-0.03541899845,2024-06-11 14:02:22.932970
57.9734593,-0.1143793985,-1.184672236,-0.1142462417,2024-06-11 14:02:22.973459
58.0139093,-0.168706283,-1.046458244,0.159651801,2024-06-11 14:02:23.013909
58.0543917,0.405321151,-0.5651060939,0.2816209793,2024-06-11 14:02:23.054392
58.09487347,0.4772244096,-0.6609770656,0.2038589716,2024-06-11 14:02:23.094873
58.13541472,0.1765623689,-0.235949114,0.06897383928,2024-06-11 14:02:23.135415
58.1758418,0.1387466043,0.3231650591,0.08415340632,2024-06-11 14:02:23.175842
58.21644368,0.01051917579,-0.01557903271,0.2515281439,2024-06-11 14:02:23.216444
58.25681649,0.08894696087,-0.7652367949,0.3013277948,2024-06-11 14:02:23.256816
58.29729878,0.1568555683,-1.060572624,0.2744306624,2024-06-11 14:02:23.297299
58.33777196,0.1235670298,-0.1901440918,0.2086525112,2024-06-11 14:02:23.337772
58.3782654,0.1406107545,0.02516612969,0.08868064731,2024-06-11 14:02:23.378265
58.41877019,0.1778939217,-0.1288931966,0.1226349548,2024-06-11 14:02:23.418770
58.45923399,0.2351501882,-0.2745638192,0.2259625494,2024-06-11 14:02:23.459234
58.49974634,0.2396774292,-0.5155727863,0.3665733039,2024-06-11 14:02:23.499746
58.54019988,0.06311506033,-0.5904054046,0.4861457348,2024-06-11 14:02:23.540200
58.58068029,0.2782921195,-0.9567124248,0.4094489515,2024-06-11 14:02:23.580680
58.62116076,-0.04220985994,-0.1491326243,0.3521926701,2024-06-11 14:02:23.621161
58.66164123,-0.5378095508,0.2672403455,0.1995980442,2024-06-11 14:02:23.661641
58.70210342,-0.7600437403,1.091863871,0.04979964346,2024-06-11 14:02:23.702103
58.74258686,-0.8300828338,1.506639004,0.01917419396,2024-06-11 14:02:23.742587
58.78305451,-0.4837489426,2.852560997,-0.1752308309,2024-06-11 14:02:23.783055
58.82352878,-0.3726983964,2.257761478,-0.2175738513,2024-06-11 14:02:23.823529
58.86400128,-0.3655080795,1.308239341,-0.1504641622,2024-06-11 14:02:23.864001
58.90453082,-0.7501903772,0.06910699606,0.06817491353,2024-06-11 14:02:23.904531
58.94505743,-1.335136414,-1.806635261,0.1740324497,2024-06-11 14:02:23.945057
58.98548003,-0.08721595258,-2.820737123,-0.1046591476,2024-06-11 14:02:23.985480
59.0259643,-0.15512456,0.05632419512,-0.004793548491,2024-06-11 14:02:24.025964
59.06641873,-0.6039870977,2.106764555,0.4222317338,2024-06-11 14:02:24.066419
59.10686326,-0.5904054046,0.6071828008,0.3479317427,2024-06-11 14:02:24.106863
59.14742878,-0.2435389012,-1.674280047,-0.05832150951,2024-06-11 14:02:24.147429
59.1878741,-0.2302234918,-0.6896052361,-0.2474003732,2024-06-11 14:02:24.187874
59.22838207,-0.4344819188,1.092396498,0.001065233024,2024-06-11 14:02:24.228382
59.26881748,-0.4637758136,0.2198374718,0.06338136643,2024-06-11 14:02:24.268817
59.30929472,-0.3940030634,0.1420754492,-0.0005326165119,2024-06-11 14:02:24.309295
59.3497667,-0.521032095,0.8950620294,-0.195203945,2024-06-11 14:02:24.349767
59.39027795,-0.6916025281,0.8545832038,-0.3491301239,2024-06-11 14:02:24.390278
59.43072102,-1.295190215,1.05617857,-0.2793573737,2024-06-11 14:02:24.430721
59.47120212,-1.353245378,0.4520582557,-0.294803232,2024-06-11 14:02:24.471202
59.51168326,-0.4224980474,-1.392792225,-0.9119726419,2024-06-11 14:02:24.511683
59.55217477,-0.7376738787,-1.756569266,-1.015566587,2024-06-11 14:02:24.552175
59.59267665,-0.9957265854,3.201025248,-1.046990871,2024-06-11 14:02:24.592677
59.63316066,1.429542661,2.540181398,-1.56828928,2024-06-11 14:02:24.633161
59.67365389,0.2583190203,-0.992131412,0.1657768935,2024-06-11 14:02:24.673654
59.71414076,-1.093195438,-1.095725298,0.6211640239,2024-06-11 14:02:24.714141
59.75461457,-0.7597774267,-0.1446053833,-0.5497934222,2024-06-11 14:02:24.754615
59.79509977,-0.506118834,-2.216084242,-0.7833457589,2024-06-11 14:02:24.795100
59.83556201,-0.8551158309,-2.262155533,0.2387453467,2024-06-11 14:02:24.835562
59.87604884,-1.486399531,-2.44004941,-0.0,2024-06-11 14:02:24.876049
59.91653498,-1.860429525,-2.897167444,-0.2162422985,2024-06-11 14:02:24.916535
59.95700009,-0.831148088,-2.346308947,0.2539249361,2024-06-11 14:02:24.957000
59.99750113,0.3459344208,-0.2338186502,0.369769007,2024-06-11 14:02:24.997501
60.03802175,0.6664364338,1.237667561,0.6206313968,2024-06-11 14:02:25.038022
60.07848269,0.03648423031,1.458170891,0.1790923029,2024-06-11 14:02:25.078483
60.11894061,0.1541924775,1.079347372,0.1830869317,2024-06-11 14:02:25.118941
60.15941019,1.999841809,1.015965939,-0.1251648813,2024-06-11 14:02:25.159410
60.19994779,3.107684135,0.1122489274,-0.5300865769,2024-06-11 14:02:25.199948
60.240378,2.991174221,0.2696371078,-0.6613765359,2024-06-11 14:02:25.240378
60.28080582,2.863080025,0.3591166735,-0.5753589869,2024-06-11 14:02:25.280806
60.32130988,2.929124594,-0.4593817294,-0.6416697502,2024-06-11 14:02:25.321310
60.36181394,3.997819424,0.3234313726,-0.7545844316,2024-06-11 14:02:25.361814
60.40229753,2.870536804,1.247787356,-0.3531247377,2024-06-11 14:02:25.402298
60.44278165,0.8826786876,3.211411238,0.1897446364,2024-06-11 14:02:25.442782
60.48326977,0.4399412274,1.78426528,0.9781502485,2024-06-11 14:02:25.483270
60.52375139,0.7532529235,-1.431140542,0.8974588513,2024-06-11 14:02:25.523751
60.56423769,1.63433373,-3.409145117,0.7698971629,2024-06-11 14:02:25.564238
60.60472134,2.294378757,-5.195940495,0.6416697502,2024-06-11 14:02:25.604721
60.64521082,-0.6713631153,-4.889019966,0.8359416127,2024-06-11 14:02:25.645211
60.68571024,-2.764679193,1.23021102,0.3146432042,2024-06-11 14:02:25.685710
60.72617915,0.2655093372,-5.259854317,1.173087835,2024-06-11 14:02:25.726179
60.76663967,-0.2411421239,-3.565734386,0.3950682878,2024-06-11 14:02:25.766640
60.80713691,-1.900642037,1.528476238,1.269757748,2024-06-11 14:02:25.807137
60.84762884,-1.36309886,3.732177019,0.7038527131,2024-06-11 14:02:25.847629
60.88812816,-0.5559184551,2.186124563,-0.02583190054,2024-06-11 14:02:25.888128
60.9285893,-0.5989272594,-1.262434244,-0.4109136462,2024-06-11 14:02:25.928589
60.96903826,-1.055912256,1.29039669,-0.348331213,2024-06-11 14:02:25.969038
61.00953451,-0.3822855055,0.8255556226,-0.4822842479,2024-06-11 14:02:26.009535
61.05004321,-0.1940055639,2.150705576,-0.5146406889,2024-06-11 14:02:26.050043
61.09053207,0.1270290315,3.27772212,-0.3576519787,2024-06-11 14:02:26.090532
61.13101305,-0.09999874979,2.265218019,-0.6704310179,2024-06-11 14:02:26.131013
61.17147045,-0.8255556226,-1.078148961,-1.212501526,2024-06-11 14:02:26.171470
61.21192941,-0.6314168572,-3.590234756,-1.361634135,2024-06-11 14:02:26.211929
