Time (s),Linear Acceleration x (m/s^2),Linear Acceleration y (m/s^2),Linear Acceleration z (m/s^2),Datetime
0.127108285,0.0,0.0,0.0,2024-06-11 14:01:25.127108
0.167424743,-0.8545575142,-0.3815393448,-1.234248161,2024-06-11 14:01:25.167425
0.207921514,-0.006779074669,-1.057580233,0.9816141129,2024-06-11 14:01:25.207922
0.24843266,2.651750088,0.07972979546,1.755112648,2024-06-11 14:01:25.248433
0.288874171,2.69263649,-1.917767763,2.000318527,2024-06-11 14:01:25.288874
0.329368858,-1.028110981,-3.519547939,4.105707169,2024-06-11 14:01:25.329369
0.369489171,2.430254698,0.1258864403,-2.305008888,2024-06-11 14:01:25.369489
0.410357087,0.1046589315,-2.398558617,-3.014338493,2024-06-11 14:01:25.410357
0.450836254,1.03591466,-0.9318990707,-2.107751846,2024-06-11 14:01:25.450836
0.491287608,1.798662782,-0.4547502995,-3.891568184,2024-06-11 14:01:25.491288
0.531835473,-0.4897497296,-1.832243204,-7.489442825,2024-06-11 14:01:25.531835
0.572278337,2.363687515,-0.8907277584,-4.267316341,2024-06-11 14:01:25.572278
0.612755889,-0.4148928523,-4.453800201,-6.154295921,2024-06-11 14:01:25.612756
0.653111671,3.673396587,-4.061228752,-5.266823769,2024-06-11 14:01:25.653112
0.693541046,-2.119185686,-6.706615925,-7.774242401,2024-06-11 14:01:25.693541
0.73399365,-1.192260385,-6.686403275,-2.900537014,2024-06-11 14:01:25.733994
0.774484691,-4.021308422,-7.905930042,10.05737686,2024-06-11 14:01:25.774485
0.814957087,-1.219333887,-2.547363758,11.68606949,2024-06-11 14:01:25.814957
0.854977712,-6.457015991,-0.5416097641,12.94990921,2024-06-11 14:01:25.854978
0.895960993,-4.129612923,1.098428249,15.6568861,2024-06-11 14:01:25.895961
0.936438754,0.1496419907,4.855806351,14.49766541,2024-06-11 14:01:25.936439
0.976908546,0.8231697083,4.877938747,8.037084579,2024-06-11 14:01:25.976909
1.017402712,8.945932388,6.140908241,4.098452091,2024-06-11 14:01:26.017403
1.057873025,3.729890823,1.625347614,-0.04862260818,2024-06-11 14:01:26.057873
1.098304952,1.371622562,-0.08729839325,-1.985041618,2024-06-11 14:01:26.098305
1.13881766,0.8968834877,-0.830956459,0.02431201935,2024-06-11 14:01:26.138818
1.179306931,2.4843297,-0.5531549454,-2.789660454,2024-06-11 14:01:26.179307
1.219775004,2.3766675,-0.9705815315,0.7434501648,2024-06-11 14:01:26.219775
1.260293546,-0.8973369598,0.3483548164,1.796229839,2024-06-11 14:01:26.260294
1.300820889,0.7569231987,2.119432926,2.145425558,2024-06-11 14:01:26.300821
1.341255421,0.6335482597,2.195762634,0.9089310169,2024-06-11 14:01:26.341255
1.381722868,5.878650665,3.259893417,-0.1173577309,2024-06-11 14:01:26.381723
1.422272868,0.3948950768,-3.598875046,-3.180029392,2024-06-11 14:01:26.422273
1.462570473,-2.995257854,-7.481799126,-3.265706539,2024-06-11 14:01:26.462570
1.503207868,1.919571877,-2.196446419,4.038285255,2024-06-11 14:01:26.503208
1.543692921,1.04436636,-0.8327383995,0.6498105526,2024-06-11 14:01:26.543693
1.584050108,2.050681114,-0.8685703278,-0.1651437283,2024-06-11 14:01:26.584050
1.624741462,1.518457413,1.954047203,-1.053133011,2024-06-11 14:01:26.624741
1.665135316,2.388722897,2.951799393,-0.3405437469,2024-06-11 14:01:26.665135
1.705611983,-1.983880997,0.2216339111,-1.486854076,2024-06-11 14:01:26.705612
1.746082816,-4.147984028,0.9990882874,0.4990377426,2024-06-11 14:01:26.746083
1.786587243,-2.049611092,-0.0726518631,-2.285115004,2024-06-11 14:01:26.786587
1.827145108,0.3369604945,-1.629119873,0.1304695606,2024-06-11 14:01:26.827145
1.867456566,1.248635292,-3.168633461,1.710670471,2024-06-11 14:01:26.867457
1.908010629,-0.811128974,-0.2511205673,-0.6983709335,2024-06-11 14:01:26.908011
1.948485473,1.198572874,0.1598443985,-1.201747656,2024-06-11 14:01:26.948485
1.988996462,-1.865298271,-1.097738266,1.949793816,2024-06-11 14:01:26.988996
2.029486514,-11.55477524,-3.315346718,-2.477537632,2024-06-11 14:01:27.029487
2.069960056,-12.53470325,-8.520291328,-5.441277504,2024-06-11 14:01:27.069960
2.110391618,-1.044189453,-3.045885086,-7.078698635,2024-06-11 14:01:27.110392
2.150933493,16.3490963,5.311786652,-6.577139854,2024-06-11 14:01:27.150933
2.191420368,24.60520554,8.569140434,-0.650592804,2024-06-11 14:01:27.191420
2.231902296,-2.807790041,0.6127595901,11.75302029,2024-06-11 14:01:27.231902
2.272237087,5.980383873,2.578377724,11.51659393,2024-06-11 14:01:27.272237
2.31273391,2.309140921,-1.665545464,4.633573532,2024-06-11 14:01:27.312734
2.353262504,1.410360336,-8.569525719,-6.879165649,2024-06-11 14:01:27.353263
2.393745577,-3.821862698,-6.535825729,-7.728494644,2024-06-11 14:01:27.393746
2.434294796,-4.250685692,-0.6357526779,-2.606434822,2024-06-11 14:01:27.434295
2.474772764,-2.159340382,1.574012756,-1.219307899,2024-06-11 14:01:27.474773
2.515242243,0.6137180328,0.2431116104,-1.474245429,2024-06-11 14:01:27.515242
2.555732973,1.880636692,-0.2018957138,0.3799194694,2024-06-11 14:01:27.555733
2.596052764,0.5748414993,0.828543663,3.389963627,2024-06-11 14:01:27.596053
2.636744952,-0.1772649288,-0.1117553711,1.988513708,2024-06-11 14:01:27.636745
2.677168546,0.2377576828,0.4773368835,-0.4216111302,2024-06-11 14:01:27.677169
2.717640212,-0.2704999447,0.3817167282,-0.327974081,2024-06-11 14:01:27.717640
2.758153858,-0.327038765,0.07680130005,0.6101087332,2024-06-11 14:01:27.758154
2.798651983,2.012176275,-1.803099632,1.602452755,2024-06-11 14:01:27.798652
2.838980264,1.868998051,-1.921677589,2.388384342,2024-06-11 14:01:27.838980
2.87952016,1.919885874,2.219288826,-1.004795909,2024-06-11 14:01:27.879520
2.920046879,1.353721857,2.282483101,-2.620684385,2024-06-11 14:01:27.920047
2.960557296,0.4882719517,0.4627695084,-2.719630241,2024-06-11 14:01:27.960557
3.001032556,-0.2960391045,-0.3147277832,-2.567026854,2024-06-11 14:01:28.001033
3.041472712,-0.7444109917,-0.8804264069,-0.2354394794,2024-06-11 14:01:28.041473
3.081985629,-1.768709779,-0.2814502716,1.138372421,2024-06-11 14:01:28.081986
3.122398546,-3.077526331,-1.10299015,3.034867048,2024-06-11 14:01:28.122399
3.162745212,-0.2313249111,-0.1538476944,0.2097528577,2024-06-11 14:01:28.162745
3.203421879,0.32711339,0.2455606461,-1.026714921,2024-06-11 14:01:28.203422
3.243937296,-0.4067490101,0.02818584442,-0.8991969824,2024-06-11 14:01:28.243937
3.284404952,-0.8370223045,-0.1705760956,-0.8644599319,2024-06-11 14:01:28.284405
3.324887712,-1.438889861,-0.1766862869,-0.817612648,2024-06-11 14:01:28.324888
3.365385421,-1.237938285,-0.3102893829,-1.212628841,2024-06-11 14:01:28.365385
3.405831723,-0.34755373,-0.2616891861,-1.197223306,2024-06-11 14:01:28.405832
3.446292243,0.2322342396,0.1820344925,-0.5475613475,2024-06-11 14:01:28.446292
3.486791098,0.186412096,0.06368923187,0.3080586195,2024-06-11 14:01:28.486791
3.527260212,0.08937454224,0.2367782593,0.3858026862,2024-06-11 14:01:28.527260
3.567753962,0.1460354328,-0.01169300079,0.337769866,2024-06-11 14:01:28.567754
3.608296254,-0.3472164869,-0.07453250885,0.2056822181,2024-06-11 14:01:28.608296
3.648707556,0.1507661343,0.230837822,-0.4804393649,2024-06-11 14:01:28.648708
3.689192973,0.3317594528,0.02132511139,-0.5214193463,2024-06-11 14:01:28.689193
3.729662243,-0.1471457481,-0.07325077057,-0.2729149163,2024-06-11 14:01:28.729662
3.770120368,0.02888655663,0.1103610992,-1.072770715,2024-06-11 14:01:28.770120
3.810672139,-0.01451206207,-0.2975635529,-1.488984585,2024-06-11 14:01:28.810672
3.851024327,-0.4605568647,-0.4009742737,-1.921240449,2024-06-11 14:01:28.851024
3.891561775,-0.3050866127,-0.06664848328,-1.384527206,2024-06-11 14:01:28.891562
3.931914118,0.4686142206,0.633600235,0.480245769,2024-06-11 14:01:28.931914
3.972536358,-0.1388961077,0.01313972473,3.891493797,2024-06-11 14:01:28.972536
4.013064848,0.2817206383,0.3593482971,0.8482599258,2024-06-11 14:01:29.013065
4.053460941,0.1280024052,0.331325531,-0.4148253202,2024-06-11 14:01:29.053461
4.094005629,-0.3954173326,0.4093647003,-0.6026477814,2024-06-11 14:01:29.094006
4.134418702,-0.7187997103,-0.413315773,-1.203467011,2024-06-11 14:01:29.134419
4.174906671,-1.967240572,-0.9844083786,-1.348335028,2024-06-11 14:01:29.174907
4.215400785,-3.074885845,-1.081141472,-0.06106004119,2024-06-11 14:01:29.215401
4.255854952,-2.926785231,-0.6836252213,0.2464226931,2024-06-11 14:01:29.255855
4.296362973,-0.7464241982,0.4716396332,-1.850379229,2024-06-11 14:01:29.296363
4.336814223,1.898059607,0.7404975891,1.89765203,2024-06-11 14:01:29.336814
4.377313962,0.04750108719,0.3582792282,2.46327877,2024-06-11 14:01:29.377314
4.417797087,-2.8133111,-0.959318161,-0.3892555237,2024-06-11 14:01:29.417797
4.458289691,-3.094886065,-1.029447556,-0.1617099643,2024-06-11 14:01:29.458290
4.498753546,-0.9369504452,-0.5586929321,-1.628141403,2024-06-11 14:01:29.498754
4.539236879,3.527902603,0.4051275253,-1.744066,2024-06-11 14:01:29.539237
4.579725212,6.387550831,1.338787079,-0.2337625176,2024-06-11 14:01:29.579725
4.620185212,5.272973061,1.941078186,-0.6436436176,2024-06-11 14:01:29.620185
4.66071516,1.606628656,0.002097129822,2.382972717,2024-06-11 14:01:29.660715
4.701198233,-1.280949831,-0.7848997116,2.052151203,2024-06-11 14:01:29.701198
4.741576514,-0.3172802925,0.03924560547,-0.8406047225,2024-06-11 14:01:29.741577
4.782117348,0.7669551373,0.1564311981,-1.647849321,2024-06-11 14:01:29.782117
4.822587296,1.97034049,0.1486339569,-1.872414827,2024-06-11 14:01:29.822587
4.863040629,2.395917654,0.5647697449,-1.960454464,2024-06-11 14:01:29.863041
4.903563754,1.434485197,1.109171867,-2.240712166,2024-06-11 14:01:29.903564
4.944036098,-0.9142529964,0.9692306519,-1.825593352,2024-06-11 14:01:29.944036
4.984525421,-1.659182906,-0.4403800964,6.869605064,2024-06-11 14:01:29.984525
5.025027087,-1.504346371,0.6701879501,1.143868446,2024-06-11 14:01:30.025027
5.06550141,0.438079834,0.6725654602,-4.313315868,2024-06-11 14:01:30.065501
5.105964587,3.882781506,-0.3479232788,-5.583753586,2024-06-11 14:01:30.105965
5.146452296,4.873723507,0.3011627197,-5.563269138,2024-06-11 14:01:30.146452
5.186924014,3.990114689,0.9397497177,-4.082266331,2024-06-11 14:01:30.186924
5.22741615,2.857055187,1.212239265,-3.107134581,2024-06-11 14:01:30.227416
5.267898025,3.974994898,-2.627775192,-2.200773239,2024-06-11 14:01:30.267898
5.308374014,4.282376289,-6.04095459,-6.554673195,2024-06-11 14:01:30.308374
5.348872087,-8.340255737,-3.92865181,27.08838654,2024-06-11 14:01:30.348872
5.389358233,-1.393927813,0.08898735046,-2.775028229,2024-06-11 14:01:30.389358
5.429790421,-2.189918756,-1.960165024,-3.230415583,2024-06-11 14:01:30.429790
5.47029365,-2.680107355,-0.1416034698,0.6999133229,2024-06-11 14:01:30.470294
5.510792139,-0.06329107285,0.3551568985,1.923774719,2024-06-11 14:01:30.510792
5.551264691,-0.03120708466,1.5325284,0.4751360416,2024-06-11 14:01:30.551265
5.591767608,1.937410116,0.2184257507,4.394426346,2024-06-11 14:01:30.591768
5.63220516,2.651472092,0.8348989487,2.734716892,2024-06-11 14:01:30.632205
5.672705837,2.905126572,0.9451608658,-2.191904306,2024-06-11 14:01:30.672706
5.713174066,3.503077984,0.7316579819,-8.421064377,2024-06-11 14:01:30.713174
5.753644952,8.641182899,-2.333444595,-9.687432289,2024-06-11 14:01:30.753645
5.794155629,0.1002349854,-6.279504776,13.24067879,2024-06-11 14:01:30.794156
5.834615316,-9.567479134,2.724004269,1.4750247,2024-06-11 14:01:30.834615
5.875105681,-5.818475246,7.644402027,-3.941308498,2024-06-11 14:01:30.875106
5.915580889,1.558614731,8.00804615,-3.227650404,2024-06-11 14:01:30.915581
5.956048181,6.332688808,-0.1894464493,-3.918058395,2024-06-11 14:01:30.956048
5.996546775,2.822321415,-4.246291637,2.040185452,2024-06-11 14:01:30.996547
6.03703141,-0.4827041626,0.3253993988,-1.163607955,2024-06-11 14:01:31.037031
6.077490004,6.980780602,-0.3449816704,10.41377831,2024-06-11 14:01:31.077490
6.117974431,1.93792057,-7.351524353,3.379500628,2024-06-11 14:01:31.117974
6.158455577,-3.686774015,2.813068867,-3.088617086,2024-06-11 14:01:31.158456
6.198932608,-1.337314367,2.015323639,-2.632906914,2024-06-11 14:01:31.198933
6.239436306,0.778924942,-5.135652542,-1.103688955,2024-06-11 14:01:31.239436
6.279891931,-8.113859177,-1.38623333,-0.8492238522,2024-06-11 14:01:31.279892
6.320394327,-3.275346994,-1.74212265,0.3163468838,2024-06-11 14:01:31.320394
6.360870889,-1.820517898,-1.522693634,-1.412199855,2024-06-11 14:01:31.360871
6.401316046,-1.199230433,1.668941498,-1.253817677,2024-06-11 14:01:31.401316
6.441757816,-1.002100945,0.1388788223,2.087255478,2024-06-11 14:01:31.441758
6.482239483,-0.7885391712,-0.871339798,-0.5671112537,2024-06-11 14:01:31.482239
6.522699431,-1.32631731,0.6076097488,-1.424386024,2024-06-11 14:01:31.522699
6.563272608,-2.482031345,-0.6580753326,-1.442171693,2024-06-11 14:01:31.563273
6.60376865,-2.370381832,-0.9624118805,-1.588465691,2024-06-11 14:01:31.603769
6.644211566,-1.972006798,-0.7307796478,-1.112713814,2024-06-11 14:01:31.644212
6.684690473,-0.5462269783,-0.9330444336,1.371112108,2024-06-11 14:01:31.684690
6.72518016,1.665192127,-1.403367043,2.745723009,2024-06-11 14:01:31.725180
6.765674014,3.409339905,1.318836689,1.625440121,2024-06-11 14:01:31.765674
6.806153233,-1.056442022,-0.4752883911,3.992347002,2024-06-11 14:01:31.806153
6.846578598,-1.503710985,-1.254105568,0.634403944,2024-06-11 14:01:31.846579
6.88710766,-0.03054332733,4.419475079,-1.6957829,2024-06-11 14:01:31.887108
6.927580316,-2.420137644,4.479672432,-3.259971142,2024-06-11 14:01:31.927580
6.968052608,-2.110386372,-0.424282074,3.353544474,2024-06-11 14:01:31.968053
7.008553441,-1.036337376,-1.548739433,3.66799593,2024-06-11 14:01:32.008553
7.049011254,-0.3471429348,-0.4898071289,3.155540943,2024-06-11 14:01:32.049011
7.089481566,2.674088955,-1.445817947,-1.795666456,2024-06-11 14:01:32.089482
7.129973493,6.313778877,-2.323951721,8.590605736,2024-06-11 14:01:32.129973
7.170499535,2.645447254,4.010662079,-3.630153179,2024-06-11 14:01:32.170500
7.210975733,0.7622711658,2.485245228,-1.576960921,2024-06-11 14:01:32.210976
7.251406931,0.7085776329,-0.3203763962,-3.513511658,2024-06-11 14:01:32.251407
7.291882504,-1.524847984,-1.735373497,-6.456573486,2024-06-11 14:01:32.291883
7.332396098,-3.67726779,-1.403215408,-3.347050428,2024-06-11 14:01:32.332396
7.372844171,0.3541958332,-2.214330673,11.82237911,2024-06-11 14:01:32.372844
7.413341254,-2.968290091,-1.61540699,-3.429084301,2024-06-11 14:01:32.413341
7.453796462,-1.56908083,0.6654033661,-2.128191948,2024-06-11 14:01:32.453796
7.494289431,-1.387700081,0.706861496,1.058578491,2024-06-11 14:01:32.494289
7.534773754,-0.5860037804,0.1392974854,0.8770750761,2024-06-11 14:01:32.534774
7.575259275,-1.027959347,0.2003488541,0.04368498921,2024-06-11 14:01:32.575259
7.615783233,-0.9179215431,0.9190835953,0.4679165483,2024-06-11 14:01:32.615783
7.656216723,-0.1853413582,1.277947903,-0.1137022376,2024-06-11 14:01:32.656217
7.696681827,-1.463698864,0.6531543732,-0.04913759232,2024-06-11 14:01:32.696682
7.737160889,-2.501832724,0.5470218658,1.233592629,2024-06-11 14:01:32.737161
7.777650525,-0.3538341522,0.06928730011,0.2850210667,2024-06-11 14:01:32.777651
7.818141462,-2.953875542,-1.190664291,0.07548844814,2024-06-11 14:01:32.818141
7.85858266,-3.950473309,-1.950440407,0.4431365728,2024-06-11 14:01:32.858583
7.899107504,-1.095053673,-1.644392967,3.421354294,2024-06-11 14:01:32.899108
7.939557296,-0.1430442333,-2.595239639,6.198607445,2024-06-11 14:01:32.939557
7.980041618,1.560245037,-3.47332859,12.15102196,2024-06-11 14:01:32.980042
8.020536879,-1.839038134,-2.416687965,10.44092274,2024-06-11 14:01:33.020537
8.061088181,-6.567578316,-3.028762817,4.664978981,2024-06-11 14:01:33.061088
8.101452868,-4.982815742,-5.388811588,-0.8462916613,2024-06-11 14:01:33.101453
8.141941931,-5.781523705,-14.64333916,2.078807592,2024-06-11 14:01:33.141942
8.182445941,-5.108044147,-18.33944321,2.888346195,2024-06-11 14:01:33.182446
8.222921879,-6.707573891,-13.28408813,-3.553721666,2024-06-11 14:01:33.222922
8.263411879,3.219263315,-9.602591515,-5.508943081,2024-06-11 14:01:33.263412
8.303895577,2.881568432,0.7013602257,-8.098147392,2024-06-11 14:01:33.303896
8.344362296,-3.132867336,5.726074696,-10.37314796,2024-06-11 14:01:33.344362
8.38483641,-7.187703133,7.130754471,-10.31817532,2024-06-11 14:01:33.384836
8.425333129,-8.765361786,7.882996559,-4.717077255,2024-06-11 14:01:33.425333
8.465815056,12.18970871,1.772266388,29.11796951,2024-06-11 14:01:33.465815
8.506302296,5.031394482,-15.25027847,-29.49733353,2024-06-11 14:01:33.506302
8.546781098,7.699894905,-4.449615479,-14.62884712,2024-06-11 14:01:33.546781
8.587259796,1.875504732,5.782727242,-7.823130608,2024-06-11 14:01:33.587260
8.62774766,0.6971254349,4.39655304,-2.197018147,2024-06-11 14:01:33.627748
8.668194587,-6.123470306,-10.45523167,3.412381411,2024-06-11 14:01:33.668195
8.708687608,-8.205192566,-12.16495895,-3.178409815,2024-06-11 14:01:33.708688
8.749184379,-3.526294231,-3.74430275,9.196656227,2024-06-11 14:01:33.749184
8.789661254,-0.07277297974,-7.456929207,8.364772797,2024-06-11 14:01:33.789661
8.830165316,9.691100121,0.1776304245,13.27882576,2024-06-11 14:01:33.830165
8.870641098,2.675513744,3.039024353,12.16148853,2024-06-11 14:01:33.870641
8.911117816,-3.772844553,5.0185709,4.746725082,2024-06-11 14:01:33.911118
8.951557087,-5.152270317,6.926140785,0.4401986301,2024-06-11 14:01:33.951557
8.992026306,-5.647066116,7.851066113,-2.42571044,2024-06-11 14:01:33.992026
9.032502556,-5.11275053,1.657113552,-5.605257034,2024-06-11 14:01:34.032503
9.072996046,1.134309292,-18.91145706,-9.957964897,2024-06-11 14:01:34.072996
9.113499275,6.991063595,-27.11930275,7.254509926,2024-06-11 14:01:34.113499
9.153969118,7.002101421,-11.18751717,-8.593416214,2024-06-11 14:01:34.153969
9.194457608,-1.135031939,-0.5953016281,-15.49433422,2024-06-11 14:01:34.194458
9.234924066,-4.104096413,3.243988752,-9.31215477,2024-06-11 14:01:34.234924
9.275420837,-3.582856655,8.475022316,1.733799458,2024-06-11 14:01:34.275421
9.315905368,0.9298353195,4.217905045,5.537957668,2024-06-11 14:01:34.315905
9.35637115,-1.328722,-2.470215321,-1.200920343,2024-06-11 14:01:34.356371
9.396845733,-1.796032906,6.894194603,4.017306805,2024-06-11 14:01:34.396846
9.437332243,-5.061518192,-5.682351112,-3.806056738,2024-06-11 14:01:34.437332
9.477812921,-0.04159450531,-14.61031342,-9.018650055,2024-06-11 14:01:34.477813
9.518296306,0.856066227,-6.356787682,-4.356152058,2024-06-11 14:01:34.518296
9.558763337,0.358979702,3.784508705,-0.5103987455,2024-06-11 14:01:34.558763
9.599239431,12.22607136,2.825618267,0.1099361181,2024-06-11 14:01:34.599239
9.639727348,-20.1516819,-5.967639923,10.43468094,2024-06-11 14:01:34.639727
9.68020016,-3.275056124,-1.820742607,-0.01256749034,2024-06-11 14:01:34.680200
9.720718806,2.58444643,3.901677132,-1.447481275,2024-06-11 14:01:34.720719
9.76117865,3.431993723,6.376989841,4.039413452,2024-06-11 14:01:34.761179
9.801630629,0.6760566235,4.703588963,2.822191238,2024-06-11 14:01:34.801631
9.842099639,-1.009301186,-1.047682762,2.173521757,2024-06-11 14:01:34.842100
9.88256865,1.256480455,-1.275931358,-1.010948062,2024-06-11 14:01:34.882569
9.923077816,-0.6329512596,2.583979607,-1.079624414,2024-06-11 14:01:34.923078
9.963587608,1.403170824,-0.0254907608,1.463281274,2024-06-11 14:01:34.963588
10.00410667,1.814657927,-3.519051552,4.949223042,2024-06-11 14:01:35.004107
10.04456511,-1.167531848,-3.404961586,9.07862854,2024-06-11 14:01:35.044565
10.08506417,-1.238429308,-3.185536385,8.370474815,2024-06-11 14:01:35.085064
10.12547745,0.3933508396,-3.467746735,5.581593513,2024-06-11 14:01:35.125477
10.16598782,-2.504169703,-8.04383564,-2.183280706,2024-06-11 14:01:35.165988
10.20643198,-1.525203228,-11.03250408,-4.779760838,2024-06-11 14:01:35.206432
10.24698193,-3.013908863,-8.357301712,-0.6565110683,2024-06-11 14:01:35.246982
10.28741782,-5.75860405,-3.525020599,-5.137892246,2024-06-11 14:01:35.287418
10.32787542,-4.274996758,1.079220772,-7.511767864,2024-06-11 14:01:35.327875
10.36835719,-2.686405182,4.531938076,-2.541191101,2024-06-11 14:01:35.368357
10.40885026,0.8961908817,6.220422268,-7.421643734,2024-06-11 14:01:35.408850
10.44931667,-0.5667204857,3.175202847,-7.527098656,2024-06-11 14:01:35.449317
10.4897998,0.764875412,0.9315404892,-4.822170258,2024-06-11 14:01:35.489800
10.53033198,7.710152626,1.891230106,6.303172112,2024-06-11 14:01:35.530332
10.57081334,0.2631011009,-8.473716736,12.01737976,2024-06-11 14:01:35.570813
10.6113086,-4.880742073,-1.750369549,-2.190975189,2024-06-11 14:01:35.611309
10.65178407,4.671007156,-2.71736145,-3.424902678,2024-06-11 14:01:35.651784
10.69220125,3.475989342,-0.3792600632,-6.483558655,2024-06-11 14:01:35.692201
10.73267459,-2.197645426,3.640688419,-8.312009811,2024-06-11 14:01:35.732675
10.7731936,-1.173055887,-2.609998703,-3.560709238,2024-06-11 14:01:35.773194
10.81364818,-4.030772209,-4.816625595,3.346313715,2024-06-11 14:01:35.813648
10.85407688,-2.453787565,-0.7283668518,-0.02631895989,2024-06-11 14:01:35.854077
10.89459719,1.318238735,1.913493156,1.640011549,2024-06-11 14:01:35.894597
10.93510198,2.088835955,2.420701981,2.74900198,2024-06-11 14:01:35.935102
10.97557933,1.712239742,2.417851925,2.953355074,2024-06-11 14:01:35.975579
11.0160724,-0.8965919018,-1.590902328,8.224618912,2024-06-11 14:01:36.016072
11.05651594,-0.1389713287,-2.803702354,10.42060089,2024-06-11 14:01:36.056516
11.09700454,-5.100650311,-5.456043243,3.160174847,2024-06-11 14:01:36.097005
11.13746631,-2.381879568,-8.396362305,-2.741193533,2024-06-11 14:01:36.137466
11.17798131,2.010343552,-4.741380692,-3.268350601,2024-06-11 14:01:36.177981
11.2184774,5.112988472,-2.775649071,-3.56863451,2024-06-11 14:01:36.218477
11.25892042,2.608551741,-2.749447823,-4.581025124,2024-06-11 14:01:36.258920
11.29941292,0.3011105061,0.4743766785,-7.284606457,2024-06-11 14:01:36.299413
11.33989813,-3.288418293,2.149659157,-7.571222305,2024-06-11 14:01:36.339898
11.38041599,-5.963729858,2.74370575,-5.954583168,2024-06-11 14:01:36.380416
11.4208725,-2.209127426,4.771745682,-7.374974251,2024-06-11 14:01:36.420872
11.46139443,-2.071020603,3.295734882,-5.149728298,2024-06-11 14:01:36.461394
11.50186834,7.409575462,-2.236401558,7.998745918,2024-06-11 14:01:36.501868
11.54225521,-0.07710361481,-1.945074558,-3.568189621,2024-06-11 14:01:36.542255
11.58272985,1.047169685,4.773782253,4.19090271,2024-06-11 14:01:36.582730
11.62327355,13.48256874,-11.07912064,-0.6129078865,2024-06-11 14:01:36.623274
11.6637311,-7.034186363,-12.1120882,-14.51594353,2024-06-11 14:01:36.663731
11.7041999,-7.462265968,-6.459635258,0.4187350273,2024-06-11 14:01:36.704200
11.74467813,8.496944427,2.513210297,-1.726933479,2024-06-11 14:01:36.744678
11.78517454,0.1066317558,9.187534332,2.330031395,2024-06-11 14:01:36.785175
11.82562047,-5.137903214,-4.615226746,-0.3418803215,2024-06-11 14:01:36.825620
11.86608735,-5.092181206,-4.280245781,1.257099152,2024-06-11 14:01:36.866087
11.90661016,1.358920574,-1.767808914,0.360473156,2024-06-11 14:01:36.906610
11.9470898,-0.5318112373,-2.862205505,-0.66040802,2024-06-11 14:01:36.947090
11.98756948,-2.263501167,-4.677911282,0.5460672379,2024-06-11 14:01:36.987569
12.02805636,-1.756597042,-3.368450642,-1.387031078,2024-06-11 14:01:37.028056
12.06851511,-0.375538826,0.07116413116,-1.862609148,2024-06-11 14:01:37.068515
12.1089836,1.595314026,0.1088171005,1.8459723,2024-06-11 14:01:37.108984
12.14947922,1.100404739,-1.104041576,0.9294772148,2024-06-11 14:01:37.149479
12.18996797,0.5361633301,0.2537865639,0.729319334,2024-06-11 14:01:37.189968
12.23044605,-2.603871346,-0.1716456413,0.9086823463,2024-06-11 14:01:37.230446
12.27096688,-1.255681038,-0.5551810265,2.330688,2024-06-11 14:01:37.270967
12.31144672,0.1593046188,0.4649529457,1.161769748,2024-06-11 14:01:37.311447
12.35186365,-1.201528549,1.299524307,2.883064985,2024-06-11 14:01:37.351864
12.39233292,-1.298964977,0.3113679886,1.891434908,2024-06-11 14:01:37.392333
12.43279516,-1.557158232,-0.9158248901,3.530780077,2024-06-11 14:01:37.432795
12.47329198,-2.087795258,-0.7019128799,2.919699192,2024-06-11 14:01:37.473292
12.51381006,-2.285053492,-1.475363731,2.51480341,2024-06-11 14:01:37.513810
12.55429526,-0.895308733,-0.8846588135,4.811263561,2024-06-11 14:01:37.554295
12.5947686,-0.3623392582,-1.183255196,5.572137356,2024-06-11 14:01:37.594769
12.6352336,0.5630421638,-2.477505684,7.935260773,2024-06-11 14:01:37.635234
12.67573094,-0.9678730965,-7.799870491,6.600241184,2024-06-11 14:01:37.675731
12.71620719,-0.721511364,-4.700745583,-3.73163271,2024-06-11 14:01:37.716207
12.75668782,3.18716836,-6.130033493,-4.776599884,2024-06-11 14:01:37.756688
12.79720328,3.361883163,-1.635976791,-4.704080582,2024-06-11 14:01:37.797203
12.8376974,0.6176304817,2.96849823,-5.907087326,2024-06-11 14:01:37.837697
12.8781536,-1.502578378,3.916908264,-5.609737396,2024-06-11 14:01:37.878154
12.9186199,0.06215119362,3.839121819,-6.701346397,2024-06-11 14:01:37.918620
12.95910261,-2.278017998,3.612811089,-5.199730396,2024-06-11 14:01:37.959103
12.99958532,-1.341906309,3.868453026,-6.199356079,2024-06-11 14:01:37.999585
13.0400561,2.644917727,1.454651833,-1.859224796,2024-06-11 14:01:38.040056
13.08051339,6.588976383,-10.62423801,20.27993202,2024-06-11 14:01:38.080513
13.12104875,0.8641629219,-0.780503273,-5.704102516,2024-06-11 14:01:38.121049
13.16149084,3.89359951,-2.998857498,-6.500380993,2024-06-11 14:01:38.161491
13.20196313,-1.011011124,1.205994129,-7.008118629,2024-06-11 14:01:38.201963
13.24245401,-4.015398026,2.954482555,-5.917669773,2024-06-11 14:01:38.242454
13.28293141,-1.355080128,-3.846534729,-8.48002243,2024-06-11 14:01:38.282931
13.32339032,-3.320276022,-5.539945602,-0.6311078072,2024-06-11 14:01:38.323390
13.3638824,-2.364578247,1.376805305,4.222866058,2024-06-11 14:01:38.363882
13.4043799,0.2858550549,1.802261353,2.191583395,2024-06-11 14:01:38.404380
13.4448623,0.6039905548,0.3995132446,1.10530448,2024-06-11 14:01:38.444862
13.48532151,3.052718401,1.528379917,3.501075745,2024-06-11 14:01:38.485322
13.52579808,0.9712738991,0.01486968994,6.610966206,2024-06-11 14:01:38.525798
13.56630042,-4.903177261,-3.75535965,6.543001175,2024-06-11 14:01:38.566300
13.60677875,-5.952715874,-4.726221085,2.127771854,2024-06-11 14:01:38.606779
13.64725573,-1.363958836,-3.033311844,4.988999367,2024-06-11 14:01:38.647256
13.68771594,-0.9022036791,-3.712054253,-3.117486954,2024-06-11 14:01:38.687716
13.72819063,5.645418167,-5.377493858,-5.406281471,2024-06-11 14:01:38.728191
13.76869573,4.459445953,-5.579368591,-3.200961351,2024-06-11 14:01:38.768696
13.80921537,2.019764423,1.814724445,-3.457695723,2024-06-11 14:01:38.809215
13.84969375,-2.251811504,3.271512985,-5.799949646,2024-06-11 14:01:38.849694
13.89011282,-3.501781225,4.142517567,-7.883563042,2024-06-11 14:01:38.890113
13.93067084,-1.512241364,5.292588234,-4.176672935,2024-06-11 14:01:38.930671
13.97114474,-0.1519796848,5.172357082,-6.394679546,2024-06-11 14:01:38.971145
14.01157605,2.520612955,0.1025257111,-1.930814266,2024-06-11 14:01:39.011576
14.05205438,6.637509346,-11.0015831,21.64330864,2024-06-11 14:01:39.052054
14.09252,0.9997797012,3.288767338,-4.143176079,2024-06-11 14:01:39.092520
14.13299834,-1.273271799,2.88958931,-6.697116375,2024-06-11 14:01:39.132998
14.17351365,7.994400024,-9.319358826,-2.316777229,2024-06-11 14:01:39.173514
14.21397761,0.2548046112,-0.1541604996,-8.807746887,2024-06-11 14:01:39.213978
14.25444579,-2.884976864,3.783097744,-3.162168026,2024-06-11 14:01:39.254446
14.29493766,-1.820562363,-1.447859764,-1.422709227,2024-06-11 14:01:39.294938
14.33539219,-3.789779186,-1.039802551,-2.144212961,2024-06-11 14:01:39.335392
14.37587063,-3.365388632,2.200844765,-1.50303781,2024-06-11 14:01:39.375871
14.41636828,-0.5058887005,-0.2087345123,0.03199875355,2024-06-11 14:01:39.416368
14.45686407,6.527481079,-1.419513702,12.46165848,2024-06-11 14:01:39.456864
14.49733511,-1.084632874,-0.6784658432,0.7283676863,2024-06-11 14:01:39.497335
14.53783334,-3.745224476,-0.8763837814,0.04890310764,2024-06-11 14:01:39.537833
14.57830292,-2.949267387,-1.794354439,6.044428825,2024-06-11 14:01:39.578303
14.61882052,-3.366341591,-2.383618355,2.781359673,2024-06-11 14:01:39.618821
14.6592375,-1.285330534,-5.306591988,6.310199738,2024-06-11 14:01:39.659237
14.69972401,0.7894785404,-4.915635109,2.986839294,2024-06-11 14:01:39.699724
14.7402125,2.58093524,-2.292435646,-5.770191193,2024-06-11 14:01:39.740213
14.78072547,6.431065083,-1.499753952,-5.418208122,2024-06-11 14:01:39.780725
14.82122037,5.464188576,1.03066349,-3.289992571,2024-06-11 14:01:39.821220
14.8617,0.05462217331,2.746172905,-4.029245377,2024-06-11 14:01:39.861700
14.90209891,-2.910301924,1.198692322,-4.405044079,2024-06-11 14:01:39.902099
14.94258787,-3.440521717,1.626276016,-6.205668926,2024-06-11 14:01:39.942588
14.98307651,-0.2868280411,4.660343647,-6.045664787,2024-06-11 14:01:39.983077
15.02357714,0.3977489471,2.803656578,-5.551950932,2024-06-11 14:01:40.023577
15.06405625,2.387337208,-7.353533745,18.44508934,2024-06-11 14:01:40.064056
15.10453162,3.445340633,-1.612673759,3.254826546,2024-06-11 14:01:40.104532
15.14502547,-0.5335128307,3.66836071,-4.957549095,2024-06-11 14:01:40.145025
15.18549474,5.676301479,-6.500261307,-3.686739445,2024-06-11 14:01:40.185495
15.22595943,0.3457100391,-2.29650116,-5.482130051,2024-06-11 14:01:40.225959
15.26644193,-2.600543261,5.049707413,-4.173069,2024-06-11 14:01:40.266442
15.3069298,-0.8702504635,-0.8010416031,-4.124252796,2024-06-11 14:01:40.306930
15.34740266,-1.313371658,-2.904963493,-1.998137951,2024-06-11 14:01:40.347403
15.3878836,-2.310398579,2.295882225,-1.202421427,2024-06-11 14:01:40.387884
15.42838006,1.291445017,0.14341259,1.33829689,2024-06-11 14:01:40.428380
15.4688687,3.68614769,0.3664054871,7.106681824,2024-06-11 14:01:40.468869
15.50935209,-0.3836326599,0.6049003601,1.878581762,2024-06-11 14:01:40.509352
15.5498348,-1.639976382,-0.8999996185,5.358825684,2024-06-11 14:01:40.549835
15.59030631,-2.23308444,-1.275212288,0.7048046589,2024-06-11 14:01:40.590306
15.63079709,0.6374752522,-4.355290413,5.274327278,2024-06-11 14:01:40.630797
15.67129438,0.9851980209,-4.42855072,-1.996201515,2024-06-11 14:01:40.671294
15.71176391,5.957544804,0.2895059586,-5.120709896,2024-06-11 14:01:40.711764
15.75222011,7.255336761,0.1235046387,-4.402768135,2024-06-11 14:01:40.752220
15.79265256,-0.3931686878,-0.5109949112,-3.223044872,2024-06-11 14:01:40.792653
15.83314516,-4.3520751,-0.3354349136,-5.65668726,2024-06-11 14:01:40.833145
15.87365105,-1.293876171,2.86981535,-5.028969288,2024-06-11 14:01:40.873651
15.91414178,0.01706242561,2.585122585,-5.063828468,2024-06-11 14:01:40.914142
15.95462974,0.703202486,0.4482584,-2.453368187,2024-06-11 14:01:40.954630
15.99511276,3.703239679,-1.980922699,9.671617508,2024-06-11 14:01:40.995113
16.03559016,4.025847435,1.423676491,2.649129391,2024-06-11 14:01:41.035590
16.07603813,1.864839554,1.843329906,-1.477568626,2024-06-11 14:01:41.076038
16.11651797,0.7340404987,-3.236177444,-6.233348846,2024-06-11 14:01:41.116518
16.15700667,-1.328985929,-3.280934334,-1.801693797,2024-06-11 14:01:41.157007
16.19749928,0.9297330379,0.4846658707,-4.780386448,2024-06-11 14:01:41.197499
16.23800214,2.354130268,3.548852444,-1.687572956,2024-06-11 14:01:41.238002
16.27849058,3.707163811,1.584082603,4.82304287,2024-06-11 14:01:41.278491
16.31896532,-3.287437201,-1.970746994,-0.3204237223,2024-06-11 14:01:41.318965
16.35942271,-4.576762199,-2.72605896,-0.5649493337,2024-06-11 14:01:41.359423
16.39989928,-2.706873417,-0.7003164291,-0.3200326562,2024-06-11 14:01:41.399899
16.44040776,-2.003504992,-0.6658763885,-1.480059624,2024-06-11 14:01:41.440408
16.4809,0.6710698605,0.3350858688,-0.2039228082,2024-06-11 14:01:41.480900
16.52137917,2.196401596,0.3316459656,-0.9294536114,2024-06-11 14:01:41.521379
16.56185823,1.1421597,0.6428031921,-0.8199546337,2024-06-11 14:01:41.561858
16.6023373,-0.3534982204,-0.1789264679,0.02170795202,2024-06-11 14:01:41.602337
16.64274886,-0.5301136971,0.128944397,-1.791852236,2024-06-11 14:01:41.642749
16.6832725,-1.145067453,0.02595806122,-0.379473269,2024-06-11 14:01:41.683273
16.72375115,-2.099203587,-0.655582428,-1.945966244,2024-06-11 14:01:41.723751
16.76422787,0.7128400803,-0.4160861969,0.4337821007,2024-06-11 14:01:41.764228
16.80472417,0.01613926888,0.3871202469,-0.5204267502,2024-06-11 14:01:41.804724
16.84520381,-0.3291010857,-0.4547805786,-0.8417313099,2024-06-11 14:01:41.845204
16.8856523,-2.827401161,-0.08489131927,-1.542109013,2024-06-11 14:01:41.885652
16.92613985,-3.258775234,-2.542844772,-1.797349334,2024-06-11 14:01:41.926140
16.96662605,-1.986956835,-1.60910511,-2.112074614,2024-06-11 14:01:41.966626
17.00711636,0.6342754364,-1.139873505,-3.145142317,2024-06-11 14:01:42.007116
17.0476074,0.2055244446,-1.153459072,-3.673012733,2024-06-11 14:01:42.047607
17.08803657,3.286476612,-1.295338631,-4.232161999,2024-06-11 14:01:42.088037
17.12854011,6.511002064,-2.474611282,1.429773331,2024-06-11 14:01:42.128540
17.16903209,2.014228344,1.684109211,6.553425789,2024-06-11 14:01:42.169032
17.20949896,-0.5463767052,-0.05431890488,4.514478683,2024-06-11 14:01:42.209499
17.25001131,3.794141769,-2.564441681,7.488109112,2024-06-11 14:01:42.250011
17.29050396,-1.863337755,4.600740433,-10.29895115,2024-06-11 14:01:42.290504
17.33098818,-6.875244141,6.899362087,-2.951957226,2024-06-11 14:01:42.330988
17.37146771,0.6460504532,0.2828197479,2.529281616,2024-06-11 14:01:42.371468
17.41194719,-0.7445840836,-2.603265285,-0.2425837517,2024-06-11 14:01:42.411947
17.45233105,-1.341353893,2.933930874,0.495357275,2024-06-11 14:01:42.452331
17.49285719,0.7670693398,4.271741867,-0.3837381601,2024-06-11 14:01:42.492857
17.5333648,8.172736168,4.098425865,6.346173286,2024-06-11 14:01:42.533365
17.57380834,0.2838459015,-3.408186913,4.037937164,2024-06-11 14:01:42.573808
17.61428782,-4.429668427,-4.190540314,0.1981062889,2024-06-11 14:01:42.614288
17.65481756,-4.068285942,-1.5625844,-1.449154258,2024-06-11 14:01:42.654818
17.69528667,1.39350605,0.6468520164,0.7485566139,2024-06-11 14:01:42.695287
17.73574344,3.087303162,-1.796736717,0.6420500278,2024-06-11 14:01:42.735743
17.77622042,-1.973203182,1.17576313,4.484160423,2024-06-11 14:01:42.776220
17.81674724,-3.351848602,0.645611763,0.6819853783,2024-06-11 14:01:42.816747
17.85722688,0.8860988617,-3.363041878,-0.1290009022,2024-06-11 14:01:42.857227
17.89766969,1.353556156,0.0104637146,-0.6254885197,2024-06-11 14:01:42.897670
17.93816271,3.80900526,2.848017216,0.9169769287,2024-06-11 14:01:42.938163
17.97863178,1.385788441,0.632692337,0.5287690163,2024-06-11 14:01:42.978632
18.01912089,-0.9416751862,-0.9265389442,-0.4830839634,2024-06-11 14:01:43.019121
18.05959178,-1.707849979,-0.07711219788,-0.3686785698,2024-06-11 14:01:43.059592
18.10003287,-0.5084028244,0.4864373207,1.280929327,2024-06-11 14:01:43.100033
18.14054011,0.1749105453,0.8019070625,2.67727375,2024-06-11 14:01:43.140540
18.18107183,1.292244434,2.20176363,3.521589041,2024-06-11 14:01:43.181072
18.22149912,-0.6743385792,1.599032879,1.746527672,2024-06-11 14:01:43.221499
18.26197881,-0.09898662567,-0.6686019897,0.2856998444,2024-06-11 14:01:43.261979
18.3024649,2.274536133,-0.03728675842,-2.11224556,2024-06-11 14:01:43.302465
18.34294448,0.09802150726,0.2395019531,-2.355151176,2024-06-11 14:01:43.342944
18.3834336,-0.8172178268,-0.4383735657,1.080089211,2024-06-11 14:01:43.383434
18.42392157,-1.016062021,0.266412735,-1.172419071,2024-06-11 14:01:43.423922
18.46438683,-1.010467768,-0.5266094208,-2.477775097,2024-06-11 14:01:43.464387
18.50488214,-1.833555937,-0.9073085785,-1.373720288,2024-06-11 14:01:43.504882
18.54535578,-2.065348864,-1.981513023,-0.2370183468,2024-06-11 14:01:43.545356
18.58581443,1.166146278,0.05648326874,0.7975081205,2024-06-11 14:01:43.585814
18.62630459,0.1088051796,0.5465011597,1.856318116,2024-06-11 14:01:43.626305
18.6668025,-1.222570419,-0.5307579041,0.09351670742,2024-06-11 14:01:43.666802
18.70727662,-1.73881197,-0.3810310364,-2.83194685,2024-06-11 14:01:43.707277
18.74775579,0.07498836517,0.2101230621,-1.375684619,2024-06-11 14:01:43.747756
18.78825115,0.134770155,0.200345993,1.478490233,2024-06-11 14:01:43.788251
18.82876318,-0.2688956261,-0.3591632843,0.281842351,2024-06-11 14:01:43.828763
18.86918782,-0.7189800739,-0.5868730545,-1.824126363,2024-06-11 14:01:43.869188
18.90967485,-1.249653339,0.4765462875,-2.044012308,2024-06-11 14:01:43.909675
18.95013683,-0.216937542,-1.067790985,-0.4105724096,2024-06-11 14:01:43.950137
18.99062802,2.86574173,1.724713326,-2.794231892,2024-06-11 14:01:43.990628
19.03110506,6.191764832,2.385841846,-0.8521840572,2024-06-11 14:01:44.031105
19.07154933,2.5367136,-1.391307831,2.289600372,2024-06-11 14:01:44.071549
19.1120386,0.7446346283,0.2360219955,6.727502346,2024-06-11 14:01:44.112039
19.1525186,-0.08900499344,3.143265724,6.343007565,2024-06-11 14:01:44.152519
19.1929986,-4.455040932,3.729193449,-6.999257088,2024-06-11 14:01:44.192999
19.23349797,0.2470312119,2.409026623,0.2055997849,2024-06-11 14:01:44.233498
19.27400037,1.530930519,-10.93708992,-4.090212822,2024-06-11 14:01:44.274000
19.31448657,-7.494550705,-4.934442997,-1.582177877,2024-06-11 14:01:44.314487
19.35496641,-1.631491661,-3.765102863,-5.201600552,2024-06-11 14:01:44.354966
19.39545896,0.5628421307,-3.548299313,-6.871379852,2024-06-11 14:01:44.395459
19.43592401,1.61131382,-1.198372841,-7.217137337,2024-06-11 14:01:44.435924
19.47643026,5.470496178,0.7406964302,-2.798873901,2024-06-11 14:01:44.476430
19.51689375,5.908629417,1.112165451,5.225656986,2024-06-11 14:01:44.516894
19.55735839,6.730946541,1.18810606,13.88445854,2024-06-11 14:01:44.557358
19.59783089,3.620513916,-0.3807239532,0.4872274399,2024-06-11 14:01:44.597831
19.63831605,-2.800803423,3.143432617,-5.034610748,2024-06-11 14:01:44.638316
19.67878563,-7.081175804,0.006916046143,-4.938510895,2024-06-11 14:01:44.678786
19.71927756,-5.791653633,-0.03321552277,-6.412806511,2024-06-11 14:01:44.719278
19.75975568,-2.977395296,1.568071365,-2.746425629,2024-06-11 14:01:44.759756
19.80026146,1.655960083,-0.05877494812,-4.956334114,2024-06-11 14:01:44.800261
19.8407574,2.609221697,-3.970176697,-1.532348394,2024-06-11 14:01:44.840757
19.8812111,3.058077812,-0.4156656265,2.057345629,2024-06-11 14:01:44.881211
19.92167792,2.501368046,3.212375641,2.444205999,2024-06-11 14:01:44.921678
19.96215787,6.633731365,-1.717890739,2.788617134,2024-06-11 14:01:44.962158
20.00264704,5.542030334,-7.878034592,4.971774101,2024-06-11 14:01:45.002647
20.04313328,-1.336778164,-6.127542496,13.94593048,2024-06-11 14:01:45.043133
20.0835973,-1.555500031,-2.243649483,3.755066633,2024-06-11 14:01:45.083597
20.12406646,-2.001393557,0.4614925385,-0.4934071302,2024-06-11 14:01:45.124066
20.16456094,-2.308380842,2.92193079,-2.156024933,2024-06-11 14:01:45.164561
20.20504761,-0.3886988163,1.636250496,-3.387675047,2024-06-11 14:01:45.205048
20.24552526,-0.6718389988,-3.148979187,-2.840032578,2024-06-11 14:01:45.245525
20.28600323,-2.97165513,0.4668416977,-0.2148234248,2024-06-11 14:01:45.286003
20.32647386,-2.341191053,-0.414689064,0.4168518782,2024-06-11 14:01:45.326474
20.36696881,0.6609427929,-1.34553051,14.38412285,2024-06-11 14:01:45.366969
20.4074698,-2.077362776,0.272521019,-1.270142317,2024-06-11 14:01:45.407470
20.44792438,-0.9508154392,0.02529430389,-1.813360691,2024-06-11 14:01:45.447924
20.48842396,0.09184479713,-0.1342201233,-1.679707527,2024-06-11 14:01:45.488424
20.52890136,1.400633097,0.464600563,0.528978169,2024-06-11 14:01:45.528901
20.56940099,0.3723478317,-0.1576538086,3.594894648,2024-06-11 14:01:45.569401
20.60987745,-0.05461883545,0.3862962723,0.5309643745,2024-06-11 14:01:45.609877
20.65034818,-1.153829575,-0.6647930145,1.894309282,2024-06-11 14:01:45.650348
20.69082834,-1.973176837,-0.3739213943,2.122233868,2024-06-11 14:01:45.690828
20.73128813,-1.733868599,-0.4423856735,1.780733228,2024-06-11 14:01:45.731288
20.77175813,-0.5721743107,0.07679748535,2.217587709,2024-06-11 14:01:45.771758
20.81222318,-2.119249821,0.1579523087,2.209825039,2024-06-11 14:01:45.812223
20.85270297,-0.1053636074,0.5538845062,1.480920792,2024-06-11 14:01:45.852703
20.89320526,-0.0008912086487,0.6810531616,1.13626802,2024-06-11 14:01:45.893205
20.9337125,-0.004298686981,0.0248374939,0.7131850719,2024-06-11 14:01:45.933712
20.97415443,-1.547872186,-0.7061223984,1.732820392,2024-06-11 14:01:45.974154
21.0146773,-1.662317276,-1.293656349,1.267016053,2024-06-11 14:01:46.014677
21.05513391,-2.240560532,-4.634944916,5.998943806,2024-06-11 14:01:46.055134
21.0956137,-2.975895882,-7.895959854,2.973395109,2024-06-11 14:01:46.095614
21.13608995,-1.996007681,-5.197851181,6.589308739,2024-06-11 14:01:46.136090
21.17657068,-0.2207801342,-1.62173748,4.590495586,2024-06-11 14:01:46.176571
21.21705078,0.9207537174,-1.970339775,-1.822622418,2024-06-11 14:01:46.217051
21.25754672,3.613024712,-2.241585732,-5.327470303,2024-06-11 14:01:46.257547
21.29802724,4.494202614,-0.5476522446,-6.464485645,2024-06-11 14:01:46.298027
21.33848928,3.386445284,0.7553043365,-6.145768642,2024-06-11 14:01:46.338489
21.37896162,0.6994509697,-0.8300657272,-4.571201324,2024-06-11 14:01:46.378962
21.41949006,-1.677000999,-1.708567619,2.163861752,2024-06-11 14:01:46.419490
21.45998443,-2.288764,1.239093781,-2.605119467,2024-06-11 14:01:46.459984
21.50038553,-1.915159702,1.722147942,-4.040897369,2024-06-11 14:01:46.500386
21.54086334,-1.530007839,1.554816246,-1.19422245,2024-06-11 14:01:46.540863
21.58140282,-1.810221195,1.884548664,-3.760648727,2024-06-11 14:01:46.581403
21.62188052,0.6679806709,1.93413496,-1.201849341,2024-06-11 14:01:46.621881
21.66234412,0.08977746964,1.528815746,2.343574524,2024-06-11 14:01:46.662344
21.70282578,-3.535863638,1.532043934,-0.2043910027,2024-06-11 14:01:46.702826
21.74331464,-0.3712935448,-1.436069489,-1.046640635,2024-06-11 14:01:46.743315
21.78377839,1.457085609,-3.437988281,-4.913089752,2024-06-11 14:01:46.783778
21.82424078,3.76060009,-3.942852974,-7.417693138,2024-06-11 14:01:46.824241
21.86468021,-3.484696865,-3.089010239,-4.518913269,2024-06-11 14:01:46.864680
21.90522573,-5.136264324,-5.384801865,5.418571472,2024-06-11 14:01:46.905226
21.94568839,-2.805970907,-1.111543655,0.1469410658,2024-06-11 14:01:46.945688
21.98618042,-0.01471543312,2.525929928,-3.052662611,2024-06-11 14:01:46.986180
22.02665214,1.60887742,0.4792108536,-0.1894421577,2024-06-11 14:01:47.026652
22.06713651,-2.110277891,-0.8571214676,1.283945084,2024-06-11 14:01:47.067137
22.10761599,-2.939601898,-0.9206514359,0.2735062242,2024-06-11 14:01:47.107616
22.14808131,-1.413201571,-0.1813392639,-0.07449537516,2024-06-11 14:01:47.148081
22.18856204,0.9088408947,0.005645751953,-0.362852484,2024-06-11 14:01:47.188562
22.22908136,1.515896082,0.2420282364,0.282705009,2024-06-11 14:01:47.229081
22.26959256,-1.551518321,-0.2508401871,-0.9657351971,2024-06-11 14:01:47.269593
22.31006428,-2.656003475,-0.4409275055,-2.059318781,2024-06-11 14:01:47.310064
22.35047167,-0.494961977,-0.09527873993,-0.05465084314,2024-06-11 14:01:47.350472
22.39103735,1.920170784,-0.288775444,4.678854465,2024-06-11 14:01:47.391037
22.43151865,1.302950144,-0.01750946045,4.05573225,2024-06-11 14:01:47.431519
22.47197974,2.686674833,2.125532627,2.165305138,2024-06-11 14:01:47.471980
22.5124311,-3.284838676,-0.1541852951,2.328804016,2024-06-11 14:01:47.512431
22.55292105,-2.406907082,0.4348220825,0.7285628319,2024-06-11 14:01:47.552921
22.5933774,1.989295006,-0.4443278313,0.01349067688,2024-06-11 14:01:47.593377
22.63386026,3.6289258,-1.384655476,-5.667089462,2024-06-11 14:01:47.633860
22.6743412,1.399691105,5.767558575,2.454034328,2024-06-11 14:01:47.674341
22.71481558,-1.492465973,2.159907341,-3.299188614,2024-06-11 14:01:47.714816
22.75530907,4.58987093,0.8388872147,7.894181728,2024-06-11 14:01:47.755309
22.79581308,0.3275508881,-5.558182716,-6.919090748,2024-06-11 14:01:47.795813
22.83628891,2.945287228,-0.3019299507,2.078689337,2024-06-11 14:01:47.836289
22.87675761,-1.866238356,-2.769390106,-6.395044327,2024-06-11 14:01:47.876758
22.9172161,-1.001921654,-2.004683495,0.3390734196,2024-06-11 14:01:47.917216
22.95770787,-2.884532213,0.9761343002,-1.380693436,2024-06-11 14:01:47.957708
22.99820365,-1.876058936,0.7467737198,-1.420987487,2024-06-11 14:01:47.998204
23.03868495,-0.6669385433,1.549641132,2.288383007,2024-06-11 14:01:48.038685
23.07915735,-1.069549561,0.1032524109,6.098195076,2024-06-11 14:01:48.079157
23.11963995,-3.323368549,-1.521404266,0.6484856606,2024-06-11 14:01:48.119640
23.16011808,-0.6967225075,-1.178884506,-1.403557539,2024-06-11 14:01:48.160118
23.20056995,-1.850532174,-1.946214676,1.029959798,2024-06-11 14:01:48.200570
23.24101875,-3.329285145,-1.521635056,0.3234462738,2024-06-11 14:01:48.241019
23.28149355,0.3005058765,1.860538006,-1.959491253,2024-06-11 14:01:48.281494
23.32200313,3.607009888,1.797591209,-1.135872006,2024-06-11 14:01:48.322003
23.36250828,3.006292343,0.7307834625,2.047734737,2024-06-11 14:01:48.362508
23.40298052,-1.465559721,-1.176549911,1.250941753,2024-06-11 14:01:48.402981
23.44347646,-2.981649637,-0.9558439255,2.106839657,2024-06-11 14:01:48.443476
23.4839537,-1.006700754,-0.290353775,-0.1555804312,2024-06-11 14:01:48.483954
23.52443313,-0.6320748329,-0.3270769119,0.373192817,2024-06-11 14:01:48.524433
23.56491162,-0.1448354721,-0.1954479218,0.01871779561,2024-06-11 14:01:48.564912
23.60539506,-0.08663058281,0.8198080063,-0.5328859687,2024-06-11 14:01:48.605395
23.6458649,-1.064231157,0.4594573975,0.001739934087,2024-06-11 14:01:48.645865
23.686355,-1.09998703,-0.9860868454,-1.64517355,2024-06-11 14:01:48.686355
23.72684162,-0.9093916416,-1.511582375,-2.529853582,2024-06-11 14:01:48.726842
23.76730615,-1.737483859,-0.2207546234,-2.206049442,2024-06-11 14:01:48.767306
23.80779808,-0.3788256645,0.1462516785,-2.582492828,2024-06-11 14:01:48.807798
23.84828766,2.653886795,0.4261932373,-2.340704918,2024-06-11 14:01:48.848288
23.88876459,2.849056005,0.7461614609,-1.053110719,2024-06-11 14:01:48.888765
23.92922917,1.433220387,0.9582095146,-0.818018496,2024-06-11 14:01:48.929229
23.96973875,-0.9784965515,-0.06445503235,-0.4881475568,2024-06-11 14:01:48.969739
24.01020912,-1.296355963,-0.28120327,0.612860322,2024-06-11 14:01:49.010209
24.05064365,0.7084794044,0.04040145874,3.139417171,2024-06-11 14:01:49.050644
24.09110808,2.176693439,-0.2741985321,3.78231883,2024-06-11 14:01:49.091108
24.13163209,-0.04057693481,1.156585217,0.2189978361,2024-06-11 14:01:49.131632
24.17211266,-0.1516649723,1.028000355,-1.655733109,2024-06-11 14:01:49.172113
24.21258401,0.4555211067,1.30382061,-3.198649645,2024-06-11 14:01:49.212584
24.25308058,1.300404787,0.7819156647,-3.576041937,2024-06-11 14:01:49.253081
24.29358271,2.936877728,0.5082063675,-3.722004414,2024-06-11 14:01:49.293583
24.33402875,2.809212685,1.419622421,-2.531261444,2024-06-11 14:01:49.334029
24.37452047,3.006744862,-0.3144903183,-1.173567414,2024-06-11 14:01:49.374520
24.415025,2.465075254,-2.039757729,-0.6053384542,2024-06-11 14:01:49.415025
24.4554662,-0.1895191669,-1.165261269,-0.9300191402,2024-06-11 14:01:49.455466
24.49595339,-2.157566547,-2.17638588,-1.669374228,2024-06-11 14:01:49.495953
24.53644428,-1.097182512,-3.274492264,16.33990288,2024-06-11 14:01:49.536444
24.57694886,0.4527745247,-1.831804276,1.667044878,2024-06-11 14:01:49.576949
24.61741886,-0.6127111912,0.9490060806,2.374444008,2024-06-11 14:01:49.617419
24.65788813,-1.023275375,0.2388849258,0.8457039595,2024-06-11 14:01:49.657888
24.69837318,-0.5869984627,-0.71281147,-1.874364972,2024-06-11 14:01:49.698373
24.73884032,-1.851492643,-0.3730335236,1.478671193,2024-06-11 14:01:49.738840
24.77930219,-1.382282019,0.6615695953,-0.6508425474,2024-06-11 14:01:49.779302
24.81981459,-1.353179693,-0.1798038483,-1.287271976,2024-06-11 14:01:49.819815
24.86023761,-1.202412605,-1.545416832,-0.8898984194,2024-06-11 14:01:49.860238
24.90071782,-0.3804085255,-1.077395439,-1.643939734,2024-06-11 14:01:49.900718
24.94120625,2.158635378,-0.0829372406,0.2219214439,2024-06-11 14:01:49.941206
24.9816861,0.03519368172,-1.036232948,-1.415147781,2024-06-11 14:01:49.981686
25.02219646,0.6755661964,-0.8933734894,-2.696173429,2024-06-11 14:01:50.022196
25.06267459,0.230036974,2.200600624,-3.287924528,2024-06-11 14:01:50.062675
25.10315443,-0.4282495975,3.495615005,-2.926130772,2024-06-11 14:01:50.103154
25.14365105,-3.137310982,2.109848022,-3.427281857,2024-06-11 14:01:50.143651
25.18413224,-6.996671677,-3.246004105,0.6392469406,2024-06-11 14:01:50.184132
25.22461261,-0.5640702248,-1.232206345,5.441583633,2024-06-11 14:01:50.224613
25.26507657,1.836587667,0.6577415466,1.355748892,2024-06-11 14:01:50.265077
25.30555891,2.200842381,-0.2159929276,0.6844172478,2024-06-11 14:01:50.305559
25.34602245,0.9008243084,0.0225315094,1.772738934,2024-06-11 14:01:50.346022
25.38652209,0.0625576973,1.076586723,0.1578068733,2024-06-11 14:01:50.386522
25.42704683,-0.8353543282,0.836265564,0.543769598,2024-06-11 14:01:50.427047
25.46748401,-0.2091619968,-0.130645752,0.3384590149,2024-06-11 14:01:50.467484
25.50798125,0.8683497906,0.6801786423,1.800043821,2024-06-11 14:01:50.507981
25.54844355,0.5473299026,0.7313928604,1.696735859,2024-06-11 14:01:50.548444
25.58894776,0.889465332,0.04121017456,1.494516373,2024-06-11 14:01:50.588948
25.62943125,1.358372211,0.920003891,1.855699778,2024-06-11 14:01:50.629431
25.66993323,0.4615607262,1.437791824,0.4939045906,2024-06-11 14:01:50.669933
25.71042339,-1.175546169,1.415739536,-0.5691514015,2024-06-11 14:01:50.710423
25.75090386,-1.380674601,1.167649269,-0.1138188839,2024-06-11 14:01:50.750904
25.79138433,-1.321988583,0.4725923538,0.4067537785,2024-06-11 14:01:50.791384
25.8318648,2.2267313,0.6390142441,0.1362016201,2024-06-11 14:01:50.831865
25.87232386,2.655082226,-0.4597024918,-0.4563856125,2024-06-11 14:01:50.872324
25.9127599,3.007126808,-0.9790525436,2.568243027,2024-06-11 14:01:50.912760
25.95325178,1.889802456,-1.408596039,0.2975441217,2024-06-11 14:01:50.953252
25.99374558,-2.853982449,1.424546719,-2.509412289,2024-06-11 14:01:50.993746
26.03419443,-2.996361732,-0.2125835419,-2.202564478,2024-06-11 14:01:51.034194
26.07465271,-2.702927351,-2.789527893,-0.00973880291,2024-06-11 14:01:51.074653
26.11514516,-0.893748045,-0.1732444763,-1.830020785,2024-06-11 14:01:51.115145
26.15567917,1.594102859,0.505941391,-0.2881168127,2024-06-11 14:01:51.155679
26.19614172,2.094157696,0.3514709473,0.9655139446,2024-06-11 14:01:51.196142
26.23662922,1.371598244,0.03465557098,1.435174346,2024-06-11 14:01:51.236629
26.2770874,3.0404284,0.4792098999,0.3971843719,2024-06-11 14:01:51.277087
26.31756667,7.428371429,2.629345417,-3.914763689,2024-06-11 14:01:51.317567
26.3580386,3.47386837,-2.777421474,2.114158154,2024-06-11 14:01:51.358039
26.39853907,-5.405568123,-3.334074974,-5.901811123,2024-06-11 14:01:51.398539
26.43903792,-7.314610481,4.073135376,-7.126808167,2024-06-11 14:01:51.439038
26.4794999,-6.809936523,6.314161301,2.31367445,2024-06-11 14:01:51.479500
26.52000433,2.397638321,-10.71775055,2.989642143,2024-06-11 14:01:51.520004
26.56046136,-0.7375707626,-6.809541702,-1.35201931,2024-06-11 14:01:51.560461
26.60092578,4.519879818,2.659836292,-6.090723038,2024-06-11 14:01:51.600926
26.6413761,1.310429573,-2.342174053,0.2932238579,2024-06-11 14:01:51.641376
26.68187073,-2.298517704,-2.198093414,-1.841574669,2024-06-11 14:01:51.681871
26.7223862,0.3777384758,1.192444801,-2.385778904,2024-06-11 14:01:51.722386
26.76285344,3.152008057,1.824234486,1.06790781,2024-06-11 14:01:51.762853
26.80332813,-0.6614880562,0.7155704498,1.971022129,2024-06-11 14:01:51.803328
26.84381261,-3.36461091,0.7907471657,0.3999557495,2024-06-11 14:01:51.843813
26.88431287,-0.6400260925,0.1581077576,0.02995729446,2024-06-11 14:01:51.884313
26.92479006,0.9169869423,-0.7353076935,-1.783546686,2024-06-11 14:01:51.924790
26.96525881,2.642507553,1.588057518,-2.92762804,2024-06-11 14:01:51.965259
27.00573829,3.99673152,-0.2139015198,-1.480068445,2024-06-11 14:01:52.005738
27.04623552,2.082920551,-2.33998394,4.81701088,2024-06-11 14:01:52.046236
27.08667146,2.439592838,-2.911732674,7.34417963,2024-06-11 14:01:52.086671
27.12720011,1.362808943,-2.201998711,1.615654469,2024-06-11 14:01:52.127200
27.16767308,-1.189060926,1.604981422,-1.322739601,2024-06-11 14:01:52.167673
27.20815917,-3.327510118,1.984038353,-2.651742458,2024-06-11 14:01:52.208159
27.24864271,-2.605802536,1.415755749,-3.520736694,2024-06-11 14:01:52.248643
27.28909678,-1.276639938,1.679277897,-3.294382095,2024-06-11 14:01:52.289097
27.32956547,-0.4547336102,2.153302193,-0.9996602535,2024-06-11 14:01:52.329565
27.37005256,-1.072556973,1.352615356,-1.459126711,2024-06-11 14:01:52.370053
27.41049886,-0.5333857536,-0.8590717316,-1.047937393,2024-06-11 14:01:52.410499
27.45096037,1.158937216,-2.500593185,2.294633865,2024-06-11 14:01:52.450960
27.49145021,2.449232817,-1.339478493,6.183039665,2024-06-11 14:01:52.491450
27.53195271,2.026784182,-0.1393451691,4.034096718,2024-06-11 14:01:52.531953
27.57248438,3.221169472,-0.701505661,2.105914116,2024-06-11 14:01:52.572484
27.61295422,0.9036521912,-0.9563341141,3.675482273,2024-06-11 14:01:52.612954
27.65342875,-1.839811444,-1.09343338,1.502835751,2024-06-11 14:01:52.653429
27.69391886,-2.34015131,-1.626387596,-0.1366926432,2024-06-11 14:01:52.693919
27.73439506,-2.258088827,0.06040477753,-0.138656497,2024-06-11 14:01:52.734395
27.77484443,-1.818742394,0.7086734772,0.1750061512,2024-06-11 14:01:52.774844
27.81533943,1.903612375,-1.361686707,-1.15884316,2024-06-11 14:01:52.815339
27.85581917,1.814907789,-1.094416618,6.747279167,2024-06-11 14:01:52.855819
27.89636287,-0.3931729794,-0.2197313309,2.225941181,2024-06-11 14:01:52.896363
27.93679407,-0.8672888279,-0.5009441376,1.793251157,2024-06-11 14:01:52.936794
27.97728339,2.049881697,1.190628052,5.403250217,2024-06-11 14:01:52.977283
28.01780136,4.182474136,3.486097813,4.721962929,2024-06-11 14:01:53.017801
28.05823141,9.041745186,1.446802139,-2.077389479,2024-06-11 14:01:53.058231
28.09871183,2.469556808,-8.358019829,-3.166851997,2024-06-11 14:01:53.098712
28.13921349,-5.088850975,-5.560647011,-10.96257019,2024-06-11 14:01:53.139213
28.17972204,-4.727706432,0.256070137,-4.044957161,2024-06-11 14:01:53.179722
28.22020151,0.5740528107,4.89345932,-2.954590321,2024-06-11 14:01:53.220202
28.26059198,6.40420723,3.243122578,-3.45203495,2024-06-11 14:01:53.260592
28.30107235,4.563769341,-6.274414539,6.029876709,2024-06-11 14:01:53.301072
28.3415836,-1.11248827,-8.104791641,0.2272460461,2024-06-11 14:01:53.341584
28.38206401,-1.682776928,-0.4358091354,-2.808897257,2024-06-11 14:01:53.382064
28.42254329,-0.4247252941,3.214715004,-5.751901627,2024-06-11 14:01:53.422543
28.4630673,3.577565193,0.5729799271,1.707020283,2024-06-11 14:01:53.463067
28.50351974,-2.082725525,-1.763020515,3.324836969,2024-06-11 14:01:53.503520
28.54400678,-5.095031738,0.5259943008,0.6692678928,2024-06-11 14:01:53.544007
28.58450896,-5.374155521,-0.4628334045,-1.059637785,2024-06-11 14:01:53.584509
28.6249899,-4.883377552,-2.654307365,-0.2164051533,2024-06-11 14:01:53.624990
28.66546526,-2.73134017,-1.170384407,0.1235439777,2024-06-11 14:01:53.665465
28.70595506,0.512629509,0.6378364563,0.4367011786,2024-06-11 14:01:53.705955
28.74639631,-0.4392194748,0.5547266006,-0.06791222095,2024-06-11 14:01:53.746396
28.78688422,-1.4184196,-0.02272987366,-0.2663750648,2024-06-11 14:01:53.786884
28.82736219,-2.284002781,-1.505973816,1.340138316,2024-06-11 14:01:53.827362
28.86782787,-2.090322495,-2.759234428,2.189783573,2024-06-11 14:01:53.867828
28.90831547,4.011716366,-1.40639782,4.68000555,2024-06-11 14:01:53.908315
28.94879714,5.423515797,-0.5351648331,4.432363987,2024-06-11 14:01:53.948797
28.98928047,2.423947811,1.205892563,-1.512547255,2024-06-11 14:01:53.989280
29.02980407,-0.7843747139,3.169582844,-6.357882977,2024-06-11 14:01:54.029804
29.07029464,-2.787441254,1.166924477,-2.073683977,2024-06-11 14:01:54.070295
29.11065469,-1.515397549,-1.55112648,-1.989880562,2024-06-11 14:01:54.110655
29.15113391,-0.7460002899,0.0851764679,-1.021521807,2024-06-11 14:01:54.151134
29.19167058,-0.03105831146,1.725953579,-0.7665174007,2024-06-11 14:01:54.191671
29.23214881,0.8952517509,0.8214426041,0.7260272503,2024-06-11 14:01:54.232149
29.27263422,2.76167345,2.315355778,3.004585266,2024-06-11 14:01:54.272634
29.31313099,1.356866598,3.341933727,1.211170435,2024-06-11 14:01:54.313131
29.35361511,0.2277519703,-0.1468286514,3.010256052,2024-06-11 14:01:54.353615
29.3940874,-0.2395641804,-2.64217186,2.800360918,2024-06-11 14:01:54.394087
29.43455323,1.670655489,-1.043774605,0.1489379406,2024-06-11 14:01:54.434553
29.47505292,3.993299007,-1.412322044,-3.368280411,2024-06-11 14:01:54.475053
29.51553224,2.007719755,-0.3262662888,-0.4235737324,2024-06-11 14:01:54.515532
29.55599594,-0.6787230968,3.145440102,-5.724001884,2024-06-11 14:01:54.555996
29.59646094,0.2400877476,2.548627377,-1.456494808,2024-06-11 14:01:54.596461
29.6369936,1.701411247,-1.43612957,-1.291762114,2024-06-11 14:01:54.636994
29.67746922,-1.767143846,-1.821221352,-1.218822479,2024-06-11 14:01:54.677469
29.71793094,0.03118085861,-0.0726776123,0.5555251837,2024-06-11 14:01:54.717931
29.75839672,0.06579494476,-0.5344552994,1.202198148,2024-06-11 14:01:54.758397
29.79889011,-0.5035150051,-0.1102609634,0.09454274178,2024-06-11 14:01:54.798890
29.83940198,-1.581930041,-0.5473022461,-0.9629375935,2024-06-11 14:01:54.839402
29.87988308,-1.053414106,0.7767744064,-1.514624953,2024-06-11 14:01:54.879883
29.92034381,0.3438825607,0.4326295853,-1.130325079,2024-06-11 14:01:54.920344
29.96078381,0.6046934128,0.3009090424,0.5094914436,2024-06-11 14:01:54.960784
30.00125928,-0.5876028538,-0.1086502075,0.4060244262,2024-06-11 14:01:55.001259
30.04172917,-1.736606717,-0.5123939514,-0.01282664388,2024-06-11 14:01:55.041729
30.08219391,-1.277611971,0.1569404602,-0.09352973104,2024-06-11 14:01:55.082194
30.12272292,0.1307697296,0.4549531937,1.207272887,2024-06-11 14:01:55.122723
30.16322245,-0.4468095303,-0.1965866089,3.039287806,2024-06-11 14:01:55.163222
30.20368318,-1.843377948,-0.5026512146,0.6061086655,2024-06-11 14:01:55.203683
30.24417313,-1.689548254,-0.7677469254,0.7135428786,2024-06-11 14:01:55.244173
30.28466454,-0.7945866585,-0.3140354156,1.940096378,2024-06-11 14:01:55.284665
30.32511302,-1.011573792,-0.1226043701,3.122328997,2024-06-11 14:01:55.325113
30.36559521,-1.014394045,-2.41679287,0.5215166211,2024-06-11 14:01:55.365595
30.40610646,1.945462465,-2.951071739,-0.9674692154,2024-06-11 14:01:55.406106
30.44659672,6.88996172,-0.2988586426,3.212420702,2024-06-11 14:01:55.446597
30.48707053,6.895131111,1.500092506,2.082728863,2024-06-11 14:01:55.487071
30.52753599,3.964652777,0.916261673,-2.463475943,2024-06-11 14:01:55.527536
30.56802287,-0.9174556732,-1.00711441,-5.162589073,2024-06-11 14:01:55.568023
30.6085149,-1.846499205,-2.884469032,-8.284438133,2024-06-11 14:01:55.608515
30.64899943,-3.452157497,-0.8223524094,-3.488542318,2024-06-11 14:01:55.648999
30.68947052,-2.692599297,0.9845571518,0.1423034668,2024-06-11 14:01:55.689471
30.72996886,-1.459014416,0.7858543396,-2.765993834,2024-06-11 14:01:55.729969
30.77046094,0.8980984688,0.7615613937,-2.18141818,2024-06-11 14:01:55.770461
30.81088063,3.671582699,1.086553574,0.09229707718,2024-06-11 14:01:55.810881
30.85133084,4.153995037,1.933677197,2.69505167,2024-06-11 14:01:55.851331
30.89181157,1.142486572,1.238229275,1.018538475,2024-06-11 14:01:55.891812
30.9323049,-0.6952080727,-0.2287006378,2.34619236,2024-06-11 14:01:55.932305
30.9728162,-0.1416666508,-1.184939384,0.9665009975,2024-06-11 14:01:55.972816
31.01327625,0.02561497688,-1.345197678,-2.975260735,2024-06-11 14:01:56.013276
31.05378105,-0.6968514919,-0.7703714371,-0.2588553429,2024-06-11 14:01:56.053781
31.09419219,-1.612565994,1.068637848,-3.572432041,2024-06-11 14:01:56.094192
31.13473657,-0.4892923832,2.531522751,-2.946846962,2024-06-11 14:01:56.134737
31.1752187,6.248892784,-2.353917122,7.786441803,2024-06-11 14:01:56.175219
31.21571412,-0.5539445877,0.9587802887,-3.616743326,2024-06-11 14:01:56.215714
31.25620115,-2.518265247,-0.7052364349,-7.40460825,2024-06-11 14:01:56.256201
31.29665089,-3.026998997,-3.81949234,-0.8481316566,2024-06-11 14:01:56.296651
31.33713089,-1.193963051,-2.234390259,-1.970009208,2024-06-11 14:01:56.337131
31.37759448,2.584920406,0.03077316284,0.77870965,2024-06-11 14:01:56.377594
31.41811907,-1.705731869,-0.2539644241,-0.7420027256,2024-06-11 14:01:56.418119
31.4585649,-2.481173992,-2.865386009,-0.13844347,2024-06-11 14:01:56.458565
31.49907073,-1.096431732,-0.8028745651,-1.148177147,2024-06-11 14:01:56.499071
31.53958428,0.09201049805,-0.909116745,-0.2587161064,2024-06-11 14:01:56.539584
31.58006261,-0.9079475403,-1.460554123,-1.391396761,2024-06-11 14:01:56.580063
31.62045131,0.5042154789,-0.2332801819,-2.607768774,2024-06-11 14:01:56.620451
31.66094797,0.6290104389,0.2824192047,-3.603723526,2024-06-11 14:01:56.660948
31.70142771,0.3607304096,-1.114840508,-4.54485321,2024-06-11 14:01:56.701428
31.7419074,2.236028671,-0.6344881058,-4.90332365,2024-06-11 14:01:56.741907
31.7824299,3.041629314,0.6237435341,-0.5989272594,2024-06-11 14:01:56.782430
31.82289214,1.079137802,3.030840397,2.599427938,2024-06-11 14:01:56.822892
31.86337183,2.503202915,2.215183735,6.902508736,2024-06-11 14:01:56.863372
31.90386042,-1.228351355,-1.769558907,1.16251111,2024-06-11 14:01:56.903860
31.94434261,-1.389924288,-0.1269855499,-1.270761013,2024-06-11 14:01:56.944343
31.98483219,-0.2477040291,0.8939156532,-1.245577693,2024-06-11 14:01:56.984832
32.0253586,-0.3320224285,2.069911003,-3.026396513,2024-06-11 14:01:57.025359
32.06577183,1.350815773,2.563141823,-1.697077274,2024-06-11 14:01:57.065772
32.10623287,2.850664377,2.364132881,-1.517762303,2024-06-11 14:01:57.106233
32.14675401,3.321024656,2.003278255,-2.045299292,2024-06-11 14:01:57.146754
32.18722073,3.050751686,0.500711441,-0.9079362154,2024-06-11 14:01:57.187221
32.22774506,2.376268625,-0.4646062851,1.25706172,2024-06-11 14:01:57.227745
32.26818917,5.083906174,-3.58019352,0.8811294436,2024-06-11 14:01:57.268189
32.30866584,6.918467999,-5.552769661,3.043399334,2024-06-11 14:01:57.308666
32.34911948,-1.288952351,-0.734462738,8.387453079,2024-06-11 14:01:57.349119
32.38962053,-5.106387138,-0.1834468842,2.8159163,2024-06-11 14:01:57.389621
32.43014401,-5.659706116,-0.2088308334,-1.501630068,2024-06-11 14:01:57.430144
32.47054412,-2.538051128,-1.817425728,-2.134423018,2024-06-11 14:01:57.470544
32.51102438,-0.5571303368,-0.1121339798,2.899690151,2024-06-11 14:01:57.511024
32.55153125,0.3547544479,0.409075737,3.330921173,2024-06-11 14:01:57.551531
32.59201151,-1.570286155,-0.1141471863,0.580737114,2024-06-11 14:01:57.592012
32.6325012,-1.021002531,0.2017478943,2.418530941,2024-06-11 14:01:57.632501
32.67299735,1.529883862,0.7112607956,-0.2709749341,2024-06-11 14:01:57.672997
32.71347605,4.200744629,0.9766530991,-0.01104462147,2024-06-11 14:01:57.713476
32.75396318,4.933735371,-0.5615110397,-4.977038383,2024-06-11 14:01:57.753963
32.79445834,5.453184128,-1.827170372,0.5844018459,2024-06-11 14:01:57.794458
32.83497516,1.228610992,-2.538550854,9.421192169,2024-06-11 14:01:57.834975
32.87539,-6.994299412,0.5685567856,-5.42357254,2024-06-11 14:01:57.875390
32.9158774,-4.494967937,5.993861675,-4.553529739,2024-06-11 14:01:57.915877
32.95635386,-0.5628519058,3.329995632,1.281905174,2024-06-11 14:01:57.956354
32.99682761,-4.183118343,-0.7467722893,-0.363765955,2024-06-11 14:01:57.996828
33.03731881,1.145765305,2.90625906,0.8498175144,2024-06-11 14:01:58.037319
33.07778261,6.617759705,3.744756699,1.402351618,2024-06-11 14:01:58.077783
33.11827943,7.866235733,3.9064219,1.526297092,2024-06-11 14:01:58.118279
33.15878375,-3.078928471,-1.15422821,-0.2814809084,2024-06-11 14:01:58.158784
33.19925178,-2.003064156,-4.518941879,0.1585913897,2024-06-11 14:01:58.199252
33.2397562,2.343640804,-8.016448975,-2.01539588,2024-06-11 14:01:58.239756
33.28023516,-5.782701015,1.356953144,0.9695334435,2024-06-11 14:01:58.280235
33.32065136,0.4168171883,-4.840854645,-4.75478363,2024-06-11 14:01:58.320651
33.36112084,-0.692065239,-3.882973671,-6.202266693,2024-06-11 14:01:58.361121
33.40159568,-2.557587624,1.670250893,-1.437613249,2024-06-11 14:01:58.401596
33.44211063,-4.457910061,-2.548569679,5.944003105,2024-06-11 14:01:58.442111
33.48261011,-3.532853127,0.6592731476,-0.6832125187,2024-06-11 14:01:58.482610
33.52308511,-2.236974239,-0.6606197357,0.7031035423,2024-06-11 14:01:58.523085
33.56355355,-2.637840748,0.1454267502,1.332597733,2024-06-11 14:01:58.563554
33.60402985,-0.3671355247,-0.1877698898,4.457361221,2024-06-11 14:01:58.604030
33.64451318,3.082108259,-0.5158901215,4.000275612,2024-06-11 14:01:58.644513
33.6850236,4.542442322,2.285693169,-2.476838589,2024-06-11 14:01:58.685024
33.7255224,3.322865486,2.669726372,-2.977548838,2024-06-11 14:01:58.725522
33.765985,-0.1822252274,-0.3287930489,-1.522542477,2024-06-11 14:01:58.765985
33.80647808,-4.130311966,-0.9576416016,0.06266927719,2024-06-11 14:01:58.806478
33.84697016,-0.7775266171,2.348814964,0.4977812767,2024-06-11 14:01:58.846970
33.88742016,-0.4368333817,5.143470287,2.863049507,2024-06-11 14:01:58.887420
33.92789224,5.577570915,9.321678162,3.434592247,2024-06-11 14:01:58.927892
33.96837266,3.056298256,2.902812481,-4.049322605,2024-06-11 14:01:58.968373
34.00886412,0.5158479214,-6.144990444,-2.718178749,2024-06-11 14:01:59.008864
34.04933052,2.993494511,-9.578298569,-8.240808487,2024-06-11 14:01:59.049331
34.0898011,12.90809631,-13.42103195,-9.496478081,2024-06-11 14:01:59.089801
34.13025995,7.528553963,-12.10650349,2.851095915,2024-06-11 14:01:59.130260
34.17072985,6.69918251,-0.1611452103,0.4302425385,2024-06-11 14:01:59.170730
34.21121078,2.206495047,9.885019302,11.26790905,2024-06-11 14:01:59.211211
34.25168714,-0.7422813177,6.709152699,0.3107643127,2024-06-11 14:01:59.251687
34.29222011,1.809403062,9.267738342,-5.073791981,2024-06-11 14:01:59.292220
34.33270443,2.201953888,10.34683228,-6.188102722,2024-06-11 14:01:59.332704
34.37318183,4.864473343,8.67195034,-7.607093334,2024-06-11 14:01:59.373182
34.4136523,4.562534809,0.6000375748,-14.02580357,2024-06-11 14:01:59.413652
34.45411959,6.331825733,-19.86574936,19.81945038,2024-06-11 14:01:59.454120
34.49463401,-2.561115265,-5.110044956,2.39114666,2024-06-11 14:01:59.494634
34.5350761,6.908385277,4.115138531,2.584254026,2024-06-11 14:01:59.535076
34.57559454,5.401091099,2.691624165,-2.79583025,2024-06-11 14:01:59.575595
34.61607381,-1.936920166,3.215533257,-6.467427254,2024-06-11 14:01:59.616074
34.65651532,-6.453250885,2.350356579,-6.978700161,2024-06-11 14:01:59.656515
34.69705485,-2.381318569,-7.578227043,-6.551414013,2024-06-11 14:01:59.697055
34.73749875,-2.288559437,-10.4613142,-8.791223526,2024-06-11 14:01:59.737499
34.7779911,-3.123085976,-0.6380186081,-4.341090679,2024-06-11 14:01:59.777991
34.81847849,-2.925992012,0.5704650879,-5.007554054,2024-06-11 14:01:59.818478
34.85890219,-2.634418249,-2.013778687,13.54761696,2024-06-11 14:01:59.858902
34.89946526,-3.268484116,1.865890026,3.06304884,2024-06-11 14:01:59.899465
34.93995537,-4.261554718,1.553164959,1.671055436,2024-06-11 14:01:59.939955
34.9803561,-0.5886434317,-0.6005563736,5.742902756,2024-06-11 14:01:59.980356
35.02081146,2.095226765,-4.062407494,14.77705193,2024-06-11 14:02:00.020811
35.06128714,0.7809920311,-1.857471466,6.471673012,2024-06-11 14:02:00.061287
35.10176683,-2.585811615,-0.1733627319,4.330386162,2024-06-11 14:02:00.101767
35.1422987,1.189812899,-2.968225479,7.141004562,2024-06-11 14:02:00.142299
35.18277896,8.113694191,-11.70787144,2.518903494,2024-06-11 14:02:00.182779
35.22325355,12.43391609,-19.55764198,0.4570884705,2024-06-11 14:02:00.223254
35.26372912,1.023695707,-1.781570435,-4.027261257,2024-06-11 14:02:00.263729
35.30422594,-5.284222603,2.524746418,-6.039374352,2024-06-11 14:02:00.304226
35.34474235,-2.658646584,3.964405537,-7.829707146,2024-06-11 14:02:00.344742
35.38518459,-1.668613791,6.007873058,-10.76657104,2024-06-11 14:02:00.385185
35.42567454,-3.830447674,7.402561188,-6.974070549,2024-06-11 14:02:00.425675
35.46616834,-0.6627361774,6.979344368,29.19791794,2024-06-11 14:02:00.466168
35.5066225,-4.456889629,5.127521992,-18.040205,2024-06-11 14:02:00.506622
35.54711235,10.92979908,-3.098064423,-10.35110474,2024-06-11 14:02:00.547112
35.5876112,7.890207291,-6.759038925,-14.52176094,2024-06-11 14:02:00.587611
35.62808188,7.00075531,-2.894648552,-5.904549599,2024-06-11 14:02:00.628082
35.66854912,3.319801331,-17.40407562,-12.95208073,2024-06-11 14:02:00.668549
35.7090611,-2.93763566,-18.43548965,32.83230209,2024-06-11 14:02:00.709061
35.74952037,1.006941795,-1.618635178,16.07416916,2024-06-11 14:02:00.749520
35.79001776,-3.146438599,2.761489391,5.335399628,2024-06-11 14:02:00.790018
35.83046047,-5.58524704,6.852519035,3.47029686,2024-06-11 14:02:00.830460
35.87094089,-4.833705902,8.442071915,1.102902412,2024-06-11 14:02:00.870941
35.91138724,-3.242320538,9.760101318,0.5704538226,2024-06-11 14:02:00.911387
35.95190026,-2.908670664,8.798668861,0.5553099513,2024-06-11 14:02:00.951900
35.99238745,3.34717536,-9.13188076,-3.901602745,2024-06-11 14:02:00.992387
36.03286454,21.67428589,-31.19386673,-3.541041851,2024-06-11 14:02:01.032865
36.07331881,-0.4472157955,-6.038871765,8.751670837,2024-06-11 14:02:01.073319
36.11379745,-2.178066254,1.592373371,-9.295524597,2024-06-11 14:02:01.113797
36.15433068,-0.7704339027,5.799460411,-10.49519825,2024-06-11 14:02:01.154331
36.19482662,-1.385807991,8.959042549,-5.494305134,2024-06-11 14:02:01.194827
36.23530323,-2.254263163,11.02078629,11.54977226,2024-06-11 14:02:01.235303
36.27575396,-1.263375044,5.713675022,3.593557835,2024-06-11 14:02:01.275754
36.31622282,-4.749815464,6.555850506,-8.202684402,2024-06-11 14:02:01.316223
36.35670495,-2.283859491,3.850530624,-3.893556595,2024-06-11 14:02:01.356705
36.39719355,21.43281746,-21.13156128,-13.86934376,2024-06-11 14:02:01.397194
36.43769224,3.157642841,-11.46445179,-13.84131241,2024-06-11 14:02:01.437692
36.47818204,-7.336653709,-3.065213203,1.670263529,2024-06-11 14:02:01.478182
36.51866026,-5.142506599,-3.469837189,4.326066494,2024-06-11 14:02:01.518660
36.55912537,0.3666851521,-1.274652481,0.6631410122,2024-06-11 14:02:01.559125
36.59960469,2.558537006,2.333102703,7.983108997,2024-06-11 14:02:01.599605
36.64010308,0.9519314766,3.765695572,4.646011353,2024-06-11 14:02:01.640103
36.68054011,-0.271232605,6.692785263,6.648093224,2024-06-11 14:02:01.680540
36.72100901,-0.7673789263,4.935016632,4.623332977,2024-06-11 14:02:01.721009
36.76146683,-2.807461023,0.04705905914,5.273100853,2024-06-11 14:02:01.761467
36.80196818,-4.418855667,-3.626367569,-0.6082522273,2024-06-11 14:02:01.801968
36.84245891,0.2340464592,-8.735894203,-2.143863916,2024-06-11 14:02:01.842459
36.8829511,7.898187637,-10.54957199,-0.1074882746,2024-06-11 14:02:01.882951
36.9234461,6.74038744,-5.818092346,-1.975060701,2024-06-11 14:02:01.923446
36.96391323,1.831582308,0.3281974792,-5.001513481,2024-06-11 14:02:01.963913
37.00439907,-0.9850564003,2.013258457,-7.448638916,2024-06-11 14:02:02.004399
37.0449024,-1.615354657,3.708108425,-7.95297718,2024-06-11 14:02:02.044902
37.08530662,-1.984616876,4.255204678,-2.377209663,2024-06-11 14:02:02.085307
37.12582901,-3.221071243,2.795306206,-2.598991632,2024-06-11 14:02:02.125829
37.16633724,0.1862902641,0.05369949341,4.524413109,2024-06-11 14:02:02.166337
37.20682662,0.9272270203,0.8401312828,-0.2509236336,2024-06-11 14:02:02.206827
37.24729641,-1.454714298,3.642861366,-2.084266186,2024-06-11 14:02:02.247296
37.28776709,0.07947635651,-0.0127863884,0.7898774147,2024-06-11 14:02:02.287767
37.32821417,-3.274481773,-3.908151627,-3.797186852,2024-06-11 14:02:02.328214
37.36870224,2.634343624,-9.817533493,-8.43927002,2024-06-11 14:02:02.368702
37.40921917,3.127700806,-5.951767921,-8.610534668,2024-06-11 14:02:02.409219
37.44973381,4.768265724,0.4478654861,1.199970245,2024-06-11 14:02:02.449734
37.49019698,1.006997585,0.3167157173,1.10842371,2024-06-11 14:02:02.490197
37.53063526,0.3890123367,7.794597149,2.451004982,2024-06-11 14:02:02.530635
37.57109219,-2.805250645,0.2120294571,3.714740753,2024-06-11 14:02:02.571092
37.61156823,-5.496537209,-2.380696774,1.07650423,2024-06-11 14:02:02.611568
37.65204881,-4.389293671,-1.293612003,-0.3242955208,2024-06-11 14:02:02.652049
37.69255901,2.111746311,-3.608439922,1.658898354,2024-06-11 14:02:02.692559
37.73305047,-1.466522217,0.4709944725,-4.96182394,2024-06-11 14:02:02.733050
37.77354881,-0.9873657227,-3.727788448,-0.06730699539,2024-06-11 14:02:02.773549
37.81401058,1.732750893,-0.4871435165,0.3304977417,2024-06-11 14:02:02.814011
37.85449073,-2.392524242,-1.213759899,-2.812262058,2024-06-11 14:02:02.854491
37.89495547,-3.027563095,-2.763243675,0.7082543373,2024-06-11 14:02:02.894955
37.93545547,1.406671524,0.002497196198,-1.055150032,2024-06-11 14:02:02.935455
37.97597954,0.08705615997,1.165721893,-0.9040231705,2024-06-11 14:02:02.975980
38.01641547,2.30071497,-0.8116831779,0.9072914124,2024-06-11 14:02:03.016415
38.05689412,-0.6498603821,-0.9014077187,-1.192850828,2024-06-11 14:02:03.056894
38.09734344,-1.470376015,-1.037990093,-0.5138962269,2024-06-11 14:02:03.097343
38.13783344,-1.055245876,-0.7429065704,0.3249266148,2024-06-11 14:02:03.137833
38.17833683,-2.61622715,-1.38381958,0.7666771412,2024-06-11 14:02:03.178337
38.21884615,-2.672374249,-1.388229847,1.843578577,2024-06-11 14:02:03.218846
38.25929464,-2.803656101,-0.8433427811,2.606609583,2024-06-11 14:02:03.259295
38.29982058,-3.821583509,-1.268508434,-0.9158005714,2024-06-11 14:02:03.299821
38.34024578,-4.428487778,-2.095001221,-1.088665128,2024-06-11 14:02:03.340246
38.38072662,-1.559524536,-2.142184258,4.186402798,2024-06-11 14:02:03.380727
38.42120745,-1.054114342,-2.759590149,4.377772808,2024-06-11 14:02:03.421207
38.46168834,0.5405263901,-2.640672684,2.52434206,2024-06-11 14:02:03.461688
38.50215568,8.126955986,-1.142274857,1.847407222,2024-06-11 14:02:03.502156
38.54265709,-1.217190742,-0.2818956375,-0.407900691,2024-06-11 14:02:03.542657
38.58316594,-7.851336479,-2.127248764,1.686869621,2024-06-11 14:02:03.583166
38.62364678,-2.828062534,-1.682971954,-4.504146099,2024-06-11 14:02:03.623647
38.66410948,-2.703920841,0.6835203171,-6.627501488,2024-06-11 14:02:03.664109
38.70459089,-5.45650959,0.7634057999,-2.169741154,2024-06-11 14:02:03.704591
38.74506782,-4.150250435,-0.4563493729,-4.192943096,2024-06-11 14:02:03.745068
38.78556261,-2.730276585,-2.480895996,-6.451506615,2024-06-11 14:02:03.785563
38.82604339,3.18908906,-0.2623901367,-5.487915993,2024-06-11 14:02:03.826043
38.86652381,4.915722847,1.530062675,-1.940520048,2024-06-11 14:02:03.866524
38.90697391,8.921681404,0.5262069702,3.217983007,2024-06-11 14:02:03.906974
38.94752881,4.369000435,4.231559753,1.887513876,2024-06-11 14:02:03.947529
38.98793834,-5.870326519,0.3908176422,-3.426386595,2024-06-11 14:02:03.987938
39.02845334,2.381134272,-4.705311775,-3.063897133,2024-06-11 14:02:04.028453
39.06890407,7.041625023,-10.58484268,1.55648303,2024-06-11 14:02:04.068904
39.10938443,-0.4808335304,4.506532192,-9.084371567,2024-06-11 14:02:04.109384
39.1498636,-1.162057638,5.129404545,-2.739599466,2024-06-11 14:02:04.149864
39.19034719,0.1021299362,-2.597604752,-4.397628307,2024-06-11 14:02:04.190347
39.2307825,-4.661629677,-1.9366045,-5.184290409,2024-06-11 14:02:04.230782
39.27126209,-2.459664583,-0.3123407364,-1.582639456,2024-06-11 14:02:04.271262
39.31176183,5.571555614,0.3918571472,15.23389244,2024-06-11 14:02:04.311762
39.35227615,1.078478575,1.089683533,-0.8581187725,2024-06-11 14:02:04.352276
39.39276459,0.2903811932,2.939583302,0.5640195608,2024-06-11 14:02:04.392765
39.43326985,-0.4084274769,-1.585719109,0.7605271339,2024-06-11 14:02:04.433270
39.47371834,-3.400088549,-4.822756767,9.937112808,2024-06-11 14:02:04.473718
39.51419224,-2.735839367,-4.339348793,5.122161388,2024-06-11 14:02:04.514192
39.55467657,-2.92245388,-5.462776184,7.611767769,2024-06-11 14:02:04.554677
39.59516631,-2.153589487,-5.020777702,-1.411315203,2024-06-11 14:02:04.595166
39.63563209,4.342548847,-5.122247696,-2.521829605,2024-06-11 14:02:04.635632
39.67612078,4.675889492,-5.199622154,-3.041844368,2024-06-11 14:02:04.676121
39.71662891,0.8242609501,1.550704956,-5.237547874,2024-06-11 14:02:04.716629
39.75707896,-1.156969786,3.229043007,-5.937533379,2024-06-11 14:02:04.757079
39.79757204,-3.211480618,3.911533356,-8.927146912,2024-06-11 14:02:04.797572
39.8380962,-1.40955162,5.697647572,-5.712308407,2024-06-11 14:02:04.838096
39.87856016,-2.202806473,5.160896778,-7.28127861,2024-06-11 14:02:04.878560
39.91899891,-1.058060408,0.3849067688,-4.016438484,2024-06-11 14:02:04.918999
39.9594775,7.256811142,-12.58031368,25.23350906,2024-06-11 14:02:04.959477
39.99999141,2.702163696,0.8759593964,-5.356607914,2024-06-11 14:02:04.999991
40.04047823,3.391198635,2.24861145,-5.472126961,2024-06-11 14:02:05.040478
40.08095881,6.175682068,-8.748780251,-4.189082146,2024-06-11 14:02:05.080959
40.12141969,-1.954147458,2.576394558,-9.90858078,2024-06-11 14:02:05.121420
40.16188052,-3.888604879,2.156546593,-5.359189987,2024-06-11 14:02:05.161881
40.2023725,-4.066784859,-3.841525078,-3.241232872,2024-06-11 14:02:05.202373
40.24284,-4.893004894,-0.9900922775,-1.477823257,2024-06-11 14:02:05.242840
40.28333386,-2.784496307,1.731543541,3.413276196,2024-06-11 14:02:05.283334
40.32381672,1.650174856,2.232285023,4.125983715,2024-06-11 14:02:05.323817
40.36429365,3.970594645,0.643494606,4.753803253,2024-06-11 14:02:05.364294
40.40479901,3.074979067,-0.6709384918,4.653698921,2024-06-11 14:02:05.404799
40.44526573,-2.71794796,-3.732883453,7.771586418,2024-06-11 14:02:05.445266
40.48573719,-7.443892002,-5.027471542,1.176660538,2024-06-11 14:02:05.485737
40.52621933,-5.664148331,-7.171871185,8.289795876,2024-06-11 14:02:05.526219
40.56669928,-3.816362143,-5.168899536,1.335220933,2024-06-11 14:02:05.566699
40.60719245,2.10979414,-3.562904358,-4.146789551,2024-06-11 14:02:05.607192
40.64767146,10.35707188,-5.772423744,-1.270856857,2024-06-11 14:02:05.647671
40.68816438,2.054942369,-2.945232391,-6.250432491,2024-06-11 14:02:05.688164
40.7286274,0.568975687,3.913572311,-5.991575241,2024-06-11 14:02:05.728627
40.76909829,-3.322139502,4.357348442,-7.063831329,2024-06-11 14:02:05.769098
40.809605,-5.394001007,4.798246384,-6.997502804,2024-06-11 14:02:05.809605
40.85009792,-1.234742165,6.500469685,-7.190900326,2024-06-11 14:02:05.850098
40.8905786,-1.117818117,4.493645668,-7.537871361,2024-06-11 14:02:05.890579
40.93105928,4.970376968,-9.091112137,25.42071533,2024-06-11 14:02:05.931059
40.97151948,7.206125736,-5.495500565,-2.52963376,2024-06-11 14:02:05.971519
41.01202896,-0.9889025688,3.982604504,-6.059571266,2024-06-11 14:02:06.012029
41.05246542,8.300331116,-7.664931297,0.5161206722,2024-06-11 14:02:06.052465
41.0929461,1.291367769,-0.3213148117,-11.91889381,2024-06-11 14:02:06.092946
41.13342328,-2.986230135,4.257908821,-6.7858181,2024-06-11 14:02:06.133423
41.17390761,-1.622529745,-1.646535873,-3.856796265,2024-06-11 14:02:06.173908
41.21438172,-3.250847578,-3.505319595,-2.851645231,2024-06-11 14:02:06.214382
41.25484605,-3.530337572,1.222835541,-1.7040838,2024-06-11 14:02:06.254846
41.29533271,-2.141744614,0.71276474,3.305749416,2024-06-11 14:02:06.295333
41.33578964,1.019791842,1.268536568,5.309023857,2024-06-11 14:02:06.335790
41.37631412,1.709823608,-0.248714447,6.106566906,2024-06-11 14:02:06.376314
41.41678782,1.092260599,-1.219432831,7.299850464,2024-06-11 14:02:06.416788
41.45726276,-3.642444849,-3.026114464,4.501738548,2024-06-11 14:02:06.457263
41.49774516,-6.235390186,-3.639572144,1.876079559,2024-06-11 14:02:06.497745
41.53828162,-3.196640015,-5.594631195,8.218375206,2024-06-11 14:02:06.538282
41.57871646,-2.818610668,-4.9343853,-1.704954863,2024-06-11 14:02:06.578716
41.61921667,4.843522072,-5.491082191,-4.678520203,2024-06-11 14:02:06.619217
41.65971782,8.9187603,-6.604752541,-2.005941629,2024-06-11 14:02:06.659718
41.70020386,3.81034255,1.243829727,-4.586240292,2024-06-11 14:02:06.700204
41.7405873,-0.642043829,4.992363453,-5.581532478,2024-06-11 14:02:06.740587
41.78106766,-4.072899818,4.648795605,-8.593335152,2024-06-11 14:02:06.781068
41.82154704,-4.106685162,4.023663044,-5.294677734,2024-06-11 14:02:06.821547
41.86202693,-0.572753191,4.879430771,-5.960216522,2024-06-11 14:02:06.862027
41.90257209,-0.1327204704,3.721063614,-5.50957346,2024-06-11 14:02:06.902572
41.94302474,6.145205498,-6.88124752,23.34213829,2024-06-11 14:02:06.943025
41.98352709,3.677296877,-4.569115639,-1.243552923,2024-06-11 14:02:06.983527
42.02400823,1.462462425,1.379653931,-5.426211357,2024-06-11 14:02:07.024008
42.06449651,7.61132431,-8.454076767,-1.595324278,2024-06-11 14:02:07.064497
42.10497641,0.455922842,1.122762203,-9.510397911,2024-06-11 14:02:07.104976
42.14547386,-1.927161932,5.70364809,-5.962922573,2024-06-11 14:02:07.145474
42.18592901,-0.4661641121,-1.379202843,-3.9087255,2024-06-11 14:02:07.185929
42.22641818,-1.097020984,-2.945139885,-2.660507202,2024-06-11 14:02:07.226418
42.26689375,-1.911880016,1.750968933,-2.713466883,2024-06-11 14:02:07.266894
42.30735563,-2.301849604,-0.05497646332,-0.2620458901,2024-06-11 14:02:07.307356
42.34782891,0.09938001633,0.1062774658,6.076015472,2024-06-11 14:02:07.347829
42.38830724,-0.1791279316,0.7075805664,2.982958794,2024-06-11 14:02:07.388307
42.42883157,-1.3341223,-0.2564535141,0.7423217297,2024-06-11 14:02:07.428832
42.46927667,-2.420389891,-0.719578743,6.81750536,2024-06-11 14:02:07.469277
42.50980553,-4.76654911,-3.458655357,3.022633553,2024-06-11 14:02:07.509806
42.55030053,-2.436531544,-2.527632713,4.586206913,2024-06-11 14:02:07.550301
42.59072334,-1.02612102,-4.191622734,4.236043453,2024-06-11 14:02:07.590723
42.63121256,1.530849934,-3.055157661,0.01014328003,2024-06-11 14:02:07.631213
42.67166131,6.083450317,-2.816767693,-2.634211063,2024-06-11 14:02:07.671661
42.71215823,8.427253723,-4.284529686,-4.886757851,2024-06-11 14:02:07.712158
42.75265328,4.473693371,1.056016922,-3.93707633,2024-06-11 14:02:07.752653
42.79312131,1.424628973,3.163032532,-0.6446669102,2024-06-11 14:02:07.793121
42.83359355,-1.23101759,1.72335434,-5.968940258,2024-06-11 14:02:07.833594
42.87408297,-2.243895769,2.142421246,-8.442684174,2024-06-11 14:02:07.874083
42.91459141,-2.036973953,2.391450882,-1.7072227,2024-06-11 14:02:07.914591
42.95508646,-0.8643506765,3.382724762,-4.048466206,2024-06-11 14:02:07.955086
42.9955574,0.3994500637,-0.07471466064,1.446339607,2024-06-11 14:02:07.995557
43.03604459,0.6626179218,-1.499434471,4.872341633,2024-06-11 14:02:08.036045
43.07652797,-0.2568888664,-2.026760101,4.912653446,2024-06-11 14:02:08.076528
43.11696901,1.599417686,-2.284955025,1.133641005,2024-06-11 14:02:08.116969
43.15747641,0.7771041393,1.120771408,-2.45162034,2024-06-11 14:02:08.157476
43.19795303,2.441452026,1.109331131,-3.01884675,2024-06-11 14:02:08.197953
43.23842974,3.937006712,-3.009805679,1.548928499,2024-06-11 14:02:08.238430
43.27889782,-0.2140085697,-2.470026016,-7.150737762,2024-06-11 14:02:08.278898
43.31937063,-1.452648282,2.608334064,1.502823949,2024-06-11 14:02:08.319371
43.35984678,-0.489882946,0.4029664993,-4.137971401,2024-06-11 14:02:08.359847
43.4003174,-1.315534592,-2.013031006,-0.2351366282,2024-06-11 14:02:08.400317
43.44080761,1.366689205,0.947599411,0.07992887497,2024-06-11 14:02:08.440808
43.48130037,2.425608635,1.24779892,-2.391446829,2024-06-11 14:02:08.481300
43.52177219,1.11684227,0.003640174866,3.279518127,2024-06-11 14:02:08.521772
43.5622598,-1.999193311,-0.3928642273,-2.144555092,2024-06-11 14:02:08.562260
43.60274391,-2.442623138,-0.2182035446,-0.3761453629,2024-06-11 14:02:08.602744
43.64322094,-0.7001293898,-0.316362381,0.9532912374,2024-06-11 14:02:08.643221
43.68370219,-0.5595905781,-0.4652452469,-0.524400115,2024-06-11 14:02:08.683702
43.72419407,0.07800674438,0.2799882889,-1.413346529,2024-06-11 14:02:08.724194
43.76468141,1.71523428,0.7134408951,0.8061460257,2024-06-11 14:02:08.764681
43.80518396,0.9740052223,-0.05770683289,-0.3707359433,2024-06-11 14:02:08.805184
43.84567568,-0.07692074776,-0.6448574066,-1.436827302,2024-06-11 14:02:08.845676
43.88612078,-0.2934858799,1.054256439,-1.991325378,2024-06-11 14:02:08.886121
43.92657459,-1.541914105,1.283790588,-2.912373304,2024-06-11 14:02:08.926575
43.9670748,-1.979668021,-0.2754955292,-2.78439784,2024-06-11 14:02:08.967075
44.00757828,-0.09793329239,-1.276226997,3.720690012,2024-06-11 14:02:09.007578
44.0480525,-0.463310957,-0.9890060425,0.8802471757,2024-06-11 14:02:09.048052
44.08852776,2.082117558,0.3818864822,1.128706813,2024-06-11 14:02:09.088528
44.12902563,1.193867922,0.961643219,-0.1330848932,2024-06-11 14:02:09.129026
44.1695111,-0.2848646641,0.07079982758,0.8863847852,2024-06-11 14:02:09.169511
44.20998605,-1.162778616,-0.4724903107,0.2713512182,2024-06-11 14:02:09.209986
44.25046532,-1.193171501,-0.543510437,-0.2804216743,2024-06-11 14:02:09.250465
44.29093599,-1.171815157,-0.1367254257,-0.3430192173,2024-06-11 14:02:09.290936
44.33139521,-1.07538867,-0.05013084412,-1.113878846,2024-06-11 14:02:09.331395
44.37193058,-1.068415403,-0.3888902664,0.5904581547,2024-06-11 14:02:09.371931
44.41235209,-0.2450819016,-0.04827976227,0.5546028018,2024-06-11 14:02:09.412352
44.45286094,0.9603993893,0.4879426956,-1.371957541,2024-06-11 14:02:09.452861
44.49333813,2.991537571,1.536049366,-1.834359288,2024-06-11 14:02:09.493338
44.53381964,0.5876040459,0.5727014542,0.600965023,2024-06-11 14:02:09.533820
44.57427678,-0.3311014175,-2.210898399,0.3264057636,2024-06-11 14:02:09.574277
44.61472386,5.986965656,1.118537426,-0.9068136215,2024-06-11 14:02:09.614724
44.65524891,3.5291996,0.7317209244,2.962232351,2024-06-11 14:02:09.655249
44.69574141,-4.310331345,-0.8482084274,6.911170959,2024-06-11 14:02:09.695741
44.73620381,-5.360448837,0.4764990807,1.943006992,2024-06-11 14:02:09.736204
44.77673573,0.7667441368,4.546416283,-2.583238125,2024-06-11 14:02:09.776736
44.8171737,3.391440392,4.820763111,-4.469026566,2024-06-11 14:02:09.817174
44.85764094,2.171032906,1.496723175,0.4456915855,2024-06-11 14:02:09.857641
44.89812407,2.196089268,-0.06810331345,-1.099798441,2024-06-11 14:02:09.898124
44.93861214,4.066904545,-0.5651516914,0.639497757,2024-06-11 14:02:09.938612
44.97908589,0.7812004089,-0.9791245461,0.3039665222,2024-06-11 14:02:09.979086
45.0195986,-1.484610319,-2.389966488,-3.166579008,2024-06-11 14:02:10.019599
45.06011178,-1.784335613,1.093356133,-2.492536068,2024-06-11 14:02:10.060112
45.1005923,-6.095522881,-0.4040765762,2.976029396,2024-06-11 14:02:10.100592
45.14100683,4.881945133,1.807759762,2.385142326,2024-06-11 14:02:10.141007
45.18148396,-2.507307053,-4.054619312,-0.8626813889,2024-06-11 14:02:10.181484
45.22196454,0.7498440742,-5.138939857,0.1863927841,2024-06-11 14:02:10.221965
45.26245589,-0.08108520508,0.6738700867,-0.2387046814,2024-06-11 14:02:10.262456
45.30295172,-1.645095825,-3.280514717,-0.2065343857,2024-06-11 14:02:10.302952
45.34342709,-1.312601089,-1.283986092,-0.1373310089,2024-06-11 14:02:10.343427
45.38389834,-1.00190711,-1.170152664,-0.2070202827,2024-06-11 14:02:10.383898
45.42435855,-0.8184289932,-1.253027439,-1.029439926,2024-06-11 14:02:10.424359
45.46485834,-0.9991312027,-0.4932785034,-0.2241845131,2024-06-11 14:02:10.464858
45.50535303,-1.338161469,-0.2001795769,-0.2714133263,2024-06-11 14:02:10.505353
45.54581646,-0.7892160416,-0.07111024857,-0.7383036613,2024-06-11 14:02:10.545816
45.58630943,-1.096794367,0.3095021248,0.04051589966,2024-06-11 14:02:10.586309
45.62679016,-1.101006269,0.4077863693,0.3652157784,2024-06-11 14:02:10.626790
45.66725839,-0.4092049599,-0.04872274399,-0.30874753,2024-06-11 14:02:10.667258
45.70776157,-0.1440911293,-0.59705019,-0.5652315617,2024-06-11 14:02:10.707762
45.74821209,0.08729791641,-1.058574677,-1.166232586,2024-06-11 14:02:10.748212
45.78870959,1.258189201,-1.88702631,-2.14911747,2024-06-11 14:02:10.788710
45.8292099,1.557498932,-1.791490555,-3.597979784,2024-06-11 14:02:10.829210
45.86969094,0.9762392044,1.464089394,-1.994785786,2024-06-11 14:02:10.869691
45.91021709,0.4161682129,2.653908253,1.279019713,2024-06-11 14:02:10.910217
45.95062422,2.86514473,1.167170525,8.918581009,2024-06-11 14:02:10.950624
45.99105901,1.216326237,0.3646154404,4.538166046,2024-06-11 14:02:10.991059
46.03158933,-1.398395538,3.087077141,-1.385027409,2024-06-11 14:02:11.031589
46.0720736,1.457273483,1.59488821,-2.458865404,2024-06-11 14:02:11.072074
46.11255443,1.658756733,1.752566814,-1.44127512,2024-06-11 14:02:11.112554
46.15303719,0.1694214344,1.344779968,-1.350871682,2024-06-11 14:02:11.153037
46.19352594,-0.07806825638,-1.41838932,1.620597124,2024-06-11 14:02:11.193526
46.23401349,3.753287792,-0.6017684937,-0.2339759469,2024-06-11 14:02:11.234013
46.2744899,4.983930588,-0.419883728,-0.7636162043,2024-06-11 14:02:11.274490
46.31494792,2.19505024,0.2962942123,3.687870502,2024-06-11 14:02:11.314948
46.35543568,1.110173702,1.032139778,0.9796738029,2024-06-11 14:02:11.355436
46.39593094,0.0581817627,2.031716347,0.1545243263,2024-06-11 14:02:11.395931
46.43641245,0.2810513973,0.8905324936,-0.6870365143,2024-06-11 14:02:11.436412
46.47688771,1.487983227,-0.4986467361,-0.6838799715,2024-06-11 14:02:11.476888
46.51736287,6.583612442,-1.29095459,5.033429623,2024-06-11 14:02:11.517363
46.55785266,0.009573936462,1.637283325,5.681657791,2024-06-11 14:02:11.557853
46.59834183,-5.940627575,4.017266273,-6.70087719,2024-06-11 14:02:11.598342
46.63882146,-8.72084713,4.480471134,-11.25343418,2024-06-11 14:02:11.638821
46.67930026,-1.82047081,1.532574177,-6.446030617,2024-06-11 14:02:11.679300
46.71980678,17.63202667,-15.76258278,15.45987988,2024-06-11 14:02:11.719807
46.76026042,-4.564325333,-2.998796463,-2.229043007,2024-06-11 14:02:11.760260
46.80069334,0.2765116692,-1.578790665,-2.099229813,2024-06-11 14:02:11.800693
46.84114584,3.781151295,-4.708826065,-4.166687012,2024-06-11 14:02:11.841146
46.88162651,2.565127373,-2.741257668,-9.593131065,2024-06-11 14:02:11.881627
46.92212719,-1.560460806,-0.890838623,-8.87660408,2024-06-11 14:02:11.922127
46.96263073,-3.593011141,-1.042435646,8.111278534,2024-06-11 14:02:11.962631
47.00314224,0.2035506964,1.482748032,-4.614038944,2024-06-11 14:02:12.003142
47.04360974,-3.013529301,2.177020073,-3.795444965,2024-06-11 14:02:12.043610
47.08404828,-4.449167728,0.3589048386,2.889544964,2024-06-11 14:02:12.084048
47.12455823,1.524142504,0.498005867,-1.758672833,2024-06-11 14:02:12.124558
47.16504224,1.040029287,-1.124052048,5.154256821,2024-06-11 14:02:12.165042
47.2055549,-0.8613131046,-4.242889404,4.487910271,2024-06-11 14:02:12.205555
47.24601969,0.1549072266,1.703234673,-1.748940706,2024-06-11 14:02:12.246020
47.28648896,-0.5572025776,2.716350079,-1.507009268,2024-06-11 14:02:12.286489
47.32694089,-1.933490038,1.959331036,-3.514495611,2024-06-11 14:02:12.326941
47.36743303,-2.145756721,0.9801130295,-2.419839621,2024-06-11 14:02:12.367433
47.4079425,-2.02425909,0.4209947586,-1.591191053,2024-06-11 14:02:12.407942
47.44842094,-2.357069492,1.066742897,-1.165283442,2024-06-11 14:02:12.448421
47.4888861,0.1763813496,0.5387849808,-1.050289392,2024-06-11 14:02:12.488886
47.52936901,2.517521858,0.03091907501,0.03116571903,2024-06-11 14:02:12.529369
47.56989511,6.940315247,-0.449259758,1.211425543,2024-06-11 14:02:12.569895
47.61034485,8.030666351,-1.376835823,7.102513313,2024-06-11 14:02:12.610345
47.65083599,2.305107117,-4.847061157,11.65910816,2024-06-11 14:02:12.650836
47.69129261,-2.331107378,-2.331290245,4.694125175,2024-06-11 14:02:12.691293
47.73175186,-0.08774185181,-2.447190285,0.6276021004,2024-06-11 14:02:12.731752
47.77226555,-2.147876263,-3.119664192,0.1480128765,2024-06-11 14:02:12.772266
47.81274701,-1.27906239,0.06306743622,-0.03818321228,2024-06-11 14:02:12.812747
47.85329233,-1.720306993,0.5011119843,-0.5938347578,2024-06-11 14:02:12.853292
47.89373035,-2.688102245,-0.7209310532,-0.04304742813,2024-06-11 14:02:12.893730
47.9341918,-2.340023041,-0.2136201859,0.326761961,2024-06-11 14:02:12.934192
47.9746616,-1.053964257,0.4177331924,2.942807674,2024-06-11 14:02:12.974662
48.01519701,-1.085445642,-1.110964775,2.919320345,2024-06-11 14:02:13.015197
48.05563363,-0.8538219929,-0.9325723648,0.9980504513,2024-06-11 14:02:13.055634
48.09606894,-1.280390501,0.01752471924,0.5947828293,2024-06-11 14:02:13.096069
48.13658639,-0.2196252346,0.3086900711,-0.3639394045,2024-06-11 14:02:13.136586
48.17707858,1.41361475,-0.07376384735,0.5935418606,2024-06-11 14:02:13.177079
48.21759457,0.3016798496,0.1748447418,2.078617096,2024-06-11 14:02:13.217595
48.25805618,-1.786827207,-1.479037285,1.335373998,2024-06-11 14:02:13.258056
48.29851712,-2.27566576,-1.750634193,1.127148151,2024-06-11 14:02:13.298517
48.338988,-1.746195555,-0.8986911774,2.180849552,2024-06-11 14:02:13.338988
48.3794404,-0.4555392265,-0.5803861618,1.790325403,2024-06-11 14:02:13.379440
48.4199855,-0.01448845863,-0.8282394409,2.061790466,2024-06-11 14:02:13.419986
48.4604168,-0.3673839569,-1.383433342,3.555352688,2024-06-11 14:02:13.460417
48.50089717,-1.084014297,-3.157988548,3.966067791,2024-06-11 14:02:13.500897
48.54137753,-0.4268343449,-2.490799904,4.912963867,2024-06-11 14:02:13.541378
48.58188102,0.8416507244,-0.1800632477,3.93120718,2024-06-11 14:02:13.581881
48.62236144,0.7936556339,-0.1915826797,-0.9373950958,2024-06-11 14:02:13.622361
48.6628355,1.822118044,-0.3444318771,-3.719600677,2024-06-11 14:02:13.662835
48.70332227,2.173095942,-1.121961594,-4.988671303,2024-06-11 14:02:13.703322
48.74381628,-0.05680322647,-1.138917923,-2.384747505,2024-06-11 14:02:13.743816
48.78427748,-1.640436292,-1.622445107,-2.224800587,2024-06-11 14:02:13.784277
48.82479108,-2.431540489,-0.7802677155,-4.559012413,2024-06-11 14:02:13.824791
48.86527144,-0.6385712624,2.605149746,-4.853457928,2024-06-11 14:02:13.865271
48.90571858,-0.2645001411,5.499994755,-5.459350109,2024-06-11 14:02:13.905719
48.94618686,4.556617737,0.8399949074,13.63861847,2024-06-11 14:02:13.946187
48.98671425,2.547713757,1.333710194,-12.95260525,2024-06-11 14:02:13.986714
49.02721279,2.572535515,-0.6349802017,-1.419042587,2024-06-11 14:02:14.027213
49.06767467,-2.436649323,-6.263724327,-2.81889081,2024-06-11 14:02:14.067675
49.10815587,-2.741999865,-7.9985075,-5.345908165,2024-06-11 14:02:14.108156
49.14862514,1.772261858,-3.214016914,-1.417740822,2024-06-11 14:02:14.148625
49.18910321,2.717310429,-1.94207859,-2.834456921,2024-06-11 14:02:14.189103
49.22961852,-1.635975599,-1.089590073,-2.657599211,2024-06-11 14:02:14.229619
49.27011384,-2.819677353,0.3562822342,-1.970912099,2024-06-11 14:02:14.270114
49.31058904,-3.207331657,-0.1867055893,-1.821819305,2024-06-11 14:02:14.310589
49.35100389,-2.724846363,0.783082962,-0.0932533741,2024-06-11 14:02:14.351004
49.39152352,-1.926624298,-1.54771328,-0.7238554955,2024-06-11 14:02:14.391524
49.43200352,-0.8916559219,1.945022583,1.905828953,2024-06-11 14:02:14.432004
49.47247285,0.4836707115,4.070652962,3.913271666,2024-06-11 14:02:14.472473
49.51294488,0.393406868,-1.092333794,0.02016496658,2024-06-11 14:02:14.512945
49.55344686,-1.378762007,-0.3577280045,-0.8893215656,2024-06-11 14:02:14.553447
49.59393097,5.393136024,1.66190815,0.2119190693,2024-06-11 14:02:14.593931
49.63439951,6.694934845,1.285092831,3.267381907,2024-06-11 14:02:14.634400
49.67488884,2.66143322,4.919073105,1.021542788,2024-06-11 14:02:14.674889
49.71536555,-2.839646339,-0.8151907921,-0.7948540449,2024-06-11 14:02:14.715366
49.75582675,-2.535678387,-1.914365768,0.1824069023,2024-06-11 14:02:14.755827
49.79631951,-0.5995717049,0.4356126785,0.3356113434,2024-06-11 14:02:14.796320
49.83680352,0.7233533859,0.298418045,-0.1843574047,2024-06-11 14:02:14.836804
49.877278,3.534787178,1.351117611,0.6137878895,2024-06-11 14:02:14.877278
49.91775076,1.775073528,1.857692719,1.616430163,2024-06-11 14:02:14.917751
49.9582292,-0.9812078476,-0.8090839386,2.353842974,2024-06-11 14:02:14.958229
49.99870337,-2.677065372,-1.547106743,1.843487382,2024-06-11 14:02:14.998703
50.03920337,-1.066440105,-0.4454469681,2.085098267,2024-06-11 14:02:15.039203
50.07965847,1.281953812,-2.291106224,4.836595058,2024-06-11 14:02:15.079658
50.12013222,3.499657631,-2.376488686,4.657475948,2024-06-11 14:02:15.120132
50.16061212,4.04310751,-1.855037689,4.573572159,2024-06-11 14:02:15.160612
50.201108,2.984442711,-0.4147801399,-2.35977459,2024-06-11 14:02:15.201108
50.24156358,-1.366823435,2.318323612,-7.16152668,2024-06-11 14:02:15.241564
50.28206087,-3.368276596,-0.9263062477,-4.843253613,2024-06-11 14:02:15.282061
50.32255738,-1.182886124,-1.671556473,-1.003176689,2024-06-11 14:02:15.322557
50.36303732,-2.493228436,1.440271854,-4.139385223,2024-06-11 14:02:15.363037
50.40351873,-1.947874069,1.003786087,-2.679770231,2024-06-11 14:02:15.403519
50.44398884,0.4602279663,0.6958436966,-0.4974377155,2024-06-11 14:02:15.443989
50.48448071,1.82186842,3.412704468,-1.669081926,2024-06-11 14:02:15.484481
50.52495618,1.728647709,2.053586006,3.729403496,2024-06-11 14:02:15.524956
50.5654405,2.727417946,-1.924130917,2.854012966,2024-06-11 14:02:15.565441
50.60592634,-3.877314329,-2.796758652,4.097726822,2024-06-11 14:02:15.605926
50.64641608,-2.742486477,0.3340110779,-7.842625618,2024-06-11 14:02:15.646416
50.68692467,2.106360197,-2.015244007,3.004354477,2024-06-11 14:02:15.686925
50.72738956,5.775380611,-1.050127029,-6.611730576,2024-06-11 14:02:15.727390
50.76785628,-0.4364356995,-2.380632877,-0.5056934357,2024-06-11 14:02:15.767856
50.80836217,-1.667531252,-3.037688255,-3.995573282,2024-06-11 14:02:15.808362
50.84885545,-0.3862330914,-2.590245247,-2.799679041,2024-06-11 14:02:15.848855
50.88931576,-1.009752274,-0.7525758743,-0.2882852554,2024-06-11 14:02:15.889316
50.92981165,-0.4363031387,-0.5732326508,-2.376693249,2024-06-11 14:02:15.929812
50.9702841,1.100025654,-1.754261971,-3.942131758,2024-06-11 14:02:15.970284
51.01071847,3.015546322,-3.175756454,-3.457206249,2024-06-11 14:02:16.010718
51.05118097,0.3165783882,-0.3727989197,0.9531137943,2024-06-11 14:02:16.051181
51.09164936,1.291490078,2.264118195,3.233289242,2024-06-11 14:02:16.091649
51.13217097,0.5305542946,0.1473984718,1.815808535,2024-06-11 14:02:16.132171
51.17267587,-0.2323746681,0.9967646599,-0.6803638935,2024-06-11 14:02:16.172676
51.21314993,0.4748082161,2.03139925,-0.6291627884,2024-06-11 14:02:16.213150
51.25362061,-0.689781189,2.021125793,0.2311244011,2024-06-11 14:02:16.253621
51.2940991,-0.4404225349,1.816288471,5.537425041,2024-06-11 14:02:16.294099
51.33462832,-1.458024979,2.942499638,3.120465755,2024-06-11 14:02:16.334628
51.37508285,-4.440250874,-0.3498005867,1.190697193,2024-06-11 14:02:16.375083
51.41560076,1.721542835,-4.034330368,4.219086647,2024-06-11 14:02:16.415601
51.45602285,2.313027382,-2.416754723,2.548461437,2024-06-11 14:02:16.456023
51.49650852,-0.1947226524,4.718062401,0.4355905056,2024-06-11 14:02:16.496509
51.53700701,-0.02931261063,2.206547737,1.841869354,2024-06-11 14:02:16.537007
51.57745425,0.3523511887,-2.930530548,2.39882946,2024-06-11 14:02:16.577454
51.61796087,-2.3421278,-0.2211456299,0.3389239311,2024-06-11 14:02:16.617961
51.65843758,0.2041077614,0.7104568481,1.88300705,2024-06-11 14:02:16.658438
51.69892576,1.547954082,0.4081516266,1.327515125,2024-06-11 14:02:16.698926
51.73938258,1.506332397,0.5896959305,-0.9280887246,2024-06-11 14:02:16.739383
51.77991472,-0.1152558327,0.7516059875,-0.5858646631,2024-06-11 14:02:16.779915
51.8203417,-1.425383091,0.09728717804,-0.4900250435,2024-06-11 14:02:16.820342
51.86082295,-1.595806599,-1.223341942,-0.199431777,2024-06-11 14:02:16.860823
51.90125201,0.8992922306,-0.7015666962,0.6481525898,2024-06-11 14:02:16.901252
51.94173326,-0.323035717,0.9528045654,-0.4059587121,2024-06-11 14:02:16.941733
51.98221451,-0.9592907429,0.9651594162,0.4571288228,2024-06-11 14:02:16.982215
52.02275102,-0.1639363766,-0.4271736145,1.20780766,2024-06-11 14:02:17.022751
52.06324957,-0.4335296154,-0.3041305542,1.838952422,2024-06-11 14:02:17.063250
52.10373061,-0.3758509159,0.373623848,1.457888007,2024-06-11 14:02:17.103731
52.14420316,-0.7868936062,0.8621940613,1.224529743,2024-06-11 14:02:17.144203
52.18470727,-1.574841142,1.021092415,3.080430984,2024-06-11 14:02:17.184707
52.22520165,-1.653067946,-1.779532433,2.054775,2024-06-11 14:02:17.225202
52.26565639,0.3225831985,-4.987360954,5.744282246,2024-06-11 14:02:17.265656
52.30611753,1.592826128,-1.268157959,4.212896824,2024-06-11 14:02:17.306118
52.34656602,3.679306507,-0.8355760574,0.1275981665,2024-06-11 14:02:17.346566
52.38709368,3.801400661,-1.151564598,-4.027252674,2024-06-11 14:02:17.387094
52.42757743,1.401025772,0.2551279068,-5.890303135,2024-06-11 14:02:17.427577
52.46804826,-0.8455357552,-1.33976841,-4.428646088,2024-06-11 14:02:17.468048
52.50854977,-0.6769480705,-1.590200424,-2.178765535,2024-06-11 14:02:17.508550
52.54900972,0.2591314316,0.3374118805,-4.449118137,2024-06-11 14:02:17.549010
52.58948722,1.038201809,2.630055428,-5.368041992,2024-06-11 14:02:17.589487
52.62999337,1.348664284,2.713487625,-5.55605793,2024-06-11 14:02:17.629993
52.67044561,0.2181084156,1.858524323,-4.465328693,2024-06-11 14:02:17.670446
52.71092639,-2.096742392,-1.47224617,4.859443665,2024-06-11 14:02:17.710926
52.75140717,0.9988350868,-3.313382149,8.130614281,2024-06-11 14:02:17.751407
52.79188087,2.975905657,1.263467312,0.9573225975,2024-06-11 14:02:17.791881
52.83234732,2.210874557,-0.01251220703,-2.642714739,2024-06-11 14:02:17.832347
52.87285436,2.863894701,-4.010367393,-2.303375959,2024-06-11 14:02:17.872854
52.91334764,0.7408437729,0.2830047607,-4.405414104,2024-06-11 14:02:17.913348
52.95381936,1.386711359,3.741144657,-4.846495628,2024-06-11 14:02:17.953819
52.99431576,5.176095486,1.665771484,2.544224739,2024-06-11 14:02:17.994316
53.03480941,-1.625272632,-1.659942627,2.693822384,2024-06-11 14:02:18.034809
53.07523758,-4.407879829,-0.890712738,-0.4945785999,2024-06-11 14:02:18.075238
53.11571352,-4.821650982,-1.420105934,-0.821485281,2024-06-11 14:02:18.115714
53.1562241,-1.340173125,-1.323036194,-2.99006176,2024-06-11 14:02:18.156224
53.19669686,0.7296016216,0.4187803268,-1.465385914,2024-06-11 14:02:18.196697
53.23717175,1.25382328,0.4753637314,-0.3169933558,2024-06-11 14:02:18.237172
53.27766837,0.9844279289,0.3294992447,-1.207436085,2024-06-11 14:02:18.277668
53.31814597,-0.05450034142,-0.3509054184,-0.4548195601,2024-06-11 14:02:18.318146
53.35860956,-1.455968499,-0.2865896225,-0.8145868182,2024-06-11 14:02:18.358610
53.39910566,0.5672316551,-0.5268297195,0.4145812988,2024-06-11 14:02:18.399106
53.43961613,-0.9690375328,-0.03269195557,-1.367657661,2024-06-11 14:02:18.439616
53.48009165,-0.9645650387,-0.4518356323,-0.8348916769,2024-06-11 14:02:18.480092
53.52055509,-0.7829289436,-0.5312623978,-0.5232153535,2024-06-11 14:02:18.520555
53.56105509,-0.881860733,-0.4008998871,-0.4585983753,2024-06-11 14:02:18.561055
53.60149951,-0.2231562138,-0.233880043,-0.1287645102,2024-06-11 14:02:18.601500
53.64199488,-1.238862753,-0.4375524521,-0.05084860325,2024-06-11 14:02:18.641995
53.6824793,-0.9622375965,-0.5782356262,-1.150414705,2024-06-11 14:02:18.682479
53.72296884,-1.049519777,-0.2021493912,-1.618838549,2024-06-11 14:02:18.722969
53.76346207,-0.1199100018,-0.2234773636,-3.123119831,2024-06-11 14:02:18.763462
53.80392232,1.593426704,-0.1086330414,-1.898340225,2024-06-11 14:02:18.803922
53.84439113,2.782157421,-0.07383060455,-1.480580211,2024-06-11 14:02:18.844391
53.88487634,5.060370922,-0.6024599075,-1.570637226,2024-06-11 14:02:18.884876
53.92537061,2.930513382,0.5765900612,2.50619173,2024-06-11 14:02:18.925371
53.96586243,-2.147373676,1.299442291,4.695822716,2024-06-11 14:02:18.965862
54.00633055,-1.921283007,-0.1589288712,2.496487379,2024-06-11 14:02:19.006331
54.046818,-1.196918964,1.747169495,1.144144773,2024-06-11 14:02:19.046818
54.08730618,1.518239021,3.702201843,1.375982046,2024-06-11 14:02:19.087306
54.12775217,-1.818536997,2.089686394,0.07453346252,2024-06-11 14:02:19.127752
54.16822545,-2.645878792,0.2041158676,-0.01645588875,2024-06-11 14:02:19.168225
54.20873795,2.848098278,0.7729034424,-3.700035095,2024-06-11 14:02:19.208738
54.24920222,5.468442917,0.05801773071,-0.2657344341,2024-06-11 14:02:19.249202
54.28969925,0.873688221,-3.498155594,2.971287251,2024-06-11 14:02:19.289699
54.33013373,-1.981997967,1.23448658,0.5014207363,2024-06-11 14:02:19.330134
54.37061514,-0.6746792793,-2.920324326,-0.5055601597,2024-06-11 14:02:19.370615
54.41111972,-3.485122681,-1.874481201,-4.21408844,2024-06-11 14:02:19.411120
54.45161269,0.6603617668,1.05512476,1.780026436,2024-06-11 14:02:19.451613
54.49207071,0.3079843521,-0.2121257782,2.290412188,2024-06-11 14:02:19.492071
54.53258706,0.2448468208,-1.734665871,-1.861020684,2024-06-11 14:02:19.532587
54.57306707,1.243724346,1.328831673,-2.922113657,2024-06-11 14:02:19.573067
54.61351373,3.315966129,1.517575741,-0.3006118536,2024-06-11 14:02:19.613514
54.65402321,-0.4789762497,0.4506893158,4.318813801,2024-06-11 14:02:19.654023
54.69447217,-3.154290199,-0.241440773,7.72507,2024-06-11 14:02:19.694472
54.7349929,-2.395111799,0.464097023,2.502773046,2024-06-11 14:02:19.734993
54.77546915,0.7931551933,0.8838968277,-0.7100262642,2024-06-11 14:02:19.775469
54.81593618,2.637464285,0.8007802963,-3.033325195,2024-06-11 14:02:19.815936
54.85641738,0.7160689831,-0.2872428894,-3.77071619,2024-06-11 14:02:19.856417
54.89692113,0.6405594349,-0.4265642166,1.457082629,2024-06-11 14:02:19.896921
54.93736321,2.478402138,0.2888584137,-0.02261176705,2024-06-11 14:02:19.937363
54.97785722,1.056221962,-0.02872180939,4.650336742,2024-06-11 14:02:19.977857
55.01838259,0.2312295437,1.707416058,1.988481641,2024-06-11 14:02:20.018383
55.05882592,-1.027891397,-0.1558933258,-0.8463687897,2024-06-11 14:02:20.058826
55.0993068,-2.77037859,-2.435306549,-4.186290741,2024-06-11 14:02:20.099307
55.13974675,-3.749666452,-0.9561433792,-3.699186563,2024-06-11 14:02:20.139747
55.18026727,-1.180806041,0.3707342148,-0.9419343472,2024-06-11 14:02:20.180267
55.22071108,0.5240123272,0.158408165,3.257811069,2024-06-11 14:02:20.220711
55.26117326,1.068222761,-0.1221046448,-0.9770653248,2024-06-11 14:02:20.261173
55.30165415,1.134065151,0.08575248718,0.1401571035,2024-06-11 14:02:20.301654
55.34218628,-0.1704835892,-0.3778362274,-0.4792874455,2024-06-11 14:02:20.342186
55.38268378,-2.184586763,-0.424861908,-0.9877899885,2024-06-11 14:02:20.382684
55.42317649,-2.964938164,-1.247251511,-1.419498324,2024-06-11 14:02:20.423176
55.46361811,-1.950091839,-0.8547029495,-0.8832706213,2024-06-11 14:02:20.463618
55.50409821,1.208618402,0.122841835,-0.6941044331,2024-06-11 14:02:20.504098
55.54459316,1.288113594,0.8708267212,-1.248669267,2024-06-11 14:02:20.544593
55.58508967,-1.017371655,-0.8671131134,0.7352733612,2024-06-11 14:02:20.585090
55.62557076,-1.149260759,0.9118328094,-3.237655163,2024-06-11 14:02:20.625571
55.66604097,2.177808046,-1.478145599,-2.616761208,2024-06-11 14:02:20.666041
55.70657008,2.558809757,0.2816505432,-3.512927294,2024-06-11 14:02:20.706570
55.74698566,0.8037199974,-2.45673275,-1.514153481,2024-06-11 14:02:20.746986
55.78750483,-0.6398224831,-7.575387478,-2.546948433,2024-06-11 14:02:20.787505
55.82801509,-4.52412796,0.7844114304,-0.6644966602,2024-06-11 14:02:20.828015
55.86849618,1.361002922,2.299439907,9.902634621,2024-06-11 14:02:20.868496
55.90892029,0.5804042816,-3.114707947,1.480027676,2024-06-11 14:02:20.908920
55.94941311,-0.1154952049,5.099357605,-4.37790966,2024-06-11 14:02:20.949413
55.98993451,1.525068283,5.370891094,-3.197911024,2024-06-11 14:02:20.989935
56.03041847,-0.7990660667,1.47999382,0.2715263367,2024-06-11 14:02:21.030418
56.07089941,-0.08503961563,5.134878159,-1.318725586,2024-06-11 14:02:21.070899
56.11129972,3.118878841,2.675787449,1.600093246,2024-06-11 14:02:21.111300
56.15180082,1.318750858,-1.773420334,2.775668144,2024-06-11 14:02:21.151801
56.19228561,2.194108963,-2.212428093,0.04472777247,2024-06-11 14:02:21.192286
56.23277545,5.755182743,-2.651102066,4.458385944,2024-06-11 14:02:21.232775
56.27325332,4.614612579,0.5638008118,7.057686329,2024-06-11 14:02:21.273253
56.31373529,3.877253056,0.2123584747,1.834137797,2024-06-11 14:02:21.313735
56.35422123,-2.255903006,-0.799621582,1.619466186,2024-06-11 14:02:21.354221
56.39470389,-4.82574892,-0.4362792969,-0.6603979468,2024-06-11 14:02:21.394704
56.43522238,-3.114114761,-0.3270130157,-3.76829505,2024-06-11 14:02:21.435222
56.47567274,-4.028244972,-1.368721962,-3.551229,2024-06-11 14:02:21.475673
56.5161392,-3.091211319,-0.130947113,0.9035183191,2024-06-11 14:02:21.516139
56.55659941,-1.321559906,-1.046299934,1.91626668,2024-06-11 14:02:21.556599
56.59710149,-2.032757044,-0.9372758865,1.161971331,2024-06-11 14:02:21.597101
56.63759295,-0.7749114037,-0.387796402,-0.6865519881,2024-06-11 14:02:21.637593
56.67807957,1.203709126,1.180998802,-0.2087929845,2024-06-11 14:02:21.678080
56.7185755,-0.439858675,0.5125789642,-1.167666197,2024-06-11 14:02:21.718576
56.75903394,-2.738396168,-0.3732481003,-2.11785531,2024-06-11 14:02:21.759034
56.7995191,-3.362357378,-0.6363048553,-1.44655776,2024-06-11 14:02:21.799519
56.84002503,-0.7214155197,-0.3215847015,0.6263917685,2024-06-11 14:02:21.840025
56.88048035,2.265505791,0.01180839539,0.05325764418,2024-06-11 14:02:21.880480
56.92091368,2.51150465,-0.09774398804,-0.6016925573,2024-06-11 14:02:21.920914
56.96140035,0.3243415356,0.1356287003,-0.6313132048,2024-06-11 14:02:21.961400
57.00187691,-1.721193314,-0.5540933609,0.323584646,2024-06-11 14:02:22.001877
57.04237071,-0.05274033546,0.400390625,-0.4569274783,2024-06-11 14:02:22.042371
57.08283326,0.7637541294,0.5127696991,-0.6889538169,2024-06-11 14:02:22.082833
57.12334852,-0.6035525799,-0.4648694992,0.3485925794,2024-06-11 14:02:22.123349
57.16385269,-1.178102255,-0.8034629822,1.017536879,2024-06-11 14:02:22.163853
57.20432259,0.5559186935,0.08233356476,0.3431706429,2024-06-11 14:02:22.204323
57.24478951,2.913406372,0.8548088074,-0.5729526281,2024-06-11 14:02:22.244790
57.28527868,5.270666122,1.37272501,-0.6562267542,2024-06-11 14:02:22.285279
57.32574951,0.6499824524,2.118290424,1.823933125,2024-06-11 14:02:22.325750
57.36622311,-3.798033237,-0.5151901245,0.09705066681,2024-06-11 14:02:22.366223
57.40672352,-5.257305145,-0.6510915756,-6.520180225,2024-06-11 14:02:22.406724
57.44721467,3.27282095,-1.37597847,2.030097723,2024-06-11 14:02:22.447215
57.48767904,-4.20445919,-5.451510429,-0.1592605114,2024-06-11 14:02:22.487679
57.52818014,-0.08131122589,1.183795452,1.487655401,2024-06-11 14:02:22.528180
57.56864498,1.870960712,1.584181309,-0.5769817829,2024-06-11 14:02:22.568645
57.60913691,-1.272109985,-1.535975456,-0.6753031015,2024-06-11 14:02:22.609137
57.64965311,-3.216937065,-2.294969559,-1.28894639,2024-06-11 14:02:22.649653
57.69013061,-2.111444473,-0.6246738434,-0.6774139404,2024-06-11 14:02:22.690131
57.73056285,-0.9102578163,-0.7516956329,-1.192030549,2024-06-11 14:02:22.730563
57.77102363,-0.3856487274,0.2691612244,-2.460022211,2024-06-11 14:02:22.771024
57.8115054,-0.8779287338,1.089054108,-1.551264882,2024-06-11 14:02:22.811505
57.85198717,-0.5278849602,-1.289629936,0.4819760323,2024-06-11 14:02:22.851987
57.89247508,2.326187611,2.030552387,1.3687675,2024-06-11 14:02:22.892475
57.93296967,3.487715244,3.754516602,2.823112011,2024-06-11 14:02:22.932970
57.9734593,3.660830975,0.2853021622,3.571207047,2024-06-11 14:02:22.973459
58.0139093,1.559600353,-2.884465218,2.741192818,2024-06-11 14:02:23.013909
58.0543917,1.036072731,1.047138214,1.494911671,2024-06-11 14:02:23.054392
58.09487347,3.986725807,2.837581635,-0.04135251045,2024-06-11 14:02:23.094873
58.13541472,3.020865917,1.531406403,0.6794902086,2024-06-11 14:02:23.135415
58.1758418,-1.307500839,0.004880905151,0.4561086893,2024-06-11 14:02:23.175842
58.21644368,-2.222767591,0.1072225571,-0.5355281234,2024-06-11 14:02:23.216444
58.25681649,-0.01828813553,0.2460174561,-0.3507854939,2024-06-11 14:02:23.256816
58.29729878,1.262572289,0.1751174927,0.6852907538,2024-06-11 14:02:23.297299
58.33777196,2.094779015,0.5021076202,1.35787344,2024-06-11 14:02:23.337772
58.3782654,1.111615181,0.565363884,0.338437736,2024-06-11 14:02:23.378265
58.41877019,-0.0424156189,0.2453479767,0.2702809572,2024-06-11 14:02:23.418770
58.45923399,-0.2579379082,0.487323761,0.2614234686,2024-06-11 14:02:23.459234
58.49974634,-0.1652126312,0.753279686,0.144364357,2024-06-11 14:02:23.499746
58.54019988,0.875169754,0.1061029434,0.2690959573,2024-06-11 14:02:23.540200
58.58068029,1.8340168,-0.4583835602,1.511685252,2024-06-11 14:02:23.580680
58.62116076,1.908856392,0.5523176193,-0.07608878613,2024-06-11 14:02:23.621161
58.66164123,1.736456871,1.840594769,0.5507169962,2024-06-11 14:02:23.661641
58.70210342,0.2620043755,-0.08567333221,0.02561378479,2024-06-11 14:02:23.702103
58.74258686,-1.37087059,0.3882236481,-0.1295061707,2024-06-11 14:02:23.742587
58.78305451,-1.562536001,0.5718164444,-1.2680794,2024-06-11 14:02:23.783055
58.82352878,-2.27593565,-1.595965385,-3.289479017,2024-06-11 14:02:23.823529
58.86400128,-2.466512442,-2.303081512,-3.455695629,2024-06-11 14:02:23.864001
58.90453082,-3.148068666,-0.7740297318,-3.863776684,2024-06-11 14:02:23.904531
58.94505743,-2.427582502,-0.4886779785,-0.8887437582,2024-06-11 14:02:23.945057
58.98548003,1.979388475,0.4026250839,6.653765678,2024-06-11 14:02:23.985480
59.0259643,-1.710592031,-0.8605699539,2.924387693,2024-06-11 14:02:24.025964
59.06641873,-2.934281826,-0.3837757111,0.7378546,2024-06-11 14:02:24.066419
59.10686326,-0.04154586792,0.107544899,-1.307236195,2024-06-11 14:02:24.106863
59.14742878,1.346504688,0.5613832474,1.428427935,2024-06-11 14:02:24.147429
59.1878741,-1.14966774,0.8050508499,2.470319033,2024-06-11 14:02:24.187874
59.22838207,-2.769246578,-0.6695718765,1.83331418,2024-06-11 14:02:24.228382
59.26881748,-0.6727278233,0.3882665634,1.029931188,2024-06-11 14:02:24.268817
59.30929472,-1.537299156,1.241912842,1.932187557,2024-06-11 14:02:24.309295
59.3497667,-1.216095924,0.6874742508,1.208217025,2024-06-11 14:02:24.349767
59.39027795,-1.654218674,0.08329963684,0.2175405025,2024-06-11 14:02:24.390278
59.43072102,-2.714988947,-0.8221254349,-1.214743614,2024-06-11 14:02:24.430721
59.47120212,-2.396654606,-1.426738739,0.3275252581,2024-06-11 14:02:24.471202
59.51168326,-0.5356030464,-2.567193031,2.104892969,2024-06-11 14:02:24.511683
59.55217477,-4.849058151,-4.145908356,3.227061987,2024-06-11 14:02:24.552175
59.59267665,-3.363811016,-5.429109097,3.373573542,2024-06-11 14:02:24.592677
59.63316066,6.889903069,-4.516969204,-2.742846489,2024-06-11 14:02:24.633161
59.67365389,1.994001389,2.142421722,-10.10834885,2024-06-11 14:02:24.673654
59.71414076,2.279182911,1.617787838,-2.473232746,2024-06-11 14:02:24.714141
59.75461457,3.247163773,5.069502831,-0.3207697868,2024-06-11 14:02:24.754615
59.79509977,0.6654295921,4.441108704,-1.947801113,2024-06-11 14:02:24.795100
59.83556201,-3.391331196,4.685081959,0.1735882759,2024-06-11 14:02:24.835562
59.87604884,-0.1682338715,5.637198448,0.1209516525,2024-06-11 14:02:24.876049
59.91653498,3.542133808,0.8387856483,-0.3808612823,2024-06-11 14:02:24.916535
59.95700009,6.20973587,-3.175239086,1.822205544,2024-06-11 14:02:24.957000
59.99750113,3.294942379,-1.350419521,2.71431303,2024-06-11 14:02:24.997501
60.03802175,2.770559311,-1.547861099,0.4199142456,2024-06-11 14:02:25.038022
60.07848269,4.387042046,-1.496118069,-2.929541111,2024-06-11 14:02:25.078483
60.11894061,3.014377594,-1.41045475,0.3026866913,2024-06-11 14:02:25.118941
60.15941019,2.315063477,-1.659886837,0.9535160065,2024-06-11 14:02:25.159410
60.19994779,0.9803552628,-1.790023804,-1.518463135,2024-06-11 14:02:25.199948
60.240378,0.2187175751,-0.6385784149,-1.445324183,2024-06-11 14:02:25.240378
60.28080582,-0.6401643753,-0.8638525009,-1.528514862,2024-06-11 14:02:25.280806
60.32130988,-0.4642758369,-1.77877903,-2.32556963,2024-06-11 14:02:25.321310
60.36181394,-0.3633475304,-5.290149689,10.87593651,2024-06-11 14:02:25.361814
60.40229753,0.3498468399,-2.479500771,-3.463449478,2024-06-11 14:02:25.402298
60.44278165,-3.160527945,0.6781139374,-7.344598293,2024-06-11 14:02:25.442782
60.48326977,-3.578233242,4.695515156,-7.559772015,2024-06-11 14:02:25.483270
60.52375139,-4.883659363,6.965931892,-5.574119568,2024-06-11 14:02:25.523751
60.56423769,-5.826040268,6.391235352,-3.42633152,2024-06-11 14:02:25.564238
60.60472134,-6.643479347,1.426804066,-5.244333267,2024-06-11 14:02:25.604721
60.64521082,-0.4312796593,-8.510854721,-9.419224739,2024-06-11 14:02:25.645211
60.68571024,2.331166744,-16.75372696,-3.277808428,2024-06-11 14:02:25.685710
60.72617915,8.476952553,-2.264924049,7.375962257,2024-06-11 14:02:25.726179
60.76663967,-0.5064151287,2.137669563,0.6744164228,2024-06-11 14:02:25.766640
60.80713691,-0.9939701557,4.77187252,4.632520676,2024-06-11 14:02:25.807137
60.84762884,-1.093211889,3.497135639,2.613350391,2024-06-11 14:02:25.847629
60.88812816,1.399404049,0.7864656448,-0.1082530022,2024-06-11 14:02:25.888128
60.9285893,1.711184978,-0.07642841339,-1.380280614,2024-06-11 14:02:25.928589
60.96903826,-1.107828379,0.1358222961,0.7118982077,2024-06-11 14:02:25.969038
61.00953451,-2.818042278,-0.446518898,1.743802428,2024-06-11 14:02:26.009535
61.05004321,-4.379217625,-1.526932716,0.2127939463,2024-06-11 14:02:26.050043
61.09053207,-1.667237282,-4.800388336,-2.078166008,2024-06-11 14:02:26.090532
61.13101305,4.716739178,-4.517095566,-7.044134617,2024-06-11 14:02:26.131013
61.17147045,5.698357105,1.112248898,-5.123223305,2024-06-11 14:02:26.171470
61.21192941,3.303393364,3.32133913,0.7542129755,2024-06-11 14:02:26.211929
61.25238701,-0.4867787361,2.641897202,5.692285061,2024-06-11 14:02:26.252387
61.29290305,-6.694754601,-0.9793119431,5.492403984,2024-06-11 14:02:26.292903
61.33337722,-6.9274683,0.8333230019,0.009642601013,2024-06-11 14:02:26.333377
61.37383488,0.6922326088,1.464818954,-0.3770396709,2024-06-11 14:02:26.373835
61.41432847,8.512528419,0.1499099731,1.064312458,2024-06-11 14:02:26.414328
61.45481634,5.9787817,2.042922974,1.466190338,2024-06-11 14:02:26.454816
61.49528373,-0.9897356033,0.2340488434,-0.3398718834,2024-06-11 14:02:26.495284
61.53576613,0.04702615738,-1.138904572,-1.074019432,2024-06-11 14:02:26.535766
61.57625019,1.102453232,-1.501383781,-0.4581413269,2024-06-11 14:02:26.576250
61.6167605,0.9082813263,-1.441076756,0.3532485962,2024-06-11 14:02:26.616760
61.65723326,0.6829705238,-0.9767384529,1.168540716,2024-06-11 14:02:26.657233
61.69774108,1.352089882,0.0002555847168,1.671361446,2024-06-11 14:02:26.697741
61.73824415,1.706343651,0.9996762276,1.677069068,2024-06-11 14:02:26.738244
61.77863602,-0.2827806473,1.793477058,0.002356052399,2024-06-11 14:02:26.778636
61.81916998,-0.2770490646,0.8631954193,-1.146635294,2024-06-11 14:02:26.819170
61.85961061,0.9086136818,-0.4554653168,-1.008998871,2024-06-11 14:02:26.859611
61.90014207,0.7498822212,0.4422550201,-0.7700548172,2024-06-11 14:02:26.900142
61.94062347,0.805287838,0.7234020233,0.3359694481,2024-06-11 14:02:26.940623
61.98110488,1.89855361,1.718922615,-0.567050457,2024-06-11 14:02:26.981105
62.02153305,2.309091568,1.647900581,-0.6169253588,2024-06-11 14:02:27.021533
62.06201446,1.640424967,-0.3149700165,-0.6316627264,2024-06-11 14:02:27.062014
