Time (s),Acceleration x (m/s^2),Acceleration y (m/s^2),Acceleration z (m/s^2),Datetime
0.0,-1.156929731,4.616054058,8.472985268,2024-06-05 19:44:08.000000
0.019713816,-1.341476202,3.602693558,10.54965591,2024-06-05 19:44:08.019714
0.059713816,0.0,0.0,0.0,2024-06-05 19:44:08.059714
0.099713816,-5.183751106,0.8001000881,13.54905891,2024-06-05 19:44:08.099714
0.139713816,-5.183751106,0.8001000881,13.54905891,2024-06-05 19:44:08.139714
0.179713816,-5.183751106,0.8001000881,13.54905891,2024-06-05 19:44:08.179714
0.219713816,-5.183751106,0.8001000881,13.54905891,2024-06-05 19:44:08.219714
0.259713816,-1.916351795,2.979961395,9.667003632,2024-06-05 19:44:08.259714
0.299713816,-1.916351795,2.979961395,9.667003632,2024-06-05 19:44:08.299714
0.339713816,0.2587239444,4.86281395,7.736294746,2024-06-05 19:44:08.339714
0.379713816,0.2587239444,4.86281395,7.736294746,2024-06-05 19:44:08.379714
0.419713816,0.2587239444,4.86281395,7.736294746,2024-06-05 19:44:08.419714
0.459713816,0.2587239444,4.86281395,7.736294746,2024-06-05 19:44:08.459714
0.499713816,0.2587239444,4.86281395,7.736294746,2024-06-05 19:44:08.499714
0.539713816,0.2587239444,4.86281395,7.736294746,2024-06-05 19:44:08.539714
0.579713816,-1.964208245,6.966104984,6.858428001,2024-06-05 19:44:08.579714
0.619713816,-1.964208245,6.966104984,6.858428001,2024-06-05 19:44:08.619714
0.659713816,-1.964208245,6.966104984,6.858428001,2024-06-05 19:44:08.659714
0.699713816,-1.964208245,6.966104984,6.858428001,2024-06-05 19:44:08.699714
0.739713816,-1.964208245,6.966104984,6.858428001,2024-06-05 19:44:08.739714
0.779713816,-1.964208245,6.966104984,6.858428001,2024-06-05 19:44:08.779714
0.819713816,-1.964208245,6.966104984,6.858428001,2024-06-05 19:44:08.819714
0.859713816,-1.964208245,6.966104984,6.858428001,2024-06-05 19:44:08.859714
0.899713816,-1.964208245,6.966104984,6.858428001,2024-06-05 19:44:08.899714
0.939713816,-1.964208245,6.966104984,6.858428001,2024-06-05 19:44:08.939714
0.979713816,-1.964208245,6.966104984,6.858428001,2024-06-05 19:44:08.979714
1.019713816,-1.964208245,6.966104984,6.858428001,2024-06-05 19:44:09.019714
1.059713816,-1.964208245,6.966104984,6.858428001,2024-06-05 19:44:09.059714
1.099713816,-1.964208245,6.966104984,6.858428001,2024-06-05 19:44:09.099714
1.139713816,-1.964208245,6.966104984,6.858428001,2024-06-05 19:44:09.139714
1.179713816,-30.99901772,-16.85115433,5.296513081,2024-06-05 19:44:09.179714
1.219713816,-30.99901772,-16.85115433,5.296513081,2024-06-05 19:44:09.219714
1.259713816,-30.99901772,-16.85115433,5.296513081,2024-06-05 19:44:09.259714
1.299713816,-30.99901772,-16.85115433,5.296513081,2024-06-05 19:44:09.299714
1.339713816,7.638188839,-2.716451883,6.670292377,2024-06-05 19:44:09.339714
1.379713816,7.638188839,-2.716451883,6.670292377,2024-06-05 19:44:09.379714
1.419713816,7.638188839,-2.716451883,6.670292377,2024-06-05 19:44:09.419714
1.459713816,7.638188839,-2.716451883,6.670292377,2024-06-05 19:44:09.459714
1.499713816,-0.9595218897,-4.342973232,5.882156372,2024-06-05 19:44:09.499714
1.539713816,-1.9797616,-6.338587284,1.528415442,2024-06-05 19:44:09.539714
1.579713816,6.592525482,-8.892027855,0.8587242365,2024-06-05 19:44:09.579714
1.619713816,-13.58375549,-12.21954727,7.864310741,2024-06-05 19:44:09.619714
1.659713816,-5.803193092,-2.255235434,2.54656148,2024-06-05 19:44:09.659714
1.699713816,-6.923034191,-5.969494343,7.645367622,2024-06-05 19:44:09.699714
1.739713816,-7.911269665,-5.525326729,3.637688637,2024-06-05 19:44:09.739714
1.779713816,-4.087838173,-6.073881149,-6.706184387,2024-06-05 19:44:09.779714
1.819713816,9.893424034,-13.77757359,-2.08534503,2024-06-05 19:44:09.819714
1.859713816,-1.48295188,-17.34826279,2.326122761,2024-06-05 19:44:09.859714
1.899713816,-8.887242317,-14.70957851,0.9667003751,2024-06-05 19:44:09.899714
1.939713816,19.24068642,-5.325226784,-6.852446079,2024-06-05 19:44:09.939714
1.979713816,3.987339735,-8.487341881,-3.232703447,2024-06-05 19:44:09.979714
2.019713816,6.252146244,-10.84217834,-4.602893353,2024-06-05 19:44:10.019714
2.059713816,3.477070332,-11.68056393,-4.403990269,2024-06-05 19:44:10.059714
2.099713816,-2.093719721,-10.39172935,-2.153540373,2024-06-05 19:44:10.099714
2.139713816,-1.619342685,-9.696913719,2.754737139,2024-06-05 19:44:10.139714
2.179713816,-1.619342685,-9.696913719,2.754737139,2024-06-05 19:44:10.179714
2.219713816,-4.584947109,-12.12353516,-3.72024107,2024-06-05 19:44:10.219714
2.259713816,-2.927319288,-11.56780243,1.802692771,2024-06-05 19:44:10.259714
2.299713816,-1.818246126,-15.18036556,7.358827114,2024-06-05 19:44:10.299714
2.339713816,-0.5724828243,-13.75244904,6.039185047,2024-06-05 19:44:10.339714
2.379713816,3.208775282,-13.66870022,-8.927920341,2024-06-05 19:44:10.379714
2.419713816,3.909573078,-14.59831142,2.550150633,2024-06-05 19:44:10.419714
2.459713816,3.097508907,-13.42911911,-3.843471289,2024-06-05 19:44:10.459714
2.499713816,0.8659027219,-7.867899895,0.9595218897,2024-06-05 19:44:10.499714
2.539713816,1.125823021,-5.325226784,-1.280459166,2024-06-05 19:44:10.539714
2.579713816,0.9990034699,-4.780261517,-3.072085142,2024-06-05 19:44:10.579714
2.619713816,3.18006134,-2.66739893,-2.562114954,2024-06-05 19:44:10.619714
2.659713816,5.756533146,-0.5174478889,-0.137886405,2024-06-05 19:44:10.659714
2.699713816,4.922634602,-7.920841217,5.534897804,2024-06-05 19:44:10.699714
2.739713816,-13.97049522,-33.4005127,17.62254143,2024-06-05 19:44:10.739714
2.779713816,1.650449395,-4.180261135,-1.412064433,2024-06-05 19:44:10.779714
2.819713816,5.013860703,-5.625824928,-5.044967651,2024-06-05 19:44:10.819714
2.859713816,5.991029739,-24.61018181,21.11277199,2024-06-05 19:44:10.859714
2.899713816,1.992922187,-3.542873144,-5.394618511,2024-06-05 19:44:10.899714
2.939713816,0.2347957194,-4.450949192,-6.243771553,2024-06-05 19:44:10.939714
2.979713816,2.898605585,-10.64327526,-4.483252525,2024-06-05 19:44:10.979714
3.019713816,-0.2012962103,-15.23181152,-3.285345554,2024-06-05 19:44:11.019714
3.059713816,-1.469492197,-8.193922043,3.862613916,2024-06-05 19:44:11.059714
3.099713816,1.594218135,-5.985047817,-1.927119493,2024-06-05 19:44:11.099714
3.139713816,0.6900302172,-9.379565239,-2.347658157,2024-06-05 19:44:11.139714
3.179713816,4.417449474,-7.986643791,11.57498074,2024-06-05 19:44:11.179714
3.219713816,-1.781157374,-12.55125237,1.285244823,2024-06-05 19:44:11.219714
3.259713816,-2.524727106,-15.07478237,3.34038043,2024-06-05 19:44:11.259714
3.299713816,0.2347957194,-19.02862358,16.16949844,2024-06-05 19:44:11.299714
3.339713816,10.64925671,-12.7310133,-4.459323883,2024-06-05 19:44:11.339714
3.379713816,2.892623425,-10.96301651,-6.563811779,2024-06-05 19:44:11.379714
3.419713816,3.740580082,-9.368798256,5.107180595,2024-06-05 19:44:11.419714
3.459713816,2.883052111,-7.991429329,-3.306880951,2024-06-05 19:44:11.459714
3.499713816,3.647259951,-1.250548959,-4.974379063,2024-06-05 19:44:11.499714
3.539713816,-1.520040631,-7.04387188,16.65225029,2024-06-05 19:44:11.539714
3.579713816,3.042174816,-13.74287796,-5.605485916,2024-06-05 19:44:11.579714
3.619713816,0.5557330847,-10.09591675,-3.387339592,2024-06-05 19:44:11.619714
3.659713816,2.438585281,-11.01326561,-4.519144535,2024-06-05 19:44:11.659714
3.699713816,-6.224628925,-12.46271801,14.02194023,2024-06-05 19:44:11.699714
3.739713816,0.561715126,-9.655039787,-2.550150633,2024-06-05 19:44:11.739714
3.779713816,-1.067198873,-8.789136887,0.2312064916,2024-06-05 19:44:11.779714
3.819713816,-3.506980658,-9.35204792,6.155237198,2024-06-05 19:44:11.819714
3.859713816,-0.6490531564,-8.948259354,4.25802803,2024-06-05 19:44:11.859714
3.899713816,-4.893920422,-9.69811058,7.993822098,2024-06-05 19:44:11.899714
3.939713816,-3.825525284,-14.85583973,7.167401314,2024-06-05 19:44:11.939714
3.979713816,5.270191669,-14.38983727,-3.134597778,2024-06-05 19:44:11.979714
4.019713816,-0.4504488707,-13.88435364,-1.868495345,2024-06-05 19:44:12.019714
4.059713816,2.148754835,-14.86182117,1.330708504,2024-06-05 19:44:12.059714
4.099713816,-0.4827519655,-9.129216194,1.088734269,2024-06-05 19:44:12.099714
4.139713816,0.4504488707,-5.616253853,-1.571486235,2024-06-05 19:44:12.139714
4.179713816,1.559522152,-4.552644253,-1.953440547,2024-06-05 19:44:12.179714
4.219713816,3.43160677,-4.023231983,-1.418046474,2024-06-05 19:44:12.219714
4.259713816,2.126022816,-4.903491974,1.575075507,2024-06-05 19:44:12.259714
4.299713816,3.504587889,-9.853942871,8.240582466,2024-06-05 19:44:12.299714
4.339713816,1.014556766,-11.17986584,8.106285095,2024-06-05 19:44:12.339714
4.379713816,4.69411993,-9.184251785,0.78095752,2024-06-05 19:44:12.379714
4.419713816,6.93619442,-22.16441727,-2.527119875,2024-06-05 19:44:12.419714
4.459713816,-7.434499741,-10.05523872,-13.30110264,2024-06-05 19:44:12.459714
4.499713816,-5.128716469,4.893920422,-0.4839483798,2024-06-05 19:44:12.499714
4.539713816,-0.07776673883,-5.88694191,-4.73360157,2024-06-05 19:44:12.539714
4.579713816,3.282952785,-19.11835289,8.174779892,2024-06-05 19:44:12.579714
4.619713816,3.129812002,-9.249156952,-0.4719842672,2024-06-05 19:44:12.619714
4.659713816,2.87467742,-7.713562965,-0.4253242314,2024-06-05 19:44:12.659714
4.699713816,2.87467742,-7.713562965,-0.4253242314,2024-06-05 19:44:12.699714
4.739713816,1.354636669,-10.45035362,2.358425856,2024-06-05 19:44:12.739714
4.779713816,1.479362607,-8.742476463,-1.613360643,2024-06-05 19:44:12.779714
4.819713816,2.501995087,-9.080163956,-2.036292076,2024-06-05 19:44:12.819714
4.859713816,2.654238462,-10.22871876,-2.221735716,2024-06-05 19:44:12.859714
4.899713816,2.972783089,-9.791728973,2.942872763,2024-06-05 19:44:12.899714
4.939713816,2.041077614,-9.395118713,-1.028913736,2024-06-05 19:44:12.939714
4.979713816,2.066202402,-9.870692253,-1.608574986,2024-06-05 19:44:12.979714
5.019713816,2.621935368,-10.83470058,1.764407635,2024-06-05 19:44:13.019714
5.059713816,6.344569206,-10.64686394,1.260120273,2024-06-05 19:44:13.059714
5.099713816,5.617450237,-11.97517967,3.387339592,2024-06-05 19:44:13.099714
5.139713816,4.339384079,-12.25065327,4.269991875,2024-06-05 19:44:13.139714
5.179713816,1.292423368,-5.567201138,3.481856108,2024-06-05 19:44:13.179714
5.219713816,-3.230310678,-6.21505785,3.577569008,2024-06-05 19:44:13.219714
5.259713816,-1.413260818,-5.829514027,2.274377823,2024-06-05 19:44:13.259714
5.299713816,0.5126622319,-5.392225742,2.57766819,2024-06-05 19:44:13.299714
5.339713816,3.079562664,-5.780461311,1.885245085,2024-06-05 19:44:13.339714
5.379713816,6.041578293,-8.202297211,2.284248352,2024-06-05 19:44:13.379714
5.419713816,4.846064091,-7.751848221,1.837388635,2024-06-05 19:44:13.419714
5.459713816,1.43359983,-11.43021488,-1.465902925,2024-06-05 19:44:13.459714
5.499713816,1.43359983,-11.43021488,-1.465902925,2024-06-05 19:44:13.499714
5.499713816,1.582253933,-13.01964664,0.3245265782,2024-06-05 19:44:13.499714
5.579713816,3.054138899,-11.01446152,0.2659024298,2024-06-05 19:44:13.579714
5.619713816,5.537290573,-10.77009487,3.169293642,2024-06-05 19:44:13.619714
5.659713816,2.586043119,-11.03001499,3.796811342,2024-06-05 19:44:13.659714
5.699713816,3.362214804,-8.811868668,-0.3317050338,2024-06-05 19:44:13.699714
5.739713816,1.879263043,-8.268099785,-0.2371885478,2024-06-05 19:44:13.739714
5.779713816,-0.7558328509,-10.22393322,-4.345366001,2024-06-05 19:44:13.779714
5.819713816,-1.024128079,-12.11874962,-3.042174816,2024-06-05 19:44:13.819714
5.859713816,-1.024128079,-12.11874962,-3.042174816,2024-06-05 19:44:13.859714
5.899713816,0.9559326172,-8.747262001,0.1172483116,2024-06-05 19:44:13.899714
5.939713816,1.201196909,-9.614361763,-0.494716078,2024-06-05 19:44:13.939714
5.979713816,0.8587242365,-9.071788788,-2.015953064,2024-06-05 19:44:13.979714
6.019713816,0.7342974544,-10.09591675,-2.14157629,2024-06-05 19:44:14.019714
6.059713816,-0.560518682,-9.365208626,-0.9822536707,2024-06-05 19:44:14.059714
6.099713816,-0.4229314029,-9.454939842,-2.068595171,2024-06-05 19:44:14.099714
6.139713816,-0.1630110443,-9.71605587,-2.641077995,2024-06-05 19:44:14.139714
6.179713816,1.427617788,-9.652647018,0.4205385745,2024-06-05 19:44:14.179714
6.219713816,0.509073019,-9.898209572,2.939283609,2024-06-05 19:44:14.219714
6.259713816,0.03469592705,-11.81695461,-0.7151548862,2024-06-05 19:44:14.259714
6.299713816,2.848356247,-13.22901917,4.197010994,2024-06-05 19:44:14.299714
6.339713816,5.322834015,-12.36909866,6.061916828,2024-06-05 19:44:14.339714
6.379713816,5.344369411,-11.09581757,7.744669437,2024-06-05 19:44:14.379714
6.419713816,4.274777889,-10.05165005,-1.480558991,2024-06-05 19:44:14.419714
6.459713816,0.2168495506,-9.07059288,-4.511966228,2024-06-05 19:44:14.459714
6.499713816,0.137886405,-9.735198975,-1.042074203,2024-06-05 19:44:14.499714
6.539713816,-0.1354935765,-10.57388306,3.609872103,2024-06-05 19:44:14.539714
6.579713816,2.945265532,-7.141079903,2.273181438,2024-06-05 19:44:14.579714
6.619713816,3.732205153,-6.197111607,1.922333837,2024-06-05 19:44:14.619714
6.659713816,2.902194738,-7.735098362,0.3508476317,2024-06-05 19:44:14.659714
6.699713816,2.120040894,-6.273681641,1.211067319,2024-06-05 19:44:14.699714
6.739713816,2.413460732,-2.699702263,-2.290230274,2024-06-05 19:44:14.739714
6.779713816,-0.7917252183,-8.099106789,26.12184715,2024-06-05 19:44:14.779714
6.819713816,3.681955814,-14.88574982,-1.710269928,2024-06-05 19:44:14.819714
6.859713816,3.681955814,-14.88574982,-1.710269928,2024-06-05 19:44:14.859714
6.899713816,0.2252244353,-8.320741653,1.619342685,2024-06-05 19:44:14.899714
6.939713816,0.6876373887,-9.524630547,4.072285175,2024-06-05 19:44:14.939714
6.979713816,-3.023032188,-10.51496029,1.809871197,2024-06-05 19:44:14.979714
7.019713816,2.645863533,-9.307781219,0.3664009571,2024-06-05 19:44:15.019714
7.059713816,1.347458243,-9.69452095,-0.8108677864,2024-06-05 19:44:15.059714
7.099713816,0.0239282269,-10.05045319,3.495016575,2024-06-05 19:44:15.099714
7.139713816,2.091326952,-8.608179092,1.220638633,2024-06-05 19:44:15.139714
7.179713816,3.06610322,-7.908876896,0.4528416991,2024-06-05 19:44:15.179714
7.219713816,-0.1316052526,-11.56660557,0.5162515044,2024-06-05 19:44:15.219714
7.259713816,-0.1316052526,-11.56660557,0.5162515044,2024-06-05 19:44:15.259714
7.299713816,8.130212784,-8.450253487,-0.9523434043,2024-06-05 19:44:15.299714
7.339713816,6.544369698,-11.23968601,1.927119493,2024-06-05 19:44:15.339714
7.379713816,6.519245148,-6.774380207,-0.002392822644,2024-06-05 19:44:15.379714
7.419713816,5.387440205,-8.08953476,0.007178467698,2024-06-05 19:44:15.419714
7.459713816,5.34676218,-8.168797493,1.015753269,2024-06-05 19:44:15.459714
7.499713816,3.913162231,-10.77129078,3.297309637,2024-06-05 19:44:15.499714
7.539713816,3.099901676,-7.4010005,2.021935225,2024-06-05 19:44:15.539714
7.579713816,4.983950615,-4.540679932,2.76909399,2024-06-05 19:44:15.579714
7.619713816,6.482156754,-7.839186192,2.179861546,2024-06-05 19:44:15.619714
7.659713816,6.909873486,-6.848856449,1.415653706,2024-06-05 19:44:15.659714
7.699713816,5.902495384,-7.869096279,3.052942514,2024-06-05 19:44:15.699714
7.739713816,4.345366001,-10.40608692,3.933501244,2024-06-05 19:44:15.739714
7.779713816,1.48295188,-7.894220829,4.072285175,2024-06-05 19:44:15.779714
7.819713816,1.518844128,-7.849953651,0.6466603279,2024-06-05 19:44:15.819714
7.859713816,6.428318024,-6.047560215,-1.777568102,2024-06-05 19:44:15.859714
7.899713816,6.593721867,-6.307480335,0.2288136631,2024-06-05 19:44:15.899714
7.939713816,6.593721867,-6.307480335,0.2288136631,2024-06-05 19:44:15.939714
7.979713816,7.17457962,-8.746066093,3.962215185,2024-06-05 19:44:15.979714
8.019713816,8.341080666,-11.52233791,5.525326729,2024-06-05 19:44:16.019714
8.059713816,8.341080666,-11.52233791,5.525326729,2024-06-05 19:44:16.059714
8.099713816,-0.4588237405,-10.82034397,-1.027717352,2024-06-05 19:44:16.099714
8.139713816,-0.4588237405,-10.82034397,-1.027717352,2024-06-05 19:44:16.139714
8.179713816,-1.050449133,-11.42303658,3.361018419,2024-06-05 19:44:16.179714
8.219713816,5.103591442,-11.0491581,1.082752228,2024-06-05 19:44:16.219714
8.259713816,4.811367989,-6.217450619,0.03469592705,2024-06-05 19:44:16.259714
8.299713816,-0.09571290761,-11.56182003,5.104787827,2024-06-05 19:44:16.299714
8.339713816,-1.107876897,-10.22871876,0.3209373355,2024-06-05 19:44:16.339714
8.379713816,2.284248352,-8.72811985,3.327219963,2024-06-05 19:44:16.379714
8.419713816,0.994217813,-9.331708908,3.416053534,2024-06-05 19:44:16.419714
8.459713816,0.5306084156,-7.711170197,2.922533751,2024-06-05 19:44:16.459714
8.499713816,0.5102694035,-9.954441071,4.926223755,2024-06-05 19:44:16.499714
8.539713816,3.393321514,-7.744669437,4.175475597,2024-06-05 19:44:16.539714
8.579713816,3.656831264,-6.695416927,4.608875751,2024-06-05 19:44:16.579714
8.619713816,4.595715046,-8.189136505,5.328815937,2024-06-05 19:44:16.619714
8.659713816,7.93878746,-7.245167732,6.946962357,2024-06-05 19:44:16.659714
8.699713816,6.042774677,-4.947759151,7.271489143,2024-06-05 19:44:16.699714
8.739713816,4.435395718,-9.187840462,8.69192791,2024-06-05 19:44:16.739714
8.779713816,0.779761076,-3.268595695,7.86670351,2024-06-05 19:44:16.779714
8.819713816,3.825525284,3.664009571,6.049952984,2024-06-05 19:44:16.819714
8.859713816,2.612364054,-6.740880489,9.06341362,2024-06-05 19:44:16.859714
8.899713816,6.118148327,0.3424727321,6.415157318,2024-06-05 19:44:16.899714
8.939713816,6.168397903,0.323330164,8.742476463,2024-06-05 19:44:16.939714
8.979713816,9.381958008,2.302194595,8.575876236,2024-06-05 19:44:16.979714
9.019713816,6.782754898,0.8419744968,7.621140003,2024-06-05 19:44:17.019714
9.059713816,2.594418049,2.917748213,13.4662075,2024-06-05 19:44:17.059714
9.099713816,6.851249218,-0.941575706,4.476073742,2024-06-05 19:44:17.099714
9.139713816,9.656235695,-4.036392689,-1.045663476,2024-06-05 19:44:17.139714
9.179713816,0.4169493318,0.9017950296,-4.558626175,2024-06-05 19:44:17.179714
9.219713816,9.559326172,-17.09432411,13.00409412,2024-06-05 19:44:17.219714
9.259713816,-10.52692413,-17.33271027,-17.35185242,2024-06-05 19:44:17.259714
9.299713816,1.379761338,-8.80708313,12.42533016,2024-06-05 19:44:17.299714
9.339713816,8.114660263,-9.706484795,8.77836895,2024-06-05 19:44:17.339714
9.379713816,-3.093919754,-9.25394249,8.156534195,2024-06-05 19:44:17.379714
9.419713816,2.556132793,-4.920241356,11.01924706,2024-06-05 19:44:17.419714
9.459713816,2.556132793,-4.920241356,11.01924706,2024-06-05 19:44:17.459714
9.499713816,0.7378866673,-7.817650795,7.943572998,2024-06-05 19:44:17.499714
9.539713816,2.461317301,-7.165008068,6.755237579,2024-06-05 19:44:17.539714
9.579713816,5.356333256,-5.913262844,6.122933865,2024-06-05 19:44:17.579714
9.619713816,4.087838173,-5.786443233,3.465106249,2024-06-05 19:44:17.619714
9.659713816,4.303491592,-7.247560501,2.493620396,2024-06-05 19:44:17.659714
9.699713816,3.642474174,-8.199904442,5.670092583,2024-06-05 19:44:17.699714
9.739713816,4.939383984,-5.120341301,7.315756321,2024-06-05 19:44:17.739714
9.779713816,4.939383984,-5.120341301,7.315756321,2024-06-05 19:44:17.779714
9.819713816,5.377869129,-4.024428368,19.05015755,2024-06-05 19:44:17.819714
9.859713816,0.7977072597,-2.847159863,1.824228168,2024-06-05 19:44:17.859714
9.899713816,9.450154305,-9.566504478,3.217149973,2024-06-05 19:44:17.899714
9.939713816,1.536790371,-8.221439362,6.91106987,2024-06-05 19:44:17.939714
9.979713816,-2.167897224,-4.262813568,6.779165745,2024-06-05 19:44:17.979714
10.01971382,-10.60977554,-5.089234829,22.90110779,2024-06-05 19:44:18.019714
10.05971382,7.421339512,-4.104588032,-10.18564796,2024-06-05 19:44:18.059714
10.09971382,7.243971348,-12.67328644,1.631306887,2024-06-05 19:44:18.099714
10.13971382,-1.3522439,-23.93929291,9.97956562,2024-06-05 19:44:18.139714
10.17971382,2.638685226,-5.019842625,2.382354021,2024-06-05 19:44:18.179714
10.21971382,4.962415218,-9.157930374,4.759922504,2024-06-05 19:44:18.219714
10.25971382,-1.654038668,-9.986744881,3.803989887,2024-06-05 19:44:18.259714
10.29971382,0.6634100676,-8.694320679,5.493023396,2024-06-05 19:44:18.299714
10.33971382,2.021935225,-5.504987717,4.427021027,2024-06-05 19:44:18.339714
10.37971382,1.353440285,-6.290730953,5.270191669,2024-06-05 19:44:18.379714
10.41971382,3.413660526,-7.786543846,8.136195183,2024-06-05 19:44:18.419714
10.45971382,4.970789909,0.3544368446,3.875774384,2024-06-05 19:44:18.459714
10.49971382,7.930412292,-6.687041759,8.312366486,2024-06-05 19:44:18.499714
10.53971382,-2.335694075,-10.44317532,1.402493119,2024-06-05 19:44:18.539714
10.57971382,7.707581043,-5.135894775,10.11625576,2024-06-05 19:44:18.579714
10.61971382,1.857727647,2.461317301,8.898010254,2024-06-05 19:44:18.619714
10.65971382,1.857727647,2.461317301,8.898010254,2024-06-05 19:44:18.659714
10.69971382,4.253242016,-17.34108543,-1.101894855,2024-06-05 19:44:18.699714
10.73971382,9.068199158,-0.4480560422,7.093223572,2024-06-05 19:44:18.739714
10.77971382,17.770895,-18.48844337,20.86840439,2024-06-05 19:44:18.779714
10.81971382,3.93828702,-10.38694382,6.431907177,2024-06-05 19:44:18.819714
10.85971382,6.961319447,1.26490593,-5.337191105,2024-06-05 19:44:18.859714
10.89971382,8.314759254,-0.9750752449,-6.180361748,2024-06-05 19:44:18.899714
10.93971382,6.593721867,-2.536691189,-7.797311783,2024-06-05 19:44:18.939714
10.97971382,6.434299946,-5.876173973,-8.860920906,2024-06-05 19:44:18.979714
11.01971382,3.007478952,-28.82154846,-16.12044525,2024-06-05 19:44:19.019714
11.05971382,12.76092339,-31.29124069,-6.048756599,2024-06-05 19:44:19.059714
11.09971382,4.696512699,-15.50848198,-7.875078201,2024-06-05 19:44:19.099714
11.13971382,0.1498505175,-4.186243057,-6.069095612,2024-06-05 19:44:19.139714
11.17971382,-11.53430271,-13.72373486,1.40847528,2024-06-05 19:44:19.179714
11.21971382,-13.19432354,-18.17707634,-3.625724554,2024-06-05 19:44:19.219714
11.25971382,-5.211268425,-14.03869057,3.981357813,2024-06-05 19:44:19.259714
11.29971382,-4.29392004,-15.45464325,-4.328616142,2024-06-05 19:44:19.299714
11.33971382,-0.4085744619,-7.418946743,-2.948854923,2024-06-05 19:44:19.339714
11.37971382,0.9978070259,-5.315655708,-2.418246269,2024-06-05 19:44:19.379714
11.41971382,3.422035456,-5.023432255,27.74597549,2024-06-05 19:44:19.419714
11.45971382,3.422035456,-5.023432255,27.74597549,2024-06-05 19:44:19.459714
11.49971382,-11.53669548,-16.40309906,-2.91655159,2024-06-05 19:44:19.499714
11.53971382,18.72443581,-16.9731884,-16.57209206,2024-06-05 19:44:19.539714
11.57971382,0.832403183,-3.181257725,9.308977127,2024-06-05 19:44:19.579714
11.61971382,13.31426334,20.66351891,6.521637917,2024-06-05 19:44:19.619714
11.65971382,3.901198149,15.61376572,-5.432903767,2024-06-05 19:44:19.659714
11.69971382,4.765904427,4.618446827,-2.367997169,2024-06-05 19:44:19.699714
11.73971382,2.069791555,-9.285049438,-11.70090294,2024-06-05 19:44:19.739714
11.77971382,3.588336706,-24.50250435,-12.93440247,2024-06-05 19:44:19.779714
11.81971382,4.989932537,-25.53709984,-22.62204361,2024-06-05 19:44:19.819714
11.85971382,4.662714005,-8.630910873,-3.857828379,2024-06-05 19:44:19.859714
11.89971382,-4.35852623,-15.14806271,-13.9238348,2024-06-05 19:44:19.899714
11.93971382,-12.04935741,-38.78556061,4.62203598,2024-06-05 19:44:19.939714
11.97971382,-0.1749751568,-34.20539856,31.20629501,2024-06-05 19:44:19.979714
12.01971382,-16.74946022,-19.91965103,7.698009491,2024-06-05 19:44:20.019714
12.05971382,-5.090431213,-18.93291092,-4.983950615,2024-06-05 19:44:20.059714
12.09971382,-1.188036442,-21.87578201,-3.227917671,2024-06-05 19:44:20.099714
12.13971382,0.9571290612,-4.065106392,-5.546862125,2024-06-05 19:44:20.139714
12.17971382,5.849853039,-12.80160141,-2.297408819,2024-06-05 19:44:20.179714
12.21971382,3.787240028,-9.306584358,-0.5054838061,2024-06-05 19:44:20.219714
12.25971382,3.787240028,-9.306584358,-0.5054838061,2024-06-05 19:44:20.259714
12.29971382,-5.756533146,-6.745666027,0.7737790346,2024-06-05 19:44:20.299714
12.33971382,-6.852446079,-7.221239567,-3.048156977,2024-06-05 19:44:20.339714
12.37971382,-3.915555239,-11.1690979,0.9559326172,2024-06-05 19:44:20.379714
12.41971382,-3.554837227,-13.92862034,2.990729094,2024-06-05 19:44:20.419714
12.45971382,-7.178168774,-13.2397871,8.911170959,2024-06-05 19:44:20.459714
12.49971382,-8.048856735,-12.81835079,2.967997313,2024-06-05 19:44:20.499714
12.53971382,2.420639277,-15.63290882,-1.27328074,2024-06-05 19:44:20.539714
12.57971382,0.3101696372,-26.04976273,6.351747513,2024-06-05 19:44:20.579714
12.61971382,-5.731109142,-22.60379982,5.555236816,2024-06-05 19:44:20.619714
12.65971382,-0.2024926096,-12.88056469,-2.717648268,2024-06-05 19:44:20.659714
12.69971382,-0.3017947674,-3.617349625,-1.683948994,2024-06-05 19:44:20.699714
12.73971382,1.104287624,-0.7390831113,-2.615953445,2024-06-05 19:44:20.739714
12.77971382,4.069892406,1.949851394,0.1606182158,2024-06-05 19:44:20.779714
12.81971382,1.891227245,1.47457695,0.01914258115,2024-06-05 19:44:20.819714
12.85971382,0.07537391037,-0.4253242314,11.08504963,2024-06-05 19:44:20.859714
12.89971382,3.114258766,-11.33061314,-16.63430405,2024-06-05 19:44:20.899714
12.93971382,13.66630745,-54.56114197,4.38724041,2024-06-05 19:44:20.939714
12.97971382,2.469691992,1.392921925,-11.17986584,2024-06-05 19:44:20.979714
13.01971382,-0.5796613097,-0.6107679605,-5.701199055,2024-06-05 19:44:21.019714
13.05971382,0.07058826834,-2.979961395,-1.266102314,2024-06-05 19:44:21.059714
13.09971382,1.785943031,-21.84587288,-5.930012703,2024-06-05 19:44:21.099714
13.13971382,-6.099005699,-10.92951679,-0.456430912,2024-06-05 19:44:21.139714
13.17971382,-4.140480518,-12.10199928,2.344068766,2024-06-05 19:44:21.179714
13.21971382,-4.140480518,-12.10199928,2.344068766,2024-06-05 19:44:21.219714
13.25971382,5.181358337,-8.077570915,-0.728315413,2024-06-05 19:44:21.259714
13.29971382,5.157430172,-4.080659866,9.680164337,2024-06-05 19:44:21.299714
13.33971382,4.289134502,-9.789336205,-26.29532623,2024-06-05 19:44:21.339714
13.37971382,-9.983155251,-19.68036842,-8.445467949,2024-06-05 19:44:21.379714
13.41971382,-8.504091263,-2.063809633,3.308077335,2024-06-05 19:44:21.419714
13.45971382,-2.038684845,7.232007504,-2.518744946,2024-06-05 19:44:21.459714
13.49971382,-5.028217793,-4.586143494,8.685946465,2024-06-05 19:44:21.499714
13.53971382,3.975375652,-20.71855354,11.98235893,2024-06-05 19:44:21.539714
13.57971382,8.531609535,-10.03460121,14.25793266,2024-06-05 19:44:21.579714
13.61971382,3.683152199,-16.96002769,11.88634682,2024-06-05 19:44:21.619714
13.65971382,9.914959908,-13.95613766,9.32692337,2024-06-05 19:44:21.659714
13.69971382,5.780461311,-14.11436367,5.025825024,2024-06-05 19:44:21.699714
13.73971382,0.6732804775,-9.663414001,2.230110645,2024-06-05 19:44:21.739714
13.77971382,1.747657895,-9.794121742,3.291327477,2024-06-05 19:44:21.779714
13.81971382,1.927119493,-8.890831947,5.931209087,2024-06-05 19:44:21.819714
13.85971382,0.1172483116,-9.222537041,5.601896763,2024-06-05 19:44:21.859714
13.89971382,4.830510616,-6.130112648,4.259224415,2024-06-05 19:44:21.899714
13.93971382,0.7666005492,-4.926223755,-2.924926519,2024-06-05 19:44:21.939714
13.97971382,-1.230209947,-3.753740549,-4.176671982,2024-06-05 19:44:21.979714
14.01971382,1.444367528,-3.072085142,-2.228914261,2024-06-05 19:44:22.019714
14.05971382,4.370490551,-1.593021631,0.4205385745,2024-06-05 19:44:22.059714
14.09971382,6.425925255,-4.41625309,0.9882357717,2024-06-05 19:44:22.099714
14.13971382,-5.607879162,-36.59613037,17.9901371,2024-06-05 19:44:22.139714
14.17971382,8.246563911,-4.947759151,-2.51994133,2024-06-05 19:44:22.179714
14.21971382,-1.557129383,-9.413064957,-3.332005501,2024-06-05 19:44:22.219714
14.25971382,2.816053152,-16.383955,2.613560438,2024-06-05 19:44:22.259714
14.29971382,3.608675718,-12.4495573,0.2324029058,2024-06-05 19:44:22.299714
14.33971382,-3.150151014,-22.41476631,4.635196686,2024-06-05 19:44:22.339714
14.37971382,-21.42413712,-19.45035744,1.38574338,2024-06-05 19:44:22.379714
14.41971382,-6.715755939,-2.535494804,3.36700058,2024-06-05 19:44:22.419714
14.45971382,5.607879162,-10.22871876,1.989332914,2024-06-05 19:44:22.459714
14.49971382,6.421139717,-14.3383913,0.1941177398,2024-06-05 19:44:22.499714
14.53971382,6.139683723,-16.86431503,-1.646860242,2024-06-05 19:44:22.539714
14.57971382,14.93480206,-16.43659782,4.144069672,2024-06-05 19:44:22.579714
14.61971382,6.6762743,-10.16052341,-0.3352942765,2024-06-05 19:44:22.619714
14.65971382,3.135794163,-7.303792,-4.988736153,2024-06-05 19:44:22.659714
14.69971382,1.812264085,-4.840082169,-1.221835017,2024-06-05 19:44:22.699714
14.73971382,2.948854923,-2.060220242,-1.141376376,2024-06-05 19:44:22.739714
14.77971382,2.680559635,0.4061816335,-1.476969719,2024-06-05 19:44:22.779714
14.81971382,2.454138756,0.3699901998,0.1630110443,2024-06-05 19:44:22.819714
14.85971382,-4.828117847,-10.52453136,10.97139072,2024-06-05 19:44:22.859714
14.89971382,-4.828117847,-10.52453136,10.97139072,2024-06-05 19:44:22.899714
14.93971382,6.754041195,-9.598808289,-3.557229996,2024-06-05 19:44:22.939714
14.97971382,7.893024445,-21.66132545,2.264806747,2024-06-05 19:44:22.979714
15.01971382,2.255235434,-4.097409725,-4.438984871,2024-06-05 19:44:23.019714
15.05971382,5.77208662,-15.97448444,-9.298210144,2024-06-05 19:44:23.059714
15.09971382,-0.2288136631,-13.18953705,-4.141676903,2024-06-05 19:44:23.099714
15.13971382,1.569093466,-8.431110382,3.341576815,2024-06-05 19:44:23.139714
15.17971382,-0.6622136831,-7.404589653,3.901198149,2024-06-05 19:44:23.179714
15.21971382,-0.07058826834,-8.746066093,-2.877070189,2024-06-05 19:44:23.219714
15.25971382,-0.5437689424,-9.760323524,9.105288506,2024-06-05 19:44:23.259714
15.29971382,-2.645863533,-10.26341438,-1.475773335,2024-06-05 19:44:23.299714
15.33971382,-2.692523718,-8.422436714,8.917152405,2024-06-05 19:44:23.339714
15.37971382,-0.7055835724,-12.57757282,3.413660526,2024-06-05 19:44:23.379714
15.41971382,-0.3412763178,-21.29014015,9.379565239,2024-06-05 19:44:23.419714
15.45971382,4.289134502,-9.876674652,-1.020538807,2024-06-05 19:44:23.459714
15.49971382,2.195414782,-10.0082798,-3.227917671,2024-06-05 19:44:23.499714
15.53971382,0.9571290612,-10.75334454,-2.397907495,2024-06-05 19:44:23.539714
15.57971382,-2.491227388,-11.32822037,1.339083314,2024-06-05 19:44:23.579714
15.61971382,0.8156534433,-3.187239647,-2.214557409,2024-06-05 19:44:23.619714
15.65971382,-1.882852316,-6.063113689,5.918048382,2024-06-05 19:44:23.659714
15.69971382,-1.882852316,-6.063113689,5.918048382,2024-06-05 19:44:23.699714
15.73971382,3.722633839,-3.867399693,2.167897224,2024-06-05 19:44:23.739714
15.77971382,4.865206718,-4.162314892,-1.033699393,2024-06-05 19:44:23.779714
15.81971382,1.155733347,-16.88704681,-2.111665964,2024-06-05 19:44:23.819714
15.85971382,0.6550351977,-7.107580662,3.58355093,2024-06-05 19:44:23.859714
15.89971382,2.87467742,-12.29372501,-5.041378021,2024-06-05 19:44:23.899714
15.93971382,3.195614576,-10.87328529,0.8216354847,2024-06-05 19:44:23.939714
15.97971382,3.708276987,-9.48484993,-0.8898309469,2024-06-05 19:44:23.979714
16.01971382,5.701199055,-11.11645603,-0.8994022012,2024-06-05 19:44:24.019714
16.05971382,3.265006542,-23.93091774,22.23979187,2024-06-05 19:44:24.059714
16.09971382,-2.345265388,-12.40857983,2.772683144,2024-06-05 19:44:24.099714
16.13971382,-0.308973223,-9.923335075,-1.19880414,2024-06-05 19:44:24.139714
16.17971382,-0.4085744619,-7.60319376,-4.388436794,2024-06-05 19:44:24.179714
16.21971382,-1.172483087,-9.206983566,-2.151147604,2024-06-05 19:44:24.219714
16.25971382,-2.497209549,-6.73848772,3.500998735,2024-06-05 19:44:24.259714
16.29971382,-0.2850449979,-7.829614639,5.902495384,2024-06-05 19:44:24.299714
16.33971382,0.5174478889,-10.4096756,-0.4552344978,2024-06-05 19:44:24.339714
16.37971382,2.656631231,-7.634599686,-1.888834357,2024-06-05 19:44:24.379714
16.41971382,2.216950178,-8.051250458,-0.6622136831,2024-06-05 19:44:24.419714
16.45971382,2.216950178,-8.051250458,-0.6622136831,2024-06-05 19:44:24.459714
16.45971382,0.5653043389,-8.554341316,3.025425196,2024-06-05 19:44:24.459714
16.53971382,0.9499505758,-10.76411247,-1.79671073,2024-06-05 19:44:24.539714
16.57971382,4.210171223,-7.884649754,-1.088734269,2024-06-05 19:44:24.579714
16.61971382,4.405186653,-9.019146919,-2.972783089,2024-06-05 19:44:24.619714
16.65971382,2.21216464,-14.96112347,8.242975235,2024-06-05 19:44:24.659714
16.69971382,2.486441851,-13.42433357,15.26531124,2024-06-05 19:44:24.699714
16.73971382,-1.125823021,-12.7250309,9.078967094,2024-06-05 19:44:24.739714
16.77971382,-1.106680512,-5.379065514,0.8491529226,2024-06-05 19:44:24.779714
16.81971382,-0.009571290575,-4.527519703,0.908973515,2024-06-05 19:44:24.819714
16.85971382,0.8766704202,-5.29292345,-2.674577475,2024-06-05 19:44:24.859714
16.89971382,1.214656591,-5.47597456,-2.824428082,2024-06-05 19:44:24.899714
16.93971382,0.7163512707,-8.04287529,-3.157329559,2024-06-05 19:44:24.939714
16.97971382,1.160519004,-10.67677498,-2.66739893,2024-06-05 19:44:24.979714
17.01971382,2.059023857,-11.54506969,0.8659027219,2024-06-05 19:44:25.019714
17.05971382,3.735794306,-11.02762222,-1.473380566,2024-06-05 19:44:25.059714
17.09971382,9.938887596,-11.34616661,-0.2766701281,2024-06-05 19:44:25.099714
17.13971382,6.024828434,-17.19003868,10.48385334,2024-06-05 19:44:25.139714
17.17971382,-0.05982056633,-11.00967598,1.214656591,2024-06-05 19:44:25.179714
17.21971382,-4.872385025,-20.63241196,18.07059669,2024-06-05 19:44:25.219714
17.25971382,-4.872385025,-20.63241196,18.07059669,2024-06-05 19:44:25.259714
17.29971382,-0.5078766346,-5.713163376,-3.393321514,2024-06-05 19:44:25.299714
17.33971382,0.5988038778,-6.563811779,-1.65164578,2024-06-05 19:44:25.339714
17.37971382,-1.418046474,-8.01416111,-3.058924675,2024-06-05 19:44:25.379714
17.41971382,-0.6299105883,-7.521838188,-0.9547362328,2024-06-05 19:44:25.419714
17.45971382,-0.8934201598,-10.55563831,-0.3819543123,2024-06-05 19:44:25.459714
17.49971382,2.764308453,-13.27478218,22.0241375,2024-06-05 19:44:25.499714
17.53971382,2.032702923,-10.19880867,-8.20468998,2024-06-05 19:44:25.539714
17.57971382,1.602592945,-7.66092062,-3.02063942,2024-06-05 19:44:25.579714
17.61971382,1.475773335,-8.80708313,-4.853242397,2024-06-05 19:44:25.619714
17.65971382,2.605185747,-8.258528709,-0.8862416744,2024-06-05 19:44:25.659714
17.69971382,4.180261135,-9.397511482,1.905584097,2024-06-05 19:44:25.699714
17.73971382,9.528220177,-11.64706421,-0.03948157281,2024-06-05 19:44:25.739714
17.77971382,6.852446079,-14.05693531,11.22772217,2024-06-05 19:44:25.779714
17.81971382,-5.03300333,-13.77996635,7.163811684,2024-06-05 19:44:25.819714
17.85971382,-3.162115097,-8.962615967,2.627917528,2024-06-05 19:44:25.859714
17.89971382,-0.6346961856,-6.443871498,-1.329512119,2024-06-05 19:44:25.899714
17.93971382,0.7199404836,-5.781657696,0.4923232496,2024-06-05 19:44:25.939714
17.97971382,4.077070713,-4.904688358,5.33599472,2024-06-05 19:44:25.979714
18.01971382,2.841177702,-8.405686378,3.017050266,2024-06-05 19:44:26.019714
18.05971382,-0.5198407173,-8.748458862,-0.2443670183,2024-06-05 19:44:26.059714
18.09971382,-0.6466603279,-10.04566765,-0.9257232547,2024-06-05 19:44:26.099714
18.13971382,1.232602715,-9.767501831,2.176272154,2024-06-05 19:44:26.139714
18.17971382,11.21815109,-7.390232563,0.5509474277,2024-06-05 19:44:26.179714
18.21971382,7.331309319,-8.129016876,0.195314154,2024-06-05 19:44:26.219714
18.25971382,2.782254457,-8.482556343,-0.2431706041,2024-06-05 19:44:26.259714
18.29971382,0.8730811477,-8.483752251,-1.819442511,2024-06-05 19:44:26.299714
18.33971382,2.096112728,-12.73340607,-2.090130568,2024-06-05 19:44:26.339714
18.37971382,2.574079037,-13.05912876,6.919445038,2024-06-05 19:44:26.379714
18.41971382,-0.7199404836,-11.08624649,1.388136268,2024-06-05 19:44:26.419714
18.45971382,-0.4612165689,-12.24945736,-2.001296997,2024-06-05 19:44:26.459714
18.49971382,-2.64227438,-13.10937786,-1.794317842,2024-06-05 19:44:26.499714
18.53971382,-2.861516714,-11.11406326,-0.02512463741,2024-06-05 19:44:26.539714
18.57971382,-3.098705292,-9.243174553,-1.745265007,2024-06-05 19:44:26.579714
18.61971382,-1.571486235,-7.129116058,-2.350050926,2024-06-05 19:44:26.619714
18.65971382,0.6215356588,-6.459424496,-1.290030479,2024-06-05 19:44:26.659714
18.69971382,0.590429008,-8.034500122,-1.27328074,2024-06-05 19:44:26.699714
18.73971382,3.132204771,-8.111070633,-1.771586061,2024-06-05 19:44:26.739714
18.77971382,1.459920883,-10.4790678,-4.114159584,2024-06-05 19:44:26.779714
18.81971382,1.554736495,-12.31884956,5.344369411,2024-06-05 19:44:26.819714
18.85971382,-1.099501967,-11.33420277,1.04685986,2024-06-05 19:44:26.859714
18.89971382,-0.3376871049,-11.23250771,-0.308973223,2024-06-05 19:44:26.899714
18.93971382,-0.3376871049,-11.23250771,-0.308973223,2024-06-05 19:44:26.939714
18.97971382,0.06939185411,-9.338887215,-1.452742457,2024-06-05 19:44:26.979714
19.01971382,1.030110121,-10.3223381,2.159522533,2024-06-05 19:44:27.019714
19.05971382,-1.698305845,-12.89611721,0.7474579811,2024-06-05 19:44:27.059714
19.09971382,-1.05523479,-12.9451704,-0.323330164,2024-06-05 19:44:27.099714
19.13971382,4.114159584,-9.639486313,7.451249599,2024-06-05 19:44:27.139714
19.17971382,4.078267097,-10.7114706,4.553840637,2024-06-05 19:44:27.179714
19.21971382,1.958226204,-10.23948669,-4.643571377,2024-06-05 19:44:27.219714
19.25971382,0.1148554832,-9.104091644,-7.505088329,2024-06-05 19:44:27.259714
19.29971382,2.793022156,-15.03888988,6.643970966,2024-06-05 19:44:27.299714
19.33971382,2.291426897,-12.04457188,0.1749751568,2024-06-05 19:44:27.339714
19.37971382,2.23728919,-5.901299,-0.7977072597,2024-06-05 19:44:27.379714
19.41971382,1.751247048,-4.169493675,-0.6083751321,2024-06-05 19:44:27.419714
19.45971382,2.366800785,-4.326223373,-0.2467598319,2024-06-05 19:44:27.459714
19.49971382,2.330908298,-4.180261135,0.3257229924,2024-06-05 19:44:27.499714
19.53971382,1.349851131,-6.543173313,3.61615324,2024-06-05 19:44:27.539714
19.57971382,1.082752228,-16.74826241,17.15773392,2024-06-05 19:44:27.579714
19.61971382,3.396910906,-13.32861996,6.779165745,2024-06-05 19:44:27.619714
19.65971382,5.079663277,-6.58654356,1.406082392,2024-06-05 19:44:27.659714
19.69971382,9.294620514,-16.36002731,0.9990034699,2024-06-05 19:44:27.699714
19.73971382,-3.653241873,-9.974780083,-10.10668468,2024-06-05 19:44:27.739714
19.77971382,-0.1701895148,0.9571290612,-0.1292124242,2024-06-05 19:44:27.779714
19.81971382,2.27078867,-5.365904808,-5.501398563,2024-06-05 19:44:27.819714
19.85971382,4.022035599,-16.48714638,8.583054543,2024-06-05 19:44:27.859714
19.89971382,6.373282909,-6.783951283,-0.9352945685,2024-06-05 19:44:27.899714
19.93971382,6.373282909,-6.783951283,-0.9352945685,2024-06-05 19:44:27.939714
19.97971382,-0.4301098585,-12.14507008,2.55254364,2024-06-05 19:44:27.979714
20.01971382,1.068395257,-8.773583412,1.403689623,2024-06-05 19:44:28.019714
20.05971382,2.195414782,-9.045467377,-0.9113663435,2024-06-05 19:44:28.059714
20.09971382,3.492623806,-9.613164902,0.6083751321,2024-06-05 19:44:28.099714
20.13971382,3.054138899,-9.332905769,1.440778375,2024-06-05 19:44:28.139714
20.17971382,2.932105064,-9.892228127,2.036292076,2024-06-05 19:44:28.179714
20.21971382,2.908176899,-8.639286041,0.9439685345,2024-06-05 19:44:28.219714
20.25971382,2.487638235,-9.686145782,1.236191988,2024-06-05 19:44:28.259714
20.29971382,2.263610125,-10.12941647,0.8635098934,2024-06-05 19:44:28.299714
20.33971382,2.688934565,-8.833403587,-0.09690931439,2024-06-05 19:44:28.339714
20.37971382,2.545365095,-9.816853523,1.462313771,2024-06-05 19:44:28.379714
20.41971382,2.614757061,-8.816654205,-0.4624129832,2024-06-05 19:44:28.419714
20.45971382,2.074577332,-10.40249729,0.5174478889,2024-06-05 19:44:28.459714
20.45971382,2.074577332,-10.40249729,0.5174478889,2024-06-05 19:44:28.459714
20.53971382,0.3125624657,-10.33549786,0.4648058116,2024-06-05 19:44:28.539714
20.57971382,1.952244163,-13.15244865,1.230209947,2024-06-05 19:44:28.579714
20.61971382,4.109373569,-12.15224934,0.456430912,2024-06-05 19:44:28.619714
20.65971382,-0.3975076675,-7.288238525,1.107876897,2024-06-05 19:44:28.659714
20.69971382,-0.3975076675,-7.288238525,1.107876897,2024-06-05 19:44:28.699714
20.73971382,-0.3975076675,-7.288238525,1.107876897,2024-06-05 19:44:28.739714
20.77971382,1.811067581,-11.6084795,1.441974759,2024-06-05 19:44:28.779714
20.81971382,2.099701881,-10.93908787,1.478166223,2024-06-05 19:44:28.819714
20.85971382,7.170990467,-9.631111145,3.008675337,2024-06-05 19:44:28.859714
20.89971382,4.957629204,-5.581557751,5.473581791,2024-06-05 19:44:28.899714
20.93971382,6.454638958,-9.867103577,7.4010005,2024-06-05 19:44:28.939714
20.97971382,6.582954407,-11.35214901,8.915956497,2024-06-05 19:44:28.979714
21.01971382,5.444868088,-3.646063566,4.200600147,2024-06-05 19:44:29.019714
21.05971382,6.775576591,-3.961018801,3.728615999,2024-06-05 19:44:29.059714
21.09971382,5.284548759,-3.870988846,1.367797256,2024-06-05 19:44:29.099714
21.13971382,5.146662235,-4.745565414,-0.2982055247,2024-06-05 19:44:29.139714
21.17971382,7.656135082,-8.717351913,3.142972469,2024-06-05 19:44:29.179714
21.21971382,9.1423769,-13.16321659,14.55374527,2024-06-05 19:44:29.219714
21.25971382,9.853942871,-4.244867325,8.43948555,2024-06-05 19:44:29.259714
21.29971382,6.787540436,-1.581057549,5.94078064,2024-06-05 19:44:29.299714
21.33971382,-4.491627216,-9.3807621,-1.390529037,2024-06-05 19:44:29.339714
21.37971382,4.738387108,-0.8826524615,0.6768696904,2024-06-05 19:44:29.379714
21.41971382,4.278367043,-2.228914261,-0.3005983531,2024-06-05 19:44:29.419714
21.45971382,8.238189697,-13.61246872,10.49342442,2024-06-05 19:44:29.459714
21.49971382,12.30927753,-18.49681854,2.982354403,2024-06-05 19:44:29.499714
21.53971382,12.30927753,-18.49681854,2.982354403,2024-06-05 19:44:29.539714
21.57971382,-1.281655669,-8.221439362,4.214957237,2024-06-05 19:44:29.579714
21.61971382,2.847159863,-8.853742599,0.1510469317,2024-06-05 19:44:29.619714
21.65971382,-1.832603097,-12.79561901,6.688238621,2024-06-05 19:44:29.659714
21.69971382,2.414657116,-8.370990753,1.830210209,2024-06-05 19:44:29.699714
21.73971382,4.359723091,-6.715755939,4.679463863,2024-06-05 19:44:29.739714
21.77971382,4.261617184,-6.746862411,5.806782246,2024-06-05 19:44:29.779714
21.81971382,3.186043262,-9.490832329,4.630411148,2024-06-05 19:44:29.819714
21.85971382,0.751047194,-9.25394249,3.926322937,2024-06-05 19:44:29.859714
21.89971382,2.283051968,-7.788936615,4.024428368,2024-06-05 19:44:29.899714
21.93971382,3.900001764,-8.077570915,4.279563427,2024-06-05 19:44:29.939714
21.97971382,3.116651535,-8.902795792,3.850649834,2024-06-05 19:44:29.979714
22.01971382,2.479263306,-9.552147865,3.68075943,2024-06-05 19:44:30.019714
22.05971382,2.665006161,-8.85733223,3.535694599,2024-06-05 19:44:30.059714
22.09971382,4.474877357,-8.559126854,3.407678604,2024-06-05 19:44:30.099714
22.13971382,4.187439442,-8.148159027,3.939483404,2024-06-05 19:44:30.139714
22.17971382,3.30089879,-7.876275063,4.145266056,2024-06-05 19:44:30.179714
22.21971382,2.499602318,-7.878667831,3.499802113,2024-06-05 19:44:30.219714
22.25971382,2.132004976,-9.105288506,2.71286273,2024-06-05 19:44:30.259714
22.29971382,1.729412556,-10.98933697,2.691327333,2024-06-05 19:44:30.299714
22.33971382,4.546662331,-9.299406052,2.531905413,2024-06-05 19:44:30.339714
22.37971382,6.683452606,-8.411668777,2.0769701,2024-06-05 19:44:30.379714
22.41971382,7.109973431,-11.88275719,3.254238844,2024-06-05 19:44:30.419714
22.45971382,5.36111927,-6.330212116,4.155136585,2024-06-05 19:44:30.459714
22.49971382,5.36111927,-6.330212116,4.155136585,2024-06-05 19:44:30.499714
22.53971382,6.021239281,-7.495516777,1.391725421,2024-06-05 19:44:30.539714
22.57971382,7.731509209,-9.026325226,2.308176517,2024-06-05 19:44:30.579714
22.61971382,3.182454109,-6.207879066,3.951447487,2024-06-05 19:44:30.619714
22.65971382,2.726023197,-5.240281582,1.014556766,2024-06-05 19:44:30.659714
22.69971382,1.870888233,-6.776772976,1.21704936,2024-06-05 19:44:30.699714
22.73971382,2.920140982,-5.916851997,0.3448655605,2024-06-05 19:44:30.739714
22.77971382,7.17457962,-10.60140038,2.427817583,2024-06-05 19:44:30.779714
22.81971382,6.470192432,-6.682256222,5.848656654,2024-06-05 19:44:30.819714
22.85971382,2.452942371,-8.311170578,2.897409201,2024-06-05 19:44:30.859714
22.89971382,4.746761799,-9.826425552,0.3675973713,2024-06-05 19:44:30.899714
22.93971382,4.648356915,-10.00349426,3.095116138,2024-06-05 19:44:30.939714
22.97971382,3.245863914,-8.654839516,2.183450699,2024-06-05 19:44:30.979714
23.01971382,4.710869789,-8.982057571,1.615753531,2024-06-05 19:44:31.019714
23.05971382,2.388336182,-8.624929428,1.440778375,2024-06-05 19:44:31.059714
23.09971382,2.021935225,-9.616754532,0.5820540786,2024-06-05 19:44:31.099714
23.13971382,2.036292076,-8.095517159,0.442073971,2024-06-05 19:44:31.139714
23.17971382,3.920340776,-9.093324661,0.2084746659,2024-06-05 19:44:31.179714
23.21971382,3.920340776,-9.093324661,0.2084746659,2024-06-05 19:44:31.219714
23.25971382,1.746461391,-8.280063629,0.147457689,2024-06-05 19:44:31.259714
23.29971382,2.96201539,-10.57149029,-0.8108677864,2024-06-05 19:44:31.299714
23.33971382,4.887938499,-10.17846966,1.916351795,2024-06-05 19:44:31.339714
23.37971382,6.565008163,-9.01675415,0.9340981245,2024-06-05 19:44:31.379714
23.41971382,6.731309414,-10.26580715,0.613160789,2024-06-05 19:44:31.419714
23.45971382,7.943572998,-11.20499039,2.871088028,2024-06-05 19:44:31.459714
23.49971382,9.929316521,-9.165108681,-2.152343988,2024-06-05 19:44:31.499714
23.53971382,8.476573944,-9.822835922,-1.042074203,2024-06-05 19:44:31.539714
23.57971382,-2.72961235,-11.56899834,-1.87567389,2024-06-05 19:44:31.579714
23.61971382,-2.23130703,-8.679964066,3.125026464,2024-06-05 19:44:31.619714
23.65971382,0.318544507,-5.420939922,0.6191428304,2024-06-05 19:44:31.659714
23.69971382,3.062513828,-1.57866478,1.616949916,2024-06-05 19:44:31.699714
23.73971382,1.683948994,-3.085544825,2.720041037,2024-06-05 19:44:31.739714
23.77971382,2.799004316,-6.382854462,6.021239281,2024-06-05 19:44:31.779714
23.81971382,19.91127586,-20.90429688,7.049853802,2024-06-05 19:44:31.819714
23.85971382,7.517052174,-10.6612215,3.565604925,2024-06-05 19:44:31.859714
23.89971382,5.654539108,-12.51535988,3.371786118,2024-06-05 19:44:31.899714
23.93971382,-0.04187439755,-5.767300606,-0.4911268353,2024-06-05 19:44:31.939714
23.97971382,1.769193292,-1.622931957,1.851745605,2024-06-05 19:44:31.979714
24.01971382,3.77647233,0.2024926096,1.441974759,2024-06-05 19:44:32.019714
24.05971382,3.77647233,0.2024926096,1.441974759,2024-06-05 19:44:32.059714
24.09971382,5.035396099,-5.729912758,1.066002488,2024-06-05 19:44:32.099714
24.13971382,7.165008068,-6.358926296,6.606882572,2024-06-05 19:44:32.139714
24.17971382,8.216653824,-11.04796124,7.72911644,2024-06-05 19:44:32.179714
24.21971382,9.809675217,-7.531409264,7.027122021,2024-06-05 19:44:32.219714
24.25971382,8.606983185,-8.672785759,7.237989426,2024-06-05 19:44:32.259714
24.29971382,10.15214825,-11.40389347,5.53370142,2024-06-05 19:44:32.299714
24.33971382,10.15214825,-11.40389347,5.53370142,2024-06-05 19:44:32.339714
24.37971382,2.706880569,-3.368196964,-5.053342342,2024-06-05 19:44:32.379714
24.41971382,3.80159688,-6.546762943,0.6299105883,2024-06-05 19:44:32.419714
24.45971382,6.62243557,-9.911370277,0.3687937856,2024-06-05 19:44:32.459714
24.49971382,3.396910906,-9.518648148,-2.71286273,2024-06-05 19:44:32.499714
24.53971382,3.982554197,-8.293224335,-2.940479994,2024-06-05 19:44:32.539714
24.57971382,2.019542217,-10.92353439,-1.508076429,2024-06-05 19:44:32.579714
24.61971382,0.1654038578,-10.49222851,0.5210371017,2024-06-05 19:44:32.619714
24.65971382,0.8084749579,-9.735198975,0.614357233,2024-06-05 19:44:32.659714
24.69971382,3.162115097,-9.470493317,-0.5868397355,2024-06-05 19:44:32.699714
24.73971382,3.642474174,-9.078967094,0.832403183,2024-06-05 19:44:32.739714
24.77971382,2.540280342,-9.212965012,-0.256331116,2024-06-05 19:44:32.779714
24.81971382,2.873480797,-9.053842545,-0.4660021961,2024-06-05 19:44:32.819714
24.85971382,3.33439827,-8.834600449,-0.5461617708,2024-06-05 19:44:32.859714
24.89971382,2.649452925,-9.010771751,-0.3496512175,2024-06-05 19:44:32.899714
24.93971382,1.898405671,-9.870692253,0.2754737139,2024-06-05 19:44:32.939714
24.97971382,1.479362607,-10.76889801,-0.6071787477,2024-06-05 19:44:32.979714
25.01971382,0.7594220638,-13.79103374,1.032503009,2024-06-05 19:44:33.019714
25.05971382,2.429013968,-13.54905891,2.897409201,2024-06-05 19:44:33.059714
25.09971382,5.636592865,-14.15863037,8.087141991,2024-06-05 19:44:33.099714
25.13971382,7.275078297,-11.0001049,3.780061483,2024-06-05 19:44:33.139714
25.17971382,5.721538067,-9.381958008,-5.879763603,2024-06-05 19:44:33.179714
25.21971382,4.199403763,-8.246563911,-2.505584478,2024-06-05 19:44:33.219714
25.25971382,3.087937593,-13.58854103,1.502094388,2024-06-05 19:44:33.259714
25.29971382,1.728216171,-7.944769382,-0.6215356588,2024-06-05 19:44:33.299714
25.33971382,2.643470764,-4.025625229,-1.147358418,2024-06-05 19:44:33.339714
25.37971382,3.009871721,-3.972982883,-1.74047935,2024-06-05 19:44:33.379714
25.41971382,3.475873947,-3.754936934,-0.001196411322,2024-06-05 19:44:33.419714
25.45971382,5.00787878,-2.934497833,1.380957723,2024-06-05 19:44:33.459714
25.49971382,5.719145298,-11.99551868,7.839186192,2024-06-05 19:44:33.499714
25.53971382,0.1821536273,-19.88495445,10.40608692,2024-06-05 19:44:33.539714
25.57971382,4.895116806,-5.353940487,2.302194595,2024-06-05 19:44:33.579714
25.61971382,8.535198212,-5.867799282,-5.408975601,2024-06-05 19:44:33.619714
25.65971382,5.236692429,-15.57428455,-0.1606182158,2024-06-05 19:44:33.659714
25.69971382,3.376571894,-2.991925716,-4.226921082,2024-06-05 19:44:33.699714
25.73971382,7.247560501,-9.01675415,1.00737834,2024-06-05 19:44:33.739714
25.77971382,2.60279274,-11.86002541,2.037488461,2024-06-05 19:44:33.779714
25.81971382,-0.07058826834,-10.24427223,-2.813660383,2024-06-05 19:44:33.819714
25.85971382,3.934697628,-8.394919395,2.822035313,2024-06-05 19:44:33.859714
25.89971382,3.800400496,-8.183154106,1.613360643,2024-06-05 19:44:33.899714
25.93971382,4.242474556,-8.426025391,-1.284048438,2024-06-05 19:44:33.939714
25.97971382,2.981158018,-8.627322197,-0.4010969102,2024-06-05 19:44:33.979714
26.01971382,2.356033087,-10.96301651,3.56680131,2024-06-05 19:44:34.019714
26.05971382,3.868596077,-9.220144272,1.296012521,2024-06-05 19:44:34.059714
26.09971382,4.580161572,-8.895617485,-0.8754739761,2024-06-05 19:44:34.099714
26.13971382,4.329812527,-8.902795792,-1.156929731,2024-06-05 19:44:34.139714
26.17971382,7.161418915,-9.922138214,0.7307082415,2024-06-05 19:44:34.179714
26.21971382,9.261120796,-10.63490009,-4.327419758,2024-06-05 19:44:34.219714
26.25971382,7.554141045,-6.336194515,-0.936490953,2024-06-05 19:44:34.259714
26.29971382,6.276074886,-6.986443996,-1.518844128,2024-06-05 19:44:34.299714
26.33971382,7.147062302,-7.159026146,0.2060818523,2024-06-05 19:44:34.339714
26.37971382,7.055835724,-6.838088989,1.771586061,2024-06-05 19:44:34.379714
26.41971382,5.157430172,-6.893123627,-0.1498505175,2024-06-05 19:44:34.419714
26.45971382,5.218447208,-6.544369698,0.8587242365,2024-06-05 19:44:34.459714
26.49971382,5.298905849,-6.976872444,0.7127620578,2024-06-05 19:44:34.499714
26.53971382,5.437689304,-6.979265213,0.1112662554,2024-06-05 19:44:34.539714
26.57971382,5.249852657,-5.970690727,-0.07058826834,2024-06-05 19:44:34.579714
26.61971382,6.236593246,-6.008975983,-0.6960122585,2024-06-05 19:44:34.619714
26.65971382,7.545766354,-5.140680313,-1.478166223,2024-06-05 19:44:34.659714
26.69971382,7.545766354,-5.140680313,-1.478166223,2024-06-05 19:44:34.699714
26.73971382,6.627221584,-4.841278553,-0.931705296,2024-06-05 19:44:34.739714
26.77971382,7.65015316,-6.545566559,-0.803689301,2024-06-05 19:44:34.779714
26.81971382,8.443074226,-6.774380207,-1.594218135,2024-06-05 19:44:34.819714
26.85971382,9.358030319,-6.076273918,-4.49521637,2024-06-05 19:44:34.859714
26.89971382,11.57976627,-8.793922424,0.5449653864,2024-06-05 19:44:34.899714
26.93971382,8.790332794,-12.51655579,-3.980161428,2024-06-05 19:44:34.939714
26.97971382,2.959622622,-12.5500555,2.46371007,2024-06-05 19:44:34.979714
27.01971382,-2.529512644,-12.07687473,0.9451649189,2024-06-05 19:44:35.019714
27.05971382,-0.9403793216,-15.05564022,-0.5581258535,2024-06-05 19:44:35.059714
27.09971382,1.985743642,-10.16650486,1.982154489,2024-06-05 19:44:35.099714
27.13971382,4.411168575,-9.123234749,-3.135794163,2024-06-05 19:44:35.139714
27.17971382,3.136990547,-6.646364212,-1.331904888,2024-06-05 19:44:35.179714
27.21971382,3.762115479,-7.867899895,1.279262781,2024-06-05 19:44:35.219714
27.25971382,4.061517239,-9.238389015,1.524826288,2024-06-05 19:44:35.259714
27.29971382,2.957229614,-8.682356834,0.2036890239,2024-06-05 19:44:35.299714
27.33971382,2.322533369,-8.83220768,-0.3305086195,2024-06-05 19:44:35.339714
27.37971382,3.297309637,-9.22492981,-2.224128723,2024-06-05 19:44:35.379714
27.41971382,4.313062668,-8.864510536,2.569293261,2024-06-05 19:44:35.419714
27.45971382,4.313062668,-8.864510536,2.569293261,2024-06-05 19:44:35.459714
27.49971382,0.3843471408,-8.963812828,-2.816053152,2024-06-05 19:44:35.499714
27.53971382,7.070192814,-9.964012146,-3.225524902,2024-06-05 19:44:35.539714
27.57971382,8.634500504,-6.664309978,4.635196686,2024-06-05 19:44:35.579714
27.61971382,4.228117466,-8.293224335,-1.317547917,2024-06-05 19:44:35.619714
27.65971382,3.303291559,-5.80797863,-1.500898004,2024-06-05 19:44:35.659714
27.69971382,4.364508629,-10.26580715,-2.015953064,2024-06-05 19:44:35.699714
27.73971382,3.31525588,-9.610772133,0.8874381185,2024-06-05 19:44:35.739714
27.77971382,4.128516197,-9.659825325,-0.3245265782,2024-06-05 19:44:35.779714
27.81971382,4.671088696,-8.144570351,-1.459920883,2024-06-05 19:44:35.819714
27.85971382,3.873381615,-8.228617668,-1.566700578,2024-06-05 19:44:35.859714
27.89971382,4.085445404,-8.581858635,-1.246959686,2024-06-05 19:44:35.899714
27.93971382,4.399204254,-9.311369896,-0.7331010103,2024-06-05 19:44:35.939714
27.97971382,4.37288332,-8.524430275,-1.212263823,2024-06-05 19:44:35.979714
28.01971382,4.001696587,-8.467002869,-1.964208245,2024-06-05 19:44:36.019714
28.05971382,4.302295208,-8.792725563,-2.059023857,2024-06-05 19:44:36.059714
28.09971382,3.953840256,-9.110074043,-0.3221337497,2024-06-05 19:44:36.099714
28.13971382,3.953840256,-9.110074043,-0.3221337497,2024-06-05 19:44:36.139714
28.17971382,3.766901016,-9.035896301,-1.750050664,2024-06-05 19:44:36.179714
28.21971382,3.65563488,-8.77477932,-1.769193292,2024-06-05 19:44:36.219714
28.25971382,3.693919897,-8.872885704,-1.633699656,2024-06-05 19:44:36.259714
28.29971382,4.438984871,-8.892027855,-1.23978126,2024-06-05 19:44:36.299714
28.33971382,4.060320854,-8.923134804,0.04546362907,2024-06-05 19:44:36.339714
28.37971382,3.243471146,-8.965008736,-1.676770449,2024-06-05 19:44:36.379714
28.41971382,3.032603502,-9.35563755,-2.142772675,2024-06-05 19:44:36.419714
28.45971382,3.30927372,-9.175876617,-0.8300103545,2024-06-05 19:44:36.459714
28.49971382,4.127319813,-8.737690926,-0.1725823283,2024-06-05 19:44:36.499714
28.53971382,3.221935749,-9.230911255,-1.687538147,2024-06-05 19:44:36.539714
28.57971382,2.817249537,-9.212965012,-1.797907114,2024-06-05 19:44:36.579714
28.61971382,3.515355587,-8.835796356,-1.260120273,2024-06-05 19:44:36.619714
28.65971382,3.516551971,-8.892027855,-0.7701897621,2024-06-05 19:44:36.659714
28.69971382,2.790629387,-9.138788223,-1.154536963,2024-06-05 19:44:36.699714
28.73971382,2.358425856,-9.905388832,-1.407278776,2024-06-05 19:44:36.739714
28.77971382,3.681955814,-9.846764565,-0.2826521695,2024-06-05 19:44:36.779714
28.81971382,5.842674732,-10.08275604,-0.2240280211,2024-06-05 19:44:36.819714
28.85971382,7.129116058,-9.580862045,-0.965503931,2024-06-05 19:44:36.859714
28.89971382,7.707581043,-8.40329361,-1.548754454,2024-06-05 19:44:36.899714
28.93971382,6.672685146,-6.603293419,-1.521237016,2024-06-05 19:44:36.939714
28.97971382,3.798007727,-5.302495003,-2.434996128,2024-06-05 19:44:36.979714
29.01971382,3.119044304,-5.70000267,-3.230310678,2024-06-05 19:44:37.019714
29.05971382,3.661616802,-7.051050186,-2.569293261,2024-06-05 19:44:37.059714
29.09971382,5.038985252,-6.606882572,-0.7211369276,2024-06-05 19:44:37.099714
29.13971382,6.614060879,-6.573382854,-1.698305845,2024-06-05 19:44:37.139714
29.17971382,6.896713257,-3.947858334,-2.443371058,2024-06-05 19:44:37.179714
29.21971382,6.806683064,-5.647360325,1.438385487,2024-06-05 19:44:37.219714
29.25971382,9.439386368,-5.286941528,-1.300798178,2024-06-05 19:44:37.259714
29.29971382,12.15942764,-7.871489048,-4.150351048,2024-06-05 19:44:37.299714
29.33971382,5.031806946,-13.58255863,0.8599206209,2024-06-05 19:44:37.339714
29.37971382,6.460621357,-14.98505211,-2.672184706,2024-06-05 19:44:37.379714
29.41971382,2.863909483,-11.60967636,1.048056364,2024-06-05 19:44:37.419714
29.45971382,1.644467354,-11.52951717,3.266202927,2024-06-05 19:44:37.459714
29.49971382,-0.1893320978,-15.23898983,-3.042174816,2024-06-05 19:44:37.499714
29.53971382,-4.33340168,-9.250352859,-1.794317842,2024-06-05 19:44:37.539714
29.57971382,2.146361828,-5.668895721,-2.572882652,2024-06-05 19:44:37.579714
29.61971382,4.032803535,-9.96042347,-0.9173483849,2024-06-05 19:44:37.619714
29.65971382,8.398508072,-6.555137634,3.318845034,2024-06-05 19:44:37.659714
29.69971382,3.563211918,-7.851150036,-2.255235434,2024-06-05 19:44:37.699714
29.73971382,-0.3149552941,-10.57986546,-3.787240028,2024-06-05 19:44:37.739714
29.77971382,-2.562114954,-10.66361427,7.688438416,2024-06-05 19:44:37.779714
29.81971382,1.110269666,-8.755637169,-3.56680131,2024-06-05 19:44:37.819714
29.85971382,2.329711914,-9.17109108,-0.2742772996,2024-06-05 19:44:37.859714
29.89971382,1.910369754,-9.325727463,0.132801652,2024-06-05 19:44:37.899714
29.93971382,4.096213341,-8.415258408,-0.5078766346,2024-06-05 19:44:37.939714
29.97971382,4.096213341,-8.415258408,-0.5078766346,2024-06-05 19:44:37.979714
30.01971382,2.407478571,-10.58225822,-1.53918314,2024-06-05 19:44:38.019714
30.05971382,0.3101696372,-10.29930687,2.33449769,2024-06-05 19:44:38.059714
30.09971382,0.332901448,-10.5161562,-3.896412611,2024-06-05 19:44:38.099714
30.13971382,2.408675194,-11.06231785,1.691127419,2024-06-05 19:44:38.139714
30.17971382,2.200200319,-12.69721413,-1.211067319,2024-06-05 19:44:38.179714
30.21971382,3.607479334,-13.70578861,0.2503490746,2024-06-05 19:44:38.219714
30.25971382,6.716952324,-11.15832996,1.286441326,2024-06-05 19:44:38.259714
30.29971382,7.869096279,-11.12124157,-3.625724554,2024-06-05 19:44:38.299714
30.33971382,8.87647438,-8.447860718,-3.209971666,2024-06-05 19:44:38.339714
30.37971382,10.20120144,-7.321738243,-3.461517096,2024-06-05 19:44:38.379714
30.41971382,8.725727081,-6.099005699,-2.467299223,2024-06-05 19:44:38.419714
30.45971382,8.725727081,-6.099005699,-2.467299223,2024-06-05 19:44:38.459714
30.49971382,5.892923832,-4.41984272,-1.727019787,2024-06-05 19:44:38.499714
30.53971382,4.074677944,-4.856831551,-0.9690931439,2024-06-05 19:44:38.539714
30.57971382,2.481656075,-6.176772594,-0.5318048596,2024-06-05 19:44:38.579714
30.61971382,0.8874381185,-9.161520004,11.37248802,2024-06-05 19:44:38.619714
30.65971382,0.8874381185,-9.161520004,11.37248802,2024-06-05 19:44:38.659714
30.69971382,1.541576028,-4.317848682,-2.279462576,2024-06-05 19:44:38.699714
30.73971382,5.276174068,-9.898209572,-4.917848587,2024-06-05 19:44:38.739714
30.77971382,5.857031822,-9.986744881,-0.1558325738,2024-06-05 19:44:38.779714
30.81971382,4.284348965,-9.807282448,-8.404490471,2024-06-05 19:44:38.819714
30.85971382,-4.971986294,-8.990432739,2.029113531,2024-06-05 19:44:38.859714
30.89971382,-4.254438877,-11.36889839,10.90439224,2024-06-05 19:44:38.899714
30.93971382,4.116552353,-9.527023315,-10.83230782,2024-06-05 19:44:38.939714
30.97971382,8.191529274,-13.42433357,-3.341576815,2024-06-05 19:44:38.979714
31.01971382,13.65195084,-10.2909317,0.8802596331,2024-06-05 19:44:39.019714
31.05971382,10.43240738,-9.292227745,-7.118348122,2024-06-05 19:44:39.059714
31.09971382,15.93380642,-13.23021507,-4.954040051,2024-06-05 19:44:39.099714
31.13971382,15.86291885,-9.427422523,8.010572433,2024-06-05 19:44:39.139714
31.17971382,2.013560295,-14.93121338,1.94865489,2024-06-05 19:44:39.179714
31.21971382,1.563111424,-12.8446722,6.216254234,2024-06-05 19:44:39.219714
31.25971382,0.8252246976,-9.820443153,1.503290772,2024-06-05 19:44:39.259714
31.29971382,-0.8312067389,-8.889635086,0.008374879137,2024-06-05 19:44:39.299714
31.33971382,-1.110269666,-6.534798622,2.100898266,2024-06-05 19:44:39.339714
31.37971382,-0.5784648657,-5.682056427,0.4396811724,2024-06-05 19:44:39.379714
31.41971382,0.613160789,-7.900502205,0.6948158741,2024-06-05 19:44:39.419714
31.45971382,0.3867399693,-9.880263329,2.175075769,2024-06-05 19:44:39.459714
31.49971382,2.478066921,-9.160323143,0.3400799036,2024-06-05 19:44:39.499714
31.53971382,1.654038668,-8.942276955,0.2324029058,2024-06-05 19:44:39.539714
31.57971382,1.967797518,-9.128020287,0.9595218897,2024-06-05 19:44:39.579714
31.61971382,3.473481178,-9.991530418,0.8359923959,2024-06-05 19:44:39.619714
31.65971382,1.815853238,-9.841979027,-1.48295188,2024-06-05 19:44:39.659714
31.69971382,1.327119231,-10.85533905,-0.2144567221,2024-06-05 19:44:39.699714
31.73971382,2.814856768,-9.417850494,0.6191428304,2024-06-05 19:44:39.739714
31.77971382,3.868596077,-9.169894218,-0.2204387933,2024-06-05 19:44:39.779714
31.81971382,3.509373426,-10.26939678,-1.978565216,2024-06-05 19:44:39.819714
31.85971382,4.109373569,-9.264710426,-1.58703959,2024-06-05 19:44:39.859714
31.89971382,5.495416164,-9.743574142,-1.180858016,2024-06-05 19:44:39.899714
31.93971382,5.288137913,-8.610571861,-1.010967612,2024-06-05 19:44:39.939714
31.97971382,4.187439442,-7.073781967,-1.492523074,2024-06-05 19:44:39.979714
32.01971382,4.813760757,-7.320541859,-1.960619092,2024-06-05 19:44:40.019714
32.05971382,5.536094189,-7.627122402,-2.078166485,2024-06-05 19:44:40.059714
32.09971382,6.142076492,-7.294220924,-1.850549221,2024-06-05 19:44:40.099714
32.13971382,6.679863453,-7.033103943,-1.901994944,2024-06-05 19:44:40.139714
32.17971382,6.844070911,-6.18634367,-2.042274237,2024-06-05 19:44:40.179714
32.21971382,6.34815836,-6.642774582,-2.76909399,2024-06-05 19:44:40.219714
32.25971382,7.100401878,-7.678866863,-3.250649452,2024-06-05 19:44:40.259714
32.29971382,5.509773254,-5.313262463,-1.983350873,2024-06-05 19:44:40.299714
32.33971382,2.936890602,-4.230510235,-2.382354021,2024-06-05 19:44:40.339714
32.37971382,0.5868397355,-2.050648928,-3.317648649,2024-06-05 19:44:40.379714
32.41971382,-2.248056889,-3.377768278,-5.490630627,2024-06-05 19:44:40.419714
32.45971382,9.83121109,-18.6490612,36.61527252,2024-06-05 19:44:40.459714
32.49971382,-3.505784273,-24.07598305,-5.716752529,2024-06-05 19:44:40.499714
32.53971382,4.489234447,-20.69701767,-3.821935892,2024-06-05 19:44:40.539714
32.57971382,1.775175333,-20.7571373,2.002493382,2024-06-05 19:44:40.579714
32.61971382,2.732005358,-19.92922211,8.785547256,2024-06-05 19:44:40.619714
32.65971382,-2.279462576,-12.46511078,10.16411209,2024-06-05 19:44:40.659714
32.69971382,3.609872103,-8.608179092,-2.829213619,2024-06-05 19:44:40.699714
32.73971382,2.451745987,-7.887042522,-2.443371058,2024-06-05 19:44:40.739714
32.77971382,4.205385685,-18.8802681,-0.7965108156,2024-06-05 19:44:40.779714
32.81971382,-1.758425593,-31.91756248,0.1749751568,2024-06-05 19:44:40.819714
32.85971382,7.616354465,-13.84726429,-4.246063709,2024-06-05 19:44:40.859714
32.89971382,4.230510235,-0.7414759398,-6.243771553,2024-06-05 19:44:40.899714
32.93971382,3.316452265,8.61296463,-5.804389477,2024-06-05 19:44:40.939714
32.97971382,3.940679789,6.841678143,-2.326122761,2024-06-05 19:44:40.979714
33.01971382,-0.3197409213,3.042174816,5.703591824,2024-06-05 19:44:41.019714
33.05971382,-5.707180977,-8.860920906,17.87408638,2024-06-05 19:44:41.059714
33.09971382,11.14397335,-25.10968208,-0.147457689,2024-06-05 19:44:41.099714
33.13971382,25.42583466,-48.37958527,24.61855507,2024-06-05 19:44:41.139714
33.17971382,2.660220623,5.049753189,-10.65284634,2024-06-05 19:44:41.179714
33.21971382,-4.364508629,3.465106249,-3.227917671,2024-06-05 19:44:41.219714
33.25971382,-1.898405671,-21.90928268,12.20758247,2024-06-05 19:44:41.259714
33.29971382,3.144168854,-9.288638115,6.101398468,2024-06-05 19:44:41.299714
33.33971382,0.3209373355,-2.318944216,4.326223373,2024-06-05 19:44:41.339714
33.37971382,4.152743816,-16.64985847,5.207679272,2024-06-05 19:44:41.379714
33.41971382,4.152743816,-16.64985847,5.207679272,2024-06-05 19:44:41.419714
33.45971382,1.575075507,-6.183950901,3.80159688,2024-06-05 19:44:41.459714
33.49971382,0.3640081584,-10.19761181,5.715556145,2024-06-05 19:44:41.499714
33.53971382,1.324726462,-10.03101158,3.405285835,2024-06-05 19:44:41.539714
33.57971382,3.195614576,-8.01416111,2.263610125,2024-06-05 19:44:41.579714
33.61971382,6.769594193,-8.25254631,-0.728315413,2024-06-05 19:44:41.619714
33.65971382,7.756633759,-13.61246872,1.536790371,2024-06-05 19:44:41.659714
33.69971382,5.448457241,-12.88415337,1.906780601,2024-06-05 19:44:41.699714
33.73971382,-3.859024763,-6.841678143,9.583254814,2024-06-05 19:44:41.739714
33.77971382,-1.723430514,-5.628218174,9.784550667,2024-06-05 19:44:41.779714
33.81971382,2.35962224,-9.135198593,4.127319813,2024-06-05 19:44:41.819714
33.85971382,3.803989887,-6.264110565,0.2994019389,2024-06-05 19:44:41.859714
33.89971382,4.431806564,-3.665206194,1.986940145,2024-06-05 19:44:41.899714
33.93971382,6.155237198,-5.538486958,2.073380709,2024-06-05 19:44:41.939714
33.97971382,7.129116058,-8.851349831,3.883252144,2024-06-05 19:44:41.979714
33.97971382,7.129116058,-8.851349831,3.883252144,2024-06-05 19:44:41.979714
34.05971382,4.363312244,-6.55782938,-0.3783650696,2024-06-05 19:44:42.059714
34.09971382,6.149255276,-6.418746948,4.004089355,2024-06-05 19:44:42.099714
34.13971382,0.5114658475,-7.496713161,-6.299105644,2024-06-05 19:44:42.139714
34.17971382,-3.58355093,-4.151547432,-8.11824894,2024-06-05 19:44:42.179714
34.21971382,0.2958126962,-17.1673069,17.77927017,2024-06-05 19:44:42.219714
34.25971382,-2.364407778,-27.12653351,5.294120312,2024-06-05 19:44:42.259714
34.29971382,-3.019443035,-11.17268753,2.006082773,2024-06-05 19:44:42.299714
34.33971382,-0.5198407173,-12.67807198,6.243771553,2024-06-05 19:44:42.339714
34.37971382,-0.2419741899,-12.70798206,2.818445921,2024-06-05 19:44:42.379714
34.41971382,5.495416164,-5.859424591,-6.065506458,2024-06-05 19:44:42.419714
34.45971382,13.53111267,-7.327720165,6.054738522,2024-06-05 19:44:42.459714
34.49971382,19.64058685,-13.93220997,-21.06252289,2024-06-05 19:44:42.499714
34.53971382,6.707380772,3.46271348,-1.990529299,2024-06-05 19:44:42.539714
34.57971382,-16.50150299,-5.837889194,14.51785278,2024-06-05 19:44:42.579714
34.61971382,4.213760853,-15.76600933,16.14557076,2024-06-05 19:44:42.619714
34.65971382,-0.04067798331,3.270988464,5.805585861,2024-06-05 19:44:42.659714
34.69971382,0.7893323898,-9.981958389,7.251150131,2024-06-05 19:44:42.699714
34.73971382,5.385047436,-14.77179146,7.275078297,2024-06-05 19:44:42.739714
34.77971382,5.735895157,-8.82861805,7.817650795,2024-06-05 19:44:42.779714
34.81971382,5.924030781,-8.296813011,6.578168392,2024-06-05 19:44:42.819714
34.85971382,5.924030781,-8.296813011,6.578168392,2024-06-05 19:44:42.859714
34.89971382,5.995815277,-8.644071579,6.001797199,2024-06-05 19:44:42.899714
34.93971382,4.604089737,-8.205885887,6.332605362,2024-06-05 19:44:42.939714
34.97971382,6.005386829,-9.813264847,6.228218079,2024-06-05 19:44:42.979714
35.01971382,7.245167732,-10.02263641,6.334998131,2024-06-05 19:44:43.019714
35.05971382,9.037093163,-8.362615585,4.515555382,2024-06-05 19:44:43.059714
35.09971382,9.704092026,-7.269095898,4.023231983,2024-06-05 19:44:43.099714
35.13971382,8.791529655,-6.588936329,3.553640842,2024-06-05 19:44:43.139714
35.17971382,7.934001446,-6.931408882,3.43758893,2024-06-05 19:44:43.179714
35.21971382,8.440681458,-5.953940868,4.266402721,2024-06-05 19:44:43.219714
35.25971382,7.955537319,-3.292523861,2.746362209,2024-06-05 19:44:43.259714
35.29971382,5.93719101,-2.600399971,-0.6708876491,2024-06-05 19:44:43.299714
35.33971382,2.67338109,-3.039782047,-1.983350873,2024-06-05 19:44:43.339714
35.37971382,1.536790371,-3.14895463,-0.2479562461,2024-06-05 19:44:43.379714
35.41971382,1.709073544,-2.44935298,1.485344648,2024-06-05 19:44:43.419714
35.45971382,-2.825624466,-4.080659866,8.478966713,2024-06-05 19:44:43.459714
35.49971382,0.1064806059,-9.711270332,13.39083385,2024-06-05 19:44:43.499714
35.53971382,5.066503048,-13.35733414,-11.31625652,2024-06-05 19:44:43.539714
35.57971382,5.39701128,-11.48883915,-7.061817646,2024-06-05 19:44:43.579714
35.61971382,12.78006554,-12.95354557,-1.60977149,2024-06-05 19:44:43.619714
35.65971382,2.054238319,-18.84168434,-2.635095835,2024-06-05 19:44:43.659714
35.69971382,0.936490953,-12.75015545,6.623631954,2024-06-05 19:44:43.699714
35.73971382,1.098305583,-6.624828815,3.365804195,2024-06-05 19:44:43.739714
35.77971382,0.3592225015,-2.401496649,-2.051845312,2024-06-05 19:44:43.779714
35.81971382,-1.324726462,-0.08494520187,-1.341476202,2024-06-05 19:44:43.819714
35.85971382,-4.759922504,-2.24566412,-6.781558514,2024-06-05 19:44:43.859714
35.89971382,-2.073380709,-9.212965012,-2.403889418,2024-06-05 19:44:43.899714
35.93971382,-2.073380709,-9.212965012,-2.403889418,2024-06-05 19:44:43.939714
35.97971382,-1.830210209,-10.32831955,11.75593758,2024-06-05 19:44:43.979714
36.01971382,-1.070788145,-16.45693588,0.3843471408,2024-06-05 19:44:44.019714
36.05971382,10.69591713,-17.24507332,-4.533501625,2024-06-05 19:44:44.059714
36.09971382,5.552844048,-22.05045891,0.0466600433,2024-06-05 19:44:44.099714
36.13971382,14.0434761,-6.51445961,-3.217149973,2024-06-05 19:44:44.139714
36.17971382,2.95603323,-8.314759254,-1.461117268,2024-06-05 19:44:44.179714
36.21971382,2.366800785,-6.134898186,-1.234995604,2024-06-05 19:44:44.219714
36.25971382,2.438585281,-1.620539188,-0.9041878581,2024-06-05 19:44:44.259714
36.29971382,2.232503414,-1.955833435,-0.7019943595,2024-06-05 19:44:44.299714
36.33971382,0.7175477147,-1.499701619,-0.01555334684,2024-06-05 19:44:44.339714
36.37971382,-3.175275564,-7.623532772,29.78555679,2024-06-05 19:44:44.379714
36.41971382,2.976372242,-8.475378036,-3.170490026,2024-06-05 19:44:44.419714
36.45971382,16.16471291,-26.53730011,-6.899106026,2024-06-05 19:44:44.459714
36.49971382,5.896512985,-15.98046589,4.917848587,2024-06-05 19:44:44.499714
36.53971382,10.06720352,-15.81386566,-2.079362869,2024-06-05 19:44:44.539714
36.57971382,7.259524822,-10.47787094,3.383750439,2024-06-05 19:44:44.579714
36.61971382,4.998307228,-8.394919395,-3.845864296,2024-06-05 19:44:44.619714
36.65971382,0.879063189,-4.786243439,-4.273581028,2024-06-05 19:44:44.659714
36.69971382,-3.90478754,-7.941180229,1.227817178,2024-06-05 19:44:44.699714
36.73971382,-2.214557409,-9.365208626,1.130608678,2024-06-05 19:44:44.739714
36.77971382,-2.214557409,-9.365208626,1.130608678,2024-06-05 19:44:44.779714
36.81971382,0.4875376225,-10.90199947,3.529712439,2024-06-05 19:44:44.819714
36.85971382,-1.980958104,-11.82772255,-2.078166485,2024-06-05 19:44:44.859714
36.89971382,1.992922187,-11.00489044,1.976172447,2024-06-05 19:44:44.899714
36.93971382,2.164308071,-8.869296074,5.510969639,2024-06-05 19:44:44.939714
36.97971382,3.111865759,-7.000801086,2.057827473,2024-06-05 19:44:44.979714
37.01971382,1.307976723,-6.817451,2.060220242,2024-06-05 19:44:45.019714
37.05971382,0.4887340367,-6.47497797,2.425424814,2024-06-05 19:44:45.059714
37.09971382,1.584646821,-7.204489708,2.20618248,2024-06-05 19:44:45.099714
37.13971382,2.66739893,-9.619147301,4.608875751,2024-06-05 19:44:45.139714
37.17971382,-0.2012962103,-9.01675415,4.816154003,2024-06-05 19:44:45.179714
37.21971382,0.4983053207,-9.523433685,4.667499542,2024-06-05 19:44:45.219714
37.25971382,5.127519608,-17.78764534,4.782654285,2024-06-05 19:44:45.259714
37.29971382,1.851745605,-8.296813011,0.3783650696,2024-06-05 19:44:45.299714
37.33971382,4.164707661,-3.30927372,-1.20867455,2024-06-05 19:44:45.339714
37.37971382,3.780061483,-7.6896348,-2.515155792,2024-06-05 19:44:45.379714
37.41971382,3.608675718,-14.46162224,-6.863213539,2024-06-05 19:44:45.419714
37.45971382,1.712662816,-8.183154106,-3.113062143,2024-06-05 19:44:45.459714
37.49971382,2.07098794,-9.783354759,-0.5569294691,2024-06-05 19:44:45.499714
37.53971382,-0.2659024298,-10.68754196,0.04067798331,2024-06-05 19:44:45.539714
37.57971382,0.6720840335,-9.735198975,4.022035599,2024-06-05 19:44:45.579714
37.61971382,1.72223413,-9.57129097,-0.4540380836,2024-06-05 19:44:45.619714
37.65971382,1.299601793,-9.600004196,-0.03948157281,2024-06-05 19:44:45.659714
37.69971382,0.641874671,-10.60379314,0.157028988,2024-06-05 19:44:45.699714
37.73971382,0.7259225845,-9.749555588,-0.1881356835,2024-06-05 19:44:45.739714
37.77971382,1.973779559,-9.108877182,-0.3987040818,2024-06-05 19:44:45.779714
37.81971382,2.242074728,-9.343673706,0.6696912646,2024-06-05 19:44:45.819714
37.85971382,0.4289134443,-10.60259724,-1.030110121,2024-06-05 19:44:45.859714
37.89971382,1.186840057,-12.88295746,-0.9726824164,2024-06-05 19:44:45.899714
37.93971382,2.284248352,-12.38465214,2.678166628,2024-06-05 19:44:45.939714
37.97971382,5.223531723,-12.68405342,6.077470303,2024-06-05 19:44:45.979714
38.01971382,7.817650795,-9.336494446,1.212263823,2024-06-05 19:44:46.019714
38.05971382,5.496612549,-8.453842163,-3.473481178,2024-06-05 19:44:46.059714
38.09971382,5.208875656,-8.985647202,-2.672184706,2024-06-05 19:44:46.099714
38.13971382,1.928315997,-11.00249767,-1.287637711,2024-06-05 19:44:46.139714
38.17971382,-3.139383316,-11.25164986,0.8347960114,2024-06-05 19:44:46.179714
38.21971382,1.166501045,-6.471388817,1.373779297,2024-06-05 19:44:46.219714
38.25971382,1.166501045,-6.471388817,1.373779297,2024-06-05 19:44:46.259714
38.29971382,5.341976643,-6.342176437,-0.5186443329,2024-06-05 19:44:46.299714
38.33971382,7.138687134,-3.59790802,0.6840481758,2024-06-05 19:44:46.339714
38.37971382,6.66191721,-4.539483547,2.279462576,2024-06-05 19:44:46.379714
38.41971382,1.540379524,-11.42303658,3.291327477,2024-06-05 19:44:46.419714
38.45971382,0.9391828775,-10.66481018,1.794317842,2024-06-05 19:44:46.459714
38.49971382,1.318744421,-8.605786324,4.262813568,2024-06-05 19:44:46.499714
38.53971382,2.164308071,-8.973683357,1.528415442,2024-06-05 19:44:46.539714
38.57971382,1.293619752,-9.208179474,3.601497173,2024-06-05 19:44:46.579714
38.61971382,0.8180462122,-9.396315575,3.917948008,2024-06-05 19:44:46.619714
38.65971382,1.49132669,-8.738887787,3.819543123,2024-06-05 19:44:46.659714
38.69971382,1.446760416,-9.463314056,3.103491068,2024-06-05 19:44:46.699714
38.73971382,0.7677969933,-9.734002113,3.450749397,2024-06-05 19:44:46.739714
38.77971382,0.1196411327,-9.840782166,3.648456335,2024-06-05 19:44:46.779714
38.81971382,2.942872763,-11.26361465,1.946262121,2024-06-05 19:44:46.819714
38.85971382,4.460520744,-15.12533092,6.675077915,2024-06-05 19:44:46.859714
38.89971382,3.619742393,-5.095216751,-2.069791555,2024-06-05 19:44:46.899714
38.93971382,4.068696022,-3.783650875,-0.4010969102,2024-06-05 19:44:46.939714
38.97971382,5.213661671,-10.31037331,-0.9714859724,2024-06-05 19:44:46.979714
39.01971382,4.386044025,-9.611968994,-1.785943031,2024-06-05 19:44:47.019714
39.05971382,1.907976985,-8.268099785,-0.8264211416,2024-06-05 19:44:47.059714
39.09971382,2.304587364,-11.36889839,1.765604019,2024-06-05 19:44:47.099714
39.13971382,2.724826813,-10.4790678,-1.194018483,2024-06-05 19:44:47.139714
39.17971382,2.958425999,-9.241978645,0.1136590764,2024-06-05 19:44:47.179714
39.21971382,2.426621199,-8.716156006,-0.4636093974,2024-06-05 19:44:47.219714
39.25971382,1.901994944,-9.11725235,-1.22542429,2024-06-05 19:44:47.259714
39.29971382,2.478066921,-9.486045837,-1.043270707,2024-06-05 19:44:47.299714
39.33971382,2.935694218,-8.913563728,-0.7821539044,2024-06-05 19:44:47.339714
39.37971382,3.061317444,-9.908977509,0.1366899908,2024-06-05 19:44:47.379714
39.41971382,1.05523479,-10.23589706,2.417049885,2024-06-05 19:44:47.419714
39.45971382,1.469492197,-9.681360245,-0.7007979155,2024-06-05 19:44:47.459714
39.49971382,1.546361685,-10.2347002,-2.068595171,2024-06-05 19:44:47.499714
39.53971382,1.807478428,-11.98355484,0.08973085135,2024-06-05 19:44:47.539714
39.57971382,3.748954773,-12.40140152,0.08015955985,2024-06-05 19:44:47.579714
39.61971382,5.056931496,-10.3223381,3.582354546,2024-06-05 19:44:47.619714
39.65971382,5.860620975,-8.171190262,2.80857563,2024-06-05 19:44:47.659714
39.69971382,3.961018801,-6.712166786,-0.4145565331,2024-06-05 19:44:47.699714
39.73971382,3.562015533,-7.29302454,-4.363312244,2024-06-05 19:44:47.739714
39.77971382,4.624428749,-14.12632751,2.227717876,2024-06-05 19:44:47.779714
39.81971382,-1.184447169,-11.41944695,-0.1905284971,2024-06-05 19:44:47.819714
39.85971382,0.3771686554,-8.349455833,1.280459166,2024-06-05 19:44:47.859714
39.89971382,0.3771686554,-8.349455833,1.280459166,2024-06-05 19:44:47.899714
39.93971382,3.980161428,-6.08225584,2.280659199,2024-06-05 19:44:47.939714
39.97971382,5.03300333,-6.574579239,2.80259347,2024-06-05 19:44:47.979714
40.01971382,5.858228207,-5.986244202,2.958425999,2024-06-05 19:44:48.019714
40.05971382,5.302495003,-8.081160545,2.848356247,2024-06-05 19:44:48.059714
40.09971382,4.489234447,-8.899206161,2.377568483,2024-06-05 19:44:48.099714
40.13971382,5.47597456,-9.582057953,1.913959026,2024-06-05 19:44:48.139714
40.17971382,3.981357813,-8.171190262,2.35962224,2024-06-05 19:44:48.179714
40.21971382,3.198007345,-8.813064575,2.505584478,2024-06-05 19:44:48.219714
40.25971382,4.075874329,-8.888439178,3.587140322,2024-06-05 19:44:48.259714
40.29971382,4.393222332,-9.324530602,4.60767889,2024-06-05 19:44:48.299714
40.33971382,3.087937593,-8.939884186,4.549055099,2024-06-05 19:44:48.339714
40.37971382,1.947458506,-8.883653641,4.802993298,2024-06-05 19:44:48.379714
40.41971382,1.272084355,-9.661021233,5.715556145,2024-06-05 19:44:48.419714
40.45971382,1.026520967,-7.200900555,3.256631613,2024-06-05 19:44:48.459714
40.49971382,0.8910273314,-5.079663277,2.209771633,2024-06-05 19:44:48.499714
40.53971382,0.5018945336,-6.706184387,2.122433662,2024-06-05 19:44:48.539714
40.57971382,1.030110121,-8.244171143,2.847159863,2024-06-05 19:44:48.579714
40.61971382,3.166900873,-9.223732948,3.469892025,2024-06-05 19:44:48.619714
40.65971382,15.97089481,-25.13959312,6.949355125,2024-06-05 19:44:48.659714
40.69971382,1.510469317,-4.957629204,1.703091502,2024-06-05 19:44:48.699714
40.73971382,1.510469317,-4.957629204,1.703091502,2024-06-05 19:44:48.739714
40.77971382,0.8742775917,-4.529912472,-5.720341682,2024-06-05 19:44:48.779714
40.81971382,4.507180691,-16.11924934,4.755136967,2024-06-05 19:44:48.819714
40.85971382,3.753740549,-10.28255749,1.936690807,2024-06-05 19:44:48.859714
40.89971382,2.981158018,-9.125627518,-1.917548299,2024-06-05 19:44:48.899714
40.93971382,4.727619171,-8.227421761,0.8395816684,2024-06-05 19:44:48.939714
40.93971382,4.727619171,-8.227421761,0.8395816684,2024-06-05 19:44:48.939714
41.01971382,1.715055585,-10.06959629,0.8527421951,2024-06-05 19:44:49.019714
41.05971382,2.80259347,-10.12223816,1.65164578,2024-06-05 19:44:49.059714
41.09971382,3.591925859,-9.940084457,-0.2072782665,2024-06-05 19:44:49.099714
41.13971382,3.732205153,-8.919545174,1.149751306,2024-06-05 19:44:49.139714
41.17971382,5.090431213,-9.730413437,0.06939185411,2024-06-05 19:44:49.179714
41.21971382,6.230610847,-10.65045357,-0.7546364665,2024-06-05 19:44:49.219714
41.25971382,6.317051888,-9.558130264,-1.123430252,2024-06-05 19:44:49.259714
41.29971382,4.541876316,-7.814061642,1.255334616,2024-06-05 19:44:49.299714
41.33971382,1.475773335,-11.74995518,5.14785862,2024-06-05 19:44:49.339714
41.37971382,-2.189432621,-11.10808086,2.472084999,2024-06-05 19:44:49.379714
41.41971382,1.19880414,-3.268595695,0.5485545993,2024-06-05 19:44:49.419714
41.45971382,5.206482887,-3.908376694,-0.1989033818,2024-06-05 19:44:49.459714
41.49971382,6.510870457,-8.265707016,4.028017998,2024-06-05 19:44:49.499714
41.53971382,6.510870457,-8.265707016,4.028017998,2024-06-05 19:44:49.539714
41.57971382,2.28903389,-9.349655151,-7.451249599,2024-06-05 19:44:49.579714
41.61971382,5.325226784,-10.48146057,7.904091358,2024-06-05 19:44:49.619714
41.65971382,2.97039032,-9.261120796,0.2850449979,2024-06-05 19:44:49.659714
41.69971382,11.77388382,-4.629214287,-3.058924675,2024-06-05 19:44:49.699714
41.73971382,7.037889481,-4.590929508,-1.795514345,2024-06-05 19:44:49.739714
41.77971382,5.140680313,-7.995018482,-2.087737799,2024-06-05 19:44:49.779714
41.81971382,4.376472473,-15.56949902,1.050449133,2024-06-05 19:44:49.819714
41.85971382,0.3963112533,-18.31705666,0.2431706041,2024-06-05 19:44:49.859714
41.89971382,2.393121719,-11.83609676,-0.8455637097,2024-06-05 19:44:49.899714
41.93971382,-1.839781523,-7.871489048,-0.8012964725,2024-06-05 19:44:49.939714
41.97971382,1.156929731,-10.15334511,-4.655535698,2024-06-05 19:44:49.979714
42.01971382,5.664110184,-16.04267883,2.614757061,2024-06-05 19:44:50.019714
42.05971382,1.968993902,-8.682356834,-3.612264872,2024-06-05 19:44:50.059714
42.09971382,1.069591761,-6.884748936,-2.977568626,2024-06-05 19:44:50.099714
42.13971382,1.762014747,-8.483752251,-1.600200176,2024-06-05 19:44:50.139714
42.17971382,3.350250721,-10.55803108,4.336990833,2024-06-05 19:44:50.179714
42.21971382,2.700898647,-8.446663857,-0.6358926296,2024-06-05 19:44:50.219714
42.25971382,-0.4971089065,-9.750752449,-1.949851394,2024-06-05 19:44:50.259714
42.29971382,0.3424727321,-9.183054924,-2.64227438,2024-06-05 19:44:50.299714
42.33971382,3.075674295,-10.68754196,0.4552344978,2024-06-05 19:44:50.339714
42.37971382,2.971586704,-11.65065384,-0.3221337497,2024-06-05 19:44:50.379714
42.41971382,-0.2910270393,-13.17159176,2.171486616,2024-06-05 19:44:50.419714
42.45971382,-0.2252244353,-14.53699589,1.384546995,2024-06-05 19:44:50.459714
42.49971382,3.075674295,-14.07129288,2.454138756,2024-06-05 19:44:50.499714
42.53971382,6.895516872,-9.964012146,-2.133201361,2024-06-05 19:44:50.539714
42.57971382,6.980462074,-7.57806921,-3.582354546,2024-06-05 19:44:50.579714
42.61971382,6.980462074,-7.57806921,-3.582354546,2024-06-05 19:44:50.619714
42.65971382,6.980462074,-7.57806921,-3.582354546,2024-06-05 19:44:50.659714
42.69971382,5.276174068,-4.892724037,-3.01226449,2024-06-05 19:44:50.699714
42.73971382,4.614857674,-6.219843388,-1.873281002,2024-06-05 19:44:50.739714
42.77971382,4.678267479,-8.056035995,-0.5748756528,2024-06-05 19:44:50.779714
42.81971382,4.26879549,-8.140980721,-2.236092806,2024-06-05 19:44:50.819714
42.85971382,4.786243439,-9.427422523,0.1821536273,2024-06-05 19:44:50.859714
42.89971382,3.425624609,-9.743574142,1.627717614,2024-06-05 19:44:50.899714
42.93971382,3.553640842,-8.980861664,-0.6478567123,2024-06-05 19:44:50.939714
42.97971382,5.104787827,-9.540184021,-1.480558991,2024-06-05 19:44:50.979714
43.01971382,3.05174613,-8.82861805,-0.6960122585,2024-06-05 19:44:51.019714
43.05971382,2.80259347,-10.05165005,-1.269691467,2024-06-05 19:44:51.059714
43.09971382,2.80259347,-10.05165005,-1.269691467,2024-06-05 19:44:51.099714
43.13971382,3.81595397,-8.870492935,-1.048056364,2024-06-05 19:44:51.139714
43.17971382,3.393321514,-9.40588665,-1.694716692,2024-06-05 19:44:51.179714
43.21971382,2.926122904,-9.258728027,-1.806282043,2024-06-05 19:44:51.219714
43.25971382,3.259024382,-9.524630547,-1.516451359,2024-06-05 19:44:51.259714
43.29971382,4.235296249,-8.687142372,-0.171385929,2024-06-05 19:44:51.299714
43.33971382,4.307080746,-8.162815094,-1.274477124,2024-06-05 19:44:51.339714
43.37971382,4.230510235,-8.157731056,-1.77996099,2024-06-05 19:44:51.379714
43.41971382,5.286941528,-9.464510918,-2.072184324,2024-06-05 19:44:51.419714
43.45971382,4.466502666,-8.329116821,-1.219442248,2024-06-05 19:44:51.459714
43.49971382,5.591129303,-9.055039406,-0.9954141974,2024-06-05 19:44:51.499714
43.53971382,5.022235394,-6.345765591,0.01076770201,2024-06-05 19:44:51.539714
43.57971382,2.210968018,-1.438385487,-0.9571290612,2024-06-05 19:44:51.579714
43.61971382,-0.9173483849,-0.07537391037,0.4791627228,2024-06-05 19:44:51.619714
43.65971382,-4.369294167,0.3029911816,-0.3652045429,2024-06-05 19:44:51.659714
43.69971382,0.1160518974,-0.9834501147,-1.555932879,2024-06-05 19:44:51.699714
43.73971382,11.06590748,-36.44627762,-21.66730881,2024-06-05 19:44:51.739714
43.77971382,27.00808907,-5.540879726,33.18366623,2024-06-05 19:44:51.779714
43.81971382,8.856135368,-7.832007408,-4.414757729,2024-06-05 19:44:51.819714
43.85971382,8.856135368,-7.832007408,-4.414757729,2024-06-05 19:44:51.859714
43.89971382,7.310970306,-18.08734703,-3.378964663,2024-06-05 19:44:51.899714
43.93971382,11.33300591,-14.90010643,-0.5282155871,2024-06-05 19:44:51.939714
43.97971382,13.39801216,-11.79183006,-2.007578135,2024-06-05 19:44:51.979714
44.01971382,3.211168051,-1.401296735,0.9643075466,2024-06-05 19:44:52.019714
44.05971382,-0.06699903309,0.3125624657,-0.132801652,2024-06-05 19:44:52.059714
44.09971382,-0.06699903309,0.3125624657,-0.132801652,2024-06-05 19:44:52.099714
44.13971382,-4.686941147,-38.41915894,-12.96909904,2024-06-05 19:44:52.139714
44.17971382,-1.879263043,-18.0837574,15.47258949,2024-06-05 19:44:52.179714
44.21971382,0.913759172,-12.17498112,12.85065365,2024-06-05 19:44:52.219714
44.25971382,4.822135925,-3.475873947,9.381958008,2024-06-05 19:44:52.259714
44.29971382,0.07058826834,-2.892623425,0.2910270393,2024-06-05 19:44:52.299714
44.33971382,-18.5410862,-11.84925747,-12.49143124,2024-06-05 19:44:52.339714
44.37971382,0.4157529473,-6.100202084,7.389036179,2024-06-05 19:44:52.379714
44.41971382,16.04267883,-4.840082169,-11.86720371,2024-06-05 19:44:52.419714
44.45971382,9.585647583,-12.57876968,-10.48026371,2024-06-05 19:44:52.459714
44.49971382,5.42572546,8.871688843,10.02981567,2024-06-05 19:44:52.499714
44.53971382,-0.2300100774,11.95125198,9.536594391,2024-06-05 19:44:52.539714
44.57971382,-1.650449395,1.386939883,3.368196964,2024-06-05 19:44:52.579714
44.61971382,-0.2276172489,-8.750851631,5.866602898,2024-06-05 19:44:52.619714
44.65971382,-2.668595552,-18.60838318,-1.619342685,2024-06-05 19:44:52.659714
44.69971382,-0.9750752449,-16.73749542,-7.85593605,2024-06-05 19:44:52.699714
44.73971382,6.29790926,-16.96600914,-1.297209024,2024-06-05 19:44:52.739714
44.77971382,3.618546009,-12.58834076,3.844667673,2024-06-05 19:44:52.779714
44.81971382,6.197111607,-5.628218174,11.01924706,2024-06-05 19:44:52.819714
44.85971382,6.197111607,-5.628218174,11.01924706,2024-06-05 19:44:52.859714
44.89971382,-1.112662554,-5.288137913,-2.594418049,2024-06-05 19:44:52.899714
44.93971382,-3.160918713,-9.460921288,-2.219342947,2024-06-05 19:44:52.939714
44.97971382,8.083553314,-21.86980057,2.199003935,2024-06-05 19:44:52.979714
45.01971382,-0.3065803945,-22.04088783,-0.08853443712,2024-06-05 19:44:53.019714
45.05971382,2.945265532,-22.5894413,1.13419795,2024-06-05 19:44:53.059714
45.09971382,-0.1280160099,-20.9449749,-3.273381472,2024-06-05 19:44:53.099714
45.13971382,1.861316919,-20.92463493,-1.927119493,2024-06-05 19:44:53.139714
45.17971382,2.700898647,-18.26082611,1.890030742,2024-06-05 19:44:53.179714
45.21971382,0.8144569993,-11.5079813,5.355136871,2024-06-05 19:44:53.219714
45.25971382,0.3891327679,-6.077470303,-2.043470621,2024-06-05 19:44:53.259714
45.29971382,1.744068623,-5.500202179,-1.873281002,2024-06-05 19:44:53.299714
45.33971382,2.934497833,-4.423431873,1.106680512,2024-06-05 19:44:53.339714
45.37971382,2.71286273,-5.70000267,-2.333301067,2024-06-05 19:44:53.379714
45.41971382,2.157129526,-8.399704933,-1.412064433,2024-06-05 19:44:53.419714
45.45971382,3.763311863,-9.867103577,-0.9113663435,2024-06-05 19:44:53.459714
45.49971382,2.215753794,-12.14507008,-1.290030479,2024-06-05 19:44:53.499714
45.53971382,3.793222189,-8.49332428,1.064806104,2024-06-05 19:44:53.539714
45.57971382,3.478266716,-5.806782246,0.3400799036,2024-06-05 19:44:53.579714
45.61971382,2.274377823,-5.031806946,2.363211393,2024-06-05 19:44:53.619714
45.65971382,0.6323033571,-8.627322197,8.081160545,2024-06-05 19:44:53.659714
45.69971382,-3.713062525,-14.10120296,11.75474167,2024-06-05 19:44:53.699714
45.73971382,2.588435888,-10.22991467,2.935694218,2024-06-05 19:44:53.739714
45.77971382,4.106980801,-2.710469961,-1.582253933,2024-06-05 19:44:53.779714
45.81971382,8.298009872,-9.990333557,-3.223132133,2024-06-05 19:44:53.819714
45.85971382,4.724030018,-19.84906197,3.050549746,2024-06-05 19:44:53.859714
45.89971382,3.265006542,-2.273181438,-4.902295589,2024-06-05 19:44:53.899714
45.93971382,3.629313707,-6.26530695,-3.113062143,2024-06-05 19:44:53.939714
45.97971382,4.304687977,-13.52393436,-3.987339735,2024-06-05 19:44:53.979714
46.01971382,0.9678967595,-8.846564293,-2.606382132,2024-06-05 19:44:54.019714
46.05971382,3.113062143,-9.505488396,19.2634182,2024-06-05 19:44:54.059714
46.09971382,0.9487541914,-10.43121147,-3.859024763,2024-06-05 19:44:54.099714
46.09971382,3.113062143,-9.505488396,19.2634182,2024-06-05 19:44:54.099714
46.17971382,2.088934183,-8.254939079,-2.081755638,2024-06-05 19:44:54.179714
46.21971382,1.355833173,-9.460921288,-2.038684845,2024-06-05 19:44:54.219714
46.25971382,4.57178688,-12.33799171,7.837989807,2024-06-05 19:44:54.259714
46.29971382,-0.3257229924,-11.51037407,3.571586847,2024-06-05 19:44:54.299714
46.33971382,-1.455135226,-11.32941723,-2.484049082,2024-06-05 19:44:54.339714
46.37971382,-1.745265007,-10.49342442,-2.20618248,2024-06-05 19:44:54.379714
46.41971382,-1.000199914,-13.67946815,9.002396584,2024-06-05 19:44:54.419714
46.45971382,-0.6610172391,-12.27697468,5.023432255,2024-06-05 19:44:54.459714
46.49971382,0.704387188,-11.68893814,-2.475674152,2024-06-05 19:44:54.499714
46.53971382,6.592525482,-11.02163982,-4.710869789,2024-06-05 19:44:54.539714
46.57971382,-0.2479562461,-13.84128284,3.171686411,2024-06-05 19:44:54.579714
46.61971382,0.442073971,-9.568898201,-8.105088234,2024-06-05 19:44:54.619714
46.65971382,-1.599003673,-10.02383327,-1.19880414,2024-06-05 19:44:54.659714
46.69971382,0.9173483849,-7.479963779,-1.897209287,2024-06-05 19:44:54.699714
46.73971382,2.517548561,-5.338387489,-2.694916487,2024-06-05 19:44:54.739714
46.77971382,5.267798901,-2.23130703,-1.178465128,2024-06-05 19:44:54.779714
46.81971382,5.267798901,-2.23130703,-1.178465128,2024-06-05 19:44:54.819714
46.85971382,6.019743443,-9.863513947,4.246063709,2024-06-05 19:44:54.859714
46.89971382,-2.957229614,-18.87787437,19.75454521,2024-06-05 19:44:54.899714
46.93971382,-0.456430912,-9.886245728,2.650649309,2024-06-05 19:44:54.939714
46.97971382,3.317648649,-9.826425552,-6.604489803,2024-06-05 19:44:54.979714
47.01971382,4.264009953,-18.31586075,4.709673405,2024-06-05 19:44:55.019714
47.05971382,0.6311069727,-5.443671703,-1.43359983,2024-06-05 19:44:55.059714
47.09971382,1.807478428,-4.931009293,-3.58355093,2024-06-05 19:44:55.099714
47.13971382,4.948955536,-11.59173012,-6.209075451,2024-06-05 19:44:55.139714
47.17971382,3.355036497,-11.46730328,-2.120040894,2024-06-05 19:44:55.179714
47.21971382,3.050549746,-8.119445801,-1.372582912,2024-06-05 19:44:55.219714
47.25971382,7.417750359,-7.773383617,5.419743061,2024-06-05 19:44:55.259714
47.29971382,2.474477768,-9.553344727,0.5569294691,2024-06-05 19:44:55.299714
47.33971382,1.53918314,-8.833403587,1.333101273,2024-06-05 19:44:55.339714
47.37971382,2.170290232,-8.001000404,-2.210968018,2024-06-05 19:44:55.379714
47.41971382,0.1977069676,-11.18824005,0.8670991063,2024-06-05 19:44:55.419714
47.45971382,0.1977069676,-11.18824005,0.8670991063,2024-06-05 19:44:55.459714
47.49971382,-1.650449395,-13.75005627,-2.091326952,2024-06-05 19:44:55.499714
47.53971382,-2.139183521,-13.96929836,7.322934628,2024-06-05 19:44:55.539714
47.57971382,0.180957213,-11.56182003,1.838585138,2024-06-05 19:44:55.579714
47.61971382,5.175376415,-10.6612215,-0.7881359458,2024-06-05 19:44:55.619714
47.65971382,3.14895463,-14.34317684,0.9882357717,2024-06-05 19:44:55.659714
47.69971382,4.305884361,-8.944669724,-6.635596275,2024-06-05 19:44:55.699714
47.73971382,4.305884361,-8.944669724,-6.635596275,2024-06-05 19:44:55.739714
47.77971382,-2.513959408,-10.68514919,-0.5940182209,2024-06-05 19:44:55.779714
47.81971382,0.9990034699,-7.236793041,-0.9774680734,2024-06-05 19:44:55.819714
47.85971382,5.175376415,-3.439981699,-2.542972326,2024-06-05 19:44:55.859714
47.89971382,5.904888153,-3.844667673,-1.370190024,2024-06-05 19:44:55.899714
47.93971382,5.963512421,-3.998107433,2.42422843,2024-06-05 19:44:55.939714
47.97971382,3.626920938,-16.2451725,8.656036377,2024-06-05 19:44:55.979714
48.01971382,-0.499501735,-12.2482605,5.719145298,2024-06-05 19:44:56.019714
48.05971382,-0.2132603228,-8.103892326,1.297209024,2024-06-05 19:44:56.059714
48.09971382,5.781657696,-16.13121414,-6.512066841,2024-06-05 19:44:56.099714
48.13971382,1.380957723,-15.3478632,6.47497797,2024-06-05 19:44:56.139714
48.17971382,1.964208245,-1.93190515,-2.124826431,2024-06-05 19:44:56.179714
48.21971382,1.756032705,-6.565008163,-2.258824587,2024-06-05 19:44:56.219714
48.25971382,8.827422142,-14.87258911,-6.538387775,2024-06-05 19:44:56.259714
48.29971382,2.244467735,-7.648956776,0.5796613097,2024-06-05 19:44:56.299714
48.33971382,3.326023579,-7.14945507,3.288934708,2024-06-05 19:44:56.339714
48.37971382,2.54656148,-9.83121109,-1.668395638,2024-06-05 19:44:56.379714
48.41971382,3.298506021,-9.238389015,-2.024327993,2024-06-05 19:44:56.419714
48.45971382,3.318845034,-8.566305161,3.467499018,2024-06-05 19:44:56.459714
48.49971382,0.674476862,-10.25384331,-1.091127157,2024-06-05 19:44:56.499714
48.53971382,0.674476862,-10.25384331,-1.091127157,2024-06-05 19:44:56.539714
48.57971382,3.362214804,-8.583054543,-0.08374879509,2024-06-05 19:44:56.579714
48.61971382,2.407478571,-9.362815857,-2.512762785,2024-06-05 19:44:56.619714
48.65971382,2.006082773,-10.56520939,-5.389832973,2024-06-05 19:44:56.659714
48.69971382,7.387839794,-13.15244865,-2.918944597,2024-06-05 19:44:56.699714
48.73971382,7.543373585,-14.64377594,5.560022354,2024-06-05 19:44:56.739714
48.77971382,8.566305161,-3.548855066,3.603889942,2024-06-05 19:44:56.779714
48.81971382,4.437788486,-4.326223373,-0.7965108156,2024-06-05 19:44:56.819714
48.85971382,2.770290375,-8.847761154,-3.181257725,2024-06-05 19:44:56.859714
48.89971382,4.280759811,-6.890730858,0.2228316069,2024-06-05 19:44:56.899714
48.93971382,0.1052841991,-8.01416111,-0.02273181453,2024-06-05 19:44:56.939714
48.97971382,-0.494716078,-7.995018482,-2.14995122,2024-06-05 19:44:56.979714
49.01971382,1.060020447,-7.906484127,-1.790728688,2024-06-05 19:44:57.019714
49.05971382,0.7438687682,-10.45274639,-0.4695914388,2024-06-05 19:44:57.059714
49.09971382,2.529512644,-11.52832031,-1.549950838,2024-06-05 19:44:57.099714
49.13971382,3.967000723,-11.5642128,-1.736590981,2024-06-05 19:44:57.139714
49.17971382,9.701699257,-10.74257755,5.931209087,2024-06-05 19:44:57.179714
49.21971382,5.47597456,-15.46780396,4.757529736,2024-06-05 19:44:57.219714
49.25971382,4.443770885,-10.81675434,3.448356628,2024-06-05 19:44:57.259714
49.29971382,2.059023857,-5.764907837,-0.6852445602,2024-06-05 19:44:57.299714
49.33971382,-0.7989036441,-12.30688477,-2.273181438,2024-06-05 19:44:57.339714
49.37971382,-2.382354021,-14.04586887,4.74436903,2024-06-05 19:44:57.379714
49.41971382,-2.382354021,-14.04586887,4.74436903,2024-06-05 19:44:57.419714
49.45971382,-1.470688581,-7.651349545,-1.775175333,2024-06-05 19:44:57.459714
49.49971382,0.09690931439,-7.611568928,-0.728315413,2024-06-05 19:44:57.499714
49.53971382,2.222932339,-8.83220768,1.341476202,2024-06-05 19:44:57.539714
49.57971382,2.627917528,-11.49841022,2.675773859,2024-06-05 19:44:57.579714
49.61971382,2.982354403,-11.12841988,1.16769743,2024-06-05 19:44:57.619714
49.65971382,1.928315997,-8.144570351,-5.682056427,2024-06-05 19:44:57.659714
49.69971382,2.772683144,-8.887242317,-0.7737790346,2024-06-05 19:44:57.699714
49.73971382,4.244867325,-8.994022369,-0.6095715761,2024-06-05 19:44:57.739714
49.77971382,7.167401314,-10.36062336,-2.029113531,2024-06-05 19:44:57.779714
49.81971382,9.186644554,-7.956733704,-0.6191428304,2024-06-05 19:44:57.819714
49.85971382,7.384250641,-8.088338852,2.081755638,2024-06-05 19:44:57.859714
49.89971382,2.332104683,-10.9426775,3.052942514,2024-06-05 19:44:57.899714
49.93971382,-2.385943174,-14.94437408,5.304887772,2024-06-05 19:44:57.939714
49.97971382,1.452742457,-12.42174053,1.521237016,2024-06-05 19:44:57.979714
50.01971382,2.458924294,-6.581758022,2.308176517,2024-06-05 19:44:58.019714
50.05971382,2.727219582,-4.655535698,3.085544825,2024-06-05 19:44:58.059714
50.09971382,3.364607811,-4.831707001,7.453642368,2024-06-05 19:44:58.099714
50.13971382,4.570590496,-6.609275341,3.809971809,2024-06-05 19:44:58.139714
50.17971382,-0.3436691463,-8.264510155,-4.395615101,2024-06-05 19:44:58.179714
50.21971382,-0.3436691463,-8.264510155,-4.395615101,2024-06-05 19:44:58.219714
50.25971382,0.7737790346,-10.94865894,5.851049423,2024-06-05 19:44:58.259714
50.29971382,5.994618893,-6.836892605,-1.328315616,2024-06-05 19:44:58.299714
50.33971382,9.681360245,-6.399604321,-0.446859628,2024-06-05 19:44:58.339714
50.37971382,7.796115398,-7.44048214,-1.431207061,2024-06-05 19:44:58.379714
50.41971382,3.894019842,-9.305388451,3.92991209,2024-06-05 19:44:58.419714
50.45971382,3.296113253,-13.43629742,0.8132606149,2024-06-05 19:44:58.459714
50.49971382,5.442475319,-12.55484104,-0.3831507266,2024-06-05 19:44:58.499714
50.53971382,1.947458506,-9.714859962,-0.6780661345,2024-06-05 19:44:58.539714
50.57971382,0.8886345029,-10.46710396,-1.53918314,2024-06-05 19:44:58.579714
50.61971382,-0.4408775866,-10.08754253,-2.348854542,2024-06-05 19:44:58.619714
50.65971382,-0.4217349887,-10.28495026,0.8144569993,2024-06-05 19:44:58.659714
50.69971382,-0.1220339537,-9.693324089,1.063609719,2024-06-05 19:44:58.699714
50.73971382,0.8778668046,-9.286245346,-1.463510156,2024-06-05 19:44:58.739714
50.77971382,2.075773716,-9.619147301,-0.4971089065,2024-06-05 19:44:58.779714
50.81971382,2.537887573,-9.552147865,-0.1582254022,2024-06-05 19:44:58.819714
50.85971382,1.676770449,-9.275477409,-0.9245268703,2024-06-05 19:44:58.859714
50.89971382,2.030309916,-9.340084076,-0.8001000881,2024-06-05 19:44:58.899714
50.93971382,1.943869352,-8.835796356,0.7642077208,2024-06-05 19:44:58.939714
50.97971382,1.596610904,-13.71416378,1.254138112,2024-06-05 19:44:58.979714
51.01971382,2.376372099,-9.619147301,2.607578516,2024-06-05 19:44:59.019714
51.05971382,5.146662235,-13.80658627,6.097809315,2024-06-05 19:44:59.059714
51.09971382,4.126123428,-11.66381359,4.709673405,2024-06-05 19:44:59.099714
51.13971382,4.868795872,-8.071588516,-1.645663738,2024-06-05 19:44:59.139714
51.17971382,3.21356082,-6.677470684,-8.701798439,2024-06-05 19:44:59.179714
51.21971382,4.877170563,-5.23429966,-5.065306664,2024-06-05 19:44:59.219714
51.25971382,3.653241873,-5.794818401,-2.133201361,2024-06-05 19:44:59.259714
51.29971382,7.821239948,-12.2099762,-3.215953588,2024-06-05 19:44:59.299714
51.33971382,6.053542137,-10.77129078,26.26900482,2024-06-05 19:44:59.339714
51.37971382,-1.004985452,-10.20239735,-1.027717352,2024-06-05 19:44:59.379714
51.41971382,-5.36111927,-10.67677498,1.621735573,2024-06-05 19:44:59.419714
51.45971382,3.253042459,-8.929117203,-0.1869392693,2024-06-05 19:44:59.459714
51.49971382,1.560718536,-8.20468998,-1.536790371,2024-06-05 19:44:59.499714
51.53971382,2.409871578,-9.708877563,-0.879063189,2024-06-05 19:44:59.539714
51.57971382,2.14995122,-10.73898792,2.067398787,2024-06-05 19:44:59.579714
51.61971382,5.756533146,-7.736294746,1.268495083,2024-06-05 19:44:59.619714
51.65971382,3.362214804,-8.556734085,0.3580260873,2024-06-05 19:44:59.659714
51.69971382,2.778665304,-10.03460121,-3.774079561,2024-06-05 19:44:59.699714
51.73971382,0.6888338327,-11.75593758,-6.207879066,2024-06-05 19:44:59.739714
51.77971382,7.86670351,-11.07906818,7.48833847,2024-06-05 19:44:59.779714
51.81971382,4.936991215,-9.48843956,-3.710669756,2024-06-05 19:44:59.819714
51.85971382,4.936991215,-9.48843956,-3.710669756,2024-06-05 19:44:59.859714
51.89971382,4.26879549,-6.127719879,-2.64227438,2024-06-05 19:44:59.899714
51.93971382,4.26879549,-6.127719879,-2.64227438,2024-06-05 19:44:59.939714
51.97971382,7.168597698,-6.714559555,-2.417049885,2024-06-05 19:44:59.979714
52.01971382,6.180361748,-8.287241936,-0.1905284971,2024-06-05 19:45:00.019714
52.05971382,6.236593246,-8.054839134,-1.583450437,2024-06-05 19:45:00.059714
52.09971382,5.139483929,-8.644071579,-3.759722471,2024-06-05 19:45:00.099714
52.13971382,5.152644634,-7.271489143,-2.535494804,2024-06-05 19:45:00.139714
52.17971382,5.536094189,-6.627221584,-2.407478571,2024-06-05 19:45:00.179714
52.21971382,5.577968597,-7.046264648,-2.30339098,2024-06-05 19:45:00.219714
52.25971382,5.792425632,-6.501298904,-0.7773682475,2024-06-05 19:45:00.259714
52.29971382,4.864010334,-6.746862411,-1.959422588,2024-06-05 19:45:00.299714
52.33971382,4.366901398,-6.878767014,-2.38474679,2024-06-05 19:45:00.339714
52.37971382,5.044967651,-6.591329098,-2.733201742,2024-06-05 19:45:00.379714
52.41971382,5.044967651,-6.591329098,-2.733201742,2024-06-05 19:45:00.419714
52.45971382,5.044967651,-6.591329098,-2.733201742,2024-06-05 19:45:00.459714
52.49971382,5.044967651,-6.591329098,-2.733201742,2024-06-05 19:45:00.499714
52.53971382,5.044967651,-6.591329098,-2.733201742,2024-06-05 19:45:00.539714
52.57971382,-0.9257232547,-12.06850052,-1.479362607,2024-06-05 19:45:00.579714
52.61971382,-0.9257232547,-12.06850052,-1.479362607,2024-06-05 19:45:00.619714
52.65971382,-0.9257232547,-12.06850052,-1.479362607,2024-06-05 19:45:00.659714
52.69971382,-0.9257232547,-12.06850052,-1.479362607,2024-06-05 19:45:00.699714
52.73971382,-0.9257232547,-12.06850052,-1.479362607,2024-06-05 19:45:00.739714
52.77971382,-0.9257232547,-12.06850052,-1.479362607,2024-06-05 19:45:00.779714
52.81971382,-0.9257232547,-12.06850052,-1.479362607,2024-06-05 19:45:00.819714
52.85971382,-0.9257232547,-12.06850052,-1.479362607,2024-06-05 19:45:00.859714
52.89971382,-0.9257232547,-12.06850052,-1.479362607,2024-06-05 19:45:00.899714
52.93971382,-0.9257232547,-12.06850052,-1.479362607,2024-06-05 19:45:00.939714
52.97971382,-0.9257232547,-12.06850052,-1.479362607,2024-06-05 19:45:00.979714
53.01971382,-0.9257232547,-12.06850052,-1.479362607,2024-06-05 19:45:01.019714
53.05971382,-0.9257232547,-12.06850052,-1.479362607,2024-06-05 19:45:01.059714
53.09971382,-0.9257232547,-12.06850052,-1.479362607,2024-06-05 19:45:01.099714
53.13971382,-0.9257232547,-12.06850052,-1.479362607,2024-06-05 19:45:01.139714
53.17971382,-0.9257232547,-12.06850052,-1.479362607,2024-06-05 19:45:01.179714
53.21971382,-0.9257232547,-12.06850052,-1.479362607,2024-06-05 19:45:01.219714
53.25971382,-0.9257232547,-12.06850052,-1.479362607,2024-06-05 19:45:01.259714
53.29971382,-0.9257232547,-12.06850052,-1.479362607,2024-06-05 19:45:01.299714
53.33971382,-0.9257232547,-12.06850052,-1.479362607,2024-06-05 19:45:01.339714
53.37971382,-0.9257232547,-12.06850052,-1.479362607,2024-06-05 19:45:01.379714
53.41971382,-0.9257232547,-12.06850052,-1.479362607,2024-06-05 19:45:01.419714
53.45971382,4.777868748,-9.500701904,-2.711666346,2024-06-05 19:45:01.459714
53.49971382,3.595515013,-6.357729912,-0.5282155871,2024-06-05 19:45:01.499714
53.53971382,1.563111424,-4.657928467,-3.725026608,2024-06-05 19:45:01.539714
53.57971382,3.162115097,-6.430710793,-1.516451359,2024-06-05 19:45:01.579714
53.61971382,5.540879726,-6.351747513,6.29790926,2024-06-05 19:45:01.619714
53.65971382,4.130908966,-6.022435665,3.603889942,2024-06-05 19:45:01.659714
53.69971382,6.602096558,-11.61924744,1.054038405,2024-06-05 19:45:01.699714
53.73971382,6.070291996,-6.209075451,-10.3534441,2024-06-05 19:45:01.739714
53.77971382,0.6490531564,-7.628617764,10.73898792,2024-06-05 19:45:01.779714
53.81971382,3.618546009,-13.5849514,3.311666489,2024-06-05 19:45:01.819714
53.85971382,4.952843666,-8.882456779,8.245368004,2024-06-05 19:45:01.859714
53.89971382,4.558626175,-4.252045631,-3.170490026,2024-06-05 19:45:01.899714
53.93971382,-1.753639936,-4.667499542,1.7883358,2024-06-05 19:45:01.939714
53.97971382,-1.753639936,-4.667499542,1.7883358,2024-06-05 19:45:01.979714
54.01971382,-1.753639936,-4.667499542,1.7883358,2024-06-05 19:45:02.019714
54.05971382,-1.753639936,-4.667499542,1.7883358,2024-06-05 19:45:02.059714
54.09971382,-1.753639936,-4.667499542,1.7883358,2024-06-05 19:45:02.099714
54.13971382,-1.753639936,-4.667499542,1.7883358,2024-06-05 19:45:02.139714
54.17971382,-1.753639936,-4.667499542,1.7883358,2024-06-05 19:45:02.179714
54.21971382,-1.753639936,-4.667499542,1.7883358,2024-06-05 19:45:02.219714
54.25971382,-1.753639936,-4.667499542,1.7883358,2024-06-05 19:45:02.259714
54.29971382,-1.753639936,-4.667499542,1.7883358,2024-06-05 19:45:02.299714
54.33971382,3.10947299,-15.54557037,-6.761219501,2024-06-05 19:45:02.339714
54.37971382,3.10947299,-15.54557037,-6.761219501,2024-06-05 19:45:02.379714
54.41971382,3.10947299,-15.54557037,-6.761219501,2024-06-05 19:45:02.419714
54.45971382,3.10947299,-15.54557037,-6.761219501,2024-06-05 19:45:02.459714
54.49971382,3.10947299,-15.54557037,-6.761219501,2024-06-05 19:45:02.499714
54.53971382,3.10947299,-15.54557037,-6.761219501,2024-06-05 19:45:02.539714
54.57971382,-5.661717415,2.908176899,-4.339384079,2024-06-05 19:45:02.579714
54.61971382,-5.661717415,2.908176899,-4.339384079,2024-06-05 19:45:02.619714
54.65971382,-5.661717415,2.908176899,-4.339384079,2024-06-05 19:45:02.659714
54.69971382,-5.661717415,2.908176899,-4.339384079,2024-06-05 19:45:02.699714
54.73971382,-5.661717415,2.908176899,-4.339384079,2024-06-05 19:45:02.739714
54.77971382,-5.661717415,2.908176899,-4.339384079,2024-06-05 19:45:02.779714
54.81971382,-5.661717415,2.908176899,-4.339384079,2024-06-05 19:45:02.819714
54.85971382,-5.661717415,2.908176899,-4.339384079,2024-06-05 19:45:02.859714
54.89971382,-5.661717415,2.908176899,-4.339384079,2024-06-05 19:45:02.899714
54.93971382,-5.661717415,2.908176899,-4.339384079,2024-06-05 19:45:02.939714
54.97971382,-5.661717415,2.908176899,-4.339384079,2024-06-05 19:45:02.979714
55.01971382,-5.661717415,2.908176899,-4.339384079,2024-06-05 19:45:03.019714
55.05971382,-5.661717415,2.908176899,-4.339384079,2024-06-05 19:45:03.059714
55.09971382,-5.661717415,2.908176899,-4.339384079,2024-06-05 19:45:03.099714
55.13971382,8.544769287,-5.780461311,30.49831963,2024-06-05 19:45:03.139714
55.17971382,13.32622719,-10.03460121,-6.394818306,2024-06-05 19:45:03.179714
55.21971382,-1.04685986,-39.51148224,-31.77160072,2024-06-05 19:45:03.219714
55.25971382,4.787439823,-14.72154236,-11.0371933,2024-06-05 19:45:03.259714
55.29971382,-1.147358418,-25.36601448,-9.265906334,2024-06-05 19:45:03.299714
55.33971382,-2.97039032,-8.630910873,1.138983607,2024-06-05 19:45:03.339714
55.37971382,-2.018345833,-15.16122341,3.321237803,2024-06-05 19:45:03.379714
55.41971382,-4.945366383,-10.49820995,-3.104687452,2024-06-05 19:45:03.419714
55.45971382,-5.141876698,-7.445267677,2.163111687,2024-06-05 19:45:03.459714
55.49971382,-2.892623425,-3.762115479,0.3125624657,2024-06-05 19:45:03.499714
55.53971382,-1.307976723,-1.136590719,1.899602056,2024-06-05 19:45:03.539714
55.57971382,-1.200000525,-2.173879385,0.4061816335,2024-06-05 19:45:03.579714
55.61971382,-1.98813653,-6.658328056,-0.2778665423,2024-06-05 19:45:03.619714
55.65971382,-1.98813653,-6.658328056,-0.2778665423,2024-06-05 19:45:03.659714
55.69971382,-1.98813653,-6.658328056,-0.2778665423,2024-06-05 19:45:03.699714
55.73971382,-1.98813653,-6.658328056,-0.2778665423,2024-06-05 19:45:03.739714
55.77971382,-1.98813653,-6.658328056,-0.2778665423,2024-06-05 19:45:03.779714
55.81971382,-1.98813653,-6.658328056,-0.2778665423,2024-06-05 19:45:03.819714
55.85971382,-1.98813653,-6.658328056,-0.2778665423,2024-06-05 19:45:03.859714
55.89971382,-1.98813653,-6.658328056,-0.2778665423,2024-06-05 19:45:03.899714
55.93971382,-1.98813653,-6.658328056,-0.2778665423,2024-06-05 19:45:03.939714
55.97971382,-1.98813653,-6.658328056,-0.2778665423,2024-06-05 19:45:03.979714
56.01971382,-1.98813653,-6.658328056,-0.2778665423,2024-06-05 19:45:04.019714
56.05971382,-1.98813653,-6.658328056,-0.2778665423,2024-06-05 19:45:04.059714
56.09971382,-1.98813653,-6.658328056,-0.2778665423,2024-06-05 19:45:04.099714
56.13971382,-1.98813653,-6.658328056,-0.2778665423,2024-06-05 19:45:04.139714
56.17971382,-1.98813653,-6.658328056,-0.2778665423,2024-06-05 19:45:04.179714
56.21971382,-1.98813653,-6.658328056,-0.2778665423,2024-06-05 19:45:04.219714
56.25971382,-1.98813653,-6.658328056,-0.2778665423,2024-06-05 19:45:04.259714
56.29971382,-1.98813653,-6.658328056,-0.2778665423,2024-06-05 19:45:04.299714
56.33971382,-1.98813653,-6.658328056,-0.2778665423,2024-06-05 19:45:04.339714
56.37971382,-1.98813653,-6.658328056,-0.2778665423,2024-06-05 19:45:04.379714
56.41971382,-1.98813653,-6.658328056,-0.2778665423,2024-06-05 19:45:04.419714
56.45971382,-1.98813653,-6.658328056,-0.2778665423,2024-06-05 19:45:04.459714
56.49971382,-1.98813653,-6.658328056,-0.2778665423,2024-06-05 19:45:04.499714
56.53971382,-1.98813653,-6.658328056,-0.2778665423,2024-06-05 19:45:04.539714
56.57971382,-1.98813653,-6.658328056,-0.2778665423,2024-06-05 19:45:04.579714
56.61971382,-1.98813653,-6.658328056,-0.2778665423,2024-06-05 19:45:04.619714
56.65971382,-1.98813653,-6.658328056,-0.2778665423,2024-06-05 19:45:04.659714
56.69971382,-1.98813653,-6.658328056,-0.2778665423,2024-06-05 19:45:04.699714
56.73971382,-1.98813653,-6.658328056,-0.2778665423,2024-06-05 19:45:04.739714
56.77971382,-1.98813653,-6.658328056,-0.2778665423,2024-06-05 19:45:04.779714
56.81971382,-0.6634100676,-12.93320656,0.6358926296,2024-06-05 19:45:04.819714
56.85971382,-0.509073019,-7.692027569,0.02871387079,2024-06-05 19:45:04.859714
56.89971382,-1.112662554,-5.448457241,-0.4660021961,2024-06-05 19:45:04.899714
56.93971382,0.6394818425,-4.865206718,-1.203589797,2024-06-05 19:45:04.939714
56.97971382,0.08614161611,-5.769693375,0.3819543123,2024-06-05 19:45:04.979714
57.01971382,0.7139584422,-6.108577251,5.350351334,2024-06-05 19:45:05.019714
57.05971382,-0.9053842425,-10.92233849,11.56660557,2024-06-05 19:45:05.059714
57.09971382,-1.709073544,-8.72811985,7.033103943,2024-06-05 19:45:05.099714
57.13971382,-0.3197409213,-8.01775074,7.76500845,2024-06-05 19:45:05.139714
57.17971382,-1.823031783,-6.906284332,5.319244862,2024-06-05 19:45:05.179714
57.21971382,1.418046474,-14.59113312,6.620042801,2024-06-05 19:45:05.219714
57.25971382,2.819642305,-8.032107353,-4.838885784,2024-06-05 19:45:05.259714
57.29971382,0.4827519655,-5.527719498,-6.44985342,2024-06-05 19:45:05.299714
57.33971382,-5.806782246,-15.05205059,-5.810371399,2024-06-05 19:45:05.339714
57.37971382,-5.806782246,-15.05205059,-5.810371399,2024-06-05 19:45:05.379714
57.41971382,-5.806782246,-15.05205059,-5.810371399,2024-06-05 19:45:05.419714
57.45971382,-5.806782246,-15.05205059,-5.810371399,2024-06-05 19:45:05.459714
57.49971382,-5.806782246,-15.05205059,-5.810371399,2024-06-05 19:45:05.499714
57.53971382,-5.806782246,-15.05205059,-5.810371399,2024-06-05 19:45:05.539714
57.57971382,-1.458724499,-7.707581043,-0.5425725579,2024-06-05 19:45:05.579714
57.61971382,-1.458724499,-7.707581043,-0.5425725579,2024-06-05 19:45:05.619714
57.65971382,-1.458724499,-7.707581043,-0.5425725579,2024-06-05 19:45:05.659714
57.69971382,-1.458724499,-7.707581043,-0.5425725579,2024-06-05 19:45:05.699714
57.73971382,-1.458724499,-7.707581043,-0.5425725579,2024-06-05 19:45:05.739714
57.77971382,-1.458724499,-7.707581043,-0.5425725579,2024-06-05 19:45:05.779714
57.81971382,-1.458724499,-7.707581043,-0.5425725579,2024-06-05 19:45:05.819714
57.85971382,-1.458724499,-7.707581043,-0.5425725579,2024-06-05 19:45:05.859714
57.89971382,-1.458724499,-7.707581043,-0.5425725579,2024-06-05 19:45:05.899714
57.93971382,-1.458724499,-7.707581043,-0.5425725579,2024-06-05 19:45:05.939714
57.97971382,-1.458724499,-7.707581043,-0.5425725579,2024-06-05 19:45:05.979714
58.01971382,-1.458724499,-7.707581043,-0.5425725579,2024-06-05 19:45:06.019714
58.05971382,-1.458724499,-7.707581043,-0.5425725579,2024-06-05 19:45:06.059714
58.09971382,-1.458724499,-7.707581043,-0.5425725579,2024-06-05 19:45:06.099714
58.13971382,-1.458724499,-7.707581043,-0.5425725579,2024-06-05 19:45:06.139714
58.17971382,-1.458724499,-7.707581043,-0.5425725579,2024-06-05 19:45:06.179714
58.21971382,-1.458724499,-7.707581043,-0.5425725579,2024-06-05 19:45:06.219714
58.25971382,-1.458724499,-7.707581043,-0.5425725579,2024-06-05 19:45:06.259714
58.29971382,-1.458724499,-7.707581043,-0.5425725579,2024-06-05 19:45:06.299714
58.33971382,-1.458724499,-7.707581043,-0.5425725579,2024-06-05 19:45:06.339714
58.37971382,-1.458724499,-7.707581043,-0.5425725579,2024-06-05 19:45:06.379714
58.41971382,-1.458724499,-7.707581043,-0.5425725579,2024-06-05 19:45:06.419714
58.45971382,-1.458724499,-7.707581043,-0.5425725579,2024-06-05 19:45:06.459714
58.49971382,-4.519144535,-9.687342644,0.6442674994,2024-06-05 19:45:06.499714
58.53971382,1.195214868,-10.16889763,2.703291416,2024-06-05 19:45:06.539714
58.57971382,-1.019342422,-10.16411209,2.578864574,2024-06-05 19:45:06.579714
58.61971382,-2.887837887,-8.465806961,-1.36061883,2024-06-05 19:45:06.619714
58.65971382,-4.185046673,-9.192625999,-2.017149448,2024-06-05 19:45:06.659714
58.69971382,-4.973182678,-8.549555779,-0.02033899166,2024-06-05 19:45:06.699714
58.73971382,-3.564408541,-9.688538551,0.4301098585,2024-06-05 19:45:06.739714
58.77971382,-1.686341763,-9.486045837,-0.9197412133,2024-06-05 19:45:06.779714
58.81971382,-1.721037745,-8.652446747,-1.327119231,2024-06-05 19:45:06.819714
58.85971382,-2.350050926,-9.503094673,-0.883848846,2024-06-05 19:45:06.859714
58.89971382,-1.934298038,-9.56770134,-0.1941177398,2024-06-05 19:45:06.899714
58.93971382,-2.133201361,-9.837192535,0.04307080805,2024-06-05 19:45:06.939714
58.97971382,-4.07348156,-10.67916775,-1.105484009,2024-06-05 19:45:06.979714
59.01971382,-4.07348156,-10.67916775,-1.105484009,2024-06-05 19:45:07.019714
59.05971382,-4.07348156,-10.67916775,-1.105484009,2024-06-05 19:45:07.059714
59.09971382,-4.07348156,-10.67916775,-1.105484009,2024-06-05 19:45:07.099714
59.13971382,-4.07348156,-10.67916775,-1.105484009,2024-06-05 19:45:07.139714
59.17971382,-4.07348156,-10.67916775,-1.105484009,2024-06-05 19:45:07.179714
59.21971382,-4.07348156,-10.67916775,-1.105484009,2024-06-05 19:45:07.219714
59.25971382,-4.07348156,-10.67916775,-1.105484009,2024-06-05 19:45:07.259714
59.29971382,-4.07348156,-10.67916775,-1.105484009,2024-06-05 19:45:07.299714
59.33971382,-4.07348156,-10.67916775,-1.105484009,2024-06-05 19:45:07.339714
59.37971382,-4.07348156,-10.67916775,-1.105484009,2024-06-05 19:45:07.379714
59.41971382,-4.07348156,-10.67916775,-1.105484009,2024-06-05 19:45:07.419714
59.45971382,-4.07348156,-10.67916775,-1.105484009,2024-06-05 19:45:07.459714
59.49971382,-4.07348156,-10.67916775,-1.105484009,2024-06-05 19:45:07.499714
59.53971382,-4.07348156,-10.67916775,-1.105484009,2024-06-05 19:45:07.539714
59.57971382,-4.07348156,-10.67916775,-1.105484009,2024-06-05 19:45:07.579714
59.61971382,-4.07348156,-10.67916775,-1.105484009,2024-06-05 19:45:07.619714
59.65971382,-4.07348156,-10.67916775,-1.105484009,2024-06-05 19:45:07.659714
59.69971382,-4.07348156,-10.67916775,-1.105484009,2024-06-05 19:45:07.699714
59.73971382,-4.07348156,-10.67916775,-1.105484009,2024-06-05 19:45:07.739714
59.77971382,-4.07348156,-10.67916775,-1.105484009,2024-06-05 19:45:07.779714
59.81971382,-4.07348156,-10.67916775,-1.105484009,2024-06-05 19:45:07.819714
59.85971382,-4.07348156,-10.67916775,-1.105484009,2024-06-05 19:45:07.859714
59.89971382,-4.07348156,-10.67916775,-1.105484009,2024-06-05 19:45:07.899714
59.93971382,-4.07348156,-10.67916775,-1.105484009,2024-06-05 19:45:07.939714
59.97971382,-4.07348156,-10.67916775,-1.105484009,2024-06-05 19:45:07.979714
60.01971382,-4.07348156,-10.67916775,-1.105484009,2024-06-05 19:45:08.019714
60.05971382,-4.07348156,-10.67916775,-1.105484009,2024-06-05 19:45:08.059714
60.09971382,-4.07348156,-10.67916775,-1.105484009,2024-06-05 19:45:08.099714
60.13971382,-4.07348156,-10.67916775,-1.105484009,2024-06-05 19:45:08.139714
60.17971382,-4.07348156,-10.67916775,-1.105484009,2024-06-05 19:45:08.179714
60.21971382,-1.484148264,-8.653642654,-0.3005983531,2024-06-05 19:45:08.219714
60.25971382,-2.043470621,-8.088338852,-0.3807578981,2024-06-05 19:45:08.259714
60.29971382,-5.389832973,-12.39541912,-2.096112728,2024-06-05 19:45:08.299714
60.33971382,2.886641502,-16.14796448,9.129216194,2024-06-05 19:45:08.339714
60.37971382,7.727920055,-11.01685429,1.097109199,2024-06-05 19:45:08.379714
60.41971382,6.253343105,-11.27916813,-5.570790291,2024-06-05 19:45:08.419714
60.45971382,3.490231037,-6.745666027,-7.412964344,2024-06-05 19:45:08.459714
60.49971382,2.421835661,-9.116056442,0.1510469317,2024-06-05 19:45:08.499714
60.53971382,-1.093519926,-10.11745262,4.697709084,2024-06-05 19:45:08.539714
60.57971382,0.9571290612,-8.157731056,1.319940805,2024-06-05 19:45:08.579714
60.61971382,3.350250721,-8.755637169,0.3173480928,2024-06-05 19:45:08.619714
60.65971382,3.757329702,-9.762716293,2.700898647,2024-06-05 19:45:08.659714
60.69971382,3.757329702,-9.762716293,2.700898647,2024-06-05 19:45:08.699714
60.73971382,3.757329702,-9.762716293,2.700898647,2024-06-05 19:45:08.739714
60.77971382,3.757329702,-9.762716293,2.700898647,2024-06-05 19:45:08.779714
60.81971382,3.757329702,-9.762716293,2.700898647,2024-06-05 19:45:08.819714
60.85971382,3.757329702,-9.762716293,2.700898647,2024-06-05 19:45:08.859714
60.89971382,3.757329702,-9.762716293,2.700898647,2024-06-05 19:45:08.899714
60.93971382,3.757329702,-9.762716293,2.700898647,2024-06-05 19:45:08.939714
60.97971382,3.757329702,-9.762716293,2.700898647,2024-06-05 19:45:08.979714
61.01971382,3.757329702,-9.762716293,2.700898647,2024-06-05 19:45:09.019714
61.05971382,3.757329702,-9.762716293,2.700898647,2024-06-05 19:45:09.059714
61.09971382,3.757329702,-9.762716293,2.700898647,2024-06-05 19:45:09.099714
61.13971382,3.757329702,-9.762716293,2.700898647,2024-06-05 19:45:09.139714
61.17971382,3.757329702,-9.762716293,2.700898647,2024-06-05 19:45:09.179714
61.21971382,3.757329702,-9.762716293,2.700898647,2024-06-05 19:45:09.219714
61.25971382,3.757329702,-9.762716293,2.700898647,2024-06-05 19:45:09.259714
61.29971382,3.757329702,-9.762716293,2.700898647,2024-06-05 19:45:09.299714
61.33971382,3.757329702,-9.762716293,2.700898647,2024-06-05 19:45:09.339714
61.37971382,3.757329702,-9.762716293,2.700898647,2024-06-05 19:45:09.379714
61.41971382,3.757329702,-9.762716293,2.700898647,2024-06-05 19:45:09.419714
61.45971382,3.757329702,-9.762716293,2.700898647,2024-06-05 19:45:09.459714
61.49971382,3.757329702,-9.762716293,2.700898647,2024-06-05 19:45:09.499714
61.53971382,3.757329702,-9.762716293,2.700898647,2024-06-05 19:45:09.539714
61.57971382,3.757329702,-9.762716293,2.700898647,2024-06-05 19:45:09.579714
61.61971382,3.757329702,-9.762716293,2.700898647,2024-06-05 19:45:09.619714
61.65971382,3.757329702,-9.762716293,2.700898647,2024-06-05 19:45:09.659714
61.69971382,3.757329702,-9.762716293,2.700898647,2024-06-05 19:45:09.699714
61.73971382,3.757329702,-9.762716293,2.700898647,2024-06-05 19:45:09.739714
61.77971382,3.757329702,-9.762716293,2.700898647,2024-06-05 19:45:09.779714
61.81971382,3.757329702,-9.762716293,2.700898647,2024-06-05 19:45:09.819714
61.85971382,3.757329702,-9.762716293,2.700898647,2024-06-05 19:45:09.859714
61.89971382,-3.095116138,-8.298009872,0.3305086195,2024-06-05 19:45:09.899714
61.93971382,-0.7713862062,-9.804889679,1.267298698,2024-06-05 19:45:09.939714
61.97971382,-0.2108674943,-10.39890766,1.649253011,2024-06-05 19:45:09.979714
62.01971382,-0.536590457,-9.035896301,0.8312067389,2024-06-05 19:45:10.019714
62.05971382,-1.781157374,-8.950652122,-0.3604189157,2024-06-05 19:45:10.059714
62.09971382,-1.624128342,-8.787940025,-0.0239282269,2024-06-05 19:45:10.099714
62.13971382,-1.319940805,-9.141180992,-0.7677969933,2024-06-05 19:45:10.139714
62.17971382,-0.8240283132,-9.280263901,-1.287637711,2024-06-05 19:45:10.179714
62.21971382,-1.245763302,-9.635896683,-0.8204390407,2024-06-05 19:45:10.219714
62.25971382,-0.5318048596,-9.868299484,-0.3879363835,2024-06-05 19:45:10.259714
62.29971382,-2.759522676,-10.33430195,3.876971006,2024-06-05 19:45:10.299714
62.33971382,-2.767897606,-10.44676495,-1.887637973,2024-06-05 19:45:10.339714
