Time (s),Gyroscope x (rad/s),Gyroscope y (rad/s),Gyroscope z (rad/s),Datetime
0.030197097,-0.2276935577,-0.8204957247,-0.2069215178,2024-06-05 19:44:08.030197
0.070176785,0.8038514853,0.9378045201,-0.005059856921,2024-06-05 19:44:08.070177
0.146356108,0.6382077336,-0.2113156021,-0.1275616586,2024-06-05 19:44:08.146356
0.186840952,0.6232944727,-0.2736317217,-0.5149070024,2024-06-05 19:44:08.186841
0.227262462,-0.00186415785,0.6340799332,-0.5228962898,2024-06-05 19:44:08.227262
0.26774866,0.8753552437,-0.09893351793,-0.3219666779,2024-06-05 19:44:08.267749
0.308231316,0.7985253334,-1.437132478,-0.2958684862,2024-06-05 19:44:08.308231
0.348376785,-0.1022623703,-1.292260766,-0.601190865,2024-06-05 19:44:08.348377
0.389212774,0.5090482235,0.6398055553,-0.006391398143,2024-06-05 19:44:08.389213
0.429647566,0.16031757,-0.5946663618,0.02742975019,2024-06-05 19:44:08.429648
0.470153816,-0.2143781483,-0.1524614692,-0.9800143838,2024-06-05 19:44:08.470154
0.510661993,0.1275616586,0.06657706201,-0.14993155,2024-06-05 19:44:08.510662
0.551126993,0.7833457589,0.1930734813,0.8227593303,2024-06-05 19:44:08.551127
0.591646108,0.7093120217,1.321954131,0.7572475076,2024-06-05 19:44:08.591646
0.632042254,0.9065132737,1.206775904,0.6121095419,2024-06-05 19:44:08.632042
0.672603556,-1.775077701,0.2479329854,-0.6531209946,2024-06-05 19:44:08.672604
0.71309366,-0.3581846058,-0.7169018388,-1.184805393,2024-06-05 19:44:08.713094
0.753521524,0.710909903,-0.08615072072,-0.987737298,2024-06-05 19:44:08.753522
0.794017202,1.327546597,-0.1881467849,-0.7740249634,2024-06-05 19:44:08.794017
0.834474493,1.32488358,-1.333006024,-0.8224930763,2024-06-05 19:44:08.834474
0.875141941,-0.5045210123,-0.3007951677,-2.1796,2024-06-05 19:44:08.875142
0.915522774,-1.774811387,1.195857167,-3.148695707,2024-06-05 19:44:08.915523
0.955942045,-3.018471003,2.357493877,-3.652950287,2024-06-05 19:44:08.955942
0.996445639,-1.539528012,1.696117282,-4.276511192,2024-06-05 19:44:08.996446
1.036917254,-2.385589361,1.539528012,-6.232145786,2024-06-05 19:44:09.036917
1.077388972,-2.835517168,3.479983091,-6.971550465,2024-06-05 19:44:09.077389
1.117983295,-1.129945874,2.337254524,-5.983946323,2024-06-05 19:44:09.117983
1.15833491,-4.352408886,4.923507214,-5.185554504,2024-06-05 19:44:09.158335
1.198836629,-2.070147276,2.399037838,-2.553629875,2024-06-05 19:44:09.198837
1.239309077,-4.135900497,2.197975159,-1.222088575,2024-06-05 19:44:09.239309
1.27979616,-1.444455981,1.702508688,2.482525587,2024-06-05 19:44:09.279796
1.320333868,2.070280313,2.125272989,1.129945874,2024-06-05 19:44:09.320334
1.360823452,3.505681992,1.264964223,2.769206285,2024-06-05 19:44:09.360823
1.401214181,4.331636906,0.6015903354,4.249613762,2024-06-05 19:44:09.401214
1.441772149,1.468823195,0.2806889117,2.492112637,2024-06-05 19:44:09.441772
1.482205431,1.30997026,-1.213433623,1.869350791,2024-06-05 19:44:09.482205
1.522514754,1.634200573,-0.2270277888,0.7713618875,2024-06-05 19:44:09.522515
1.563085899,1.050586104,-2.590247154,-0.8632382154,2024-06-05 19:44:09.563086
1.603468868,0.5641740561,-0.0683080703,-1.743653297,2024-06-05 19:44:09.603469
1.644098608,0.2914743721,1.097855806,-1.645651817,2024-06-05 19:44:09.644099
1.684541837,-0.0149132628,-2.424869776,-2.250571012,2024-06-05 19:44:09.684542
1.725060379,-0.4382102489,1.134340048,-1.506772161,2024-06-05 19:44:09.725060
1.765561577,-0.4999937415,0.5232957006,-4.854000568,2024-06-05 19:44:09.765562
1.806024806,-2.473471165,-2.171211243,-10.66391468,2024-06-05 19:44:09.806025
1.846435118,-2.889843941,-1.34152782,-13.10249901,2024-06-05 19:44:09.846435
1.886968191,1.765224218,-6.394993305,1.969216347,2024-06-05 19:44:09.886968
1.927426837,1.617955804,0.5091813803,3.769593477,2024-06-05 19:44:09.927427
1.967940952,-1.812360883,6.657706261,0.3383446336,2024-06-05 19:44:09.967941
2.008408347,-1.842720032,4.724175453,1.362699389,2024-06-05 19:44:10.008408
2.048910014,-1.373351693,0.1890788674,0.2866808474,2024-06-05 19:44:10.048910
2.089327254,-1.178413987,-2.500235081,-0.1243659556,2024-06-05 19:44:10.089327
2.129852514,-2.368811846,-0.4603138268,-0.08468602598,2024-06-05 19:44:10.129853
2.170224024,-1.984662294,4.004477024,-0.2231663167,2024-06-05 19:44:10.170224
2.210662306,0.3766930401,2.931254864,0.5990604162,2024-06-05 19:44:10.210662
2.251342827,0.08708280325,-1.416094184,0.3793561161,2024-06-05 19:44:10.251343
2.291790743,1.118760943,-0.103727065,0.7175676227,2024-06-05 19:44:10.291791
2.33228366,3.175592899,1.009974003,1.131543756,2024-06-05 19:44:10.332284
2.372762097,3.028324366,-0.9280842543,0.9219591618,2024-06-05 19:44:10.372762
2.413265847,1.015433431,0.964435339,-0.7508561015,2024-06-05 19:44:10.413266
2.453742202,2.240983963,5.724695206,0.6123758554,2024-06-05 19:44:10.453742
2.494232774,0.05485950038,-0.2376801223,0.9632369876,2024-06-05 19:44:10.494233
2.534689754,0.4121120274,-0.8058487773,0.7694976926,2024-06-05 19:44:10.534690
2.575148243,0.5761579275,-1.238200188,0.5394073725,2024-06-05 19:44:10.575148
2.615605952,-0.2940043211,-1.429942131,0.3356815577,2024-06-05 19:44:10.615606
2.656126212,-0.747926712,-0.9363398552,-0.4507267177,2024-06-05 19:44:10.656126
2.696618243,-0.2937380075,-2.449636459,-1.629407048,2024-06-05 19:44:10.696618
2.737115431,1.9071666,-2.040720224,-0.05778888986,2024-06-05 19:44:10.737115
2.777569754,-0.8251561522,0.2452699095,0.7066489458,2024-06-05 19:44:10.777570
2.818041108,-1.120625138,0.3440702558,0.1773612946,2024-06-05 19:44:10.818041
2.858498712,0.3452686667,0.4300878346,-1.182142377,2024-06-05 19:44:10.858499
2.899003087,0.7641715407,-0.121836029,-0.6933335662,2024-06-05 19:44:10.899003
2.939516108,-0.6323489547,-2.981986761,-0.386546433,2024-06-05 19:44:10.939516
2.979971472,-1.254311919,-5.111920357,0.007722939365,2024-06-05 19:44:10.979971
3.020495535,-1.91009593,-2.548703194,0.7407364249,2024-06-05 19:44:11.020496
3.060970014,-1.060705781,1.56828928,0.6248922944,2024-06-05 19:44:11.060970
3.10143892,-1.259371758,-0.2155765295,-0.04553871229,2024-06-05 19:44:11.101439
3.141883399,-2.471074343,-1.034873843,0.1707035899,2024-06-05 19:44:11.141883
3.182402514,-0.6557840705,0.8967930675,-0.1749645174,2024-06-05 19:44:11.182403
3.222906941,0.4765586257,1.064034581,0.68321383,2024-06-05 19:44:11.222907
3.263350952,2.379198074,0.2623136342,1.080945253,2024-06-05 19:44:11.263351
3.303830066,3.424457788,2.730724812,1.240197539,2024-06-05 19:44:11.303830
3.344335327,2.125406265,0.9862726331,-0.4933360517,2024-06-05 19:44:11.344335
3.384798556,1.638727903,1.363232017,0.1613828093,2024-06-05 19:44:11.384799
3.425316316,1.819018483,1.053382277,0.2013290375,2024-06-05 19:44:11.425316
3.465732879,-0.305721879,0.7157034278,0.02716344222,2024-06-05 19:44:11.465733
3.506224389,-1.111570716,0.4599143565,-0.09933298081,2024-06-05 19:44:11.506224
3.546757149,1.12967968,-2.122210503,-0.6533873081,2024-06-05 19:44:11.546757
3.587191837,-0.7961285114,-2.015687227,-1.071624398,2024-06-05 19:44:11.587192
3.627651837,-1.079347372,-2.453897476,0.02556559257,2024-06-05 19:44:11.627652
3.668150952,-2.34324646,-1.382539272,-0.1339530498,2024-06-05 19:44:11.668151
3.708629233,-1.127282858,4.782230377,1.303312659,2024-06-05 19:44:11.708629
3.749099545,-0.8057156205,2.083462715,0.4858794212,2024-06-05 19:44:11.749100
3.789619493,-1.359503627,1.621550918,-0.6105116606,2024-06-05 19:44:11.789619
3.830071577,-0.3294233084,-0.908111155,-0.2937380075,2024-06-05 19:44:11.830072
3.870569233,0.3183715343,-1.392126441,0.09107742459,2024-06-05 19:44:11.870569
3.911044441,1.913558006,1.341394663,0.9981233478,2024-06-05 19:44:11.911044
3.951559285,2.596505404,0.8078460693,1.955901027,2024-06-05 19:44:11.951559
3.991969441,1.607569814,-2.840310812,0.6030550599,2024-06-05 19:44:11.991969
4.032487097,0.9097089767,2.311422586,0.3023930192,2024-06-05 19:44:12.032487
4.072933087,1.300649524,0.1691057384,1.148054838,2024-06-05 19:44:12.072933
4.113346108,0.3362141848,-1.692255855,0.7244915962,2024-06-05 19:44:12.113346
4.153890535,0.2680392563,-2.381328344,0.3015941083,2024-06-05 19:44:12.153891
4.194374233,-0.02476666868,-3.349625349,-0.2322207987,2024-06-05 19:44:12.194374
4.234889649,-0.3019935489,-3.826716423,-0.7987915874,2024-06-05 19:44:12.234890
4.275358191,0.009320789017,-4.741884708,-0.6081148982,2024-06-05 19:44:12.275358
4.315814233,0.2954690158,-5.683018208,0.158986032,2024-06-05 19:44:12.315814
4.356281316,0.2880123854,-2.449902773,1.14752233,2024-06-05 19:44:12.356281
4.396764858,-0.056723658,-2.200505018,0.7804163694,2024-06-05 19:44:12.396765
4.437280327,0.4840152562,-4.464657784,0.2324871123,2024-06-05 19:44:12.437280
4.477790535,-0.1768286824,-2.159493685,1.546052575,2024-06-05 19:44:12.477791
4.518220535,-0.2207695395,-1.346853971,1.585466146,2024-06-05 19:44:12.518221
4.558738452,-1.721816063,-2.486120701,0.6834801435,2024-06-05 19:44:12.558738
4.599203816,-0.5852124095,-0.6644390821,-1.146190763,2024-06-05 19:44:12.599204
4.639715066,-0.1291595101,-1.765756845,-0.6230281591,2024-06-05 19:44:12.639715
4.680137202,0.2866808474,-2.851495743,0.4230306745,2024-06-05 19:44:12.680137
4.720538139,0.2616478503,-1.220357537,0.4754934013,2024-06-05 19:44:12.720538
4.761061004,0.001597849536,0.667767942,0.3700353205,2024-06-05 19:44:12.761061
4.801610743,-0.0146469539,0.04447348043,0.3029256463,2024-06-05 19:44:12.801611
4.842077254,-0.1291595101,-2.225271702,0.1336867511,2024-06-05 19:44:12.842077
4.882572045,0.2717675865,-1.855103254,-0.05006595328,2024-06-05 19:44:12.882572
4.923034233,0.6898715496,0.140877068,-0.1395455301,2024-06-05 19:44:12.923034
4.963538035,0.2323539555,-1.249118924,-0.08468602598,2024-06-05 19:44:12.963538
5.004025327,0.8455287218,-0.8029193878,-0.1243659556,2024-06-05 19:44:13.004025
5.044508712,1.635265827,0.6234276295,-0.4912055731,2024-06-05 19:44:13.044509
5.084967462,2.589315176,0.08308817446,-0.7002575397,2024-06-05 19:44:13.084967
5.12541991,3.06427598,-0.2845503688,-0.2058562785,2024-06-05 19:44:13.125420
5.165931056,0.6818822622,0.332885325,0.1129147038,2024-06-05 19:44:13.165931
5.20640767,-0.3924052119,-0.2560553849,0.04420717061,2024-06-05 19:44:13.206408
5.246915535,-0.8866733313,-0.1956034154,-0.6051855087,2024-06-05 19:44:13.246916
5.287393295,-0.9268859029,0.3715000153,-0.5958647132,2024-06-05 19:44:13.287393
5.327847514,-0.6110442877,0.03994623944,-0.3934704363,2024-06-05 19:44:13.327848
5.368330066,-0.8200962543,-2.540980339,-0.4422048628,2024-06-05 19:44:13.368330
5.408820847,-0.9975907207,-3.246031284,-0.1014634445,2024-06-05 19:44:13.408821
5.449298712,-1.463363886,-1.883332014,0.9523183107,2024-06-05 19:44:13.449299
5.489792774,-2.520075083,-1.268293023,2.023543358,2024-06-05 19:44:13.489793
5.530263608,-2.521672964,-0.3769593239,1.362965703,2024-06-05 19:44:13.530264
5.570766524,-1.433004737,-0.3596493006,0.1267627329,2024-06-05 19:44:13.570767
5.611243191,-0.4209001958,-2.330996275,-0.4403406978,2024-06-05 19:44:13.611243
5.651712097,0.1019960642,-0.5343475342,-0.3533910513,2024-06-05 19:44:13.651712
5.692198452,-0.1565892547,1.573615432,0.3466002047,2024-06-05 19:44:13.692198
5.732667358,0.6105116606,0.6109111309,0.1845516264,2024-06-05 19:44:13.732667
5.773145691,0.573228538,-0.149265781,0.1017297506,2024-06-05 19:44:13.773146
5.813642931,-0.3720326424,-1.257108092,0.2808220685,2024-06-05 19:44:13.813643
5.854102566,-0.2836183012,0.449262023,0.2627131045,2024-06-05 19:44:13.854103
5.894577879,-0.254058063,1.305709362,0.4858794212,2024-06-05 19:44:13.894578
5.935056629,0.03941362351,0.8557815552,0.1581871063,2024-06-05 19:44:13.935057
5.975547722,-0.08868064731,0.617302537,0.1342193633,2024-06-05 19:44:13.975548
6.016059233,0.009853405878,0.007057168987,-0.08841434121,2024-06-05 19:44:14.016059
6.056554858,0.01784265228,-0.3676385581,-0.01597849466,2024-06-05 19:44:14.056555
6.097007879,-0.001597849536,-0.1111836955,-0.02902759984,2024-06-05 19:44:14.097008
6.13746741,-0.389742136,-0.06910699606,0.09746882319,2024-06-05 19:44:14.137467
6.177967097,-0.4714987576,-0.147401616,0.2050573528,2024-06-05 19:44:14.177967
6.218459597,-0.2572537661,-0.2826862037,0.1483336985,2024-06-05 19:44:14.218460
6.258925952,0.2018616647,0.1659100503,0.07909355313,2024-06-05 19:44:14.258926
6.299427931,0.8918663263,-0.6657706499,0.2370143533,2024-06-05 19:44:14.299428
6.339844129,1.967884898,0.2881455421,-0.3344831765,2024-06-05 19:44:14.339844
6.380379858,2.915942192,3.021000862,-0.5252930522,2024-06-05 19:44:14.380380
6.420858191,2.431128025,2.178002119,-0.296667397,2024-06-05 19:44:14.420858
6.461359702,1.878671646,1.01716435,-0.00186415785,2024-06-05 19:44:14.461360
6.501812983,1.950042248,-0.6537867785,0.06924014539,2024-06-05 19:44:14.501813
6.542265118,2.243380785,-0.9334104657,0.1083874628,2024-06-05 19:44:14.542265
6.58273866,1.471486211,-0.8686975241,0.211981371,2024-06-05 19:44:14.582739
6.623251785,1.157375693,-1.086537719,0.4089163244,2024-06-05 19:44:14.623252
6.663694649,0.760176897,-0.9131709933,0.4025249183,2024-06-05 19:44:14.663695
6.704214337,-0.7165023685,-0.1013302878,0.389742136,2024-06-05 19:44:14.704214
6.744698868,-1.644586682,-0.123167567,0.4520582557,2024-06-05 19:44:14.744699
6.785168347,-1.087336659,-1.148054838,-0.1864157766,2024-06-05 19:44:14.785168
6.825662827,-0.3715000153,-0.9794817567,-0.981079638,2024-06-05 19:44:14.825663
6.866152983,-0.2239652425,-2.614747524,-0.292140156,2024-06-05 19:44:14.866153
6.906600535,-0.8509880304,-2.208494425,0.3726983964,2024-06-05 19:44:14.906601
6.947129129,-0.2117150575,0.5014584661,0.1914756298,2024-06-05 19:44:14.947129
6.987549597,-0.6371424794,1.44738543,0.7138392925,2024-06-05 19:44:14.987550
7.028042722,-0.58228302,0.8254224658,0.06844121963,2024-06-05 19:44:15.028043
7.068543399,-0.6579145193,-1.384137154,0.01065232977,2024-06-05 19:44:15.068543
7.109007983,-0.4539224207,-0.3346163332,-0.1230344176,2024-06-05 19:44:15.109008
7.149535587,-0.2987978756,0.157654494,-0.4488625526,2024-06-05 19:44:15.149536
7.189962306,-0.4816184938,-0.08828118443,-0.5556522012,2024-06-05 19:44:15.189962
7.230465639,-0.5671034455,0.2705691755,-0.2239652425,2024-06-05 19:44:15.230466
7.270929754,-0.01651111245,0.6605776548,-0.003195699072,2024-06-05 19:44:15.270930
7.311401056,0.1560566425,-0.7411358953,-1.066830873,2024-06-05 19:44:15.311401
7.351895483,0.3093170524,0.5621767044,-0.6030550599,2024-06-05 19:44:15.351895
7.392356264,0.009054481052,0.8126396537,-1.101983547,2024-06-05 19:44:15.392356
7.432866577,-0.382019192,0.7284862399,-0.5607120395,2024-06-05 19:44:15.432867
7.473346941,-0.5990604162,0.4649742246,-0.3758940995,2024-06-05 19:44:15.473347
7.513813452,0.2279598713,0.452457726,-0.08521863818,2024-06-05 19:44:15.513813
7.554308243,0.09054480493,0.5672366023,0.2290250957,2024-06-05 19:44:15.554308
7.594754233,-0.4235632718,0.528621912,-0.1065233052,2024-06-05 19:44:15.594754
7.635248087,-0.266308248,0.3355484009,-0.1784265339,2024-06-05 19:44:15.635248
7.675721056,-0.06258244067,0.1896114796,-0.322499305,2024-06-05 19:44:15.675721
7.716206368,0.1882799417,0.2537917793,-0.7071815729,2024-06-05 19:44:15.716206
7.756733139,0.6344794035,-0.06031882018,-0.4456668794,2024-06-05 19:44:15.756733
7.797195691,0.4440690279,0.276694268,0.2856155932,2024-06-05 19:44:15.797196
7.837664441,0.2975994647,0.2407426685,0.6344794035,2024-06-05 19:44:15.837664
7.878114077,0.2909417748,-0.5681686401,0.6059844494,2024-06-05 19:44:15.878114
7.918625743,-0.2809551954,-0.9110405445,0.8129059672,2024-06-05 19:44:15.918626
7.959122879,-0.1038602218,-0.08641702682,0.8392704725,2024-06-05 19:44:15.959123
7.999621837,0.880415082,-0.5697665215,0.2205032408,2024-06-05 19:44:15.999622
8.040075431,0.5362116694,-0.9760197401,0.1142462417,2024-06-05 19:44:16.040075
8.080605483,-0.4866783321,0.1813559234,0.8033188581,2024-06-05 19:44:16.080605
8.121015587,0.9256874919,-1.629140735,0.904915452,2024-06-05 19:44:16.121016
8.161531212,1.189599037,-1.874011159,0.4379439354,2024-06-05 19:44:16.161531
8.201993608,0.8254224658,0.9907998443,-0.2774932086,2024-06-05 19:44:16.201994
8.242460952,0.3828181326,1.338731647,-0.03355484083,2024-06-05 19:44:16.242461
8.282934181,0.2715012729,0.716768682,0.4603138268,2024-06-05 19:44:16.282934
8.323424441,0.3777582645,0.1078548431,0.1600512564,2024-06-05 19:44:16.323424
8.363936368,0.9147688746,-0.5391410589,0.06524552405,2024-06-05 19:44:16.363936
8.404399285,1.041531563,-0.8628387451,-0.07563154399,2024-06-05 19:44:16.404399
8.444887566,0.6994586587,-0.7728265524,0.03195698932,2024-06-05 19:44:16.444888
8.485359545,0.9485899806,-0.5489944816,0.2215684652,2024-06-05 19:44:16.485360
8.525843035,1.015965939,-0.1444722265,0.1107842326,2024-06-05 19:44:16.525843
8.566331004,1.020759583,-0.2232994735,-0.03834838793,2024-06-05 19:44:16.566331
8.606839233,0.725823164,0.02782921307,0.2181064636,2024-06-05 19:44:16.606839
8.647298191,0.6547188759,0.5986609459,-0.2244978547,2024-06-05 19:44:16.647298
8.687763972,1.012770295,-0.1418091506,-0.8232919574,2024-06-05 19:44:16.687764
8.728251681,1.816089153,-0.7531197667,-0.521032095,2024-06-05 19:44:16.728252
8.768736108,1.433537364,0.148067385,-0.352858454,2024-06-05 19:44:16.768736
8.809215795,1.202115417,0.3054555655,-0.4475310147,2024-06-05 19:44:16.809216
8.849721108,0.9866721034,-0.3058550358,-0.6744256616,2024-06-05 19:44:16.849721
8.89016642,1.526612043,-0.8652355075,-0.3868127465,2024-06-05 19:44:16.890166
8.93057892,0.9627043605,-0.7765548825,-0.9874709845,2024-06-05 19:44:16.930579
8.971102774,0.4483299553,-0.37296471,-0.7383396626,2024-06-05 19:44:16.971103
9.011676889,-0.6643059254,-0.02117150649,-0.8499227762,2024-06-05 19:44:17.011677
9.052109285,-1.051651359,-0.611443758,-0.2607157826,2024-06-05 19:44:17.052109
9.092526577,-1.159506202,-1.850576043,-0.140877068,2024-06-05 19:44:17.092527
9.133020222,-1.271089315,-0.8042509556,-0.0599193573,2024-06-05 19:44:17.133020
9.173513035,-0.8981245756,1.845516205,0.01358172111,2024-06-05 19:44:17.173513
9.214018868,1.750843644,3.858273983,-0.7441984415,2024-06-05 19:44:17.214019
9.254501941,4.197950363,2.890776157,-2.503031254,2024-06-05 19:44:17.254502
9.29496991,1.54791677,0.4639089704,-1.423151374,2024-06-05 19:44:17.294970
9.33541616,0.5537880063,-0.7331466079,-1.08067894,2024-06-05 19:44:17.335416
9.375927722,-0.6794854999,-0.8479254842,-1.150984287,2024-06-05 19:44:17.375928
9.416423139,-1.350182891,-0.7352771163,-0.2399437428,2024-06-05 19:44:17.416423
9.456924181,-1.135272145,-0.4826837182,0.2451367527,2024-06-05 19:44:17.456924
9.497368868,-1.071624398,-0.153793022,1.226083159,2024-06-05 19:44:17.497369
9.53785241,-0.9930635095,-0.371633172,1.985461235,2024-06-05 19:44:17.537852
9.578356733,-1.084140897,-0.5792204738,2.236722946,2024-06-05 19:44:17.578357
9.618816577,-1.608635068,-0.3633776009,1.909296989,2024-06-05 19:44:17.618817
9.659323035,-2.254033089,-0.2699034214,1.543922067,2024-06-05 19:44:17.659323
9.699828712,-1.899443626,0.09959928691,1.27588284,2024-06-05 19:44:17.699829
9.740245274,-0.8366073966,0.06897383928,0.8408682942,2024-06-05 19:44:17.740245
9.780686733,0.2336854935,-0.9251548648,1.044993639,2024-06-05 19:44:17.780687
9.821223816,1.869883418,0.03488638252,0.03222329915,2024-06-05 19:44:17.821224
9.861690691,2.513683558,-1.21316731,-0.6499252915,2024-06-05 19:44:17.861691
9.902160587,0.1531272531,1.019294858,-0.9537830353,2024-06-05 19:44:17.902161
9.942640952,-0.4845478833,2.038989067,0.9318125844,2024-06-05 19:44:17.942641
9.983124077,-0.499727428,0.6557840705,1.22022438,2024-06-05 19:44:17.983124
10.0236696,1.074820161,0.3661738634,1.746050119,2024-06-05 19:44:18.023670
10.06409673,0.6866758466,-2.903958321,-0.5324833393,2024-06-05 19:44:18.064097
10.10458152,-0.7764217257,0.9660332203,-0.5473966002,2024-06-05 19:44:18.104582
10.14505251,0.6781539917,-0.1559234858,1.112103224,2024-06-05 19:44:18.145053
10.18555444,0.6893389225,-1.315962195,-0.1699046642,2024-06-05 19:44:18.185554
10.22607142,-0.09480573982,-0.672162056,0.1483336985,2024-06-05 19:44:18.226071
10.26649027,0.1888125539,-1.026884675,0.429155767,2024-06-05 19:44:18.266490
10.3070296,0.7612421513,-1.277613878,-0.3038577139,2024-06-05 19:44:18.307030
10.34744022,0.4094489515,-0.8961272836,-0.1595186442,2024-06-05 19:44:18.347440
10.38793606,0.536477983,-1.148853779,0.2311555594,2024-06-05 19:44:18.387936
10.4284271,0.588141799,-0.07203638554,-0.1070559174,2024-06-05 19:44:18.428427
10.4689246,-0.7844109535,0.3022598624,0.4102478623,2024-06-05 19:44:18.468925
10.50942809,-1.156576753,0.6754909158,0.0330222249,2024-06-05 19:44:18.509428
10.54989731,-0.4464657903,-1.820749521,0.2282261699,2024-06-05 19:44:18.549897
10.59037257,1.142196059,-1.350582361,-0.1336867511,2024-06-05 19:44:18.590373
10.63081892,-1.43247211,-0.2896102369,0.771894455,2024-06-05 19:44:18.630819
10.67129293,-2.288120508,-2.483457565,-1.618488431,2024-06-05 19:44:18.671293
10.71179491,-3.167603493,-1.867619753,-1.756702423,2024-06-05 19:44:18.711795
10.75226986,-0.53328228,-1.437665105,-2.533656836,2024-06-05 19:44:18.752270
10.79278173,4.494750977,-2.198907375,-1.739925027,2024-06-05 19:44:18.792782
10.83327699,0.637408793,7.401771545,1.477078795,2024-06-05 19:44:18.833277
10.87370199,-2.749899149,10.90226078,1.347786069,2024-06-05 19:44:18.873702
10.91417033,-2.785051823,5.220440865,0.6448654532,2024-06-05 19:44:18.914170
10.95467382,-3.189174414,-1.158440948,-0.163513273,2024-06-05 19:44:18.954674
10.99513892,-5.953853607,-0.1202381775,-0.5492607951,2024-06-05 19:44:18.995139
11.0356508,-6.20871067,-2.021279573,1.814757586,2024-06-05 19:44:19.035651
11.07612751,-2.10157156,3.402221203,0.6150389314,2024-06-05 19:44:19.076128
11.11657434,-0.4664389193,11.87162304,1.848578811,2024-06-05 19:44:19.116574
11.15705449,-2.927127123,7.355167866,0.7966611385,2024-06-05 19:44:19.157054
11.19757392,0.2483324558,2.357760191,3.013411045,2024-06-05 19:44:19.197574
11.23806809,0.6659038067,-0.6671021581,3.093037128,2024-06-05 19:44:19.238068
11.27854762,1.821947932,-0.8263545036,1.506905317,2024-06-05 19:44:19.278548
11.31907809,0.7686987519,-2.978524685,-0.1890788674,2024-06-05 19:44:19.319078
11.35943954,0.2408758104,-3.623789549,-0.5178363919,2024-06-05 19:44:19.359440
11.39993382,2.463085175,-2.113688707,-1.134473205,2024-06-05 19:44:19.399934
11.44040507,4.744281769,-7.10750103,-0.2860150635,2024-06-05 19:44:19.440405
11.48097246,5.02710104,-6.651181698,-0.09640359133,2024-06-05 19:44:19.480972
11.52138408,4.518984795,0.6861432195,0.3298227787,2024-06-05 19:44:19.521384
11.5618771,5.176100254,-3.941761732,-0.5319507122,2024-06-05 19:44:19.561877
11.6023834,2.99077487,1.594920158,-0.06204982474,2024-06-05 19:44:19.602383
11.64283017,-0.4595148861,2.831655741,-2.125805616,2024-06-05 19:44:19.642830
11.68332496,-3.630047798,5.05959034,-3.683043242,2024-06-05 19:44:19.683325
11.72385069,-7.021883011,4.337495804,-5.200201511,2024-06-05 19:44:19.723851
11.76432887,-8.546896935,5.581421375,-6.836798668,2024-06-05 19:44:19.764329
11.80480434,-6.469559669,-0.7749570012,-3.863600254,2024-06-05 19:44:19.804804
11.84529543,-6.216966152,-3.930310488,-1.683201313,2024-06-05 19:44:19.845295
11.8857122,-6.038805962,1.69372046,-1.188267469,2024-06-05 19:44:19.885712
11.92619251,-0.228758797,3.279186726,-0.6805507541,2024-06-05 19:44:19.926193
11.96670043,-0.9452611804,0.8866733313,0.1651111245,2024-06-05 19:44:19.966700
12.00720564,0.9943950176,1.423417687,1.671483755,2024-06-05 19:44:20.007206
12.04766986,1.246322632,-0.392937839,0.4512593448,2024-06-05 19:44:20.047670
12.08813986,0.9011871219,-0.03262276202,0.5718969703,2024-06-05 19:44:20.088140
12.12862168,-0.06764229387,-0.1652442664,0.4619116783,2024-06-05 19:44:20.128622
12.16913048,-0.4264926612,0.222367391,-0.848058641,2024-06-05 19:44:20.169130
12.20959913,0.3055887222,-0.1274285018,-1.487864256,2024-06-05 19:44:20.209599
12.25007595,0.2829525173,0.02090519853,-0.6456643939,2024-06-05 19:44:20.250076
12.29051481,0.2544575334,-0.1119826213,-0.09613727778,2024-06-05 19:44:20.290515
12.33100595,0.3681711555,-0.7153039575,0.06950645149,2024-06-05 19:44:20.331006
12.3714933,0.3668396175,-1.496785522,-0.4973306656,2024-06-05 19:44:20.371493
12.41201324,1.126750231,-1.395055771,-0.4360797703,2024-06-05 19:44:20.412013
12.45248611,2.292914152,-0.9395354986,0.851254344,2024-06-05 19:44:20.452486
12.49292892,3.426321983,0.2772268951,3.152424097,2024-06-05 19:44:20.492929
12.53340595,2.358692169,-1.125152349,4.181705475,2024-06-05 19:44:20.533406
12.5739383,2.216749907,-2.71914053,2.810217857,2024-06-05 19:44:20.573938
12.61439975,2.134194374,1.980401397,2.911148787,2024-06-05 19:44:20.614400
12.65484319,0.9480574131,-1.286401987,3.235512257,2024-06-05 19:44:20.654843
12.69533861,0.4637758136,-2.737515688,2.197575808,2024-06-05 19:44:20.695339
12.73581298,-0.07509893179,-4.364792347,0.9722914696,2024-06-05 19:44:20.735813
12.77632152,-0.7194317579,-2.932719707,-0.601190865,2024-06-05 19:44:20.776322
12.81680564,-1.544854164,-0.9914656281,-1.078814745,2024-06-05 19:44:20.816806
12.85727283,-0.9465926886,0.2082530558,-0.8017209768,2024-06-05 19:44:20.857273
12.89773637,1.136070967,2.451766968,-0.006924014539,2024-06-05 19:44:20.897736
12.93824673,-0.8448629379,6.608172894,-2.488384247,2024-06-05 19:44:20.938247
12.97877757,1.283872128,2.546705961,0.1909430176,2024-06-05 19:44:20.978778
13.01923121,-0.560978353,-2.530327797,0.158986032,2024-06-05 19:44:21.019231
13.05970116,-1.411433816,0.6730940938,-0.3523258269,2024-06-05 19:44:21.059701
13.10018637,-1.142995,2.998098373,-1.087869167,2024-06-05 19:44:21.100186
13.14063783,-0.5710980296,-1.024221539,0.1019960642,2024-06-05 19:44:21.140638
13.18110694,-0.05326165259,-1.738060832,-0.4182371199,2024-06-05 19:44:21.181107
13.22159382,1.144859195,-2.966008186,-0.8760210276,2024-06-05 19:44:21.221594
13.26206501,1.117429495,-0.004127778113,-2.010760546,2024-06-05 19:44:21.262065
13.30256517,3.534709454,6.450784683,-2.065353632,2024-06-05 19:44:21.302565
13.343056,2.554695129,-1.398784161,-1.805703163,2024-06-05 19:44:21.343056
13.38351871,3.718462229,2.807155371,-0.3635107577,2024-06-05 19:44:21.383519
13.42404434,1.984395981,3.420862675,-0.1661763489,2024-06-05 19:44:21.424044
13.46447231,-0.8573794365,1.073888063,2.13765645,2024-06-05 19:44:21.464472
13.50494231,-2.788779974,-0.9635032415,2.00357008,2024-06-05 19:44:21.504942
13.54544257,-2.794372559,-2.231663227,-0.640604496,2024-06-05 19:44:21.545443
13.58598246,-1.74977839,-2.260158062,-1.406640172,2024-06-05 19:44:21.585982
13.6264271,-1.264964223,-1.921147704,-0.7577801347,2024-06-05 19:44:21.626427
13.66686298,-0.8011884093,-1.352180123,-1.640858293,2024-06-05 19:44:21.666863
13.7074247,-0.6339467764,-0.8995893002,-1.58280313,2024-06-05 19:44:21.707425
13.74786616,-0.6917356849,-1.117962003,-0.8643034697,2024-06-05 19:44:21.747866
13.78832449,-0.5279561281,-0.3894758224,-0.5985277891,2024-06-05 19:44:21.788324
13.82885147,-0.08601756394,0.5065183043,-0.08841434121,2024-06-05 19:44:21.828851
13.86927272,1.036471725,-0.1354177445,0.8852086663,2024-06-05 19:44:21.869273
13.90973757,1.273752332,0.08042509109,0.3002625704,2024-06-05 19:44:21.909738
13.95025465,-0.5298202634,0.5701659918,0.5585815907,2024-06-05 19:44:21.950255
13.99071241,-2.109827042,0.9532504082,1.328079224,2024-06-05 19:44:21.990712
14.03116048,-2.437253237,0.3651086092,0.8963935971,2024-06-05 19:44:22.031160
14.07172074,-1.11849463,0.1091863886,-0.9311468005,2024-06-05 19:44:22.071721
14.11217199,0.8599093556,-2.045779943,-2.455894709,2024-06-05 19:44:22.112172
14.15262804,-0.382019192,0.7977263927,0.3567199111,2024-06-05 19:44:22.152628
14.19311574,-0.6232944727,0.4513925016,-1.018895388,2024-06-05 19:44:22.193116
14.23361986,-0.6776213646,0.4069190025,-0.3584509194,2024-06-05 19:44:22.233620
14.27408991,-1.31742692,0.08069140464,-1.75643611,2024-06-05 19:44:22.274090
14.31456835,-2.100772619,0.6738930345,-2.458557844,2024-06-05 19:44:22.314568
14.35503866,-1.721549749,1.823146343,-1.595852256,2024-06-05 19:44:22.355039
14.39554173,-0.2809551954,-1.489861488,-0.2495308369,2024-06-05 19:44:22.395542
14.4360222,0.8822792768,-2.170145988,1.154978871,2024-06-05 19:44:22.436022
14.47649704,1.519954324,-2.192782164,2.037923813,2024-06-05 19:44:22.476497
14.51701444,1.831534982,-0.2525933683,2.040054321,2024-06-05 19:44:22.517014
14.55752033,2.413818121,-1.161902905,2.411421299,2024-06-05 19:44:22.557520
14.59795486,3.169201374,0.1169093251,0.9515193701,2024-06-05 19:44:22.597955
14.63841538,1.137136221,1.893318534,1.254045606,2024-06-05 19:44:22.638415
14.6789459,-0.5804188251,0.4127778113,1.825409889,2024-06-05 19:44:22.678946
14.71939626,0.08042509109,-0.9374050498,1.629140735,2024-06-05 19:44:22.719396
14.75989517,0.6259575486,-2.118482113,0.612642169,2024-06-05 19:44:22.759895
14.80030324,0.3481980562,-2.71541214,-0.3006620109,2024-06-05 19:44:22.800303
14.84081486,0.4539224207,-3.253754377,-0.1818885356,2024-06-05 19:44:22.840815
14.88133231,-0.4832163453,0.06684337556,2.176270962,2024-06-05 19:44:22.881332
14.92180637,0.08388710022,-1.700245023,1.10517931,2024-06-05 19:44:22.921806
14.9622633,0.6057181358,0.2599168718,-0.4619116783,2024-06-05 19:44:22.962263
15.00275012,1.391460657,0.7575138211,0.1632469594,2024-06-05 19:44:23.002750
15.0432708,-0.418769747,-1.89931047,-0.05326165259,2024-06-05 19:44:23.043271
15.08370861,-2.666544676,-3.433778763,0.07243584841,2024-06-05 19:44:23.083709
15.12421147,-2.47746563,-2.951893806,1.062303662,2024-06-05 19:44:23.124211
15.16466106,-0.0519301109,2.04671216,0.2197043151,2024-06-05 19:44:23.164661
15.2051622,-1.241795421,3.724054575,0.4730966091,2024-06-05 19:44:23.205162
15.24564949,-1.959895611,2.219812393,-0.2615146935,2024-06-05 19:44:23.245649
15.28611616,0.1123820841,0.3259612918,-0.01278279629,2024-06-05 19:44:23.286116
15.32657392,0.2205032408,-0.4547213614,0.1382139921,2024-06-05 19:44:23.326574
15.36704413,1.816888094,1.170291662,0.5074504018,2024-06-05 19:44:23.367044
15.40754611,3.365337372,1.295855999,0.7966611385,2024-06-05 19:44:23.407546
15.44802382,2.875463486,-0.3505948186,1.013302922,2024-06-05 19:44:23.448024
15.48850616,2.045114279,1.289730906,-0.155790329,2024-06-05 19:44:23.488506
15.52900679,1.485866904,2.448837519,0.5953320861,2024-06-05 19:44:23.529007
15.56954189,1.89305222,-0.5492607951,0.637408793,2024-06-05 19:44:23.569542
15.60995908,0.1078548431,-0.213978678,-0.002130466048,2024-06-05 19:44:23.609959
15.65041611,-0.1099853069,0.01158440951,-0.304390341,2024-06-05 19:44:23.650416
15.69095288,1.645119309,-0.8327459097,0.1957365721,2024-06-05 19:44:23.690953
15.73140142,-0.001065233024,-0.7437989712,-0.9583102465,2024-06-05 19:44:23.731401
15.77187991,-1.218626618,0.037815772,-1.142995,2024-06-05 19:44:23.771880
15.81234543,-1.263632655,-3.847754955,-0.4091826379,2024-06-05 19:44:23.812345
15.85281798,-0.7383396626,-1.456040382,0.2496639937,2024-06-05 19:44:23.852818
15.89331725,-2.449237108,0.5414046645,0.5386084318,2024-06-05 19:44:23.893317
15.93379309,-3.409145117,-0.2672403455,-0.2854824364,2024-06-05 19:44:23.933793
15.97427975,-1.615026474,-1.738060832,-0.80864501,2024-06-05 19:44:23.974280
16.01477975,-1.358172059,-4.468652725,-1.153114796,2024-06-05 19:44:24.014780
16.05523939,-1.116896868,-2.940176249,-1.143261313,2024-06-05 19:44:24.055239
16.09570564,-0.4565854967,3.744294167,0.5500596762,2024-06-05 19:44:24.095706
16.13620033,0.8342106342,2.448304892,1.238599658,2024-06-05 19:44:24.136200
16.17669267,1.005846262,-2.692243338,0.7005238533,2024-06-05 19:44:24.176693
16.21717902,0.4509930313,-4.145487309,0.1696383655,2024-06-05 19:44:24.217179
16.2576546,-0.9441959262,-1.17122376,-0.05459319428,2024-06-05 19:44:24.257655
16.2981297,-1.128081799,2.611418724,0.3596493006,2024-06-05 19:44:24.298130
16.3385485,0.5830819011,2.856688738,0.5820167065,2024-06-05 19:44:24.338549
16.37910486,0.5375432372,-0.521032095,0.2912080884,2024-06-05 19:44:24.379105
16.41962679,0.6091801524,-1.744452238,-0.5130428672,2024-06-05 19:44:24.419627
16.46003163,1.133940578,-0.999188602,-0.5226299763,2024-06-05 19:44:24.460032
16.50047356,0.8793498874,-0.8937305212,-0.4424711764,2024-06-05 19:44:24.500474
16.54095184,0.7327471375,0.8251561522,0.07856093347,2024-06-05 19:44:24.540952
16.58145981,0.6187672615,1.34565556,-0.03089175746,2024-06-05 19:44:24.581460
16.62194043,0.07456631213,-1.326348305,0.09640359133,2024-06-05 19:44:24.621940
16.66245205,0.2499302924,-0.1117163152,0.151263088,2024-06-05 19:44:24.662452
16.7029308,0.4443353117,1.762428045,-0.3240971565,2024-06-05 19:44:24.702931
16.74341246,0.02450035885,1.256974936,-0.2372806519,2024-06-05 19:44:24.743412
16.78389298,-0.5324833393,0.4181039631,-0.1307573467,2024-06-05 19:44:24.783893
16.82436923,-0.2958684862,-0.04860125855,-0.2170412242,2024-06-05 19:44:24.824369
16.86487444,-0.5410051942,-0.4243622124,-0.05885412544,2024-06-05 19:44:24.864874
16.9053372,-1.116364241,-1.541525364,-0.03195698932,2024-06-05 19:44:24.905337
16.94580449,-1.764958024,-2.838712931,0.2098509073,2024-06-05 19:44:24.945804
16.98630783,-2.175871611,-2.931121826,0.4432700872,2024-06-05 19:44:24.986308
17.02683408,-1.774545074,-0.03022598661,0.3223661482,2024-06-05 19:44:25.026834
17.06727804,-1.211169958,1.528343081,-0.1840189993,2024-06-05 19:44:25.067278
17.10779486,-0.313444823,-3.210878611,-1.053515434,2024-06-05 19:44:25.107795
17.14823262,0.1203713343,-1.993050933,-0.6880073547,2024-06-05 19:44:25.148233
17.18869116,0.02796236612,2.961880445,0.06631075591,2024-06-05 19:44:25.188691
17.22918142,0.999188602,3.79569149,0.8963935971,2024-06-05 19:44:25.229181
17.26972132,1.535932899,0.1581871063,1.42288506,2024-06-05 19:44:25.269721
17.31009642,1.075885296,-2.366148949,0.8844097257,2024-06-05 19:44:25.310096
17.3505709,0.4800206423,-1.985328078,-0.4131772518,2024-06-05 19:44:25.350571
17.39105043,-0.6869421601,-0.6676347852,-0.6904041767,2024-06-05 19:44:25.391050
17.43153007,-1.020226955,0.2772268951,-0.4342156053,2024-06-05 19:44:25.431530
17.47207178,-0.5628424883,0.3246297538,-0.06418029219,2024-06-05 19:44:25.472072
17.51256522,1.294790745,4.339626312,0.1584534049,2024-06-05 19:44:25.512565
17.55301564,1.276948094,-1.870282888,0.3623123765,2024-06-05 19:44:25.553016
17.59352647,0.8431319594,-3.496361017,-0.1145125479,2024-06-05 19:44:25.593526
17.6340084,0.2015953511,-2.252168894,-0.1347519755,2024-06-05 19:44:25.634008
17.67445975,0.8190310597,0.6880073547,0.04420717061,2024-06-05 19:44:25.674460
17.71496444,1.694652557,2.491047382,0.1973344237,2024-06-05 19:44:25.714964
17.75542668,0.3367467821,-0.5564510822,0.08788172156,2024-06-05 19:44:25.755427
17.79593882,-0.0181089621,1.541125894,-0.1475347728,2024-06-05 19:44:25.795939
17.83642106,0.04953333735,0.3778914213,0.3202356696,2024-06-05 19:44:25.836421
17.87690111,0.3135779798,-1.140331984,-0.5316844583,2024-06-05 19:44:25.876901
17.91732501,-0.6714962721,-0.2198374718,-0.9447285533,2024-06-05 19:44:25.917325
17.95784725,-1.028748751,1.114899516,-0.5431357026,2024-06-05 19:44:25.957847
17.99831228,-0.01944050193,0.2758953571,-0.433683008,2024-06-05 19:44:25.998312
18.0388251,0.2672403455,-2.713814259,-0.7639052272,2024-06-05 19:44:26.038825
18.07930557,-0.1137136221,-2.191184282,-0.2713681161,2024-06-05 19:44:26.079306
18.11980364,-1.151250601,-0.5543206334,0.5828156471,2024-06-05 19:44:26.119804
18.160234,-1.218892932,0.1336867511,0.1011971384,2024-06-05 19:44:26.160234
18.20078796,-1.434069991,-0.6468627453,-0.9133041501,2024-06-05 19:44:26.200788
18.24116114,-1.503576398,0.5278229713,-0.313444823,2024-06-05 19:44:26.241161
18.28164848,-1.541658521,1.277747035,0.6065170765,2024-06-05 19:44:26.281648
18.32214312,-1.758300304,0.6069164872,0.9235570431,2024-06-05 19:44:26.322143
18.36262025,-0.7647041678,-0.4648410678,0.1605838835,2024-06-05 19:44:26.362620
18.40312578,-0.2569874525,1.803705812,0.006125089712,2024-06-05 19:44:26.403126
18.44363635,0.1501978636,2.095446587,0.4062532485,2024-06-05 19:44:26.443636
18.48409411,0.1664426625,0.7351439595,0.6720288992,2024-06-05 19:44:26.484094
18.5245738,0.4933360517,0.01211702544,0.7252905369,2024-06-05 19:44:26.524574
18.56503817,0.8386046886,0.2127802968,0.588141799,2024-06-05 19:44:26.565038
18.60552442,0.0980014354,1.13593781,0.3476654291,2024-06-05 19:44:26.605524
18.64603713,-0.8347432017,2.585320473,0.2805557549,2024-06-05 19:44:26.646037
18.68648958,-1.14672339,3.408878803,0.2464682907,2024-06-05 19:44:26.686490
18.7269614,-0.6669690013,2.449103832,0.368437469,2024-06-05 19:44:26.726961
18.76746156,-0.6608439088,-0.2600499988,-0.02316881903,2024-06-05 19:44:26.767462
18.80795734,-0.7649704814,-3.746291399,-0.296667397,2024-06-05 19:44:26.807957
18.84842114,-0.09720251709,-0.2501966059,-0.266308248,2024-06-05 19:44:26.848421
18.88889692,-0.60678339,1.921547174,0.383883357,2024-06-05 19:44:26.888897
18.92938176,-0.08947957307,1.48520112,0.2784252763,2024-06-05 19:44:26.929382
18.96986828,-0.2511286736,0.2647103965,0.05113118514,2024-06-05 19:44:26.969868
19.01033687,-0.1517957002,-0.04061200842,-0.02796236612,2024-06-05 19:44:27.010337
19.05083854,0.4043890834,0.5581821203,0.2247641683,2024-06-05 19:44:27.050839
19.09124031,0.9690957665,-0.0243672058,0.6115769148,2024-06-05 19:44:27.091240
19.13176963,2.061492205,-0.2395442724,-0.06018566713,2024-06-05 19:44:27.131770
19.1722577,3.084515333,2.08532691,-1.011705041,2024-06-05 19:44:27.172258
19.21276807,2.898898602,2.332194567,-0.1025286764,2024-06-05 19:44:27.212768
19.25324421,1.682402372,-0.2115819156,0.4808195531,2024-06-05 19:44:27.253244
19.2937014,2.013423681,0.4766917825,0.0229025092,2024-06-05 19:44:27.293701
19.33413478,2.045646906,0.00599193573,-0.2953358591,2024-06-05 19:44:27.334135
19.37464176,0.6206313968,0.5834813714,0.4315525293,2024-06-05 19:44:27.374642
19.41513192,0.2613815665,-0.3197030723,0.2276935577,2024-06-05 19:44:27.415132
19.45562051,-0.04394086078,-1.077483177,-0.3286243975,2024-06-05 19:44:27.455621
19.49609203,-0.319303602,-2.125406265,-0.6259575486,2024-06-05 19:44:27.496092
19.53658442,-0.6121095419,-2.575866699,-0.5540543199,2024-06-05 19:44:27.536584
19.57708249,-0.1605838835,-3.174394369,-0.1139799356,2024-06-05 19:44:27.577082
19.61758338,0.8822792768,-1.53007412,0.4611127377,2024-06-05 19:44:27.617583
19.65803885,0.0708379969,-0.3932041526,1.110771775,2024-06-05 19:44:27.658039
19.69850536,0.6267564893,-3.335510969,-0.4264926612,2024-06-05 19:44:27.698505
19.73901687,0.4856131077,-0.357518822,-0.3772256374,2024-06-05 19:44:27.739017
19.77949812,0.01544587873,0.03994623944,1.029547691,2024-06-05 19:44:27.779498
19.81995354,-1.101184607,-1.823945284,0.4368786812,2024-06-05 19:44:27.819954
19.86042489,-0.07243584841,-0.1548582464,-0.3488638103,2024-06-05 19:44:27.860425
19.90088833,-0.2897433937,-0.3354152441,-0.1531272531,2024-06-05 19:44:27.900888
19.94136025,-0.7151708007,-0.1125152409,0.5404726267,2024-06-05 19:44:27.941360
19.98189958,-0.405188024,-0.151928857,0.6299521923,2024-06-05 19:44:27.981900
20.02235228,-0.16031757,0.06817491353,0.06338136643,2024-06-05 19:44:28.022352
20.06284343,-0.2103835195,-0.4683030546,0.146735847,2024-06-05 19:44:28.062843
20.10332265,-0.1491326243,-0.8511211872,0.008255556226,2024-06-05 19:44:28.103323
20.1437951,-0.2125139832,-0.7560491562,0.1022623703,2024-06-05 19:44:28.143795
20.18427187,-0.06338136643,-0.3892095089,0.08495233208,2024-06-05 19:44:28.184272
20.22479765,-0.1328878254,-0.2209026963,0.06844121963,2024-06-05 19:44:28.224798
20.26525583,-0.06098458916,-0.4464657903,0.02130465955,2024-06-05 19:44:28.265256
20.3057101,0.03142437339,-0.1884130985,0.08814803511,2024-06-05 19:44:28.305710
20.34614338,0.04394086078,0.1651111245,0.01970681176,2024-06-05 19:44:28.346143
20.38665755,0.1605838835,0.423430115,-0.1571218669,2024-06-05 19:44:28.386658
20.42721369,0.01384802908,0.4039896131,-0.2655093372,2024-06-05 19:44:28.427214
20.46763098,0.1573881805,0.4540555775,-0.1645784974,2024-06-05 19:44:28.467631
20.50811749,0.3412740231,0.3507279754,-0.1161103994,2024-06-05 19:44:28.508117
20.54861984,0.4491288662,0.0926752761,0.2954690158,2024-06-05 19:44:28.548620
20.58914489,0.7753564715,0.2636451721,0.5836145282,2024-06-05 19:44:28.589145
20.6296151,1.024487853,-0.4936023653,-0.5481955409,2024-06-05 19:44:28.629615
20.66999744,0.9981233478,-0.3103822768,-0.7433995008,2024-06-05 19:44:28.669997
20.71048593,0.5665708184,0.3509942889,-0.9503210187,2024-06-05 19:44:28.710486
20.75096713,0.239810586,0.8214278221,-0.8283518553,2024-06-05 19:44:28.750967
20.79147354,0.1488663107,0.5422036052,-0.775090158,2024-06-05 19:44:28.791474
20.8319714,0.1560566425,1.463363886,-0.383883357,2024-06-05 19:44:28.831971
20.87245265,0.005326164886,0.8872059584,-0.612642169,2024-06-05 19:44:28.872453
20.91290072,-0.6472622156,0.3280917704,-0.6653711796,2024-06-05 19:44:28.912901
20.95340739,-0.5436683297,0.1025286764,-1.11183691,2024-06-05 19:44:28.953407
20.99387697,1.140864611,-0.4778901637,-1.039401174,2024-06-05 19:44:28.993877
21.03435999,0.06098458916,-0.4339492917,0.2832188308,2024-06-05 19:44:29.034360
21.0748489,-0.248199299,1.040865779,0.5537880063,2024-06-05 19:44:29.074849
21.11536734,-0.5415378213,0.3523258269,0.4677704573,2024-06-05 19:44:29.115367
21.15580942,-1.047124028,0.7852098942,0.2685718834,2024-06-05 19:44:29.155809
21.19629499,-0.122501798,-0.1489994675,-0.4326177537,2024-06-05 19:44:29.196295
21.23678468,2.434856415,-2.369610786,-1.385069251,2024-06-05 19:44:29.236785
21.27727458,1.161103964,-0.9121057987,-1.222088575,2024-06-05 19:44:29.277275
21.31776869,-0.3456681073,1.766688943,-0.4129109383,2024-06-05 19:44:29.317769
21.35817765,-0.8243572116,1.763759613,1.03540647,2024-06-05 19:44:29.358178
21.39869015,0.9525846243,-1.029814005,0.3553883731,2024-06-05 19:44:29.398690
21.43922994,-0.4834826291,-2.487984896,0.7087793946,2024-06-05 19:44:29.439230
21.47971202,-1.394922614,0.903717041,0.4366123974,2024-06-05 19:44:29.479712
21.52019275,0.1866820902,0.4639089704,0.363910228,2024-06-05 19:44:29.520193
21.56062687,-0.1605838835,0.5744268894,0.3292901516,2024-06-05 19:44:29.560627
21.60105536,-0.01624480449,-0.06884068251,0.2021279633,2024-06-05 19:44:29.601055
21.64155525,0.5367442966,-0.226228863,0.5599130988,2024-06-05 19:44:29.641555
21.68206895,0.6797518134,-1.049254537,0.5561847687,2024-06-05 19:44:29.682069
21.72253702,0.750323534,-0.8300828338,0.394269377,2024-06-05 19:44:29.722537
21.76302749,0.2842840552,0.4093157947,0.3314206302,2024-06-05 19:44:29.763027
21.80350979,0.2917406857,0.1432738453,0.117974557,2024-06-05 19:44:29.803510
21.84396833,0.2696371078,-0.3580514491,0.2813546658,2024-06-05 19:44:29.843968
21.88444926,0.3114475012,-0.4959991276,0.01944050193,2024-06-05 19:44:29.884449
21.92493604,0.1334204376,-0.03501953557,-0.2199706137,2024-06-05 19:44:29.924936
21.9654338,-0.1187734827,0.3818860352,-0.1565892547,2024-06-05 19:44:29.965434
22.00593338,-0.1201050207,0.2109161317,0.02529928461,2024-06-05 19:44:30.005933
22.0464039,0.08015878499,-0.209451437,-0.05352795869,2024-06-05 19:44:30.046404
22.0868626,0.1248985752,-0.9224917889,-0.1989322603,2024-06-05 19:44:30.086863
22.12733447,0.01198387146,-0.6868090034,-0.294803232,2024-06-05 19:44:30.127334
22.16784015,-0.1131810099,-0.2848166823,-0.3737636507,2024-06-05 19:44:30.167840
22.20831525,-0.3762935698,0.2103835195,-0.3262276053,2024-06-05 19:44:30.208315
22.24878307,-0.4744281471,-0.008921326138,-0.332885325,2024-06-05 19:44:30.248783
22.28928619,-0.4805532396,-0.7959953547,-0.1573881805,2024-06-05 19:44:30.289286
22.32977676,-0.6717625856,-0.9619054198,-0.1006645188,2024-06-05 19:44:30.329777
22.37023536,-1.16749537,-0.4608464241,-0.5500596762,2024-06-05 19:44:30.370235
22.41067005,-1.165098667,-0.2595174015,0.1813559234,2024-06-05 19:44:30.410670
22.45114478,-0.9721583128,-0.4352808297,0.6994586587,2024-06-05 19:44:30.451145
22.49165239,-0.4800206423,-0.3226324618,0.4552539587,2024-06-05 19:44:30.491652
22.53216942,0.6946650743,0.1667089611,0.3724320829,2024-06-05 19:44:30.532169
22.57264828,0.5069177747,1.294524431,0.3234313726,2024-06-05 19:44:30.572648
22.61317546,-0.1392792165,2.670805454,0.2653761804,2024-06-05 19:44:30.613175
22.65362333,-0.3304885328,2.069880962,0.1912093312,2024-06-05 19:44:30.653623
22.69409197,-0.1872147024,0.829949677,0.3668396175,2024-06-05 19:44:30.694092
22.73458395,-0.01118494663,-0.7043853402,0.7441984415,2024-06-05 19:44:30.734584
22.7750426,-0.6065170765,-1.16749537,0.2370143533,2024-06-05 19:44:30.775043
22.81553499,-0.3860138059,-0.6971949935,-0.2085193694,2024-06-05 19:44:30.815535
22.85602812,-0.4533897936,-0.07603100687,0.04660394415,2024-06-05 19:44:30.856028
22.89648895,-0.5748263597,-0.3109148741,0.4046553969,2024-06-05 19:44:30.896489
22.93697442,-0.3576519787,-0.1466026902,-0.2487319112,2024-06-05 19:44:30.936974
22.97746848,-0.1107842326,0.2375469655,-0.2106498331,2024-06-05 19:44:30.977468
23.01795228,-0.424628526,0.4228975177,-0.1142462417,2024-06-05 19:44:31.017952
23.05840723,-0.4648410678,0.128626883,-0.213312909,2024-06-05 19:44:31.058407
23.09887572,-0.3773587942,0.1754971445,-0.1848179251,2024-06-05 19:44:31.098876
23.13935359,-0.2687050402,-0.203592658,0.04793548584,2024-06-05 19:44:31.139354
23.17985041,-0.515173316,-0.581084609,0.1326215118,2024-06-05 19:44:31.179850
23.22033952,-0.3696358502,-0.6319494843,0.4691019952,2024-06-05 19:44:31.220340
23.2607852,-0.4888088107,-0.8055824637,0.7181001902,2024-06-05 19:44:31.260785
23.30129411,-0.5918700695,-0.837539494,0.3521926701,2024-06-05 19:44:31.301294
23.34172854,0.1818885356,-0.1050586104,0.02396774292,2024-06-05 19:44:31.341729
23.38226062,0.4789553881,0.02197043039,-0.1832200736,2024-06-05 19:44:31.382261
23.42273739,-0.1531272531,1.506772161,-0.4414059222,2024-06-05 19:44:31.422737
23.46321796,0.1190397888,3.287708521,-1.011705041,2024-06-05 19:44:31.463218
23.50368593,-0.2420742065,2.983451366,-1.883997798,2024-06-05 19:44:31.503686
23.54417218,-0.5820167065,2.477998257,-2.172143221,2024-06-05 19:44:31.544172
23.5846576,-0.4059869349,1.020626426,-0.8310149312,2024-06-05 19:44:31.584658
23.62519848,-0.2529928386,1.353112221,0.1619154215,2024-06-05 19:44:31.625198
23.66564301,0.471232444,-1.495720267,0.2920069993,2024-06-05 19:44:31.665643
23.70612046,1.044461012,-1.374550104,-0.2388785034,2024-06-05 19:44:31.706120
23.74658515,1.763360143,-0.6990591884,0.0980014354,2024-06-05 19:44:31.746585
23.78710036,2.788380623,-2.576133013,0.7878729701,2024-06-05 19:44:31.787100
23.8275477,1.0591079,0.4593817294,-0.4166392684,2024-06-05 19:44:31.827548
23.86802854,1.075619102,1.199585557,-0.8073135018,2024-06-05 19:44:31.868029
23.90848729,1.102249861,-1.60650456,-0.628354311,2024-06-05 19:44:31.908487
23.94899255,0.2826862037,-1.003982067,0.3985303044,2024-06-05 19:44:31.948993
23.98950458,0.6398055553,-0.2813546658,0.5710980296,2024-06-05 19:44:31.989505
24.02993171,0.9880036116,0.1850842386,0.1187734827,2024-06-05 19:44:32.029932
24.07041255,0.643800199,-1.553775549,-0.2242315561,2024-06-05 19:44:32.070413
24.11085531,-1.878139019,-0.4326177537,0.3849485815,2024-06-05 19:44:32.110855
24.15133614,-1.508103609,0.9042496681,0.3521926701,2024-06-05 19:44:32.151336
24.19181348,-0.1805569977,-0.712374568,0.4651073813,2024-06-05 19:44:32.191813
24.23235765,-0.3153089881,-0.4395417869,0.7266221046,2024-06-05 19:44:32.232358
24.27282275,-0.5447335243,0.5456656218,0.7005238533,2024-06-05 19:44:32.272823
24.3133413,-0.6328815818,0.9172987938,0.2426068187,2024-06-05 19:44:32.313341
24.35382072,0.1099853069,0.7511224151,0.09587097168,2024-06-05 19:44:32.353821
24.39428296,-0.6097127795,-0.8982577324,0.5157059431,2024-06-05 19:44:32.394283
24.43473645,-1.943917155,0.7484593391,0.4331503808,2024-06-05 19:44:32.434736
24.47525807,-2.225804329,3.202489853,0.1573881805,2024-06-05 19:44:32.475258
24.51571114,-2.287854195,2.151371241,0.37296471,2024-06-05 19:44:32.515711
24.55620687,-2.258027792,1.165498137,0.2736317217,2024-06-05 19:44:32.556207
24.59668515,-1.811029315,1.026751518,0.3623123765,2024-06-05 19:44:32.596685
24.63716343,-0.6123758554,1.438863516,0.0758978501,2024-06-05 19:44:32.637163
24.67764749,-0.2394111156,0.9162335396,-0.2127802968,2024-06-05 19:44:32.677647
24.71813176,-0.7918676138,-0.04753602296,-0.03248960897,2024-06-05 19:44:32.718132
24.75858708,-0.7031869292,0.2524602413,-0.00798924733,2024-06-05 19:44:32.758587
24.79912036,-0.65871346,0.1310236603,0.01251648832,2024-06-05 19:44:32.799120
24.83959354,-0.6975944638,-0.07789516449,0.01917419396,2024-06-05 19:44:32.839594
24.88007411,-0.5953320861,0.09347419441,-0.02450035885,2024-06-05 19:44:32.880074
24.92048187,-0.5908048749,0.5693670511,0.07456631213,2024-06-05 19:44:32.920482
24.96097437,-0.4121120274,0.4764254689,0.1509967744,2024-06-05 19:44:32.960974
25.00145489,-0.2218347788,-0.1276948154,0.225563094,2024-06-05 19:44:33.001455
25.04194489,0.3700353205,0.09161003679,0.3756277859,2024-06-05 19:44:33.041945
25.08244432,1.602243662,0.9881367683,0.08575125784,2024-06-05 19:44:33.082444
25.12292359,3.172929764,2.609820843,-0.1360835135,2024-06-05 19:44:33.122924
25.1634076,2.597570658,1.838592172,0.1094526947,2024-06-05 19:44:33.163408
25.20390692,0.7058500051,-0.1772281379,0.4105141759,2024-06-05 19:44:33.203907
25.24439005,1.184006453,0.7295514941,0.2435389012,2024-06-05 19:44:33.244390
25.28484666,1.269757748,-0.1825543046,0.5985277891,2024-06-05 19:44:33.284847
25.3253027,1.165631294,-1.038069606,0.4866783321,2024-06-05 19:44:33.325303
25.36578682,0.6320826411,-1.132076383,0.4568518102,2024-06-05 19:44:33.365787
25.40631312,0.05539211631,-1.326348305,0.3511274457,2024-06-05 19:44:33.406313
25.44678025,-0.1866820902,-0.9145025611,-0.05832150951,2024-06-05 19:44:33.446780
25.48726307,-0.5993267298,-1.787061572,-0.4041227698,2024-06-05 19:44:33.487263
25.527754,1.54418838,-0.539673686,0.273365438,2024-06-05 19:44:33.527754
25.56822551,0.2925396264,-0.7270215154,0.4664389193,2024-06-05 19:44:33.568226
25.60868838,-1.183473945,0.319303602,0.3977313936,2024-06-05 19:44:33.608688
25.64920281,0.3242303133,1.171889424,-0.2673735023,2024-06-05 19:44:33.649203
25.68970697,-0.805449307,-2.711950064,-0.05645735189,2024-06-05 19:44:33.689707
25.73014031,-0.903717041,-1.319690585,-0.729018867,2024-06-05 19:44:33.730140
25.7705765,-0.6049191952,2.193980455,0.08734910935,2024-06-05 19:44:33.770577
25.81105796,-1.105445623,0.8427324891,0.4062532485,2024-06-05 19:44:33.811058
25.85153953,-0.9157009125,-1.093728065,0.08761541545,2024-06-05 19:44:33.851540
25.89206453,0.2928059399,-0.984541595,-0.3705679476,2024-06-05 19:44:33.892065
25.93254041,-0.4288894534,-0.8231588006,-0.2804225981,2024-06-05 19:44:33.932540
25.97302781,-1.037803292,-0.2501966059,-0.2884118557,2024-06-05 19:44:33.973028
26.01354791,-1.127549171,0.5118444562,-0.1805569977,2024-06-05 19:44:34.013548
26.05400968,-0.6842790842,0.9782834053,-0.02396774292,2024-06-05 19:44:34.054010
26.09447359,-0.1358172148,0.3733641803,-0.3166405261,2024-06-05 19:44:34.094474
26.13494953,0.07935985923,0.6672353148,-0.316107899,2024-06-05 19:44:34.134950
26.17542578,0.3220998347,1.536598682,-0.1595186442,2024-06-05 19:44:34.175426
26.21592515,-0.04207670316,1.438330889,-0.4773575366,2024-06-05 19:44:34.215925
26.25639812,-0.4091826379,2.512884617,-0.4834826291,2024-06-05 19:44:34.256398
26.29686166,-0.4222317338,1.786395788,-0.6272891164,2024-06-05 19:44:34.296862
26.33730864,-0.2170412242,-1.078015804,-0.8706948161,2024-06-05 19:44:34.337309
26.37782968,0.1115831584,-0.99013412,-0.888004899,2024-06-05 19:44:34.377830
26.4183277,-0.2279598713,-0.5951989293,-0.6320826411,2024-06-05 19:44:34.418328
26.45879557,-0.6206313968,0.008122402243,-0.4280905128,2024-06-05 19:44:34.458796
26.49931671,-0.1528609395,-0.554586947,-0.4027912319,2024-06-05 19:44:34.499317
26.53977635,0.1752308309,-1.038069606,-0.281221509,2024-06-05 19:44:34.539776
26.58023473,-0.0,-0.5695002079,-0.005592473317,2024-06-05 19:44:34.580235
26.6207151,-0.2897433937,-0.2438052148,0.1824211627,2024-06-05 19:44:34.620715
26.66115994,-0.6310173869,0.5169043541,0.2699034214,2024-06-05 19:44:34.661160
26.70162192,-0.4424711764,-0.1796249151,0.1155777797,2024-06-05 19:44:34.701622
26.74216015,0.08841434121,-0.8399362564,0.018907886,2024-06-05 19:44:34.742160
26.78270088,0.4464657903,-0.3841496706,-0.02077204362,2024-06-05 19:44:34.782701
26.82318046,0.05166380107,-0.2360822707,0.2922733128,2024-06-05 19:44:34.823180
26.86357192,-0.8935973644,-0.1969349533,0.5814840794,2024-06-05 19:44:34.863572
26.90408578,0.08441971987,0.3083849549,0.3109148741,2024-06-05 19:44:34.904086
26.94456963,-0.158986032,-0.6708304882,-0.003462007269,2024-06-05 19:44:34.944570
26.98505135,0.3244965971,-0.7227606177,0.05246272683,2024-06-05 19:44:34.985051
27.02551437,0.2207695395,-0.4613790512,0.5947995186,2024-06-05 19:44:35.025514
27.0660127,0.02103835158,1.26549685,0.6174356937,2024-06-05 19:44:35.066013
27.10643166,0.4334166944,1.587996125,0.670963645,2024-06-05 19:44:35.106432
27.14698187,0.1246322617,-1.397718906,0.3849485815,2024-06-05 19:44:35.146982
27.18747499,-0.1081211492,-1.145924449,0.1882799417,2024-06-05 19:44:35.187475
27.22794697,-0.01331541315,0.8339443207,0.3628450036,2024-06-05 19:44:35.227947
27.26842864,0.1113168523,0.5067846179,0.3604482114,2024-06-05 19:44:35.268429
27.30890916,0.3905410469,-0.3508611321,0.06897383928,2024-06-05 19:44:35.308909
27.34931249,0.2914743721,0.9769518375,-0.004260932095,2024-06-05 19:44:35.349312
27.38986817,-0.4978632927,0.7481930256,0.01091863867,2024-06-05 19:44:35.389868
27.43034926,-0.5295539498,0.1003982127,0.05459319428,2024-06-05 19:44:35.430349
27.47075583,0.1259638071,-0.09334104508,-0.1541924775,2024-06-05 19:44:35.470756
27.51123692,0.3950682878,-1.7186203,0.03089175746,2024-06-05 19:44:35.511237
27.55171801,-0.2085193694,-0.8844097257,-0.1936061084,2024-06-05 19:44:35.551718
27.59223999,-0.2607157826,0.2284924835,-0.204258427,2024-06-05 19:44:35.592240
27.63273499,-0.02157096937,-0.09786828607,-0.1515294015,2024-06-05 19:44:35.632735
27.67321791,0.06471290439,-1.282141089,-0.2500634491,2024-06-05 19:44:35.673218
27.7136889,-0.301194638,-0.7893376946,0.03967992961,2024-06-05 19:44:35.713689
27.75419562,-0.2516613007,0.5051867366,0.1653774232,2024-06-05 19:44:35.754196
27.79468755,0.1960028708,-0.1953371018,0.06684337556,2024-06-05 19:44:35.794688
27.83516828,0.3053224087,-0.7006570101,-0.01011971384,2024-06-05 19:44:35.835168
27.87564874,0.1374150664,-0.3780245781,0.07216953486,2024-06-05 19:44:35.875649
27.91609609,-0.1001319066,-0.0126496423,0.2167749256,2024-06-05 19:44:35.916096
27.95657473,0.1360835135,-0.0003994623839,0.1278279573,2024-06-05 19:44:35.956575
27.99708942,0.3705679476,-0.2214353085,0.08495233208,2024-06-05 19:44:35.997089
28.03754828,0.2848166823,-0.24753353,0.1797580719,2024-06-05 19:44:36.037548
28.0780263,-0.04660394415,-0.3127790391,0.2316881865,2024-06-05 19:44:36.078026
28.11846062,0.06524552405,-0.2672403455,0.1909430176,2024-06-05 19:44:36.118461
28.15897973,0.2754958868,-0.1972012669,0.09906667471,2024-06-05 19:44:36.158980
28.19953744,0.1432738453,-0.3236976862,0.1041265279,2024-06-05 19:44:36.199537
28.23999739,-0.0007989247679,-0.2326202542,0.1113168523,2024-06-05 19:44:36.239997
28.28037749,-0.06311506033,-0.02117150649,0.09693620354,2024-06-05 19:44:36.280377
28.3208589,-0.03222329915,0.0977351293,0.03675054014,2024-06-05 19:44:36.320859
28.361364,0.1392792165,0.2029268891,0.02503297664,2024-06-05 19:44:36.361364
28.40187676,-0.006391398143,0.05858781561,0.009587096982,2024-06-05 19:44:36.401877
28.44237463,-0.2205032408,0.005193010904,0.06071828306,2024-06-05 19:44:36.442375
28.48286171,-0.03009283356,0.2114487588,0.03941362351,2024-06-05 19:44:36.482862
28.5233227,0.07722939551,0.04607132822,-0.05272903293,2024-06-05 19:44:36.523323
28.56380604,-0.03808208182,-0.04513924941,-0.04207670316,2024-06-05 19:44:36.563806
28.60431239,-0.1619154215,-0.001464695437,-0.02529928461,2024-06-05 19:44:36.604312
28.64477942,-0.1025286764,-0.112781547,-0.08042509109,2024-06-05 19:44:36.644779
28.68525859,-0.01011971384,-0.1133141592,-0.1177082509,2024-06-05 19:44:36.685259
28.72574604,-0.1169093251,-0.09813459218,-0.1169093251,2024-06-05 19:44:36.725746
28.76623489,-0.204258427,-0.04940018058,-0.1288931966,2024-06-05 19:44:36.766235
28.8067164,-0.08362079412,0.4588491321,-0.1661763489,2024-06-05 19:44:36.806716
28.84717463,0.009587096982,1.124220252,-0.2311555594,2024-06-05 19:44:36.847175
28.88764708,-0.05539211631,1.807167768,-0.314776361,2024-06-05 19:44:36.887647
28.9281251,-0.09427312016,2.131398201,-0.383883357,2024-06-05 19:44:36.928125
28.9686188,-0.08521863818,1.478277087,-0.3027924895,2024-06-05 19:44:36.968619
29.00908312,-0.1102516204,-0.1002650559,-0.2977326214,2024-06-05 19:44:37.009083
29.0496015,-0.1070559174,-0.8575125933,-0.3721657991,2024-06-05 19:44:37.049602
29.09009692,-0.05619104207,-0.1785596907,-0.08734910935,2024-06-05 19:44:37.090097
29.13054775,1.519155502,-0.05472634733,-0.287612915,2024-06-05 19:44:37.130548
29.17096249,-0.03967992961,-0.5967968106,0.1664426625,2024-06-05 19:44:37.170962
29.21143182,-0.1976007223,-0.4786891043,0.1472684592,2024-06-05 19:44:37.211432
29.25195135,0.1057243794,0.1560566425,0.06897383928,2024-06-05 19:44:37.251951
29.29244734,-0.6195661426,-0.3284912407,-0.2026605755,2024-06-05 19:44:37.292447
29.33286937,-0.6517894268,-0.4496614933,0.1517957002,2024-06-05 19:44:37.332869
29.37338739,-0.4808195531,0.6098458767,0.3641765416,2024-06-05 19:44:37.373387
29.41388468,-0.3616466224,-1.6555053,0.3356815577,2024-06-05 19:44:37.413885
29.45437223,0.2074541301,-0.5010589957,0.08814803511,2024-06-05 19:44:37.454372
29.49486676,0.3300890923,-0.2065220475,0.1310236603,2024-06-05 19:44:37.494867
29.53533682,0.5404726267,-1.462165475,0.7143719196,2024-06-05 19:44:37.535337
29.57582786,-0.103061296,-0.4171718955,0.5031894445,2024-06-05 19:44:37.575828
29.61630911,-0.6786866188,0.9425980449,-0.33474949,2024-06-05 19:44:37.616309
29.65678572,0.1190397888,1.720351338,-0.2639114857,2024-06-05 19:44:37.656786
29.69726963,-0.2151770741,0.6191666722,-0.1302247345,2024-06-05 19:44:37.697270
29.73775458,-0.1904104054,-1.047390342,-0.06684337556,2024-06-05 19:44:37.737755
29.7782552,-0.3876116574,1.02541995,0.4714987576,2024-06-05 19:44:37.778255
29.81870765,-0.1017297506,0.01824211515,0.1605838835,2024-06-05 19:44:37.818708
29.85916994,-0.2271609455,-2.283060789,-0.2673735023,2024-06-05 19:44:37.859170
29.89965854,-0.3376788795,-0.3969324529,-0.2854824364,2024-06-05 19:44:37.899659
29.94014343,-0.3376788795,1.520620108,-0.1677742004,2024-06-05 19:44:37.940143
29.98062468,-0.7753564715,0.5155727863,-0.03941362351,2024-06-05 19:44:37.980625
30.02109072,-0.6584471464,-0.4816184938,-0.3217003644,2024-06-05 19:44:38.021091
30.06156437,-0.3565867543,0.6456643939,-0.290275991,2024-06-05 19:44:38.061564
30.10203124,-0.6009245515,-0.6692326665,-0.2170412242,2024-06-05 19:44:38.102031
30.14254926,-0.3105154335,0.08468602598,-0.1022623703,2024-06-05 19:44:38.142549
30.18301369,0.0117175635,-0.2480661422,0.1432738453,2024-06-05 19:44:38.183014
30.22352963,0.8318138123,-0.1695052087,0.1507304758,2024-06-05 19:44:38.223530
30.26402395,1.672016382,2.083995342,0.06364767253,2024-06-05 19:44:38.264024
30.30449958,1.135005832,2.913678646,0.2797568142,2024-06-05 19:44:38.304500
30.34492624,0.3292901516,2.590646744,0.6480611563,2024-06-05 19:44:38.344926
30.3854276,-0.1717688292,0.9306141734,0.4872109592,2024-06-05 19:44:38.385428
30.42591468,-0.2681724131,-0.3061213493,0.3109148741,2024-06-05 19:44:38.425915
30.46640807,-0.1009308323,-0.2917406857,0.07829462737,2024-06-05 19:44:38.466408
30.5068852,0.3481980562,-0.4278241992,-0.1968017966,2024-06-05 19:44:38.506885
30.54738833,0.9919982553,-1.40091455,-0.4139761925,2024-06-05 19:44:38.547388
30.58786229,1.554041862,-2.031133175,-0.1754971445,2024-06-05 19:44:38.587862
30.62834328,1.537530661,-0.4163729548,0.2523270845,2024-06-05 19:44:38.628343
30.66882359,-0.04820179567,0.221035853,0.4083836973,2024-06-05 19:44:38.668824
30.70935828,-0.4121120274,-0.2153102309,0.3828181326,2024-06-05 19:44:38.709358
30.74982828,-0.5202331543,-0.7177007794,0.1464695334,2024-06-05 19:44:38.749828
30.79019244,0.9770849943,1.869883418,-0.07536523789,2024-06-05 19:44:38.790192
30.83073015,0.07696308941,-0.4906729758,-0.5356790423,2024-06-05 19:44:38.830730
30.87121072,0.6549851298,1.080545783,1.1155653,2024-06-05 19:44:38.871211
30.91169135,2.578396559,3.268001795,1.594254375,2024-06-05 19:44:38.911691
30.95217218,0.3109148741,-2.636851311,-0.05912043154,2024-06-05 19:44:38.952172
30.99265192,0.2848166823,-0.5319507122,0.3695026934,2024-06-05 19:44:38.992652
31.03313249,1.975607753,4.708463192,1.557237506,2024-06-05 19:44:39.033132
31.07361692,0.7612421513,-4.173183441,0.8509880304,2024-06-05 19:44:39.073617
31.11409749,-2.341648579,-2.569475174,0.4424711764,2024-06-05 19:44:39.114097
31.15458041,-1.262833714,-1.64884758,-0.4706998467,2024-06-05 19:44:39.154580
31.19504437,-0.8105092049,-0.9672315717,0.03382114694,2024-06-05 19:44:39.195044
31.23557947,-1.048455596,0.5922695398,-0.4507267177,2024-06-05 19:44:39.235579
31.27604218,-1.040732622,0.4673709869,-0.1366161406,2024-06-05 19:44:39.276042
31.31648906,-0.5082492828,-0.2973331809,0.2079867423,2024-06-05 19:44:39.316489
31.35692755,-0.3355484009,-0.09600412846,0.071104303,2024-06-05 19:44:39.356928
31.39746478,-0.7181001902,0.1536598653,-0.3814865649,2024-06-05 19:44:39.397465
31.43800723,-0.3635107577,-0.7896040082,-0.322499305,2024-06-05 19:44:39.438007
31.47842604,0.02450035885,-0.844197154,-0.1057243794,2024-06-05 19:44:39.478426
31.51888916,-0.3776251078,-0.5644403696,-0.284417212,2024-06-05 19:44:39.518889
31.55944656,-0.386546433,-0.2869471312,-0.3240971565,2024-06-05 19:44:39.559447
31.5999138,-0.2095845938,-0.1588528752,-0.3635107577,2024-06-05 19:44:39.599914
31.64031228,-0.07989247888,-0.8295502067,-0.3358147144,2024-06-05 19:44:39.640312
31.68079203,-0.2711018026,-0.7150376439,-0.07163692266,2024-06-05 19:44:39.680792
31.72127182,-0.4896077216,0.3595161438,0.05166380107,2024-06-05 19:44:39.721272
31.76176275,-0.1009308323,0.4327509105,-0.177094996,2024-06-05 19:44:39.761763
31.80226624,-0.1262301207,0.1773612946,-0.1430075318,2024-06-05 19:44:39.802266
31.84274906,-0.1299584359,0.01637795754,-0.1573881805,2024-06-05 19:44:39.842749
31.88322791,0.07483261824,-0.1311568171,-0.2958684862,2024-06-05 19:44:39.883228
31.9237114,0.07296846062,-0.1322220564,-0.239144817,2024-06-05 19:44:39.923711
31.96419708,0.1009308323,0.4745613039,-0.190676704,2024-06-05 19:44:39.964197
32.00468426,0.1568555683,0.5142412186,-0.09054480493,2024-06-05 19:44:40.004684
32.0452001,0.1280942708,0.4908061028,-0.09347419441,2024-06-05 19:44:40.045200
32.08564921,0.03754946589,0.7924002409,-0.1366161406,2024-06-05 19:44:40.085649
32.12611822,0.01438064594,1.120491982,-0.03488638252,2024-06-05 19:44:40.126118
32.16657671,-0.06844121963,1.00091958,-0.07243584841,2024-06-05 19:44:40.166577
32.20707088,-0.0758978501,0.267639786,-0.158986032,2024-06-05 19:44:40.207071
32.24757604,-0.08548495173,-0.4709661603,-0.2284924835,2024-06-05 19:44:40.247576
32.28805333,-0.3046566546,-0.08801487833,-0.3785571754,2024-06-05 19:44:40.288053
32.32849994,-0.05512581021,-1.193993092,-0.5806851387,2024-06-05 19:44:40.328500
32.3689965,-0.07509893179,-2.958817959,-0.6398055553,2024-06-05 19:44:40.368997
32.40953734,-1.891454339,-2.298772812,0.1821548492,2024-06-05 19:44:40.409537
32.45001478,-0.08255556226,-0.6716294289,-0.02157096937,2024-06-05 19:44:40.450015
32.49046213,0.9818785191,-0.5716306567,-1.168826938,2024-06-05 19:44:40.490462
32.53087645,-2.00809741,-0.3497959077,-0.2199706137,2024-06-05 19:44:40.530876
32.57135682,0.1651111245,0.3344831765,-0.6869421601,2024-06-05 19:44:40.571357
32.61183713,-0.02450035885,-0.5777557492,-0.6853442788,2024-06-05 19:44:40.611837
32.65234989,2.43672061,0.343803972,0.1821548492,2024-06-05 19:44:40.652350
32.69286328,3.670793056,0.5155727863,0.3106485903,2024-06-05 19:44:40.692863
32.73334098,2.815277815,-0.3782908916,-0.1757634431,2024-06-05 19:44:40.733341
32.77381478,3.258947372,2.863346338,1.536998153,2024-06-05 19:44:40.773815
32.81428536,2.893039703,0.006258244161,3.779713154,2024-06-05 19:44:40.814285
32.85476135,4.499544144,-1.997045636,3.338972807,2024-06-05 19:44:40.854761
32.89525109,4.859859467,-1.655238986,2.54510808,2024-06-05 19:44:40.895251
32.93573859,2.650299788,-2.344577789,2.243647099,2024-06-05 19:44:40.935739
32.97621838,-0.5692338943,-1.692788482,0.868164897,2024-06-05 19:44:40.976218
33.01670202,-2.005966902,-1.921946645,-0.07802832127,2024-06-05 19:44:41.016702
33.05718062,0.3111811876,-0.4531235099,0.377491951,2024-06-05 19:44:41.057181
33.09765937,2.718607903,0.7838783264,0.1749645174,2024-06-05 19:44:41.097659
33.13812244,2.578662872,2.557890892,1.559101701,2024-06-05 19:44:41.138122
33.17861202,1.853372335,-1.699978709,1.034873843,2024-06-05 19:44:41.178612
33.21910614,0.3039908707,2.004102707,1.712761521,2024-06-05 19:44:41.219106
33.25962728,-1.007710457,0.5328828096,1.517823935,2024-06-05 19:44:41.259627
33.30012713,0.3937367499,-0.850055933,-0.5260919333,2024-06-05 19:44:41.300127
33.34061041,-0.695464015,0.4940018058,-0.1587197185,2024-06-05 19:44:41.340610
33.38099078,-1.318492174,0.1645784974,0.1177082509,2024-06-05 19:44:41.380991
33.42146411,-0.1885462403,0.2159759998,-0.1267627329,2024-06-05 19:44:41.421464
33.46196676,-0.6089138389,-0.009720250964,-0.7545844316,2024-06-05 19:44:41.461967
33.5024802,-0.6861432195,0.157654494,-0.7026543617,2024-06-05 19:44:41.502480
33.54293296,-0.573228538,0.03408745676,-0.836341083,2024-06-05 19:44:41.542933
33.58344952,-0.9607070088,-0.3258281648,-1.404776096,2024-06-05 19:44:41.583450
33.62393343,-1.850442886,-0.3332847953,-2.401567936,2024-06-05 19:44:41.623933
33.66439963,-1.804371595,0.5693670511,-2.209293365,2024-06-05 19:44:41.664400
33.70489578,-0.3110480309,-0.09280842543,-1.411433816,2024-06-05 19:44:41.704896
33.74536895,1.096923709,-0.3617797792,-0.7058500051,2024-06-05 19:44:41.745369
33.78588036,-0.2252967805,0.9873378873,-0.9487231374,2024-06-05 19:44:41.785880
33.82630411,-0.5633751154,0.4588491321,-0.4520582557,2024-06-05 19:44:41.826304
33.86678578,-1.100119352,1.037670135,-0.4251611233,2024-06-05 19:44:41.866786
33.90728478,-1.006112576,0.5422036052,-0.6222292185,2024-06-05 19:44:41.907285
33.94775916,-1.210371017,-1.326614618,-0.8211615086,2024-06-05 19:44:41.947759
33.98821942,-1.476679325,-0.4376776218,-0.8414009213,2024-06-05 19:44:41.988219
34.02872505,-1.528875709,0.164844811,-1.215164542,2024-06-05 19:44:42.028725
34.06927192,-1.894916415,-0.7856093645,-1.16003871,2024-06-05 19:44:42.069272
34.10964937,-1.476679325,-0.5829487443,-1.256442308,2024-06-05 19:44:42.109649
34.15013104,-2.283859491,-1.699712396,-0.7527202964,2024-06-05 19:44:42.150131
34.19061843,-3.651618719,0.2324871123,0.2576532364,2024-06-05 19:44:42.190618
34.23109708,0.1818885356,3.157217503,0.6701647043,2024-06-05 19:44:42.231097
34.27157859,1.22022438,0.9295489788,1.168027997,2024-06-05 19:44:42.271579
34.31211437,1.708766937,0.9420654774,1.726076961,2024-06-05 19:44:42.312114
34.35252567,2.63938117,1.41170001,1.353911161,2024-06-05 19:44:42.352526
34.39307817,1.9910537,0.9324783683,0.3979976773,2024-06-05 19:44:42.393078
34.43351531,-0.09533835202,-0.33807832,-0.2785584331,2024-06-05 19:44:42.433515
34.47400963,4.176113129,4.7105937,0.4054543078,2024-06-05 19:44:42.474010
34.51450562,3.797821999,-0.6223623753,0.07030537724,2024-06-05 19:44:42.514506
34.55499234,-0.8627055883,1.382139802,-0.06364767253,2024-06-05 19:44:42.554992
34.59547072,0.7247579098,-0.8362079263,0.6675016284,2024-06-05 19:44:42.595471
34.63595442,1.099586844,-1.065499306,-0.7801500559,2024-06-05 19:44:42.635954
34.67640833,0.3926715255,-1.28586936,0.3537905216,2024-06-05 19:44:42.676408
34.71691015,-0.2458025217,-0.8495233655,0.1382139921,2024-06-05 19:44:42.716910
34.75738114,-0.6680342555,-0.5085155964,0.4800206423,2024-06-05 19:44:42.757381
34.79787119,-0.6896052361,-0.1423417628,0.5239614844,2024-06-05 19:44:42.797871
34.83832447,-0.7897371054,-0.3069202602,0.367105931,2024-06-05 19:44:42.838324
34.87880505,-0.7508561015,-0.1015966013,-0.1685731262,2024-06-05 19:44:42.878805
34.91926744,-0.8094439507,-0.2816209793,-0.2367480397,2024-06-05 19:44:42.919267
34.95986031,-0.759378016,-0.3223661482,-0.4800206423,2024-06-05 19:44:42.959860
35.00021682,-0.7015891075,-0.0949388966,-0.9684299827,2024-06-05 19:44:43.000217
35.04070051,-0.5718969703,0.1624480337,-1.067363501,2024-06-05 19:44:43.040701
35.08117885,-0.6544525623,0.4844147265,-0.9994548559,2024-06-05 19:44:43.081179
35.12167119,-0.906113863,1.129013896,-1.035939097,2024-06-05 19:44:43.121671
35.16217968,-0.8336780071,1.555772781,-1.035672784,2024-06-05 19:44:43.162180
35.20269078,-0.8312812448,2.048842669,-1.062303662,2024-06-05 19:44:43.202691
35.243169,-0.3078523576,2.567211628,-1.422352433,2024-06-05 19:44:43.243169
35.28364859,0.1363498271,2.658288956,-1.857100606,2024-06-05 19:44:43.283649
35.32410609,-0.1416759938,2.489715815,-1.862959385,2024-06-05 19:44:43.324106
35.36456958,-0.4736292362,2.247774839,-1.245523691,2024-06-05 19:44:43.364570
35.40508588,-1.108374953,1.838592172,-0.7910686731,2024-06-05 19:44:43.405086
35.44557567,-1.849910259,1.260437012,0.04607132822,2024-06-05 19:44:43.445576
35.48604505,-2.801562786,2.254965067,1.113168478,2024-06-05 19:44:43.486045
35.52652916,-3.244034052,0.4734960794,0.3769593239,2024-06-05 19:44:43.526529
35.56701874,-2.884784222,3.232582808,0.8187647462,2024-06-05 19:44:43.567019
35.60750531,-4.475177288,2.325270653,0.2616478503,2024-06-05 19:44:43.607505
35.64798645,-4.336163998,0.5643072128,-0.8411346078,2024-06-05 19:44:43.647986
35.68844468,-2.558157206,0.3872122169,0.1070559174,2024-06-05 19:44:43.688445
35.72893895,-1.413830519,4.331903458,-0.3868127465,2024-06-05 19:44:43.728939
35.76945984,-2.159626722,5.713243961,-0.5660381913,2024-06-05 19:44:43.769460
35.8099176,-2.150039673,4.222583771,-0.05299534276,2024-06-05 19:44:43.809918
35.85039801,-2.20663023,2.914477587,0.649658978,2024-06-05 19:44:43.850398
35.89080926,-1.819018483,0.5608451962,1.40877068,2024-06-05 19:44:43.890809
35.93127656,-0.9814790487,5.499798298,1.681337118,2024-06-05 19:44:43.931277
35.97178385,0.5444672108,10.38162804,1.886128187,2024-06-05 19:44:43.971784
36.01228926,3.336842537,-3.873586655,1.632336497,2024-06-05 19:44:44.012289
36.05276255,3.166271925,-2.804625511,0.3199693561,2024-06-05 19:44:44.052763
36.09323656,1.686397076,2.748567581,-1.48147285,2024-06-05 19:44:44.093237
36.13373604,1.426347017,6.060510159,0.8315475583,2024-06-05 19:44:44.133736
36.17422452,-0.006657706574,0.8738905191,0.570032835,2024-06-05 19:44:44.174225
36.21471406,-0.3243634701,0.5427362323,0.5588479042,2024-06-05 19:44:44.214714
36.25518598,-0.1238333359,0.1579207927,-0.235949114,2024-06-05 19:44:44.255186
36.29565239,-0.3661738634,0.03248960897,-0.5708317757,2024-06-05 19:44:44.295652
36.33608864,-0.6943987608,-0.2025274336,-0.3758940995,2024-06-05 19:44:44.336089
36.37659119,0.5276898146,2.082397461,0.3375457227,2024-06-05 19:44:44.376591
36.41709703,0.05033225939,1.498250246,1.043662071,2024-06-05 19:44:44.417097
36.45757718,0.4978632927,-1.859896898,-0.5652392507,2024-06-05 19:44:44.457577
36.49805874,-1.290529847,4.488226414,0.169372052,2024-06-05 19:44:44.498059
36.53853619,-1.591990709,2.266948938,-0.8488575816,2024-06-05 19:44:44.538536
36.57905687,0.1203713343,1.021425366,-1.807300925,2024-06-05 19:44:44.579057
36.61955015,-0.6493926644,2.315683365,-1.870948672,2024-06-05 19:44:44.619550
36.66002656,-1.982531786,1.826075673,-1.596651196,2024-06-05 19:44:44.660027
36.70050744,-1.352845907,2.50276494,-0.420101285,2024-06-05 19:44:44.700507
36.74092291,-0.6057181358,3.896089792,-0.1898777932,2024-06-05 19:44:44.740923
36.78137104,0.5908048749,2.718208313,-1.268958807,2024-06-05 19:44:44.781371
36.82191817,1.398651004,2.101305246,-1.040466309,2024-06-05 19:44:44.821918
36.8623765,0.4512593448,2.197975159,-0.1853505522,2024-06-05 19:44:44.862377
36.90285775,0.2856155932,1.089600205,-0.6403381824,2024-06-05 19:44:44.902858
36.94335062,0.2709686458,0.7902697325,-1.078282118,2024-06-05 19:44:44.943351
36.98383531,-0.1009308323,1.221955419,-1.153647423,2024-06-05 19:44:44.983835
37.02433239,-0.4041227698,1.12262249,-0.7990579009,2024-06-05 19:44:45.024332
37.06481109,-0.6512568593,0.7114425302,-0.4121120274,2024-06-05 19:44:45.064811
37.10527197,-0.9825443029,0.9479242563,-0.2628462613,2024-06-05 19:44:45.105272
37.14574947,-1.224219084,1.372286439,-0.164844811,2024-06-05 19:44:45.145749
37.18622687,-1.374150634,1.232341409,0.1027949899,2024-06-05 19:44:45.186227
37.22673578,-1.421020865,0.4463326335,-0.0260982085,2024-06-05 19:44:45.226736
37.2672039,0.03701684624,-1.026085734,-0.7463288903,2024-06-05 19:44:45.267204
37.30769228,0.2866808474,-0.9520519972,-0.1656437367,2024-06-05 19:44:45.307692
37.34812328,-0.03595161438,-0.5641740561,0.2039921284,2024-06-05 19:44:45.348123
37.38865817,-0.5657718778,0.9609733224,0.07882724702,2024-06-05 19:44:45.388658
37.42918619,-1.527544141,0.8714937568,0.5695002079,2024-06-05 19:44:45.429186
37.4696552,-1.945781231,0.04766917601,0.7431331873,2024-06-05 19:44:45.469655
37.51002484,-1.460434437,0.2284924835,0.4243622124,2024-06-05 19:44:45.510025
37.55052807,-1.16003871,1.360036254,0.4933360517,2024-06-05 19:44:45.550528
37.59101312,-1.181876063,4.19568634,0.7519213557,2024-06-05 19:44:45.591013
37.6314952,-0.8467270732,2.557358265,0.4030575454,2024-06-05 19:44:45.631495
37.67199973,-0.4121120274,-0.4163729548,-0.137681365,2024-06-05 19:44:45.672000
37.71249296,-0.2484655976,-0.7552502155,-0.09427312016,2024-06-05 19:44:45.712493
37.75296369,-0.4792217016,0.9170324802,0.1078548431,2024-06-05 19:44:45.752964
37.79353078,-0.6920019984,1.632469654,0.1565892547,2024-06-05 19:44:45.793531
37.83392119,0.02929390781,0.5983946323,-0.1488663107,2024-06-05 19:44:45.833921
37.87440864,-0.05379426852,0.4367455542,0.1328878254,2024-06-05 19:44:45.874409
37.91487723,-0.1198387146,0.8720263839,0.5290213227,2024-06-05 19:44:45.914877
37.95536749,1.022357345,0.8722926974,0.4054543078,2024-06-05 19:44:45.955367
37.99586979,2.416214705,2.286655903,0.052196417,2024-06-05 19:44:45.995870
38.03632244,2.49237895,4.435230732,-0.5993267298,2024-06-05 19:44:46.036322
38.07681135,1.0591079,5.052134037,0.2426068187,2024-06-05 19:44:46.076811
38.1173226,-0.2969337106,2.617543936,0.5457987785,2024-06-05 19:44:46.117323
38.1577576,0.04314193875,0.3882774413,0.4738955498,2024-06-05 19:44:46.157758
38.19828176,0.06391397864,0.4700340629,1.050319791,2024-06-05 19:44:46.198282
38.23873171,0.6616428494,-0.7211627364,0.369769007,2024-06-05 19:44:46.238732
38.27928275,1.603841424,-0.9267527461,0.2728328109,2024-06-05 19:44:46.279283
38.31973124,0.1262301207,-0.4368786812,-0.3993292153,2024-06-05 19:44:46.319731
38.36015281,-0.7599105835,0.2995967865,-0.5681686401,2024-06-05 19:44:46.360153
38.40066098,-1.083341956,0.6109111309,-0.7489919662,2024-06-05 19:44:46.400661
38.44109791,-0.5439345837,-0.132488355,-0.6595124006,2024-06-05 19:44:46.441098
38.48160041,-0.03195698932,0.1536598653,-0.7889382243,2024-06-05 19:44:46.481600
38.52211442,-0.06471290439,-0.06644391268,-0.6928009391,2024-06-05 19:44:46.522114
38.56258562,-0.5133091807,-0.02383458801,-0.4203675687,2024-06-05 19:44:46.562586
38.60309083,-0.09560466558,0.2742975056,-0.2069215178,2024-06-05 19:44:46.603091
38.64356468,-0.305721879,0.1086537689,-0.3083849549,2024-06-05 19:44:46.643565
38.6840414,-0.5228962898,0.09666989744,-0.3350157738,2024-06-05 19:44:46.684041
38.72452562,-0.3267602324,0.05619104207,-0.2026605755,2024-06-05 19:44:46.724526
38.76499614,-0.1930734813,-0.2888112962,-0.06684337556,2024-06-05 19:44:46.764996
38.805479,-0.3536573648,-0.6404713392,-0.1142462417,2024-06-05 19:44:46.805479
38.845939,-0.1177082509,-0.4488625526,-0.09933298081,2024-06-05 19:44:46.845939
38.88642098,0.4046553969,-0.8881380558,0.2627131045,2024-06-05 19:44:46.886421
38.92691046,-0.5066514611,-0.9448617101,-0.008255556226,2024-06-05 19:44:46.926910
38.96740916,-0.7886719108,-0.1569887102,-0.2069215178,2024-06-05 19:44:46.967409
39.00789791,-0.2561885417,-1.397186279,-0.117974557,2024-06-05 19:44:47.007898
39.04836786,-0.2788247466,-1.579873681,-0.1808233112,2024-06-05 19:44:47.048368
39.08885369,-0.5149070024,0.750323534,0.1901440918,2024-06-05 19:44:47.088854
39.12931333,-1.007710457,1.156709909,0.2541912198,2024-06-05 19:44:47.129313
39.1697889,-0.7809489369,-0.08162347972,0.3098496497,2024-06-05 19:44:47.169789
39.21028025,-0.2316881865,-0.3963998258,0.1046591476,2024-06-05 19:44:47.210280
39.25080197,-0.1874810159,-0.1463363916,0.02716344222,2024-06-05 19:44:47.250802
39.29128307,-0.6267564893,0.6728277802,0.1584534049,2024-06-05 19:44:47.291283
39.33169432,-0.9662995338,1.378411531,0.2746969759,2024-06-05 19:44:47.331694
39.37219989,-1.106244445,1.007843614,0.1842853129,2024-06-05 19:44:47.372200
39.41269328,-0.7332797647,0.8145037889,0.09959928691,2024-06-05 19:44:47.412693
39.45318598,0.0117175635,0.6480611563,0.05006595328,2024-06-05 19:44:47.453186
39.4936526,-0.2588516176,0.9066464305,-0.05485950038,2024-06-05 19:44:47.493653
39.5341201,-0.8371400237,1.743520141,0.4869446456,2024-06-05 19:44:47.534120
39.57462426,0.06631075591,1.394922614,0.5516575575,2024-06-05 19:44:47.574624
39.6150938,0.8801487684,1.088002324,0.1246322617,2024-06-05 19:44:47.615094
39.65559036,1.86855185,2.600233793,-0.380687654,2024-06-05 19:44:47.655590
39.69607265,1.947645426,4.613390923,-0.1081211492,2024-06-05 19:44:47.696073
39.73653807,0.7979927063,4.12165308,0.6240934134,2024-06-05 19:44:47.736538
39.77704322,0.8625724316,1.322486758,0.2669740319,2024-06-05 19:44:47.777043
39.81752406,1.002384305,0.4268921316,0.2375469655,2024-06-05 19:44:47.817524
39.85799796,0.3479317427,0.1027949899,0.4086500108,2024-06-05 19:44:47.857998
39.89845614,0.4693683088,-0.1588528752,0.2949363887,2024-06-05 19:44:47.898456
39.93893437,0.6017234921,-0.3828181326,-0.3065207899,2024-06-05 19:44:47.938934
39.97944421,0.3703016341,-0.6189003587,-0.3711005449,2024-06-05 19:44:47.979444
40.0199189,-0.2836183012,-0.04567186534,-0.5657718778,2024-06-05 19:44:48.019919
40.06036718,-0.3963998258,0.1065233052,-0.6296858788,2024-06-05 19:44:48.060367
40.10083676,-0.1347519755,-0.1862826198,-0.6653711796,2024-06-05 19:44:48.100837
40.14134406,-0.3304885328,-0.3372794092,-0.8400694132,2024-06-05 19:44:48.141344
40.18184244,-0.5404726267,0.204258427,-0.5857450366,2024-06-05 19:44:48.181842
40.22233275,-0.5266245604,0.06684337556,-0.5087819099,2024-06-05 19:44:48.222333
40.26282916,-0.2814878225,0.1509967744,-0.5955983996,2024-06-05 19:44:48.262829
40.30327958,-0.1432738453,0.680018127,-0.5444672108,2024-06-05 19:44:48.303280
40.3437001,-0.2066552043,1.244857907,-0.2761616707,2024-06-05 19:44:48.343700
40.3842438,-0.07243584841,1.439662457,0.03435376659,2024-06-05 19:44:48.384244
40.42470885,0.2440715134,0.9103747606,0.3042571843,2024-06-05 19:44:48.424709
40.46520395,0.2640446424,0.02037258074,0.4773575366,2024-06-05 19:44:48.465204
40.50566478,0.0114512546,-0.5551195741,0.3061213493,2024-06-05 19:44:48.505665
40.54617572,-0.3696358502,-0.9400681257,0.0817566365,2024-06-05 19:44:48.546176
40.58664781,-0.4472647011,-0.7512555718,0.2438052148,2024-06-05 19:44:48.586648
40.62713036,-0.6667027473,-0.3780245781,0.5220973492,2024-06-05 19:44:48.627130
40.66762801,-0.0713706091,-0.1031944528,-0.6595124006,2024-06-05 19:44:48.667628
40.7081013,0.1765623689,-0.7531197667,0.05592473224,2024-06-05 19:44:48.708101
40.74856781,-0.108920075,-2.530327797,0.1664426625,2024-06-05 19:44:48.748568
40.78908046,-0.8499227762,-4.088231087,0.252060771,2024-06-05 19:44:48.789080
40.82955473,-0.02503297664,1.623681426,0.09001219273,2024-06-05 19:44:48.829555
40.8700163,0.219171688,3.88703537,0.3785571754,2024-06-05 19:44:48.870016
40.91045333,-0.9236901999,0.4082505703,0.5284887552,2024-06-05 19:44:48.910453
40.95091447,-0.222367391,-0.2728328109,0.1613828093,2024-06-05 19:44:48.950914
40.99139525,0.5362116694,-0.0544600375,-0.1201050207,2024-06-05 19:44:48.991395
41.03195484,-0.4118457139,0.869363308,0.1272953451,2024-06-05 19:44:49.031955
41.07240505,-0.354189992,1.208373666,0.2263620198,2024-06-05 19:44:49.072405
41.11290333,0.07509893179,0.1185071766,0.08308817446,2024-06-05 19:44:49.112903
41.15335265,0.1374150664,0.2388785034,0.05619104207,2024-06-05 19:44:49.153353
41.1938527,-0.1400781423,0.3717663288,0.09986559302,2024-06-05 19:44:49.193853
41.23435301,-0.3675054014,0.8011884093,0.2454030514,2024-06-05 19:44:49.234353
41.27483328,-0.1584534049,1.14712286,0.2752295732,2024-06-05 19:44:49.274833
41.31531906,0.8476591706,0.9228912592,0.07989247888,2024-06-05 19:44:49.315319
41.35573572,2.57999444,0.09001219273,-0.04660394415,2024-06-05 19:44:49.355736
41.39628124,1.954569459,-0.1029281393,-0.2002638131,2024-06-05 19:44:49.396281
41.43673328,-0.6091801524,1.140997767,-1.321687818,2024-06-05 19:44:49.436733
41.47724963,-1.848046184,1.860562682,-1.712228894,2024-06-05 19:44:49.477250
41.51772041,-0.6408708096,0.3624455333,-1.125152349,2024-06-05 19:44:49.517720
41.55818874,-0.2058562785,-2.664280891,-1.225018024,2024-06-05 19:44:49.558189
41.5986738,-1.472151995,-5.523233414,-0.8861407042,2024-06-05 19:44:49.598674
41.63914124,-0.3873453438,-2.715678453,-0.7399374843,2024-06-05 19:44:49.639141
41.67968588,-1.542191148,-0.4685693681,-0.06684337556,2024-06-05 19:44:49.679686
41.72009432,-2.380795717,0.4452674091,-0.386546433,2024-06-05 19:44:49.720094
41.76057525,-1.736995578,-0.01531272475,0.2231663167,2024-06-05 19:44:49.760575
41.80105619,-0.5860112906,-0.7493914366,0.2276935577,2024-06-05 19:44:49.801056
41.84151692,-0.3046566546,0.4109136462,0.2797568142,2024-06-05 19:44:49.841517
41.882014,-0.08095771074,0.2125139832,0.7993242145,2024-06-05 19:44:49.882014
41.92253025,0.5300865769,-0.2110492885,0.4038564563,2024-06-05 19:44:49.922530
41.96301687,-0.1062569916,-0.9664326906,0.2330197245,2024-06-05 19:44:49.963017
42.00348489,-0.2956021726,-0.7760222554,-0.2252967805,2024-06-05 19:44:50.003485
42.04394578,0.7410027385,1.976406693,-0.06098458916,2024-06-05 19:44:50.043946
42.08443562,-0.2575200796,-0.02117150649,0.3649754524,2024-06-05 19:44:50.084436
42.12491619,-0.4816184938,-1.147788525,0.14993155,2024-06-05 19:44:50.124916
42.16540067,0.05033225939,0.517170608,0.04740286991,2024-06-05 19:44:50.165401
42.20588984,0.0458050184,1.155644655,0.09107742459,2024-06-05 19:44:50.205890
42.24638093,-0.03142437339,-0.2528596818,0.09826774895,2024-06-05 19:44:50.246381
42.28685734,-0.1672415882,-1.21316731,0.1355509013,2024-06-05 19:44:50.286857
42.3273014,-0.3334179223,0.48468104,0.2420742065,2024-06-05 19:44:50.327301
42.3677751,-0.3515268862,0.7039858699,0.2383458912,2024-06-05 19:44:50.367775
42.40829953,-0.1536598653,-0.01424749196,0.3953346014,2024-06-05 19:44:50.408300
42.44877156,0.4922707975,-0.02037258074,0.480286926,2024-06-05 19:44:50.448772
42.48926604,1.445121765,0.09507204592,0.3114475012,2024-06-05 19:44:50.489266
42.52976775,1.691989541,1.372552752,-0.05485950038,2024-06-05 19:44:50.529768
42.57019786,0.9765523672,2.690778732,0.2496639937,2024-06-05 19:44:50.570198
42.61067859,0.1930734813,3.082651138,0.6762897968,2024-06-05 19:44:50.610679
42.65115937,-0.06151720881,0.7553833723,0.1752308309,2024-06-05 19:44:50.651159
42.69163729,-0.07829462737,-1.561232209,-0.2537917793,2024-06-05 19:44:50.691637
42.73214156,0.05512581021,-2.163222075,-0.4105141759,2024-06-05 19:44:50.732142
42.77266286,0.39746508,-2.107297182,-0.625158608,2024-06-05 19:44:50.772663
42.81315765,0.360714525,-1.761229634,-0.380687654,2024-06-05 19:44:50.813158
42.85363838,-0.8653686643,-2.936181784,-0.1161103994,2024-06-05 19:44:50.853638
42.89408729,-0.4651073813,0.2942706347,0.1643121988,2024-06-05 19:44:50.894087
42.93453801,-0.2513949871,1.571218729,0.231421873,2024-06-05 19:44:50.934538
42.97503145,-0.05246272683,-0.8282186985,-0.1081211492,2024-06-05 19:44:50.975031
43.01550171,0.03834838793,-1.273619175,-0.2103835195,2024-06-05 19:44:51.015502
43.0559915,0.01438064594,-0.1340862066,-0.009054481052,2024-06-05 19:44:51.055991
43.09648218,-0.02130465955,0.1528609395,0.01384802908,2024-06-05 19:44:51.096482
43.13692374,-0.003994623665,0.2306229472,0.0330222249,2024-06-05 19:44:51.136924
43.17742791,-0.1073222235,0.2197043151,0.05326165259,2024-06-05 19:44:51.177428
43.21792265,-0.05352795869,0.1267627329,0.06950645149,2024-06-05 19:44:51.217923
43.25839213,-0.02157096937,-0.0957378149,0.008788172156,2024-06-05 19:44:51.258392
43.29886645,0.03941362351,-0.1559234858,-0.05858781561,2024-06-05 19:44:51.298866
43.33928291,-0.02236989327,0.6523220539,0.0487344116,2024-06-05 19:44:51.339283
43.37981666,-0.2726996541,1.077616334,0.1278279573,2024-06-05 19:44:51.379817
43.42028557,-0.3571193814,1.027550459,0.04314193875,2024-06-05 19:44:51.420286
43.46074744,-0.1762960702,1.082409859,0.1233007237,2024-06-05 19:44:51.460747
43.50122874,0.1962691844,1.452977896,0.3242303133,2024-06-05 19:44:51.501229
43.54171005,0.5745600462,2.160425663,0.2528596818,2024-06-05 19:44:51.541710
43.58222041,0.4115794003,2.516080379,-0.2234326303,2024-06-05 19:44:51.582220
43.62270848,1.276149154,1.212634683,0.1999974996,2024-06-05 19:44:51.622708
43.66319078,1.698380947,-2.467745543,0.9424648881,2024-06-05 19:44:51.663191
43.70366791,-0.04687025398,-1.153647423,0.4651073813,2024-06-05 19:44:51.703668
43.74416098,-3.487572908,2.744306564,1.003449559,2024-06-05 19:44:51.744161
43.7847113,3.885304213,-3.521660328,-0.8669665456,2024-06-05 19:44:51.784711
43.82511046,-1.409303308,-0.9299484491,-0.4214328229,2024-06-05 19:44:51.825110
43.86561671,-0.1888125539,2.505161762,0.1478010863,2024-06-05 19:44:51.865617
43.90608411,0.5591141582,1.818619132,0.7604432106,2024-06-05 19:44:51.906084
43.94656182,0.4493951797,2.928591967,2.164553404,2024-06-05 19:44:51.946562
43.98704041,-0.2636451721,3.881975412,0.9033176303,2024-06-05 19:44:51.987040
44.02752416,0.02902759984,2.568010569,0.394269377,2024-06-05 19:44:52.027524
44.06802551,0.2252967805,2.032065153,0.5987941027,2024-06-05 19:44:52.068026
44.10843984,-1.237534523,-0.7600437403,1.05697751,2024-06-05 19:44:52.108440
44.14897416,-2.85202837,-5.875558853,0.5231625438,2024-06-05 19:44:52.148974
44.18951817,-3.937367678,6.740661621,-0.08015878499,2024-06-05 19:44:52.189518
44.22997208,1.896514297,-1.518622875,0.6113106012,2024-06-05 19:44:52.229972
44.27035739,4.2978158,-5.504858017,-1.002384305,2024-06-05 19:44:52.270357
44.3108376,2.873865604,-1.636597395,-0.7061163187,2024-06-05 19:44:52.310838
44.35133744,0.2549901605,0.6909367442,3.828181267,2024-06-05 19:44:52.351337
44.39188926,4.452008247,-1.078015804,3.253621101,2024-06-05 19:44:52.391889
44.43233916,5.309254646,-4.077312469,-1.019960642,2024-06-05 19:44:52.432339
44.47281119,6.300853252,-5.221639156,-0.2940043211,2024-06-05 19:44:52.472811
44.51330218,2.319278717,-1.23100996,-0.3214340508,2024-06-05 19:44:52.513302
44.55379999,-2.59410882,5.298469067,-0.5082492828,2024-06-05 19:44:52.553800
44.5942952,-4.3044734,3.748022318,-1.726076961,2024-06-05 19:44:52.594295
44.63476187,-3.611140013,-0.3809539676,-4.81565237,2024-06-05 19:44:52.634762
44.67522265,-4.597412586,-1.571351886,-4.258668423,2024-06-05 19:44:52.675223
44.71572682,-4.703003883,-3.337907791,-2.540314436,2024-06-05 19:44:52.715727
44.75618656,-3.598357201,-4.382102489,-1.79505074,2024-06-05 19:44:52.756187
44.7967114,-2.033929348,-2.331794977,-0.7428668737,2024-06-05 19:44:52.796711
44.83714447,-2.458557844,3.358280182,-0.2820204496,2024-06-05 19:44:52.837144
44.87762598,-4.599543095,2.885982513,1.119826198,2024-06-05 19:44:52.877626
44.91810447,-2.209027052,0.2601831555,1.536998153,2024-06-05 19:44:52.918104
44.95858843,-1.580273151,0.6427350044,0.7588453889,2024-06-05 19:44:52.958588
44.99906213,-0.7540518045,0.3390104175,-0.680018127,2024-06-05 19:44:52.999062
45.03959999,-0.1304910481,-0.2147776037,-0.2199706137,2024-06-05 19:44:53.039600
45.0800563,0.02263620123,-0.01877473295,0.09134373069,2024-06-05 19:44:53.080056
45.12053775,0.0926752761,0.4423380196,0.4382102489,2024-06-05 19:44:53.120538
45.16101916,0.710909903,0.2833519876,0.4360797703,2024-06-05 19:44:53.161019
45.20144083,1.7393924,0.3014609516,0.9272853732,2024-06-05 19:44:53.201441
45.2419389,2.155232668,0.5485950112,1.335802197,2024-06-05 19:44:53.241939
45.28245885,1.885062933,0.2111824453,1.366161346,2024-06-05 19:44:53.282459
45.32290989,2.349371433,0.1131810099,1.013569236,2024-06-05 19:44:53.322910
45.36337109,2.51235199,0.4015928507,0.597196281,2024-06-05 19:44:53.363371
45.40389176,2.115020275,-0.8697627783,1.051651359,2024-06-05 19:44:53.403892
45.44436723,2.268147469,-1.28586936,0.9690957665,2024-06-05 19:44:53.444367
45.48483994,1.668021798,-0.8790835738,0.6792191863,2024-06-05 19:44:53.484840
45.52532484,1.027150989,-0.359382987,0.7399374843,2024-06-05 19:44:53.525325
45.56582994,0.5857450366,-0.8348763585,0.4091826379,2024-06-05 19:44:53.565830
45.60632234,-0.1981333494,-1.06656456,0.07536523789,2024-06-05 19:44:53.606322
45.64681296,0.002663082443,-1.692788482,-0.3049229383,2024-06-05 19:44:53.646813
45.6872765,0.990933001,-1.757767677,0.2010627389,2024-06-05 19:44:53.687277
45.72774124,0.9099752903,-1.084939837,0.6291532516,2024-06-05 19:44:53.727741
45.76822989,-0.001065233024,-0.7480598688,0.6099790335,2024-06-05 19:44:53.768230
45.8087202,-0.9758865833,-1.780137539,-0.4845478833,2024-06-05 19:44:53.808720
45.84916619,0.3058550358,1.932998419,-1.24392581,2024-06-05 19:44:53.849166
45.88964557,0.01704372838,0.5382089615,0.1981333494,2024-06-05 19:44:53.889646
45.93012291,-1.475081444,-0.6737598777,0.1901440918,2024-06-05 19:44:53.930123
45.97060437,-1.553109765,-2.725531816,-0.02503297664,2024-06-05 19:44:53.970604
46.01108578,-1.74977839,-4.058937073,0.2603163123,2024-06-05 19:44:54.011086
46.05156723,-1.075885296,0.9290163517,0.6933335662,2024-06-05 19:44:54.051567
46.09202614,-1.1155653,3.867594719,0.8641703129,2024-06-05 19:44:54.092026
46.13254989,-1.463630199,0.5097140074,0.4400743842,2024-06-05 19:44:54.132550
46.1730314,-1.298785329,-0.7698971629,-0.2298240215,2024-06-05 19:44:54.173031
46.21352796,-1.763360143,0.01478010789,-0.3608476818,2024-06-05 19:44:54.213528
46.25400666,-0.4826837182,-0.3479317427,-0.5034557581,2024-06-05 19:44:54.254007
46.29449234,-0.6208977103,0.771628201,-0.05592473224,2024-06-05 19:44:54.294492
46.33491937,0.2336854935,1.703041315,0.3732310236,2024-06-05 19:44:54.334919
46.37543953,0.09054480493,-0.2659088075,0.2456693649,2024-06-05 19:44:54.375440
46.41592223,0.8625724316,-0.5465977192,0.08495233208,2024-06-05 19:44:54.415922
46.45641494,2.378399134,0.2439383566,0.4576507509,2024-06-05 19:44:54.456415
46.49689708,3.248561144,-0.04886756465,0.7188991308,2024-06-05 19:44:54.496897
46.5373802,1.808632493,0.8499227762,-0.1645784974,2024-06-05 19:44:54.537380
46.57783906,1.750311017,3.210745573,-0.05459319428,2024-06-05 19:44:54.577839
46.61831255,0.9161003828,0.9234238863,0.899056673,2024-06-05 19:44:54.618313
46.6588076,-0.4206338823,-1.541791677,1.251648784,2024-06-05 19:44:54.658808
46.69932775,-0.4438027143,-1.882799387,1.133674264,2024-06-05 19:44:54.699328
46.73982765,0.04021254554,-2.823533297,0.3047898114,2024-06-05 19:44:54.739828
46.78023635,0.2318213433,-1.425681233,-0.5985277891,2024-06-05 19:44:54.780236
46.82068067,0.3945356905,-1.389995933,-1.26176846,2024-06-05 19:44:54.820681
46.86116166,2.030467272,-5.77809,-0.9588428736,2024-06-05 19:44:54.861162
46.90164275,0.7362091541,-1.257108092,0.7260894775,2024-06-05 19:44:54.901643
46.94218687,-0.9700278044,1.482804418,1.011438727,2024-06-05 19:44:54.942187
46.98268458,-1.084140897,-1.556438565,-0.2788247466,2024-06-05 19:44:54.982685
47.02316562,0.7641715407,-1.696516752,-0.4571181238,2024-06-05 19:44:55.023166
47.0636363,0.9690957665,-1.243260145,0.2316881865,2024-06-05 19:44:55.063636
47.1041013,0.3423392773,-3.118203402,0.1350182891,2024-06-05 19:44:55.104101
47.14457828,-1.124886036,-3.397028208,0.1022623703,2024-06-05 19:44:55.144578
47.18507041,-1.655771613,-1.436599851,0.8296833634,2024-06-05 19:44:55.185070
47.22555442,-1.548848867,-0.5316844583,0.5359453559,2024-06-05 19:44:55.225554
47.2660251,-0.1661763489,-3.312075853,-0.5354127288,2024-06-05 19:44:55.266025
47.30650874,-1.142462373,-1.097988963,-0.04047885537,2024-06-05 19:44:55.306509
47.34695051,-1.001585364,1.741389632,0.3199693561,2024-06-05 19:44:55.346951
47.38748364,-0.3411408663,-0.2296908647,-0.2239652425,2024-06-05 19:44:55.387484
47.42792525,-0.392937839,-1.435002089,-0.4962654412,2024-06-05 19:44:55.427925
47.46841583,0.2752295732,0.7370080948,-0.1299584359,2024-06-05 19:44:55.468416
47.5088988,0.826753974,-2.03885603,0.0713706091,2024-06-05 19:44:55.508899
47.54947051,2.09824276,-0.5676360726,0.5026568174,2024-06-05 19:44:55.549471
47.58988067,2.720472097,-0.3287575543,0.7388722301,2024-06-05 19:44:55.589881
47.63032041,2.076671839,1.508103609,-0.2916075289,2024-06-05 19:44:55.630320
47.67080104,2.317680836,1.99771142,0.04340824485,2024-06-05 19:44:55.670801
47.7112502,1.116630554,-0.4350145459,0.5015916228,2024-06-05 19:44:55.711250
47.75173083,0.2975994647,-2.337920189,0.6738930345,2024-06-05 19:44:55.751731
47.79226359,-0.08388710022,-1.864157796,1.187202215,2024-06-05 19:44:55.792264
47.83273994,-0.1757634431,-2.177336216,0.8809477091,2024-06-05 19:44:55.832740
47.87322062,0.2922733128,-1.656836867,0.01651111245,2024-06-05 19:44:55.873221
47.9137064,0.4038564563,-1.322353601,-0.4230306745,2024-06-05 19:44:55.913706
47.95421906,1.054048061,-2.443511486,-0.7910686731,2024-06-05 19:44:55.954219
47.99471078,1.662695646,-3.794493198,-0.1150451675,2024-06-05 19:44:55.994711
48.03515734,-0.4501941204,0.4183702767,0.6147726178,2024-06-05 19:44:56.035157
48.07564624,-1.234871387,0.6330147386,0.6001256704,2024-06-05 19:44:56.075646
48.11612697,-0.9047822952,-1.707435369,-0.6802844405,2024-06-05 19:44:56.116127
48.15658364,0.5569837093,0.08868064731,-0.8033188581,2024-06-05 19:44:56.156584
48.19707666,0.631550014,-0.4083836973,-0.09613727778,2024-06-05 19:44:56.197077
48.23759322,0.2555227578,-2.199706078,0.4115794003,2024-06-05 19:44:56.237593
48.27805963,-1.936993122,-1.59691751,0.4496614933,2024-06-05 19:44:56.278060
48.31851109,-1.907432914,0.6055849791,0.8908011317,2024-06-05 19:44:56.318511
48.35899192,-0.3830844164,2.315683365,0.1057243794,2024-06-05 19:44:56.358992
48.39955328,-0.4858794212,0.4913387299,-0.2053236663,2024-06-05 19:44:56.399553
48.43999281,-0.6177020073,0.5238283277,-0.240476355,2024-06-05 19:44:56.439993
48.4804115,0.05912043154,1.937525749,-0.1073222235,2024-06-05 19:44:56.480412
48.52089234,0.05645735189,1.779205441,-0.2569874525,2024-06-05 19:44:56.520892
48.56142213,0.5508586168,2.295710325,-0.5436683297,2024-06-05 19:44:56.561422
48.60192911,0.2031932026,2.855090857,-0.8065145612,2024-06-05 19:44:56.601929
48.6423964,-0.0074566314,3.218202114,-0.9007876515,2024-06-05 19:44:56.642396
48.68285692,0.3213009238,2.701431036,-1.16003871,2024-06-05 19:44:56.682857
48.72334426,0.649658978,0.577888906,-2.026738882,2024-06-05 19:44:56.723344
48.76381687,-0.1592523307,2.872667074,-1.149386406,2024-06-05 19:44:56.763817
48.80430171,-1.705837488,5.040150166,-0.9109073877,2024-06-05 19:44:56.804302
48.84476583,-2.166284561,3.976514816,0.2370143533,2024-06-05 19:44:56.844766
48.88525046,-1.990787387,1.569088221,0.1078548431,2024-06-05 19:44:56.885250
48.92574406,-2.242581844,0.8184984326,-0.4999937415,2024-06-05 19:44:56.925744
48.96623307,-2.45749259,0.2026605755,-0.01651111245,2024-06-05 19:44:56.966233
49.00670723,-2.155898571,-1.215830326,0.3649754524,2024-06-05 19:44:57.006707
49.04718656,-1.70450604,-1.28959775,0.3623123765,2024-06-05 19:44:57.047187
49.08766765,-1.529940963,0.7359428406,0.9083774686,2024-06-05 19:44:57.087668
49.12815624,-1.992917776,3.251490593,1.356574297,2024-06-05 19:44:57.128156
49.16860728,-0.7330134511,3.575587749,0.6595124006,2024-06-05 19:44:57.168607
49.20909338,-0.5308855176,-0.4339492917,0.2063889056,2024-06-05 19:44:57.209093
49.24957796,0.680018127,1.922346115,0.0458050184,2024-06-05 19:44:57.249578
49.29007926,0.2039921284,1.679073572,-0.2071878165,2024-06-05 19:44:57.290079
49.33053921,0.1006645188,0.2154433727,0.4046553969,2024-06-05 19:44:57.330539
49.37100833,-0.0868164897,1.01716435,0.6299521923,2024-06-05 19:44:57.371008
49.41146557,0.3905410469,1.805037379,0.2619141638,2024-06-05 19:44:57.411466
49.45199067,0.2355496585,0.2247641683,0.1131810099,2024-06-05 19:44:57.451991
49.4924964,0.2274272442,-1.919549942,-0.06977276504,2024-06-05 19:44:57.492496
49.53298119,-0.07802832127,-1.74019134,-0.2769605815,2024-06-05 19:44:57.532981
49.57345676,-0.08521863818,0.03675054014,-0.6784203053,2024-06-05 19:44:57.573457
49.61393999,0.9427312016,0.2593842447,-0.09240896255,2024-06-05 19:44:57.613940
49.65441801,0.8089113235,-1.208639979,0.3372794092,2024-06-05 19:44:57.654418
49.69490255,0.00186415785,-1.815955997,0.2440715134,2024-06-05 19:44:57.694903
49.73536926,0.345801264,0.08282186836,-0.08495233208,2024-06-05 19:44:57.735369
49.77587135,0.9637695551,0.2015953511,-0.1062569916,2024-06-05 19:44:57.775871
49.81633223,0.8169005513,0.8698959351,0.4754934013,2024-06-05 19:44:57.816332
49.85679604,0.7529866099,0.6029219031,0.2079867423,2024-06-05 19:44:57.856796
49.89726604,0.4427374899,0.9950608015,-0.2599168718,2024-06-05 19:44:57.897266
49.93776208,0.2501966059,0.9894683361,-0.3560541272,2024-06-05 19:44:57.937762
49.97826249,0.07376738638,0.6063839197,-0.2487319112,2024-06-05 19:44:57.978262
50.01878124,0.2672403455,0.7127740383,-0.7441984415,2024-06-05 19:44:58.018781
50.05927541,0.06418029219,-0.05792204663,-0.8965267539,2024-06-05 19:44:58.059275
50.0997551,0.5426030755,-0.05632419512,-1.148321152,2024-06-05 19:44:58.099755
50.14015208,1.002650619,-1.773746133,-1.333938003,2024-06-05 19:44:58.140152
50.18063447,0.6485937834,-3.478252172,-0.4477973282,2024-06-05 19:44:58.180634
50.22111682,-0.9914656281,-0.590139091,0.7838783264,2024-06-05 19:44:58.221117
50.26162374,-0.6714962721,-0.3886769116,0.9461932182,2024-06-05 19:44:58.261624
50.30210739,-0.8573794365,-1.538329601,-0.2039921284,2024-06-05 19:44:58.302107
50.34252078,-1.009042025,-1.268293023,-0.8126396537,2024-06-05 19:44:58.342521
50.3831065,-1.0109061,-1.639260411,-0.2183727771,2024-06-05 19:44:58.383106
50.42361156,-0.8350095153,-0.02942706272,0.4999937415,2024-06-05 19:44:58.423612
50.464019,-0.6099790335,0.8728253245,0.8740236759,2024-06-05 19:44:58.464019
50.50452244,-0.4323514402,0.98307693,0.3732310236,2024-06-05 19:44:58.504522
50.54500682,-0.1552577168,0.2367480397,-0.195203945,2024-06-05 19:44:58.545007
50.58549333,-0.05698996782,-0.5601794124,-0.0817566365,2024-06-05 19:44:58.585493
50.62601156,-0.5162385702,0.03808208182,0.3609808385,2024-06-05 19:44:58.626012
50.66644296,-0.03115806542,1.643654585,0.5556522012,2024-06-05 19:44:58.666443
50.7069301,0.3279586136,3.533244848,0.4944012761,2024-06-05 19:44:58.706930
50.74737895,-0.2545906901,1.770151019,0.1629806459,2024-06-05 19:44:58.747379
50.78789682,-0.2924064696,-0.4376776218,0.04314193875,2024-06-05 19:44:58.787897
50.82840104,0.02742975019,-0.6769555807,-0.09187635034,2024-06-05 19:44:58.828401
50.86888249,-0.09134373069,0.1659100503,0.1307573467,2024-06-05 19:44:58.868882
50.90928885,-0.3035914004,0.4942681193,0.3796224296,2024-06-05 19:44:58.909289
50.94981145,-0.5492607951,-0.1772281379,0.4379439354,2024-06-05 19:44:58.949811
50.99025171,0.1752308309,0.1158440933,0.4424711764,2024-06-05 19:44:58.990252
51.03073312,1.472551465,-0.4808195531,0.1336867511,2024-06-05 19:44:59.030733
51.07124317,2.246310234,1.09812212,-0.1275616586,2024-06-05 19:44:59.071243
51.11176567,2.238054514,2.756290436,-0.1017297506,2024-06-05 19:44:59.111766
51.15219551,1.51675868,1.952438951,0.2541912198,2024-06-05 19:44:59.152196
51.19268156,0.03861469775,0.2069215178,0.3567199111,2024-06-05 19:44:59.192682
51.23321499,-0.5620435476,-1.116364241,-0.1113168523,2024-06-05 19:44:59.233215
51.27366473,-0.4485962689,-1.303179502,0.01731003635,2024-06-05 19:44:59.273665
51.31410796,-0.7966611385,-3.039642334,-0.7157034278,2024-06-05 19:44:59.314108
51.35455791,0.5087819099,-4.201678276,-1.110239148,2024-06-05 19:44:59.354558
51.39507229,-0.3786903322,0.4639089704,0.4786891043,2024-06-05 19:44:59.395072
51.43563432,-1.495054603,2.653761864,1.674413204,2024-06-05 19:44:59.435634
51.47606093,-0.9396686554,1.625545621,0.2151770741,2024-06-05 19:44:59.476061
51.5165415,-0.2274272442,-1.442991257,-0.4603138268,2024-06-05 19:44:59.516542
51.5570189,-0.3320863843,-1.876141667,-0.6424686909,2024-06-05 19:44:59.557019
51.59750775,-0.6706973314,0.1848179251,-0.1294258088,2024-06-05 19:44:59.597508
51.63803942,-1.256442308,0.9641690254,-0.05246272683,2024-06-05 19:44:59.638039
51.67844734,-0.8432651162,1.654040575,0.0817566365,2024-06-05 19:44:59.678447
51.71892229,-0.02130465955,-0.5726959109,-0.3054555655,2024-06-05 19:44:59.718922
51.75946411,0.5308855176,-1.670951128,-0.738073349,2024-06-05 19:44:59.759464
51.79992171,0.09746882319,1.245390534,-0.6941324472,2024-06-05 19:44:59.799922
51.84034281,-0.8038514853,1.072822809,0.004260932095,2024-06-05 19:44:59.840343
51.88082447,-0.2577863932,0.2740311921,-0.3190372884,2024-06-05 19:44:59.880824
51.921334,-0.2599168718,0.9457937479,-0.4632432163,2024-06-05 19:44:59.921334
51.96182796,-0.2961347699,-0.3993292153,-0.258585304,2024-06-05 19:44:59.961828
52.00232275,0.2816209793,-1.009574652,-0.6786866188,2024-06-05 19:45:00.002323
52.04278025,-0.1371487528,0.4338161349,-0.2820204496,2024-06-05 19:45:00.042780
52.08325973,-0.6901378632,0.5115781426,-0.06125089899,2024-06-05 19:45:00.083260
52.12373239,-0.4352808297,-0.03288906813,-0.05059856921,2024-06-05 19:45:00.123732
52.16423557,-0.01571218669,0.02223674022,-0.1464695334,2024-06-05 19:45:00.164236
52.20472755,-0.1999974996,-0.2781589627,-0.1438064575,2024-06-05 19:45:00.204728
52.24521166,-0.1568555683,-0.1026618332,-0.05379426852,2024-06-05 19:45:00.245212
52.28568416,0.002130466048,0.2649767101,0.1081211492,2024-06-05 19:45:00.285684
52.326124,-0.1824211627,0.2450035959,0.2794905007,2024-06-05 19:45:00.326124
52.36659036,0.009320789017,0.1097190008,0.2906754613,2024-06-05 19:45:00.366590
52.40710885,-0.05033225939,0.1209039465,0.4339492917,2024-06-05 19:45:00.407109
52.44762989,-0.665104866,-0.3135779798,0.5279561281,2024-06-05 19:45:00.447630
52.48809343,-0.354189992,0.1605838835,0.2258294076,2024-06-05 19:45:00.488093
52.52855567,-0.5284887552,0.3936035931,0.2250304818,2024-06-05 19:45:00.528556
52.56905374,-0.233286038,-0.07390054315,0.6754909158,2024-06-05 19:45:00.569054
52.60953478,0.008788172156,-0.6311505437,0.6997249722,2024-06-05 19:45:00.609535
52.64999749,-0.1033276021,-0.2941374779,0.4597811997,2024-06-05 19:45:00.649997
52.69050385,0.02929390781,-0.8250229955,0.2848166823,2024-06-05 19:45:00.690504
52.73097359,0.1922745556,-0.4648410678,0.1797580719,2024-06-05 19:45:00.730974
52.77146604,0.1704372764,0.781481564,0.2109161317,2024-06-05 19:45:00.771466
52.8119289,-0.409715265,0.6053186655,0.5292876363,2024-06-05 19:45:00.811929
52.85237078,0.08335448056,-0.1194392517,0.1129147038,2024-06-05 19:45:00.852371
52.8929038,-0.1256974936,-0.2286256403,0.02130465955,2024-06-05 19:45:00.892904
52.93345551,-0.05033225939,0.5757584572,0.2531259954,2024-06-05 19:45:00.933456
52.97390348,0.09001219273,-0.7451304793,0.1027949899,2024-06-05 19:45:00.973903
53.01429343,-0.4003944695,-0.4797543287,0.1629806459,2024-06-05 19:45:01.014293
53.05477223,-0.4805532396,-0.08508548886,0.1579207927,2024-06-05 19:45:01.054772
53.09527098,-0.316107899,-0.2712349594,-0.2101172209,2024-06-05 19:45:01.095271
53.13575208,-0.4195686579,0.1019960642,-0.07509893179,2024-06-05 19:45:01.135752
53.17627166,-0.3613803089,0.3757609427,0.03089175746,2024-06-05 19:45:01.176272
53.21673301,0.2555227578,0.6390066743,-0.1488663107,2024-06-05 19:45:01.216733
53.25725296,1.508236766,2.230198383,0.2039921284,2024-06-05 19:45:01.257253
53.29770557,1.934329987,2.079201698,0.168040514,2024-06-05 19:45:01.297706
53.33822494,1.028216124,1.645784974,-0.9749545455,2024-06-05 19:45:01.338225
53.37866588,2.049108982,2.536053419,-1.445521235,2024-06-05 19:45:01.378666
53.41917083,2.553097248,0.7567148805,-1.321421623,2024-06-05 19:45:01.419171
53.45973062,1.471220016,0.3065207899,-1.248719454,2024-06-05 19:45:01.459731
53.50012682,0.6414034367,0.5563179255,-0.7798837423,2024-06-05 19:45:01.500127
53.54063426,-0.2202369273,-0.9549813867,0.02822867595,2024-06-05 19:45:01.540634
53.58107322,-0.09214265645,-2.393844843,0.2290250957,2024-06-05 19:45:01.581073
53.62157676,1.120358825,-1.92381084,0.1003982127,2024-06-05 19:45:01.621577
53.66202583,0.5404726267,-0.02010627277,0.2335523367,2024-06-05 19:45:01.662026
53.70253541,1.067363501,1.471353173,0.1866820902,2024-06-05 19:45:01.702535
53.74301583,0.4089163244,-0.9624380469,0.695464015,2024-06-05 19:45:01.743016
53.78353301,3.296097279,-3.421262264,1.053515434,2024-06-05 19:45:01.783533
53.82402421,1.363232017,0.532083869,-0.6592460871,2024-06-05 19:45:01.824024
53.86449583,1.280410051,2.852960348,-0.01331541315,2024-06-05 19:45:01.864496
53.90489411,-0.1946713328,2.14018631,0.8567136526,2024-06-05 19:45:01.904894
53.9453802,2.21115756,-1.3913275,0.9115731716,2024-06-05 19:45:01.945380
53.98587697,1.524215341,-0.6226286888,-0.4054543078,2024-06-05 19:45:01.985877
54.0263802,1.251915097,-0.9445953965,-0.1954702586,2024-06-05 19:45:02.026380
54.06685015,0.3809539676,-0.7925333977,-0.157654494,2024-06-05 19:45:02.066850
54.10733588,-0.2013290375,-1.356174827,-0.258585304,2024-06-05 19:45:02.107336
54.14781645,-1.345123053,-2.790777445,-0.6310173869,2024-06-05 19:45:02.147816
54.18830786,-2.189453363,-4.602871895,-0.2990641594,2024-06-05 19:45:02.188308
54.2287888,-1.668288112,-4.958526611,-0.8283518553,2024-06-05 19:45:02.228789
54.26925525,1.440994024,-5.186220169,-0.3544562757,2024-06-05 19:45:02.269255
54.30973984,6.323090076,-3.852548361,-0.4459331632,2024-06-05 19:45:02.309740
54.35024176,2.895170212,0.9423317909,1.755104542,2024-06-05 19:45:02.350242
54.39071494,1.877872705,-0.7014559507,4.0269804,2024-06-05 19:45:02.390715
54.4311988,1.727142215,0.3941362202,-0.3110480309,2024-06-05 19:45:02.431199
54.47170442,-0.8083786964,-6.29299736,0.904915452,2024-06-05 19:45:02.471704
54.51215723,-1.455640912,-9.217727661,1.152848482,2024-06-05 19:45:02.512157
54.55263854,1.103315115,-7.044119835,0.1715025157,2024-06-05 19:45:02.552639
54.59312078,0.7316819429,-3.774520159,0.2709686458,2024-06-05 19:45:02.593121
54.63364364,0.1363498271,-3.300624609,0.9214265943,2024-06-05 19:45:02.633644
54.67410156,0.1581871063,-4.610861301,0.3500621915,2024-06-05 19:45:02.674102
54.71453953,-0.2138455361,-4.196352482,-0.07909355313,2024-06-05 19:45:02.714540
54.7550389,-0.5420704484,-1.295190215,-0.1531272531,2024-06-05 19:45:02.755039
54.79551452,0.2029268891,2.426201344,-0.8126396537,2024-06-05 19:45:02.795515
54.83605119,4.84148407,1.347519755,-1.46442914,2024-06-05 19:45:02.836051
54.8765027,9.784697533,-6.431477547,-3.914731264,2024-06-05 19:45:02.876503
54.91696171,2.967606068,4.861590385,-1.20238173,2024-06-05 19:45:02.916962
54.95743213,2.672270298,-2.66268301,0.4930697381,2024-06-05 19:45:02.957432
54.99791541,2.377866507,-2.881588459,-0.5575163364,2024-06-05 19:45:02.997915
55.0384102,0.8171668649,-1.563628912,-0.677355051,2024-06-05 19:45:03.038410
55.07889333,-0.7300840616,-4.80526638,0.8545832038,2024-06-05 19:45:03.078893
55.11937911,8.63717556,-2.057231188,0.2680392563,2024-06-05 19:45:03.119379
55.15984937,0.1182408631,4.774774075,2.04298377,2024-06-05 19:45:03.159849
55.20032676,-7.514153957,9.209073067,1.246855259,2024-06-05 19:45:03.200327
55.24081411,-1.922612429,4.214860916,3.404484749,2024-06-05 19:45:03.240814
55.28130031,-1.045259953,5.256925106,0.2675066292,2024-06-05 19:45:03.281300
55.32177984,-0.5684349537,5.175967216,0.3410077095,2024-06-05 19:45:03.321780
55.36224416,0.09054480493,4.550009727,-1.305176735,2024-06-05 19:45:03.362244
55.40272895,-0.7364754677,2.29757452,-1.541392207,2024-06-05 19:45:03.402729
55.44320005,-0.292140156,0.8211615086,-0.506118834,2024-06-05 19:45:03.443200
55.48371598,0.2616478503,1.032876611,0.4549876451,2024-06-05 19:45:03.483716
55.52420494,1.159772396,1.165764332,0.2997299433,2024-06-05 19:45:03.524205
55.56467958,1.911960125,1.925009251,-0.4368786812,2024-06-05 19:45:03.564680
55.60517265,2.126471519,4.165860176,-1.023688912,2024-06-05 19:45:03.605173
55.64566557,1.6555053,5.488879681,-0.7306166887,2024-06-05 19:45:03.645666
55.68608197,0.162181735,3.836436749,0.3535242081,2024-06-05 19:45:03.686082
55.72657067,0.8820129633,7.933855534,0.475759685,2024-06-05 19:45:03.726571
55.76710791,0.2485987544,-0.4896077216,-0.5985277891,2024-06-05 19:45:03.767108
55.80755869,0.6416697502,1.63886106,-0.8539174199,2024-06-05 19:45:03.807559
55.84797041,0.5934679508,1.433004737,-1.032210827,2024-06-05 19:45:03.847970
55.88850734,0.5710980296,2.060560226,-0.8557815552,2024-06-05 19:45:03.888507
55.9289952,0.6981270909,1.989455819,-0.5932016373,2024-06-05 19:45:03.928995
55.96946817,0.07190322876,0.6157047153,-0.2221010923,2024-06-05 19:45:03.969468
56.00997202,0.6027887464,-0.06804175675,-0.6123758554,2024-06-05 19:45:04.009972
56.0505127,0.2808220685,-0.6660369635,-0.7101109624,2024-06-05 19:45:04.050513
56.09090822,0.8372731805,0.4271584451,-0.9031844735,2024-06-05 19:45:04.090908
56.13139947,0.6810833812,1.25883913,-0.8922657967,2024-06-05 19:45:04.131399
56.17189359,0.4113130867,1.833798647,-0.9109073877,2024-06-05 19:45:04.171894
56.21234937,-0.3786903322,1.91462326,-1.041797876,2024-06-05 19:45:04.212349
56.25283656,-1.301714778,1.889057636,-1.349916577,2024-06-05 19:45:04.252837
56.29337135,-1.639260411,3.532978535,-0.9191629291,2024-06-05 19:45:04.293371
56.33386697,-0.3488638103,4.124848366,-0.1392792165,2024-06-05 19:45:04.333867
56.37425749,-0.5479292274,0.46018067,0.5892069936,2024-06-05 19:45:04.374257
56.41475104,-0.5058525205,0.5075835586,0.1600512564,2024-06-05 19:45:04.414751
56.45520176,-1.193593621,1.924476624,-0.5785546899,2024-06-05 19:45:04.455202
56.49572317,-0.4930697381,2.36281991,-0.4171718955,2024-06-05 19:45:04.495723
56.53622531,-0.6139736772,1.200650811,-0.02956021577,2024-06-05 19:45:04.536225
56.57668161,-0.6155715585,1.370954871,-0.004527240526,2024-06-05 19:45:04.576682
56.61713755,0.5607120395,2.212888479,0.4765586257,2024-06-05 19:45:04.617138
56.65766598,2.105699301,1.960161924,1.062836289,2024-06-05 19:45:04.657666
56.69815395,2.892507076,1.008376241,1.407172799,2024-06-05 19:45:04.698154
56.73862437,2.416747332,-1.735131383,1.006911516,2024-06-05 19:45:04.738624
56.77915046,1.941786647,1.529408336,-1.139000416,2024-06-05 19:45:04.779150
56.81958114,1.826741457,1.409835935,-0.1256974936,2024-06-05 19:45:04.819581
56.86004499,0.4275579154,0.1054580659,0.01358172111,2024-06-05 19:45:04.860045
56.90053567,-0.151263088,-0.1404775977,-0.4011933804,2024-06-05 19:45:04.900536
56.94102869,-0.609446466,-1.207841039,-0.6238270998,2024-06-05 19:45:04.941029
56.9815164,-0.8986572027,-1.639260411,-0.5412715077,2024-06-05 19:45:04.981516
57.02199968,-0.4624442756,-1.500247598,-0.5330159664,2024-06-05 19:45:05.022000
57.06249869,0.5511249304,-0.5204994678,0.09906667471,2024-06-05 19:45:05.062499
57.10293515,0.607049644,0.5438014865,0.4177044928,2024-06-05 19:45:05.102935
57.14351348,0.2528596818,0.487344116,0.7210295796,2024-06-05 19:45:05.143513
57.18397671,-0.6608439088,0.3999949992,0.591337502,2024-06-05 19:45:05.183977
57.2243602,-0.2639114857,-0.05872096866,-0.8368737102,2024-06-05 19:45:05.224360
57.26486442,-0.4917382002,1.654306889,-1.746316433,2024-06-05 19:45:05.264864
57.30529385,-2.18545866,1.734199405,-1.478277087,2024-06-05 19:45:05.305294
57.3458515,-2.804758549,-0.07816147059,0.7268883586,2024-06-05 19:45:05.345852
57.38633051,-0.7143719196,0.6640396118,0.6203650832,2024-06-05 19:45:05.386331
57.42679822,-0.9790822864,3.388373137,0.2231663167,2024-06-05 19:45:05.426798
57.46726614,-1.544321537,0.3616466224,-0.2189053893,2024-06-05 19:45:05.467266
57.50775734,-0.7726933956,0.07190322876,-0.1848179251,2024-06-05 19:45:05.507757
57.54824051,-0.762573719,1.790656686,0.3167736828,2024-06-05 19:45:05.548241
57.58873124,-0.7974600792,1.648980737,0.07270215452,2024-06-05 19:45:05.588731
57.62922114,-1.08360827,1.639127374,-0.01784265228,2024-06-05 19:45:05.629221
57.66969432,0.2699034214,0.4801537991,0.1962691844,2024-06-05 19:45:05.669694
57.71017338,0.484814167,0.6906704903,0.2415415943,2024-06-05 19:45:05.710173
57.75065416,3.110080957,0.9180977345,0.1161103994,2024-06-05 19:45:05.750654
57.79113968,3.555747747,-1.340728879,0.542336762,2024-06-05 19:45:05.791140
57.8315965,3.28810811,-3.569063187,2.055500269,2024-06-05 19:45:05.831597
57.87208176,2.670406103,1.880535722,0.9661663771,2024-06-05 19:45:05.872082
57.91257031,2.698101997,1.844450951,-0.1099853069,2024-06-05 19:45:05.912570
57.95306614,1.063102603,-2.158961058,0.6131747365,2024-06-05 19:45:05.953066
57.99356723,-0.1539261788,-2.604627848,0.8419335485,2024-06-05 19:45:05.993567
58.03400723,-0.9410002232,-2.485854387,0.02716344222,2024-06-05 19:45:06.034007
58.07445229,-1.673880577,-1.538063288,-0.0599193573,2024-06-05 19:45:06.074452
58.11493578,-2.294512033,-2.955355883,-0.7798837423,2024-06-05 19:45:06.114936
58.15541614,-1.903704524,-3.509143829,0.2258294076,2024-06-05 19:45:06.155416
58.19592494,-0.7636389136,0.8243572116,0.3673722446,2024-06-05 19:45:06.195925
58.23641656,-0.1661763489,0.5632419586,0.3029256463,2024-06-05 19:45:06.236417
58.2769151,0.06524552405,0.08282186836,0.3220998347,2024-06-05 19:45:06.276915
58.31739838,-0.6568493247,0.1930734813,-0.4382102489,2024-06-05 19:45:06.317398
58.35787531,-1.49185884,1.08773613,-0.2487319112,2024-06-05 19:45:06.357875
58.39833697,-0.7615084648,-1.723680139,0.4280905128,2024-06-05 19:45:06.398337
58.43881369,-0.7077142,-1.778539658,0.3460675776,2024-06-05 19:45:06.438814
58.47931734,-1.454841971,1.088801265,0.6208977103,2024-06-05 19:45:06.479317
58.51979328,-1.291594982,2.064821005,0.5497934222,2024-06-05 19:45:06.519793
58.56026713,-0.2593842447,-0.3647091687,-0.3979976773,2024-06-05 19:45:06.560267
58.60074817,0.09613727778,-0.1175750941,0.06977276504,2024-06-05 19:45:06.600748
58.64125614,-0.3603150845,0.0705716908,0.08122401685,2024-06-05 19:45:06.641256
58.68172781,-0.9527177811,0.2639114857,-0.05752258375,2024-06-05 19:45:06.681728
58.72219708,-0.515173316,0.01078548469,0.01997311972,2024-06-05 19:45:06.722197
58.76267619,-0.2431394309,0.4079842567,-0.05912043154,2024-06-05 19:45:06.762676
58.80315781,-0.3738967776,0.2141118348,-0.248199299,2024-06-05 19:45:06.803158
58.84363895,-0.3137111366,-0.3902747631,-0.3782908916,2024-06-05 19:45:06.843639
58.88412176,-0.3608476818,0.1387466043,-0.3440702558,2024-06-05 19:45:06.884122
58.92456614,-0.2157096863,0.4934692085,-0.368437469,2024-06-05 19:45:06.924566
58.96503145,0.01065232977,0.1062569916,-0.4307536185,2024-06-05 19:45:06.965031
59.00552494,0.08521863818,-1.089200735,-0.1310236603,2024-06-05 19:45:07.005525
59.04606739,0.1259638071,-1.307706714,0.2605826259,2024-06-05 19:45:07.046067
59.08654567,1.611031771,-0.8884043694,0.195203945,2024-06-05 19:45:07.086546
59.12701952,2.613549232,0.2213021666,0.03515268862,2024-06-05 19:45:07.127020
59.16749567,2.621005774,0.3616466224,0.6664364338,2024-06-05 19:45:07.167496
59.20798838,1.729538918,-1.469888449,0.7825468183,2024-06-05 19:45:07.207988
59.24845744,0.2218347788,-0.9864057899,0.8411346078,2024-06-05 19:45:07.248457
59.28895281,-0.0596530512,-0.342605561,1.601711035,2024-06-05 19:45:07.288953
59.3294201,-0.8459281921,-2.03885603,1.807567239,2024-06-05 19:45:07.329420
59.36990135,-1.614493847,-2.786782742,1.053781748,2024-06-05 19:45:07.369901
59.41038812,-1.468423724,-3.038311005,0.08947957307,2024-06-05 19:45:07.410388
59.45087666,-0.7372744083,-2.304898024,-0.4856131077,2024-06-05 19:45:07.450877
59.49134447,-0.6203650832,-1.796781778,-0.6539199352,2024-06-05 19:45:07.491344
59.53181119,-0.4629769027,-1.948577523,-0.5548532605,2024-06-05 19:45:07.531811
59.57228557,-0.2575200796,-1.823412657,0.5841471553,2024-06-05 19:45:07.572286
59.61278567,-0.6752246022,-0.8141043186,1.803838968,2024-06-05 19:45:07.612786
59.65330354,-0.3139774203,-0.02117150649,0.8865401745,2024-06-05 19:45:07.653304
59.69381843,-1.1994524,-0.9914656281,-0.8736242056,2024-06-05 19:45:07.693818
59.734224,-1.170158505,-0.4651073813,-3.061879158,2024-06-05 19:45:07.734224
59.77470562,0.4920045137,0.1893451661,-1.413297892,2024-06-05 19:45:07.774706
59.81514489,0.1754971445,-1.166962743,-0.6890726089,2024-06-05 19:45:07.815145
59.85562656,-0.6089138389,-2.875197172,-0.3419398069,2024-06-05 19:45:07.855627
59.8961377,-1.701842904,-3.180785894,-0.394269377,2024-06-05 19:45:07.896138
59.93665473,-1.420221925,-1.199585557,0.3370130956,2024-06-05 19:45:07.936655
59.97712333,-0.6826812029,-0.1633801162,0.1794917583,2024-06-05 19:45:07.977123
60.01757463,0.3372794092,-0.2517944574,0.3737636507,2024-06-05 19:45:08.017575
60.05807411,-0.01278279629,0.6725615263,0.213312909,2024-06-05 19:45:08.058074
60.09854228,-0.8861407042,1.302780032,0.1105179265,2024-06-05 19:45:08.098542
60.13903609,-0.6757571697,1.423151374,0.1781602204,2024-06-05 19:45:08.139036
60.17953286,0.08761541545,1.4428581,0.1864157766,2024-06-05 19:45:08.179533
60.21999557,-0.03861469775,1.175617814,0.05912043154,2024-06-05 19:45:08.219996
60.26048463,0.6933335662,0.1296921223,0.03675054014,2024-06-05 19:45:08.260485
60.3009765,1.974542618,-0.7805495262,1.001319051,2024-06-05 19:45:08.300976
60.34144588,2.986513853,2.806090117,0.1752308309,2024-06-05 19:45:08.341446
60.38192708,2.40396452,4.950404167,-1.286535144,2024-06-05 19:45:08.381927
60.42239187,1.231409431,2.780790806,-1.146989703,2024-06-05 19:45:08.422392
60.46292015,-0.2908086181,-0.420101285,-0.6517894268,2024-06-05 19:45:08.462920
60.50343249,-0.2135792226,-1.363631368,-0.7364754677,2024-06-05 19:45:08.503432
60.54390218,-0.06684337556,1.124486566,-0.2937380075,2024-06-05 19:45:08.543902
60.58438333,-0.4137098789,1.171889424,-0.4589822888,2024-06-05 19:45:08.584383
60.62485635,-0.4073184729,-0.6671021581,-0.878950417,2024-06-05 19:45:08.624856
60.66524963,-0.3971987665,-0.6782871485,-0.65871346,2024-06-05 19:45:08.665250
60.70575124,-0.8520532846,-0.06031882018,-0.06737598777,2024-06-05 19:45:08.705751
60.74626109,-0.7953296304,-0.1548582464,0.1890788674,2024-06-05 19:45:08.746261
60.78672104,-0.3809539676,0.07163692266,-0.2284924835,2024-06-05 19:45:08.786721
60.8272138,0.01411433797,0.5355458856,-0.1256974936,2024-06-05 19:45:08.827214
60.86769229,-0.2127802968,1.761895418,0.02050573565,2024-06-05 19:45:08.867692
60.90817208,-0.0519301109,1.807167768,-0.1517957002,2024-06-05 19:45:08.908172
60.94866499,-0.9202281833,1.667356014,-0.2748301327,2024-06-05 19:45:08.948665
60.98918176,-0.9543156624,-0.5625761747,-0.352858454,2024-06-05 19:45:08.989182
61.0296414,-0.6856105924,-0.109585844,-0.04820179567,2024-06-05 19:45:09.029641
61.07009171,-1.149919033,0.1560566425,0.391073674,2024-06-05 19:45:09.070092
61.11059369,-1.109706521,1.754705071,1.040466309,2024-06-05 19:45:09.110594
61.15107604,-0.09959928691,3.790099144,1.217827678,2024-06-05 19:45:09.151076
61.1915564,0.3921388984,4.054543018,1.013835549,2024-06-05 19:45:09.191556
61.23204395,0.354855746,3.117803812,0.5604457259,2024-06-05 19:45:09.232044
61.27252317,-1.251915097,4.593684196,1.04872191,2024-06-05 19:45:09.272523
61.31300057,0.2680392563,4.29408741,0.5985277891,2024-06-05 19:45:09.313001
61.3535088,0.5900059342,-0.5607120395,0.9288831949,2024-06-05 19:45:09.353509
61.39400317,2.097177505,0.09107742459,0.9826774597,2024-06-05 19:45:09.394003
61.43445307,3.30142355,-1.271755099,1.654972672,2024-06-05 19:45:09.434453
61.47491869,2.570940018,-1.581471562,1.043129444,2024-06-05 19:45:09.474919
61.51540499,1.660565138,0.8395367861,0.3921388984,2024-06-05 19:45:09.515405
61.55590676,1.560433269,-0.2826862037,0.2316881865,2024-06-05 19:45:09.555907
61.59638015,0.4435364008,-0.3564535975,0.5127765536,2024-06-05 19:45:09.596380
61.6368501,-1.013036609,0.8456618786,-0.09986559302,2024-06-05 19:45:09.636850
61.67732942,-0.6259575486,0.28574875,-0.7868077159,2024-06-05 19:45:09.677329
61.7178163,-0.9511199594,-3.661072731,-0.4624442756,2024-06-05 19:45:09.717816
61.758294,-1.608368754,-0.6575151086,-1.333671689,2024-06-05 19:45:09.758294
61.79877822,-0.6659038067,-0.4206338823,0.6704310179,2024-06-05 19:45:09.798778
61.83926208,-0.597995162,0.5198337436,-0.0298265256,2024-06-05 19:45:09.839262
