Time (s),Linear Acceleration x (m/s^2),Linear Acceleration y (m/s^2),Linear Acceleration z (m/s^2),Datetime
0.030197097,0.0,0.0,0.0,2024-06-05 19:44:08.030197
0.070176785,-0.4409277439,-0.9396021366,2.868206978,2024-06-05 19:44:08.070177
0.146356108,-0.3168320656,-0.7962377071,1.491893768,2024-06-05 19:44:08.146356
0.186840952,0.198115468,0.5688233376,-4.171244621,2024-06-05 19:44:08.186841
0.227262462,1.617800713,1.212219238,-4.233603001,2024-06-05 19:44:08.227262
0.26774866,-0.5072072744,-0.4788405895,-1.672973633,2024-06-05 19:44:08.267749
0.308231316,0.05712020397,0.004400253296,-6.146809578,2024-06-05 19:44:08.308231
0.348376785,0.006538152695,0.02209854126,0.9123086929,2024-06-05 19:44:08.348377
0.389212774,-1.324595809,-0.3987159729,1.100523949,2024-06-05 19:44:08.389213
0.429647566,-2.13743782,0.09332084656,-4.471273422,2024-06-05 19:44:08.429648
0.470153816,2.111617565,2.249998093,-0.9929456711,2024-06-05 19:44:08.470154
0.510661993,-2.063127518,1.29320097,-1.265093803,2024-06-05 19:44:08.510662
0.551126993,-0.9394927025,1.690973759,-1.77176857,2024-06-05 19:44:08.551127
0.591646108,-0.5977193117,2.069528103,-2.063520432,2024-06-05 19:44:08.591646
0.632042254,-0.7526957989,0.6414542198,-1.565757275,2024-06-05 19:44:08.632042
0.672603556,-0.256570816,-1.126740456,-0.4990034103,2024-06-05 19:44:08.672604
0.71309366,0.411809206,-2.842282534,-0.5310554504,2024-06-05 19:44:08.713094
0.753521524,-0.6421084404,-1.414150238,-1.332826614,2024-06-05 19:44:08.753522
0.794017202,0.3254799843,-1.117236137,-2.862057686,2024-06-05 19:44:08.794017
0.834474493,0.8581655025,-1.38897419,-2.322705269,2024-06-05 19:44:08.834474
0.875141941,1.025472641,-2.125255585,-1.713591576,2024-06-05 19:44:08.875142
0.915522774,4.131458282,-10.09260845,-5.612594604,2024-06-05 19:44:08.915523
0.955942045,1.594070435,-10.71643257,-3.314129829,2024-06-05 19:44:08.955942
0.996445639,5.583218098,-10.33794975,-1.498928547,2024-06-05 19:44:08.996446
1.036917254,2.199825287,-9.492145538,-7.867510796,2024-06-05 19:44:09.036917
1.077388972,-8.716375351,-10.66580296,-0.3433384895,2024-06-05 19:44:09.077389
1.117983295,-15.57808495,-11.98979187,-7.205753803,2024-06-05 19:44:09.117983
1.15833491,-25.22068405,-8.122637749,-9.112632751,2024-06-05 19:44:09.158335
1.198836629,-21.16769981,-4.734217644,0.2623853981,2024-06-05 19:44:09.198837
1.239309077,-31.27747345,-1.743821144,-2.872921944,2024-06-05 19:44:09.239309
1.27979616,-16.38242149,4.459364891,23.43052864,2024-06-05 19:44:09.279796
1.320333868,10.37049389,7.173203468,15.1897707,2024-06-05 19:44:09.320334
1.360823452,-4.581988811,1.919892788,10.41128349,2024-06-05 19:44:09.360823
1.401214181,-1.182673454,-1.355071545,0.7778048515,2024-06-05 19:44:09.401214
1.441772149,8.211996078,0.5123968124,-18.81199265,2024-06-05 19:44:09.441772
1.482205431,8.810874939,0.5274295807,1.231617093,2024-06-05 19:44:09.482205
1.522514754,8.608008385,-0.2541050911,1.313252926,2024-06-05 19:44:09.522515
1.563085899,13.2137413,-3.147128105,-4.88603878,2024-06-05 19:44:09.563086
1.603468868,-1.170230389,-8.096073151,6.52449894,2024-06-05 19:44:09.603469
1.644098608,0.2371101379,0.5780482292,0.6480612755,2024-06-05 19:44:09.644099
1.684541837,-2.181701183,1.80948019,2.429676771,2024-06-05 19:44:09.684542
1.725060379,-1.881013393,-0.0220375061,3.928717136,2024-06-05 19:44:09.725060
1.765561577,2.223252296,1.325350761,-8.532113075,2024-06-05 19:44:09.765562
1.806024806,5.493263245,-0.0644903183,-5.520116329,2024-06-05 19:44:09.806025
1.846435118,-2.747335196,-10.18921375,1.81902194,2024-06-05 19:44:09.846435
1.886968191,-18.18977928,-6.336280823,0.8780690432,2024-06-05 19:44:09.886968
1.927426837,16.18790627,2.731067657,-6.528600693,2024-06-05 19:44:09.927427
1.967940952,6.786932945,2.451225281,-5.371031284,2024-06-05 19:44:09.967941
2.008408347,4.043680668,-0.4178934097,-4.020911217,2024-06-05 19:44:10.008408
2.048910014,4.318993092,-1.828411102,-4.266978741,2024-06-05 19:44:10.048910
2.089327254,-1.73124218,-0.308380127,-1.42894125,2024-06-05 19:44:10.089327
2.129852514,-3.311769485,-0.357919693,3.077033043,2024-06-05 19:44:10.129853
2.170224024,-5.399579048,-3.596740723,10.81672764,2024-06-05 19:44:10.170224
2.210662306,-5.426855564,-2.859700203,3.050926685,2024-06-05 19:44:10.210662
2.251342827,-3.737081528,-1.149834633,1.318199873,2024-06-05 19:44:10.251343
2.291790743,-2.539687872,-4.426171303,7.736225605,2024-06-05 19:44:10.291791
2.33228366,-0.1187240183,-3.982702255,8.226060867,2024-06-05 19:44:10.332284
2.372762097,2.083066463,-3.728736877,-6.58855772,2024-06-05 19:44:10.372762
2.413265847,5.168673992,-3.290148735,-4.715064049,2024-06-05 19:44:10.413266
2.453742202,2.892007351,-4.911846161,-0.3150742054,2024-06-05 19:44:10.453742
2.494232774,2.921560764,1.885071754,-6.7266078,2024-06-05 19:44:10.494233
2.534689754,1.518033981,3.692680836,-3.472022533,2024-06-05 19:44:10.534690
2.575148243,2.22648716,5.030753136,-4.77894783,2024-06-05 19:44:10.575148
2.615605952,3.821236134,6.391614914,-5.300733566,2024-06-05 19:44:10.615606
2.656126212,5.877811909,8.634332657,-2.893066168,2024-06-05 19:44:10.656126
2.696618243,5.516138554,4.636528969,0.1174819469,2024-06-05 19:44:10.696618
2.737115431,-10.14289284,-18.95304871,17.1998558,2024-06-05 19:44:10.737115
2.777569754,0.9399097562,2.282623291,-2.030875683,2024-06-05 19:44:10.777570
2.818041108,3.936795712,5.273907661,-6.559158802,2024-06-05 19:44:10.818041
2.858498712,7.6677742,-8.978316307,6.60783577,2024-06-05 19:44:10.858499
2.899003087,1.065310717,1.243494987,-7.830143929,2024-06-05 19:44:10.899003
2.939516108,-0.04648303986,6.625799656,-7.876501083,2024-06-05 19:44:10.939516
2.979971472,1.475023389,-3.680888176,-6.85779953,2024-06-05 19:44:10.979971
3.020495535,-2.620007992,-2.531495094,3.300318241,2024-06-05 19:44:11.020496
3.060970014,-1.433742285,2.371222019,1.159548283,2024-06-05 19:44:11.060970
3.10143892,-0.1303088665,3.368238926,-1.45512104,2024-06-05 19:44:11.101439
3.141883399,0.2308820486,0.1781291962,0.2019994259,2024-06-05 19:44:11.141883
3.182402514,1.913249493,0.542057991,13.40456295,2024-06-05 19:44:11.182403
3.222906941,-2.335786343,-2.483664513,4.32143116,2024-06-05 19:44:11.222907
3.263350952,-3.916828394,-6.45803833,5.342183113,2024-06-05 19:44:11.263351
3.303830066,4.28246212,-6.459934235,8.488250732,2024-06-05 19:44:11.303830
3.344335327,8.663227081,-2.64881134,-7.968883514,2024-06-05 19:44:11.344335
3.384798556,3.143907309,0.2190999985,-7.661273003,2024-06-05 19:44:11.384799
3.425316316,3.654923201,-0.3109531403,-3.795853138,2024-06-05 19:44:11.425316
3.465732879,2.998338461,3.590590477,-7.439483643,2024-06-05 19:44:11.465733
3.506224389,3.715829134,8.57550621,-5.566600323,2024-06-05 19:44:11.506224
3.546757149,4.915343761,-1.835208893,5.886081696,2024-06-05 19:44:11.546757
3.587191837,0.9733127356,-2.801438332,-6.462332726,2024-06-05 19:44:11.587192
3.627651837,0.02825737,0.1755514145,-6.051271439,2024-06-05 19:44:11.627652
3.668150952,-1.498906851,-3.107094765,-1.924492359,2024-06-05 19:44:11.668151
3.708629233,-6.593498707,-2.879772186,4.258520126,2024-06-05 19:44:11.708629
3.749099545,0.4558707476,1.802492142,-0.6933379173,2024-06-05 19:44:11.749100
3.789619493,-2.44383502,0.4159517288,2.576328993,2024-06-05 19:44:11.789619
3.830071577,-4.010242939,0.9030122757,4.032497406,2024-06-05 19:44:11.830072
3.870569233,-1.544843674,1.535390854,6.48903656,2024-06-05 19:44:11.870569
3.911044441,-5.265194416,-1.678509712,6.93448782,2024-06-05 19:44:11.911044
3.951559285,-2.023392439,-5.643094063,3.557135105,2024-06-05 19:44:11.951559
3.991969441,7.933206081,-3.588113785,-7.891859055,2024-06-05 19:44:11.991969
4.032487097,-0.689791441,-5.448494911,2.239609241,2024-06-05 19:44:12.032487
4.072933087,2.983688831,-3.23793602,-3.741289139,2024-06-05 19:44:12.072933
4.113346108,1.194052458,1.150205612,-3.25900054,2024-06-05 19:44:12.113346
4.153890535,1.838654995,4.149765968,-5.460923672,2024-06-05 19:44:12.153891
4.194374233,2.745838165,4.827289104,-5.898165226,2024-06-05 19:44:12.194374
4.234889649,2.929822445,5.144275188,-4.01174736,2024-06-05 19:44:12.234890
4.275358191,1.803876996,3.779648781,0.214659214,2024-06-05 19:44:12.275358
4.315814233,-0.701949358,-2.769886971,4.557300568,2024-06-05 19:44:12.315814
4.356281316,-0.07540893555,-0.87358284,4.172827721,2024-06-05 19:44:12.356281
4.396764858,5.442949772,-1.749043465,-2.169098377,2024-06-05 19:44:12.396765
4.437280327,1.254422665,-16.2069664,1.215040922,2024-06-05 19:44:12.437280
4.477790535,-6.221008301,6.379752159,-9.541060448,2024-06-05 19:44:12.477791
4.518220535,-7.408928871,11.95882988,-5.370931625,2024-06-05 19:44:12.518221
4.558738452,0.7982738018,-0.822054863,-3.658378124,2024-06-05 19:44:12.558738
4.599203816,0.7745558023,-7.54402256,3.26582098,2024-06-05 19:44:12.599204
4.639715066,0.9284436703,1.244416237,-1.410065413,2024-06-05 19:44:12.639715
4.680137202,-0.05840027332,0.1896095276,0.2933933139,2024-06-05 19:44:12.680137
4.720538139,-0.1136587858,-1.435268402,2.147299767,2024-06-05 19:44:12.720538
4.761061004,-0.333564043,0.8774642944,-1.866986513,2024-06-05 19:44:12.761061
4.801610743,0.7933937311,0.9292802811,-2.874346733,2024-06-05 19:44:12.801611
4.842077254,1.069098592,-0.09629535675,-3.165731907,2024-06-05 19:44:12.842077
4.882572045,1.138608575,-0.2292575836,1.172804952,2024-06-05 19:44:12.882572
4.923034233,0.3884114027,0.3606538773,-0.5470842123,2024-06-05 19:44:12.923034
4.963538035,0.215857625,0.07194328308,-3.088550091,2024-06-05 19:44:12.963538
5.004025327,0.6129169464,-0.7527427673,0.5872565508,2024-06-05 19:44:13.004025
5.044508712,3.084816456,-1.211927414,-0.430024147,2024-06-05 19:44:13.044509
5.084967462,3.622013092,-2.225078583,-0.3181595802,2024-06-05 19:44:13.084967
5.12541991,2.313777685,-3.415158272,1.706448555,2024-06-05 19:44:13.125420
5.165931056,-0.1151938438,1.579170704,-1.08088541,2024-06-05 19:44:13.165931
5.20640767,-4.779237747,2.919507504,-0.8557405472,2024-06-05 19:44:13.206408
5.246915535,-4.686727524,3.007475376,-0.6350007057,2024-06-05 19:44:13.246916
5.287393295,-3.252407551,3.309845924,-1.015892982,2024-06-05 19:44:13.287393
5.327847514,-0.03573060036,3.420228004,-1.212776423,2024-06-05 19:44:13.327848
5.368330066,1.728257656,1.311206818,-0.4144172668,2024-06-05 19:44:13.368330
5.408820847,1.738142014,1.134838581,0.9956336021,2024-06-05 19:44:13.408821
5.449298712,-1.566843033,-1.162674904,-1.959123135,2024-06-05 19:44:13.449299
5.489792774,-1.01283741,-3.372790337,-0.04925584793,2024-06-05 19:44:13.489793
5.530263608,2.533816576,-0.9088048935,3.433803558,2024-06-05 19:44:13.530264
5.570766524,1.319609165,-0.8622837067,2.799342394,2024-06-05 19:44:13.570767
5.611243191,3.499634504,-1.173968315,3.847061634,2024-06-05 19:44:13.611243
5.651712097,0.9166588783,-1.946941376,6.428009987,2024-06-05 19:44:13.651712
5.692198452,0.6471943855,0.02662277222,2.283851385,2024-06-05 19:44:13.692198
5.732667358,0.1846482754,1.373806,1.477379322,2024-06-05 19:44:13.732667
5.773145691,-2.136526585,0.1166696548,-1.943480611,2024-06-05 19:44:13.773146
5.813642931,-2.933440685,-2.250559807,-2.333662271,2024-06-05 19:44:13.813643
5.854102566,-3.994764566,-1.320031166,4.475897789,2024-06-05 19:44:13.854103
5.894577879,-1.540393353,0.542509079,1.164881706,2024-06-05 19:44:13.894578
5.935056629,-0.1313893795,0.3409061432,1.972157717,2024-06-05 19:44:13.935057
5.975547722,-0.9931136966,0.4225063324,-0.2906259298,2024-06-05 19:44:13.975548
6.016059233,-0.6977361441,-0.1182060242,-0.4354000092,2024-06-05 19:44:14.016059
6.056554858,-2.036604166,0.0638961792,0.1682025194,2024-06-05 19:44:14.056555
6.097007879,-2.09961772,0.2717285156,0.2028684616,2024-06-05 19:44:14.097008
6.13746741,-1.843597293,-0.02553844452,-0.8566243649,2024-06-05 19:44:14.137467
6.177967097,-0.6314525604,-0.1200008392,1.321206689,2024-06-05 19:44:14.177967
6.218459597,-0.2821234465,0.1294374466,4.590795517,2024-06-05 19:44:14.218460
6.258925952,-1.447421908,-2.864929199,2.050505161,2024-06-05 19:44:14.258926
6.299427931,0.2793977261,-3.909267426,3.670934677,2024-06-05 19:44:14.299428
6.339844129,4.229789257,-1.905517578,7.339362144,2024-06-05 19:44:14.339844
6.380379858,3.362425327,-1.116164207,4.023272514,2024-06-05 19:44:14.380380
6.420858191,2.441508293,0.3254594803,-3.774592161,2024-06-05 19:44:14.420858
6.461359702,-1.261733651,-0.087266922,-6.790434837,2024-06-05 19:44:14.461360
6.501812983,-1.612249851,-0.7304677963,-1.912696838,2024-06-05 19:44:14.501813
6.542265118,-1.415742755,-0.8105182648,-0.4917104244,2024-06-05 19:44:14.542265
6.58273866,1.814409614,2.286215782,-2.118213415,2024-06-05 19:44:14.582739
6.623251785,1.804895043,1.802719116,-2.809992313,2024-06-05 19:44:14.623252
6.663694649,0.6675351858,0.9957733154,-3.364340782,2024-06-05 19:44:14.663695
6.704214337,0.3327155113,3.034885406,-4.645930767,2024-06-05 19:44:14.704214
6.744698868,0.838242054,6.550171852,-3.593651056,2024-06-05 19:44:14.744699
6.785168347,-0.5705235004,-5.262921333,4.194555759,2024-06-05 19:44:14.785168
6.825662827,4.430744648,-6.930485725,4.836648941,2024-06-05 19:44:14.825663
6.866152983,-0.7596824169,-1.699449539,-9.743753433,2024-06-05 19:44:14.866153
6.906600535,-2.461172819,0.1204366684,-0.6412762403,2024-06-05 19:44:14.906601
6.947129129,-3.070609808,-0.987827301,1.754758358,2024-06-05 19:44:14.947129
6.987549597,-4.001486778,-0.3629541397,-0.2709648609,2024-06-05 19:44:14.987550
7.028042722,0.7970743179,-0.2248716354,-2.163246632,2024-06-05 19:44:15.028043
7.068543399,-1.120671391,0.01281166077,-0.9982351065,2024-06-05 19:44:15.068543
7.109007983,-2.360798359,-0.3668785095,1.489107728,2024-06-05 19:44:15.109008
7.149535587,0.1448526382,1.336450577,-0.2014790773,2024-06-05 19:44:15.149536
7.189962306,-0.2387828827,0.9223651886,-0.1837904453,2024-06-05 19:44:15.189962
7.230465639,-3.188732386,-3.266429901,-0.7279251218,2024-06-05 19:44:15.230466
7.270929754,0.412535429,0.1789989471,-1.88790381,2024-06-05 19:44:15.270930
7.311401056,4.138473988,-1.174164772,-2.217533588,2024-06-05 19:44:15.311401
7.351895483,1.814499617,-1.693964005,0.5979729891,2024-06-05 19:44:15.351895
7.392356264,2.994862795,2.978582382,-0.5245606303,2024-06-05 19:44:15.392356
7.432866577,1.555094242,0.7483510971,-1.626580238,2024-06-05 19:44:15.432867
7.473346941,0.7704229355,-0.2386074066,0.1960817575,2024-06-05 19:44:15.473347
7.513813452,-1.066816092,-1.657862663,0.6965110302,2024-06-05 19:44:15.513813
7.554308243,-0.4508721828,3.026514053,0.6871100664,2024-06-05 19:44:15.554308
7.594754233,1.230990887,3.370188236,1.290559053,2024-06-05 19:44:15.594754
7.635248087,2.324666023,0.76836586,0.7437200546,2024-06-05 19:44:15.635248
7.675721056,2.118160725,1.965848446,0.3318365812,2024-06-05 19:44:15.675721
7.716206368,1.552207947,0.345249176,2.377733707,2024-06-05 19:44:15.716206
7.756733139,-1.02204895,-1.405638695,2.262851477,2024-06-05 19:44:15.756733
7.797195691,-3.546640158,0.7226400375,1.023709416,2024-06-05 19:44:15.797196
7.837664441,-1.330163479,1.251403332,-2.03894043,2024-06-05 19:44:15.837664
7.878114077,2.589396954,2.970067501,-3.855535507,2024-06-05 19:44:15.878114
7.918625743,2.553863287,1.442441463,-0.4279446602,2024-06-05 19:44:15.918626
7.959122879,2.600351572,0.3305425644,0.1757985353,2024-06-05 19:44:15.959123
7.999621837,4.091042042,-1.166311264,2.826986313,2024-06-05 19:44:15.999622
8.040075431,2.837663174,-2.513793945,-0.05945038795,2024-06-05 19:44:16.040075
8.080605483,-2.098061562,-1.105004311,-1.788245678,2024-06-05 19:44:16.080605
8.121015587,-4.36499691,-1.446073532,-1.673077106,2024-06-05 19:44:16.121016
8.161531212,-4.631940842,-1.387691498,-0.1743636131,2024-06-05 19:44:16.161531
8.201993608,0.580599308,-3.338419914,-0.1975111961,2024-06-05 19:44:16.201994
8.242460952,2.289491653,2.285205364,-2.493359327,2024-06-05 19:44:16.242461
8.282934181,-1.190128088,-0.4707489014,1.178625584,2024-06-05 19:44:16.282934
8.323424441,-3.561121702,-2.191307068,-2.348158121,2024-06-05 19:44:16.323424
8.363936368,-1.233599782,0.1053380966,-0.6255691051,2024-06-05 19:44:16.363936
8.404399285,-1.422430038,-0.6473150253,-0.5838329792,2024-06-05 19:44:16.404399
8.444887566,-2.036653519,0.7206525803,-1.10147953,2024-06-05 19:44:16.444888
8.485359545,-2.601755142,-0.8051347733,0.1134319305,2024-06-05 19:44:16.485360
8.525843035,-0.5838041306,-0.424074173,-0.05061149597,2024-06-05 19:44:16.525843
8.566331004,1.087044716,1.587217331,0.1186823845,2024-06-05 19:44:16.566331
8.606839233,0.796330452,0.2347946167,-0.1557416916,2024-06-05 19:44:16.606839
8.647298191,4.692074776,0.09921360016,1.228723526,2024-06-05 19:44:16.647298
8.687763972,3.36489439,2.517463207,2.027250767,2024-06-05 19:44:16.687764
8.728251681,0.7393810749,-1.778613567,2.859899521,2024-06-05 19:44:16.728252
8.768736108,-1.426738262,2.421979427,1.742642879,2024-06-05 19:44:16.768736
8.809215795,-0.7693707943,7.981057167,-0.312526226,2024-06-05 19:44:16.809216
8.849721108,-0.1549472809,2.530303001,1.023200989,2024-06-05 19:44:16.849721
8.89016642,0.1497416496,2.518341303,-0.652613163,2024-06-05 19:44:16.890166
8.93057892,2.329256535,6.933237076,1.023471832,2024-06-05 19:44:16.930579
8.971102774,3.199763298,4.631924629,0.7353153229,2024-06-05 19:44:16.971103
9.011676889,2.999814034,6.200060368,0.4532217979,2024-06-05 19:44:17.011677
9.052109285,-2.326758385,7.959078789,5.240218163,2024-06-05 19:44:17.052109
9.092526577,0.7290267944,4.096458435,0.8822836876,2024-06-05 19:44:17.092527
9.133020222,3.223992825,2.537283659,-6.196726799,2024-06-05 19:44:17.133020
9.173513035,-1.753671408,4.360216618,-9.684791565,2024-06-05 19:44:17.173513
9.214018868,12.41342258,-19.80235291,16.39709663,2024-06-05 19:44:17.214019
9.254501941,2.237706661,-5.323231697,0.1135854721,2024-06-05 19:44:17.254502
9.29496991,-4.06374979,-4.488495827,-2.033253193,2024-06-05 19:44:17.294970
9.33541616,-1.949830532,-9.237643242,-1.836812019,2024-06-05 19:44:17.335416
9.375927722,-3.376926899,-7.026381493,-0.786509037,2024-06-05 19:44:17.375928
9.416423139,-5.045559883,-3.826968193,1.035512924,2024-06-05 19:44:17.416423
9.456924181,-3.587771416,-2.434810877,1.175910473,2024-06-05 19:44:17.456924
9.497368868,-4.716736317,-3.824591875,0.9364733696,2024-06-05 19:44:17.497369
9.53785241,-2.907041073,-2.985740662,-0.7319664955,2024-06-05 19:44:17.537852
9.578356733,-0.0389380455,-1.0740695,-0.680876255,2024-06-05 19:44:17.578357
9.618816577,0.006180763245,-0.2361035347,-2.698554039,2024-06-05 19:44:17.618817
9.659323035,0.1049108505,-0.2002387047,-3.232272863,2024-06-05 19:44:17.659323
9.699828712,0.713714838,-0.3388190269,1.089386463,2024-06-05 19:44:17.699829
9.740245274,0.6685650349,2.918499947,2.238406658,2024-06-05 19:44:17.740245
9.780686733,-0.9900143147,3.85017252,5.384305477,2024-06-05 19:44:17.780687
9.821223816,2.918159008,3.941134214,2.904789448,2024-06-05 19:44:17.821224
9.861690691,-1.817971706,2.515735149,1.874110222,2024-06-05 19:44:17.861691
9.902160587,2.148240089,-3.463510513,-3.594930649,2024-06-05 19:44:17.902161
9.942640952,-1.625366926,-0.2069458961,-0.8371543884,2024-06-05 19:44:17.942641
9.983124077,-5.413580418,3.417296648,0.9195284843,2024-06-05 19:44:17.983124
10.0236696,-8.539735794,0.1448516846,3.149796963,2024-06-05 19:44:18.023670
10.06409673,7.952478886,1.673741817,-7.991009712,2024-06-05 19:44:18.064097
10.10458152,-0.6880514622,-9.494812012,-5.252615929,2024-06-05 19:44:18.104582
10.14505251,-1.69618535,-12.0072937,0.2460112572,2024-06-05 19:44:18.145053
10.18555444,3.043602705,2.048118591,-3.933695793,2024-06-05 19:44:18.185554
10.22607142,-0.1770749092,-2.859326363,-0.7193694115,2024-06-05 19:44:18.226071
10.26649027,-3.35013938,-2.937281132,-1.326264381,2024-06-05 19:44:18.266490
10.3070296,-2.097492695,-1.529428005,-0.2939076424,2024-06-05 19:44:18.307030
10.34744022,-2.40351963,0.7466034889,-2.083154678,2024-06-05 19:44:18.347440
10.38793606,-1.953461766,-0.9143600464,-1.282941341,2024-06-05 19:44:18.387936
10.4284271,2.529232025,2.169317484,2.138841152,2024-06-05 19:44:18.428427
10.4689246,1.707412004,3.398956776,-0.7876935005,2024-06-05 19:44:18.468925
10.50942809,2.165966988,0.1840295792,0.7935032845,2024-06-05 19:44:18.509428
10.54989731,-4.854165554,-4.833764553,-3.536899567,2024-06-05 19:44:18.549897
10.59037257,2.921146393,4.702051163,4.075077534,2024-06-05 19:44:18.590373
10.63081892,-3.370995522,3.035615444,-5.299086571,2024-06-05 19:44:18.630819
10.67129293,-4.903529644,-19.13578987,-7.433362961,2024-06-05 19:44:18.671293
10.71179491,-2.858984232,-0.9078636169,-3.842591763,2024-06-05 19:44:18.711795
10.75226986,4.857192039,3.213978767,9.932277679,2024-06-05 19:44:18.752270
10.79278173,6.590466976,-15.65349388,17.19117355,2024-06-05 19:44:18.792782
10.83327699,-0.9708042145,0.3486452103,-3.046741724,2024-06-05 19:44:18.833277
10.87370199,4.521700859,7.875907898,-12.56504631,2024-06-05 19:44:18.873702
10.91417033,5.991920948,6.037993431,-12.41760445,2024-06-05 19:44:18.914170
10.95467382,5.234556675,5.458590508,-12.8469429,2024-06-05 19:44:18.954674
10.99513892,3.138762474,-0.1838645935,-12.81109715,2024-06-05 19:44:18.995139
11.0356508,8.093257904,-22.78747749,-15.60280323,2024-06-05 19:44:19.035651
11.07612751,2.314805031,-17.4018898,18.4131813,2024-06-05 19:44:19.076128
11.11657434,3.912540436,-1.057432175,-5.93611908,2024-06-05 19:44:19.116574
11.15705449,-4.14643383,3.810120583,2.509757996,2024-06-05 19:44:19.157054
11.19757392,-12.71635914,-6.014474869,8.86518383,2024-06-05 19:44:19.197574
11.23806809,-11.8035593,-8.542060852,2.71048975,2024-06-05 19:44:19.238068
11.27854762,-1.851080894,-4.427492142,1.923529148,2024-06-05 19:44:19.278548
11.31907809,-1.09206748,-3.312227249,-4.892942905,2024-06-05 19:44:19.319078
11.35943954,2.466449261,3.589591026,-3.763431549,2024-06-05 19:44:19.359440
11.39993382,4.365318298,5.481187344,11.99328709,2024-06-05 19:44:19.399934
11.44040507,-8.681854248,0.08124923706,-13.77038956,2024-06-05 19:44:19.440405
11.48097246,-10.73772526,-4.233919144,-10.31152916,2024-06-05 19:44:19.480972
11.52138408,6.483930588,-10.94244385,-24.87211227,2024-06-05 19:44:19.521384
11.5618771,-2.004861832,-4.922348499,-8.783033371,2024-06-05 19:44:19.561877
11.6023834,8.723343849,20.79912376,2.348683357,2024-06-05 19:44:19.602383
11.64283017,9.981884003,23.01283264,-12.48679447,2024-06-05 19:44:19.642830
11.68332496,5.907286644,12.4311018,-7.708646297,2024-06-05 19:44:19.683325
11.72385069,2.683243752,1.258993149,-15.65270042,2024-06-05 19:44:19.723851
11.76432887,2.290659904,-9.731911659,-15.55308628,2024-06-05 19:44:19.764329
11.80480434,0.6122324467,-21.83429337,-22.71970749,2024-06-05 19:44:19.804804
11.84529543,1.7694664,-1.956782341,-8.349851608,2024-06-05 19:44:19.845295
11.8857122,-5.440769196,-3.560762405,-5.423779964,2024-06-05 19:44:19.885712
11.92619251,-7.424650192,-26.23633194,28.52332497,2024-06-05 19:44:19.926193
11.96670043,-6.367361546,-15.983922,14.02685452,2024-06-05 19:44:19.966700
12.00720564,-19.09299278,-19.21652985,3.320975304,2024-06-05 19:44:20.007206
12.04766986,-11.03153229,-7.290957451,0.5068868399,2024-06-05 19:44:20.047670
12.08813986,-4.414388657,-13.8775568,0.09698116779,2024-06-05 19:44:20.088140
12.12862168,-4.313184738,3.441001892,-4.437810898,2024-06-05 19:44:20.128622
12.16913048,2.370979548,-1.293518066,-0.3322741985,2024-06-05 19:44:20.169130
12.20959913,0.3717272282,-1.610497475,1.659201145,2024-06-05 19:44:20.209599
12.25007595,-2.272002697,2.205169201,1.885814428,2024-06-05 19:44:20.250076
12.29051481,-8.296657562,2.515372753,2.254038572,2024-06-05 19:44:20.290515
12.33100595,-10.54750824,1.994493961,0.4415493011,2024-06-05 19:44:20.331006
12.3714933,-8.473182678,-1.003308296,1.336243629,2024-06-05 19:44:20.371493
12.41201324,-6.874323845,-4.230071068,4.524767399,2024-06-05 19:44:20.412013
12.45248611,-9.687273026,-4.410655975,9.362128258,2024-06-05 19:44:20.452486
12.49292892,-10.12534332,-2.754587173,3.159132957,2024-06-05 19:44:20.492929
12.53340595,-0.2855769992,-5.275167465,-1.928422809,2024-06-05 19:44:20.533406
12.5739383,2.256614447,-12.57646465,0.9647445679,2024-06-05 19:44:20.573938
12.61439975,-2.298724174,-15.653018,1.851750612,2024-06-05 19:44:20.614400
12.65484319,2.69772625,-5.086904526,-5.89737463,2024-06-05 19:44:20.654843
12.69533861,2.892206907,3.007964134,-5.016869545,2024-06-05 19:44:20.695339
12.73581298,2.71798563,7.179069519,-8.217754364,2024-06-05 19:44:20.735813
12.77632152,5.622126579,10.23373413,-4.695603848,2024-06-05 19:44:20.776322
12.81680564,3.985395908,10.76884937,-4.113773346,2024-06-05 19:44:20.816806
12.85727283,1.88596487,9.266427994,2.192558527,2024-06-05 19:44:20.857273
12.89773637,2.382342577,0.5723924637,-0.7314834595,2024-06-05 19:44:20.897736
12.93824673,18.07271767,-32.71524811,2.455777884,2024-06-05 19:44:20.938247
12.97877757,4.860138893,5.519068241,-12.70970726,2024-06-05 19:44:20.978778
13.01923121,1.520207644,9.676905632,-10.97230911,2024-06-05 19:44:21.019231
13.05970116,3.763100624,1.457203388,5.530942917,2024-06-05 19:44:21.059701
13.10018637,-2.393728971,-9.852475166,-2.095622301,2024-06-05 19:44:21.100186
13.14063783,-3.137729883,-0.2202711105,0.04176568985,2024-06-05 19:44:21.140638
13.18110694,-3.931607723,-3.252723694,0.2418371439,2024-06-05 19:44:21.181107
13.22159382,-0.6837602854,-0.8787937164,0.4251024723,2024-06-05 19:44:21.221594
13.26206501,5.13054657,3.185054302,-2.133643627,2024-06-05 19:44:21.262065
13.30256517,5.633660316,3.506509781,-2.388785601,2024-06-05 19:44:21.302565
13.343056,5.391991138,-2.414090157,-11.61632919,2024-06-05 19:44:21.343056
13.38351871,-9.764356613,-9.103952408,-12.81777573,2024-06-05 19:44:21.383519
13.42404434,-4.784885883,10.5158329,-6.388397217,2024-06-05 19:44:21.424044
13.46447231,-2.161790848,11.14829445,-3.332424164,2024-06-05 19:44:21.464472
13.50494231,-5.586016178,-1.866417408,2.598430634,2024-06-05 19:44:21.504942
13.54544257,12.59339714,-10.28232288,6.932467461,2024-06-05 19:44:21.545443
13.58598246,7.258489609,-2.964550018,8.897777557,2024-06-05 19:44:21.585982
13.6264271,4.003617287,-6.396698952,7.556962013,2024-06-05 19:44:21.626427
13.66686298,7.391342163,-4.996649742,5.452018738,2024-06-05 19:44:21.666863
13.7074247,0.8948118687,-4.773737907,1.094491005,2024-06-05 19:44:21.707425
13.74786616,-1.756268978,-0.05173206329,-0.8749175072,2024-06-05 19:44:21.747866
13.78832449,-0.7993962765,-0.4432086945,1.408045292,2024-06-05 19:44:21.788324
13.82885147,-2.00676465,0.06769657135,2.992173672,2024-06-05 19:44:21.828851
13.86927272,-2.031108379,0.5534477234,2.383560419,2024-06-05 19:44:21.869273
13.90973757,1.921861172,3.229213715,-0.9734125137,2024-06-05 19:44:21.909738
13.95025465,-3.051267624,4.331105232,-6.93672657,2024-06-05 19:44:21.950255
13.99071241,-1.877232313,5.808738232,-6.652148247,2024-06-05 19:44:21.990712
14.03116048,-0.1277638674,6.771800995,-3.092736959,2024-06-05 19:44:22.031160
14.07172074,7.531077385,8.745410919,2.22014761,2024-06-05 19:44:22.071721
14.11217199,0.9327440262,-0.8409481049,-0.7172446251,2024-06-05 19:44:22.112172
14.15262804,-5.152284622,-16.25551033,10.7021904,2024-06-05 19:44:22.152628
14.19311574,0.9639387131,3.289212227,-2.643889189,2024-06-05 19:44:22.193116
14.23361986,-3.53059864,-1.91427803,-2.088242531,2024-06-05 19:44:22.233620
14.27408991,-0.5926690102,-4.929049492,0.9106143713,2024-06-05 19:44:22.274090
14.31456835,-1.376526117,-6.141983032,0.7502739429,2024-06-05 19:44:22.314568
14.35503866,-13.8639946,-14.51482773,6.521053314,2024-06-05 19:44:22.355039
14.39554173,-25.22988319,-5.989500999,1.410341024,2024-06-05 19:44:22.395542
14.4360222,-5.775859356,4.614759922,3.905405521,2024-06-05 19:44:22.436022
14.47649704,1.85640049,-3.099144936,3.248499393,2024-06-05 19:44:22.476497
14.51701444,4.077048302,-4.857514381,-1.455508232,2024-06-05 19:44:22.517014
14.55752033,5.681928635,-7.487669945,-0.4499043226,2024-06-05 19:44:22.557520
14.59795486,12.41865158,-5.118088722,1.803924084,2024-06-05 19:44:22.597955
14.63841538,4.842220306,0.9223928452,-5.500445366,2024-06-05 19:44:22.638415
14.6789459,2.302408695,2.721286774,-6.042406559,2024-06-05 19:44:22.678946
14.71939626,2.571722984,6.270380974,-3.720048189,2024-06-05 19:44:22.719396
14.75989517,2.836496115,9.505244255,-4.368677616,2024-06-05 19:44:22.759895
14.80030324,2.185092688,9.949249268,-3.384063482,2024-06-05 19:44:22.800303
14.84081486,-3.271384716,2.606812477,6.136074066,2024-06-05 19:44:22.840815
14.88133231,-5.222666264,-7.669829369,3.126541853,2024-06-05 19:44:22.881332
14.92180637,6.272528648,0.7834196091,-6.422693253,2024-06-05 19:44:22.921806
14.9622633,8.651863098,-12.00251484,-1.819109917,2024-06-05 19:44:22.962263
15.00275012,2.564905643,3.913698196,-6.562547207,2024-06-05 19:44:23.002750
15.0432708,4.452118874,-3.277304649,-12.47467422,2024-06-05 19:44:23.043271
15.08370861,1.228678823,-5.170523643,-7.744634628,2024-06-05 19:44:23.083709
15.12421147,0.3047073483,0.2976341248,0.1657323837,2024-06-05 19:44:23.124211
15.16466106,1.684859514,3.928001404,9.083016396,2024-06-05 19:44:23.164661
15.2051622,-0.2914059162,1.210459709,-2.644322157,2024-06-05 19:44:23.205162
15.24564949,0.01891773939,0.7338848114,3.689931393,2024-06-05 19:44:23.245649
15.28611616,-3.2690835,-0.8290739059,4.285562515,2024-06-05 19:44:23.286116
15.32657392,-2.294416666,1.388911247,4.75724411,2024-06-05 19:44:23.326574
15.36704413,-0.4180354476,-2.023219109,4.479781628,2024-06-05 19:44:23.367044
15.40754611,0.4190660119,-9.300783157,6.149610519,2024-06-05 19:44:23.407546
15.44802382,3.892700672,-3.206801414,-5.217544556,2024-06-05 19:44:23.448024
15.48850616,4.942327499,-0.3546714783,-5.905273438,2024-06-05 19:44:23.488506
15.52900679,2.366910458,-1.83645916,-7.124931335,2024-06-05 19:44:23.529007
15.56954189,0.5438674688,-3.463308334,-2.893467665,2024-06-05 19:44:23.569542
15.60995908,2.63376379,4.094157219,-6.773281097,2024-06-05 19:44:23.609959
15.65041611,1.261044264,3.71826458,-2.523847342,2024-06-05 19:44:23.650416
15.69095288,-1.452049017,-4.045286179,1.399806499,2024-06-05 19:44:23.690953
15.73140142,3.536108017,2.570135117,-4.31598711,2024-06-05 19:44:23.731401
15.77187991,5.053180695,4.966818333,-6.146728516,2024-06-05 19:44:23.771880
15.81234543,3.46251297,-3.579490662,-6.234155178,2024-06-05 19:44:23.812345
15.85281798,1.227814913,0.1076917648,2.998651981,2024-06-05 19:44:23.852818
15.89331725,1.16023159,-1.613842964,-8.061906815,2024-06-05 19:44:23.893317
15.93379309,3.514304161,-1.764118195,-3.491586685,2024-06-05 19:44:23.933793
15.97427975,3.529564619,0.4661283493,1.336000443,2024-06-05 19:44:23.974280
16.01477975,4.409482479,-0.2986574173,-0.2380228639,2024-06-05 19:44:24.014780
16.05523939,3.918607712,-10.1108799,13.20538139,2024-06-05 19:44:24.055239
16.09570564,-4.028783321,-5.504314423,5.103879929,2024-06-05 19:44:24.095706
16.13620033,-3.672688484,-2.15602684,6.60019207,2024-06-05 19:44:24.136200
16.17669267,-1.30237937,2.383914948,-6.326252937,2024-06-05 19:44:24.176693
16.21717902,-1.459330916,0.5772619247,-3.71674943,2024-06-05 19:44:24.217179
16.2576546,-3.056178808,2.422133446,1.0652349,2024-06-05 19:44:24.257655
16.2981297,-2.309644699,2.045381546,4.084931374,2024-06-05 19:44:24.298130
16.3385485,0.6115406752,-0.3729219437,3.238387108,2024-06-05 19:44:24.338549
16.37910486,2.222105026,1.883343697,-3.175302982,2024-06-05 19:44:24.379105
16.41962679,1.26758647,1.246512413,0.8375029564,2024-06-05 19:44:24.419627
16.46003163,-0.222319603,0.8815555573,-1.037857056,2024-06-05 19:44:24.460032
16.50047356,0.4479441643,-1.383357048,-5.331832409,2024-06-05 19:44:24.500474
16.54095184,1.383053422,-0.2839708328,-1.832994223,2024-06-05 19:44:24.540952
16.58145981,3.401213646,1.519280434,-4.606311798,2024-06-05 19:44:24.581460
16.62194043,2.743450642,-0.634188652,-3.940178871,2024-06-05 19:44:24.621940
16.66245205,0.3163565397,-4.87169075,8.558973312,2024-06-05 19:44:24.662452
16.7029308,1.446821809,-4.399734497,10.9357729,2024-06-05 19:44:24.702931
16.74341246,-1.716974974,-1.069851875,3.425527811,2024-06-05 19:44:24.743412
16.78389298,-1.92794919,4.81980896,-1.335420489,2024-06-05 19:44:24.783893
16.82436923,-0.8412434459,4.595513821,-2.535614729,2024-06-05 19:44:24.824369
16.86487444,-0.1438730955,4.396219254,-4.908838749,2024-06-05 19:44:24.864874
16.9053372,-0.2172225714,3.449054241,-4.602686405,2024-06-05 19:44:24.905337
16.94580449,-0.4409829378,1.095752716,-3.822797298,2024-06-05 19:44:24.945804
16.98630783,0.2670564651,-1.442419052,-1.469599724,2024-06-05 19:44:24.986308
17.02683408,1.60505712,-1.614441872,1.286180496,2024-06-05 19:44:25.026834
17.06727804,4.462892056,-0.9413890839,3.036296129,2024-06-05 19:44:25.067278
17.10779486,6.773041248,-3.159337044,-0.2182716131,2024-06-05 19:44:25.107795
17.14823262,2.816455364,-5.644822121,12.74663258,2024-06-05 19:44:25.148233
17.18869116,-1.842349768,-1.596201897,0.6438924074,2024-06-05 19:44:25.188691
17.22918142,-5.44157362,-8.206748009,12.21213722,2024-06-05 19:44:25.229181
17.26972132,-3.160832405,2.680815697,-5.160134315,2024-06-05 19:44:25.269721
17.31009642,-0.6491589546,4.056594372,-2.811273336,2024-06-05 19:44:25.310096
17.3505709,-0.7225944996,2.552857399,-2.775817871,2024-06-05 19:44:25.350571
17.39105043,-2.275064707,2.290347099,-2.442002058,2024-06-05 19:44:25.391050
17.43153007,-2.011092186,1.36939621,-0.4972036481,2024-06-05 19:44:25.431530
17.47207178,-1.465782523,-0.7661685944,0.1679376364,2024-06-05 19:44:25.472072
17.51256522,1.245480061,-3.521711349,13.44139194,2024-06-05 19:44:25.512565
17.55301564,1.018297791,1.038355827,-7.351948738,2024-06-05 19:44:25.553016
17.59352647,0.5667620897,1.8098526,-4.0925107,2024-06-05 19:44:25.593526
17.6340084,-0.5488385558,0.8369817734,-5.107066154,2024-06-05 19:44:25.634008
17.67445975,2.136443615,1.44641304,-0.5192680359,2024-06-05 19:44:25.674460
17.71496444,4.214625835,-0.4715499878,0.2528414726,2024-06-05 19:44:25.714964
17.75542668,9.110161781,-2.495049477,2.857765675,2024-06-05 19:44:25.755427
17.79593882,1.344225883,-3.931715012,7.975016594,2024-06-05 19:44:25.795939
17.83642106,-6.010975838,-3.726851463,3.308084726,2024-06-05 19:44:25.836421
17.87690111,-3.980389833,1.92944479,-0.3014595509,2024-06-05 19:44:25.876901
17.91732501,-1.822981596,2.84303093,-3.848348618,2024-06-05 19:44:25.917325
17.95784725,-0.08188450336,4.562891483,1.319738507,2024-06-05 19:44:25.957847
17.99831228,1.949870586,3.313425064,1.537770152,2024-06-05 19:44:25.998312
18.0388251,-0.2971963882,1.225753784,1.372147322,2024-06-05 19:44:26.038825
18.07930557,-3.255496025,-0.01991939545,-1.903274417,2024-06-05 19:44:26.079306
18.11980364,-3.208965302,-0.9021730423,-1.570082545,2024-06-05 19:44:26.119804
18.160234,6.915416241,1.092676163,2.48488307,2024-06-05 19:44:26.160234
18.20078796,6.005040169,1.628768444,-0.4423905313,2024-06-05 19:44:26.200788
18.24116114,1.026963711,1.160202026,0.8448973894,2024-06-05 19:44:26.241161
18.28164848,-1.64241457,0.5997505188,-0.1048752069,2024-06-05 19:44:26.281648
18.32214312,-1.17052412,-1.757547379,-0.6014214754,2024-06-05 19:44:26.322143
18.36262025,0.9592695236,-4.979698181,7.168734074,2024-06-05 19:44:26.362620
18.40312578,-2.561449528,-1.741850853,4.599345684,2024-06-05 19:44:26.403126
18.44363635,-2.52713871,-1.988464355,0.2978036404,2024-06-05 19:44:26.443636
18.48409411,-4.415635109,-3.661790848,-0.6023443937,2024-06-05 19:44:26.484094
18.5245738,-4.818582535,-1.841290474,1.07288444,2024-06-05 19:44:26.524574
18.56503817,-4.92697382,-0.2016830444,-0.2345104814,2024-06-05 19:44:26.565038
18.60552442,-3.379779339,2.263192177,-1.395746231,2024-06-05 19:44:26.605524
18.64603713,-1.368126273,3.174561501,-0.5639191866,2024-06-05 19:44:26.646037
18.68648958,-0.7902882695,2.136870384,-0.03705191612,2024-06-05 19:44:26.686490
18.7269614,0.783139348,1.301116943,-0.1955611706,2024-06-05 19:44:26.726961
18.76746156,0.4384384155,-0.07135677338,-1.518450737,2024-06-05 19:44:26.767462
18.80795734,-0.07169532776,-2.562430382,4.256583691,2024-06-05 19:44:26.807957
18.84842114,-1.587803721,-2.000915527,5.704624176,2024-06-05 19:44:26.848421
18.88889692,-2.048511982,-1.785235405,1.596040487,2024-06-05 19:44:26.888897
18.92938176,-1.72267139,-0.9524583817,2.402640343,2024-06-05 19:44:26.929382
18.96986895,-1.440408349,0.05937099457,0.6269127131,2024-06-05 19:44:26.969869
19.01033687,-0.4723765254,-0.4902620316,3.466030598,2024-06-05 19:44:27.010337
19.05083854,-2.243904114,-2.529013634,3.928593159,2024-06-05 19:44:27.050839
19.09124031,-2.707485914,-3.752266884,0.9083784819,2024-06-05 19:44:27.091240
19.13176963,1.853923678,-0.1022624969,7.11793232,2024-06-05 19:44:27.131770
19.1722577,3.320425272,-0.4476671219,4.963311672,2024-06-05 19:44:27.172258
19.21276807,0.4062488079,-1.057478905,-3.231849909,2024-06-05 19:44:27.212768
19.25324421,-0.982235074,0.1247739792,-10.60000038,2024-06-05 19:44:27.253244
19.2937014,1.350837946,-3.719453812,-0.2102689743,2024-06-05 19:44:27.293701
19.33413478,1.325665116,-4.437950134,-2.744219303,2024-06-05 19:44:27.334135
19.37464176,0.6867514849,1.440936565,-3.930050135,2024-06-05 19:44:27.374642
19.41513192,0.6310734749,4.634366989,-4.944188118,2024-06-05 19:44:27.415132
19.45562051,0.7867623568,4.442969799,-4.339785576,2024-06-05 19:44:27.455621
19.49609203,0.3218545914,4.579117298,-3.631440639,2024-06-05 19:44:27.496092
19.53658442,-0.9426289797,3.227202892,-0.5456039906,2024-06-05 19:44:27.536584
19.57708249,-1.883114576,-5.524062157,10.05772972,2024-06-05 19:44:27.577082
19.61758338,-0.5204873085,-5.312659264,8.556621552,2024-06-05 19:44:27.617583
19.65803885,1.726381063,0.3194789886,-1.315819502,2024-06-05 19:44:27.658039
19.69850536,6.571578979,-2.168787956,-3.694951773,2024-06-05 19:44:27.698505
19.73901687,-4.013355732,-7.854001999,-6.954771996,2024-06-05 19:44:27.739017
19.77949812,-4.748449802,8.449777603,-7.279455185,2024-06-05 19:44:27.779498
19.81995354,0.8142254353,-0.7933921814,-4.717812538,2024-06-05 19:44:27.819954
19.86042489,0.9350824356,-4.818174362,3.63728714,2024-06-05 19:44:27.860425
19.90088833,2.980565071,2.529756546,-2.052897453,2024-06-05 19:44:27.900888
19.94136025,-0.7373890877,0.002855300903,0.8239277601,2024-06-05 19:44:27.941360
19.98189958,-2.638235569,-1.637311935,0.6316459179,2024-06-05 19:44:27.981900
20.02235228,-1.599714637,0.2263755798,-0.9389005899,2024-06-05 19:44:28.022352
20.06284343,-0.2424185276,0.2315645218,-2.088431835,2024-06-05 19:44:28.062843
20.10332265,0.4774730206,-0.2887468338,-0.4461876154,2024-06-05 19:44:28.103323
20.1437951,0.1474120617,0.002738952637,0.533886075,2024-06-05 19:44:28.143795
20.18427187,-0.007409334183,-0.4076118469,0.7305248976,2024-06-05 19:44:28.184272
20.22479765,0.09828448296,0.6252241135,-0.05790102482,2024-06-05 19:44:28.224798
20.26525583,-0.4634776115,-0.5425195694,0.117850244,2024-06-05 19:44:28.265256
20.3057101,-0.7128796577,-0.4364395142,-0.04414469004,2024-06-05 19:44:28.305710
20.34614338,0.2628729343,0.4370861053,-0.7621438503,2024-06-05 19:44:28.346143
20.38665755,-0.2400350571,-0.1366205215,-0.2937600613,2024-06-05 19:44:28.386658
20.42721369,-0.3659157753,0.05496025085,-0.9214509726,2024-06-05 19:44:28.427214
20.46763098,-1.365551949,-1.091254234,-0.3675991297,2024-06-05 19:44:28.467631
20.50811749,-2.312560081,-0.8670873642,-0.3571041226,2024-06-05 19:44:28.508117
20.54861984,-2.333338976,-1.701317787,-0.9287080765,2024-06-05 19:44:28.548620
20.58914489,0.9557015896,-3.103790283,-0.8735609055,2024-06-05 19:44:28.589145
20.6296151,-0.4291136265,-1.913648605,-0.9866271019,2024-06-05 19:44:28.629615
20.66999744,-3.034545898,2.102752686,-1.708394289,2024-06-05 19:44:28.669997
20.71048593,-3.206268072,3.78610611,-2.549360752,2024-06-05 19:44:28.710486
20.75096713,-2.368621349,2.730250359,-3.246749401,2024-06-05 19:44:28.750967
20.79147354,-2.206275463,-3.035650253,-1.529252529,2024-06-05 19:44:28.791474
20.8319714,0.4420063496,-2.383259773,-1.19986558,2024-06-05 19:44:28.831971
20.87245265,2.548457384,0.3674077988,-0.3885028362,2024-06-05 19:44:28.872453
20.91290072,0.848398447,1.396635056,2.627443075,2024-06-05 19:44:28.912901
20.95340739,2.834825039,-1.628741264,6.235747814,2024-06-05 19:44:28.953407
20.99387697,1.484609127,-2.494809151,2.752814054,2024-06-05 19:44:28.993877
21.03435999,0.7196865082,5.11133194,2.380217552,2024-06-05 19:44:29.034360
21.0748489,2.688912392,3.880325794,-0.8497242928,2024-06-05 19:44:29.074849
21.11536734,0.4051117897,4.349582672,-2.57766366,2024-06-05 19:44:29.115367
21.15580942,2.130470753,2.630782127,-3.041519642,2024-06-05 19:44:29.155809
21.19629499,4.756641865,-1.792176247,3.887499332,2024-06-05 19:44:29.196295
21.23678468,3.378720284,-3.881324768,7.410177708,2024-06-05 19:44:29.236785
21.27727458,3.78249979,4.649055481,5.454483032,2024-06-05 19:44:29.277275
21.31776869,-1.608710289,3.718743086,1.102854729,2024-06-05 19:44:29.317769
21.35817765,-8.446266174,-1.334859848,-7.279502869,2024-06-05 19:44:29.358178
21.39869015,-0.8058581352,6.531495571,-4.887904644,2024-06-05 19:44:29.398690
21.43922994,-0.1550822258,3.824011803,1.485029697,2024-06-05 19:44:29.439230
21.47971202,5.483207226,-8.128118515,3.475195646,2024-06-05 19:44:29.479712
21.52019275,4.843291283,-3.595694542,1.652570486,2024-06-05 19:44:29.520193
21.56062687,-4.028947353,0.8064174652,-0.7216370106,2024-06-05 19:44:29.560627
21.60105536,-2.531079292,-0.8399181366,-1.828995466,2024-06-05 19:44:29.601055
21.64155525,-5.032833099,-3.862038612,2.420618296,2024-06-05 19:44:29.641555
21.68206895,-2.657876015,-1.672463417,-2.61587429,2024-06-05 19:44:29.682069
21.72253702,-0.0582318306,1.176140785,0.434899807,2024-06-05 19:44:29.722537
21.76302749,0.6349246502,1.747765541,1.36599803,2024-06-05 19:44:29.763027
21.80350979,-0.3069298267,-0.8188076019,0.1400003433,2024-06-05 19:44:29.803510
21.84396833,-2.514178038,-1.455152512,-0.1674284935,2024-06-05 19:44:29.843968
21.88444926,-1.777591705,0.2023010254,-0.0006499290466,2024-06-05 19:44:29.884449
21.92493604,-0.5196285248,-0.3504629135,0.2924780846,2024-06-05 19:44:29.924936
21.9654338,-0.5214295387,-0.4004507065,-0.2273783684,2024-06-05 19:44:29.965434
22.00593338,-1.501610518,-1.8073349,-0.5685148239,2024-06-05 19:44:30.005933
22.0464039,-0.7832343578,-0.330988884,-0.4364290237,2024-06-05 19:44:30.046404
22.0868626,0.002597332001,-0.791384697,-0.9060931206,2024-06-05 19:44:30.086863
22.12733447,-0.3101820946,-0.4705519676,0.1687381268,2024-06-05 19:44:30.127334
22.16784015,-0.4967222214,0.1224732399,0.1326019764,2024-06-05 19:44:30.167840
22.20831525,-1.932275772,0.1315631866,0.2121863365,2024-06-05 19:44:30.208315
22.24878307,-2.26973033,-0.8020143509,-0.5498487949,2024-06-05 19:44:30.248783
22.28928619,-2.939517975,-2.604077816,-0.8736784458,2024-06-05 19:44:30.289286
22.32977676,-1.49344492,-2.082297325,-0.5276384354,2024-06-05 19:44:30.329777
22.37023536,1.546996117,0.08631229401,-0.02414155006,2024-06-05 19:44:30.370235
22.41067005,1.105767727,-3.749331474,1.008066893,2024-06-05 19:44:30.410670
22.45114478,0.9468536377,1.152528763,2.776259661,2024-06-05 19:44:30.451145
22.49165239,4.199268341,2.184881687,4.875432968,2024-06-05 19:44:30.491652
22.53216942,2.09064579,0.6286649704,0.6884618998,2024-06-05 19:44:30.532169
22.57264828,2.84333849,0.1575593948,-0.4819512367,2024-06-05 19:44:30.572648
22.61317546,0.6210327148,2.177190781,1.357146025,2024-06-05 19:44:30.613175
22.65362333,0.3082165718,2.96878767,-1.382856846,2024-06-05 19:44:30.653623
22.69409197,-1.095352888,2.398875713,-1.755290151,2024-06-05 19:44:30.694092
22.73458395,-1.280717373,2.883790016,-2.016413927,2024-06-05 19:44:30.734584
22.7750426,3.096860647,-1.227226257,-1.246676803,2024-06-05 19:44:30.775043
22.81553499,2.960046768,1.895142078,3.434928417,2024-06-05 19:44:30.815535
22.85602812,-0.5815141201,1.240021706,1.848919392,2024-06-05 19:44:30.856028
22.89648895,0.158624649,-0.3883857727,-0.8087953329,2024-06-05 19:44:30.896489
22.93697442,1.657105446,-1.68060112,0.6123011112,2024-06-05 19:44:30.936974
22.97746848,-0.07108259201,0.3771896362,0.9264508486,2024-06-05 19:44:30.977468
23.01795228,0.5856730938,0.1245975494,0.3175938129,2024-06-05 19:44:31.017952
23.05840723,-0.5993673801,0.1630945206,0.3000973463,2024-06-05 19:44:31.058407
23.09887572,-1.428261518,-0.4211206436,-0.5634338856,2024-06-05 19:44:31.098876
23.13935359,-1.910342932,0.6116275787,-0.4646579027,2024-06-05 19:44:31.139354
23.17985041,0.118316412,-0.3017225266,0.04656243324,2024-06-05 19:44:31.179850
23.22033952,-1.047555208,0.1760349274,0.7217048407,2024-06-05 19:44:31.220340
23.2607852,-1.358421445,0.7403106689,-0.3871482313,2024-06-05 19:44:31.260785
23.30129411,0.3588831425,-1.329609871,0.09080196917,2024-06-05 19:44:31.301294
23.34172854,2.09497714,-0.5332517624,1.883885503,2024-06-05 19:44:31.341729
23.38226062,3.306157589,0.1181592941,0.3623817563,2024-06-05 19:44:31.382261
23.42273739,3.603303909,-1.596653938,1.060734749,2024-06-05 19:44:31.422737
23.46321796,5.194549561,-1.310272217,1.067380667,2024-06-05 19:44:31.463218
23.50368593,4.513101578,-1.218680382,-4.492519379,2024-06-05 19:44:31.503686
23.54417218,0.2176656723,-2.047533035,-2.948679924,2024-06-05 19:44:31.544172
23.5846576,-8.976836205,-2.490070343,-1.540004969,2024-06-05 19:44:31.584658
23.62519848,-7.302556038,0.1697511673,-0.1090377569,2024-06-05 19:44:31.625198
23.66564301,-3.532566071,4.175705433,0.3093546629,2024-06-05 19:44:31.665643
23.70612046,-1.983523846,6.242409706,-0.01895940304,2024-06-05 19:44:31.706120
23.74658515,-3.878572941,4.58580637,1.675240755,2024-06-05 19:44:31.746585
23.78710036,1.879158974,-0.8159389496,0.9182729721,2024-06-05 19:44:31.787100
23.8275477,13.88505077,-12.21464443,7.63572216,2024-06-05 19:44:31.827548
23.86802854,2.559348583,-4.20095396,-0.1714520454,2024-06-05 19:44:31.868029
23.90848729,-3.344844341,-3.105336666,-2.408426523,2024-06-05 19:44:31.908487
23.94899255,-5.141238213,2.613561153,-3.439527035,2024-06-05 19:44:31.948993
23.98950458,-3.676276207,6.212540627,-1.426855564,2024-06-05 19:44:31.989505
24.02993171,-0.9972043037,6.95741415,-2.512864828,2024-06-05 19:44:32.029932
24.07041255,0.2465782166,3.743346214,-2.252740145,2024-06-05 19:44:32.070413
24.11085531,-1.093548298,1.004419327,-0.03993964195,2024-06-05 19:44:32.110855
24.15133614,2.333520889,0.1683344841,4.457094193,2024-06-05 19:44:32.151336
24.19181348,3.121258736,-2.782920361,4.59747982,2024-06-05 19:44:32.191813
24.23235765,3.689725399,0.3868384361,4.965891361,2024-06-05 19:44:32.232358
24.27282275,4.465334892,-1.750605583,4.393966675,2024-06-05 19:44:32.272823
24.3133413,3.719706535,-2.351322174,3.063187599,2024-06-05 19:44:32.313341
24.35382072,-1.407619953,2.549072266,-3.468215466,2024-06-05 19:44:32.353821
24.39428296,-2.516612053,4.637799263,-6.752644539,2024-06-05 19:44:32.394283
24.43473645,0.3872704506,0.9291934967,-0.1743733883,2024-06-05 19:44:32.434736
24.47525807,1.641226292,-1.468184471,-2.307168245,2024-06-05 19:44:32.475258
24.51571114,-0.4778511524,-0.07393264771,-2.349422693,2024-06-05 19:44:32.515711
24.55620687,-0.5841138363,-0.07192993164,-3.771235466,2024-06-05 19:44:32.556207
24.59668515,-2.626444817,-1.900607109,0.4630149305,2024-06-05 19:44:32.596685
24.63716343,-3.59302187,-1.170012474,0.5601645708,2024-06-05 19:44:32.637163
24.67764749,-2.393962622,-0.818526268,0.7310091853,2024-06-05 19:44:32.677647
24.71813176,-0.5238640308,-0.144077301,0.2990304828,2024-06-05 19:44:32.718132
24.75858708,-0.4851055145,-0.2811040878,1.327882648,2024-06-05 19:44:32.758587
24.79912036,-1.44093585,-0.2019128799,0.684111774,2024-06-05 19:44:32.799120
24.83959354,-0.7824757099,-0.02053451538,0.65169698,2024-06-05 19:44:32.839594
24.88007411,-1.03903389,-0.03643512726,0.9219685793,2024-06-05 19:44:32.880074
24.92048187,-1.811897755,-0.7320375443,1.612556934,2024-06-05 19:44:32.920482
24.96097437,-2.241744518,-1.729740143,1.096442938,2024-06-05 19:44:32.960974
25.00145489,-2.792345524,-3.945618629,2.061266661,2024-06-05 19:44:33.001455
25.04194489,-1.936790943,-4.591734886,4.146846771,2024-06-05 19:44:33.041945
25.08244432,1.213489056,-4.860463142,6.595275402,2024-06-05 19:44:33.082444
25.12292359,3.13471365,-2.59353447,4.640937805,2024-06-05 19:44:33.122924
25.1634076,3.100231171,-0.5673046112,-5.668590546,2024-06-05 19:44:33.163408
25.20390692,0.2875645161,0.7863931656,-7.900296688,2024-06-05 19:44:33.203907
25.24439005,0.5778267384,-3.872864723,0.3734107018,2024-06-05 19:44:33.244390
25.28484666,-1.26616919,-0.3963260651,-4.101969719,2024-06-05 19:44:33.284847
25.3253027,0.07638502121,4.163927555,-4.067169189,2024-06-05 19:44:33.325303
25.36578682,-0.0811290741,4.895636559,-5.067513466,2024-06-05 19:44:33.365787
25.40631312,0.3846552372,4.767979622,-3.965069771,2024-06-05 19:44:33.406313
25.44678025,1.366415262,5.612199783,-1.755959749,2024-06-05 19:44:33.446780
25.48726307,2.332675457,0.2643518448,1.446681976,2024-06-05 19:44:33.487263
25.527754,-1.954494119,-11.67101383,13.86697197,2024-06-05 19:44:33.527754
25.56822551,1.535390377,1.025808334,-0.2846651077,2024-06-05 19:44:33.568226
25.60868838,3.393349171,4.108585835,-6.33458519,2024-06-05 19:44:33.608688
25.64920281,4.693557739,-6.014461517,0.97727108,2024-06-05 19:44:33.649203
25.68970697,-1.299013138,4.057542801,-11.17134953,2024-06-05 19:44:33.689707
25.73014031,2.732536793,2.476338387,-0.03590786457,2024-06-05 19:44:33.730140
25.7705765,0.3143947124,-3.383429527,-1.07382834,2024-06-05 19:44:33.770577
25.81105796,-3.644410849,-1.471403122,-3.162915707,2024-06-05 19:44:33.811058
25.85153953,-1.017379522,-0.3029737473,0.8553632498,2024-06-05 19:44:33.851540
25.89206453,0.04911017418,1.005753994,0.700391531,2024-06-05 19:44:33.892065
25.93254041,0.02065300941,0.4744100571,-1.718182564,2024-06-05 19:44:33.932540
25.97302781,-0.5917692184,0.4676523209,-1.042924047,2024-06-05 19:44:33.973028
26.01354791,-1.395572424,-1.629487991,2.172101259,2024-06-05 19:44:34.013548
26.05400968,-0.8913259506,-0.5145254135,2.282058477,2024-06-05 19:44:34.054010
26.09447359,0.5446243286,0.02203845978,-0.5810620189,2024-06-05 19:44:34.094474
26.13494953,-0.04428339005,-0.1835336685,-1.581243157,2024-06-05 19:44:34.134950
26.17542578,2.066750526,-0.2033205032,0.8091748953,2024-06-05 19:44:34.175426
26.21592515,4.619513988,-2.398679733,-5.022720337,2024-06-05 19:44:34.215925
26.25639812,3.208425045,1.333179951,-2.232761383,2024-06-05 19:44:34.256398
26.29686166,2.206247807,2.052235126,-2.769816875,2024-06-05 19:44:34.296862
26.33730864,1.447239399,1.082286835,-1.466041565,2024-06-05 19:44:34.337309
26.37782968,1.911819458,1.191454887,1.004058957,2024-06-05 19:44:34.377830
26.4183277,-0.2044510841,1.249783993,-0.4679425955,2024-06-05 19:44:34.418328
26.45879557,-0.7609753609,1.243906021,0.3139984012,2024-06-05 19:44:34.458796
26.49931671,-0.6805434227,0.9308757782,0.5794992447,2024-06-05 19:44:34.499317
26.53977635,-0.8383984566,0.9258460999,0.06024511158,2024-06-05 19:44:34.539776
26.58023473,-0.6544528008,1.733910561,-0.03058439493,2024-06-05 19:44:34.580235
26.6207151,0.6068868637,1.839886189,-0.6090152264,2024-06-05 19:44:34.620715
26.66115994,1.983046055,3.240968704,-0.9311161041,2024-06-05 19:44:34.661160
26.70162192,2.889224529,4.791904449,-0.9932213426,2024-06-05 19:44:34.701622
26.74216015,0.5271401405,2.457324505,-0.1346734166,2024-06-05 19:44:34.742160
26.78270088,2.196146488,0.8060936928,0.02390360832,2024-06-05 19:44:34.782701
26.82318046,2.331335068,1.457481861,-2.167752266,2024-06-05 19:44:34.823180
26.86357192,4.714941502,1.455516338,-1.634435534,2024-06-05 19:44:34.863572
26.90408578,5.556844234,-1.751919746,1.266982079,2024-06-05 19:44:34.904086
26.94456963,1.919981003,-5.325063229,0.02070343494,2024-06-05 19:44:34.944570
26.98505135,-4.433782578,-3.873272896,2.868436813,2024-06-05 19:44:34.985051
27.02551437,-8.019629478,-4.396185875,0.7898625135,2024-06-05 19:44:35.025514
27.0660127,-5.291206837,-7.173033714,3.901933193,2024-06-05 19:44:35.066013
27.10643166,-2.352315903,-1.313200951,0.2544541061,2024-06-05 19:44:35.106432
27.14698187,-0.5733861923,0.6587572098,-1.862328053,2024-06-05 19:44:35.146982
27.18747499,-1.752130985,1.705090523,-0.1159588695,2024-06-05 19:44:35.187475
27.22794697,-0.1575660706,0.2909669876,4.250228405,2024-06-05 19:44:35.227947
27.26842864,-0.6038961411,-0.3387784958,1.149299145,2024-06-05 19:44:35.268429
27.30890916,-1.770517588,0.2084636688,1.156380653,2024-06-05 19:44:35.308909
27.34931249,-1.636325836,-0.1229324341,-0.8299210072,2024-06-05 19:44:35.349312
27.38986817,-0.6341047287,-0.5348453522,-1.68961978,2024-06-05 19:44:35.389868
27.43034926,0.348282814,-2.055950165,2.97061491,2024-06-05 19:44:35.430349
27.47075583,-0.7133989334,2.26954174,-1.908101201,2024-06-05 19:44:35.470756
27.51123692,-1.585229874,-1.756251335,-3.279162645,2024-06-05 19:44:35.511237
27.55171801,2.308086395,-0.1956453323,-0.4789929986,2024-06-05 19:44:35.551718
27.59223999,2.710434914,1.350347519,3.661930799,2024-06-05 19:44:35.592240
27.63273499,-0.8236236572,1.324146271,-0.3460537791,2024-06-05 19:44:35.632735
27.67321791,-0.9736523628,1.789433479,-0.4807481766,2024-06-05 19:44:35.673218
27.7136889,0.04212665558,-1.712851524,-0.04399728775,2024-06-05 19:44:35.713689
27.75419562,-1.068029881,-0.9598178864,2.439999104,2024-06-05 19:44:35.754196
27.79468755,-0.05750656128,-0.6031999588,0.637083292,2024-06-05 19:44:35.794688
27.83516828,-0.08374547958,0.7689695358,-0.04635035992,2024-06-05 19:44:35.835168
27.87564874,-0.3366999626,0.2549829483,-0.2378288507,2024-06-05 19:44:35.875649
27.91609609,-0.1649122238,-0.06416511536,0.4350877404,2024-06-05 19:44:35.916096
27.95657473,0.2830553055,-0.3538074493,0.5881161094,2024-06-05 19:44:35.956575
27.99708942,0.04038286209,0.3228673935,-0.1282250881,2024-06-05 19:44:35.997089
28.03754828,0.03066730499,0.3629875183,-0.8355801105,2024-06-05 19:44:36.037548
28.0780263,0.4006788731,0.02438640594,-0.3752977848,2024-06-05 19:44:36.078026
28.11846062,0.08401107788,-0.1912889481,0.9908372164,2024-06-05 19:44:36.118461
28.15897973,0.02514410019,-0.1639413834,0.0903544426,2024-06-05 19:44:36.158980
28.19953744,-0.09048628807,0.08078289032,-0.5123976469,2024-06-05 19:44:36.199537
28.23999739,-0.1142225266,0.1738195419,-0.3816577196,2024-06-05 19:44:36.239997
28.28037749,0.4950315952,0.1494455338,-0.06200027466,2024-06-05 19:44:36.280377
28.3208589,0.6203324795,0.0390663147,1.104896784,2024-06-05 19:44:36.320859
28.361364,-0.3653559685,0.0233335495,-0.0770663023,2024-06-05 19:44:36.361364
28.40187676,-0.6166191101,-0.1649131775,-0.8688755035,2024-06-05 19:44:36.401877
28.44237463,-0.459482193,-0.2810258865,0.03583788872,2024-06-05 19:44:36.442375
28.48286171,0.2764391899,0.2518997192,1.20039618,2024-06-05 19:44:36.482862
28.5233227,-0.1894278526,-0.07471656799,-0.1838787794,2024-06-05 19:44:36.523323
28.56380604,-0.8176934719,-0.2380495071,-0.5605655909,2024-06-05 19:44:36.563806
28.60431239,-0.4261054993,0.02669048309,-0.1114263535,2024-06-05 19:44:36.604312
28.64477942,-0.1565773487,0.1808452606,0.5316157937,2024-06-05 19:44:36.644779
28.68525859,-0.7294187546,-0.042552948,0.4005278349,2024-06-05 19:44:36.685259
28.72574604,-1.477124453,-0.7536220551,0.07390761375,2024-06-05 19:44:36.725746
28.76623489,-0.6702265739,-0.937376976,0.9062359929,2024-06-05 19:44:36.766235
28.8067164,1.366090298,-1.187619209,1.262108207,2024-06-05 19:44:36.806716
28.84717463,2.704732895,-0.7752580643,0.6031756401,2024-06-05 19:44:36.847175
28.88764708,3.300190926,0.04695510864,-0.526293695,2024-06-05 19:44:36.887647
28.9281251,2.540483952,1.700620174,-0.8457264304,2024-06-05 19:44:36.928125
28.9686188,-0.09828662872,3.13342905,-1.703375459,2024-06-05 19:44:36.968619
29.00908312,-1.651831388,3.032385826,-2.704773188,2024-06-05 19:44:37.009083
29.0496015,-1.442118645,1.62124157,-2.18719244,2024-06-05 19:44:37.049602
29.09009692,-0.5554580688,1.601622581,-0.6842665672,2024-06-05 19:44:37.090097
29.13054775,3.150279522,2.363451481,3.260604143,2024-06-05 19:44:37.130548
29.17096249,1.817135811,4.001119137,-3.875450611,2024-06-05 19:44:37.170962
29.21143182,2.022331238,2.731012344,2.071326256,2024-06-05 19:44:37.211432
29.25195135,3.623335361,3.103192806,0.1860865653,2024-06-05 19:44:37.251951
29.29244734,7.038396835,1.410952568,-3.231627703,2024-06-05 19:44:37.292447
29.33286937,1.684354782,-4.377099037,-0.4003983736,2024-06-05 19:44:37.332869
29.37338739,1.392229557,-6.090777397,-2.475117683,2024-06-05 19:44:37.373387
29.41388468,-1.09372282,-3.513185501,1.218899727,2024-06-05 19:44:37.413885
29.45437223,-2.941311836,-2.274817467,5.694252014,2024-06-05 19:44:37.454372
29.49486676,-4.17111063,-6.239528656,-0.5730403662,2024-06-05 19:44:37.494867
29.53533682,-8.031578064,-2.001573563,-0.614580512,2024-06-05 19:44:37.535337
29.57582786,-3.219517946,2.689855099,-0.8633275032,2024-06-05 19:44:37.575828
29.61630911,-0.1386651993,0.3048238754,0.45964396,2024-06-05 19:44:37.616309
29.65678572,4.050999165,0.7576560974,6.943448067,2024-06-05 19:44:37.656786
29.69726963,0.08513498306,1.906342983,-0.9160455465,2024-06-05 19:44:37.697270
29.73775458,-3.340707541,-1.356200218,-1.841247797,2024-06-05 19:44:37.737755
29.7782552,-6.612663269,-2.088189125,7.482278347,2024-06-05 19:44:37.778255
29.81870765,-3.218876123,-0.005166053772,-1.194705963,2024-06-05 19:44:37.818708
29.85916994,-1.735853434,-0.2753400803,0.7031152248,2024-06-05 19:44:37.859170
29.89965854,-1.684656382,-0.5047178268,1.777454138,2024-06-05 19:44:37.899659
29.94014343,0.4271678925,0.1915416718,1.848053455,2024-06-05 19:44:37.940143
29.98062468,1.089494705,-0.6369581223,-0.2644910812,2024-06-05 19:44:37.980625
30.02109072,-2.189480305,-2.167443275,3.243623972,2024-06-05 19:44:38.021091
30.06156437,-4.353384972,-2.050105095,2.269766808,2024-06-05 19:44:38.061564
30.10203124,-3.232056141,-2.102215767,0.66746068,2024-06-05 19:44:38.102031
30.14254926,-2.446172237,-3.603298187,3.292812347,2024-06-05 19:44:38.142549
30.18301369,-2.017116308,-4.351195335,1.876048565,2024-06-05 19:44:38.183014
30.22352963,0.4567246437,-4.422183037,4.385595322,2024-06-05 19:44:38.223530
30.26402395,2.646538734,-2.602876663,1.40075326,2024-06-05 19:44:38.264024
30.30449958,3.099038124,-1.606107712,-2.677182198,2024-06-05 19:44:38.304500
30.34492624,4.513308048,0.6736783981,-2.828177214,2024-06-05 19:44:38.344926
30.3854276,5.938786507,1.827993393,-3.213412523,2024-06-05 19:44:38.385428
30.42591468,4.308035851,3.366316795,-2.135764599,2024-06-05 19:44:38.425915
30.46640807,2.945576191,4.611526489,-1.626226187,2024-06-05 19:44:38.466408
30.5068852,1.119307518,4.385146618,-1.184832454,2024-06-05 19:44:38.506885
30.54738833,-0.7398099899,3.69756794,-0.6917437911,2024-06-05 19:44:38.547388
30.58786229,-2.056954145,2.141313553,-0.02044354007,2024-06-05 19:44:38.587862
30.62834328,-2.75579834,0.6435031891,4.879538059,2024-06-05 19:44:38.628343
30.66882359,-2.601338148,3.462332726,-2.821690798,2024-06-05 19:44:38.668824
30.70935828,-1.916644335,3.871298313,-2.881215811,2024-06-05 19:44:38.709358
30.74982828,2.566709995,-1.846768379,-4.466638565,2024-06-05 19:44:38.749828
30.79019244,3.900290728,-1.046080589,13.21689129,2024-06-05 19:44:38.790192
30.83073015,-2.584620953,0.5935716629,-7.33775425,2024-06-05 19:44:38.830730
30.87121072,-10.74450493,-1.979895592,11.11999512,2024-06-05 19:44:38.871211
30.91169135,-3.73721981,0.4583063126,1.275202751,2024-06-05 19:44:38.911691
30.95217218,1.259870529,-2.175930977,-12.74778652,2024-06-05 19:44:38.952172
30.99265192,7.355635166,-5.550186157,0.4810667038,2024-06-05 19:44:38.992652
31.03313249,12.29681492,-0.2835988998,-3.284523964,2024-06-05 19:44:39.033132
31.07361692,9.166339874,-1.728291512,-10.70164394,2024-06-05 19:44:39.073617
31.11409749,12.62233543,-4.069841385,-5.394031525,2024-06-05 19:44:39.114097
31.15458041,7.03940773,-1.502819061,2.221230507,2024-06-05 19:44:39.154580
31.19504437,-1.326131701,-6.027412415,3.768923759,2024-06-05 19:44:39.195044
31.23557947,-2.040616035,-2.534797668,3.698905468,2024-06-05 19:44:39.235579
31.27604218,-2.659013748,-0.08446979523,0.9380335212,2024-06-05 19:44:39.276042
31.31648906,-4.227752209,1.038264275,-0.09869425744,2024-06-05 19:44:39.316489
31.35692755,-4.098914146,3.366825104,2.377373695,2024-06-05 19:44:39.356928
31.39746478,-3.713955402,2.881722927,0.1670441478,2024-06-05 19:44:39.397465
31.43800723,-2.687499523,0.9024124146,1.890452027,2024-06-05 19:44:39.438007
31.47842604,-2.508547306,-0.6765041351,2.247619152,2024-06-05 19:44:39.478426
31.51888916,-0.7026414871,0.4418306351,0.8592789173,2024-06-05 19:44:39.518889
31.55944656,-1.571538687,0.1603021622,1.51134944,2024-06-05 19:44:39.559447
31.5999138,-0.03609609604,-0.3661899567,2.531265736,2024-06-05 19:44:39.599914
31.64031228,-1.410967112,-0.8742990494,-0.1913143396,2024-06-05 19:44:39.640312
31.68079203,-2.202775955,-1.560585976,0.4650316238,2024-06-05 19:44:39.680792
31.72127182,-1.09005022,-0.6001663208,2.269943237,2024-06-05 19:44:39.721272
31.76176275,-0.1819236279,-0.1292867661,1.175345659,2024-06-05 19:44:39.761763
31.80226624,0.01480269432,-1.071575165,0.1747710705,2024-06-05 19:44:39.802266
31.84274906,0.3760724068,-0.4995861053,-0.4174312353,2024-06-05 19:44:39.842749
31.88322791,1.362752914,-0.5068445206,0.4206074476,2024-06-05 19:44:39.883228
31.9237114,1.336931467,-0.1561203003,0.2817311287,2024-06-05 19:44:39.923711
31.96419708,0.5345978737,1.556471825,-0.04466485977,2024-06-05 19:44:39.964197
32.00468426,0.368209362,1.681073666,-0.6119718552,2024-06-05 19:44:40.004684
32.0452001,1.125830173,1.202779293,-0.9792038202,2024-06-05 19:44:40.045200
32.08564921,1.826881886,1.44247818,-1.006221533,2024-06-05 19:44:40.085649
32.12611822,2.111626148,1.666211128,-1.087386608,2024-06-05 19:44:40.126118
32.16657671,2.502044201,2.404551506,-1.47811079,2024-06-05 19:44:40.166577
32.20707088,1.902652264,2.339481354,-1.877699852,2024-06-05 19:44:40.207071
32.24757604,2.331047535,1.089209557,-2.501224041,2024-06-05 19:44:40.247576
32.28805333,1.118763924,2.377434731,-1.398631811,2024-06-05 19:44:40.288053
32.32849994,-1.368442535,4.044536114,-0.899502039,2024-06-05 19:44:40.328500
32.3689965,-3.467880487,5.498459816,-1.301867962,2024-06-05 19:44:40.368997
32.40953734,-6.87304306,5.223038673,-2.911209822,2024-06-05 19:44:40.409537
32.45001478,0.7210483551,-4.495536804,18.98563004,2024-06-05 19:44:40.450015
32.49046213,-2.932966232,-16.16605568,-4.512519836,2024-06-05 19:44:40.490462
32.53087645,-2.340128422,-10.13084602,0.1190657616,2024-06-05 19:44:40.530876
32.57135682,-3.744284868,-13.06237221,6.935250282,2024-06-05 19:44:40.571357
32.61183713,-1.064126492,-12.72015953,9.518562317,2024-06-05 19:44:40.611837
32.65234989,-5.950314045,-6.027064323,11.40376282,2024-06-05 19:44:40.652350
32.69286328,-3.747362852,-1.197356224,1.933366537,2024-06-05 19:44:40.692863
32.73334098,-2.107886076,1.1291008,-3.444256067,2024-06-05 19:44:40.733341
32.77381478,-2.288468122,-7.310332298,2.648472548,2024-06-05 19:44:40.773815
32.81428536,-4.544524193,-22.30778885,-5.160879135,2024-06-05 19:44:40.814285
32.85476135,4.878818512,-8.560572624,-7.286688805,2024-06-05 19:44:40.854761
32.89525109,2.955993176,4.140154839,-11.79362774,2024-06-05 19:44:40.895251
32.93573859,2.078044891,14.27356625,-12.77295589,2024-06-05 19:44:40.935739
32.97621838,2.697691202,15.59659004,-9.027135849,2024-06-05 19:44:40.976218
33.01670202,-1.29084909,11.76350212,-1.759595871,2024-06-05 19:44:41.016702
33.05718062,-6.620820045,3.480026245,8.226207733,2024-06-05 19:44:41.057181
33.09765937,6.229612827,-16.04596329,-0.3231825829,2024-06-05 19:44:41.097659
33.13812244,15.05705452,-28.4689045,7.252055645,2024-06-05 19:44:41.138122
33.17861202,7.718649864,-0.1994271278,-24.97496033,2024-06-05 19:44:41.178612
33.21910614,-2.344313622,11.46288872,-9.900301933,2024-06-05 19:44:41.219106
33.25962728,2.797923565,-18.92671585,2.831211567,2024-06-05 19:44:41.259627
33.30012713,1.412389398,1.085240841,-0.8702845573,2024-06-05 19:44:41.300127
33.34061041,2.81459856,1.33266449,-2.429967403,2024-06-05 19:44:41.340610
33.38099078,2.802850723,-8.73348999,-0.2688121796,2024-06-05 19:44:41.380991
33.42146411,0.7476283312,-1.17225647,-1.519166946,2024-06-05 19:44:41.421464
33.46196676,1.473632693,0.6627082825,-2.579086781,2024-06-05 19:44:41.461967
33.5024802,0.5342828631,-2.870192051,-0.8076834679,2024-06-05 19:44:41.502480
33.54293296,1.146381021,-1.49225235,-2.377368927,2024-06-05 19:44:41.542933
33.58344952,3.273983479,0.4281792641,-4.116829395,2024-06-05 19:44:41.583450
33.62393343,5.329385281,-1.030636787,-6.24471283,2024-06-05 19:44:41.623933
33.66439963,4.791013718,-5.664388657,-2.554787159,2024-06-05 19:44:41.664400
33.70489578,0.9048604965,-1.846497536,-0.1948096752,2024-06-05 19:44:41.704896
33.74536895,-7.988692284,2.084766388,3.290358543,2024-06-05 19:44:41.745369
33.78588036,-4.340968132,0.4681239128,3.010693073,2024-06-05 19:44:41.785880
33.82630411,0.2970812321,0.279460907,-0.8797745705,2024-06-05 19:44:41.826304
33.86678578,0.2938876152,2.528089523,-3.944007874,2024-06-05 19:44:41.866786
33.90728478,1.295069933,4.442530632,-1.405422688,2024-06-05 19:44:41.907285
33.94775916,2.613001347,1.766180992,-0.7145266533,2024-06-05 19:44:41.947759
33.98821942,2.90323925,-0.5427560806,1.6378932,2024-06-05 19:44:41.988219
34.02872505,0.4119400978,-0.491399765,-0.141099453,2024-06-05 19:44:42.028725
34.06927192,-0.859500885,1.670186996,-1.438814998,2024-06-05 19:44:42.069272
34.10964937,0.9218292236,1.900470257,3.623764753,2024-06-05 19:44:42.109649
34.15013104,-6.320860386,1.456743717,-6.795367241,2024-06-05 19:44:42.150131
34.19061843,-8.471458435,3.398426056,9.388231277,2024-06-05 19:44:42.190618
34.23109708,-6.694280624,-16.05184555,17.07480621,2024-06-05 19:44:42.231097
34.27157859,-5.825235367,-11.95975971,3.372303963,2024-06-05 19:44:42.271579
34.31211437,-8.244566917,-3.276502609,-1.529403448,2024-06-05 19:44:42.312114
34.35252567,-3.972042322,-4.492582321,6.463625908,2024-06-05 19:44:42.352526
34.39307817,-0.8077878952,-1.269284248,-6.389930248,2024-06-05 19:44:42.393078
34.43351531,1.786020279,1.32447052,-10.52300072,2024-06-05 19:44:42.433515
34.47400963,16.28786659,-0.5763607025,4.497310638,2024-06-05 19:44:42.474010
34.51450562,10.74836063,0.8494229317,-13.84534454,2024-06-05 19:44:42.514506
34.55499234,-1.563684702,8.912891388,-3.017130852,2024-06-05 19:44:42.554992
34.59547072,-19.83425522,-3.673146725,8.626413345,2024-06-05 19:44:42.595471
34.63595442,4.14009285,-3.381425381,6.951032639,2024-06-05 19:44:42.635954
34.67640833,-4.058884144,8.00423336,-0.08844995499,2024-06-05 19:44:42.676408
34.71691015,-0.188839674,-5.325341225,1.168502331,2024-06-05 19:44:42.716910
34.75738114,2.012206078,-4.886897087,1.873291969,2024-06-05 19:44:42.757381
34.79787119,1.580479145,-2.114402294,2.049685001,2024-06-05 19:44:42.797871
34.83832447,3.219412088,-0.9899616241,1.459642887,2024-06-05 19:44:42.838324
34.87880505,4.936526299,-3.058671474,1.673924923,2024-06-05 19:44:42.878805
34.91926744,1.499134779,-0.4914183617,1.477643013,2024-06-05 19:44:42.919267
34.95986031,1.270946503,-1.594276428,1.999147415,2024-06-05 19:44:42.959860
35.00021682,2.62022543,-2.037903309,1.904845715,2024-06-05 19:44:43.000217
35.04070051,4.032723904,-0.7144780159,0.7432451248,2024-06-05 19:44:43.040701
35.08117885,4.682412624,0.3103113174,-0.1176874638,2024-06-05 19:44:43.081179
35.12167119,3.682555676,1.012066364,-0.2931718826,2024-06-05 19:44:43.121671
35.16217968,2.684618473,0.7545251846,-0.07826542854,2024-06-05 19:44:43.162180
35.20269078,2.822423458,1.242286682,0.03508901596,2024-06-05 19:44:43.202691
35.243169,2.838283539,3.335158825,-1.393781424,2024-06-05 19:44:43.243169
35.28364859,1.12644434,4.040696144,-4.946756363,2024-06-05 19:44:43.283649
35.32410609,-1.779693127,3.511392355,-7.496285439,2024-06-05 19:44:43.324106
35.36456958,-3.371965408,2.897636175,-6.937580109,2024-06-05 19:44:43.364570
35.40508588,-2.555762529,4.20310688,-3.842915058,2024-06-05 19:44:43.405086
35.44557567,-5.754470348,2.972408295,0.7016267776,2024-06-05 19:44:43.445576
35.48604505,-7.842556,-2.239121914,1.730855465,2024-06-05 19:44:43.486045
35.52652916,1.875028849,-5.366456032,-8.503512383,2024-06-05 19:44:43.526529
35.56701874,4.764538765,-4.019119263,2.72512579,2024-06-05 19:44:43.567019
35.60750531,8.23146534,-2.802013397,-3.774083853,2024-06-05 19:44:43.607505
35.64798645,3.433238745,-7.648133278,-3.919574499,2024-06-05 19:44:43.647986
35.68844468,-0.9625961781,-4.850466728,4.613610744,2024-06-05 19:44:43.688445
35.72893895,-2.087505341,1.404212952,4.25359726,2024-06-05 19:44:43.728939
35.76945984,-2.089949131,6.311408997,0.2906682789,2024-06-05 19:44:43.769460
35.8099176,-4.326048374,8.408454895,-0.1186656356,2024-06-05 19:44:43.809918
35.85039801,-6.967804909,7.935461044,-4.287190914,2024-06-05 19:44:43.850398
35.89080926,-5.398794174,2.184529305,-2.383059263,2024-06-05 19:44:43.890809
35.93127656,-3.946207047,-12.37480736,14.21387196,2024-06-05 19:44:43.931277
35.97178385,-2.710762739,-3.270054817,12.12272167,2024-06-05 19:44:43.971784
36.01228926,-3.107283592,-5.469285011,-3.516646385,2024-06-05 19:44:44.012289
36.05276255,5.461867332,-7.127001762,-4.319899559,2024-06-05 19:44:44.052763
36.09323656,7.087848663,-12.65877819,-5.569653511,2024-06-05 19:44:44.093237
36.13373604,11.37264061,-0.3183288574,-2.757824183,2024-06-05 19:44:44.133736
36.17422452,4.459246159,1.85076952,-4.22384882,2024-06-05 19:44:44.174225
36.21471406,1.720248699,2.498520851,-4.720230103,2024-06-05 19:44:44.214714
36.25518598,1.931940079,7.036177635,-3.735127211,2024-06-05 19:44:44.255186
36.29565239,1.832465172,7.621842384,-3.403161526,2024-06-05 19:44:44.295652
36.33608864,0.2953034639,7.728919029,-2.785982609,2024-06-05 19:44:44.336089
36.37659119,-2.346358061,4.559537888,12.9566555,2024-06-05 19:44:44.376591
36.41709703,2.766610622,0.2289714813,-8.603052139,2024-06-05 19:44:44.417097
36.45757718,15.77753067,-15.27164555,-9.273692131,2024-06-05 19:44:44.457577
36.49805874,3.437391281,-5.706036568,-0.8048138618,2024-06-05 19:44:44.498059
36.53853619,8.979365349,-6.587814331,-5.396327019,2024-06-05 19:44:44.538536
36.57905687,7.424413204,-1.460878372,2.830820084,2024-06-05 19:44:44.579057
36.61955015,2.311189651,2.514793396,-6.256220818,2024-06-05 19:44:44.619550
36.66002656,-2.192581415,4.495882034,-4.405925751,2024-06-05 19:44:44.660027
36.70050744,-6.190313339,0.3179035187,1.123130679,2024-06-05 19:44:44.700507
36.74092291,-2.987371922,0.1765222549,2.661703825,2024-06-05 19:44:44.740923
36.78137104,2.28884244,-0.3405866623,3.947877407,2024-06-05 19:44:44.781371
36.82191817,-3.494499207,-2.129029274,0.1810202599,2024-06-05 19:44:44.821918
36.8623765,-2.843594551,-1.895074844,-4.432239532,2024-06-05 19:44:44.862377
36.90285775,-0.9750806093,-1.777594566,-0.0007672309875,2024-06-05 19:44:44.902858
36.94335062,0.01355004311,0.882481575,2.313030005,2024-06-05 19:44:44.943351
36.98383531,-0.5872685909,1.946363449,-1.562696934,2024-06-05 19:44:44.983835
37.02433239,-2.282973766,2.001188755,-0.7705328465,2024-06-05 19:44:45.024332
37.06481109,-2.488243341,2.408380985,-0.1570711136,2024-06-05 19:44:45.064811
37.10527197,-1.258449554,1.078852177,-0.01310133934,2024-06-05 19:44:45.105272
37.14574947,-0.9318258762,-0.6720943451,2.503333092,2024-06-05 19:44:45.145749
37.18622687,-3.450499773,0.3837919235,2.684234142,2024-06-05 19:44:45.186227
37.22673578,-1.804260135,-2.68148613,3.560204983,2024-06-05 19:44:45.226736
37.2672039,2.337328196,-7.25592804,4.285251617,2024-06-05 19:44:45.267204
37.30769228,-1.610271692,2.46037674,-2.227241278,2024-06-05 19:44:45.307692
37.34812328,0.9698579311,5.829023361,-2.319537401,2024-06-05 19:44:45.348123
37.38865817,0.7360277176,-1.414979935,-5.387207985,2024-06-05 19:44:45.388658
37.42918619,-0.4962694645,-2.689804077,-7.471247673,2024-06-05 19:44:45.429186
37.4696552,-1.022549868,0.9292812347,-1.998593688,2024-06-05 19:44:45.469655
37.51002484,-0.9468244314,-0.75111866,0.1337732673,2024-06-05 19:44:45.510025
37.55052807,-2.802385092,-0.761174202,1.987279058,2024-06-05 19:44:45.550528
37.59101312,-1.648704529,-0.3524303436,3.273623705,2024-06-05 19:44:45.591013
37.6314952,-0.0861723423,0.1454572678,0.5877635479,2024-06-05 19:44:45.631495
37.67199973,-1.215354204,-0.4853477478,1.294772625,2024-06-05 19:44:45.672000
37.71249296,-1.68543005,-0.9156179428,1.515347123,2024-06-05 19:44:45.712493
37.75296369,-1.168898582,-0.01029396057,1.060512781,2024-06-05 19:44:45.752964
37.79353078,-0.06637310982,0.1892375946,1.568990111,2024-06-05 19:44:45.793531
37.83392119,-1.017758369,-0.1391448975,1.677481771,2024-06-05 19:44:45.833921
37.87440864,-1.724329114,-1.974596977,0.2554414272,2024-06-05 19:44:45.874409
37.91487723,-0.5541865826,-3.007472992,1.06315279,2024-06-05 19:44:45.914877
37.95536749,0.9597153664,-3.088183403,5.5623703,2024-06-05 19:44:45.955367
37.99586979,4.237371922,-1.882171631,3.691064358,2024-06-05 19:44:45.995870
38.03632244,5.008192539,0.3397064209,-1.184277296,2024-06-05 19:44:46.036322
38.07681135,4.11199522,1.534261703,-6.964357376,2024-06-05 19:44:46.076811
38.1173226,3.828043461,-0.1111698151,-3.696007252,2024-06-05 19:44:46.117323
38.1577576,-1.18492341,-1.728720665,-3.220795631,2024-06-05 19:44:46.157758
38.19828176,-2.216944218,-0.3780574799,-1.836826086,2024-06-05 19:44:46.198282
38.23873171,0.589114666,2.989735126,-0.2179875374,2024-06-05 19:44:46.238732
38.27928275,0.927919209,0.004507064819,1.448938131,2024-06-05 19:44:46.279283
38.31973124,5.448845387,4.281792164,-3.198266506,2024-06-05 19:44:46.319731
38.36015281,6.664856911,5.378040791,-0.2060570717,2024-06-05 19:44:46.360153
38.40066098,1.12992692,-0.4342298508,0.4704778194,2024-06-05 19:44:46.400661
38.44109791,-0.7799743414,-1.903722763,-0.2711632252,2024-06-05 19:44:46.441098
38.48160041,-0.4946190119,0.4943685532,1.430032492,2024-06-05 19:44:46.481600
38.52211442,0.009586572647,0.4883928299,-0.06006121635,2024-06-05 19:44:46.522114
38.56258562,-0.5649740696,0.1560935974,0.7895658016,2024-06-05 19:44:46.562586
38.60309083,-1.480467558,-0.2505884171,1.656348467,2024-06-05 19:44:46.603091
38.64356468,-0.9971151352,0.7666826248,1.56581378,2024-06-05 19:44:46.643565
38.6840414,-0.902997613,-0.02883434296,1.474109292,2024-06-05 19:44:46.684041
38.72452562,-1.580660582,-0.3056697845,1.593329787,2024-06-05 19:44:46.724526
38.76499614,-2.435760736,-0.5106735229,1.767816544,2024-06-05 19:44:46.764996
38.805479,-0.7074824572,-1.460190773,0.5920815468,2024-06-05 19:44:46.805479
38.845939,2.131361246,-5.225605965,3.44130373,2024-06-05 19:44:46.845939
38.88642098,0.0634162426,1.829662323,-0.06719815731,2024-06-05 19:44:46.886421
38.92691046,1.29130435,5.71054554,-2.232778549,2024-06-05 19:44:46.926910
38.96740916,2.063980818,0.9465179443,-1.573583841,2024-06-05 19:44:46.967409
39.00789791,1.707256317,-1.296699524,-2.386712074,2024-06-05 19:44:47.007898
39.04836786,-0.5498428345,1.086370468,-1.532876015,2024-06-05 19:44:47.048368
39.08885369,-1.261935949,-1.22592926,1.927455068,2024-06-05 19:44:47.088854
39.12931333,0.06843400002,-1.484261513,-1.211951733,2024-06-05 19:44:47.129313
39.1697889,0.151818037,0.006688117981,0.1991999745,2024-06-05 19:44:47.169789
39.21028025,-0.1188304424,0.5865516663,0.2086625993,2024-06-05 19:44:47.210280
39.25080197,-0.7904244661,0.5377178192,-0.5105890036,2024-06-05 19:44:47.250802
39.29128307,-0.2300236225,-0.0005311965942,-0.4179883599,2024-06-05 19:44:47.291283
39.33169432,0.3154094219,0.3832578659,0.1251097918,2024-06-05 19:44:47.331694
39.37219989,0.4434781075,-0.2239713669,0.9902042747,2024-06-05 19:44:47.372200
39.41269328,-0.9284875393,-0.8348293304,3.645530224,2024-06-05 19:44:47.412693
39.45318598,-1.164450049,-0.4023294449,1.341406107,2024-06-05 19:44:47.453186
39.4936526,-1.009313822,-0.5760183334,-0.534996748,2024-06-05 19:44:47.493653
39.5341201,-0.6832712889,-2.055528641,0.9033499956,2024-06-05 19:44:47.534120
39.57462426,0.8702676296,-2.827879906,1.347016096,2024-06-05 19:44:47.574624
39.6150938,2.430402517,-1.61986351,3.744712591,2024-06-05 19:44:47.615094
39.65559036,2.934867859,0.9192972183,2.626545429,2024-06-05 19:44:47.655590
39.69607265,1.97907424,2.292924881,-0.9570922852,2024-06-05 19:44:47.696073
39.73653807,1.597515821,2.519140244,-5.681194305,2024-06-05 19:44:47.736538
39.77704322,2.939121723,-2.814630508,-2.047116518,2024-06-05 19:44:47.777043
39.81752406,-1.895590425,-3.683903694,-2.598497152,2024-06-05 19:44:47.817524
39.85799796,-1.135244131,0.4264001846,-1.5559237,2024-06-05 19:44:47.857998
39.89845614,0.4704927206,1.221622467,-0.6815698147,2024-06-05 19:44:47.898456
39.93893437,2.179003716,2.655976772,-1.238565207,2024-06-05 19:44:47.938934
39.97944421,2.836752653,2.460582733,-0.7721843719,2024-06-05 19:44:47.979444
40.0199189,3.866195917,2.693955421,-0.2633516788,2024-06-05 19:44:48.019919
40.06036718,2.497395277,0.6515321732,-0.4421286583,2024-06-05 19:44:48.060367
40.10083676,2.241544485,-0.4805746078,-0.7513716221,2024-06-05 19:44:48.100837
40.14134406,2.269337416,-0.1423120499,-0.8732447624,2024-06-05 19:44:48.141344
40.18184244,0.5739707947,0.5870170593,-0.455085516,2024-06-05 19:44:48.181842
40.22233275,-0.1663537025,0.00706577301,0.1490299702,2024-06-05 19:44:48.222333
40.26282916,0.8666985035,-0.2197647095,1.456129313,2024-06-05 19:44:48.262829
40.30327958,0.3272123337,-0.3999319077,2.174751759,2024-06-05 19:44:48.303280
40.3437001,-0.8394060135,-0.1100530624,1.723569393,2024-06-05 19:44:48.343700
40.3842438,-1.706047773,-0.4555025101,2.339883089,2024-06-05 19:44:48.384244
40.42470885,-1.823859453,-0.497677803,1.658910036,2024-06-05 19:44:48.424709
40.46520395,-2.199706316,2.107858658,-0.1463694572,2024-06-05 19:44:48.465204
40.50566478,-2.061743736,3.548276901,-1.169534087,2024-06-05 19:44:48.505665
40.54617572,-2.310664177,1.513589859,-0.5406880379,2024-06-05 19:44:48.546176
40.58664781,-1.715629101,0.9272594452,0.06757116318,2024-06-05 19:44:48.586648
40.62713036,2.402560234,-4.511685371,1.369096041,2024-06-05 19:44:48.627130
40.66762801,8.034690857,-11.51490879,4.485919476,2024-06-05 19:44:48.667628
40.7081013,-0.6437618732,5.571164131,-2.668391466,2024-06-05 19:44:48.708101
40.74856781,-3.032896519,6.050652504,-7.509738922,2024-06-05 19:44:48.748568
40.78908046,-1.690088987,2.41784668,-6.171656609,2024-06-05 19:44:48.789080
40.82955473,0.3641014099,-7.687917709,5.729455948,2024-06-05 19:44:48.829555
40.8700163,1.247160435,-0.05533504486,-2.924344063,2024-06-05 19:44:48.870016
40.91045333,1.064640284,0.344581604,-2.416192055,2024-06-05 19:44:48.910453
40.95091447,1.074140549,0.791970253,-0.3339557648,2024-06-05 19:44:48.950914
40.99139525,-0.9888526201,-0.3549413681,1.135417461,2024-06-05 19:44:48.991395
41.03195484,-0.9526526928,-0.5725660324,-0.3390982151,2024-06-05 19:44:49.031955
41.07240505,0.7075350285,-0.7546730042,-0.2944957018,2024-06-05 19:44:49.072405
41.11290333,1.145916462,-0.1805009842,-1.162079573,2024-06-05 19:44:49.112903
41.15335265,1.492114067,0.3960647583,-0.6541185379,2024-06-05 19:44:49.153353
41.1938527,2.889185905,-0.5425758362,-1.464279532,2024-06-05 19:44:49.193853
41.23435301,4.093926907,-1.13700676,-2.406760693,2024-06-05 19:44:49.234353
41.27483328,3.916254044,0.6567602158,-2.172520876,2024-06-05 19:44:49.274833
41.31531906,1.892613173,1.040830612,0.4065701962,2024-06-05 19:44:49.315319
41.35573572,-1.850649834,-3.326748848,2.072351217,2024-06-05 19:44:49.355736
41.39628124,-3.509631634,0.1458187103,-2.830510139,2024-06-05 19:44:49.396281
41.43673328,-0.2216658592,6.069387436,-2.606716156,2024-06-05 19:44:49.436733
41.47724963,3.230952978,3.859776497,-2.675116777,2024-06-05 19:44:49.477250
41.51772041,3.649299145,0.8847823143,0.3951723576,2024-06-05 19:44:49.517720
41.55818874,0.3740005493,2.148235321,-5.925329208,2024-06-05 19:44:49.558189
41.5986738,-0.8063921928,-1.031331062,-3.889551878,2024-06-05 19:44:49.598674
41.63914124,-1.064795256,-2.313601494,6.745594978,2024-06-05 19:44:49.639141
41.67968588,2.368666649,1.434708118,-0.8497530818,2024-06-05 19:44:49.679686
41.72009432,4.653841496,3.881518364,1.531085491,2024-06-05 19:44:49.720094
41.76057525,0.2101845741,1.30436039,-0.7624117136,2024-06-05 19:44:49.760575
41.80105619,-0.6246242523,-4.941249847,2.80939579,2024-06-05 19:44:49.801056
41.84151692,-2.536892653,-10.69086742,7.177545071,2024-06-05 19:44:49.841517
41.882014,-2.870714188,-5.074961662,1.704819679,2024-06-05 19:44:49.882014
41.92253025,-5.652698994,0.1142082214,2.127304792,2024-06-05 19:44:49.922530
41.96301687,-4.007727146,-0.5518321991,-2.427117586,2024-06-05 19:44:49.963017
42.00348489,0.2011003494,-6.24011898,1.778842688,2024-06-05 19:44:50.003485
42.04394578,-0.6456532478,-1.006725311,4.566271782,2024-06-05 19:44:50.043946
42.08443562,-3.138906956,1.599381447,-1.65495944,2024-06-05 19:44:50.084436
42.12491619,-2.543368101,0.9025197029,0.1569142342,2024-06-05 19:44:50.124916
42.16540067,-1.425055027,-2.044890404,6.582914829,2024-06-05 19:44:50.165401
42.20588984,-1.22186327,0.4165143967,1.194998503,2024-06-05 19:44:50.205890
42.24638093,-3.611002684,-0.8164329529,0.4249173403,2024-06-05 19:44:50.246381
42.28685734,-3.746940613,-0.3971366882,-0.8685357571,2024-06-05 19:44:50.286857
42.3273014,-1.346575737,-1.453313828,2.659855127,2024-06-05 19:44:50.327301
42.3677751,-0.4264132977,-2.341739655,1.688734531,2024-06-05 19:44:50.367775
42.40829953,-3.528602362,-4.229846954,4.061832905,2024-06-05 19:44:50.408300
42.44877156,-4.087153435,-5.537376404,3.059913635,2024-06-05 19:44:50.448772
42.48926604,-1.304394007,-5.182041168,3.773120165,2024-06-05 19:44:50.489266
42.52976775,3.06991601,-1.372708321,-0.1355533004,2024-06-05 19:44:50.529768
42.57019786,3.511140585,1.181591988,-3.947523594,2024-06-05 19:44:50.570198
42.61067859,6.474075317,3.356498241,-3.758128643,2024-06-05 19:44:50.610679
42.65115937,5.981577396,4.204820633,-4.523097992,2024-06-05 19:44:50.651159
42.69163729,2.439696312,4.419606686,-3.838574886,2024-06-05 19:44:50.691637
42.73214156,1.170222044,3.391688347,-2.202610493,2024-06-05 19:44:50.732142
42.77266286,1.33023262,1.565943718,-0.6623262763,2024-06-05 19:44:50.772663
42.81315765,0.4756064415,0.9528493881,-1.637302637,2024-06-05 19:44:50.813158
42.85363838,1.474662542,0.08931446075,-1.201601267,2024-06-05 19:44:50.853638
42.89408729,-0.9173266888,-1.045649529,5.103971481,2024-06-05 19:44:50.894087
42.93453801,-0.3183188438,-0.1398353577,0.1972386837,2024-06-05 19:44:50.934538
42.97503145,1.311637878,-0.1567764282,-0.1931262016,2024-06-05 19:44:50.975031
43.01550171,-0.1675648689,-0.103219986,0.3622235656,2024-06-05 19:44:51.015502
43.0559915,-1.125412226,-0.4959030151,0.2179086208,2024-06-05 19:44:51.055991
43.09648218,-0.4413490295,-0.8652486801,0.7042879462,2024-06-05 19:44:51.096482
43.13692374,0.1705276966,0.0771150589,0.4234841466,2024-06-05 19:44:51.136924
43.17742791,-0.2045855522,-0.2647438049,-0.4705559015,2024-06-05 19:44:51.177428
43.21792265,-0.5947811604,-0.2503147125,-0.5135961771,2024-06-05 19:44:51.217923
43.25839213,-0.4239137173,-0.3614025116,-0.4932094812,2024-06-05 19:44:51.258392
43.29886645,0.5099523067,0.06546115875,0.6774042845,2024-06-05 19:44:51.298866
43.33928291,0.5998108387,0.8612012863,0.3024095297,2024-06-05 19:44:51.339283
43.37981666,0.7750692368,0.6620178223,-0.8513427973,2024-06-05 19:44:51.379817
43.42028557,1.180966139,-0.21667099,-0.7729278803,2024-06-05 19:44:51.420286
43.46074744,1.095046282,0.8679246902,-0.1727092862,2024-06-05 19:44:51.460747
43.50122874,1.689815521,0.09107589722,-0.128389895,2024-06-05 19:44:51.501229
43.54171005,0.8406715393,4.178647995,-0.1338663399,2024-06-05 19:44:51.541710
43.58222041,-2.459462166,8.085504532,-1.508664727,2024-06-05 19:44:51.582220
43.62270848,-6.925980568,8.668456078,5.135347366,2024-06-05 19:44:51.622708
43.66319078,-5.689810753,9.005152702,-1.835428953,2024-06-05 19:44:51.663191
43.70366791,-0.09002685547,4.946302414,-6.103173733,2024-06-05 19:44:51.703668
43.74416098,8.272190094,-29.05565262,-16.02292061,2024-06-05 19:44:51.744161
43.7847113,15.14993763,1.034581184,9.334810257,2024-06-05 19:44:51.784711
43.82511046,10.05097198,0.4462394714,3.484730721,2024-06-05 19:44:51.825110
43.86561671,6.749233246,-7.528572083,-1.621677399,2024-06-05 19:44:51.865617
43.90608411,5.040009499,-8.023452759,-4.329399109,2024-06-05 19:44:51.906084
43.94656182,10.57926559,-5.538069725,-2.871569633,2024-06-05 19:44:51.946562
43.98704041,7.950073242,1.013467789,-2.24447298,2024-06-05 19:44:51.987040
44.02752416,0.8134527206,8.853416443,-1.612490892,2024-06-05 19:44:52.027524
44.06802551,-1.555607557,9.758398056,-2.878075123,2024-06-05 19:44:52.068026
44.10843984,-2.195217609,-0.05149936676,-11.57366753,2024-06-05 19:44:52.108440
44.14897416,-5.315155983,-25.36036301,-7.197683334,2024-06-05 19:44:52.148974
44.18951817,-3.123404503,-6.154047012,17.76941299,2024-06-05 19:44:52.189518
44.22997208,1.558379889,0.1431875229,9.144650459,2024-06-05 19:44:52.229972
44.27035739,1.690005064,6.459634304,3.790431261,2024-06-05 19:44:52.270357
44.3108376,-6.460391045,4.439795494,-5.054995537,2024-06-05 19:44:52.310838
44.35133744,-13.91277313,-0.7364311218,-6.072256088,2024-06-05 19:44:52.351337
44.39188926,4.981119633,3.538551331,-7.971928596,2024-06-05 19:44:52.391889
44.43233916,15.91021061,-0.02106189728,-13.73412037,2024-06-05 19:44:52.432339
44.47281119,6.511882782,-1.781195641,-15.56740093,2024-06-05 19:44:52.472811
44.51330218,0.8935215473,16.61582184,4.376709938,2024-06-05 19:44:52.513302
44.55379999,-3.134654045,12.70764828,-1.615152359,2024-06-05 19:44:52.553800
44.5942952,-0.2052024007,7.193815231,-2.624313831,2024-06-05 19:44:52.594295
44.63476187,-1.991248488,-4.495044231,-0.302210331,2024-06-05 19:44:52.634762
44.67522265,-6.077345848,-8.381276131,-4.326478004,2024-06-05 19:44:52.675223
44.71572682,-3.134588718,-11.42940617,-9.700637817,2024-06-05 19:44:52.715727
44.75618656,1.148920536,-7.416226387,0.1091971397,2024-06-05 19:44:52.756187
44.7967114,-1.969531298,-2.913990974,5.396310806,2024-06-05 19:44:52.796711
44.83714447,-0.03977251053,2.592271805,6.24469614,2024-06-05 19:44:52.837144
44.87762598,-7.02917099,0.6214570999,-0.5417833328,2024-06-05 19:44:52.877626
44.91810447,-6.712412834,1.536160946,1.229811907,2024-06-05 19:44:52.918104
44.95858843,-7.060214996,-4.138721943,8.372743607,2024-06-05 19:44:52.958588
44.99906213,2.070809364,-14.36903381,6.428105831,2024-06-05 19:44:52.999062
45.03959999,-3.386890411,-14.53852463,4.251842022,2024-06-05 19:44:53.039600
45.0800563,-2.890107155,-13.36945343,0.7208428383,2024-06-05 19:44:53.080056
45.12053775,-3.327251673,-13.57643318,1.967797995,2024-06-05 19:44:53.120538
45.16101916,-1.637058258,-10.20451832,4.119298935,2024-06-05 19:44:53.161019
45.20144083,-3.016798258,-4.57034111,6.567095757,2024-06-05 19:44:53.201441
45.2419389,-3.282610655,2.159236908,1.403082728,2024-06-05 19:44:53.241939
45.28245885,-1.702023625,3.969918251,-1.436522722,2024-06-05 19:44:53.282459
45.32290989,-0.1740841866,4.924078941,0.6426315904,2024-06-05 19:44:53.322910
45.36337109,0.5113568306,4.393166542,-2.396961212,2024-06-05 19:44:53.363371
45.40389176,-0.3222267628,1.457681656,-4.231967449,2024-06-05 19:44:53.403892
45.44436723,1.622853041,0.04975032806,-2.955159903,2024-06-05 19:44:53.444367
45.48483994,0.8189554214,-2.757417679,-4.870864868,2024-06-05 19:44:53.484840
45.52532484,1.625655413,-0.3891925812,-2.473352671,2024-06-05 19:44:53.525325
45.56582994,2.299921513,2.739373207,-3.053501129,2024-06-05 19:44:53.565830
45.60632234,0.8670024872,4.161829472,-1.45358634,2024-06-05 19:44:53.606322
45.64681296,-0.6891436577,1.638134956,3.177153826,2024-06-05 19:44:53.646813
45.6872765,-5.104461193,-3.865093231,6.493700981,2024-06-05 19:44:53.687277
45.72774124,-0.8849214315,-3.027736664,1.958020926,2024-06-05 19:44:53.727741
45.76822989,2.236947536,4.781792641,-3.183506489,2024-06-05 19:44:53.768230
45.8087202,4.795644283,2.766812325,-6.790836811,2024-06-05 19:44:53.808720
45.84916619,4.675376892,-13.85149956,7.914539337,2024-06-05 19:44:53.849166
45.88964557,-0.2943329811,4.809383869,-8.345816612,2024-06-05 19:44:53.889646
45.93012291,0.7823753357,4.3654356,-6.218101501,2024-06-05 19:44:53.930123
45.97060437,1.647809029,-2.761768341,-5.56534481,2024-06-05 19:44:53.970604
46.01108578,-1.152328134,-0.3758220673,-3.887457848,2024-06-05 19:44:54.011086
46.05156723,-0.3489134312,0.1980762482,12.21828365,2024-06-05 19:44:54.051567
46.09202614,-1.168210268,-1.128167152,-2.856612444,2024-06-05 19:44:54.092026
46.13254989,-1.047960639,1.527247429,-2.899007559,2024-06-05 19:44:54.132550
46.1730314,0.08520531654,1.768431664,-1.224132538,2024-06-05 19:44:54.173031
46.21352796,-0.616412282,0.1930675507,-0.8041980267,2024-06-05 19:44:54.213528
46.25400666,1.70275712,-1.779470444,7.989226341,2024-06-05 19:44:54.254007
46.29449234,-2.106930017,-2.455609322,3.345798969,2024-06-05 19:44:54.294492
46.33491937,-3.552862644,-2.396339417,0.9614819884,2024-06-05 19:44:54.334919
46.37543953,-3.924021244,-0.6187353134,-1.362826467,2024-06-05 19:44:54.375440
46.41592223,-3.28370285,-3.948821068,7.803822517,2024-06-05 19:44:54.415922
46.45641494,-2.210022926,-2.484287262,5.13583231,2024-06-05 19:44:54.456415
46.49689708,-1.496099949,-2.452479362,-0.504737854,2024-06-05 19:44:54.496897
46.5373802,3.698611498,-1.186167717,-6.598713398,2024-06-05 19:44:54.537380
46.57783906,0.1017825603,-3.965652466,-1.130622387,2024-06-05 19:44:54.577839
46.61831255,0.4744263291,-0.801902771,-9.018937111,2024-06-05 19:44:54.618313
46.6588076,-2.138168812,-0.4972887039,-4.425122738,2024-06-05 19:44:54.658808
46.69932775,-0.3453871012,1.164237976,-4.609671593,2024-06-05 19:44:54.699328
46.73982765,2.616090298,5.150968075,-4.888093948,2024-06-05 19:44:54.739828
46.78023635,4.432897091,7.117979527,-3.539367914,2024-06-05 19:44:54.780236
46.82068067,3.620197058,5.472849846,-2.584192514,2024-06-05 19:44:54.820681
46.86116166,2.726711988,-4.80172348,3.786990166,2024-06-05 19:44:54.861162
46.90164275,-5.336096287,-6.67969799,10.31497669,2024-06-05 19:44:54.901643
46.94218687,-2.289785624,-0.5824375153,-1.416451812,2024-06-05 19:44:54.942187
46.98268458,2.584135532,-3.389077187,-7.430289268,2024-06-05 19:44:54.982685
47.02316562,-0.8553586006,-5.393061638,2.509419441,2024-06-05 19:44:55.023166
47.0636363,-1.752313614,4.463204384,-4.573425293,2024-06-05 19:44:55.063636
47.1041013,-0.04444527626,2.770773411,-6.377045631,2024-06-05 19:44:55.104101
47.14457828,1.22155571,-3.345253944,-7.066151142,2024-06-05 19:44:55.144578
47.18507041,0.7203538418,-0.5141582489,-2.269591331,2024-06-05 19:44:55.185070
47.22555442,0.8257687092,1.421833992,-0.8802169561,2024-06-05 19:44:55.225554
47.2660251,2.795661926,0.9192657471,3.000825644,2024-06-05 19:44:55.266025
47.30650874,-0.3346245289,0.2891378403,3.090232372,2024-06-05 19:44:55.306509
47.34695051,-1.258675337,0.5173406601,1.439950585,2024-06-05 19:44:55.346951
47.38748364,-0.9499254227,1.061578751,-1.082488537,2024-06-05 19:44:55.387484
47.42792525,-3.367812157,-2.48098278,5.372876167,2024-06-05 19:44:55.427925
47.46841583,-4.299409866,-2.872181892,1.683548212,2024-06-05 19:44:55.468416
47.5088988,-4.601869106,-4.564469337,2.628972769,2024-06-05 19:44:55.508899
47.54947051,-4.20950985,-4.102065086,5.971208572,2024-06-05 19:44:55.549471
47.58988067,-1.062012315,-1.41814518,0.7940973639,2024-06-05 19:44:55.589881
47.63032041,3.901967049,-1.762588501,-1.664886117,2024-06-05 19:44:55.630320
47.67080104,0.9334480762,-4.048903465,-3.652552843,2024-06-05 19:44:55.670801
47.7112502,1.56136179,0.7863111496,-9.973258972,2024-06-05 19:44:55.711250
47.75173083,-2.11633563,0.1901683807,-3.228827953,2024-06-05 19:44:55.751731
47.79226359,-3.829354286,-0.7606925964,-4.779803276,2024-06-05 19:44:55.792264
47.83273994,0.6721408367,3.552895546,-3.349467993,2024-06-05 19:44:55.832740
47.87322062,3.841908216,5.972642899,-4.559226036,2024-06-05 19:44:55.873221
47.9137064,4.007305145,5.587634563,-2.638937473,2024-06-05 19:44:55.913706
47.95421906,3.526051998,3.007800102,0.690081358,2024-06-05 19:44:55.954219
47.99471078,-1.026147485,-8.628800392,8.697378159,2024-06-05 19:44:55.994711
48.03515734,-1.946099281,-0.84836483,2.648238897,2024-06-05 19:44:56.035157
48.07564624,-2.234445572,0.178861618,-2.673477173,2024-06-05 19:44:56.075646
48.11612697,7.19336319,-9.15075779,-7.020112991,2024-06-05 19:44:56.116127
48.15658364,-2.072958708,-1.355425835,2.122330189,2024-06-05 19:44:56.156584
48.19707666,-1.70315063,6.919777393,-3.925102234,2024-06-05 19:44:56.197077
48.23759322,1.793169737,-0.78865242,-5.051519394,2024-06-05 19:44:56.237593
48.27805963,2.808165073,-2.942270279,-5.428993702,2024-06-05 19:44:56.278060
48.31851109,0.43896842,2.355719566,3.856245995,2024-06-05 19:44:56.318511
48.35899192,-0.3464009762,1.358843803,0.7015598416,2024-06-05 19:44:56.358992
48.39955328,0.1103327274,-0.07461833954,-1.916184068,2024-06-05 19:44:56.399553
48.43999281,0.7513825893,0.5616283417,1.82272172,2024-06-05 19:44:56.439993
48.4804115,-1.613900423,-0.1520271301,0.196010232,2024-06-05 19:44:56.480412
48.52089234,-2.876027107,-0.8274297714,-1.199225664,2024-06-05 19:44:56.520892
48.56142213,-0.3020427227,0.3785362244,-0.3313026428,2024-06-05 19:44:56.561422
48.60192911,-0.5558133125,0.1993284225,-3.3406744,2024-06-05 19:44:56.601929
48.6423964,-1.411408663,-1.162589073,-6.37786293,2024-06-05 19:44:56.642396
48.68285692,1.438492537,-3.573742867,-6.825267315,2024-06-05 19:44:56.682857
48.72334426,5.187636852,-6.790299416,-0.1087427139,2024-06-05 19:44:56.723344
48.76381687,3.549059391,2.429197311,3.242817879,2024-06-05 19:44:56.763817
48.80430171,0.7792310715,4.241902351,-2.84064436,2024-06-05 19:44:56.804302
48.84476583,-0.9292788506,0.971077919,-6.073013783,2024-06-05 19:44:56.844766
48.88525046,1.314931393,1.420716286,-3.411903858,2024-06-05 19:44:56.885250
48.92574406,-2.645800829,1.578007698,-1.477721453,2024-06-05 19:44:56.925744
48.96623307,-4.237010002,0.8727436066,-2.615392208,2024-06-05 19:44:56.966233
49.00670723,-2.753349781,1.467685699,-1.959677577,2024-06-05 19:44:57.006707
49.04718656,-2.129748821,-0.6193714142,0.07795739174,2024-06-05 19:44:57.047187
49.08766765,-0.8797008991,-1.951147079,0.3340209723,2024-06-05 19:44:57.087668
49.12815624,0.9799847603,-2.475317001,0.09841918945,2024-06-05 19:44:57.128156
49.16860728,6.58084774,-0.8184776306,7.630275726,2024-06-05 19:44:57.168607
49.20909338,3.669122934,-4.992545128,2.108634949,2024-06-05 19:44:57.209093
49.24957796,2.257805586,-3.4289608,7.137680531,2024-06-05 19:44:57.249578
49.29007926,-0.01587700844,3.423942566,0.2271569967,2024-06-05 19:44:57.290079
49.33053921,-3.305333853,-0.9257907867,-0.6923384666,2024-06-05 19:44:57.330539
49.37100833,-3.709501982,-5.708134651,3.789756298,2024-06-05 19:44:57.371008
49.41146557,-4.168283463,2.023570538,0.5800374746,2024-06-05 19:44:57.411466
49.45199067,-4.077716351,2.255898476,-1.053256035,2024-06-05 19:44:57.451991
49.4924964,-2.348085165,1.696188927,-0.3140655756,2024-06-05 19:44:57.492496
49.53298119,-0.7898900509,1.198594093,1.218209028,2024-06-05 19:44:57.532981
49.57345676,0.3979306221,-1.278819084,3.564211845,2024-06-05 19:44:57.573457
49.61393999,0.1506524086,-2.330535889,2.024044514,2024-06-05 19:44:57.613940
49.65441801,0.02752566338,0.9992017746,-3.815928459,2024-06-05 19:44:57.654418
49.69490255,-0.04775094986,1.044634819,-2.546714783,2024-06-05 19:44:57.694903
49.73536926,1.648139,0.4856338501,0.2950192094,2024-06-05 19:44:57.735369
49.77587135,4.151148796,-0.4028911591,-1.689038873,2024-06-05 19:44:57.775871
49.81633223,6.594236374,0.5805110931,-2.010617018,2024-06-05 19:44:57.816332
49.85679604,5.952693939,1.970618248,0.4604245424,2024-06-05 19:44:57.856796
49.89726604,1.178988695,-0.5432405472,1.530298114,2024-06-05 19:44:57.897266
49.93776208,-3.304577827,-4.406373024,3.464789867,2024-06-05 19:44:57.937762
49.97826249,-2.989588737,-4.464857101,0.505427599,2024-06-05 19:44:57.978262
50.01878124,-0.2945377827,1.671847343,0.6379214525,2024-06-05 19:44:58.018781
50.05927541,-0.1414906979,4.411959171,0.3947108984,2024-06-05 19:44:58.059275
50.0997551,0.5055112839,4.02633667,5.765192032,2024-06-05 19:44:58.099755
50.14015208,-0.5529975891,1.87760067,-0.4736386538,2024-06-05 19:44:58.140152
50.18063447,-4.852342606,0.03971195221,-5.651476383,2024-06-05 19:44:58.180634
50.22111682,-6.788785458,-2.18469429,0.7429637909,2024-06-05 19:44:58.221117
50.26162374,-0.9265723228,-1.118048668,3.094727516,2024-06-05 19:44:58.261624
50.30210739,1.884959221,2.31355238,-1.566042542,2024-06-05 19:44:58.302107
50.34252078,5.867556572,2.157031536,-0.733324945,2024-06-05 19:44:58.342521
50.3831065,1.834198475,1.415070057,1.588136077,2024-06-05 19:44:58.383106
50.42361156,-0.5771152973,-1.657097816,4.651287079,2024-06-05 19:44:58.423612
50.464019,-0.3946990967,-4.131128311,1.442709565,2024-06-05 19:44:58.464019
50.50452244,2.13298893,-2.768690109,0.8293092251,2024-06-05 19:44:58.504522
50.54500682,-2.401507378,-0.7544221878,0.3050744534,2024-06-05 19:44:58.545007
50.58549333,-3.314033985,-1.451878548,-0.4217002392,2024-06-05 19:44:58.585493
50.62601156,-4.069886684,-0.8402986526,-0.2589989901,2024-06-05 19:44:58.626012
50.66644296,-4.190939903,-1.321958542,4.584872246,2024-06-05 19:44:58.666443
50.7069301,-3.17312932,-0.1174917221,0.3525485098,2024-06-05 19:44:58.706930
50.74737895,-1.909596682,-0.1608610153,-0.7709153295,2024-06-05 19:44:58.747379
50.78789682,-1.143624544,-0.3033809662,0.5774371624,2024-06-05 19:44:58.787897
50.82840104,-1.259091139,-0.4361410141,0.3068935871,2024-06-05 19:44:58.828401
50.86888249,-1.478445172,0.02659606934,0.03844738007,2024-06-05 19:44:58.868882
50.90928885,-0.7851657867,0.005521774292,-0.009532272816,2024-06-05 19:44:58.909289
50.94981145,-1.878273368,-0.002512931824,3.800921202,2024-06-05 19:44:58.949811
50.99025171,-1.085401297,-2.589502335,2.424277306,2024-06-05 19:44:58.990252
51.03073312,-0.2377128601,-1.418580055,2.880138874,2024-06-05 19:44:59.030733
51.07124317,2.728409052,-3.768553734,6.169199944,2024-06-05 19:44:59.071243
51.11176567,1.571807146,-1.491013527,1.4718889,2024-06-05 19:44:59.111766
51.15219551,2.421733379,1.619756222,-6.771060467,2024-06-05 19:44:59.152196
51.19268156,1.719038486,2.899894238,-10.33714294,2024-06-05 19:44:59.192682
51.23321499,1.718835592,4.356057167,-5.717668533,2024-06-05 19:44:59.233215
51.27366473,2.202255487,2.325130463,-4.096644402,2024-06-05 19:44:59.273665
51.31410796,6.511558056,-4.853458405,-4.529093266,2024-06-05 19:44:59.314108
51.35455791,0.556198597,-1.591599464,15.27632046,2024-06-05 19:44:59.354558
51.39507229,-6.243527412,-1.561906815,-2.361814737,2024-06-05 19:44:59.395072
51.43563432,-5.825302124,-0.3816719055,1.194171429,2024-06-05 19:44:59.435634
51.47606093,0.205145359,0.2165193558,-1.379075289,2024-06-05 19:44:59.476061
51.5165415,-1.147021055,0.7656230927,-1.665279746,2024-06-05 19:44:59.516542
51.5570189,-0.9851535559,-1.073205948,0.2757451236,2024-06-05 19:44:59.557019
51.59750775,0.1202890873,-0.1655387878,1.722492576,2024-06-05 19:44:59.597508
51.63803942,2.616248131,1.53086853,2.634414911,2024-06-05 19:44:59.638039
51.67844734,-0.02558970451,-0.911822319,-0.3069505095,2024-06-05 19:44:59.678447
51.71892229,-1.320088863,-0.6124515533,-3.422449589,2024-06-05 19:44:59.718922
51.75946411,0.9205513,-2.198862076,1.718153238,2024-06-05 19:44:59.759464
51.79992171,3.017176867,-0.8073797226,-0.1591252685,2024-06-05 19:44:59.799922
51.84034281,0.3293197155,1.11491394,-1.117444515,2024-06-05 19:44:59.840343
51.88082447,-0.15031147,2.337574005,-1.729709387,2024-06-05 19:44:59.880824
51.921334,-0.2552955151,1.507947445,-2.779257774,2024-06-05 19:44:59.921334
51.96182796,1.584140778,1.635599136,-2.2472682,2024-06-05 19:44:59.961828
52.00232275,3.147918701,1.147717476,1.538364172,2024-06-05 19:45:00.002323
52.04278025,1.614389896,0.6065912247,0.3366963267,2024-06-05 19:45:00.042780
52.08325973,0.7445960045,0.01581096649,-1.838201761,2024-06-05 19:45:00.083260
52.12373239,0.6004753113,0.8279194832,-1.509727836,2024-06-05 19:45:00.123732
52.16423557,0.6305766106,1.871138573,-0.6490437984,2024-06-05 19:45:00.164236
52.20472755,0.9479513168,1.508515835,-0.6990392208,2024-06-05 19:45:00.204728
52.24521166,0.9755787849,1.727029324,0.6924581528,2024-06-05 19:45:00.245212
52.28568416,0.5048737526,1.834013939,0.1901915073,2024-06-05 19:45:00.285684
52.326124,-0.2541532516,1.410326004,-0.6406776905,2024-06-05 19:45:00.326124
52.36659036,0.3438563347,1.914382458,-0.9054517746,2024-06-05 19:45:00.366590
52.40710885,1.59427309,1.769540787,-1.897476554,2024-06-05 19:45:00.407109
52.44762989,3.213525772,1.868245125,-2.832731485,2024-06-05 19:45:00.447630
52.48809343,3.641487598,-1.524849892,-0.1721272469,2024-06-05 19:45:00.488093
52.52855567,1.130069733,-4.292535782,1.138902068,2024-06-05 19:45:00.528556
52.56905374,-4.146294594,-3.19288826,0.9550377131,2024-06-05 19:45:00.569054
52.60953478,-3.488368273,-2.988267899,2.26057601,2024-06-05 19:45:00.609535
52.64999749,-2.659000158,-1.102367401,1.548928738,2024-06-05 19:45:00.649997
52.69050385,-2.105432272,-1.032982826,0.2454152107,2024-06-05 19:45:00.690504
52.73097359,-0.1542699337,-2.813212395,1.848332405,2024-06-05 19:45:00.730974
52.77146604,0.298486948,0.1553144455,1.891916275,2024-06-05 19:45:00.771466
52.8119289,-1.119552732,2.019346237,0.1104738712,2024-06-05 19:45:00.811929
52.85237078,-1.621575832,1.787774086,0.9323722124,2024-06-05 19:45:00.852371
52.8929038,-2.860770464,-1.703933716,3.57217145,2024-06-05 19:45:00.892904
52.93345551,-2.383800507,-0.5634870529,2.00736928,2024-06-05 19:45:00.933456
52.97390348,-2.204296589,-0.4368715286,0.6395612955,2024-06-05 19:45:00.973903
53.01429343,-1.652957439,-0.3010005951,1.508527398,2024-06-05 19:45:01.014293
53.05477223,-1.120762467,-0.6440830231,0.3659512997,2024-06-05 19:45:01.054772
53.09527098,0.9858808517,-0.548743248,1.978596926,2024-06-05 19:45:01.095271
53.13575208,-0.4344712496,-1.859345436,3.191219807,2024-06-05 19:45:01.135752
53.17627166,-2.533329487,-2.306089401,3.193272352,2024-06-05 19:45:01.176272
53.21673301,1.044219732,-1.964500427,5.451116085,2024-06-05 19:45:01.216733
53.25725296,2.314767361,-3.239292145,7.534932137,2024-06-05 19:45:01.257253
53.29770557,3.426530361,-0.6215257645,-4.219211578,2024-06-05 19:45:01.297706
53.33822494,5.452244759,0.1580686569,-6.870540619,2024-06-05 19:45:01.338225
53.37866588,6.85175705,-1.202257156,-3.30078721,2024-06-05 19:45:01.378666
53.41917083,1.196085453,-1.220701218,-5.736059189,2024-06-05 19:45:01.419171
53.45973062,-0.3084540367,-0.5985593796,-3.93290329,2024-06-05 19:45:01.459731
53.50012682,-2.010808229,2.651466846,-3.695056438,2024-06-05 19:45:01.500127
53.54063426,-3.144257307,3.226766109,-5.830156803,2024-06-05 19:45:01.540634
53.58107322,-0.9988131523,1.456263065,-0.6028215885,2024-06-05 19:45:01.581073
53.62157676,0.1152524948,2.295012474,3.798925638,2024-06-05 19:45:01.621577
53.66202583,-0.98458004,0.6213350296,2.144169807,2024-06-05 19:45:01.662026
53.70253541,1.829504967,-2.800966263,-4.314428329,2024-06-05 19:45:01.702535
53.74301583,1.239961624,3.658607006,-8.824071884,2024-06-05 19:45:01.743016
53.78353301,-2.446142673,-3.166670799,7.80855751,2024-06-05 19:45:01.783533
53.82402421,-1.767751455,-2.600646019,2.963911533,2024-06-05 19:45:01.824024
53.86449583,1.73900795,-1.188608646,0.5642871857,2024-06-05 19:45:01.864496
53.90489411,-0.03607010841,4.467361927,-7.538941383,2024-06-05 19:45:01.904894
53.9453802,-6.510346413,0.2332415581,0.1560916901,2024-06-05 19:45:01.945380
53.98587697,-2.107734442,-6.017398834,0.3096046448,2024-06-05 19:45:01.985877
54.0263802,-0.9336822033,0.9640626907,-4.172642231,2024-06-05 19:45:02.026380
54.06685015,-5.87920475,-4.925726414,-1.639975309,2024-06-05 19:45:02.066850
54.10733588,-9.283336639,-9.846483231,2.661720276,2024-06-05 19:45:02.107336
54.14781645,-10.24373722,-11.65656853,0.4236884117,2024-06-05 19:45:02.147816
54.18830786,-10.84025669,-4.296128273,-0.9092669487,2024-06-05 19:45:02.188308
54.2287888,-1.132664204,-11.56272316,-1.640149832,2024-06-05 19:45:02.228789
54.26925525,3.719761848,-2.231924057,5.051603794,2024-06-05 19:45:02.269255
54.30973984,1.223563194,-6.823421001,8.496983528,2024-06-05 19:45:02.309740
54.35024176,-4.23122406,-7.608879566,-8.815166473,2024-06-05 19:45:02.350242
54.39071494,1.757759571,-10.95984745,-10.61130428,2024-06-05 19:45:02.390715
54.4311988,10.35825729,-12.39756298,0.2179710865,2024-06-05 19:45:02.431199
54.47170442,-4.02419138,-2.46318531,-18.54053307,2024-06-05 19:45:02.471704
54.51215723,-1.785610676,7.123432636,1.341551423,2024-06-05 19:45:02.512157
54.55263854,-3.2412076,11.42571545,3.616724014,2024-06-05 19:45:02.552639
54.59312078,-12.97140694,11.43632698,-4.632637024,2024-06-05 19:45:02.593121
54.63364364,-4.644834995,12.01333427,0.3374655247,2024-06-05 19:45:02.633644
54.67410156,-0.8068706989,10.0687542,1.966724992,2024-06-05 19:45:02.674102
54.71453953,-0.4121284485,10.49625015,3.196653128,2024-06-05 19:45:02.714540
54.7550389,-0.6693035364,8.887929916,4.707186699,2024-06-05 19:45:02.755039
54.79551452,1.992968798,7.491583347,4.418373585,2024-06-05 19:45:02.795515
54.83605119,1.85908103,-8.901040077,-1.380254507,2024-06-05 19:45:02.836051
54.8765027,9.657291412,-57.81671143,15.49792671,2024-06-05 19:45:02.876503
54.91696171,-0.5213551521,-7.228714943,-13.1783886,2024-06-05 19:45:02.916962
54.95743213,-1.209734678,-0.01704025269,-15.43641758,2024-06-05 19:45:02.957432
54.99791541,-4.803644657,5.860686302,-8.821136475,2024-06-05 19:45:02.997915
55.0384102,-7.82659626,8.954138756,-12.83438683,2024-06-05 19:45:03.038410
55.07889333,-7.783467293,9.160827637,-9.063281059,2024-06-05 19:45:03.078893
55.11937911,4.464826584,5.626831055,34.2478714,2024-06-05 19:45:03.119379
55.15984937,8.253044128,-0.3934659958,-16.75244141,2024-06-05 19:45:03.159849
55.20032676,7.118320942,-22.42051125,-39.02684784,2024-06-05 19:45:03.200327
55.24081411,1.832542419,-7.056024551,-5.893914223,2024-06-05 19:45:03.240814
55.28130031,3.38629055,-16.44122696,-8.790811539,2024-06-05 19:45:03.281300
55.32177984,-5.200058937,-1.342252731,-2.706171513,2024-06-05 19:45:03.321780
55.36224416,1.848453522,-3.596427917,-0.05319619179,2024-06-05 19:45:03.362244
55.40272895,-4.576842308,-1.400361061,-3.494618893,2024-06-05 19:45:03.402729
55.44320005,-5.359410763,1.721384048,1.779049873,2024-06-05 19:45:03.443200
55.48371598,-2.867581844,5.02306366,-1.061245918,2024-06-05 19:45:03.483716
55.52420494,-0.9817488194,8.133481979,-0.1438106298,2024-06-05 19:45:03.524205
55.56467958,-0.5563226938,7.708415985,-1.511207104,2024-06-05 19:45:03.564680
55.60517265,-1.046871781,3.916575432,-2.798880816,2024-06-05 19:45:03.605173
55.64566557,-3.035762787,-2.253526688,-7.632237434,2024-06-05 19:45:03.645666
55.68608197,-3.743398905,-2.342508316,-9.397216797,2024-06-05 19:45:03.686082
55.72657067,5.532959461,-12.72465992,14.87283611,2024-06-05 19:45:03.726571
55.76710791,4.814576149,-4.240056992,4.340781212,2024-06-05 19:45:03.767108
55.80755869,6.255228996,-2.539237022,4.262366295,2024-06-05 19:45:03.807559
55.84797041,4.030511379,-1.255075455,1.364613533,2024-06-05 19:45:03.847970
55.88850734,-0.1041076183,-0.4950799942,0.7532970905,2024-06-05 19:45:03.888507
55.9289952,-2.605149984,2.539418697,-0.698029995,2024-06-05 19:45:03.928995
55.96946817,-4.123644829,4.769452095,-2.51765871,2024-06-05 19:45:03.969468
56.00997202,0.3757333755,4.668994904,2.372285604,2024-06-05 19:45:04.009972
56.0505127,2.779394865,1.573149204,0.373272419,2024-06-05 19:45:04.050513
56.09090822,4.681707859,-0.9865875244,0.5251364708,2024-06-05 19:45:04.090908
56.13139947,3.170691967,0.03839683533,1.565360069,2024-06-05 19:45:04.131399
56.17189359,1.870765448,1.565806389,0.8974347115,2024-06-05 19:45:04.171894
56.21234937,2.125344515,2.684185982,1.381062984,2024-06-05 19:45:04.212349
56.25283656,1.150560141,4.001521587,-2.085812569,2024-06-05 19:45:04.252837
56.29337135,-6.533213615,-8.131638527,-1.292456388,2024-06-05 19:45:04.293371
56.33386697,-3.259138584,-5.995254517,-4.483798981,2024-06-05 19:45:04.333867
56.37425749,-2.893322468,5.743779182,-5.850110054,2024-06-05 19:45:04.374257
56.41475104,-2.903190613,-1.83874321,-1.658625007,2024-06-05 19:45:04.414751
56.45520176,-5.052017212,-2.124251366,-0.9292410016,2024-06-05 19:45:04.455202
56.49572317,-2.853508472,2.219994068,0.01368302107,2024-06-05 19:45:04.495723
56.53622531,-3.562272787,-0.1696891785,1.840117812,2024-06-05 19:45:04.536225
56.57668161,-3.191819191,0.007355690002,4.783710003,2024-06-05 19:45:04.576682
56.61713755,-2.750918865,0.988571167,6.80303669,2024-06-05 19:45:04.617138
56.65766598,-1.919879675,0.2179222107,4.66779232,2024-06-05 19:45:04.657666
56.69815395,1.248783708,-3.819927216,4.963968277,2024-06-05 19:45:04.698154
56.73862437,4.199390411,-5.131032944,-3.255865812,2024-06-05 19:45:04.738624
56.77915046,7.133942604,-5.635956764,-0.5637385845,2024-06-05 19:45:04.779150
56.81958114,2.378991127,-3.163426399,-4.169364929,2024-06-05 19:45:04.819581
56.86004499,2.026334763,1.50737381,-4.087954998,2024-06-05 19:45:04.860045
56.90053567,2.204143524,3.449768066,-5.111803055,2024-06-05 19:45:04.900536
56.94102869,3.016466618,3.513581753,-4.869492531,2024-06-05 19:45:04.941029
56.9815164,1.978635907,3.151609421,-2.239737749,2024-06-05 19:45:04.981516
57.02199968,2.157392502,1.747704029,3.432923079,2024-06-05 19:45:05.022000
57.06249869,0.5165963173,-1.981425285,6.837654591,2024-06-05 19:45:05.062499
57.10293515,0.3410172462,1.14658165,3.010082722,2024-06-05 19:45:05.102935
57.14351348,1.309645176,0.04717254639,3.120368004,2024-06-05 19:45:05.143513
57.18397671,1.06012404,1.127047062,-0.2329318523,2024-06-05 19:45:05.183977
57.2243602,0.9236800671,-7.323878288,0.3591849804,2024-06-05 19:45:05.224360
57.26486442,4.155174255,2.616034508,-7.850990295,2024-06-05 19:45:05.264864
57.30529385,-0.01626515388,1.6606493,-9.133327484,2024-06-05 19:45:05.305294
57.3458515,-2.901367664,-5.684929848,-6.12148571,2024-06-05 19:45:05.345852
57.38633051,0.1137332916,-2.250397682,7.49739027,2024-06-05 19:45:05.386331
57.42679822,0.628046155,2.031914711,-2.275342703,2024-06-05 19:45:05.426798
57.46726614,0.5394172668,0.6078271866,-1.661481857,2024-06-05 19:45:05.467266
57.50775734,-0.8598915339,-0.9943380356,3.5771451,2024-06-05 19:45:05.507757
57.54824051,-0.8312678337,-0.03695583344,1.425379157,2024-06-05 19:45:05.548241
57.58873124,0.07974255085,2.04056263,0.5100644827,2024-06-05 19:45:05.588731
57.62922114,-1.748624802,0.4838972092,4.338620186,2024-06-05 19:45:05.629221
57.66969432,-2.053767681,-2.102648735,3.635622501,2024-06-05 19:45:05.669694
57.71017338,0.5745043755,-0.6106090546,6.46958065,2024-06-05 19:45:05.710173
57.75065416,3.078087807,-1.49309063,11.12633991,2024-06-05 19:45:05.750654
57.79113968,-0.02866649628,-2.094809532,-3.383255005,2024-06-05 19:45:05.791140
57.8315965,-6.589615822,-4.702590942,-7.850893497,2024-06-05 19:45:05.831597
57.87208176,1.812641621,-10.32810307,-2.964843512,2024-06-05 19:45:05.872082
57.91257031,3.056661367,-5.35833168,-3.039069176,2024-06-05 19:45:05.912570
57.95306614,0.07843518257,0.3271303177,-6.15140152,2024-06-05 19:45:05.953066
57.99356723,-2.203867435,4.747376442,-6.075234413,2024-06-05 19:45:05.993567
58.03400723,0.6540573835,5.935454369,-8.105523109,2024-06-05 19:45:06.034007
58.07445229,1.353297591,4.500110626,-7.704105377,2024-06-05 19:45:06.074452
58.11493578,4.369838715,1.394069672,-3.826571465,2024-06-05 19:45:06.114936
58.15541614,-0.5553890467,-7.128436089,10.84500122,2024-06-05 19:45:06.155416
58.19592494,4.232497692,1.675203323,4.500020027,2024-06-05 19:45:06.195925
58.23641656,3.901872158,-1.636462212,0.3155810833,2024-06-05 19:45:06.236417
58.2769151,1.322641134,-1.710307121,-5.432484627,2024-06-05 19:45:06.276915
58.31739838,-0.1831408739,-4.932338715,-6.924171448,2024-06-05 19:45:06.317398
58.35787531,-1.388558149,-0.313955307,-3.21675539,2024-06-05 19:45:06.357875
58.39833697,-2.952078342,1.653594017,-3.882053614,2024-06-05 19:45:06.398337
58.43881369,-2.595735073,0.7574872971,-2.24904108,2024-06-05 19:45:06.438814
58.47931734,-3.583508253,-0.1475248337,-0.3901497722,2024-06-05 19:45:06.479317
58.51979328,1.270198584,-0.1972503662,1.547641516,2024-06-05 19:45:06.519793
58.56026713,2.957127571,-0.5897741318,4.327492237,2024-06-05 19:45:06.560267
58.60074817,-1.276693225,0.7245264053,-0.742184937,2024-06-05 19:45:06.600748
58.64125614,-2.17982769,0.4814424515,-2.043864012,2024-06-05 19:45:06.641256
58.68172781,-2.826087713,1.174403191,-0.1824984252,2024-06-05 19:45:06.681728
58.72219708,-2.171230316,0.2079610825,1.249005079,2024-06-05 19:45:06.722197
58.76267619,-0.1768763065,-0.1176424026,0.07797324657,2024-06-05 19:45:06.762676
58.80315781,0.08037221432,0.8336048126,-0.3974273801,2024-06-05 19:45:06.803158
58.84363895,-0.4872877598,0.3028841019,0.01176524162,2024-06-05 19:45:06.843639
58.88412176,-0.4589313269,0.1196804047,0.8316231966,2024-06-05 19:45:06.884122
58.92456614,-0.7633684874,-0.221364975,1.29065609,2024-06-05 19:45:06.924566
58.96503145,-2.350551605,-0.6256408691,0.6246461868,2024-06-05 19:45:06.965031
59.00552494,-4.607384682,-1.545847893,-0.5368453264,2024-06-05 19:45:07.005525
59.04606739,-5.448276997,-2.074660301,1.620368004,2024-06-05 19:45:07.046067
59.08654567,-0.893276453,-0.4263811111,7.246919155,2024-06-05 19:45:07.086546
59.12701952,1.203018188,0.6064958572,2.030002594,2024-06-05 19:45:07.127020
59.16749567,-1.692254901,-0.06128692627,-3.219195366,2024-06-05 19:45:07.167496
59.20798838,-1.409802437,0.1388607025,-9.548332214,2024-06-05 19:45:07.207988
59.24845744,-2.773181915,-2.659345627,-5.722749233,2024-06-05 19:45:07.248457
59.28895281,-4.334899902,-3.177537918,-2.774132252,2024-06-05 19:45:07.288953
59.3294201,-1.561690807,-1.169294357,-5.091132164,2024-06-05 19:45:07.329420
59.36990135,2.380649567,1.170201302,-5.365810394,2024-06-05 19:45:07.369901
59.41038812,4.072499275,2.738790512,-2.721189022,2024-06-05 19:45:07.410388
59.45087666,4.201651573,2.926177502,-0.4039381742,2024-06-05 19:45:07.450877
59.49134447,4.388237,1.146959305,1.026887417,2024-06-05 19:45:07.491344
59.53181119,2.560956955,-0.8704051971,1.782199621,2024-06-05 19:45:07.531811
59.57228557,-3.508551121,-2.03499794,0.9880187511,2024-06-05 19:45:07.572286
59.61278567,-4.585580826,1.155744553,-0.2874580622,2024-06-05 19:45:07.612786
59.65330354,-0.8593630791,3.377799511,-0.5405539274,2024-06-05 19:45:07.653304
59.69381843,2.112850666,0.2561368942,-3.4108181,2024-06-05 19:45:07.693818
59.734224,1.408843875,-12.39303398,0.9901378751,2024-06-05 19:45:07.734224
59.77470562,-1.683238745,0.6568555832,0.5186415911,2024-06-05 19:45:07.774706
59.81514489,0.8102593422,7.070606232,-3.215241194,2024-06-05 19:45:07.815145
59.85562656,2.144184351,0.03223800659,-5.399472713,2024-06-05 19:45:07.855627
59.8961377,3.163131952,-5.569625854,-3.865857601,2024-06-05 19:45:07.896138
59.93665473,1.476439953,2.110346317,0.6833661795,2024-06-05 19:45:07.936655
59.97712333,1.056585431,0.9575090408,0.356015265,2024-06-05 19:45:07.977123
60.01757463,-0.4698475897,-1.409183502,2.736691952,2024-06-05 19:45:08.017575
60.05807411,0.5062320828,0.8414163589,-0.9059373736,2024-06-05 19:45:08.058074
60.09854228,-0.6287325621,0.5911169052,-0.75244838,2024-06-05 19:45:08.098542
60.13903609,-1.3657763,-0.7380180359,2.225652456,2024-06-05 19:45:08.139036
60.17953286,-1.292775035,-0.3807344437,3.112326622,2024-06-05 19:45:08.179533
60.21999557,-0.9985239506,1.411488533,0.4065208435,2024-06-05 19:45:08.219996
60.26048463,-2.666557312,0.8725252151,0.002211093903,2024-06-05 19:45:08.260485
60.3009765,-2.64289999,-3.869579315,3.856793404,2024-06-05 19:45:08.300976
60.34144588,6.50846386,-4.752441406,3.363248348,2024-06-05 19:45:08.341446
60.38192708,8.323447227,-1.683197975,-1.968123198,2024-06-05 19:45:08.381927
60.42239187,5.962447643,-0.5650033951,-8.948371887,2024-06-05 19:45:08.422392
60.46292015,3.451632977,2.683718681,-7.981869698,2024-06-05 19:45:08.462920
60.50343249,1.223234892,0.2344846725,0.6190997362,2024-06-05 19:45:08.503432
60.54390218,-1.192590117,-0.2057437897,1.616102576,2024-06-05 19:45:08.543902
60.58438333,1.513819933,1.576379776,-0.9779331684,2024-06-05 19:45:08.584383
60.62485635,2.852576971,0.5562639236,-0.7025151253,2024-06-05 19:45:08.624856
60.66524963,2.242869854,-0.05535316467,0.8665863276,2024-06-05 19:45:08.665250
60.70575124,0.2458934784,0.1916780472,-0.8998551369,2024-06-05 19:45:08.705751
60.74626109,1.125177264,0.8649110794,0.2749786377,2024-06-05 19:45:08.746261
60.78672104,1.705226779,0.4855327606,3.139238834,2024-06-05 19:45:08.786721
60.8272138,1.280063033,0.1191101074,4.73917675,2024-06-05 19:45:08.827214
60.86769229,1.571192503,1.518752098,1.850539923,2024-06-05 19:45:08.867692
60.90817208,2.123138905,1.033913612,-0.9090572,2024-06-05 19:45:08.908172
60.94866499,0.233844161,-1.21114254,-4.841091633,2024-06-05 19:45:08.948665
60.98918176,0.6039016247,-4.814774513,-0.9381119609,2024-06-05 19:45:08.989182
61.0296414,-0.5512079597,1.854528904,-1.188569546,2024-06-05 19:45:09.029641
61.07009171,-2.402571678,-0.04902076721,-3.068426609,2024-06-05 19:45:09.070092
61.11059369,-3.811036825,-1.877434731,0.6915826201,2024-06-05 19:45:09.110594
61.15107604,-3.19205761,0.05118846893,2.118542194,2024-06-05 19:45:09.151076
61.1915564,-2.834478855,1.87347126,0.01482498646,2024-06-05 19:45:09.191556
61.23204395,-3.940638065,1.392380714,-1.091651917,2024-06-05 19:45:09.232044
61.27252317,-4.631897449,-0.8694763184,1.28474009,2024-06-05 19:45:09.272523
61.31300057,-1.669264436,-1.804497719,13.23291206,2024-06-05 19:45:09.313001
61.3535088,-3.655296087,0.2674722672,-0.2395684123,2024-06-05 19:45:09.353509
61.39400317,-1.170694113,-3.415266991,10.61626244,2024-06-05 19:45:09.394003
61.43445307,-0.1277301311,-4.484539986,-0.2526761293,2024-06-05 19:45:09.434453
61.47491869,2.022823572,-3.435054779,-3.09262538,2024-06-05 19:45:09.474919
61.51540499,1.964851618,0.08873939514,-7.080324173,2024-06-05 19:45:09.515405
61.55590676,2.631772518,-0.9452877045,-2.905589581,2024-06-05 19:45:09.555907
61.59638015,2.706331253,-0.2231845856,-5.433495522,2024-06-05 19:45:09.596380
61.6368501,5.06191206,6.524801254,-6.77983284,2024-06-05 19:45:09.636850
61.67732942,1.64914608,4.86020565,6.412577629,2024-06-05 19:45:09.677329
61.7178163,-1.643476605,-11.18515873,-10.27939224,2024-06-05 19:45:09.717816
61.758294,1.393895864,-2.130648613,1.956050873,2024-06-05 19:45:09.758294
61.79877822,-3.414177895,-1.244987488,-5.36443615,2024-06-05 19:45:09.798778
61.83926208,-0.2376143932,-1.01880455,0.4705344439,2024-06-05 19:45:09.839262
61.87974984,-2.541428566,1.179327965,-2.555547476,2024-06-05 19:45:09.879750
61.92022635,-0.207092762,0.09836387634,-0.6942733526,2024-06-05 19:45:09.920226
61.96070859,1.262740612,-0.5522403717,1.483080864,2024-06-05 19:45:09.960709
62.00120718,0.3325896859,0.4692106247,0.002698421478,2024-06-05 19:45:10.001207
62.041709,-0.8775574565,0.6922512054,-0.6637736559,2024-06-05 19:45:10.041709
62.0821314,-0.7961892486,1.031356812,-0.4863099456,2024-06-05 19:45:10.082131
62.12262369,-0.6060330868,0.7573213577,-0.6337332726,2024-06-05 19:45:10.122624
62.16315432,-0.3950124383,0.5620393753,-1.065159678,2024-06-05 19:45:10.163154
62.203629,-0.7100306153,0.1446447372,-0.3503187299,2024-06-05 19:45:10.203629
62.24403906,-0.3124574125,0.06068706512,0.5477773547,2024-06-05 19:45:10.244039
62.28451541,-1.72903657,-0.6584262848,3.637129307,2024-06-05 19:45:10.284515
62.32498051,-2.921335936,-0.6403160095,0.3703261614,2024-06-05 19:45:10.324981
62.36544801,-1.286267757,-0.6323871613,0.7299210429,2024-06-05 19:45:10.365448
62.40597463,-1.654833436,-0.3466806412,1.463633299,2024-06-05 19:45:10.405975
62.4464838,-3.190254211,-0.7176914215,0.1767234802,2024-06-05 19:45:10.446484
62.48694255,-4.122486591,-1.461903572,0.7675388455,2024-06-05 19:45:10.486943
62.52744197,-2.931300879,-1.158452988,1.151953816,2024-06-05 19:45:10.527442
62.56793187,0.3864065409,-0.778960228,3.373187542,2024-06-05 19:45:10.567932
62.60839452,1.56061244,0.1574001312,2.562572718,2024-06-05 19:45:10.608395
62.64887833,-0.02033092827,0.5337238312,-1.886634707,2024-06-05 19:45:10.648878
62.68936958,-0.44948861,0.4021692276,-4.013406754,2024-06-05 19:45:10.689370
62.72985359,-0.1864060163,-0.1353559494,-3.449028969,2024-06-05 19:45:10.729854
62.77030744,0.6277566552,-0.4350204468,-0.7802175283,2024-06-05 19:45:10.770307
62.81080489,0.1470687836,0.4640760422,-2.144085646,2024-06-05 19:45:10.810805
62.85128619,0.5280194283,0.6598091125,-2.889409065,2024-06-05 19:45:10.851286
62.89176234,0.5683712363,0.3910131454,-3.072390318,2024-06-05 19:45:10.891762
