Time (s),Acceleration x (m/s^2),Acceleration y (m/s^2),Acceleration z (m/s^2),Datetime
0.002962458333,-2.624192963,5.208269348,5.317841492,2024-06-04 15:48:16.002962
0.04326745834,-0.1357676697,3.818409576,12.67204834,2024-06-04 15:48:16.043267
0.08357145833,-2.466121674,4.406237183,7.87003418,2024-06-04 15:48:16.083571
0.1238754583,-1.147513733,4.531826019,8.037835236,2024-06-04 15:48:16.123875
0.1641794583,1.018182678,3.864064636,10.39947418,2024-06-04 15:48:16.164179
0.2044834583,0.427660675,3.930676117,9.668993225,2024-06-04 15:48:16.204483
0.2447877083,-0.1610650635,3.86361557,6.458020477,2024-06-04 15:48:16.244788
0.2850917083,2.540367279,4.387975159,9.094338226,2024-06-04 15:48:16.285092
0.3253957083,3.515439606,3.668720856,9.315428467,2024-06-04 15:48:16.325396
0.3656997083,0.7006929016,3.856131134,7.934999084,2024-06-04 15:48:16.365700
0.4060037083,2.214794312,3.97827713,8.653804321,2024-06-04 15:48:16.406004
0.4463087083,2.513123932,3.608396301,7.450007629,2024-06-04 15:48:16.446309
0.4866127083,3.614234161,3.91391098,6.791377258,2024-06-04 15:48:16.486613
0.5269167083,2.833008728,1.939067688,8.347092133,2024-06-04 15:48:16.526917
0.5672207083,4.723427582,2.862946472,6.148913269,2024-06-04 15:48:16.567221
0.6075257083,5.674100647,1.656455383,8.80843277,2024-06-04 15:48:16.607526
0.6478297083,3.952380981,2.883753204,8.284671936,2024-06-04 15:48:16.647830
0.6881337083,5.449417877,2.211950226,7.778873749,2024-06-04 15:48:16.688134
0.7284377083,7.646399231,3.47517334,10.76666061,2024-06-04 15:48:16.728438
0.7687417083,5.995781708,2.892584839,7.106621704,2024-06-04 15:48:16.768742
0.8090467083,3.063379669,1.481618958,5.374274139,2024-06-04 15:48:16.809047
0.8493507083,1.495989075,0.3861968994,3.221450958,2024-06-04 15:48:16.849351
0.8896547083,0.6149212646,-3.081791382,2.076931,2024-06-04 15:48:16.889655
0.9299587083,3.609294434,-3.900438995,3.070564728,2024-06-04 15:48:16.929959
0.9702627083,15.46134796,-5.37771698,11.16423386,2024-06-04 15:48:16.970263
1.010566708,14.33074905,-2.134710846,13.39220078,2024-06-04 15:48:17.010567
1.050871708,14.53297852,-2.244133301,7.899672546,2024-06-04 15:48:17.050872
1.091175708,13.04986267,-1.56903717,5.519921265,2024-06-04 15:48:17.091176
1.131479708,12.3262674,-0.8611592102,3.866160278,2024-06-04 15:48:17.131480
1.171783708,8.579558716,-3.042123871,0.9029223633,2024-06-04 15:48:17.171784
1.212087708,6.763984222,-3.826492767,2.065854034,2024-06-04 15:48:17.212088
1.252392125,6.464906158,-6.026018829,8.543483734,2024-06-04 15:48:17.252392
1.292697125,7.518115997,-6.479875031,8.43166626,2024-06-04 15:48:17.292697
1.333001125,8.284522247,-3.98651001,6.234535217,2024-06-04 15:48:17.333001
1.408571125,7.126530304,-2.585273895,-0.9617500305,2024-06-04 15:48:17.408571
1.448875125,11.97285233,-2.347268829,6.640790405,2024-06-04 15:48:17.448875
1.489179125,9.642947388,0.1357676697,-1.410217438,2024-06-04 15:48:17.489179
1.529483125,12.74090515,1.671723633,2.552941132,2024-06-04 15:48:17.529483
1.569787125,7.713609467,0.5406756592,-0.7201524353,2024-06-04 15:48:17.569787
1.610091125,-5.432203674,-3.569177856,0.8631051636,2024-06-04 15:48:17.610091
1.650396125,10.16775604,-1.445394287,-1.168619843,2024-06-04 15:48:17.650396
1.690700125,7.688312073,-3.93965744,1.592687988,2024-06-04 15:48:17.690700
1.731004125,13.35522766,-2.476749573,1.207987976,2024-06-04 15:48:17.731004
1.771308125,11.69038971,-2.314636688,-0.5301974487,2024-06-04 15:48:17.771308
1.811612125,8.053103485,-10.59616516,0.4379891968,2024-06-04 15:48:17.811612
1.851916125,9.667795715,-7.009324036,0.0296383667,2024-06-04 15:48:17.851916
1.892220125,9.13490387,-4.7271698,0.8628057861,2024-06-04 15:48:17.892220
1.932524125,7.595654755,-5.357958069,0.6956034851,2024-06-04 15:48:17.932524
1.972828125,8.018226013,-4.71309906,0.8626560974,2024-06-04 15:48:17.972828
2.013132125,6.635700989,-7.648644562,-0.4297563171,2024-06-04 15:48:18.013132
2.053436125,7.854167175,-7.113058319,2.148482208,2024-06-04 15:48:18.053436
2.093740125,12.23495728,-3.532803497,3.37098999,2024-06-04 15:48:18.093740
2.134044125,8.369395752,-6.13244751,3.807931366,2024-06-04 15:48:18.134044
2.174348125,5.235812073,-3.865262146,5.118306427,2024-06-04 15:48:18.174348
2.214652125,4.516258392,-2.873424683,4.885540466,2024-06-04 15:48:18.214652
2.254955875,5.495971069,-5.092559967,8.436905365,2024-06-04 15:48:18.254956
2.295259875,4.198618927,-4.106260986,1.463656311,2024-06-04 15:48:18.295260
2.335563875,-0.7482939148,-7.96598465,7.707771606,2024-06-04 15:48:18.335564
2.375867875,0.9999206543,-7.61720993,5.674699402,2024-06-04 15:48:18.375868
2.416172875,-0.1258882141,-5.314847717,5.76615921,2024-06-04 15:48:18.416173
2.456476875,-2.538870392,-8.280780029,8.501271515,2024-06-04 15:48:18.456477
2.496780875,-6.04577774,-8.057594147,14.56875412,2024-06-04 15:48:18.496781
2.537084875,6.823710022,3.862717438,-23.36955276,2024-06-04 15:48:18.537085
2.577388875,-9.150172119,-9.929601288,4.902754669,2024-06-04 15:48:18.577389
2.617692875,-4.59723999,-10.30951126,0.803379364,2024-06-04 15:48:18.617693
2.657996875,-5.96045517,-9.910740509,1.265767822,2024-06-04 15:48:18.657997
2.698300875,-5.700146484,-7.632178802,-2.856060791,2024-06-04 15:48:18.698301
2.738604875,-6.934779053,-8.823850708,0.9675878906,2024-06-04 15:48:18.738605
2.778908875,-7.424261169,-6.820716248,0.8870553589,2024-06-04 15:48:18.778909
2.819212875,-7.073091431,-6.7642836,0.6230044556,2024-06-04 15:48:18.819213
2.859516875,-6.604865112,-5.407804413,1.249152374,2024-06-04 15:48:18.859517
2.899820875,-9.566007385,-5.297334137,2.075434113,2024-06-04 15:48:18.899821
2.940124875,-7.858807526,-5.375471649,0.3926335144,2024-06-04 15:48:18.940125
2.980428875,-7.076833649,-6.484964447,0.8878038025,2024-06-04 15:48:18.980429
3.020732875,-7.795638885,-4.875661011,1.828747101,2024-06-04 15:48:19.020733
3.061037875,-8.168214111,-4.147575073,2.16704361,2024-06-04 15:48:19.061038
3.101341875,-7.000941467,-8.195756836,2.246977386,2024-06-04 15:48:19.101342
3.141645875,-7.285050659,-6.918462982,0.9526190186,2024-06-04 15:48:19.141646
3.181949875,-6.88942337,-6.420149231,1.034648438,2024-06-04 15:48:19.181950
3.222253875,-6.760990448,-6.323749695,1.420995026,2024-06-04 15:48:19.222254
3.262557958,-7.112459564,-4.09533371,1.496138763,2024-06-04 15:48:19.262558
3.302861958,-7.912994843,-7.829767914,1.553170166,2024-06-04 15:48:19.302862
3.343165958,-6.238277435,-6.552324371,1.025966492,2024-06-04 15:48:19.343166
3.383469958,-6.150709534,0.4805007935,-0.3838018799,2024-06-04 15:48:19.383470
3.423774958,-5.010829926,-7.16440155,2.271825714,2024-06-04 15:48:19.423775
3.464078958,-6.628366241,-2.474803619,-0.4564009094,2024-06-04 15:48:19.464079
3.504382958,-4.832700348,-8.466543732,3.397185516,2024-06-04 15:48:19.504383
3.544686958,-3.492836609,-6.278992767,1.877845001,2024-06-04 15:48:19.544687
3.584990958,-1.641935577,-8.710985413,-0.933608551,2024-06-04 15:48:19.584991
3.625294958,-1.497485962,-8.472531281,1.809586945,2024-06-04 15:48:19.625295
3.665598958,-2.925815735,-11.96716415,1.567839661,2024-06-04 15:48:19.665599
3.705903958,-2.306852875,-12.40814713,1.979932709,2024-06-04 15:48:19.705904
3.746207958,-3.302582245,-10.96544724,2.678979034,2024-06-04 15:48:19.746208
3.786511958,-1.940863953,-13.11108536,2.194885712,2024-06-04 15:48:19.786512
3.826815958,2.038161621,-12.5916655,1.493893433,2024-06-04 15:48:19.826816
3.867119958,0.9654922485,-11.05795486,2.007325745,2024-06-04 15:48:19.867120
3.907423958,-3.673959961,-5.106630707,-0.4875361633,2024-06-04 15:48:19.907424
3.947728958,-1.013093262,-9.841883698,2.418820038,2024-06-04 15:48:19.947729
3.988032958,-1.120869141,-9.303902435,2.292931824,2024-06-04 15:48:19.988033
4.028336958,-0.6438111877,-9.339079285,2.428549805,2024-06-04 15:48:20.028337
4.068640958,-0.5803431702,-9.394314423,2.217189331,2024-06-04 15:48:20.068641
4.108945958,-0.6209088135,-9.736502838,2.685715027,2024-06-04 15:48:20.108946
4.149249958,-0.3764671326,-9.553134155,2.785108337,2024-06-04 15:48:20.149250
4.189553958,-0.05523513794,-9.46017746,2.334694977,2024-06-04 15:48:20.189554
4.229857958,-0.3266207886,-9.410630493,2.61281662,2024-06-04 15:48:20.229858
4.270162375,-0.1347198486,-9.415570221,2.477947083,2024-06-04 15:48:20.270162
4.310467375,-0.4767585754,-9.561217346,2.481389923,2024-06-04 15:48:20.310467
4.350771375,-0.4538562012,-9.306297455,2.211650848,2024-06-04 15:48:20.350771
4.391075375,-0.3712280273,-9.559870148,2.37181778,2024-06-04 15:48:20.391075
4.431379375,-1.208287354,-9.454788666,2.750679932,2024-06-04 15:48:20.431379
4.471684375,-0.4055067444,-9.124725037,2.489323425,2024-06-04 15:48:20.471684
4.511988375,-0.135617981,-9.631571045,3.085084534,2024-06-04 15:48:20.511988
4.552292375,-0.6872209167,-9.756561127,2.821183319,2024-06-04 15:48:20.552292
4.592596375,-0.8460406494,-8.66682724,2.427202606,2024-06-04 15:48:20.592596
4.632901375,-0.9647438049,-9.404044189,2.367327118,2024-06-04 15:48:20.632901
4.673205375,-0.3480262756,-9.618997192,2.862946472,2024-06-04 15:48:20.673205
4.713509375,-0.2067201233,-9.895023193,2.450404358,2024-06-04 15:48:20.713509
4.753814375,-0.3882925415,-9.359436951,2.380799103,2024-06-04 15:48:20.753814
4.794118375,-0.02589614868,-9.1371492,1.854343872,2024-06-04 15:48:20.794118
4.834422375,-2.415975952,-8.920549622,3.552263031,2024-06-04 15:48:20.834422
4.874727375,-1.479074249,-9.29522049,1.725611572,2024-06-04 15:48:20.874727
4.915031375,1.581012268,-10.08138565,0.8581654358,2024-06-04 15:48:20.915031
4.955335375,1.405128021,-10.9632019,1.360670471,2024-06-04 15:48:20.955335
4.995639375,0.5185217285,-9.091494141,1.060993652,2024-06-04 15:48:20.995639
5.035944375,-1.081501007,-10.07929001,1.563947754,2024-06-04 15:48:21.035944
5.076248375,-1.035097504,-11.26392654,3.336711273,2024-06-04 15:48:21.076248
5.116552375,1.166823578,-10.545271,3.031046906,2024-06-04 15:48:21.116552
5.156857375,0.8186476135,-10.05878265,1.937121735,2024-06-04 15:48:21.156857
5.197161375,0.6650669861,-11.69488037,4.946314087,2024-06-04 15:48:21.197161
5.237465375,-0.6167175293,-11.34999756,4.083957367,2024-06-04 15:48:21.237465
5.277769833,-1.139580231,-9.904453583,2.504741364,2024-06-04 15:48:21.277770
5.318073833,-2.24652832,-9.141190796,5.39642807,2024-06-04 15:48:21.318074
5.358377833,-2.666405182,-9.184750214,4.886737976,2024-06-04 15:48:21.358378
5.398682833,-4.992867279,-8.694519653,3.439697113,2024-06-04 15:48:21.398683
5.438986833,-2.859353943,-6.721921692,4.513414307,2024-06-04 15:48:21.438987
5.479290833,-1.872306519,-8.448880463,4.714595947,2024-06-04 15:48:21.479291
5.519595833,-1.698517914,-4.933440857,5.075345764,2024-06-04 15:48:21.519596
5.559899833,-4.267475739,-6.684499512,5.282664642,2024-06-04 15:48:21.559900
5.600204833,-3.412154388,-5.324876862,5.755381622,2024-06-04 15:48:21.600205
5.640508833,-3.35347641,-4.730762329,6.60396698,2024-06-04 15:48:21.640509
5.680812833,-3.428919525,-3.83083374,6.327342224,2024-06-04 15:48:21.680813
5.721117833,-4.710404663,-4.861141205,7.223378906,2024-06-04 15:48:21.721118
5.761421833,-2.866539001,-4.228257294,6.552923126,2024-06-04 15:48:21.761422
5.801725833,-3.058290253,-4.409380646,6.638994141,2024-06-04 15:48:21.801726
5.842030833,-4.917124786,-4.853656769,7.229216766,2024-06-04 15:48:21.842031
5.882334833,-4.261637878,-5.620362396,6.826404419,2024-06-04 15:48:21.882335
5.922638833,-3.758234711,-5.640420685,7.831713867,2024-06-04 15:48:21.922639
5.962943833,-5.006938019,-6.728807373,7.323969727,2024-06-04 15:48:21.962944
6.003247833,-4.767436066,-4.907993774,8.39888443,2024-06-04 15:48:22.003248
6.043551833,-2.287093964,-5.249284058,6.445296936,2024-06-04 15:48:22.043552
6.083856833,-4.098926239,-6.156397705,7.313940582,2024-06-04 15:48:22.083857
6.124160833,-1.61828476,-4.047133942,5.654790802,2024-06-04 15:48:22.124161
6.164465833,-4.017794952,-6.775210876,8.541837158,2024-06-04 15:48:22.164466
6.204769833,-4.280049591,-4.987029419,9.405990143,2024-06-04 15:48:22.204770
6.245073708,-2.837349701,-3.755390625,6.561006317,2024-06-04 15:48:22.245074
6.285378708,-4.883145447,-2.966531067,7.228917389,2024-06-04 15:48:22.285379
6.325682708,-5.61647049,-5.581892395,6.449787598,2024-06-04 15:48:22.325683
6.365987708,-2.874771881,-4.216431885,7.868088226,2024-06-04 15:48:22.365988
6.406291708,-4.095184021,-5.415438538,6.361321564,2024-06-04 15:48:22.406292
6.446595708,-3.766168213,-3.89055954,6.291267242,2024-06-04 15:48:22.446596
6.486900708,-4.731361084,-5.468128967,6.93627594,2024-06-04 15:48:22.486901
6.527204708,-4.673730927,-4.539609833,8.513396301,2024-06-04 15:48:22.527205
6.567509708,-3.255579987,-5.407654724,7.319479065,2024-06-04 15:48:22.567510
6.607813708,-5.102589111,-5.599106598,8.282426605,2024-06-04 15:48:22.607814
6.648118708,-2.006577301,-6.907685394,6.664141846,2024-06-04 15:48:22.648119
6.688422708,-2.805166626,-4.367467804,4.52119812,2024-06-04 15:48:22.688423
6.728726708,-3.867357788,-4.319268036,5.517376556,2024-06-04 15:48:22.728727
6.769031708,-4.8651828,-7.454348602,8.196205902,2024-06-04 15:48:22.769032
6.809335708,-4.825365601,-7.796836395,7.341333618,2024-06-04 15:48:22.809336
6.849640708,-3.593128052,-5.60823761,5.469326477,2024-06-04 15:48:22.849641
6.889944708,-1.570833435,-6.646777954,6.726112976,2024-06-04 15:48:22.889945
6.930249708,-2.064207458,-7.815397797,5.768853607,2024-06-04 15:48:22.930250
6.970553708,-2.967578888,-6.765630798,4.446653137,2024-06-04 15:48:22.970554
7.010857708,-2.299069061,-7.384144592,5.860313416,2024-06-04 15:48:23.010858
7.051162708,-2.203567657,-8.417445831,5.058131561,2024-06-04 15:48:23.051163
7.091466708,-2.559527435,-8.518635406,5.104085999,2024-06-04 15:48:23.091467
7.131771708,-2.254910889,-9.225016479,6.006259918,2024-06-04 15:48:23.131772
7.172075708,-0.6596781921,-9.130413208,4.616849213,2024-06-04 15:48:23.172076
7.212380708,-0.8214916992,-8.861721954,4.022584991,2024-06-04 15:48:23.212381
7.252684625,-2.235151978,-9.590855713,3.677851868,2024-06-04 15:48:23.252685
7.292989625,0.5372328186,-9.763746185,5.120102692,2024-06-04 15:48:23.292990
7.333293625,-1.28118576,-9.758357391,3.824546814,2024-06-04 15:48:23.333294
7.373598625,0.06960525513,-9.753118286,3.260370026,2024-06-04 15:48:23.373599
7.413902625,-1.519639893,-9.936786346,4.755460968,2024-06-04 15:48:23.413903
7.454206625,-1.361269226,-7.285948792,2.308200073,2024-06-04 15:48:23.454207
7.494511625,-3.026107178,-8.455915833,3.728296967,2024-06-04 15:48:23.494512
7.534815625,-3.740122375,-9.932744751,5.903274078,2024-06-04 15:48:23.534816
7.575120625,0.5677693176,-8.67506012,5.839806061,2024-06-04 15:48:23.575121
7.615424625,-1.69312912,-8.230933685,3.211272125,2024-06-04 15:48:23.615425
7.655729625,-2.093546448,-8.562793579,6.110293579,2024-06-04 15:48:23.655730
7.696033625,-3.534899139,-8.693621521,4.155957642,2024-06-04 15:48:23.696034
7.736338625,-3.128643951,-7.140750732,4.500840454,2024-06-04 15:48:23.736339
7.776642625,-3.640878754,-9.620194702,7.580536194,2024-06-04 15:48:23.776643
7.816947625,-4.479584656,-8.839717712,6.369404755,2024-06-04 15:48:23.816948
7.857251625,-4.199966125,-4.314328308,8.506360931,2024-06-04 15:48:23.857252
7.897556625,-9.447753296,-6.859785004,6.341712341,2024-06-04 15:48:23.897557
7.937860625,-6.483018494,-7.746690674,3.829336853,2024-06-04 15:48:23.937861
7.978164625,-0.4092489624,-5.351820831,3.703748016,2024-06-04 15:48:23.978165
8.018469625,-2.144440613,-6.593039703,5.622907104,2024-06-04 15:48:24.018470
8.058773625,-2.69349884,-4.230502625,6.071973267,2024-06-04 15:48:24.058774
8.099078625,-3.565136261,-5.66317337,6.261030121,2024-06-04 15:48:24.099079
8.139382625,-6.355483704,-10.35980667,9.906549225,2024-06-04 15:48:24.139383
8.179687625,-2.803669739,-5.237458649,6.48107254,2024-06-04 15:48:24.179688
8.219991625,-2.963387604,-5.071902924,8.641529846,2024-06-04 15:48:24.219992
8.260297125,0.8707392883,-3.52786377,8.839867401,2024-06-04 15:48:24.260297
8.300601125,0.7209008789,-2.932551727,5.398673401,2024-06-04 15:48:24.300601
8.340906125,-2.218087463,-5.248535614,5.547463989,2024-06-04 15:48:24.340906
8.381210125,-3.11247757,-4.439019012,5.724695435,2024-06-04 15:48:24.381210
8.421515125,-5.542823639,-3.588188324,7.002438354,2024-06-04 15:48:24.421515
8.461819125,-5.357059937,-4.345762939,5.998176727,2024-06-04 15:48:24.461819
8.502123125,-5.129982147,-7.046596527,7.168742523,2024-06-04 15:48:24.502123
8.542428125,-3.506158905,-6.72566391,6.159092102,2024-06-04 15:48:24.542428
8.582732125,-1.724414063,-4.876559143,6.63674881,2024-06-04 15:48:24.582732
8.623037125,-3.022514648,-9.23549469,5.152585144,2024-06-04 15:48:24.623037
8.663341125,-3.9454953,-7.672445068,6.716083832,2024-06-04 15:48:24.663341
8.703646125,-4.669988708,-8.482111359,3.654799805,2024-06-04 15:48:24.703646
8.743950125,-2.924917603,-7.83725235,4.678071899,2024-06-04 15:48:24.743950
8.784255125,-2.95560379,-8.164621582,5.927224274,2024-06-04 15:48:24.784255
8.824559125,-2.150428162,-10.8876091,4.469256134,2024-06-04 15:48:24.824559
8.864864125,-1.498234406,-11.06034988,6.099066925,2024-06-04 15:48:24.864864
8.905168125,-3.88696701,-10.52581146,5.644312592,2024-06-04 15:48:24.905168
8.945473125,-2.938838654,-12.78820679,6.370302887,2024-06-04 15:48:24.945473
8.985777125,-1.833088074,-11.51091293,7.276069336,2024-06-04 15:48:24.985777
9.026082125,-0.7801776123,-6.994205475,-0.247585144,2024-06-04 15:48:25.026082
9.066386125,-0.7307803345,-7.429649963,0.5231620789,2024-06-04 15:48:25.066386
9.106691125,-2.881058807,-9.926008759,5.902675323,2024-06-04 15:48:25.106691
9.146995125,-1.890119476,-10.43285477,8.505013733,2024-06-04 15:48:25.146995
9.187299125,-3.076701965,-7.953859863,3.390748901,2024-06-04 15:48:25.187299
9.227604125,-2.988684998,-8.68793335,5.781726837,2024-06-04 15:48:25.227604
9.267907958,-2.578986969,-8.379873962,5.507497101,2024-06-04 15:48:25.267908
9.308212958,-8.841364288,-8.350534973,5.408702545,2024-06-04 15:48:25.308213
9.348516958,-4.762646027,-7.024442596,4.907245331,2024-06-04 15:48:25.348517
9.388821958,-1.578916626,-3.752995605,4.111200714,2024-06-04 15:48:25.388822
9.429125958,-2.00433197,-8.591234436,5.434449005,2024-06-04 15:48:25.429126
9.469430958,-2.442770233,-7.025340729,5.834417267,2024-06-04 15:48:25.469431
9.509734958,0.9785151672,-4.321513367,5.081782379,2024-06-04 15:48:25.509735
9.550039958,-6.364465027,-8.414751434,7.159162445,2024-06-04 15:48:25.550040
9.590343958,-0.6791377258,-2.799777832,5.667664032,2024-06-04 15:48:25.590344
9.630647958,-3.68578537,-6.519392853,8.234825592,2024-06-04 15:48:25.630648
9.670952958,-1.152453461,-2.60817627,5.425168304,2024-06-04 15:48:25.670953
9.711256958,-3.6296521,-3.071612549,6.218668213,2024-06-04 15:48:25.711257
9.751561958,-1.380429382,-4.497098236,7.896379395,2024-06-04 15:48:25.751562
9.791865958,-4.356839905,-7.443121948,6.313720551,2024-06-04 15:48:25.791866
9.832170958,-2.271376648,-4.427043915,6.406377869,2024-06-04 15:48:25.832171
9.872474958,-5.282215576,-6.311924286,5.239554291,2024-06-04 15:48:25.872475
9.912778958,-2.143243103,-5.59656189,6.091283112,2024-06-04 15:48:25.912779
9.953083958,-3.432661743,-4.193978577,5.584736481,2024-06-04 15:48:25.953084
9.993387958,-1.940115509,-6.179000702,5.504353638,2024-06-04 15:48:25.993388
10.03369296,-3.661685486,-9.520352325,5.702691193,2024-06-04 15:48:26.033693
10.07399696,-4.858596497,-9.721234589,3.758983154,2024-06-04 15:48:26.073997
10.11430196,-3.877237244,-10.96679443,3.643722839,2024-06-04 15:48:26.114302
10.15460596,-1.925895081,-12.37192245,6.768774261,2024-06-04 15:48:26.154606
10.19490996,-1.097218323,-13.20494019,4.351750488,2024-06-04 15:48:26.194910
10.23521496,-0.3662882996,-8.871451721,4.56221283,2024-06-04 15:48:26.235215
10.27551862,-2.483934631,-8.508007507,3.285368042,2024-06-04 15:48:26.275519
10.31582363,-0.7954458618,-9.107510834,2.954555969,2024-06-04 15:48:26.315824
10.35612763,-2.85261795,-7.620353394,5.426216125,2024-06-04 15:48:26.356128
10.39643263,-4.789290619,-10.14006363,6.249803467,2024-06-04 15:48:26.396433
10.43673663,-0.09460327148,-8.323591003,4.03560791,2024-06-04 15:48:26.436737
10.47704063,-2.947819977,-7.543114014,5.901328125,2024-06-04 15:48:26.477041
10.51734563,-4.825964355,-8.594826965,5.427862701,2024-06-04 15:48:26.517346
10.55764962,-5.165608063,-9.274264069,7.656578064,2024-06-04 15:48:26.557650
10.59795463,-2.469564514,-7.279961243,5.283413086,2024-06-04 15:48:26.597955
10.63825863,-1.286873932,-7.357949066,5.49357605,2024-06-04 15:48:26.638259
10.67856263,-1.30109436,-3.818708954,4.611759796,2024-06-04 15:48:26.678563
10.71886763,-0.1445993042,-8.022566986,8.461304626,2024-06-04 15:48:26.718868
10.75917163,-4.597539368,-6.369105377,6.582711182,2024-06-04 15:48:26.759172
10.79947663,0.005388793945,-2.495610352,6.336323547,2024-06-04 15:48:26.799477
10.83978063,-0.8114625549,-5.585335236,6.163732452,2024-06-04 15:48:26.839781
10.88008463,-0.1131646729,-3.237018585,6.325545959,2024-06-04 15:48:26.880085
10.92038963,-2.010469208,-4.700076141,5.555846558,2024-06-04 15:48:26.920390
10.96069363,-1.867815857,-3.321592712,7.282805328,2024-06-04 15:48:26.960694
11.00099863,-4.385280762,-6.031407623,6.344556427,2024-06-04 15:48:27.000999
11.04130263,-5.112618256,-6.386768646,7.296726379,2024-06-04 15:48:27.041303
11.08160663,-1.032253418,-6.422993317,5.9826091,2024-06-04 15:48:27.081607
11.12191163,-3.168910217,-4.718487854,4.406087494,2024-06-04 15:48:27.121912
11.16221563,-4.258494415,-7.730973358,7.327861633,2024-06-04 15:48:27.162216
11.20252063,-2.067799988,-12.84434006,5.222938843,2024-06-04 15:48:27.202521
11.24282463,-2.901117096,-12.63312927,7.151079254,2024-06-04 15:48:27.242825
11.28312883,-4.81728241,-9.713001709,6.001918945,2024-06-04 15:48:27.283129
11.32343383,4.662653961,-12.24169327,3.619772644,2024-06-04 15:48:27.323434
11.36373783,-4.866829376,-5.739963684,5.494324493,2024-06-04 15:48:27.363738
11.40404283,7.128925323,-9.398505707,2.369572449,2024-06-04 15:48:27.404043
11.44434683,-1.895957336,-9.45778244,6.79003006,2024-06-04 15:48:27.444347
11.48465083,-5.393134918,-7.473808136,1.780996399,2024-06-04 15:48:27.484651
11.52495583,-3.584595795,-8.564140778,4.618046722,2024-06-04 15:48:27.524956
11.56525983,-2.664758606,-6.951394501,5.614374847,2024-06-04 15:48:27.565260
11.60556483,-2.25236618,-11.24566452,5.001998291,2024-06-04 15:48:27.605565
11.64586883,-11.16303635,-4.93194397,11.27455444,2024-06-04 15:48:27.645869
11.68617283,-2.192490692,-14.48627563,8.779393158,2024-06-04 15:48:27.686173
11.72647783,-1.113534393,-4.293521576,4.309238892,2024-06-04 15:48:27.726478
11.76678183,-2.428100739,-8.263266449,5.626050568,2024-06-04 15:48:27.766782
11.80708583,1.781744843,-5.374124451,5.660329285,2024-06-04 15:48:27.807086
11.84739083,0.3623963928,-4.277654572,2.465223541,2024-06-04 15:48:27.847391
11.88769483,-2.838696899,-3.001857605,3.895050201,2024-06-04 15:48:27.887695
11.92799883,-3.415148163,-3.658542023,6.161936188,2024-06-04 15:48:27.927999
11.96830383,-2.894530792,-4.484524384,7.57634491,2024-06-04 15:48:27.968304
12.00860783,-4.00641861,-6.267616425,7.793094177,2024-06-04 15:48:28.008608
12.04891283,-2.091450806,-2.625091095,5.916296997,2024-06-04 15:48:28.048913
12.08921683,-5.853427734,-3.396586761,4.808301086,2024-06-04 15:48:28.089217
12.12952083,-2.218686218,-3.498075714,6.28572876,2024-06-04 15:48:28.129521
12.16982583,-2.320923615,-8.351283417,5.645210724,2024-06-04 15:48:28.169826
12.21012983,-1.910028076,-11.50717072,8.567433929,2024-06-04 15:48:28.210130
12.25043333,-4.625231781,-11.75745026,7.738008728,2024-06-04 15:48:28.250433
12.29073833,-3.249891815,-9.939331055,5.739065552,2024-06-04 15:48:28.290738
12.33104233,-2.28170517,-12.72863068,5.979016571,2024-06-04 15:48:28.331042
12.37134633,0.09744735718,-8.905131683,5.616620178,2024-06-04 15:48:28.371346
12.41165133,-0.2516267395,-8.095315704,6.009104004,2024-06-04 15:48:28.411651
12.45195533,0.1803749084,-10.17613861,3.829785919,2024-06-04 15:48:28.451955
12.49226033,0.9804611206,-8.35562439,4.038751373,2024-06-04 15:48:28.492260
12.53256433,-1.315015411,-10.47521667,4.144132233,2024-06-04 15:48:28.532564
12.57286833,-3.482807465,-9.377549286,6.44829071,2024-06-04 15:48:28.572868
12.61317333,-2.736309814,-9.248218231,6.34066452,2024-06-04 15:48:28.613173
12.65347733,-0.6128256226,-8.936716003,5.397326202,2024-06-04 15:48:28.653477
12.69378133,-1.599423981,-10.03138962,7.336992645,2024-06-04 15:48:28.693781
12.73408633,-1.938618622,-5.904471588,5.641468506,2024-06-04 15:48:28.734086
12.77439033,-2.575693817,-7.997119904,10.59332108,2024-06-04 15:48:28.774390
12.81469433,0.5016069031,-4.089346161,4.400399323,2024-06-04 15:48:28.814694
12.85499933,-1.133742371,-1.726958771,5.089266815,2024-06-04 15:48:28.854999
12.89530333,0.1580712891,-0.8662486267,2.968626709,2024-06-04 15:48:28.895303
12.93560733,-3.509002991,-1.23792572,6.398893433,2024-06-04 15:48:28.935607
12.97591233,-2.144440613,-3.223995667,6.325545959,2024-06-04 15:48:28.975912
13.01621633,-3.462749176,-4.8651828,7.96239212,2024-06-04 15:48:29.016216
13.05652033,-3.046165466,-5.474116516,7.65238678,2024-06-04 15:48:29.056520
13.09682433,-1.629212036,-5.228028259,7.982899475,2024-06-04 15:48:29.096824
13.13712933,-1.682650909,-8.961264954,6.37584137,2024-06-04 15:48:29.137129
13.17743333,-2.428400116,-8.246201935,6.64722702,2024-06-04 15:48:29.177433
13.21773733,-5.299878845,-11.68544998,6.220464478,2024-06-04 15:48:29.217737
13.25804258,-2.841690674,-12.39572296,7.824678497,2024-06-04 15:48:29.258043
13.29834658,-2.611319733,-10.63777863,5.249433746,2024-06-04 15:48:29.298347
13.33865058,1.617386627,-8.709189148,5.713169403,2024-06-04 15:48:29.338651
13.37895558,1.225202179,-10.37163208,5.816604309,2024-06-04 15:48:29.378956
13.41925958,0.2086660767,-9.33024765,4.738097076,2024-06-04 15:48:29.419260
13.45956358,-2.502945099,-8.680448914,5.195396118,2024-06-04 15:48:29.459564
13.49986858,-3.670816498,-9.166637878,4.016597443,2024-06-04 15:48:29.499869
13.54017258,-4.656816101,-8.606951752,6.028114471,2024-06-04 15:48:29.540173
13.58047658,-4.059857483,-9.389823761,6.929839325,2024-06-04 15:48:29.580477
13.62078158,-2.917582855,-7.590715027,8.83881958,2024-06-04 15:48:29.620782
13.66108558,-0.3152444458,-6.038592682,6.217919769,2024-06-04 15:48:29.661086
13.70138958,-1.320254517,-5.273683319,10.00444565,2024-06-04 15:48:29.701390
13.74169358,2.578088837,-2.917283478,2.236798553,2024-06-04 15:48:29.741694
13.78199858,-0.9765692139,-5.458848267,4.750371552,2024-06-04 15:48:29.781999
13.82230258,-0.4535568237,-2.129172363,6.831493835,2024-06-04 15:48:29.822303
13.86260658,-1.676813049,-2.04998703,5.684578857,2024-06-04 15:48:29.862607
13.90291058,-0.9385482788,-1.438209229,6.132746887,2024-06-04 15:48:29.902911
13.94321558,-3.484753418,-5.62111084,7.998167725,2024-06-04 15:48:29.943216
13.98351958,-2.97087204,-5.740263062,8.723559265,2024-06-04 15:48:29.983520
14.02382358,-2.204914856,-5.367089081,5.417983246,2024-06-04 15:48:30.023824
14.06412858,-1.481618958,-5.282215576,5.984255676,2024-06-04 15:48:30.064129
14.10443258,-4.646786957,-13.16182983,3.366050262,2024-06-04 15:48:30.104433
14.14473658,1.151255951,-10.76531342,6.18154541,2024-06-04 15:48:30.144737
14.18504058,-4.176764374,-16.26323044,7.193141785,2024-06-04 15:48:30.185041
14.22534558,-2.221380615,-9.408983917,6.595584412,2024-06-04 15:48:30.225346
14.26564988,-0.8487350464,-10.20981857,6.356681213,2024-06-04 15:48:30.265650
14.30595388,-0.8572673035,-9.169631653,4.739444275,2024-06-04 15:48:30.305954
14.34625888,-3.233575745,-8.333620148,4.004622345,2024-06-04 15:48:30.346259
14.38656288,-1.546733551,-5.727240143,1.041683807,2024-06-04 15:48:30.386563
14.42686688,-7.788902893,-11.61060562,7.27202774,2024-06-04 15:48:30.426867
14.46717088,-6.068979492,-11.10420868,8.151149597,2024-06-04 15:48:30.467171
14.50747588,-2.428250427,-9.490115204,4.91787323,2024-06-04 15:48:30.507476
14.54777987,1.818717957,-5.594316559,3.4120047,2024-06-04 15:48:30.547780
14.58808388,-4.010909271,-5.933211823,7.032525787,2024-06-04 15:48:30.588084
14.62838788,-5.359155579,-10.65379532,5.98964447,2024-06-04 15:48:30.628388
14.66869188,4.175417175,-1.836381226,3.22130127,2024-06-04 15:48:30.668692
14.70899688,-0.5487588501,-5.098996582,6.511908417,2024-06-04 15:48:30.708997
14.74930088,-3.866459656,-1.551822968,4.290078735,2024-06-04 15:48:30.749301
14.78960488,-2.677931213,-3.243754578,6.034401398,2024-06-04 15:48:30.789605
14.82990888,-3.798950043,-4.940027161,7.198829956,2024-06-04 15:48:30.829909
14.87021388,-3.244203644,-5.88201828,6.981781311,2024-06-04 15:48:30.870214
14.91051787,-1.476080475,-6.160888367,4.830455017,2024-06-04 15:48:30.910518
14.95082188,-3.637585602,-6.071075134,7.025939484,2024-06-04 15:48:30.950822
14.99112587,-2.145638123,-11.69697601,4.572391663,2024-06-04 15:48:30.991126
15.03142988,-3.27863205,-11.09507767,6.294261017,2024-06-04 15:48:31.031430
15.07173488,-4.873565369,-11.22246277,6.263125763,2024-06-04 15:48:31.071735
15.11203888,-4.510869598,-10.82279388,6.709946594,2024-06-04 15:48:31.112039
15.15234288,0.001796264648,-10.42686722,7.578440552,2024-06-04 15:48:31.152343
15.19264688,-1.647174683,-10.96424973,2.196382599,2024-06-04 15:48:31.192647
15.23295188,-2.972219238,-7.837851105,3.06322998,2024-06-04 15:48:31.232952
15.27325596,-1.468596039,-8.214318237,5.481750641,2024-06-04 15:48:31.273256
15.31355996,-3.888912964,-8.134085083,2.264041901,2024-06-04 15:48:31.313560
15.35386396,-5.015919342,-9.322912903,6.780150604,2024-06-04 15:48:31.353864
15.39416796,-5.457351379,-9.920619965,5.512586517,2024-06-04 15:48:31.394168
15.43447296,-3.134930878,-10.33465897,5.032834167,2024-06-04 15:48:31.434473
15.47477696,-1.981429596,-6.079457703,4.918771362,2024-06-04 15:48:31.474777
15.51508096,-4.688250732,-8.32164505,7.422315216,2024-06-04 15:48:31.515081
15.55538496,4.518204346,-2.030527496,0.6227050781,2024-06-04 15:48:31.555385
15.59568896,-1.628014526,-4.677473145,5.833818512,2024-06-04 15:48:31.595689
15.63599296,-1.018631744,-1.97978302,5.803282013,2024-06-04 15:48:31.635993
15.67629696,-1.691332855,-2.094294891,3.483106842,2024-06-04 15:48:31.676297
15.71660196,-2.021396484,-3.84490448,7.685617676,2024-06-04 15:48:31.716602
15.75690596,-2.391576691,-7.842491455,7.061565399,2024-06-04 15:48:31.756906
15.79720996,-1.751956787,-5.795947266,5.904172211,2024-06-04 15:48:31.797210
15.83751396,-4.198618927,-7.356152802,4.245172119,2024-06-04 15:48:31.837514
15.87781796,-6.855593719,-10.46623535,5.624853058,2024-06-04 15:48:31.877818
15.91812296,-3.7384758,-13.21871155,6.505172424,2024-06-04 15:48:31.918123
15.95842696,-1.58310791,-11.52109177,8.970395966,2024-06-04 15:48:31.958427
15.99873096,0.7015910339,-9.330996094,6.276148682,2024-06-04 15:48:31.998731
16.03903496,-1.15365097,-11.17486176,4.482428741,2024-06-04 15:48:32.039035
16.07933896,-0.3159928894,-8.776399384,3.856131134,2024-06-04 15:48:32.079339
16.11964296,-5.334157562,-8.538544006,4.439617767,2024-06-04 15:48:32.119643
16.15994696,-3.505410461,-8.349636841,4.894072723,2024-06-04 15:48:32.159947
16.20025196,-4.21583313,-7.366780701,4.470004578,2024-06-04 15:48:32.200252
16.24055596,-6.052513733,-7.805069275,4.091142426,2024-06-04 15:48:32.240556
16.28086008,-2.949017487,-9.203311615,5.501509552,2024-06-04 15:48:32.280860
16.32116408,-1.878593445,-8.248596954,6.29740448,2024-06-04 15:48:32.321164
16.36146808,-1.266665955,-9.239386597,6.662944336,2024-06-04 15:48:32.361468
16.40177208,-3.430566101,-7.78111908,5.070705414,2024-06-04 15:48:32.401772
16.44207608,3.587140503,-0.7942483521,2.033371582,2024-06-04 15:48:32.442076
16.48238008,-2.411335602,-2.10147995,7.298522644,2024-06-04 15:48:32.482380
16.52268408,-0.3709286499,-0.6321354675,4.05312149,2024-06-04 15:48:32.522684
16.56298908,-3.050057373,-5.163662109,5.961203613,2024-06-04 15:48:32.562989
16.60329308,-2.108964386,-3.959865417,7.675289154,2024-06-04 15:48:32.603293
16.64359708,-3.725003815,-6.982978821,6.261628876,2024-06-04 15:48:32.643597
16.68390108,-3.054548035,-10.3819606,5.061873779,2024-06-04 15:48:32.683901
16.72420508,-5.684578857,-10.91979218,4.993765411,2024-06-04 15:48:32.724205
16.76450908,-2.554438019,-8.596922607,4.188140717,2024-06-04 15:48:32.764509
16.80481308,-1.957629089,-10.75498489,4.829706573,2024-06-04 15:48:32.804813
16.84511708,-0.1553768921,-11.10241241,7.461833038,2024-06-04 15:48:32.845117
16.88542108,-3.735482025,-13.08788361,8.147407379,2024-06-04 15:48:32.885421
16.92572508,-2.141147461,-8.674012299,4.185146942,2024-06-04 15:48:32.925725
16.96603008,-1.442101135,-9.369915161,3.845503235,2024-06-04 15:48:32.966030
17.00633408,-2.83390686,-8.759035492,3.917653198,2024-06-04 15:48:33.006334
17.04663808,-3.988156586,-9.148076477,2.827021179,2024-06-04 15:48:33.046638
17.08694208,-5.518723755,-9.007668457,7.83021698,2024-06-04 15:48:33.086942
17.12724608,-2.641107788,-8.536448364,5.465135193,2024-06-04 15:48:33.127246
17.16755008,-3.44239151,-7.482639771,4.069886627,2024-06-04 15:48:33.167550
17.20785408,0.5948629761,-4.346960449,4.199966125,2024-06-04 15:48:33.207854
17.24815808,-6.399342499,-9.242080994,7.413932648,2024-06-04 15:48:33.248158
17.28846221,2.832110596,-0.2110610962,3.751947784,2024-06-04 15:48:33.288462
17.32876621,-0.3320095825,-4.894222412,4.737348633,2024-06-04 15:48:33.328766
17.36907021,-2.619402924,-1.498234406,4.491559753,2024-06-04 15:48:33.369070
17.40937421,-3.253035278,-5.914351044,5.47246994,2024-06-04 15:48:33.409374
17.44967821,-3.340902557,-6.77595932,7.870932312,2024-06-04 15:48:33.449678
17.48998221,-2.324815521,-6.158343658,6.178401947,2024-06-04 15:48:33.489982
17.53028621,-5.952821045,-7.674840088,5.53923111,2024-06-04 15:48:33.530286
17.57059021,-3.260220337,-9.413025513,4.70142334,2024-06-04 15:48:33.570590
17.61089421,-2.904410248,-12.42087067,7.047794037,2024-06-04 15:48:33.610894
17.65119821,0.4291575623,-11.5219899,6.315516815,2024-06-04 15:48:33.651198
17.69150221,-3.476969604,-8.792865143,5.589676208,2024-06-04 15:48:33.691502
17.73180621,-1.714684296,-9.22965683,6.356980591,2024-06-04 15:48:33.731806
17.77211121,-3.838916931,-9.714498596,5.500461731,2024-06-04 15:48:33.772111
17.81241521,-3.50675766,-7.836803284,4.921316071,2024-06-04 15:48:33.812415
17.85271921,-3.705095215,-10.49437683,5.62814621,2024-06-04 15:48:33.852719
17.89302321,-2.775677948,-8.899892578,4.413422241,2024-06-04 15:48:33.893023
17.93332721,-3.367996216,-9.623338165,5.641767883,2024-06-04 15:48:33.933327
17.97363121,-5.489384766,-7.080126801,7.167395325,2024-06-04 15:48:33.973631
18.01393521,-0.9033714294,-7.636070709,3.575464783,2024-06-04 15:48:34.013935
18.05423921,-0.473764801,-5.62111084,5.513784027,2024-06-04 15:48:34.054239
18.09454321,-2.386636963,-7.369325409,4.319417725,2024-06-04 15:48:34.094543
18.13484721,-1.432371368,-2.415526886,4.005520477,2024-06-04 15:48:34.134847
18.17515021,-1.131197662,-1.255588989,3.656596069,2024-06-04 15:48:34.175150
18.21545421,-2.096091156,-3.407663727,5.201832733,2024-06-04 15:48:34.215454
18.25575783,-3.19196228,-5.962101746,6.053561554,2024-06-04 15:48:34.255758
18.29606183,-2.827769623,-7.171736298,6.760990448,2024-06-04 15:48:34.296062
18.33636583,-4.093836823,-7.682324524,6.495891724,2024-06-04 15:48:34.336366
18.37666983,-3.210523682,-10.11581406,4.527784424,2024-06-04 15:48:34.376670
18.41697383,-2.803220673,-10.62385757,5.513933716,2024-06-04 15:48:34.416974
18.45727783,-1.9880159,-12.00353851,6.835236053,2024-06-04 15:48:34.457278
18.49758183,-3.834126892,-10.47267197,6.584657135,2024-06-04 15:48:34.497582
18.53788583,-3.306174774,-9.561666412,6.972799988,2024-06-04 15:48:34.537886
18.57818983,-1.525178375,-9.066496124,5.677842865,2024-06-04 15:48:34.578190
18.61849383,-2.528691559,-9.297615509,4.687202911,2024-06-04 15:48:34.618494
18.65879783,-1.605710907,-9.404044189,4.809947662,2024-06-04 15:48:34.658798
18.69910183,-5.04660553,-10.45470932,6.75260788,2024-06-04 15:48:34.699102
18.73940583,-3.822750549,-10.69675598,5.566773834,2024-06-04 15:48:34.739406
18.77970983,-3.799698486,-7.384593658,5.566624146,2024-06-04 15:48:34.779710
18.82001383,-3.902983704,-7.389383698,5.27353363,2024-06-04 15:48:34.820014
18.86031783,-2.965183868,-6.634802856,5.469625854,2024-06-04 15:48:34.860318
18.90062183,-1.55855896,-6.271358643,5.756429443,2024-06-04 15:48:34.900622
18.94092583,0.9156459045,-1.967658234,3.796405334,2024-06-04 15:48:34.940926
18.98122983,-1.48131958,-2.933898926,3.970193939,2024-06-04 15:48:34.981230
19.02153283,-0.5866300964,-1.016536102,3.190315704,2024-06-04 15:48:35.021533
19.06183683,-6.320007477,-5.133275299,5.739514618,2024-06-04 15:48:35.061837
19.10214083,-2.468516693,-5.368735657,6.420598297,2024-06-04 15:48:35.102141
19.14244483,-1.115779724,-7.453600159,6.202202454,2024-06-04 15:48:35.142445
19.18274883,-3.346740417,-7.339088287,5.293741608,2024-06-04 15:48:35.182749
19.22305283,-4.395758972,-11.1783046,5.723647614,2024-06-04 15:48:35.223053
19.26335683,-0.5748046875,-9.433832245,6.38048172,2024-06-04 15:48:35.263357
19.30366083,-4.928201752,-12.59914993,7.12233902,2024-06-04 15:48:35.303661
19.34396483,-3.01877243,-11.18953125,7.398514709,2024-06-04 15:48:35.343965
19.38426883,-1.01563797,-8.457562408,5.668412476,2024-06-04 15:48:35.384269
19.42457183,-3.549718323,-9.051676941,5.809568939,2024-06-04 15:48:35.424572
19.46487583,-2.459385681,-8.227341156,4.789290619,2024-06-04 15:48:35.464876
19.50517983,-3.300037537,-10.0236058,4.577032013,2024-06-04 15:48:35.505180
19.54548383,-2.435585175,-8.865913239,4.435875549,2024-06-04 15:48:35.545484
19.58578783,-5.952970734,-10.66307602,7.101681976,2024-06-04 15:48:35.585788
19.62609183,-2.429597626,-8.85753067,4.65576828,2024-06-04 15:48:35.626092
19.66639583,-2.247127075,-5.371130676,4.856949921,2024-06-04 15:48:35.666396
19.70669983,-3.526067505,-7.621850281,7.142397308,2024-06-04 15:48:35.706700
19.74700283,1.47428421,-4.385580139,2.793490906,2024-06-04 15:48:35.747003
19.78730683,-3.655697937,-2.708617401,5.6667659,2024-06-04 15:48:35.787307
19.82761083,-1.45093277,-0.02409988403,3.589385834,2024-06-04 15:48:35.827611
19.86791483,-2.045646057,-1.892664185,4.934039612,2024-06-04 15:48:35.867915
19.90821883,-1.908231812,-4.539011078,4.911286926,2024-06-04 15:48:35.908219
19.94852283,-5.79430069,-7.774532776,6.803801422,2024-06-04 15:48:35.948523
19.98882583,-1.401685181,-6.771768036,5.408852234,2024-06-04 15:48:35.988826
20.02912983,-4.785548401,-10.15548157,5.2606604,2024-06-04 15:48:36.029130
20.06943383,-2.980601807,-11.01125198,6.130501556,2024-06-04 15:48:36.069434
20.10973783,-1.040336609,-11.30898285,5.820346527,2024-06-04 15:48:36.109738
20.15004183,-1.841919708,-10.50201096,7.523055725,2024-06-04 15:48:36.150042
20.19034483,-3.478915558,-11.01753891,6.316714325,2024-06-04 15:48:36.190345
20.23064883,-1.745969238,-8.409212952,4.952002258,2024-06-04 15:48:36.230649
20.2709535,-1.550924835,-9.002579041,3.433260498,2024-06-04 15:48:36.270954
20.3112575,-3.540737,-9.691296844,4.60083252,2024-06-04 15:48:36.311257
20.3515615,-4.175716553,-10.38884628,5.377267914,2024-06-04 15:48:36.351561
20.3918655,-4.451443176,-7.55404129,3.988306274,2024-06-04 15:48:36.391866
20.4321685,-4.227359161,-4.926854553,8.599167938,2024-06-04 15:48:36.432168
20.4724725,-3.092419281,-13.01244049,1.429676971,2024-06-04 15:48:36.472472
20.5127765,-3.973038025,-3.492088165,11.74742111,2024-06-04 15:48:36.512777
20.5530805,3.60734848,-11.44624741,2.31328949,2024-06-04 15:48:36.553081
20.5933845,-3.189417572,-2.478994904,6.494095459,2024-06-04 15:48:36.593384
20.6336875,-4.614005127,-1.751956787,3.36395462,2024-06-04 15:48:36.633688
20.6739915,-0.4709207153,1.850002899,4.831802216,2024-06-04 15:48:36.673991
20.7142955,-2.79304184,-5.717510376,9.091494141,2024-06-04 15:48:36.714295
20.7545995,-4.650379486,-10.68073929,8.288114777,2024-06-04 15:48:36.754600
20.7949025,-2.430046692,-7.033274231,5.148094482,2024-06-04 15:48:36.794902
20.8352065,-2.671494598,-5.523513794,3.656596069,2024-06-04 15:48:36.835207
20.8755105,-3.774101715,-9.994715881,3.313210144,2024-06-04 15:48:36.875511
20.9158145,-3.973936157,-14.49630478,5.414989471,2024-06-04 15:48:36.915814
20.9561175,-1.916764069,-11.70490952,8.81891098,2024-06-04 15:48:36.956118
20.9964215,-3.871998138,-9.921817474,6.907236328,2024-06-04 15:48:36.996422
21.0367255,-3.920497284,-11.11872849,6.251150665,2024-06-04 15:48:37.036725
21.0770295,-0.6325845337,-6.675218811,-0.4923262024,2024-06-04 15:48:37.077029
21.1173325,-2.630180511,-8.885223083,3.849245453,2024-06-04 15:48:37.117332
21.1576365,-4.344266052,-10.82069824,7.342830505,2024-06-04 15:48:37.157636
21.1979405,-7.501799927,-11.43861328,4.351451111,2024-06-04 15:48:37.197941
21.2382445,-3.401077423,-5.967191162,6.863377533,2024-06-04 15:48:37.238245
21.27854633,-2.03247345,-11.04493195,3.961811371,2024-06-04 15:48:37.278546
21.31885033,-2.319426727,-7.597001953,4.901407471,2024-06-04 15:48:37.318850
21.35915433,-2.561174011,-6.052513733,4.671784973,2024-06-04 15:48:37.359154
21.39945733,-1.61708725,-3.062780914,4.110751648,2024-06-04 15:48:37.399457
21.43976133,3.77006012,2.235750732,1.820514221,2024-06-04 15:48:37.439761
21.48006533,-2.771037598,-1.686692505,3.617227936,2024-06-04 15:48:37.480065
21.52036833,-2.076631622,-5.821544037,1.518292694,2024-06-04 15:48:37.520368
21.56067233,-4.413721619,-6.738686829,4.96936615,2024-06-04 15:48:37.560672
21.60097633,-3.291654968,-7.9108992,6.537654877,2024-06-04 15:48:37.600976
21.64128033,-4.471052399,-10.76396622,9.167536011,2024-06-04 15:48:37.641280
21.68158333,-1.115330658,-11.07292374,3.658691711,2024-06-04 15:48:37.681583
21.72188733,-0.1363664246,-6.028862915,5.535189514,2024-06-04 15:48:37.721887
21.76219133,-5.699996796,-13.15464478,3.98067215,2024-06-04 15:48:37.762191
21.80249433,-0.5369334412,-10.19425095,7.796537018,2024-06-04 15:48:37.802494
21.84279833,-3.881727905,-8.485554199,5.204227753,2024-06-04 15:48:37.842798
21.88310233,-3.453767853,-11.21303238,6.591692505,2024-06-04 15:48:37.883102
21.92340533,-0.3388952637,-10.44093796,3.213517456,2024-06-04 15:48:37.923405
21.96370933,-2.765499115,-8.348139954,2.782264252,2024-06-04 15:48:37.963709
22.00401333,-4.699178009,-10.48734146,6.835236053,2024-06-04 15:48:38.004013
22.04431633,-3.733087006,-8.251590729,3.658392334,2024-06-04 15:48:38.044316
22.08462033,-3.170856171,-7.724237366,6.136339417,2024-06-04 15:48:38.084620
22.12492433,-4.7762677,-10.23062531,5.963748322,2024-06-04 15:48:38.124924
22.16522733,-1.062191162,-7.71091507,6.40383316,2024-06-04 15:48:38.165227
22.20553133,-1.426533508,-6.212081909,4.131708069,2024-06-04 15:48:38.205531
22.24583533,-0.7006929016,-3.3920961,4.21343811,2024-06-04 15:48:38.245835
22.28613933,-0.76640625,1.260678406,2.190694427,2024-06-04 15:48:38.286139
22.32644333,-2.964585114,1.447489929,5.337600403,2024-06-04 15:48:38.326443
22.36674633,-1.577719116,-6.032305756,5.189558258,2024-06-04 15:48:38.366746
22.40705033,-4.97280899,-10.70274353,5.713917847,2024-06-04 15:48:38.407050
22.44735433,-3.63309494,-8.876391449,7.62544281,2024-06-04 15:48:38.447354
22.48765733,-3.322640533,-11.45462997,4.587809601,2024-06-04 15:48:38.487657
22.52796133,-0.3713777161,-9.098978577,2.989283752,2024-06-04 15:48:38.527961
22.56826533,-2.531835022,-10.26205994,5.214107208,2024-06-04 15:48:38.568265
22.60856833,-4.516408081,-8.756790161,6.237379303,2024-06-04 15:48:38.608568
22.64887233,-1.263971558,-10.45755341,7.998616791,2024-06-04 15:48:38.648872
22.68917533,-1.484013977,-10.39438477,4.72597229,2024-06-04 15:48:38.689175
22.72947933,-0.2534230042,-11.24925705,6.407725067,2024-06-04 15:48:38.729479
22.76978233,-3.756737823,-10.23990601,4.3316922,2024-06-04 15:48:38.769782
22.81008633,1.429078217,-5.24554184,-0.586330719,2024-06-04 15:48:38.810086
22.85039033,-6.172713776,-8.346343689,6.849456482,2024-06-04 15:48:38.850390
22.89069333,-3.406915283,-12.1509819,5.173242188,2024-06-04 15:48:38.890693
22.93099733,-3.683240662,-6.654861145,6.565496979,2024-06-04 15:48:38.930997
22.97130033,-2.143243103,-8.069419556,5.520669708,2024-06-04 15:48:38.971300
23.01160433,-3.527414703,-7.342082062,6.287974091,2024-06-04 15:48:39.011604
23.05190833,0.6985972595,1.47667923,4.1339534,2024-06-04 15:48:39.051908
23.09221133,-3.83906662,-2.270777893,5.989195404,2024-06-04 15:48:39.092211
23.13251533,1.556613007,-1.998194733,3.226839752,2024-06-04 15:48:39.132515
23.17281833,-3.771706696,-3.260370026,5.01262619,2024-06-04 15:48:39.172818
23.21312233,-5.839506683,-6.667584686,6.941515045,2024-06-04 15:48:39.213122
23.25342533,-1.076411591,-6.591991882,7.258555756,2024-06-04 15:48:39.253425
23.29372908,-3.233575745,-11.06663681,5.534441071,2024-06-04 15:48:39.293729
23.33403208,-5.67380127,-11.289673,5.727240143,2024-06-04 15:48:39.334032
23.37433608,-0.4836442566,-11.26677063,5.188809814,2024-06-04 15:48:39.374336
23.41463908,-5.838907928,-11.63680115,6.300248566,2024-06-04 15:48:39.414639
23.45494308,-1.328337708,-8.354576569,6.202052765,2024-06-04 15:48:39.454943
23.49524608,-1.840422821,-10.83940933,5.144651642,2024-06-04 15:48:39.495246
23.53555008,-3.356769562,-8.437653809,4.606969757,2024-06-04 15:48:39.535550
23.57585408,-2.188000031,-13.74456802,6.736291809,2024-06-04 15:48:39.575854
23.61615708,-2.046244812,-6.772815857,1.413211212,2024-06-04 15:48:39.616157
23.65646108,-5.674250336,-8.623716888,3.96660141,2024-06-04 15:48:39.656461
23.69676408,-3.85193985,-11.3043425,6.247408447,2024-06-04 15:48:39.696764
23.73706808,-5.665119324,-7.366780701,6.123466187,2024-06-04 15:48:39.737068
23.77737108,-4.143832855,-6.242169342,7.111561432,2024-06-04 15:48:39.777371
23.81767508,-3.223097534,-9.022787018,2.435734863,2024-06-04 15:48:39.817675
23.85797808,7.861501923,2.953657837,2.940335541,2024-06-04 15:48:39.857978
23.89828208,-7.653434601,-12.05772583,5.496719513,2024-06-04 15:48:39.898282
23.93858508,-1.02387085,-3.743265839,3.592678986,2024-06-04 15:48:39.938585
23.97888908,-0.2580633545,-4.296665039,2.972518616,2024-06-04 15:48:39.978889
24.01919208,-2.651885376,-3.05739212,4.490661621,2024-06-04 15:48:40.019192
24.05949508,-3.253484344,-7.95775177,4.291126556,2024-06-04 15:48:40.059495
24.09979908,-2.665207672,-6.612948303,4.339625702,2024-06-04 15:48:40.099799
24.14010208,-10.52072205,-15.12275208,4.699178009,2024-06-04 15:48:40.140102
24.18040608,1.039438477,-10.59122543,9.542805634,2024-06-04 15:48:40.180406
24.22070908,-3.67994751,-12.26055405,4.756957855,2024-06-04 15:48:40.220709
24.26101308,-3.186274109,-9.395062866,4.787494354,2024-06-04 15:48:40.261013
24.30131558,-2.168989563,-8.186027069,6.090534668,2024-06-04 15:48:40.301316
24.34161958,-3.703448639,-8.804690552,4.227808228,2024-06-04 15:48:40.341620
24.38192258,-0.652792511,-10.40606049,6.62971344,2024-06-04 15:48:40.381923
24.42222658,-4.031716003,-12.2174437,2.5122258,2024-06-04 15:48:40.422227
24.46252958,-2.908900909,-8.349038086,4.701722717,2024-06-04 15:48:40.462530
24.50283258,-6.93627594,-9.816735992,5.931415558,2024-06-04 15:48:40.502833
24.54313658,-1.927691345,-7.834707642,5.426964569,2024-06-04 15:48:40.543137
24.58343958,-1.651515656,-9.010063477,3.518283691,2024-06-04 15:48:40.583440
24.62374358,-1.003064117,-6.734944611,6.453230438,2024-06-04 15:48:40.623744
24.66404658,-2.813399506,-6.534361725,1.523531799,2024-06-04 15:48:40.664047
24.70435058,-2.146685944,0.3716770935,5.319488068,2024-06-04 15:48:40.704351
24.74465358,-1.896256714,-0.6637197876,3.324137421,2024-06-04 15:48:40.744654
24.78495658,-5.410648499,-2.407443695,6.96321991,2024-06-04 15:48:40.784957
24.82526058,1.504820709,-6.126909027,3.6588414,2024-06-04 15:48:40.825261
24.86556358,-2.941533051,-3.607947235,7.208559723,2024-06-04 15:48:40.865564
24.90586658,-4.720583496,-10.3129541,6.919959869,2024-06-04 15:48:40.905867
24.94617058,-2.98015274,-6.862479401,5.501808929,2024-06-04 15:48:40.946171
24.98647358,-4.633165283,-11.02876556,3.420686646,2024-06-04 15:48:40.986474
25.02677758,-1.416055298,-12.0289856,8.471633148,2024-06-04 15:48:41.026778
25.06708058,-3.493585052,-13.47887054,7.106771393,2024-06-04 15:48:41.067081
25.10738358,-3.067271576,-7.796087952,4.589755554,2024-06-04 15:48:41.107384
25.14768758,-1.275647278,-8.689729614,5.407205658,2024-06-04 15:48:41.147688
25.18799058,-2.676733704,-7.429051208,4.835843811,2024-06-04 15:48:41.187991
25.22829458,-4.216581573,-10.92308533,6.022575989,2024-06-04 15:48:41.228295
25.2685975,-2.638114014,-13.43935272,3.5699263,2024-06-04 15:48:41.268597
25.3089005,-0.5733078003,-7.166646881,5.361400909,2024-06-04 15:48:41.308900
25.3492045,-6.242319031,-9.966574402,6.4975383,2024-06-04 15:48:41.349204
25.3895075,-2.217488708,-5.47127243,7.306605835,2024-06-04 15:48:41.389508
25.4298105,-5.280269623,-9.77721817,5.502557373,2024-06-04 15:48:41.429810
25.4701145,3.68922821,-4.478087769,4.24621994,2024-06-04 15:48:41.470115
25.5104175,-5.223537598,-3.608396301,7.185357971,2024-06-04 15:48:41.510417
25.5507205,0.5234614563,-3.657344513,4.444557495,2024-06-04 15:48:41.550721
25.5910245,-1.539548492,-4.412075043,3.593427429,2024-06-04 15:48:41.591024
25.6313275,-0.360151062,1.030906219,4.973258057,2024-06-04 15:48:41.631328
25.6716305,-3.130589905,-6.290668488,4.19352951,2024-06-04 15:48:41.671630
25.7119345,-1.574276276,-4.872816925,3.788022766,2024-06-04 15:48:41.711935
25.7522375,-5.580994263,-10.17404297,5.577701111,2024-06-04 15:48:41.752237
25.7925405,-2.799777832,-12.31444199,6.572532349,2024-06-04 15:48:41.792541
25.8328445,-1.968855743,-11.28069168,4.942571869,2024-06-04 15:48:41.832845
25.8731475,-3.088527374,-10.21430923,6.060447235,2024-06-04 15:48:41.873148
25.9134505,-2.317480774,-10.88222031,7.020700378,2024-06-04 15:48:41.913450
25.9537535,-2.529889069,-7.551795959,4.872966614,2024-06-04 15:48:41.953754
25.9940575,-4.731660461,-12.25247086,6.438411255,2024-06-04 15:48:41.994058
26.0343605,1.288370819,-7.309449921,4.37959259,2024-06-04 15:48:42.034360
26.0746635,-3.21770874,-10.17209702,4.002676392,2024-06-04 15:48:42.074663
26.1149675,-5.31799118,-11.4290332,4.679419098,2024-06-04 15:48:42.114967
26.1552705,-2.781815186,-9.506431274,5.724994812,2024-06-04 15:48:42.155271
26.1955735,-3.686533813,-8.355774078,5.078489227,2024-06-04 15:48:42.195573
26.2358765,-5.239254913,-4.97520401,6.335724792,2024-06-04 15:48:42.235876
26.27618146,-3.675456848,-11.1875853,4.840783539,2024-06-04 15:48:42.276181
26.31648446,0.9413923645,-1.982477417,4.656067657,2024-06-04 15:48:42.316484
26.35678746,-3.427722015,-5.654192047,5.162614288,2024-06-04 15:48:42.356787
26.39709046,0.3679348755,-0.5921685791,3.316353607,2024-06-04 15:48:42.397090
26.43739446,-1.829944611,-2.158211975,2.37526062,2024-06-04 15:48:42.437394
26.47769746,-3.122357025,-2.86549118,4.613406372,2024-06-04 15:48:42.477697
26.51800046,-1.263223114,-5.799390106,4.486320648,2024-06-04 15:48:42.518000
26.55830446,-4.155059509,-8.754694519,5.222340088,2024-06-04 15:48:42.558304
26.59860746,-5.015170898,-11.12277008,5.593717804,2024-06-04 15:48:42.598607
26.63891046,-2.175875244,-10.76830719,5.853427734,2024-06-04 15:48:42.638910
26.67921346,0.1437011719,-11.98707275,5.171146545,2024-06-04 15:48:42.679213
26.71951646,-6.191424866,-11.99814972,5.706882477,2024-06-04 15:48:42.719516
26.75982046,-1.985171814,-9.338330841,6.056106262,2024-06-04 15:48:42.759820
26.80012346,-5.042264557,-11.28488297,5.604046326,2024-06-04 15:48:42.800123
26.84042646,-0.7705975342,-8.684191132,5.044958954,2024-06-04 15:48:42.840426
26.88072946,-0.1092727661,-12.71755371,3.982468414,2024-06-04 15:48:42.880729
26.92103346,-1.462907867,-7.986941071,3.405119019,2024-06-04 15:48:42.921033
26.96133646,-6.589596863,-10.29199768,5.948629761,2024-06-04 15:48:42.961336
27.00163946,-3.537294159,-6.953041077,6.249953156,2024-06-04 15:48:43.001639
27.04194246,-5.100792847,-9.843081207,5.566474457,2024-06-04 15:48:43.041942
27.08224546,-4.39022049,-9.149723053,5.920787659,2024-06-04 15:48:43.082245
27.12254946,0.226179657,-7.037615204,4.404590607,2024-06-04 15:48:43.122549
27.16285246,-2.334545288,-3.860322418,3.340004425,2024-06-04 15:48:43.162852
27.20315546,0.2097138977,-0.2489323425,4.497696991,2024-06-04 15:48:43.203155
27.24345846,-2.928510132,-2.787203979,3.302282867,2024-06-04 15:48:43.243458
27.28376096,-2.781815186,-2.491568756,6.131399689,2024-06-04 15:48:43.283761
27.32406396,-4.853656769,-4.639152832,5.812712402,2024-06-04 15:48:43.324064
27.36436796,-3.398981781,-6.360423431,7.974516907,2024-06-04 15:48:43.364368
27.40467096,-0.9183403015,-8.692723389,5.282365265,2024-06-04 15:48:43.404671
27.44497396,-2.12722641,-8.576265564,4.582570496,2024-06-04 15:48:43.444974
27.48527696,-5.411846008,-11.85624481,4.565955048,2024-06-04 15:48:43.485277
27.52557996,0.7286846924,-9.360335083,5.103636932,2024-06-04 15:48:43.525580
27.56588296,-3.911815338,-12.10397964,4.634811859,2024-06-04 15:48:43.565883
27.60618696,-6.204597473,-14.69299576,8.764424286,2024-06-04 15:48:43.606187
27.64648996,-1.614093475,-6.518345032,3.827241211,2024-06-04 15:48:43.646490
27.68679296,0.4037104797,-9.012907562,4.12572052,2024-06-04 15:48:43.686793
27.72709596,-3.96196106,-11.80535065,5.927523651,2024-06-04 15:48:43.727096
27.76739896,-4.555626526,-8.297245789,2.884351959,2024-06-04 15:48:43.767399
27.80770196,-1.991309052,-8.170908508,4.664300537,2024-06-04 15:48:43.807702
27.84800496,-2.107617188,-8.937763824,4.52583847,2024-06-04 15:48:43.848005
27.88830896,-10.70768326,-10.62969543,10.91979218,2024-06-04 15:48:43.888309
27.92861196,2.849025421,-10.11401779,1.315314789,2024-06-04 15:48:43.928612
27.96891496,-4.232448578,-0.5307962036,6.267466736,2024-06-04 15:48:43.968915
28.00921796,-4.735103302,-9.906698914,5.241799622,2024-06-04 15:48:44.009218
28.04952096,-0.07694000244,1.154698792,4.189637604,2024-06-04 15:48:44.049521
28.08982396,-2.260748749,-2.877017212,5.995632019,2024-06-04 15:48:44.089824
28.13012696,0.2630030823,-2.492616577,3.500770111,2024-06-04 15:48:44.130127
28.17042996,0.2294728088,-1.532363434,4.449646912,2024-06-04 15:48:44.170430
28.21073296,-7.67693573,-8.603808289,4.657265167,2024-06-04 15:48:44.210733
28.25103596,-0.07798782349,-7.953710175,4.383484497,2024-06-04 15:48:44.251036
28.29134088,-3.52786377,-12.42281662,6.260581055,2024-06-04 15:48:44.291341
28.33164388,-4.454137573,-14.67533249,5.598358154,2024-06-04 15:48:44.331644
28.37194688,-0.1091230774,-7.87931488,3.367397461,2024-06-04 15:48:44.371947
28.41224988,-2.568658447,-8.519982605,3.058439941,2024-06-04 15:48:44.412250
28.45255288,-2.618055725,-13.08938049,6.719975739,2024-06-04 15:48:44.452553
28.49285587,-3.307971039,-10.29080017,5.439239044,2024-06-04 15:48:44.492856
28.53315888,-2.594554596,-8.812474365,5.558091888,2024-06-04 15:48:44.533159
28.57346188,-3.515289917,-12.82128799,8.58135498,2024-06-04 15:48:44.573462
28.61376488,-3.18612442,-8.621920624,0.6671626282,2024-06-04 15:48:44.613765
28.65406788,-3.05155426,-6.434219971,2.480791168,2024-06-04 15:48:44.654068
28.69437088,-5.280119934,-10.84075653,7.954159241,2024-06-04 15:48:44.694371
28.73467388,-6.110443268,-10.43554916,3.846850433,2024-06-04 15:48:44.734674
28.77497687,-1.973346405,-3.751199341,4.24038208,2024-06-04 15:48:44.774977
28.81527988,-0.4716691589,-6.075865173,4.17721344,2024-06-04 15:48:44.815280
28.85558387,-5.814808044,-6.961124268,6.308481445,2024-06-04 15:48:44.855584
28.89588588,3.596421204,-1.336720276,5.384003906,2024-06-04 15:48:44.895886
28.93618988,-2.467468872,-2.979703674,4.233646088,2024-06-04 15:48:44.936190
28.97649288,-2.169438629,-0.07963439941,3.659889221,2024-06-04 15:48:44.976493
29.01679588,-6.926845551,-4.727020111,4.648882599,2024-06-04 15:48:45.016796
29.05709888,-2.208507385,-7.471712494,8.753197632,2024-06-04 15:48:45.057099
29.09740188,-1.568288727,-13.42198883,6.403683472,2024-06-04 15:48:45.097402
29.13770488,0.340841217,-2.539618835,3.110830994,2024-06-04 15:48:45.137705
29.17800788,-7.137008514,-9.772727509,4.731211395,2024-06-04 15:48:45.178008
29.21831087,0.2315684509,-11.92345505,3.214565277,2024-06-04 15:48:45.218311
29.25861388,-1.329385529,-11.98692307,7.375911713,2024-06-04 15:48:45.258614
29.29891621,-2.622396698,-11.35373978,5.985303497,2024-06-04 15:48:45.298916
29.33921921,-4.058809662,-11.04852448,6.615193634,2024-06-04 15:48:45.339219
29.37952221,-1.624421997,-12.85212387,5.186863861,2024-06-04 15:48:45.379522
29.41982521,0.7072792053,-8.68793335,2.306852875,2024-06-04 15:48:45.419825
29.46012821,-2.433639221,-6.923851776,2.35071167,2024-06-04 15:48:45.460128
29.50043121,-4.255800018,-7.468269653,4.277205505,2024-06-04 15:48:45.500431
29.54073421,-6.818770294,-9.278006287,7.151678009,2024-06-04 15:48:45.540734
29.58103721,-6.322402496,-11.99111435,4.151167603,2024-06-04 15:48:45.581037
29.62134021,-0.6662644958,-7.755821686,3.569477234,2024-06-04 15:48:45.621340
29.66164321,0.8846603394,-6.794221344,3.476670227,2024-06-04 15:48:45.661643
29.70194621,-4.81488739,-6.534661102,6.973997498,2024-06-04 15:48:45.701946
29.74224921,2.058070221,-1.368454285,2.561174011,2024-06-04 15:48:45.742249
29.78255121,-0.3983216858,-1.542242889,2.613115997,2024-06-04 15:48:45.782551
29.82285421,-3.720662842,-3.762875061,4.524341583,2024-06-04 15:48:45.822854
29.86315721,-1.954485626,-6.219716034,4.33513504,2024-06-04 15:48:45.863157
29.90346021,-2.532134399,-4.749024353,4.534819794,2024-06-04 15:48:45.903460
29.94376321,-3.933969269,-9.205257568,6.043233032,2024-06-04 15:48:45.943763
29.98406621,-4.056863708,-7.583529968,5.345084839,2024-06-04 15:48:45.984066
30.02436921,-1.701811066,-12.85182449,5.841302948,2024-06-04 15:48:46.024369
30.06467221,-3.979175262,-14.3421254,6.816524963,2024-06-04 15:48:46.064672
30.10497521,0.2362088013,-9.284742279,4.224515076,2024-06-04 15:48:46.104975
30.14527821,-0.7204518127,-11.03235809,4.52359314,2024-06-04 15:48:46.145278
30.18558121,-2.430495758,-8.382119293,5.157524872,2024-06-04 15:48:46.185581
30.22588421,-3.233875122,-10.50171158,6.292165375,2024-06-04 15:48:46.225884
30.26618721,-1.169967041,-8.827892303,3.40377182,2024-06-04 15:48:46.266187
30.30648996,-4.608167267,-9.935139771,5.683680725,2024-06-04 15:48:46.306490
30.34679296,-4.579427032,-11.56405243,5.160668335,2024-06-04 15:48:46.346793
30.38709496,-3.273392944,-9.280850372,3.658542023,2024-06-04 15:48:46.387095
30.42739796,-5.207221527,-8.716074829,8.299940186,2024-06-04 15:48:46.427398
30.46770096,-1.259630585,-12.06221649,3.12759613,2024-06-04 15:48:46.467701
30.50800396,0.6920109558,-1.242266693,1.937870178,2024-06-04 15:48:46.508004
30.54830696,-5.107828217,-7.758516083,5.739065552,2024-06-04 15:48:46.548307
30.58860996,3.041974182,-1.698368225,5.037324829,2024-06-04 15:48:46.588610
30.62891296,-2.102378082,-4.13155838,2.991529083,2024-06-04 15:48:46.628913
30.66921596,-5.064418488,-5.887257385,2.873125305,2024-06-04 15:48:46.669216
30.70951796,2.702031097,0.09624984741,2.025587769,2024-06-04 15:48:46.709518
30.74982096,-7.428003387,-10.07644592,7.56571701,2024-06-04 15:48:46.749821
30.79012396,0.2459385681,-8.767268372,4.356091461,2024-06-04 15:48:46.790124
30.83042696,-1.238225098,-2.437531128,8.14501236,2024-06-04 15:48:46.830427
30.87072996,-8.691974945,-17.28979568,4.85470459,2024-06-04 15:48:46.870730
30.91103296,3.692072296,-10.28915359,6.670578461,2024-06-04 15:48:46.911033
30.95133596,-8.790320435,-12.28615082,6.437662811,2024-06-04 15:48:46.951336
30.99163796,-0.1001417542,-14.03526352,6.75964325,2024-06-04 15:48:46.991638
31.03194096,0.2906954956,-2.772684174,3.7676651,2024-06-04 15:48:47.031941
31.07224396,-7.380701752,-7.686066742,3.021017761,2024-06-04 15:48:47.072244
31.11254696,4.602778473,-10.7084317,3.36979248,2024-06-04 15:48:47.112547
31.15284996,-10.36190231,-11.12546448,6.609206085,2024-06-04 15:48:47.152850
31.19315296,-3.432062988,-14.11534698,8.323591003,2024-06-04 15:48:47.193153
31.23345496,1.03898941,-6.275849304,-0.007484436035,2024-06-04 15:48:47.233455
31.27375783,-3.571423187,-7.549700317,6.165528717,2024-06-04 15:48:47.273758
31.31406083,-4.089346161,-9.666897583,5.086722107,2024-06-04 15:48:47.314061
31.35436383,-2.788700867,-5.823190613,5.271587677,2024-06-04 15:48:47.354364
31.39466683,-1.61469223,-4.412973175,3.413501587,2024-06-04 15:48:47.394667
31.43496983,-0.7842192078,-5.71002594,3.941603394,2024-06-04 15:48:47.434970
31.47527183,-2.527793427,-3.688180389,6.047424316,2024-06-04 15:48:47.475272
31.51557483,-3.77006012,-2.758763123,4.190535736,2024-06-04 15:48:47.515575
31.55587783,-2.314786377,-1.707948303,4.693789215,2024-06-04 15:48:47.555878
31.59618083,-0.8764274597,-7.450456696,5.179229736,2024-06-04 15:48:47.596181
31.63648283,-4.266876984,-8.819659424,6.483766937,2024-06-04 15:48:47.636483
31.67678583,-3.750450897,-9.860894165,4.610562286,2024-06-04 15:48:47.676786
31.71708883,-0.1288819885,-7.347171478,5.906118164,2024-06-04 15:48:47.717089
31.75739183,-2.770887909,-12.75467651,4.971761169,2024-06-04 15:48:47.757392
31.79769483,-5.475613403,-13.34115692,5.047054596,2024-06-04 15:48:47.797695
31.83799683,-0.4102967834,-7.561825104,5.05947876,2024-06-04 15:48:47.837997
31.87829983,-1.977388,-11.51615204,5.054988098,2024-06-04 15:48:47.878300
31.91860283,-5.002896423,-9.215137024,4.945415955,2024-06-04 15:48:47.918603
31.95890583,-3.177143097,-11.53231842,5.009931793,2024-06-04 15:48:47.958906
31.99920883,-0.1112187195,-6.1113414,3.104993134,2024-06-04 15:48:47.999209
32.03951083,-5.236560516,-8.593479767,4.131708069,2024-06-04 15:48:48.039511
32.07981383,-5.1717453,-16.6340094,6.186934204,2024-06-04 15:48:48.079814
32.12011683,-2.938389587,-8.846453705,3.983516235,2024-06-04 15:48:48.120117
32.16041983,-0.6921606445,-3.833079071,3.6588414,2024-06-04 15:48:48.160420
32.20072183,-2.297123108,-7.198979645,3.504811707,2024-06-04 15:48:48.200722
32.24102483,-1.287023621,-5.321134644,5.018164673,2024-06-04 15:48:48.241025
32.28132763,-4.836292877,-5.593268738,5.797893219,2024-06-04 15:48:48.281328
32.32163062,-2.190095673,-4.071533203,5.335055695,2024-06-04 15:48:48.321631
32.36193263,-2.041305084,-3.792962494,3.072061615,2024-06-04 15:48:48.361933
32.40223563,-0.5264552307,-0.1766326904,3.421584778,2024-06-04 15:48:48.402236
32.44253863,-4.837640076,-5.274132385,3.390150146,2024-06-04 15:48:48.442539
32.48284163,-0.5673202515,-6.319408722,1.945055237,2024-06-04 15:48:48.482842
32.52314362,-4.135150909,-7.162605286,6.284830627,2024-06-04 15:48:48.523144
32.56344663,-3.861220551,-14.20336395,7.044201508,2024-06-04 15:48:48.563447
32.60374963,-1.889520721,-12.20696548,6.751260681,2024-06-04 15:48:48.603750
32.64405263,-2.059866486,-9.49759964,4.569248199,2024-06-04 15:48:48.644053
32.68435463,-3.980522461,-10.67011139,5.778433685,2024-06-04 15:48:48.684355
32.72465762,-3.823199615,-11.03669907,5.556894379,2024-06-04 15:48:48.724658
32.76496063,-1.805096283,-9.293124847,5.210514679,2024-06-04 15:48:48.764961
32.80526363,-1.040935364,-8.429720306,4.023782501,2024-06-04 15:48:48.805264
32.84556563,-0.1655557251,-10.74525513,5.741310883,2024-06-04 15:48:48.845566
32.88586863,-4.496798859,-10.50440598,2.948119354,2024-06-04 15:48:48.885869
32.92617163,-6.824907532,-8.87160141,4.199367371,2024-06-04 15:48:48.926172
32.96647463,-4.011508026,-10.66801575,6.992558899,2024-06-04 15:48:48.966475
33.00677663,-3.567381592,-7.304061127,4.907245331,2024-06-04 15:48:49.006777
33.04707963,-2.26179657,-5.466482391,5.178181915,2024-06-04 15:48:49.047080
33.08738263,-2.942281494,-7.599995728,5.287454681,2024-06-04 15:48:49.087383
33.12768463,-0.8508306885,-4.197870483,4.280498657,2024-06-04 15:48:49.127685
33.16798763,0.7566764832,-2.516566772,4.078269196,2024-06-04 15:48:49.167988
33.20829062,-4.034111023,-3.733536072,4.528981934,2024-06-04 15:48:49.208291
33.24859263,-1.343905334,-1.829345856,2.581381989,2024-06-04 15:48:49.248593
33.28889633,-4.963677979,-5.440436554,5.901028748,2024-06-04 15:48:49.288896
33.32919833,-2.772235107,-7.410340118,6.581513672,2024-06-04 15:48:49.329198
33.36950133,-3.575315094,-7.476951599,5.738167419,2024-06-04 15:48:49.369501
33.40980433,-3.15573761,-12.25157272,5.4292099,2024-06-04 15:48:49.409804
33.45010633,-3.025358734,-9.912536774,5.155728607,2024-06-04 15:48:49.450106
33.49040933,-4.084855499,-9.221274261,4.828209686,2024-06-04 15:48:49.490409
33.53071133,-0.23635849,-11.98138458,5.77783493,2024-06-04 15:48:49.530711
33.57101433,-4.006268921,-10.30546967,6.173761597,2024-06-04 15:48:49.571014
33.61131733,-3.377426605,-11.61000687,6.39919281,2024-06-04 15:48:49.611317
33.65161933,0.4420307922,-8.188721466,3.853436737,2024-06-04 15:48:49.651619
33.69192233,-3.394790497,-7.30600708,1.575623474,2024-06-04 15:48:49.691922
33.73222433,-5.631289673,-11.54489227,7.520211639,2024-06-04 15:48:49.732224
33.77252733,-2.590513,-9.796228638,3.124901733,2024-06-04 15:48:49.772527
33.81283033,-3.839964752,-6.551725616,7.724686432,2024-06-04 15:48:49.812830
33.85313233,-1.599723358,-13.52078339,2.93569519,2024-06-04 15:48:49.853132
33.89343533,-3.473077698,-3.752546539,5.544170837,2024-06-04 15:48:49.893435
33.93373733,-2.516117706,-7.665858765,4.911885681,2024-06-04 15:48:49.933737
33.97404033,-1.254541168,-3.914509735,3.095113678,2024-06-04 15:48:49.974040
34.01434233,0.4667294312,-1.931134186,6.331832886,2024-06-04 15:48:50.014342
34.05464533,-3.561543732,-6.674470367,5.251230011,2024-06-04 15:48:50.054645
34.09494733,1.637145538,-2.626138916,2.424059143,2024-06-04 15:48:50.094947
34.13525033,-3.592828674,-2.023342438,4.959337006,2024-06-04 15:48:50.135250
34.17555233,-3.037034454,-5.299579468,6.797364807,2024-06-04 15:48:50.175552
34.21585533,-4.475842438,-12.2584584,5.465584259,2024-06-04 15:48:50.215855
34.25615733,-1.862576752,-9.805659027,5.643564148,2024-06-04 15:48:50.256157
34.29645983,-7.482340393,-13.61823074,5.544919281,2024-06-04 15:48:50.296460
34.33676283,-1.409468994,-10.5093457,4.150119781,2024-06-04 15:48:50.336763
34.37706483,-1.148711243,-7.286397858,3.657943268,2024-06-04 15:48:50.377065
34.41736783,-0.8741821289,-9.065897369,6.505172424,2024-06-04 15:48:50.417368
34.45766983,-3.728596344,-10.66621948,6.755451965,2024-06-04 15:48:50.457670
34.49797283,-2.431094513,-9.709259491,5.319039001,2024-06-04 15:48:50.497973
34.53827483,-1.157991943,-10.0581839,2.435734863,2024-06-04 15:48:50.538275
34.57857783,-3.567082214,-8.342900848,3.611839142,2024-06-04 15:48:50.578578
34.61887983,-5.541177063,-9.953850861,6.616391144,2024-06-04 15:48:50.618880
34.65918283,-2.480940857,-9.542206879,4.502636719,2024-06-04 15:48:50.659183
34.69948483,-0.5779481506,-7.253616028,4.519401855,2024-06-04 15:48:50.699485
34.73978783,-2.789748688,-13.28068268,5.05708374,2024-06-04 15:48:50.739788
34.78008983,-0.7241940308,-4.97520401,5.492528229,2024-06-04 15:48:50.780090
34.82039283,0.2118095398,-4.92835144,0.2664459229,2024-06-04 15:48:50.820393
34.86069483,-2.428400116,2.33664093,3.027304688,2024-06-04 15:48:50.860695
34.90099783,-4.73884552,-4.814288635,4.484524384,2024-06-04 15:48:50.900998
34.94129983,-2.15881073,-8.558452606,2.506238251,2024-06-04 15:48:50.941300
34.98160283,-1.958227844,-6.661447449,3.404220886,2024-06-04 15:48:50.981603
35.02190483,-1.900597687,-5.81765213,4.555925903,2024-06-04 15:48:51.021905
35.06220783,-4.132007446,-7.754773865,3.092419281,2024-06-04 15:48:51.062208
35.10250983,-3.792513428,-7.572602692,4.891827393,2024-06-04 15:48:51.102510
35.14281283,-1.324894867,-11.33592682,3.304228821,2024-06-04 15:48:51.142813
35.18311483,-7.214547272,-17.77778091,5.899681549,2024-06-04 15:48:51.183115
35.22341783,0.2853067017,-10.01118164,6.575376434,2024-06-04 15:48:51.223418
35.26371983,-1.631307678,-7.826624451,3.26216629,2024-06-04 15:48:51.263720
35.30402337,-4.852010193,-11.6864978,6.126909027,2024-06-04 15:48:51.304023
35.34432538,0.6831793213,-8.746761017,5.258714447,2024-06-04 15:48:51.344325
35.38462838,-2.139051819,-7.327412567,0.7170089722,2024-06-04 15:48:51.384628
35.42493038,-6.240971832,-10.84045715,9.074279938,2024-06-04 15:48:51.424930
35.46523338,-4.442910919,-9.508826294,4.201612701,2024-06-04 15:48:51.465233
35.50553538,-7.17383194,-12.60109589,7.694898376,2024-06-04 15:48:51.505535
35.54583838,-1.860181732,-9.308542786,4.347708893,2024-06-04 15:48:51.545838
35.58614038,-0.8102650452,-6.86726944,3.955674133,2024-06-04 15:48:51.586140
35.62644338,-0.1701960754,-3.869154053,3.038082275,2024-06-04 15:48:51.626443
35.66674538,-0.9428892517,1.328786774,5.481151886,2024-06-04 15:48:51.666745
35.70704738,-2.092498627,-3.959416351,3.6296521,2024-06-04 15:48:51.707047
35.74735038,3.239413605,-0.6336323547,4.091890869,2024-06-04 15:48:51.747350
35.78765238,-3.131338348,-6.056106262,4.254602509,2024-06-04 15:48:51.787652
35.82795537,-3.44703186,-5.087919617,5.019811249,2024-06-04 15:48:51.827955
35.86825738,-1.615290985,-5.103786621,3.413351898,2024-06-04 15:48:51.868257
35.90856038,-4.358785858,-9.859996033,3.822301483,2024-06-04 15:48:51.908560
35.94886238,-1.570084991,-12.02135147,8.620723114,2024-06-04 15:48:51.948862
35.98916538,-3.620072021,-11.66284698,6.307583313,2024-06-04 15:48:51.989165
36.02946738,-2.304008789,-6.552773438,2.595901794,2024-06-04 15:48:52.029467
36.06977038,1.292861481,-10.61667252,4.253404999,2024-06-04 15:48:52.069770
36.11007238,-4.942122803,-14.67159027,7.332801361,2024-06-04 15:48:52.110072
36.15037538,-5.515879669,-9.73156311,5.477709045,2024-06-04 15:48:52.150375
36.19067738,-1.177900543,-9.673184509,2.948119354,2024-06-04 15:48:52.190677
36.23098038,-1.050515442,-6.021977234,3.532653809,2024-06-04 15:48:52.230980
36.27128238,-3.611090698,-8.15668808,4.031117249,2024-06-04 15:48:52.271282
36.3115855,-0.6607260132,-9.736203461,1.901645508,2024-06-04 15:48:52.311585
36.3518875,-8.906927948,-11.94171707,9.102720795,2024-06-04 15:48:52.351887
36.3921895,-0.7652087402,-10.10683273,3.233725433,2024-06-04 15:48:52.392190
36.4324925,-2.219883728,-1.854194183,3.193309479,2024-06-04 15:48:52.432493
36.4727945,-1.739083557,-6.141129456,3.290008392,2024-06-04 15:48:52.472794
36.5130975,-6.400240631,-11.20734421,7.264393616,2024-06-04 15:48:52.513098
36.5533995,-2.851570129,-3.782035217,6.635850677,2024-06-04 15:48:52.553399
36.5937025,-1.589245148,-2.557132416,3.937112732,2024-06-04 15:48:52.593702
36.6340045,5.254373474,4.597389679,2.167492676,2024-06-04 15:48:52.634005
36.6743075,-13.77061386,-5.889502716,16.04109238,2024-06-04 15:48:52.674307
36.7146095,0.3332070923,-11.18938156,4.534520416,2024-06-04 15:48:52.714610
36.7549115,7.299720154,-6.810986481,4.720284119,2024-06-04 15:48:52.754911
36.7952145,-12.83775375,-12.17942276,4.815486145,2024-06-04 15:48:52.795215
36.8355165,-2.522853699,-10.29544052,2.817291412,2024-06-04 15:48:52.835516
36.8758195,-1.247655487,-7.146139526,3.390599213,2024-06-04 15:48:52.875819
36.9161215,-0.7680528259,-12.60633499,6.743327179,2024-06-04 15:48:52.916122
36.9564245,-7.360194397,-11.83064804,6.915319519,2024-06-04 15:48:52.956424
36.9967265,-2.809507599,-7.526648254,3.53130661,2024-06-04 15:48:52.996727
37.0370295,-2.263443146,-12.62190262,3.842958527,2024-06-04 15:48:53.037030
37.0773315,1.184935913,-9.298962708,4.097878418,2024-06-04 15:48:53.077331
37.1176335,-4.636608124,-11.26257935,3.252735901,2024-06-04 15:48:53.117633
37.1579365,-3.641627197,-7.272776184,4.16434021,2024-06-04 15:48:53.157936
37.1982385,-6.932234344,-10.15697845,5.923631744,2024-06-04 15:48:53.198239
37.2385415,0.4897814941,-8.794212341,3.493285675,2024-06-04 15:48:53.238541
37.27884271,-2.414479065,-6.436764679,4.998854828,2024-06-04 15:48:53.278843
37.31914571,-5.795348511,-11.75759995,8.640781403,2024-06-04 15:48:53.319146
37.35944771,4.690046997,0.3315605164,1.971699829,2024-06-04 15:48:53.359448
37.39974971,-0.04101470947,-2.086511078,0.04176315308,2024-06-04 15:48:53.399750
37.44005271,-3.630101166,0.2101629639,0.0505947876,2024-06-04 15:48:53.440053
37.48035471,-8.651259613,-8.929530945,7.231312408,2024-06-04 15:48:53.480355
37.52065771,1.876497803,-6.810387726,4.196672974,2024-06-04 15:48:53.520658
37.56095971,-2.376607819,-8.177644501,2.377356262,2024-06-04 15:48:53.560960
37.60126171,-2.923420715,-3.260519714,5.425317993,2024-06-04 15:48:53.601262
37.64156471,-5.621410217,-9.289382629,3.05978714,2024-06-04 15:48:53.641565
37.68186671,-2.949167175,-13.33187622,7.236252136,2024-06-04 15:48:53.681867
37.72216971,-1.365759888,-19.04818909,7.047195282,2024-06-04 15:48:53.722170
37.76247171,-0.6483018494,-7.372917938,3.668720856,2024-06-04 15:48:53.762472
37.80277371,-1.782942352,-7.632328491,2.395019531,2024-06-04 15:48:53.802774
37.84307671,-2.541714478,-9.505533142,5.661676483,2024-06-04 15:48:53.843077
37.88337871,-2.993774414,-8.947343903,3.386407928,2024-06-04 15:48:53.883379
37.92368171,-12.16280731,-14.5835733,11.27829666,2024-06-04 15:48:53.923682
37.96398371,-5.533093872,-11.72347092,5.364993439,2024-06-04 15:48:53.963984
38.00428571,-0.523611145,-8.656798096,4.645739136,2024-06-04 15:48:54.004286
38.04458871,-1.240171051,-10.48195267,3.657494202,2024-06-04 15:48:54.044589
38.08489071,-5.951473846,-8.455616455,4.732708282,2024-06-04 15:48:54.084891
38.12519371,0.3674858093,-3.281476135,2.971321106,2024-06-04 15:48:54.125194
38.16549571,-5.447621613,-5.627098389,9.228309631,2024-06-04 15:48:54.165496
38.20579771,4.127516785,-3.716920624,6.312822418,2024-06-04 15:48:54.205798
38.24610071,-2.602637787,-3.516786804,4.15146698,2024-06-04 15:48:54.246101
38.28640338,-2.013313293,-2.262844391,3.349434814,2024-06-04 15:48:54.286403
38.32670538,-2.812201996,-1.496887207,4.735252991,2024-06-04 15:48:54.326705
38.36700838,-1.54329071,-6.68584671,5.836961975,2024-06-04 15:48:54.367008
38.40731038,-0.5068460083,-6.002667389,4.616250458,2024-06-04 15:48:54.407310
38.44761338,-6.712640991,-7.774233398,3.855682068,2024-06-04 15:48:54.447613
38.48791538,-2.259102173,-11.80804504,7.109914856,2024-06-04 15:48:54.487915
38.52821738,-1.397793274,-12.36788086,4.410877533,2024-06-04 15:48:54.528217
38.56852037,-3.837120667,-11.06094864,4.977299652,2024-06-04 15:48:54.568520
38.60882238,1.631008301,-10.74705139,3.915856934,2024-06-04 15:48:54.608822
38.64912438,-4.482428741,-6.11014389,4.147425385,2024-06-04 15:48:54.649124
38.68942738,-7.973469086,-13.25553497,5.613027649,2024-06-04 15:48:54.689427
38.72972938,3.128494263,-9.068891144,3.651207275,2024-06-04 15:48:54.729729
38.77003238,-3.658991089,-9.648785248,5.113965454,2024-06-04 15:48:54.770032
38.81033438,-5.407505035,-11.51046387,6.42957962,2024-06-04 15:48:54.810334
38.85063638,-2.159259796,-6.954687653,2.186802521,2024-06-04 15:48:54.850636
38.89093938,-5.37187912,-4.78914093,9.023086395,2024-06-04 15:48:54.890939
38.93124138,-6.23767868,-17.84514084,4.659510498,2024-06-04 15:48:54.931241
38.97154338,0.04161346436,-4.429139557,2.845133514,2024-06-04 15:48:54.971543
39.01184638,2.354902954,-4.337979126,3.965254211,2024-06-04 15:48:55.011846
39.05214838,-7.25690918,-8.239615631,5.739065552,2024-06-04 15:48:55.052148
39.09245038,-0.9047186279,-1.10919342,2.518213348,2024-06-04 15:48:55.092450
39.13275338,-2.113305359,-2.423161011,4.742288361,2024-06-04 15:48:55.132753
39.17305538,-1.177900543,-1.392853546,5.413492584,2024-06-04 15:48:55.173055
39.21335737,-0.8577163696,-9.019942932,5.491480408,2024-06-04 15:48:55.213357
39.25366038,-2.277364197,-6.789880371,4.953050079,2024-06-04 15:48:55.253660
39.29396163,-5.345384216,-11.78948364,5.07235199,2024-06-04 15:48:55.293962
39.33426363,-3.582649841,-10.30457153,4.944368134,2024-06-04 15:48:55.334264
39.37456662,-0.9096583557,-8.013286285,1.865271149,2024-06-04 15:48:55.374567
39.41486863,-3.986959076,-7.742349701,10.63104263,2024-06-04 15:48:55.414869
39.45517063,-2.933749237,-18.30498459,10.03079086,2024-06-04 15:48:55.455171
39.49547363,-3.854185181,-9.030570831,4.428690491,2024-06-04 15:48:55.495474
39.53577563,-1.823807373,-7.771239624,3.268752594,2024-06-04 15:48:55.535776
39.57607763,-0.01466949463,-10.83237396,4.644990692,2024-06-04 15:48:55.576078
39.61638063,0.5269042969,-4.920118561,1.346450043,2024-06-04 15:48:55.616381
39.65668263,-6.952142944,-9.245673523,5.040318604,2024-06-04 15:48:55.656683
39.69698463,-4.564009094,-10.05728577,6.160738678,2024-06-04 15:48:55.696985
39.73728763,-7.210505676,-9.213939514,5.526806946,2024-06-04 15:48:55.737288
39.77758963,-4.166435852,-11.01963455,8.87279892,2024-06-04 15:48:55.777590
39.81789162,-0.7807763672,-9.533075867,5.092559967,2024-06-04 15:48:55.817892
39.85819363,-0.1562750244,-2.992427216,2.589016113,2024-06-04 15:48:55.858194
39.89849663,0.03891906738,-3.793561249,2.442470856,2024-06-04 15:48:55.898497
39.93879863,-6.462810516,-1.071621552,7.625891876,2024-06-04 15:48:55.938799
39.97910063,-3.516936493,-3.368894348,4.593198395,2024-06-04 15:48:55.979101
40.01940363,-1.137783966,-2.426903229,5.178481293,2024-06-04 15:48:56.019404
40.05970563,-0.6535409546,-7.227719879,5.117557983,2024-06-04 15:48:56.059706
40.10000763,-3.592529297,-8.434959412,5.383704529,2024-06-04 15:48:56.100008
40.14031062,-1.92948761,-10.37492523,5.67140625,2024-06-04 15:48:56.140311
40.18061263,-4.343966675,-7.775430908,3.168161774,2024-06-04 15:48:56.180613
40.22091463,-2.175575867,-12.85182449,4.363426208,2024-06-04 15:48:56.220915
40.26121663,-3.8273909,-10.99014587,5.537734222,2024-06-04 15:48:56.261217
40.30151958,-3.872447205,-10.77654007,5.731281738,2024-06-04 15:48:56.301520
40.34182158,-2.004182281,-8.702303467,3.200045471,2024-06-04 15:48:56.341822
40.38212358,-4.54350174,-10.54407349,7.189549255,2024-06-04 15:48:56.382124
40.42242558,-2.077529755,-11.31437164,3.705544281,2024-06-04 15:48:56.422426
40.46272858,-1.353485413,-8.621022491,3.289858704,2024-06-04 15:48:56.462729
40.50303058,-4.796924744,-9.935289459,2.345921631,2024-06-04 15:48:56.503031
40.54333258,-5.069807281,-10.68762497,7.151228943,2024-06-04 15:48:56.543333
40.58363558,-3.216062164,-8.326884155,1.004561005,2024-06-04 15:48:56.583636
40.62393758,-4.846621399,-5.972729645,8.6527565,2024-06-04 15:48:56.623938
40.66423958,-0.1213975525,-11.39819733,2.856509857,2024-06-04 15:48:56.664240
40.70454158,-2.45369751,-5.815107422,4.413871307,2024-06-04 15:48:56.704542
40.74484458,-1.831291809,-8.444689178,3.103196869,2024-06-04 15:48:56.744845
40.78514658,-3.265908508,-2.682870941,4.377946014,2024-06-04 15:48:56.785147
40.82544858,-2.342029724,-3.686084747,3.574267273,2024-06-04 15:48:56.825449
40.86575058,-1.9972966,-0.07619155884,1.61005188,2024-06-04 15:48:56.865751
40.90605358,-5.3694841,-5.499563599,4.203408966,2024-06-04 15:48:56.906054
40.94635558,-4.073329468,-8.45741272,6.220015411,2024-06-04 15:48:56.946356
40.98665758,-0.3179388428,-7.55059845,5.172344055,2024-06-04 15:48:56.986658
41.02695958,-3.666026459,-10.17209702,3.586841125,2024-06-04 15:48:57.026960
41.06726258,-3.062930603,-14.17896469,3.414399719,2024-06-04 15:48:57.067263
41.10756458,-3.36051178,-8.900042267,5.107528839,2024-06-04 15:48:57.107565
41.14786658,-3.802542572,-12.26923599,3.069516907,2024-06-04 15:48:57.147867
41.18816858,-0.650098114,-7.634424133,4.745132446,2024-06-04 15:48:57.188169
41.22847058,-3.59567276,-10.93491074,4.680915985,2024-06-04 15:48:57.228471
41.26877358,-5.102289734,-11.08549759,4.993765411,2024-06-04 15:48:57.268774
41.30907633,0.8761280823,-8.980724487,4.780159607,2024-06-04 15:48:57.309076
41.34937833,-4.111200714,-13.06617874,3.621568909,2024-06-04 15:48:57.349378
41.38968033,-3.119812317,-8.886869659,3.840413818,2024-06-04 15:48:57.389680
41.42998333,-3.41784256,-7.528743896,3.855083313,2024-06-04 15:48:57.429983
41.47028533,-6.739285583,-13.77824799,5.537285156,2024-06-04 15:48:57.470285
41.51058733,-2.890489197,-6.115083618,4.556824036,2024-06-04 15:48:57.510587
41.55088933,-5.205874329,-8.777147827,5.017865295,2024-06-04 15:48:57.550889
41.59119133,0.1014889526,-6.03529953,4.701273651,2024-06-04 15:48:57.591191
41.63149433,-1.03315155,-3.676654358,3.258873138,2024-06-04 15:48:57.631494
41.67179633,-5.63278656,-2.57539444,3.071762238,2024-06-04 15:48:57.671796
41.71209833,-0.1829196167,-0.6268963623,3.235521698,2024-06-04 15:48:57.712098
41.75240033,-1.430724792,-2.516117706,4.264032898,2024-06-04 15:48:57.752400
41.79270233,-3.222798157,-6.083050232,4.909191284,2024-06-04 15:48:57.792702
41.83300433,-3.352428589,-8.216114502,4.672533417,2024-06-04 15:48:57.833004
41.87330733,-3.995641022,-9.861343231,3.756288757,2024-06-04 15:48:57.873307
41.91360933,-1.651665344,-10.66606979,5.642366638,2024-06-04 15:48:57.913609
41.95391133,-3.219055939,-12.4177272,3.950884094,2024-06-04 15:48:57.953911
41.99421333,-3.383264465,-9.853559418,3.832180939,2024-06-04 15:48:57.994213
42.03451533,-0.04520599365,-7.165299683,5.109624481,2024-06-04 15:48:58.034515
42.07481833,-4.077969818,-11.5219899,5.998925171,2024-06-04 15:48:58.074818
42.11512033,-5.310955811,-11.9002533,4.971611481,2024-06-04 15:48:58.115120
42.15542233,-0.4382885742,-10.28795609,4.598736877,2024-06-04 15:48:58.155422
42.19572433,-0.7613168335,-10.73043594,2.189347229,2024-06-04 15:48:58.195724
42.23602633,-4.900060272,-9.354497223,3.938160553,2024-06-04 15:48:58.236026
42.27632833,-3.333268433,-6.714287567,3.746858368,2024-06-04 15:48:58.276328
42.316631,-5.143154755,-6.916666718,4.882846069,2024-06-04 15:48:58.316631
42.356933,-6.35234024,-11.27560226,4.388274536,2024-06-04 15:48:58.356933
42.397235,-0.5517526245,-5.373825073,5.518125,2024-06-04 15:48:58.397235
42.437537,-1.370998993,-9.985135803,3.4319133,2024-06-04 15:48:58.437537
42.477839,1.765728149,-3.170556793,3.860172729,2024-06-04 15:48:58.477839
42.518141,-4.80785202,-6.855593719,3.568429413,2024-06-04 15:48:58.518141
42.558443,0.5830375671,-1.886377258,3.36515213,2024-06-04 15:48:58.558443
42.598746,-0.6703060913,-0.9101074219,2.283501434,2024-06-04 15:48:58.598746
42.639048,-4.096531219,-5.405559082,3.950734406,2024-06-04 15:48:58.639048
42.67935,-7.689359894,-10.19455032,6.052064667,2024-06-04 15:48:58.679350
42.719652,-6.931785278,-12.23959763,8.780590668,2024-06-04 15:48:58.719652
42.759954,-2.534230042,-16.39750122,5.031936035,2024-06-04 15:48:58.759954
42.800256,-1.11862381,-4.533622284,5.259911957,2024-06-04 15:48:58.800256
42.840558,-6.713239746,-10.19904099,3.203338623,2024-06-04 15:48:58.840558
42.880861,1.960173798,-10.62819855,3.538491669,2024-06-04 15:48:58.880861
42.921163,-1.698068848,-13.07366318,6.565496979,2024-06-04 15:48:58.921163
42.961465,-6.586752777,-8.837921448,3.013233948,2024-06-04 15:48:58.961465
43.001767,-0.3218307495,-11.89202042,6.791526947,2024-06-04 15:48:59.001767
43.042069,-3.635939026,-5.510191498,1.759740601,2024-06-04 15:48:59.042069
43.082371,-5.752687225,-11.18608841,7.97302002,2024-06-04 15:48:59.082371
43.122673,-6.028563538,-14.52669159,3.819756775,2024-06-04 15:48:59.122673
43.162975,-3.805985413,-2.978057098,6.934629364,2024-06-04 15:48:59.162975
43.203277,-2.849025421,-15.65474579,3.367696838,2024-06-04 15:48:59.203277
43.24358,7.820187836,-0.9656419373,-2.029928741,2024-06-04 15:48:59.243580
43.28388221,-7.840096436,-7.709268494,11.34236343,2024-06-04 15:48:59.283882
43.32418421,1.398541718,-7.348368988,4.396657104,2024-06-04 15:48:59.324184
43.36448621,-3.113375702,-0.06122268677,2.464924164,2024-06-04 15:48:59.364486
43.40478821,2.549498291,1.982477417,2.394570465,2024-06-04 15:48:59.404788
43.44509021,-3.955374756,-3.885769501,3.551813965,2024-06-04 15:48:59.445090
43.48539221,-4.115092621,-8.575068054,4.894821167,2024-06-04 15:48:59.485392
43.52569421,-1.048270111,-6.155050507,6.665189667,2024-06-04 15:48:59.525694
43.56599621,-6.944359131,-10.47312103,5.191204834,2024-06-04 15:48:59.565996
43.60629821,-1.924547882,-9.221723328,5.12848526,2024-06-04 15:48:59.606298
43.64660021,-2.124532013,-10.97008759,2.395767975,2024-06-04 15:48:59.646600
43.68690221,-1.9083815,-9.75970459,5.658383331,2024-06-04 15:48:59.686902
43.72720421,-1.776954803,-11.1928244,4.676275635,2024-06-04 15:48:59.727204
43.76750721,-1.044827271,-9.001680908,5.175637207,2024-06-04 15:48:59.767507
43.80780921,-5.695057068,-12.00608322,5.763764191,2024-06-04 15:48:59.807809
43.84811121,-2.504591675,-9.597142639,4.086502075,2024-06-04 15:48:59.848111
43.88841321,1.593137054,-11.07052872,2.412383423,2024-06-04 15:48:59.888413
43.92871521,-3.948489075,-10.4204306,3.172951813,2024-06-04 15:48:59.928715
43.96901721,-5.339845734,-9.093440094,4.266577606,2024-06-04 15:48:59.969017
44.00931921,-0.6310876465,-6.345454559,2.231260071,2024-06-04 15:49:00.009319
44.04962121,-2.098635864,-7.232958984,4.263284454,2024-06-04 15:49:00.049621
44.08992321,-16.156203,-17.31808685,10.34139496,2024-06-04 15:49:00.089923
44.13022521,9.843380585,-4.821024628,1.130449219,2024-06-04 15:49:00.130225
44.17052721,-1.53041748,1.099763031,5.691464539,2024-06-04 15:49:00.170527
44.21082921,-5.709427185,-5.588478699,6.702911224,2024-06-04 15:49:00.210829
44.25113121,0.8358618164,-2.175725555,6.626120911,2024-06-04 15:49:00.251131
44.29143283,1.225651245,-3.157533875,5.555696869,2024-06-04 15:49:00.291433
44.33173483,0.2457888794,-8.431965637,7.085066528,2024-06-04 15:49:00.331735
44.37203683,-3.495680695,-4.652924194,2.438279572,2024-06-04 15:49:00.372037
44.41233883,-3.408112793,-8.462801514,0.168848877,2024-06-04 15:49:00.412339
44.45264083,-9.826465759,-9.564660187,7.812553711,2024-06-04 15:49:00.452641
44.49294283,-1.70480484,-18.15634369,4.298610992,2024-06-04 15:49:00.492943
44.53324483,-2.180814972,-13.10479843,6.636150055,2024-06-04 15:49:00.533245
44.57354683,-1.772613831,-9.356742554,4.520599365,2024-06-04 15:49:00.573547
44.61384883,-3.038531342,-9.019942932,4.45922699,2024-06-04 15:49:00.613849
44.65415083,0.9605525208,-1.935175781,1.429227905,2024-06-04 15:49:00.654151
44.69445283,-2.886297913,-10.19589752,8.014334106,2024-06-04 15:49:00.694453
44.73475483,-6.383924561,-16.15500549,6.433022461,2024-06-04 15:49:00.734755
44.77505683,-5.238057404,-11.55836426,6.297853546,2024-06-04 15:49:00.775057
44.81535883,1.216819611,-8.574319611,-0.00853225708,2024-06-04 15:49:00.815359
44.85566083,-0.0462538147,-5.875431976,2.527793427,2024-06-04 15:49:00.855661
44.89596283,-6.072871399,-4.849166107,5.85043396,2024-06-04 15:49:00.895963
44.93626483,-7.256011047,-17.045354,4.707710266,2024-06-04 15:49:00.936265
44.97656683,-0.5963598633,-1.758992157,5.120851135,2024-06-04 15:49:00.976567
45.01686883,-3.423530731,-7.944130096,2.571652222,2024-06-04 15:49:01.016869
45.05717083,0.05403762817,-2.288590851,6.739584961,2024-06-04 15:49:01.057171
45.09747283,-1.194366302,-4.74004303,6.275699615,2024-06-04 15:49:01.097473
45.13777483,-3.760779419,-1.292711792,2.790048065,2024-06-04 15:49:01.137775
45.17807683,-1.060993652,-1.22041214,3.810476074,2024-06-04 15:49:01.178077
45.21837883,-0.1233435059,-4.629123688,9.356143799,2024-06-04 15:49:01.218379
45.25868083,-4.221970367,-13.15479446,1.84401535,2024-06-04 15:49:01.258681
45.29898271,-1.763482819,-6.568640442,5.499563599,2024-06-04 15:49:01.298983
45.33928471,-2.753973083,-13.70490051,4.243076477,2024-06-04 15:49:01.339285
45.37958671,-1.630858612,-10.51907547,2.535128174,2024-06-04 15:49:01.379587
45.41988871,-4.114643555,-8.733289032,4.364623718,2024-06-04 15:49:01.419889
45.46019071,-1.360520782,-7.795189819,5.986051941,2024-06-04 15:49:01.460191
45.50049271,0.8273295593,-8.387957153,5.721851349,2024-06-04 15:49:01.500493
45.54079471,-11.94366302,-18.39928848,7.375163269,2024-06-04 15:49:01.540795
45.58109671,1.071920929,-10.94658646,4.922064514,2024-06-04 15:49:01.581097
45.62139871,0.2818638611,-8.069269867,1.148262177,2024-06-04 15:49:01.621399
45.66170071,-1.945204926,-6.852450256,0.6005511475,2024-06-04 15:49:01.661701
45.70200271,-4.983736267,-7.575446777,6.281088409,2024-06-04 15:49:01.702003
45.74230471,-8.960067444,-11.88932602,6.220614166,2024-06-04 15:49:01.742305
45.78260671,-2.496508484,-7.913443909,2.454146576,2024-06-04 15:49:01.782607
45.82290871,-1.135987701,-5.176385651,5.51228714,2024-06-04 15:49:01.822909
45.86321071,-1.518442383,-5.507347412,4.951702881,2024-06-04 15:49:01.863211
45.90351171,-0.09565109253,-5.798042908,4.723277893,2024-06-04 15:49:01.903512
45.94381371,-3.868106232,-5.065765686,3.340154114,2024-06-04 15:49:01.943814
45.98411571,-3.689976654,-2.558030548,3.808829498,2024-06-04 15:49:01.984116
46.02441771,-0.1335223389,-1.199455719,4.235442352,2024-06-04 15:49:02.024418
46.06471971,-3.072061615,-6.536008301,4.193379822,2024-06-04 15:49:02.064720
46.10502171,-5.340893555,-8.515641632,6.107599182,2024-06-04 15:49:02.105022
46.14532371,-2.520758057,-9.376651154,4.704417114,2024-06-04 15:49:02.145324
46.18562571,-0.90681427,-9.338929596,3.984713745,2024-06-04 15:49:02.185626
46.22592771,-5.120102692,-12.54885452,5.85163147,2024-06-04 15:49:02.225928
46.26622971,-2.783761139,-10.70079758,5.217849426,2024-06-04 15:49:02.266230
46.30653171,-2.033670959,-10.81815353,5.106181641,2024-06-04 15:49:02.306532
46.34683371,-2.026036835,-9.780211945,4.424948273,2024-06-04 15:49:02.346834
46.38713471,-3.911216583,-13.86611526,6.393504639,2024-06-04 15:49:02.387135
46.42743671,-2.276915131,-6.085744629,2.377805328,2024-06-04 15:49:02.427437
46.46773871,-1.967807922,-10.70079758,5.748795319,2024-06-04 15:49:02.467739
46.50804071,-3.359613647,-10.19425095,2.944227448,2024-06-04 15:49:02.508041
46.54834271,-5.370831299,-8.175848236,6.241420898,2024-06-04 15:49:02.548343
46.58864471,-5.296286316,-12.32821335,5.944588165,2024-06-04 15:49:02.588645
46.62894671,0.5396278381,-7.276518402,1.635199585,2024-06-04 15:49:02.628947
46.66924871,-2.905907135,-8.538244629,5.869594116,2024-06-04 15:49:02.669249
46.70955071,-3.437302094,-5.596412201,5.397326202,2024-06-04 15:49:02.709551
46.74985171,-2.633773041,-3.993994446,5.059179382,2024-06-04 15:49:02.749852
46.79015371,1.951342163,-2.793341217,3.166365509,2024-06-04 15:49:02.790154
46.83045571,-3.005599823,-2.951262817,4.641398163,2024-06-04 15:49:02.830456
46.87075771,-4.620292053,-3.8565802,5.956712952,2024-06-04 15:49:02.870758
46.91105971,-1.176703033,-2.020648041,6.002218323,2024-06-04 15:49:02.911060
46.95136171,-0.4942721558,-7.711663513,5.202880554,2024-06-04 15:49:02.951362
46.99166371,-4.58676178,-10.04860382,5.370232544,2024-06-04 15:49:02.991664
47.03196471,-2.960244141,-12.08167603,4.45099411,2024-06-04 15:49:03.031965
47.07226671,-4.527185669,-11.12142288,4.424948273,2024-06-04 15:49:03.072267
47.11256871,-2.204765167,-8.604107666,6.028563538,2024-06-04 15:49:03.112569
47.15287071,-1.611698456,-12.70348297,4.525688782,2024-06-04 15:49:03.152871
47.19317271,-0.3350033569,-7.213649139,5.600154419,2024-06-04 15:49:03.193173
47.23347471,-4.26148819,-14.07777512,8.317453766,2024-06-04 15:49:03.233475
47.27377671,-2.930156708,-7.06261322,2.126777344,2024-06-04 15:49:03.273777
47.31407813,-5.441634064,-9.80880249,6.440057831,2024-06-04 15:49:03.314078
47.35438013,-3.056044922,-9.728868713,6.431375885,2024-06-04 15:49:03.354380
47.39468213,-6.678062897,-10.76725937,4.053420868,2024-06-04 15:49:03.394682
47.43498413,-4.305796051,-10.31190628,4.800966339,2024-06-04 15:49:03.434984
47.47528613,-2.319875793,-7.155420227,3.04691391,2024-06-04 15:49:03.475286
47.51558813,-0.545615387,-4.16553772,3.906127167,2024-06-04 15:49:03.515588
47.55588913,-4.457131348,-11.16019226,4.014202423,2024-06-04 15:49:03.555889
47.59619113,-1.647024994,-3.107537842,5.674100647,2024-06-04 15:49:03.596191
47.63649313,-0.1951940918,-5.626649323,1.906136169,2024-06-04 15:49:03.636493
47.67679513,-2.469564514,-2.115999756,4.948709106,2024-06-04 15:49:03.676795
47.71709713,-2.205812988,-1.560355225,3.438948669,2024-06-04 15:49:03.717097
47.75739913,-2.936144257,-3.623664551,6.006559296,2024-06-04 15:49:03.757399
47.79770013,-2.690654755,-5.198838959,3.980971527,2024-06-04 15:49:03.797700
47.83800213,-0.2775228882,-4.789290619,3.046464844,2024-06-04 15:49:03.838002
47.87830413,-4.43812088,-12.9127478,6.475833435,2024-06-04 15:49:03.878304
47.91860613,-0.7595205688,-17.87433014,8.385562134,2024-06-04 15:49:03.918606
47.95890813,-4.881199493,-6.339766388,6.609056396,2024-06-04 15:49:03.958908
47.99920913,2.270927582,-3.812871094,-0.4168830872,2024-06-04 15:49:03.999209
48.03951112,0.9247769165,-5.907315674,3.310665436,2024-06-04 15:49:04.039511
48.07981313,-13.65295853,-20.76736404,11.3600267,2024-06-04 15:49:04.079813
48.12011513,-0.7743397522,-15.46044983,-0.7737409973,2024-06-04 15:49:04.120115
48.16041713,2.332299957,-3.980821838,6.866970062,2024-06-04 15:49:04.160417
48.20071813,-4.186344452,-8.880582733,3.239413605,2024-06-04 15:49:04.200718
48.24102013,2.912792816,-8.347541199,2.790347443,2024-06-04 15:49:04.241020
48.28132212,1.900148621,-3.112178192,-2.508932648,2024-06-04 15:49:04.281322
48.32162363,-6.185287628,-6.063590698,3.009342041,2024-06-04 15:49:04.321624
48.36192463,-9.510023804,-12.62564484,9.866432648,2024-06-04 15:49:04.361925
48.40222663,-1.453627167,-8.188122711,8.714577942,2024-06-04 15:49:04.402227
48.44252863,-5.177882538,-9.031169586,5.321134644,2024-06-04 15:49:04.442529
48.48283063,-3.130290527,-8.305628357,5.180427246,2024-06-04 15:49:04.482831
48.52313263,10.42432251,7.649542694,-1.103954315,2024-06-04 15:49:04.523133
48.56343363,-16.54853714,-15.65564392,4.571643219,2024-06-04 15:49:04.563434
48.60373563,1.851499786,-4.678970032,4.549489288,2024-06-04 15:49:04.603736
48.64403763,-1.874701538,-0.5894741821,3.378923492,2024-06-04 15:49:04.644038
48.68433963,-4.384682007,-6.070626068,5.31335083,2024-06-04 15:49:04.684340
48.72464063,-1.016236725,-4.173471222,2.482288055,2024-06-04 15:49:04.724641
48.76494263,-5.12144989,-9.168434143,5.578748932,2024-06-04 15:49:04.764943
48.80524463,-2.109114075,-14.08930115,8.403674469,2024-06-04 15:49:04.805245
48.84554663,-3.630400543,-6.26342514,5.392835541,2024-06-04 15:49:04.845547
48.88584763,-3.280128937,-13.52018463,2.213447113,2024-06-04 15:49:04.885848
48.92614963,0.3555107117,-13.31975143,4.006717987,2024-06-04 15:49:04.926150
48.96645163,-6.025569763,-8.989406433,6.199657745,2024-06-04 15:49:04.966452
49.00675263,-3.71617218,-10.86844894,6.151308289,2024-06-04 15:49:05.006753
49.04705462,-3.586092682,-8.414751434,1.843865662,2024-06-04 15:49:05.047055
49.08735663,-2.874771881,-12.2598056,4.070635071,2024-06-04 15:49:05.087357
49.12765863,-0.47271698,-14.03720947,5.203030243,2024-06-04 15:49:05.127659
49.16795962,-1.215173035,-6.779701538,1.148112488,2024-06-04 15:49:05.167960
49.20826163,-5.241500244,-7.313491516,5.264701996,2024-06-04 15:49:05.208262
49.24856363,-4.82895813,-11.57333313,4.484524384,2024-06-04 15:49:05.248564
49.28886612,-3.48684906,-6.331234131,6.219117279,2024-06-04 15:49:05.288866
49.32916713,-6.245013428,-9.100475464,6.743626556,2024-06-04 15:49:05.329167
49.36946913,-1.145867157,-7.93664566,5.318889313,2024-06-04 15:49:05.369469
49.40977112,-0.7469467163,-2.271676025,2.04759201,2024-06-04 15:49:05.409771
49.45007213,-3.695365448,-2.419418793,2.308200073,2024-06-04 15:49:05.450072
49.49037413,3.794010315,0.7355703735,2.460583191,2024-06-04 15:49:05.490374
49.53067613,-3.076252899,-8.713530121,4.809348907,2024-06-04 15:49:05.530676
49.57097713,-5.773493958,-8.466843109,7.255412292,2024-06-04 15:49:05.570977
49.61127913,-1.894460449,-5.598956909,1.20050354,2024-06-04 15:49:05.611279
49.65158113,-1.871109009,-5.827531586,2.236349487,2024-06-04 15:49:05.651581
49.69188313,-3.334016876,-9.218879242,6.849157104,2024-06-04 15:49:05.691883
49.73218413,-4.062252502,-13.95218628,5.610932007,2024-06-04 15:49:05.732184
49.77248613,0.8729846191,-7.392227783,5.855523376,2024-06-04 15:49:05.772486
49.81278813,-3.076402588,-12.79344589,3.116070099,2024-06-04 15:49:05.812788
49.85308913,-4.598886566,-11.88917633,7.060816956,2024-06-04 15:49:05.853089
49.89339113,-2.953059082,-10.54616913,4.014651489,2024-06-04 15:49:05.893391
49.93369312,2.071542206,-7.455546112,2.087708588,2024-06-04 15:49:05.933693
49.97399413,-4.06719223,-8.627908173,4.922214203,2024-06-04 15:49:05.973994
50.01429613,-3.327131195,-11.90728867,1.444645844,2024-06-04 15:49:06.014296
50.05459812,-1.239272919,-8.613238678,-0.946481781,2024-06-04 15:49:06.054598
50.09489913,-10.54751633,-9.591304779,8.229287109,2024-06-04 15:49:06.094899
50.13520113,-5.708379364,-16.86273376,2.3237677,2024-06-04 15:49:06.135201
50.17550313,-0.5619314575,-4.414170685,3.991749115,2024-06-04 15:49:06.175503
50.21580413,-4.471501465,-4.098477173,3.225492554,2024-06-04 15:49:06.215804
50.25610613,0.2966830444,-5.260361023,1.403780823,2024-06-04 15:49:06.256106
50.29640825,-0.1568737793,-2.695594482,1.944456482,2024-06-04 15:49:06.296408
50.33670925,-7.68861145,-7.339537354,8.760981445,2024-06-04 15:49:06.336709
50.37701125,-1.169517975,-9.755662994,4.205654297,2024-06-04 15:49:06.377011
50.41731325,-3.363355865,-4.725373535,4.204307098,2024-06-04 15:49:06.417313
50.45761425,-2.84917511,-3.636837158,3.526815948,2024-06-04 15:49:06.457614
50.49791625,1.295106812,-2.08740921,3.025957489,2024-06-04 15:49:06.497916
50.53821725,-6.965016174,-12.29004272,3.395239563,2024-06-04 15:49:06.538217
50.57851925,-2.270179138,-8.031997375,4.723128204,2024-06-04 15:49:06.578519
50.61882125,-4.350253601,-10.67714676,4.414470062,2024-06-04 15:49:06.618821
50.65912225,-4.373155975,-13.04671921,5.014422455,2024-06-04 15:49:06.659122
50.69942425,-3.233725433,-11.7980159,4.295168152,2024-06-04 15:49:06.699424
50.73972625,-2.961291962,-7.698939972,4.399800568,2024-06-04 15:49:06.739726
50.78002725,-1.848356323,-9.145082703,3.599564667,2024-06-04 15:49:06.780027
50.82032925,-0.1305285645,-6.254443817,4.405638428,2024-06-04 15:49:06.820329
50.86063025,-4.984634399,-11.21632553,5.160219269,2024-06-04 15:49:06.860630
50.90093225,-1.893861694,-9.757459259,3.906276855,2024-06-04 15:49:06.900932
50.94123425,-2.682272186,-10.62161224,3.163521423,2024-06-04 15:49:06.941234
50.98153525,-2.976560211,-10.32298325,5.626349945,2024-06-04 15:49:06.981535
51.02183725,-3.135529633,-8.360414429,3.236120453,2024-06-04 15:49:07.021837
51.06213925,-4.473746796,-8.281977539,3.585493927,2024-06-04 15:49:07.062139
51.10244025,-4.28019928,-8.373437347,5.284460907,2024-06-04 15:49:07.102440
51.14274225,-1.890119476,-6.429130554,5.069657593,2024-06-04 15:49:07.142742
51.18304325,-2.366279297,-5.723797302,3.422632599,2024-06-04 15:49:07.183043
51.22334525,-2.884801025,-7.060068512,4.040547638,2024-06-04 15:49:07.223345
51.26364625,-5.667963409,-7.189100189,5.4491185,2024-06-04 15:49:07.263646
51.30394825,-2.97790741,-2.585124207,4.882696381,2024-06-04 15:49:07.303948
51.34425025,0.1848655701,-6.887028351,4.910239105,2024-06-04 15:49:07.344250
51.38455125,-2.463127899,-4.347259827,2.702180786,2024-06-04 15:49:07.384551
51.42485325,-7.417974243,-7.768096161,8.797355804,2024-06-04 15:49:07.424853
51.46515425,-2.565664673,-12.39856705,5.702391815,2024-06-04 15:49:07.465154
51.50545625,-2.380649414,-7.60089386,4.213138733,2024-06-04 15:49:07.505456
51.54575825,-6.230343933,-9.819430389,5.13671814,2024-06-04 15:49:07.545758
51.58605925,-3.219804382,-6.622229004,4.502786407,2024-06-04 15:49:07.586059
51.62636125,-3.6296521,-7.323820038,4.613855438,2024-06-04 15:49:07.626361
51.66666225,-2.903811493,-7.073241119,3.80164444,2024-06-04 15:49:07.666662
51.70696425,-1.906734924,-3.315605164,3.260968781,2024-06-04 15:49:07.706964
51.74726525,-4.737348633,-13.07635757,6.081403656,2024-06-04 15:49:07.747265
51.78756725,-2.965483246,-7.335046692,3.678001556,2024-06-04 15:49:07.787567
51.82786825,-4.947960663,-8.732540588,4.230502625,2024-06-04 15:49:07.827868
51.86817025,-2.688708801,-5.58593399,4.946613464,2024-06-04 15:49:07.868170
51.90847225,-3.860023041,-10.53823563,4.724924469,2024-06-04 15:49:07.908472
51.94877325,-3.898792419,-4.834346924,4.180506592,2024-06-04 15:49:07.948773
51.98907525,-4.256997528,-9.222322083,5.30990799,2024-06-04 15:49:07.989075
52.02937625,-3.931574249,-8.43046875,4.123924255,2024-06-04 15:49:08.029376
52.06967825,-5.744154968,-8.814570007,5.673501892,2024-06-04 15:49:08.069678
52.10997925,-2.993325348,-6.903045044,4.504732361,2024-06-04 15:49:08.109979
52.15028125,-3.965104523,-9.737251282,4.877157898,2024-06-04 15:49:08.150281
52.19058225,-4.138743439,-9.45897995,5.010979614,2024-06-04 15:49:08.190582
52.23088425,-2.579136658,-7.72019577,3.207829285,2024-06-04 15:49:08.230884
52.27118525,-3.243006134,-6.077811127,3.149300995,2024-06-04 15:49:08.271185
52.311487,-5.419929199,-9.330846405,5.402116241,2024-06-04 15:49:08.311487
52.351788,0.6819818115,-5.938750305,3.603755951,2024-06-04 15:49:08.351788
52.39209,-6.393205261,-12.90271866,6.082451477,2024-06-04 15:49:08.392090
52.432392,-3.153941345,-8.409662018,4.749772797,2024-06-04 15:49:08.432392
52.472693,-3.100652161,-7.95775177,4.474195862,2024-06-04 15:49:08.472693
52.512995,-3.009791107,-6.518195343,3.438050537,2024-06-04 15:49:08.512995
52.553296,0.373024292,-6.310726776,3.296894073,2024-06-04 15:49:08.553296
52.593598,-6.681655426,-9.342372437,5.214855652,2024-06-04 15:49:08.593598
52.633899,-4.248315582,-9.295370178,4.445605316,2024-06-04 15:49:08.633899
52.674201,-3.254681854,-7.860304413,3.726500702,2024-06-04 15:49:08.674201
52.714502,-2.102976837,-8.549321594,4.013304291,2024-06-04 15:49:08.714502
52.754804,-2.250869293,-7.801626434,4.618196411,2024-06-04 15:49:08.754804
52.795105,-4.550686798,-8.92429184,4.767885132,2024-06-04 15:49:08.795105
52.835407,-2.509980469,-7.627688141,3.906426544,2024-06-04 15:49:08.835407
52.875708,-4.040098572,-8.544381866,4.147724762,2024-06-04 15:49:08.875708
52.91601,-3.46813797,-8.365803223,4.646936646,2024-06-04 15:49:08.916010
52.956311,-2.195634155,-6.183491364,3.742218018,2024-06-04 15:49:08.956311
52.996613,-2.762954407,-8.159831543,3.951482849,2024-06-04 15:49:08.996613
53.036914,-2.018851776,-9.094936981,3.194806366,2024-06-04 15:49:09.036914
53.077215,-5.400020599,-7.933951263,4.597389679,2024-06-04 15:49:09.077215
53.117517,-4.338428192,-8.813971252,4.986280975,2024-06-04 15:49:09.117517
53.157818,-3.551364899,-8.283923492,4.342918854,2024-06-04 15:49:09.157818
53.19812,-4.211492157,-6.844516754,3.569028168,2024-06-04 15:49:09.198120
53.238421,-1.972897339,-5.723946991,4.662055206,2024-06-04 15:49:09.238421
53.278723,-3.989054718,-8.65395401,5.269192657,2024-06-04 15:49:09.278723
53.31902421,-4.930297394,-9.16289566,5.070106659,2024-06-04 15:49:09.319024
53.35932621,-3.34883606,-9.653575287,4.450545044,2024-06-04 15:49:09.359326
53.39962721,-3.614683228,-8.401279449,3.688928833,2024-06-04 15:49:09.399627
53.43992921,-2.521207123,-6.350394287,3.52666626,2024-06-04 15:49:09.439929
53.48023021,-1.374292145,-6.259233856,3.668870544,2024-06-04 15:49:09.480230
53.52053221,-4.765490112,-6.767876129,4.50128952,2024-06-04 15:49:09.520532
53.56083321,-4.99047226,-10.59870987,4.878654785,2024-06-04 15:49:09.560833
53.60113421,-2.599344635,-8.762328644,4.135749664,2024-06-04 15:49:09.601134
53.64143621,-5.224136353,-11.28862518,5.199737091,2024-06-04 15:49:09.641436
53.68173721,-3.137924652,-8.170309753,4.215084686,2024-06-04 15:49:09.681737
53.72203921,-2.291884003,-6.020031281,3.625311127,2024-06-04 15:49:09.722039
53.76234021,-2.659369812,-8.761131134,3.645668793,2024-06-04 15:49:09.762340
53.80264221,-3.103645935,-8.26670929,4.412224731,2024-06-04 15:49:09.802642
53.84294321,-3.788172455,-8.704548798,4.910388794,2024-06-04 15:49:09.842943
53.88324521,-4.006119232,-5.868995361,4.466711426,2024-06-04 15:49:09.883245
53.92354621,-5.216951294,-8.003855896,4.461023254,2024-06-04 15:49:09.923546
53.96384721,-3.580254822,-6.571634216,3.927083588,2024-06-04 15:49:09.963847
54.00414921,-4.140839081,-7.636819153,4.163591766,2024-06-04 15:49:10.004149
54.04445021,-4.196672974,-8.538843384,4.343068542,2024-06-04 15:49:10.044450
54.08475221,-3.709735565,-8.313112793,5.245841217,2024-06-04 15:49:10.084752
54.12505321,-3.76182724,-9.351653137,4.678071899,2024-06-04 15:49:10.125053
54.16535421,-3.923191681,-7.274871826,4.490960999,2024-06-04 15:49:10.165354
54.20565621,-3.389551392,-7.416926422,4.401447144,2024-06-04 15:49:10.205656
54.24595721,-4.006119232,-6.367009735,4.371210022,2024-06-04 15:49:10.245957
54.28625921,-3.535797272,-8.855884094,5.064717865,2024-06-04 15:49:10.286259
54.32656021,-3.419339447,-7.749834137,4.547693024,2024-06-04 15:49:10.326560
54.36686121,-3.196602631,-8.57087677,4.071533203,2024-06-04 15:49:10.366861
54.40716321,-3.535198517,-7.327262878,3.869902496,2024-06-04 15:49:10.407163
54.44746421,-3.145858154,-6.677913208,4.169729004,2024-06-04 15:49:10.447464
54.48776621,-4.555776215,-8.945847015,4.309538269,2024-06-04 15:49:10.487766
54.52806721,-4.884342957,-7.991132355,5.2712883,2024-06-04 15:49:10.528067
54.56836821,-4.201013947,-9.314081268,5.808221741,2024-06-04 15:49:10.568368
54.60867021,-3.407663727,-6.700067139,4.486320648,2024-06-04 15:49:10.608670
54.64897121,-5.884862366,-8.280480652,5.283562775,2024-06-04 15:49:10.648971
54.68927321,-3.687282257,-6.486760712,3.751947784,2024-06-04 15:49:10.689273
54.72957421,-3.677402802,-5.724396057,3.790866852,2024-06-04 15:49:10.729574
54.76987521,-3.50436264,-8.653504944,3.85777771,2024-06-04 15:49:10.769875
54.81017721,-3.62605957,-7.276219025,4.36671936,2024-06-04 15:49:10.810177
54.85047821,-3.899391174,-8.936117249,6.066285095,2024-06-04 15:49:10.850478
54.89077921,-3.23297699,-9.987680511,5.262606354,2024-06-04 15:49:10.890779
54.93108121,-3.547922058,-9.863438873,5.438191223,2024-06-04 15:49:10.931081
54.97138221,-3.126398621,-9.468260651,5.388344879,2024-06-04 15:49:10.971382
55.01168321,-3.490291901,-7.00408493,3.377426605,2024-06-04 15:49:11.011683
55.05198521,-2.873574371,-7.669600983,4.669689331,2024-06-04 15:49:11.051985
55.09228621,-4.471351776,-6.29276413,4.297263794,2024-06-04 15:49:11.092286
55.13258821,-3.918102264,-8.816965027,5.041965179,2024-06-04 15:49:11.132588
55.17288921,-3.124003601,-6.656208344,3.720812531,2024-06-04 15:49:11.172889
55.21319021,-3.646417236,-8.895701294,4.787194977,2024-06-04 15:49:11.213190
55.25349221,-3.374732208,-9.05407196,5.083428955,2024-06-04 15:49:11.253492
55.29379321,-2.802023163,-6.738237762,4.880001984,2024-06-04 15:49:11.293793
55.33409371,-3.997586975,-8.50890564,4.894222412,2024-06-04 15:49:11.334094
55.37439571,-3.520379333,-7.196135559,4.895270233,2024-06-04 15:49:11.374396
55.41469671,-4.001778259,-8.701405334,4.715045013,2024-06-04 15:49:11.414697
55.45499771,-2.663561096,-6.486311646,4.386478271,2024-06-04 15:49:11.454998
55.49529971,-4.756508789,-8.47028595,4.384981384,2024-06-04 15:49:11.495300
55.53560071,-3.6986586,-6.443201294,4.483925629,2024-06-04 15:49:11.535601
55.57590171,-2.495161285,-10.01417542,4.452790375,2024-06-04 15:49:11.575902
55.61620371,-3.091970215,-9.238787842,5.798342285,2024-06-04 15:49:11.616204
55.65650471,-2.390678558,-8.372688904,4.875211945,2024-06-04 15:49:11.656505
55.69680571,-3.00709671,-6.66833313,4.241878967,2024-06-04 15:49:11.696806
55.73710771,-2.422562256,-5.837261353,3.861220551,2024-06-04 15:49:11.737108
55.77740871,-3.440894623,-10.04216721,6.912475433,2024-06-04 15:49:11.777409
55.81770971,-2.968327332,-7.230114899,6.315067749,2024-06-04 15:49:11.817710
55.85801171,-2.854563904,-9.404792633,5.717510376,2024-06-04 15:49:11.858012
55.89831271,-1.425635376,-7.036268005,5.023852844,2024-06-04 15:49:11.898313
55.93861371,-3.845054169,-8.048313446,5.752537537,2024-06-04 15:49:11.938614
55.97891471,-1.986968079,-7.773185577,5.526806946,2024-06-04 15:49:11.978915
56.01921671,-2.274220734,-6.954537964,5.982309723,2024-06-04 15:49:12.019217
56.05951771,-3.262765045,-7.366780701,6.174060974,2024-06-04 15:49:12.059518
56.09981871,-3.500620422,-7.582631836,7.038213959,2024-06-04 15:49:12.099819
56.14012071,-2.550396423,-7.082372131,7.856562195,2024-06-04 15:49:12.140121
56.18042171,-3.004102936,-6.325096893,6.694528656,2024-06-04 15:49:12.180422
56.22072271,-3.441493378,-6.405479736,6.447691956,2024-06-04 15:49:12.220723
56.26102371,-0.7093748474,-4.741539917,3.571273499,2024-06-04 15:49:12.261024
56.30132583,-0.5304968262,-4.714146881,4.672533417,2024-06-04 15:49:12.301326
56.34162683,-2.328857117,-6.288123779,5.892197113,2024-06-04 15:49:12.341627
56.38192783,-1.071172485,-7.375612335,7.642806702,2024-06-04 15:49:12.381928
56.42222883,-0.5908213806,-5.380561066,4.800068207,2024-06-04 15:49:12.422229
56.46253083,-0.1429527283,-6.252647552,4.538112946,2024-06-04 15:49:12.462531
56.50283183,2.279010773,-8.928782501,3.656296692,2024-06-04 15:49:12.502832
56.54313283,0.6866221619,-10.61487625,6.875951385,2024-06-04 15:49:12.543133
56.58343383,2.519410858,-10.71831116,4.3807901,2024-06-04 15:49:12.583434
56.62373583,1.912872162,-9.580527191,5.113516388,2024-06-04 15:49:12.623736
56.66403683,-1.945055237,-8.588090973,4.414470062,2024-06-04 15:49:12.664037
56.70433783,1.318308563,-7.331154785,3.447780304,2024-06-04 15:49:12.704338
56.74463883,1.029559021,-7.950267334,4.152065735,2024-06-04 15:49:12.744639
56.78494083,0.1695973206,-10.89718918,4.249962158,2024-06-04 15:49:12.784941
56.82524183,2.551294556,-10.58224411,4.027225342,2024-06-04 15:49:12.825242
56.86554283,2.485581207,-9.786199493,4.392316132,2024-06-04 15:49:12.865543
56.90584383,1.683099976,-8.475674744,2.928360443,2024-06-04 15:49:12.905844
56.94614583,2.238894196,-9.037456512,3.543281708,2024-06-04 15:49:12.946146
56.98644683,1.635349274,-8.18707489,2.729573822,2024-06-04 15:49:12.986447
57.02674783,2.397713928,-9.657766571,3.100951538,2024-06-04 15:49:13.026748
57.06704883,3.143014069,-10.31490005,4.572541351,2024-06-04 15:49:13.067049
57.10735083,2.771336975,-8.730594635,2.716251526,2024-06-04 15:49:13.107351
57.14765183,3.215463409,-9.289083252,3.224594421,2024-06-04 15:49:13.147652
57.18795283,2.050436096,-9.079069977,4.05671402,2024-06-04 15:49:13.187953
57.22825383,2.985092468,-8.321046295,3.286415863,2024-06-04 15:49:13.228254
57.26855583,3.139571228,-6.721772003,2.10147995,2024-06-04 15:49:13.268556
57.30885746,1.055604858,-9.548793182,5.376669159,2024-06-04 15:49:13.308857
57.34915846,0.1734892273,-8.953930206,4.405488739,2024-06-04 15:49:13.349158
57.38945946,2.327809296,-10.04635849,3.576811981,2024-06-04 15:49:13.389459
57.42976146,1.959575043,-9.925410004,4.177961884,2024-06-04 15:49:13.429761
57.47006246,0.705333252,-8.189170532,4.184099121,2024-06-04 15:49:13.470062
57.51036346,1.99385376,-8.070018311,2.877765656,2024-06-04 15:49:13.510363
57.55066446,2.156565399,-7.701634369,3.416944427,2024-06-04 15:49:13.550664
57.59096546,2.527494049,-8.674012299,3.936663666,2024-06-04 15:49:13.590965
57.63126646,1.941911774,-9.051078186,3.959715729,2024-06-04 15:49:13.631266
57.67156846,1.661694489,-8.961564331,3.005150757,2024-06-04 15:49:13.671568
57.71186946,3.301534424,-9.115743713,3.816014557,2024-06-04 15:49:13.711869
57.75217046,2.290686493,-7.544161835,2.096540222,2024-06-04 15:49:13.752170
57.79247146,2.593207397,-7.544161835,3.465144196,2024-06-04 15:49:13.792471
57.83277246,1.272503815,-9.697284393,3.543281708,2024-06-04 15:49:13.832772
57.87307446,1.576521606,-13.13518524,3.145558777,2024-06-04 15:49:13.873074
57.91337546,4.876259766,-5.853128357,-1.272503815,2024-06-04 15:49:13.913375
57.95367646,4.967869263,-14.49196381,2.864892426,2024-06-04 15:49:13.953676
57.99397746,3.063529358,-8.350235596,1.740580444,2024-06-04 15:49:13.993977
58.03427846,-0.03532653809,-8.481063538,3.116818542,2024-06-04 15:49:14.034278
58.07458046,-0.9882449341,-9.16993103,3.711681519,2024-06-04 15:49:14.074580
58.11488146,0.3233276367,-9.44850174,2.680176544,2024-06-04 15:49:14.114881
58.15518246,2.524200897,-9.512568512,3.498674469,2024-06-04 15:49:14.155182
58.19548346,3.812422028,-9.379345551,2.170636139,2024-06-04 15:49:14.195483
58.23578446,2.475701752,-9.458081818,2.295925598,2024-06-04 15:49:14.235784
58.27608546,4.095932465,-9.638756104,1.472188568,2024-06-04 15:49:14.276085
58.31638683,4.721182251,-8.548124084,1.827100525,2024-06-04 15:49:14.316387
58.35668783,4.360133057,-10.0063916,2.401306458,2024-06-04 15:49:14.356688
58.39698883,1.968855743,-9.282197571,2.77433075,2024-06-04 15:49:14.396989
58.43728983,-4.99975296,-9.088500366,3.939807129,2024-06-04 15:49:14.437290
58.47759083,3.169209595,-5.459746399,-1.841320953,2024-06-04 15:49:14.477591
58.51789183,-1.352736969,-6.986421661,5.118905182,2024-06-04 15:49:14.517892
58.55819283,1.195713501,-13.39279953,8.849896545,2024-06-04 15:49:14.558193
58.59849483,12.29498245,-7.943980408,-1.128353577,2024-06-04 15:49:14.598495
58.63879583,1.251248016,-9.683513031,2.982398071,2024-06-04 15:49:14.638796
58.67909683,5.353766785,-10.03363495,2.344574432,2024-06-04 15:49:14.679097
58.71939783,2.716550903,-7.710166626,2.177222443,2024-06-04 15:49:14.719398
58.75969883,1.713786163,-9.232201538,1.078207855,2024-06-04 15:49:14.759699
58.79999983,-0.02739303589,-10.03782623,3.848497009,2024-06-04 15:49:14.800000
58.84030183,3.563489685,-10.2824176,1.646126862,2024-06-04 15:49:14.840302
58.88060283,1.975292358,-9.161997528,1.30932724,2024-06-04 15:49:14.880603
58.92090383,2.883603516,-9.474397888,0.1757345581,2024-06-04 15:49:14.920904
58.96120483,0.9744735718,-9.206305389,-0.2151026917,2024-06-04 15:49:14.961205
59.00150583,2.24652832,-9.282496948,0.662971344,2024-06-04 15:49:15.001506
59.04180683,2.641556854,-9.724228363,1.684447174,2024-06-04 15:49:15.041807
59.08210783,1.839973755,-10.16521133,1.34674942,2024-06-04 15:49:15.082108
59.12240883,0.6792874146,-8.672515411,1.351988525,2024-06-04 15:49:15.122409
59.16271083,1.663041687,-10.02240829,-0.2148033142,2024-06-04 15:49:15.162711
59.20301183,2.21853653,-9.081315308,1.332828369,2024-06-04 15:49:15.203012
59.24331283,1.566342773,-8.582402802,1.357976074,2024-06-04 15:49:15.243313
59.28361383,0.9403445435,-10.75767929,1.036893768,2024-06-04 15:49:15.283614
59.32391458,0.6854246521,-9.048683167,1.206191711,2024-06-04 15:49:15.323915
59.36421558,-0.1378633118,-10.96110626,0.1215472412,2024-06-04 15:49:15.364216
59.40451658,2.256108398,-9.722432098,0.8158035278,2024-06-04 15:49:15.404517
59.44481758,1.456321564,-9.812694397,2.475102997,2024-06-04 15:49:15.444818
59.48511958,3.74311615,-11.37544464,1.987417145,2024-06-04 15:49:15.485120
59.52542058,0.8482859802,-9.042845306,1.811083832,2024-06-04 15:49:15.525421
59.56572158,0.2613565063,-9.67542984,1.355431366,2024-06-04 15:49:15.565722
59.60602258,2.070045319,-9.494755554,1.588646393,2024-06-04 15:49:15.606023
59.64632358,1.530866547,-9.518855438,1.553020477,2024-06-04 15:49:15.646324
59.68662458,0.28081604,-10.41638901,0.9545649719,2024-06-04 15:49:15.686625
59.72692558,1.26486969,-10.35875885,1.114582214,2024-06-04 15:49:15.726926
59.76722658,1.009650421,-10.83252365,1.174158325,2024-06-04 15:49:15.767227
59.80752758,0.9440867615,-9.735305328,1.434167633,2024-06-04 15:49:15.807528
59.84782858,1.844614105,-8.327632599,0.5804928589,2024-06-04 15:49:15.847829
59.88813058,1.324445801,-8.462801514,0.8458909607,2024-06-04 15:49:15.888131
59.92843158,1.718127136,-10.55544983,1.139430542,2024-06-04 15:49:15.928432
59.96873258,1.219514008,-10.49572403,2.083068237,2024-06-04 15:49:15.968733
60.00903358,0.256716156,-9.615704041,1.727108459,2024-06-04 15:49:16.009034
60.04933458,-0.07244934082,-8.962612152,1.141675873,2024-06-04 15:49:16.049335
60.08963558,0.5845344543,-9.860445099,1.5819104,2024-06-04 15:49:16.089636
60.12993658,2.008822632,-9.163195038,1.326541443,2024-06-04 15:49:16.129937
60.17023758,0.9800120544,-8.416547699,1.604812775,2024-06-04 15:49:16.170238
60.21053858,0.3956272888,-10.06432114,1.592388611,2024-06-04 15:49:16.210539
60.25083958,-0.3516188049,-10.00758911,1.758992157,2024-06-04 15:49:16.250840
60.29114058,0.2127076721,-10.18631744,2.413580933,2024-06-04 15:49:16.291141
60.33144146,0.2034269714,-9.499695282,2.364632721,2024-06-04 15:49:16.331441
60.37174246,0.3755690002,-9.398356018,2.422861633,2024-06-04 15:49:16.371742
60.41204446,1.008153534,-9.38757843,1.664089508,2024-06-04 15:49:16.412044
60.45234546,0.8208929443,-10.41234741,2.644550629,2024-06-04 15:49:16.452345
60.49264646,-0.270637207,-9.639354858,2.615511017,2024-06-04 15:49:16.492646
60.53294746,-0.8713380432,-9.584868164,2.485132141,2024-06-04 15:49:16.532947
60.57324846,1.89550827,-10.10264145,1.067280579,2024-06-04 15:49:16.573248
60.61354946,0.9599537659,-9.973160706,2.166893921,2024-06-04 15:49:16.613549
60.65385046,-0.4722679138,-9.458081818,1.982477417,2024-06-04 15:49:16.653850
60.69415146,-0.2466870117,-8.990304565,2.210902405,2024-06-04 15:49:16.694151
60.73445246,-0.3255729675,-9.270970917,2.441572723,2024-06-04 15:49:16.734452
60.77475346,-0.5948629761,-8.944350128,1.915716248,2024-06-04 15:49:16.774753
60.81505446,0.4990621948,-8.881181488,2.792892151,2024-06-04 15:49:16.815054
60.85535546,0.2398013306,-9.883796539,2.297123108,2024-06-04 15:49:16.855355
60.89565646,-0.6969506836,-9.943073273,2.863096161,2024-06-04 15:49:16.895656
60.93595746,-0.9497749329,-9.758058014,3.157234497,2024-06-04 15:49:16.935957
60.97625846,-0.3861968994,-9.64384552,2.959645386,2024-06-04 15:49:16.976258
61.01655946,-0.1191522217,-9.275162201,2.61401413,2024-06-04 15:49:17.016559
61.05686046,0.8220904541,-9.220076752,2.201921082,2024-06-04 15:49:17.056860
61.09716146,0.1923500061,-9.733509064,2.471809845,2024-06-04 15:49:17.097161
61.13746246,-0.4611909485,-9.275760956,2.670297089,2024-06-04 15:49:17.137462
61.17776346,-0.4462220764,-8.421188049,3.087329865,2024-06-04 15:49:17.177763
61.21806446,-0.5242098999,-7.883655853,2.377955017,2024-06-04 15:49:17.218064
61.25836546,1.772314453,-10.62655197,2.964136047,2024-06-04 15:49:17.258365
61.29866646,0.1582209778,-10.81920135,3.529660034,2024-06-04 15:49:17.298666
61.33896783,0.3903881836,-10.60200302,4.062102814,2024-06-04 15:49:17.338968
61.37926883,2.33080307,-10.93491074,1.517095184,2024-06-04 15:49:17.379269
61.41956983,3.132386169,-8.785081329,-0.1579216003,2024-06-04 15:49:17.419570
61.45987083,-4.555925903,-5.106780396,3.717519379,2024-06-04 15:49:17.459871
61.50017183,-5.439239044,-9.780211945,4.657863922,2024-06-04 15:49:17.500172
61.54047283,-5.221441956,-8.98746048,7.747439117,2024-06-04 15:49:17.540473
61.58077383,0.9553134155,-7.041956177,-0.2555186462,2024-06-04 15:49:17.580774
61.62107483,5.456602936,-10.92443253,3.413800964,2024-06-04 15:49:17.621075
61.66137583,3.363655243,-10.58748322,1.75629776,2024-06-04 15:49:17.661376
61.70167683,1.500330048,-10.78297668,2.59874588,2024-06-04 15:49:17.701677
61.74197783,1.158291321,-8.931027832,2.492167511,2024-06-04 15:49:17.741978
61.78227883,0.4752616882,-7.052284698,0.6794371033,2024-06-04 15:49:17.782279
61.82257983,0.326920166,-10.24454636,2.626138916,2024-06-04 15:49:17.822580
61.86288083,1.026565247,-11.42050095,3.790866852,2024-06-04 15:49:17.862881
61.90318183,-0.05433700562,-9.373058624,1.869911499,2024-06-04 15:49:17.903182
61.94348283,-0.1567240906,-9.42275528,0.9388476562,2024-06-04 15:49:17.943483
61.98378383,1.772164764,-9.439819794,1.033450928,2024-06-04 15:49:17.983784
62.02408483,1.473984833,-10.26535309,1.953587494,2024-06-04 15:49:18.024085
62.06438583,0.6224057007,-10.16146912,1.641785889,2024-06-04 15:49:18.064386
62.10468683,0.6484515381,-9.677525482,1.604363708,2024-06-04 15:49:18.104687
62.14498783,0.7903564453,-9.588760071,1.779499512,2024-06-04 15:49:18.144988
62.18528883,0.1296304321,-9.414821777,1.882784729,2024-06-04 15:49:18.185289
62.22558983,0.4748126221,-9.526190186,1.509161682,2024-06-04 15:49:18.225590
62.26589083,1.915566559,-9.745334473,1.430425415,2024-06-04 15:49:18.265891
62.30619175,1.705104218,-9.682764587,1.633553009,2024-06-04 15:49:18.306192
62.34649275,0.9970765686,-9.692494354,1.803898773,2024-06-04 15:49:18.346493
62.38679375,0.07274871826,-9.697434082,2.227517853,2024-06-04 15:49:18.386794
62.42709475,-0.1951940918,-9.397906952,2.384241943,2024-06-04 15:49:18.427095
62.46739575,0.2597099304,-9.495503998,2.289488983,2024-06-04 15:49:18.467396
62.50769675,0.9434880066,-9.108558655,2.761756897,2024-06-04 15:49:18.507697
62.54799775,1.672921143,-7.720046082,2.324665833,2024-06-04 15:49:18.547998
62.58829875,0.3022215271,-10.37118301,3.617377625,2024-06-04 15:49:18.588299
62.62859975,-0.7298822021,-10.5425766,3.068618774,2024-06-04 15:49:18.628600
62.66890075,0.5325924683,-9.771979065,2.222727814,2024-06-04 15:49:18.668901
62.70920075,-0.0730480957,-9.058712311,2.541115723,2024-06-04 15:49:18.709201
62.74950175,-0.1055305481,-9.809850311,2.077230377,2024-06-04 15:49:18.749502
62.78980275,1.505718842,-9.653275909,2.832110596,2024-06-04 15:49:18.789803
62.83010375,1.859732666,-9.103918304,2.772983551,2024-06-04 15:49:18.830104
62.87040475,0.5433700562,-8.866362305,3.897145844,2024-06-04 15:49:18.870405
62.91070575,-0.7888595581,-8.052205353,3.63309494,2024-06-04 15:49:18.910706
62.95100675,-1.622176666,-10.13617172,3.78173584,2024-06-04 15:49:18.951007
62.99130775,-1.894610138,-8.26431427,3.288361816,2024-06-04 15:49:18.991308
63.03160875,-1.607956238,-8.246501312,4.569397888,2024-06-04 15:49:19.031609
63.07190975,1.768572235,-7.962242432,-1.014290771,2024-06-04 15:49:19.071910
