"Time (s)","Acceleration x (m/s^2)","Acceleration y (m/s^2)","Acceleration z (m/s^2)"
0.000000000E0,-4.417449474E0,6.709774017E0,6.514459848E-1
0.000000000E0,-4.759922504E0,6.406782627E0,6.931408882E0
1.463407300E-2,-5.652146339E0,4.831707001E0,6.875177860E0
5.505688600E-2,-3.783650875E0,6.051149368E0,4.783850670E0
9.554532300E-2,-3.681955814E0,6.562615395E0,6.264110565E0
1.360338130E-1,-3.304488182E0,6.179165363E0,7.969893932E0
2.220466780E-1,-3.546462297E0,5.518147945E0,6.754639149E0
2.625296460E-1,-3.236890793E0,5.833701611E0,6.476772785E0
3.029683960E-1,-3.468097210E0,5.826523304E0,7.181757927E0
3.434430320E-1,-4.647758961E0,4.721637249E0,6.958328247E0
3.839867820E-1,-1.444965720E0,3.887439489E0,7.457231998E0
4.244752710E-1,4.666004330E-2,2.325524569E0,1.058704376E1
4.649637090E-1,7.522436380E-1,1.328016520E-1,1.133360481E1
5.054521980E-1,5.540281773E0,3.897309899E-1,1.392024612E1
5.459263130E-1,5.294120312E0,4.953143001E-1,1.128335476E1
5.863924590E-1,5.465207100E0,2.042872429E0,5.161019325E0
6.269006360E-1,1.441974759E0,1.867298961E0,9.620942116E0
6.674028750E-1,1.942074656E0,2.185843468E0,1.018744278E1
7.078653750E-1,2.114656925E0,2.914158821E0,7.944170952E0
7.483363130E-1,9.690931439E-1,2.470888376E0,7.133303165E0
7.888503750E-1,1.739881158E0,2.586641312E0,8.861519814E0
8.293304280E-1,2.558525562E0,3.207578659E0,8.917152405E0
8.698186570E-1,2.614757061E0,2.822035313E0,9.750752449E0
9.103608960E-1,2.343470573E0,2.688336134E0,9.255737305E0
9.507919380E-1,2.344667196E0,2.547757864E0,9.680164337E0
9.912802190E-1,2.081157446E0,2.367997169E0,1.003400230E1
1.031768500E0,2.280659199E0,2.900998354E0,9.932906151E0
1.072255844E0,4.322035789E0,2.754138947E0,1.007079220E1
1.112744125E0,2.988336325E0,3.066103220E0,1.017547798E1
1.153246209E0,1.936690807E0,3.239881754E0,8.462217331E0
1.193709646E0,1.776371717E0,4.291527271E0,5.362315655E0
1.234256521E0,3.008675337E0,4.284946918E0,6.879364967E0
1.274739907E0,4.609473705E0,4.249054909E0,9.396913528E0
1.315236157E0,4.562813759E0,4.261617184E0,1.092114162E1
1.355699438E0,3.789034605E0,4.191029072E0,1.018146038E1
1.396187615E0,4.031008720E0,4.210769653E0,9.050253868E0
1.436676573E0,4.185645103E0,4.222733974E0,8.479565620E0
1.477165480E0,3.983750582E0,4.477270126E0,7.492526054E0
1.517632198E0,3.696312666E0,4.513761044E0,7.681259632E0
1.558126157E0,4.035196304E0,4.666303158E0,7.122535706E0
1.598617563E0,3.889234066E0,4.810770035E0,7.103393078E0
1.639097823E0,3.929912090E0,5.079065323E0,6.454041004E0
1.679578553E0,4.515555382E0,5.131707191E0,7.321139812E0
1.720115688E0,4.254438877E0,5.097011566E0,6.296712875E0
1.760586000E0,4.369892120E0,4.808975220E0,8.240582466E0
1.801066834E0,4.389633179E0,4.868795872E0,8.087740898E0
1.841589646E0,3.705883980E0,4.947759151E0,8.078767776E0
1.882051053E0,3.358027458E0,5.365904808E0,8.027919769E0
1.922514386E0,2.166102648E0,5.165804863E0,7.551748276E0
1.962993396E0,4.587339878E0,6.180960178E0,7.013961315E0
2.003481625E0,4.491627216E0,5.637789249E0,7.690232754E0
2.043969803E0,3.009273529E0,5.004289627E0,6.794120789E0
2.084458032E0,3.669393539E0,5.211866856E0,7.012166977E0
2.124955063E0,5.009075165E0,5.446064472E0,7.760222912E0
2.165460948E0,4.605884552E0,5.354538918E0,6.693024158E0
2.205979490E0,4.262215137E0,5.618646622E0,5.913861275E0
2.246457615E0,4.516751766E0,5.910272121E0,5.383851051E0
2.286923500E0,4.759324074E0,5.786443233E0,5.794818401E0
2.327426053E0,4.078267097E0,5.410770416E0,5.294718266E0
2.367926469E0,3.892823458E0,5.074279308E0,5.968297958E0
2.408428240E0,3.733999729E0,4.591527462E0,7.495516777E0
2.448889959E0,4.857429981E0,4.952245712E0,7.352246761E0
2.489344959E0,3.366402388E0,4.706083775E0,5.718546867E0
2.529833396E0,5.202893734E0,5.995217323E0,5.060520649E0
2.570321782E0,3.792025566E0,4.216153622E0,6.801299095E0
2.610810167E0,4.417449474E0,4.688137531E0,8.130811691E0
2.651298553E0,3.885644913E0,3.908376694E0,7.769794464E0
2.691795115E0,5.453242779E0,4.701896667E0,1.054905796E1
2.732338761E0,2.534896374E0,3.667000771E0,8.378767967E0
2.772847980E0,4.301696777E0,4.502993107E0,7.003193855E0
2.813338917E0,5.135894775E0,4.118346691E0,9.382556915E0
2.853828500E0,2.814856768E0,2.621935368E0,8.488538742E0
2.894314125E0,4.905884743E0,3.468695641E0,8.271090508E0
2.934745844E0,4.437788486E0,2.668595552E0,7.826623917E0
2.975206365E0,4.260420799E0,2.392523527E0,8.335098267E0
3.015695740E0,4.438984871E0,2.270190477E0,6.431309223E0
3.056196469E0,4.880760193E0,2.102692842E0,7.306184769E0
3.096691469E0,3.946063757E0,9.373882413E-1,9.169296265E0
3.137179125E0,6.320042610E0,1.788335800E0,8.465806961E0
3.177681521E0,6.776772976E0,1.949851394E0,6.776772976E0
3.218186469E0,4.535894394E0,6.346961856E-1,8.731110573E0
3.258670584E0,1.211665511E0,-4.857429862E-1,9.809675217E0
3.299174490E0,6.514459848E-1,4.067798555E-1,1.053649521E1
3.339616625E0,-1.818246126E0,5.300102234E-1,1.352034569E1
3.380127875E0,1.785943031E0,2.149353027E0,1.058524895E1
3.420662303E0,-9.059824944E-1,8.138588071E-1,1.139432240E1
3.461150375E0,1.289432287E0,1.145563841E0,1.062772179E1
3.501615219E0,3.327219963E0,8.892326951E-1,1.098036385E1
3.542110219E0,3.783650696E-1,-1.295414329E0,1.182174015E1
3.582575011E0,-1.935494423E0,-9.661021233E-1,6.748058796E0
3.623063084E0,-5.306084156E-1,2.415255308E0,1.250818157E1
3.663551157E0,-1.136590764E-1,3.623929977E0,8.408080101E0
3.704064594E0,-6.030212402E0,-1.794916034E0,4.530510426E0
3.744571521E0,-4.825126648E0,-2.252244234E0,9.975378036E0
3.785061573E0,-5.908477306E0,-1.950449586E0,7.536194801E0
3.825547250E0,-3.224328518E0,-2.269592285E0,7.351050377E0
3.866026625E0,-9.930513382E0,-4.793421745E0,7.615158081E0
3.906505740E0,-6.651747704E0,-4.510769844E0,7.745267868E0
3.947004438E0,-6.846463680E0,-4.870590687E0,8.172386169E0
3.987492459E0,-6.541378975E0,1.333998591E-1,4.985744953E0
4.027980532E0,-6.418746948E0,-2.399702072E0,8.075776100E0
4.068435844E0,-5.724529266E0,-2.071586132E0,6.618248463E0
4.108905323E0,-4.898108006E0,-3.384348631E0,7.433303356E0
4.149435063E0,-5.858228207E0,-1.300798178E0,8.642875671E0
4.189946417E0,-7.204489708E0,1.468594968E-1,6.303891182E0
4.230436053E0,-5.975476265E0,3.257827997E0,5.924030781E0
4.270891938E0,-7.153642178E0,-1.364806175E0,7.251150131E0
4.311432563E0,-7.402794838E0,1.422233939E0,6.246762753E0
4.351898240E0,-5.604289532E0,1.175474167E0,7.736294746E0
4.392373084E0,-4.177868366E0,-9.966106415E-1,4.669294357E0
4.432861209E0,-1.033430195E1,-4.362713814E0,6.803093910E0
4.473329855E0,-1.038215828E1,-3.685544968E0,3.247658491E0
4.513809959E0,-1.531197166E1,-6.030810356E0,4.650151730E0
4.554294490E0,-1.118704414E1,-4.308277130E0,2.311765671E0
4.594780323E0,-3.742374659E0,-3.378964663E0,5.556433201E0
4.635271313E0,-4.090231419E0,-1.261914849E0,3.935296059E0
4.675773813E0,-8.139185905E0,-1.122832060E0,4.841876507E0
4.716287667E0,-9.052646637E0,-1.446760416E0,6.258128643E0
4.756769178E0,-7.420741081E0,-1.910967946E0,5.379065514E0
4.797244542E0,-7.586444378E0,-2.652443886E0,6.161219120E0
4.837727303E0,-6.927819729E0,-1.236191988E0,6.084050655E0
4.878208500E0,-7.592426300E0,-4.887340367E-1,5.428118229E0
4.918700740E0,-5.333601475E0,-1.992323995E0,3.425624609E0
4.959188865E0,-5.320441246E0,-8.015955985E-2,6.932605267E0
4.999676938E0,-6.847062111E0,2.326720953E0,3.725624800E0
5.040163865E0,-1.442094421E1,3.796811342E0,3.545864105E0
5.080650428E0,-1.230568886E1,1.065404296E0,4.590929508E0
5.121140323E0,-8.338089943E0,4.516452849E-1,3.375375509E0
5.161587094E0,-9.304191589E0,6.939185411E-2,3.610470295E0
5.202142407E0,-9.456135750E0,3.616153300E-1,3.034996510E0
5.242660428E0,-8.495717049E0,4.372883439E-1,2.767299414E0
5.283154698E0,-8.689535141E0,2.551347017E-1,2.884248495E0
5.323643969E0,-8.122436523E0,3.239283562E-1,3.193221807E0
5.364129230E0,-8.133204460E0,2.694916427E-1,3.512364626E0
5.404578969E0,-8.456833839E0,-4.007977992E-2,3.211766243E0
5.445067303E0,-8.687142372E0,-6.882356405E-1,3.150749207E0
5.485555636E0,-9.974182129E0,-8.374879137E-3,4.405186653E0
5.526043969E0,-1.036780167E1,-5.341976285E-1,4.305884361E0
5.566523292E0,-9.301200867E0,-6.023930907E-1,4.663910389E0
5.607011730E0,-8.516654015E0,-7.480561733E-1,3.936492443E0
5.647534125E0,-8.052446365E0,-1.120439172E0,3.314657450E0
5.688022615E0,-8.211868286E0,-1.082154036E0,3.308675528E0
5.728486990E0,-8.844171524E0,-2.243271112E0,3.503391504E0
5.768963448E0,-9.341878891E0,-2.981158018E0,4.083651066E0
5.809451938E0,-9.792327881E0,-2.709273338E0,4.529314041E0
5.849941886E0,-9.320343018E0,-2.130808592E0,4.482056141E0
5.890468344E0,-8.358428955E0,-1.611566067E0,4.332205296E0
5.930966000E0,-7.845766544E0,-1.377966762E0,3.900599957E0
5.971419282E0,-8.299205780E0,-1.571486235E0,3.714258909E0
6.011905844E0,-9.061619759E0,-1.918744683E0,3.654438496E0
6.052401000E0,-9.327521324E0,-2.005484581E0,3.568595886E0
6.092886105E0,-9.220742226E0,-1.945065737E0,3.447758436E0
6.133402615E0,-8.942875862E0,-1.808076620E0,3.214159012E0
6.173904334E0,-8.874081612E0,-1.588235974E0,3.136392355E0
6.214393761E0,-8.990432739E0,-1.452144265E0,3.059522867E0
6.254889646E0,-8.972486496E0,-1.493719578E0,3.069094181E0
6.295377928E0,-8.939884186E0,-1.541576028E0,3.184248686E0
6.335868240E0,-9.126225471E0,-1.955235243E0,3.656831264E0
6.376354282E0,-8.909376144E0,-2.132603168E0,3.482454300E0
6.416840740E0,-8.813064575E0,-2.138585329E0,3.962813377E0
6.457329438E0,-8.802895546E0,-2.458326101E0,3.876372576E0
6.497818136E0,-9.332905769E0,-2.233101845E0,4.289732933E0
6.538306834E0,-8.425427437E0,-1.888834357E0,3.730410576E0
6.578743084E0,-8.142177582E0,-1.344467282E0,3.637090445E0
6.619256678E0,-8.707780838E0,-1.111466169E0,3.482454300E0
6.659745688E0,-8.755039215E0,-8.742775917E-1,3.563211918E0
6.700255271E0,-8.599804878E0,-7.271189690E-1,3.411267757E0
6.740690011E0,-8.499904633E0,-7.743772268E-1,3.279961586E0
6.781251157E0,-8.210073471E0,-1.025324464E0,3.760919094E0
6.821736678E0,-8.817252159E0,-1.677368641E0,4.127918243E0
6.862226417E0,-9.173483849E0,-2.321336985E0,4.250849247E0
6.902714438E0,-9.122037888E0,-2.677568436E0,4.034597874E0
6.943203917E0,-8.947062492E0,-2.518146753E0,3.841078520E0
6.983652980E0,-8.778368950E0,-2.020738840E0,3.763311863E0
7.024123553E0,-8.700602531E0,-1.685145378E0,3.696911097E0
7.064614750E0,-8.712566376E0,-1.369591832E0,3.721437454E0
7.105103709E0,-8.771190643E0,-1.465304732E0,3.642474174E0
7.145650532E0,-8.719744682E0,-1.691725612E0,3.828516245E0
7.186115271E0,-8.682954788E0,-1.793121457E0,3.859024763E0
7.226607511E0,-8.835796356E0,-1.826620936E0,3.818346739E0
7.267081261E0,-9.105886459E0,-1.741077542E0,3.702294827E0
7.307568188E0,-8.908778191E0,-1.864906192E0,3.508775234E0
7.348071053E0,-8.740083694E0,-1.677966833E0,3.802793503E0
7.388537823E0,-8.535198212E0,-1.471286774E0,4.066302776E0
7.429013813E0,-8.365009308E0,-1.337288737E0,4.115355968E0
7.469503344E0,-8.450851440E0,-1.382154226E0,4.304687977E0
7.510005480E0,-8.407481194E0,-1.637288928E0,4.548456669E0
7.550492303E0,-9.658628464E0,-2.284248352E0,4.976173878E0
7.590972407E0,-1.022632599E1,-2.379363060E0,4.379463673E0
7.631459438E0,-7.916653633E0,-1.517049551E0,3.221337557E0
7.671939542E0,-7.288238525E0,-9.155537486E-1,2.890230656E0
7.712486261E0,-7.672884941E0,-7.540382147E-1,2.933301449E0
7.752987667E0,-7.711170197E0,-5.748756528E-1,3.105883837E0
7.793475740E0,-8.361419678E0,-8.958129883E-1,3.674777269E0
7.833966834E0,-1.062951660E1,-2.236690998E0,4.134498596E0
7.874454021E0,-1.125823021E1,-2.666202545E0,4.258028030E0
7.914940740E0,-9.195617676E0,-2.122433662E0,3.854238987E0
7.955417928E0,-7.750651836E0,-1.627119422E0,3.517748356E0
7.995862823E0,-7.719544888E0,-1.283450246E0,3.405285835E0
8.036357198E0,-8.378767967E0,-1.400698543E0,3.659822226E0
8.076840896E0,-9.216554642E0,-1.750050664E0,4.029812336E0
8.117342980E0,-9.478269577E0,-2.027318954E0,4.261617184E0
8.157877667E0,-8.839385986E0,-1.906780601E0,3.996911049E0
8.198367407E0,-8.320143700E0,-1.643270969E0,3.708875179E0
8.238824750E0,-8.416454315E0,-1.555334687E0,3.599702597E0
8.279333188E0,-8.772386551E0,-1.600798368E0,3.663411379E0
8.319823657E0,-9.097511292E0,-1.709671736E0,3.779463291E0
8.360281573E0,-9.014959335E0,-1.776371717E0,3.799802303E0
8.400815532E0,-8.740083694E0,-1.709073544E0,3.716053486E0
8.441305271E0,-8.577073097E0,-1.668993831E0,3.704687595E0
8.481738865E0,-8.701200485E0,-1.680359721E0,3.806382656E0
8.522228553E0,-8.836993217E0,-1.710868239E0,3.887439489E0
8.562718292E0,-8.838788033E0,-1.693520188E0,3.863212109E0
8.603203553E0,-8.723334312E0,-1.685743570E0,3.780659676E0
8.643693240E0,-8.679366112E0,-1.666600943E0,3.720241070E0
8.684204855E0,-8.787342072E0,-1.688734531E0,3.729214191E0
8.724723969E0,-8.859724998E0,-1.719841242E0,3.748356581E0
8.765216521E0,-8.817850113E0,-1.721037745E0,3.738785267E0
8.805680375E0,-8.698807716E0,-1.606780410E0,3.796213150E0
8.846169178E0,-8.672187805E0,-1.612164259E0,3.827319860E0
8.886647980E0,-8.750851631E0,-1.693520188E0,3.799204111E0
8.927138813E0,-8.842975616E0,-1.768594980E0,3.741776466E0
8.967647928E0,-8.863314629E0,-1.755434513E0,3.716651678E0
9.008121990E0,-8.796315193E0,-1.703091502E0,3.722035646E0
9.048576417E0,-8.752646446E0,-1.668993831E0,3.741178274E0
9.089070844E0,-8.765208244E0,-1.679761529E0,3.786043644E0
9.129593761E0,-8.764610291E0,-1.689332843E0,3.780659676E0
9.170085480E0,-8.743074417E0,-1.704886079E0,3.799204111E0
9.210568240E0,-8.761619568E0,-1.686341763E0,3.800400496E0
9.251049386E0,-8.760422707E0,-1.687538147E0,3.775874138E0
9.291551521E0,-8.808876991E0,-1.695314884E0,3.753740549E0
9.332055792E0,-8.809475899E0,-1.691725612E0,3.746562004E0
9.372532823E0,-8.764610291E0,-1.704886079E0,3.752544165E0
9.413022667E0,-8.802895546E0,-1.694118381E0,3.731606960E0
9.453512042E0,-8.741280556E0,-1.667199135E0,3.755535126E0
9.494001417E0,-8.762217522E0,-1.675574064E0,3.767499208E0
9.534490792E0,-8.769993782E0,-1.692921996E0,3.778865099E0
9.574980115E0,-8.783154488E0,-1.714457393E0,3.760320902E0
9.615469490E0,-8.778368950E0,-1.710269928E0,3.754338741E0
9.655928969E0,-8.788538933E0,-1.695913076E0,3.778865099E0
9.696432094E0,-8.751449585E0,-1.691127419E0,3.720241070E0
9.736914490E0,-8.692526817E0,-1.657029629E0,3.722035646E0
9.777402511E0,-8.760422707E0,-1.674377680E0,3.760919094E0
9.817900636E0,-8.804091454E0,-1.710868239E0,3.774079561E0
9.858412146E0,-8.780761719E0,-1.751247048E0,3.783650875E0
9.898901261E0,-8.839385986E0,-1.793719649E0,3.824927092E0
9.939390428E0,-8.773583412E0,-1.756032705E0,3.789034605E0
9.979879594E0,-8.716753960E0,-1.718644857E0,3.776472330E0
1.002036876E1,-8.789136887E0,-1.721635938E0,3.785445452E0
1.006083991E1,-8.839983940E0,-1.727617979E0,3.786043644E0
1.010132907E1,-8.734101295E0,-1.686341763E0,3.740580082E0
1.014181824E1,-8.744271278E0,-1.665404558E0,3.735196114E0
1.018234501E1,-8.690732002E0,-1.736590981E0,3.720839262E0
1.022282084E1,-8.789136887E0,-1.754836321E0,3.790829182E0
1.026331730E1,-8.845368385E0,-1.737189293E0,3.772883177E0
1.030380673E1,-8.740083694E0,-1.679761529E0,3.757927895E0
1.034429298E1,-8.733503342E0,-1.654636860E0,3.750749588E0
1.038476980E1,-8.766405106E0,-1.697109461E0,3.761517286E0
1.042525329E1,-8.792725563E0,-1.738983870E0,3.768097401E0
1.046574236E1,-8.789136887E0,-1.728216171E0,3.764508247E0
1.050623142E1,-8.756834030E0,-1.701895118E0,3.748954773E0
1.054670840E1,-8.781958580E0,-1.692323804E0,3.759124279E0
1.058716777E1,-8.774779320E0,-1.724626899E0,3.776472330E0
1.062766412E1,-8.764610291E0,-1.715055585E0,3.786641836E0
1.066818975E1,-8.765806198E0,-1.716850281E0,3.760320902E0
1.070868220E1,-8.756235123E0,-1.690529227E0,3.773481369E0
1.074917308E1,-8.783752441E0,-1.700698733E0,3.765704632E0
1.078965569E1,-8.777172089E0,-1.723430514E0,3.762115479E0
1.083015225E1,-8.773583412E0,-1.715055585E0,3.751347780E0
1.087063381E1,-8.769993782E0,-1.700698733E0,3.758526087E0
1.091110605E1,-8.783154488E0,-1.691725612E0,3.754936934E0
1.095164584E1,-8.781958580E0,-1.696511269E0,3.756731510E0
1.099213532E1,-8.762815475E0,-1.697707653E0,3.769891977E0
1.103255803E1,-8.753244400E0,-1.710868239E0,3.776472330E0
1.107304647E1,-8.780163765E0,-1.709073544E0,3.780659676E0
1.111353595E1,-8.779565811E0,-1.715055585E0,3.761517286E0
1.115404329E1,-8.764610291E0,-1.697707653E0,3.773481369E0
1.119455777E1,-8.767003059E0,-1.706082582E0,3.769293785E0
1.123505704E1,-8.779565811E0,-1.694716692E0,3.769891977E0
1.127554324E1,-8.770592690E0,-1.710269928E0,3.754338741E0
1.131603412E1,-8.757431984E0,-1.710269928E0,3.783052683E0
1.135648876E1,-8.775976181E0,-1.717448473E0,3.769891977E0
1.139694725E1,-8.780163765E0,-1.695314884E0,3.777070522E0
1.143743548E1,-8.769993782E0,-1.707877159E0,3.762115479E0
1.147792340E1,-8.759824753E0,-1.710269928E0,3.776472330E0
1.151842001E1,-8.789734840E0,-1.713859200E0,3.741776466E0
1.155892350E1,-8.778368950E0,-1.698305845E0,3.741178274E0
1.159942402E1,-8.782556534E0,-1.684547186E0,3.735794306E0
1.163988959E1,-8.767601013E0,-1.686939955E0,3.757927895E0
1.168040329E1,-8.787342072E0,-1.705484390E0,3.771686792E0
1.172089866E1,-8.757431984E0,-1.714457393E0,3.774079561E0
1.176135767E1,-8.758627892E0,-1.708475351E0,3.785445452E0
1.180188230E1,-8.764610291E0,-1.709671736E0,3.769891977E0
1.184239470E1,-8.772386551E0,-1.692323804E0,3.760320902E0
1.188288423E1,-8.778368950E0,-1.708475351E0,3.774677753E0
1.192336928E1,-8.792725563E0,-1.709073544E0,3.757329702E0
1.196385001E1,-8.767601013E0,-1.716850281E0,3.749552965E0
1.200433907E1,-8.758029938E0,-1.700100541E0,3.767499208E0
1.204481548E1,-8.801698685E0,-1.655235052E0,3.785445452E0
1.208527918E1,-8.766405106E0,-1.680957913E0,3.769293785E0
1.212577428E1,-8.741878510E0,-1.752443433E0,3.786641836E0
1.216627543E1,-8.713164330E0,-1.770987868E0,3.829712629E0
1.220677907E1,-8.735298157E0,-1.734198213E0,3.812364578E0
1.224728366E1,-8.817252159E0,-1.710868239E0,3.718446493E0
1.228780798E1,-8.845966339E0,-1.649253011E0,3.696312666E0
1.232829704E1,-8.796913147E0,-1.624128342E0,3.695714474E0
1.236869543E1,-8.741280556E0,-1.616351724E0,3.750749588E0
1.240922032E1,-8.771190643E0,-1.658226132E0,3.812364578E0
1.244970933E1,-8.793922424E0,-1.702493310E0,3.840480328E0
1.249019808E1,-8.725727081E0,-1.716252089E0,3.800998688E0
1.253068699E1,-8.734700203E0,-1.703689694E0,3.789034605E0
1.257114147E1,-8.790931702E0,-1.694118381E0,3.756731510E0
1.261163355E1,-8.827422142E0,-1.665404558E0,3.763311863E0
1.265221845E1,-8.796913147E0,-1.661217093E0,3.729214191E0
1.269266032E1,-8.778368950E0,-1.667199135E0,3.739981890E0
1.273312230E1,-8.775378227E0,-1.696511269E0,3.759722471E0
1.277365084E1,-8.775976181E0,-1.705484390E0,3.778865099E0
1.281413736E1,-8.765208244E0,-1.718644857E0,3.792025566E0
1.285459163E1,-8.719146729E0,-1.725823283E0,3.785445452E0
1.289511782E1,-8.750253677E0,-1.712662816E0,3.809971809E0
1.293559814E1,-8.783752441E0,-1.710269928E0,3.763910055E0
1.297608288E1,-8.796315193E0,-1.686341763E0,3.750749588E0
1.301654017E1,-8.777172089E0,-1.664208174E0,3.761517286E0
1.305701553E1,-8.756834030E0,-1.689332843E0,3.763910055E0
1.309750574E1,-8.776574135E0,-1.704287887E0,3.775275946E0
1.313803329E1,-8.771788597E0,-1.709671736E0,3.766901016E0
1.317854168E1,-8.778966904E0,-1.693520188E0,3.762115479E0
1.321904079E1,-8.756235123E0,-1.686341763E0,3.766302824E0
1.325951673E1,-8.780761719E0,-1.674377680E0,3.778266907E0
1.329999522E1,-8.799904823E0,-1.677368641E0,3.754936934E0
1.334045376E1,-8.766405106E0,-1.706082582E0,3.760919094E0
1.338094475E1,-8.773583412E0,-1.708475351E0,3.748954773E0
1.342144230E1,-8.787342072E0,-1.706082582E0,3.750749588E0
1.346193111E1,-8.778966904E0,-1.709073544E0,3.767499208E0
1.350241678E1,-8.755637169E0,-1.719841242E0,3.760320902E0
1.354289991E1,-8.796913147E0,-1.722832322E0,3.745365620E0
1.358338329E1,-8.788538933E0,-1.702493310E0,3.726222992E0
1.362386340E1,-8.780761719E0,-1.687538147E0,3.736990690E0
1.366435626E1,-8.790332794E0,-1.678565025E0,3.736392498E0
1.370488522E1,-8.772985458E0,-1.685145378E0,3.743571043E0
1.374535402E1,-8.776574135E0,-1.705484390E0,3.748954773E0
1.378584350E1,-8.775378227E0,-1.728216171E0,3.760919094E0
1.382634657E1,-8.780163765E0,-1.716252089E0,3.754338741E0
1.386684694E1,-8.781958580E0,-1.721635938E0,3.761517286E0
1.390730767E1,-8.785547256E0,-1.697707653E0,3.743571043E0
1.394783475E1,-8.768797874E0,-1.676770449E0,3.741776466E0
1.398832355E1,-8.778966904E0,-1.700698733E0,3.739383698E0
1.402882423E1,-8.780761719E0,-1.713859200E0,3.754936934E0
1.406927949E1,-8.792127609E0,-1.718046665E0,3.760919094E0
1.410976855E1,-8.766405106E0,-1.694716692E0,3.765704632E0
1.415024194E1,-8.777172089E0,-1.697109461E0,3.762115479E0
1.419074720E1,-8.757431984E0,-1.705484390E0,3.762713671E0
1.423122834E1,-8.798110008E0,-1.701895118E0,3.745963812E0
1.427175100E1,-8.782556534E0,-1.703091502E0,3.728615999E0
1.431223887E1,-8.789734840E0,-1.688136339E0,3.733401537E0
1.435271991E1,-8.780761719E0,-1.686341763E0,3.738187075E0
1.439317913E1,-8.772386551E0,-1.700698733E0,3.760320902E0
1.443366803E1,-8.775378227E0,-1.711466432E0,3.772284985E0
1.447414918E1,-8.756235123E0,-1.729412556E0,3.780659676E0
1.451463418E1,-8.759226799E0,-1.717448473E0,3.757329702E0
1.455512303E1,-8.761020660E0,-1.684547186E0,3.744767427E0
1.459561194E1,-8.807681084E0,-1.682154298E0,3.741776466E0
1.463610084E1,-8.812466621E0,-1.692921996E0,3.718446493E0
1.467665605E1,-8.769395828E0,-1.697109461E0,3.752544165E0
1.471706959E1,-8.749654770E0,-1.727019787E0,3.820141315E0
1.475758647E1,-8.735298157E0,-1.754238129E0,3.806382656E0
1.479806834E1,-8.766405106E0,-1.721635938E0,3.792623997E0
1.483856959E1,-8.797511101E0,-1.688136339E0,3.744169235E0
1.487906715E1,-8.783752441E0,-1.660618901E0,3.745963812E0
1.491957334E1,-8.798110008E0,-1.651047587E0,3.732803345E0
1.496005209E1,-8.806484222E0,-1.643270969E0,3.738187075E0
1.500051564E1,-8.787940025E0,-1.660618901E0,3.716053486E0
1.504100439E1,-8.783752441E0,-1.684547186E0,3.762115479E0
1.508151022E1,-8.780761719E0,-1.689931035E0,3.788436413E0
1.512198798E1,-8.737690926E0,-1.702493310E0,3.787838221E0
1.516245387E1,-8.759226799E0,-1.706680775E0,3.786641836E0
1.520299116E1,-8.791529655E0,-1.734198213E0,3.735794306E0
1.524349527E1,-8.790332794E0,-1.713859200E0,3.734597921E0
1.528398600E1,-8.786145210E0,-1.718644857E0,3.757927895E0
1.532443668E1,-8.760422707E0,-1.720439434E0,3.754338741E0
1.536495980E1,-8.746664047E0,-1.747657895E0,3.785445452E0
1.540542814E1,-8.772985458E0,-1.741077542E0,3.786641836E0
1.544589199E1,-8.748458862E0,-1.707278967E0,3.800998688E0
1.548636892E1,-8.750253677E0,-1.658226132E0,3.817150354E0
1.552685772E1,-8.746066093E0,-1.684547186E0,3.774079561E0
1.556734657E1,-8.783154488E0,-1.735394597E0,3.722035646E0
1.560790428E1,-8.832207680E0,-1.740479350E0,3.689732552E0
1.564836584E1,-8.818449020E0,-1.699502230E0,3.706482172E0
1.568880694E1,-8.766405106E0,-1.678565025E0,3.744767427E0
1.572936939E1,-8.737092972E0,-1.686939955E0,3.787838221E0
1.576983886E1,-8.744869232E0,-1.702493310E0,3.816552162E0
1.581033439E1,-8.744271278E0,-1.729412556E0,3.803391695E0
1.585080329E1,-8.768199921E0,-1.723430514E0,3.780659676E0
1.589129100E1,-8.786744118E0,-1.702493310E0,3.725026608E0
1.593179907E1,-8.823832512E0,-1.697109461E0,3.715455294E0
1.597229808E1,-8.774779320E0,-1.692323804E0,3.720839262E0
1.601274991E1,-8.781359673E0,-1.694716692E0,3.762115479E0
1.605322058E1,-8.746066093E0,-1.701296926E0,3.790230989E0
1.609370944E1,-8.775976181E0,-1.701895118E0,3.787838221E0
1.613421621E1,-8.771788597E0,-1.707877159E0,3.765106440E0
1.617472090E1,-8.784351349E0,-1.677966833E0,3.762115479E0
1.621522725E1,-8.755039215E0,-1.688136339E0,3.765704632E0
1.625571715E1,-8.768797874E0,-1.707877159E0,3.766302824E0
1.629619058E1,-8.784351349E0,-1.715055585E0,3.747758389E0
1.633666569E1,-8.794520378E0,-1.689931035E0,3.732803345E0
1.637713126E1,-8.782556534E0,-1.697109461E0,3.756133318E0
1.641763126E1,-8.767601013E0,-1.690529227E0,3.762713671E0
1.645811975E1,-8.774779320E0,-1.709671736E0,3.774677753E0
1.649860850E1,-8.777172089E0,-1.709073544E0,3.756133318E0
1.653908548E1,-8.761619568E0,-1.714457393E0,3.759124279E0
1.657964772E1,-8.764610291E0,-1.692323804E0,3.773481369E0
1.662012777E1,-8.783752441E0,-1.684547186E0,3.760919094E0
1.666061803E1,-8.789734840E0,-1.697707653E0,3.763910055E0
1.670108209E1,-8.777770996E0,-1.706082582E0,3.753740549E0
1.674157386E1,-8.757431984E0,-1.712662816E0,3.762713671E0
1.678208861E1,-8.789734840E0,-1.703689694E0,3.762713671E0
1.682257657E1,-8.783752441E0,-1.701296926E0,3.760320902E0
1.686306709E1,-8.777770996E0,-1.694118381E0,3.764508247E0
1.690355470E1,-8.767601013E0,-1.684547186E0,3.766901016E0
1.694403043E1,-8.759226799E0,-1.703689694E0,3.761517286E0
1.698451986E1,-8.783154488E0,-1.706082582E0,3.736990690E0
1.702500923E1,-8.771788597E0,-1.698305845E0,3.743571043E0
1.706549866E1,-8.781958580E0,-1.693520188E0,3.752544165E0
1.710598808E1,-8.771788597E0,-1.700698733E0,3.767499208E0
1.714645845E1,-8.789136887E0,-1.709671736E0,3.766901016E0
1.718692694E1,-8.768797874E0,-1.695314884E0,3.754338741E0
1.722740824E1,-8.771788597E0,-1.689931035E0,3.771088600E0
1.726797220E1,-8.765208244E0,-1.695913076E0,3.763311863E0
1.730844407E1,-8.778966904E0,-1.709671736E0,3.765704632E0
1.734890642E1,-8.780761719E0,-1.690529227E0,3.751347780E0
1.738941022E1,-8.780761719E0,-1.701296926E0,3.759124279E0
1.742990689E1,-8.775976181E0,-1.715055585E0,3.760320902E0
1.747039637E1,-8.784949303E0,-1.711466432E0,3.763311863E0
1.751085126E1,-8.784351349E0,-1.707278967E0,3.772284985E0
1.755132215E1,-8.758029938E0,-1.688136339E0,3.750749588E0
1.759181058E1,-8.789136887E0,-1.689332843E0,3.774677753E0
1.763230527E1,-8.755637169E0,-1.736590981E0,3.759124279E0
1.767281121E1,-8.769993782E0,-1.728814363E0,3.765704632E0
1.771333199E1,-8.777770996E0,-1.710269928E0,3.757927895E0
1.775382840E1,-8.784949303E0,-1.685145378E0,3.771686792E0
1.779431704E1,-8.757431984E0,-1.687538147E0,3.759722471E0
1.783480678E1,-8.784949303E0,-1.689332843E0,3.764508247E0
1.787529574E1,-8.778966904E0,-1.714457393E0,3.741776466E0
1.791578538E1,-8.787940025E0,-1.714457393E0,3.756731510E0
1.795625881E1,-8.768199921E0,-1.713261008E0,3.760320902E0
1.799674814E1,-8.767003059E0,-1.710269928E0,3.780659676E0
1.803720553E1,-8.767003059E0,-1.709073544E0,3.769891977E0
1.807769480E1,-8.767601013E0,-1.696511269E0,3.769293785E0
1.811818407E1,-8.769993782E0,-1.712064624E0,3.754338741E0
1.815872147E1,-8.777770996E0,-1.698904037E0,3.763910055E0
1.819913689E1,-8.782556534E0,-1.691725612E0,3.740580082E0
1.823970647E1,-8.771190643E0,-1.684547186E0,3.770490170E0
1.828018392E1,-8.778368950E0,-1.703689694E0,3.765704632E0
1.832068439E1,-8.771788597E0,-1.723430514E0,3.775275946E0
1.836111246E1,-8.771190643E0,-1.710868239E0,3.759124279E0
1.840166262E1,-8.781359673E0,-1.685743570E0,3.759124279E0
1.844215189E1,-8.788538933E0,-1.689931035E0,3.744169235E0
1.848257834E1,-8.779565811E0,-1.707877159E0,3.752544165E0
1.852306855E1,-8.779565811E0,-1.707877159E0,3.759722471E0
1.856356350E1,-8.769993782E0,-1.708475351E0,3.766302824E0
1.860405215E1,-8.767601013E0,-1.706680775E0,3.770490170E0
1.864454084E1,-8.778966904E0,-1.698904037E0,3.777070522E0
1.868504136E1,-8.783752441E0,-1.704886079E0,3.757329702E0
1.872556829E1,-8.782556534E0,-1.703091502E0,3.751347780E0
1.876604689E1,-8.783752441E0,-1.700698733E0,3.750749588E0
1.880654017E1,-8.787342072E0,-1.697707653E0,3.743571043E0
1.884703803E1,-8.761020660E0,-1.712662816E0,3.769293785E0
1.888749262E1,-8.794520378E0,-1.705484390E0,3.769293785E0
1.892796345E1,-8.762815475E0,-1.700698733E0,3.757927895E0
1.896845225E1,-8.785547256E0,-1.686341763E0,3.780659676E0
1.900894105E1,-8.762217522E0,-1.701296926E0,3.765704632E0
1.904945996E1,-8.770592690E0,-1.703689694E0,3.759124279E0
1.908993892E1,-8.765806198E0,-1.701895118E0,3.736990690E0
1.913041527E1,-8.783154488E0,-1.695314884E0,3.751945972E0
1.917090173E1,-8.781359673E0,-1.692921996E0,3.756133318E0
1.921143704E1,-8.774181366E0,-1.694118381E0,3.761517286E0
1.925192949E1,-8.778966904E0,-1.698305845E0,3.750749588E0
1.929242105E1,-8.785547256E0,-1.685145378E0,3.756133318E0
1.933291090E1,-8.764012337E0,-1.691127419E0,3.752544165E0
1.937338402E1,-8.779565811E0,-1.725225091E0,3.746562004E0
1.941384017E1,-8.769993782E0,-1.714457393E0,3.763311863E0
1.945432907E1,-8.762217522E0,-1.711466432E0,3.776472330E0
1.949482444E1,-8.797511101E0,-1.695314884E0,3.765704632E0
1.953529897E1,-8.765208244E0,-1.704886079E0,3.764508247E0
1.957578975E1,-8.774181366E0,-1.699502230E0,3.778266907E0
1.961627881E1,-8.774181366E0,-1.698305845E0,3.759722471E0
1.965680199E1,-8.793324471E0,-1.682752490E0,3.751945972E0
1.969728204E1,-8.770592690E0,-1.700100541E0,3.762713671E0
1.973778319E1,-8.762217522E0,-1.722832322E0,3.748356581E0
1.977827355E1,-8.776574135E0,-1.715055585E0,3.754936934E0
1.981873022E1,-8.769993782E0,-1.710269928E0,3.754936934E0
1.985921933E1,-8.772985458E0,-1.684547186E0,3.755535126E0
1.989976423E1,-8.782556534E0,-1.683350682E0,3.756731510E0
1.994025334E1,-8.791529655E0,-1.667199135E0,3.754936934E0
1.998068829E1,-8.770592690E0,-1.691725612E0,3.754338741E0
2.002116751E1,-8.770592690E0,-1.707278967E0,3.759124279E0
2.006167423E1,-8.787342072E0,-1.703689694E0,3.742374659E0
2.010215090E1,-8.791529655E0,-1.704886079E0,3.745963812E0
2.014270725E1,-8.768199921E0,-1.718644857E0,3.751945972E0
2.018318412E1,-8.774181366E0,-1.721635938E0,3.764508247E0
2.022367215E1,-8.762815475E0,-1.710269928E0,3.785445452E0
2.026416262E1,-8.765806198E0,-1.697109461E0,3.783650875E0
2.030465496E1,-8.781359673E0,-1.683350682E0,3.777070522E0
2.034514308E1,-8.783752441E0,-1.678565025E0,3.753142357E0
2.038562725E1,-8.780761719E0,-1.688734531E0,3.744169235E0
2.042611449E1,-8.781359673E0,-1.706082582E0,3.728017569E0
2.046660340E1,-8.786744118E0,-1.709073544E0,3.738785267E0
2.050709386E1,-8.788538933E0,-1.707278967E0,3.769293785E0
2.054758595E1,-8.756834030E0,-1.706680775E0,3.772284985E0
2.058807069E1,-8.770592690E0,-1.686341763E0,3.791427374E0
2.062853543E1,-8.772386551E0,-1.694118381E0,3.762115479E0
2.066901527E1,-8.772386551E0,-1.700100541E0,3.754338741E0
2.070954673E1,-8.789136887E0,-1.691725612E0,3.736392498E0
2.075004084E1,-8.778368950E0,-1.696511269E0,3.734597921E0
2.079051376E1,-8.784351349E0,-1.701296926E0,3.762713671E0
2.083098652E1,-8.767601013E0,-1.712662816E0,3.769293785E0
2.087149001E1,-8.768797874E0,-1.718046665E0,3.767499208E0
2.091199491E1,-8.762815475E0,-1.702493310E0,3.780061483E0
2.095243829E1,-8.799305916E0,-1.697109461E0,3.757329702E0
2.099293496E1,-8.772985458E0,-1.688734531E0,3.744767427E0
2.103341673E1,-8.795118332E0,-1.682154298E0,3.745963812E0
2.107390611E1,-8.752047539E0,-1.709073544E0,3.765106440E0
2.111438662E1,-8.782556534E0,-1.715055585E0,3.751945972E0
2.115492902E1,-8.771788597E0,-1.701296926E0,3.777668715E0
2.119541350E1,-8.784351349E0,-1.705484390E0,3.756133318E0
2.123590308E1,-8.768797874E0,-1.715055585E0,3.753740549E0
2.127637782E1,-8.777172089E0,-1.688136339E0,3.774079561E0
2.131682423E1,-8.778966904E0,-1.700100541E0,3.750151396E0
2.135732402E1,-8.772985458E0,-1.700100541E0,3.762713671E0
2.139783855E1,-8.777172089E0,-1.704886079E0,3.742972851E0
2.143832887E1,-8.788538933E0,-1.698305845E0,3.769891977E0
2.147878892E1,-8.790931702E0,-1.714457393E0,3.763910055E0
2.151927819E1,-8.773583412E0,-1.720439434E0,3.754936934E0
2.155977428E1,-8.768199921E0,-1.714457393E0,3.778266907E0
2.160025928E1,-8.780163765E0,-1.698305845E0,3.774079561E0
2.164074407E1,-8.778368950E0,-1.680957913E0,3.754936934E0
2.168127558E1,-8.804690361E0,-1.704287887E0,3.736990690E0
2.172178428E1,-8.783752441E0,-1.733600020E0,3.725624800E0
2.176227215E1,-8.769993782E0,-1.712662816E0,3.754338741E0
2.180276199E1,-8.787342072E0,-1.701296926E0,3.766302824E0
2.184325236E1,-8.765806198E0,-1.692921996E0,3.760919094E0
2.188374142E1,-8.763413429E0,-1.705484390E0,3.758526087E0
2.192422631E1,-8.774181366E0,-1.716252089E0,3.769891977E0
2.196470788E1,-8.774779320E0,-1.714457393E0,3.752544165E0
2.200519793E1,-8.787940025E0,-1.682752490E0,3.769891977E0
2.204567548E1,-8.772386551E0,-1.688734531E0,3.738187075E0
2.208613616E1,-8.784949303E0,-1.694716692E0,3.749552965E0
2.212663788E1,-8.783154488E0,-1.717448473E0,3.755535126E0
2.216716840E1,-8.768797874E0,-1.697109461E0,3.777668715E0
2.220760662E1,-8.751449585E0,-1.706680775E0,3.774677753E0
2.224809668E1,-8.796315193E0,-1.706082582E0,3.761517286E0
2.228857256E1,-8.784949303E0,-1.713261008E0,3.735196114E0
2.232906267E1,-8.772386551E0,-1.675574064E0,3.784847260E0
2.236955272E1,-8.752646446E0,-1.695913076E0,3.760919094E0
2.241007788E1,-8.780761719E0,-1.701296926E0,3.762713671E0
2.245056782E1,-8.777172089E0,-1.679761529E0,3.739981890E0
2.249102939E1,-8.790931702E0,-1.682154298E0,3.736392498E0
2.253150928E1,-8.795118332E0,-1.702493310E0,3.753740549E0
2.257200053E1,-8.758627892E0,-1.714457393E0,3.772284985E0
2.261249834E1,-8.772985458E0,-1.735992789E0,3.782454491E0
2.265299699E1,-8.777172089E0,-1.740479350E0,3.763910055E0
2.269351079E1,-8.804091454E0,-1.715055585E0,3.762115479E0
2.273402022E1,-8.737690926E0,-1.697707653E0,3.835096598E0
2.277450642E1,-8.676374435E0,-1.660618901E0,3.864408493E0
2.281499631E1,-8.716156006E0,-1.655833244E0,3.778266907E0
2.285548668E1,-8.885447502E0,-1.622931957E0,3.671188116E0
2.289594512E1,-8.816056252E0,-1.665404558E0,3.643670797E0
2.293644506E1,-8.808876991E0,-1.731805444E0,3.711267948E0
2.297691272E1,-8.790931702E0,-1.739881158E0,3.792025566E0
2.301738850E1,-8.769993782E0,-1.712662816E0,3.814159393E0
2.305787777E1,-8.747262001E0,-1.672582984E0,3.826721668E0
2.309836709E1,-8.702396393E0,-1.661815286E0,3.817748547E0
2.313889564E1,-8.729315758E0,-1.673181176E0,3.815953970E0
2.317938189E1,-8.780761719E0,-1.701895118E0,3.752544165E0
2.321986522E1,-8.829216003E0,-1.721635938E0,3.733401537E0
2.326036392E1,-8.798110008E0,-1.694716692E0,3.716053486E0
2.330085142E1,-8.802297592E0,-1.667797327E0,3.738785267E0
2.334129933E1,-8.786744118E0,-1.668993831E0,3.745365620E0
2.338180834E1,-8.780163765E0,-1.700698733E0,3.777668715E0
2.342233720E1,-8.754440308E0,-1.735394597E0,3.766302824E0
2.346282647E1,-8.758029938E0,-1.715055585E0,3.793222189E0
2.350329808E1,-8.767601013E0,-1.712662816E0,3.806382656E0
2.354375204E1,-8.768199921E0,-1.706680775E0,3.766901016E0
2.358424131E1,-8.756834030E0,-1.697707653E0,3.737588882E0
2.362473189E1,-8.802895546E0,-1.666600943E0,3.732803345E0
2.366522355E1,-8.790332794E0,-1.652842283E0,3.758526087E0
2.370572871E1,-8.815457344E0,-1.686341763E0,3.759124279E0
2.374623058E1,-8.762815475E0,-1.717448473E0,3.758526087E0
2.378671860E1,-8.778368950E0,-1.729412556E0,3.775874138E0
2.382719803E1,-8.776574135E0,-1.711466432E0,3.757927895E0
2.386767819E1,-8.801100731E0,-1.680957913E0,3.742972851E0
2.390816730E1,-8.768199921E0,-1.673779488E0,3.730410576E0
2.394867074E1,-8.770592690E0,-1.672582984E0,3.761517286E0
2.398915996E1,-8.780761719E0,-1.686939955E0,3.762115479E0
2.402962017E1,-8.775976181E0,-1.698305845E0,3.772284985E0
2.407015657E1,-8.760422707E0,-1.716850281E0,3.765106440E0
2.411064574E1,-8.762815475E0,-1.722234130E0,3.756133318E0
2.415113496E1,-8.793324471E0,-1.700100541E0,3.767499208E0
2.419162517E1,-8.787342072E0,-1.697109461E0,3.756731510E0
2.423212694E1,-8.768797874E0,-1.706680775E0,3.740580082E0
2.427261564E1,-8.770592690E0,-1.713859200E0,3.772284985E0
2.431310491E1,-8.788538933E0,-1.706082582E0,3.754338741E0
2.435359397E1,-8.768797874E0,-1.680359721E0,3.768695593E0
2.439405121E1,-8.787940025E0,-1.678565025E0,3.758526087E0
2.443454064E1,-8.764012337E0,-1.715055585E0,3.751945972E0
2.447501256E1,-8.780163765E0,-1.727019787E0,3.757927895E0
2.451549319E1,-8.765806198E0,-1.722234130E0,3.749552965E0
2.455598256E1,-8.771788597E0,-1.707877159E0,3.760320902E0
2.459647199E1,-8.771190643E0,-1.671386600E0,3.758526087E0
2.463696136E1,-8.794520378E0,-1.651645780E0,3.758526087E0
2.467745152E1,-8.782556534E0,-1.689931035E0,3.738785267E0
2.471796074E1,-8.769993782E0,-1.725823283E0,3.764508247E0
2.475845298E1,-8.764610291E0,-1.739881158E0,3.760320902E0
2.479894236E1,-8.779565811E0,-1.731805444E0,3.775874138E0
2.483942590E1,-8.765806198E0,-1.691127419E0,3.777668715E0
2.487992064E1,-8.768199921E0,-1.680359721E0,3.772883177E0
2.492044298E1,-8.777770996E0,-1.680957913E0,3.741178274E0
2.496093032E1,-8.796913147E0,-1.695913076E0,3.748954773E0
2.500140256E1,-8.799305916E0,-1.702493310E0,3.731606960E0
2.504185720E1,-8.774779320E0,-1.688136339E0,3.777668715E0
2.508234959E1,-8.780163765E0,-1.712662816E0,3.766901016E0
2.512285834E1,-8.758029938E0,-1.713859200E0,3.772883177E0
2.516337548E1,-8.775976181E0,-1.704886079E0,3.763311863E0
2.520386204E1,-8.771190643E0,-1.695913076E0,3.758526087E0
2.524435991E1,-8.783752441E0,-1.687538147E0,3.764508247E0
2.528485491E1,-8.771788597E0,-1.677368641E0,3.745963812E0
2.532534444E1,-8.790332794E0,-1.691127419E0,3.746562004E0
2.536583088E1,-8.777770996E0,-1.710269928E0,3.759722471E0
2.540632332E1,-8.783154488E0,-1.712064624E0,3.778865099E0
2.544681327E1,-8.743673325E0,-1.713261008E0,3.777668715E0
2.548730317E1,-8.747262001E0,-1.712662816E0,3.765704632E0
2.552779312E1,-8.802895546E0,-1.703689694E0,3.731606960E0
2.556828301E1,-8.779565811E0,-1.675574064E0,3.739383698E0
2.560877254E1,-8.771788597E0,-1.683350682E0,3.735196114E0
2.564922353E1,-8.788538933E0,-1.699502230E0,3.743571043E0
2.568975713E1,-8.791529655E0,-1.707278967E0,3.757329702E0
2.573018754E1,-8.764610291E0,-1.701296926E0,3.775874138E0
2.577069171E1,-8.767003059E0,-1.698904037E0,3.787240028E0
2.581121713E1,-8.756235123E0,-1.711466432E0,3.780061483E0
2.585170530E1,-8.773583412E0,-1.715653777E0,3.757927895E0
2.589219239E1,-8.789136887E0,-1.707877159E0,3.728017569E0
2.593267780E1,-8.769993782E0,-1.670788407E0,3.717848301E0
2.597316536E1,-8.794520378E0,-1.671984792E0,3.747758389E0
2.601365504E1,-8.778966904E0,-1.689931035E0,3.776472330E0
2.605411666E1,-8.771788597E0,-1.711466432E0,3.766302824E0
2.609459223E1,-8.776574135E0,-1.722234130E0,3.774079561E0
2.613511697E1,-8.776574135E0,-1.711466432E0,3.765704632E0
2.617561973E1,-8.775378227E0,-1.701296926E0,3.754338741E0
2.621609640E1,-8.775976181E0,-1.697109461E0,3.754936934E0
2.625658968E1,-8.777172089E0,-1.688136339E0,3.762115479E0
2.629708103E1,-8.774181366E0,-1.702493310E0,3.757927895E0
2.633752843E1,-8.774779320E0,-1.700698733E0,3.754936934E0
2.637803791E1,-8.766405106E0,-1.707877159E0,3.763311863E0
2.641856020E1,-8.777770996E0,-1.711466432E0,3.764508247E0
2.645904999E1,-8.768797874E0,-1.716850281E0,3.762115479E0
2.649953994E1,-8.769395828E0,-1.680359721E0,3.762115479E0
2.654000911E1,-8.769395828E0,-1.696511269E0,3.759722471E0
2.658045760E1,-8.764012337E0,-1.704886079E0,3.777668715E0
2.662094733E1,-8.775976181E0,-1.703689694E0,3.748954773E0
2.666143713E1,-8.769993782E0,-1.689931035E0,3.755535126E0
2.670197114E1,-8.781958580E0,-1.688734531E0,3.759124279E0
2.674247634E1,-8.771788597E0,-1.698904037E0,3.754338741E0
2.678296166E1,-8.775378227E0,-1.712662816E0,3.751347780E0
2.682345775E1,-8.778368950E0,-1.700698733E0,3.762713671E0
2.686394510E1,-8.768797874E0,-1.688734531E0,3.762115479E0
2.690443374E1,-8.774181366E0,-1.695913076E0,3.766901016E0
2.694490718E1,-8.780163765E0,-1.698305845E0,3.759124279E0
2.698536921E1,-8.771788597E0,-1.706082582E0,3.754338741E0
2.702586046E1,-8.780163765E0,-1.704886079E0,3.768695593E0
2.706634989E1,-8.769993782E0,-1.701895118E0,3.773481369E0
2.710682567E1,-8.767601013E0,-1.707877159E0,3.758526087E0
2.714737171E1,-8.768797874E0,-1.712064624E0,3.767499208E0
2.718782270E1,-8.787940025E0,-1.692921996E0,3.769293785E0
2.722830306E1,-8.761020660E0,-1.682752490E0,3.758526087E0
2.726881640E1,-8.774181366E0,-1.700698733E0,3.750749588E0
2.730931525E1,-8.761020660E0,-1.711466432E0,3.765106440E0
2.734977384E1,-8.774181366E0,-1.707877159E0,3.765106440E0
2.739028817E1,-8.771788597E0,-1.690529227E0,3.757329702E0
2.743079780E1,-8.800502777E0,-1.686939955E0,3.747758389E0
2.747124765E1,-8.764610291E0,-1.701895118E0,3.752544165E0
2.751171874E1,-8.773583412E0,-1.698904037E0,3.762713671E0
2.755220983E1,-8.781359673E0,-1.694716692E0,3.763311863E0
2.759269660E1,-8.774181366E0,-1.698305845E0,3.767499208E0
2.763318827E1,-8.770592690E0,-1.695913076E0,3.761517286E0
2.767369379E1,-8.772985458E0,-1.713859200E0,3.766302824E0
2.771421765E1,-8.784351349E0,-1.706082582E0,3.763311863E0
2.775471666E1,-8.773583412E0,-1.698305845E0,3.751347780E0
2.779520254E1,-8.776574135E0,-1.697707653E0,3.750749588E0
2.783568041E1,-8.760422707E0,-1.701895118E0,3.769891977E0
2.787615312E1,-8.784351349E0,-1.713859200E0,3.765704632E0
2.791665108E1,-8.772386551E0,-1.710269928E0,3.769293785E0
2.795714838E1,-8.769993782E0,-1.692921996E0,3.783650875E0
2.799763817E1,-8.762815475E0,-1.684547186E0,3.765704632E0
2.803812801E1,-8.791529655E0,-1.697109461E0,3.748954773E0
2.807861780E1,-8.793922424E0,-1.693520188E0,3.714857101E0
2.811910114E1,-8.780761719E0,-1.699502230E0,3.717848301E0
2.815958848E1,-8.796315193E0,-1.689931035E0,3.753740549E0
2.820011426E1,-8.751449585E0,-1.674975872E0,3.792025566E0
2.824058942E1,-8.734700203E0,-1.671386600E0,3.821935892E0
2.828108254E1,-8.729315758E0,-1.710868239E0,3.831507206E0
2.832158312E1,-8.765806198E0,-1.731805444E0,3.811766386E0
2.836203082E1,-8.758029938E0,-1.733600020E0,3.796213150E0
2.840252322E1,-8.772985458E0,-1.707877159E0,3.769891977E0
2.844301306E1,-8.805886269E0,-1.706680775E0,3.753740549E0
2.848348577E1,-8.787342072E0,-1.697707653E0,3.748356581E0
2.852397504E1,-8.743673325E0,-1.707278967E0,3.766302824E0
2.856446442E1,-8.764610291E0,-1.698904037E0,3.777668715E0
2.860494312E1,-8.752646446E0,-1.701895118E0,3.805784464E0
2.864542577E1,-8.749056816E0,-1.689931035E0,3.812962770E0
2.868595832E1,-8.742476463E0,-1.703689694E0,3.805784464E0
2.872645525E1,-8.693722725E0,-1.736590981E0,3.799204111E0
2.876689890E1,-8.738887787E0,-1.716252089E0,3.794418573E0
2.880741598E1,-8.844171524E0,-1.718644857E0,3.782454491E0
2.884789384E1,-8.795118332E0,-1.750050664E0,3.753142357E0
2.888838499E1,-8.820841789E0,-1.746461391E0,3.696312666E0
2.892888400E1,-8.788538933E0,-1.712064624E0,3.733999729E0
2.896937338E1,-8.753244400E0,-1.661217093E0,3.780061483E0
2.900986332E1,-8.756235123E0,-1.662413478E0,3.783052683E0
2.905033051E1,-8.764012337E0,-1.693520188E0,3.788436413E0
2.909080916E1,-8.747860909E0,-1.736590981E0,3.814159393E0
2.913129890E1,-8.730512619E0,-1.759621978E0,3.842873096E0
2.917179963E1,-8.776574135E0,-1.734198213E0,3.790230989E0
2.921233098E1,-8.756834030E0,-1.725823283E0,3.759722471E0
2.925282838E1,-8.792127609E0,-1.701296926E0,3.742972851E0
2.929331952E1,-8.762217522E0,-1.701296926E0,3.760919094E0
2.933380744E1,-8.785547256E0,-1.700698733E0,3.790230989E0
2.937427853E1,-8.731110573E0,-1.707278967E0,3.795614958E0
2.941473332E1,-8.725727081E0,-1.727617979E0,3.829712629E0
2.945522239E1,-8.746664047E0,-1.724626899E0,3.806382656E0
2.949571160E1,-8.762217522E0,-1.701895118E0,3.765704632E0
2.953620525E1,-8.782556534E0,-1.691725612E0,3.770490170E0
2.957669379E1,-8.750851631E0,-1.695314884E0,3.783650875E0
2.961720036E1,-8.747860909E0,-1.717448473E0,3.778865099E0
2.965766452E1,-8.789734840E0,-1.726421595E0,3.773481369E0
2.969816739E1,-8.760422707E0,-1.723430514E0,3.765704632E0
2.973866036E1,-8.769395828E0,-1.705484390E0,3.777668715E0
2.977914957E1,-8.772985458E0,-1.707278967E0,3.775874138E0
2.981963879E1,-8.759824753E0,-1.694716692E0,3.790829182E0
2.986011483E1,-8.761619568E0,-1.710269928E0,3.785445452E0
2.990066338E1,-8.753244400E0,-1.736590981E0,3.804588079E0
2.994113676E1,-8.776574135E0,-1.741675735E0,3.783650875E0
2.998162687E1,-8.769993782E0,-1.720439434E0,3.780659676E0
3.002211707E1,-8.768199921E0,-1.685743570E0,3.768695593E0
3.006260723E1,-8.752047539E0,-1.698305845E0,3.762115479E0
3.010306062E1,-8.758029938E0,-1.708475351E0,3.769891977E0
3.014360874E1,-8.777172089E0,-1.702493310E0,3.765704632E0
3.018408687E1,-8.775976181E0,-1.699502230E0,3.763311863E0
3.022457713E1,-8.764012337E0,-1.694118381E0,3.781257868E0
3.026507119E1,-8.740083694E0,-1.695314884E0,3.796213150E0
3.030555843E1,-8.740083694E0,-1.715055585E0,3.791427374E0
3.034604655E1,-8.755637169E0,-1.722234130E0,3.777668715E0
3.038653650E1,-8.781958580E0,-1.720439434E0,3.775874138E0
3.042701395E1,-8.776574135E0,-1.711466432E0,3.779463291E0
3.046747858E1,-8.744869232E0,-1.712662816E0,3.793222189E0
3.050796806E1,-8.787342072E0,-1.713261008E0,3.780659676E0
3.054845713E1,-8.757431984E0,-1.722832322E0,3.784847260E0
3.058894817E1,-8.791529655E0,-1.719841242E0,3.792025566E0
3.062945473E1,-8.764610291E0,-1.721635938E0,3.777070522E0
3.066995020E1,-8.774779320E0,-1.704287887E0,3.786641836E0
3.071040926E1,-8.739485741E0,-1.710269928E0,3.781856298E0
3.075091124E1,-8.749654770E0,-1.711466432E0,3.778865099E0
3.079141098E1,-8.776574135E0,-1.723430514E0,3.777070522E0
3.083192437E1,-8.780163765E0,-1.707278967E0,3.775874138E0
3.087241452E1,-8.751449585E0,-1.710868239E0,3.775275946E0
3.091290421E1,-8.761619568E0,-1.706680775E0,3.783650875E0
3.095334218E1,-8.792725563E0,-1.724028707E0,3.762713671E0
3.099382265E1,-8.750851631E0,-1.709671736E0,3.769293785E0
3.103431733E1,-8.753244400E0,-1.725823283E0,3.777668715E0
3.107481301E1,-8.758029938E0,-1.714457393E0,3.794418573E0
3.111530213E1,-8.767601013E0,-1.694716692E0,3.811168194E0
3.115584155E1,-8.753842354E0,-1.700698733E0,3.770490170E0
3.119629744E1,-8.762217522E0,-1.715653777E0,3.770490170E0
3.123678338E1,-8.795717239E0,-1.721635938E0,3.749552965E0
3.127725582E1,-8.753842354E0,-1.712064624E0,3.762115479E0
3.131777291E1,-8.753842354E0,-1.699502230E0,3.783052683E0
3.135823358E1,-8.757431984E0,-1.716850281E0,3.788436413E0
3.139878244E1,-8.767003059E0,-1.741077542E0,3.790829182E0
3.143927155E1,-8.744271278E0,-1.718046665E0,3.789034605E0
3.147969723E1,-8.749056816E0,-1.697707653E0,3.785445452E0
3.152018645E1,-8.764012337E0,-1.697707653E0,3.770490170E0
3.156067572E1,-8.777770996E0,-1.711466432E0,3.771686792E0
3.160116494E1,-8.784351349E0,-1.727019787E0,3.772883177E0
3.164165421E1,-8.754440308E0,-1.727019787E0,3.772284985E0
3.168221937E1,-8.753244400E0,-1.715653777E0,3.815953970E0
3.172269239E1,-8.764012337E0,-1.725225091E0,3.787240028E0
3.176318885E1,-8.759226799E0,-1.719841242E0,3.754936934E0
3.180367697E1,-8.803493500E0,-1.712064624E0,3.738187075E0
3.184416822E1,-8.766405106E0,-1.678565025E0,3.738187075E0
3.188465692E1,-8.778368950E0,-1.695913076E0,3.724428415E0
3.192514108E1,-8.792127609E0,-1.694716692E0,3.746562004E0
3.196562301E1,-8.777770996E0,-1.698305845E0,3.759722471E0
3.200611317E1,-8.773583412E0,-1.701296926E0,3.780061483E0
3.204660338E1,-8.743074417E0,-1.709073544E0,3.803989887E0
3.208709358E1,-8.764610291E0,-1.710868239E0,3.791427374E0
3.212758697E1,-8.778966904E0,-1.715055585E0,3.774677753E0
3.216808358E1,-8.786145210E0,-1.713261008E0,3.758526087E0
3.220852999E1,-8.767003059E0,-1.710868239E0,3.736990690E0
3.224902020E1,-8.786744118E0,-1.698305845E0,3.745365620E0
3.228954379E1,-8.774779320E0,-1.713261008E0,3.740580082E0
3.232998994E1,-8.789734840E0,-1.718644857E0,3.765106440E0
3.237047077E1,-8.759226799E0,-1.716252089E0,3.774677753E0
3.241101947E1,-8.750851631E0,-1.710868239E0,3.783650875E0
3.245150968E1,-8.767003059E0,-1.703689694E0,3.772284985E0
3.249200004E1,-8.787940025E0,-1.702493310E0,3.755535126E0
3.253243442E1,-8.765806198E0,-1.701296926E0,3.743571043E0
3.257291775E1,-8.753842354E0,-1.709073544E0,3.766302824E0
3.261342780E1,-8.805886269E0,-1.716252089E0,3.765704632E0
3.265390713E1,-8.765806198E0,-1.700100541E0,3.772883177E0
3.269443410E1,-8.780163765E0,-1.691725612E0,3.787240028E0
3.273494041E1,-8.753244400E0,-1.730010748E0,3.779463291E0
3.277542499E1,-8.773583412E0,-1.728216171E0,3.777070522E0
3.281590463E1,-8.759824753E0,-1.709671736E0,3.749552965E0
3.285638645E1,-8.771788597E0,-1.700698733E0,3.759124279E0
3.289682749E1,-8.782556534E0,-1.693520188E0,3.740580082E0
3.293735593E1,-8.778966904E0,-1.686939955E0,3.751945972E0
3.297786520E1,-8.761020660E0,-1.700100541E0,3.763311863E0
3.301835525E1,-8.778368950E0,-1.704287887E0,3.774677753E0
3.305883983E1,-8.767601013E0,-1.712064624E0,3.784847260E0
3.309931978E1,-8.771190643E0,-1.731805444E0,3.769293785E0
3.313981760E1,-8.774181366E0,-1.706680775E0,3.769891977E0
3.318031062E1,-8.753244400E0,-1.691725612E0,3.767499208E0
3.322078525E1,-8.772386551E0,-1.713859200E0,3.760320902E0
3.326127358E1,-8.781359673E0,-1.714457393E0,3.739383698E0
3.330178379E1,-8.770592690E0,-1.701296926E0,3.742972851E0
3.334227603E1,-8.787940025E0,-1.683948994E0,3.762713671E0
3.338276275E1,-8.773583412E0,-1.672582984E0,3.745963812E0
3.342325275E1,-8.775378227E0,-1.677368641E0,3.779463291E0
3.346374275E1,-8.749056816E0,-1.700698733E0,3.772883177E0
3.350423270E1,-8.764610291E0,-1.725823283E0,3.784847260E0
3.354470718E1,-8.781958580E0,-1.706082582E0,3.762713671E0
3.358516473E1,-8.775976181E0,-1.688136339E0,3.759722471E0
3.362565171E1,-8.782556534E0,-1.689931035E0,3.762115479E0
3.366614160E1,-8.780761719E0,-1.696511269E0,3.762115479E0
3.370665655E1,-8.772386551E0,-1.695913076E0,3.759722471E0
3.374713817E1,-8.772985458E0,-1.704287887E0,3.778266907E0
3.378763885E1,-8.756834030E0,-1.703689694E0,3.776472330E0
3.382812879E1,-8.755039215E0,-1.694716692E0,3.788436413E0
3.386861687E1,-8.767003059E0,-1.691127419E0,3.774079561E0
3.390914744E1,-8.768797874E0,-1.695314884E0,3.781257868E0
3.394963760E1,-8.796315193E0,-1.700698733E0,3.739981890E0
3.399006223E1,-8.786744118E0,-1.706680775E0,3.741776466E0
3.403055239E1,-8.756834030E0,-1.694118381E0,3.761517286E0
3.407104260E1,-8.784351349E0,-1.699502230E0,3.774677753E0
3.411153280E1,-8.774181366E0,-1.696511269E0,3.778266907E0
3.415201624E1,-8.748458862E0,-1.680359721E0,3.809971809E0
3.419255233E1,-8.761619568E0,-1.689332843E0,3.790829182E0
3.423305296E1,-8.780761719E0,-1.717448473E0,3.766302824E0
3.427354312E1,-8.778966904E0,-1.701895118E0,3.737588882E0
3.431403567E1,-8.752646446E0,-1.684547186E0,3.753740549E0
3.435452093E1,-8.780163765E0,-1.686939955E0,3.760919094E0
3.439499921E1,-8.775378227E0,-1.704287887E0,3.774079561E0
3.443546588E1,-8.787342072E0,-1.708475351E0,3.782454491E0
3.447594296E1,-8.768797874E0,-1.712064624E0,3.767499208E0
3.451643181E1,-8.759226799E0,-1.703689694E0,3.763311863E0
3.455691989E1,-8.775976181E0,-1.699502230E0,3.762713671E0
3.459744421E1,-8.772386551E0,-1.689332843E0,3.759124279E0
3.463793202E1,-8.785547256E0,-1.687538147E0,3.755535126E0
3.467841155E1,-8.770592690E0,-1.703091502E0,3.758526087E0
3.471891010E1,-8.782556534E0,-1.700698733E0,3.765704632E0
3.475941806E1,-8.754440308E0,-1.701895118E0,3.790829182E0
3.479990765E1,-8.784351349E0,-1.691725612E0,3.768695593E0
3.484040364E1,-8.758029938E0,-1.694118381E0,3.756133318E0
3.488089353E1,-8.786145210E0,-1.700698733E0,3.766302824E0
3.492138025E1,-8.769993782E0,-1.726421595E0,3.767499208E0
3.496185114E1,-8.777172089E0,-1.698305845E0,3.761517286E0
3.500230494E1,-8.777172089E0,-1.692323804E0,3.751347780E0
3.504279463E1,-8.786145210E0,-1.692323804E0,3.767499208E0
3.508328254E1,-8.759226799E0,-1.700698733E0,3.765106440E0
3.512377530E1,-8.768797874E0,-1.695913076E0,3.772883177E0
3.516428056E1,-8.771788597E0,-1.698904037E0,3.759124279E0
3.520477963E1,-8.784351349E0,-1.696511269E0,3.793222189E0
3.524529338E1,-8.773583412E0,-1.698305845E0,3.760320902E0
3.528578426E1,-8.756834030E0,-1.705484390E0,3.763910055E0
3.532625051E1,-8.780163765E0,-1.708475351E0,3.755535126E0
3.536675593E1,-8.781958580E0,-1.705484390E0,3.756731510E0
3.540723582E1,-8.769993782E0,-1.695314884E0,3.772883177E0
3.544772510E1,-8.774181366E0,-1.702493310E0,3.772883177E0
3.548821608E1,-8.752646446E0,-1.702493310E0,3.772883177E0
3.552868588E1,-8.786145210E0,-1.703091502E0,3.762115479E0
3.556918645E1,-8.763413429E0,-1.697707653E0,3.765106440E0
3.560966848E1,-8.776574135E0,-1.696511269E0,3.776472330E0
3.565019160E1,-8.762815475E0,-1.701895118E0,3.774677753E0
3.569064468E1,-8.775976181E0,-1.706082582E0,3.766901016E0
3.573113864E1,-8.778368950E0,-1.698904037E0,3.754338741E0
3.577165994E1,-8.780761719E0,-1.690529227E0,3.754338741E0
3.581214957E1,-8.768797874E0,-1.685145378E0,3.765704632E0
3.585264062E1,-8.770592690E0,-1.685145378E0,3.780659676E0
3.589313093E1,-8.769993782E0,-1.691127419E0,3.763311863E0
3.593361187E1,-8.771190643E0,-1.707877159E0,3.766901016E0
3.597409739E1,-8.766405106E0,-1.710269928E0,3.775275946E0
3.601458744E1,-8.764012337E0,-1.710269928E0,3.771686792E0
3.605507749E1,-8.787940025E0,-1.706082582E0,3.768097401E0
3.609556749E1,-8.779565811E0,-1.696511269E0,3.763311863E0
3.613604275E1,-8.762217522E0,-1.690529227E0,3.758526087E0
3.617651546E1,-8.764012337E0,-1.706680775E0,3.757927895E0
3.621699103E1,-8.775378227E0,-1.703689694E0,3.775275946E0
3.625748843E1,-8.780761719E0,-1.698305845E0,3.761517286E0
3.629797660E1,-8.765806198E0,-1.696511269E0,3.773481369E0
3.633847676E1,-8.779565811E0,-1.696511269E0,3.775275946E0
3.637896233E1,-8.761619568E0,-1.708475351E0,3.781257868E0
3.641944332E1,-8.765806198E0,-1.706082582E0,3.769293785E0
3.645993270E1,-8.780163765E0,-1.700100541E0,3.748954773E0
3.650041942E1,-8.783752441E0,-1.685743570E0,3.748356581E0
3.654094598E1,-8.787342072E0,-1.692323804E0,3.745963812E0
3.658142671E1,-8.771788597E0,-1.692921996E0,3.765704632E0
3.662191593E1,-8.761619568E0,-1.694716692E0,3.774079561E0
3.666240520E1,-8.764610291E0,-1.702493310E0,3.793222189E0
3.670285067E1,-8.761020660E0,-1.718644857E0,3.792623997E0
3.674338963E1,-8.772386551E0,-1.709073544E0,3.768097401E0
3.678390931E1,-8.771190643E0,-1.695314884E0,3.759722471E0
3.682434864E1,-8.772386551E0,-1.700100541E0,3.754338741E0
3.686483786E1,-8.780163765E0,-1.704287887E0,3.766901016E0
3.690531786E1,-8.759226799E0,-1.712662816E0,3.776472330E0
3.694581426E1,-8.756235123E0,-1.713261008E0,3.781856298E0
3.698630348E1,-8.772985458E0,-1.710868239E0,3.766901016E0
3.702679270E1,-8.765806198E0,-1.707877159E0,3.771686792E0
3.706729822E1,-8.761619568E0,-1.713859200E0,3.778266907E0
3.710777603E1,-8.752646446E0,-1.727617979E0,3.773481369E0
3.714828858E1,-8.771788597E0,-1.721037745E0,3.771088600E0
3.718880254E1,-8.758627892E0,-1.711466432E0,3.766302824E0
3.722926957E1,-8.777172089E0,-1.711466432E0,3.776472330E0
3.726977103E1,-8.753244400E0,-1.715055585E0,3.781257868E0
3.731027306E1,-8.787940025E0,-1.718046665E0,3.767499208E0
3.735076244E1,-8.769993782E0,-1.703091502E0,3.768097401E0
3.739125181E1,-8.785547256E0,-1.702493310E0,3.762713671E0
3.743174119E1,-8.762815475E0,-1.707278967E0,3.762115479E0
3.747221155E1,-8.778368950E0,-1.710868239E0,3.771686792E0
3.751267822E1,-8.766405106E0,-1.718046665E0,3.772284985E0
3.755315275E1,-8.765208244E0,-1.708475351E0,3.765704632E0
3.759363562E1,-8.776574135E0,-1.703091502E0,3.764508247E0
3.763414588E1,-8.762815475E0,-1.712064624E0,3.767499208E0
3.767464030E1,-8.783154488E0,-1.700100541E0,3.765106440E0
3.771513119E1,-8.764012337E0,-1.702493310E0,3.767499208E0
3.775562093E1,-8.773583412E0,-1.704886079E0,3.783052683E0
3.779613072E1,-8.759226799E0,-1.721037745E0,3.778865099E0
3.783655884E1,-8.776574135E0,-1.713261008E0,3.765704632E0
3.787704801E1,-8.766405106E0,-1.707877159E0,3.762115479E0
3.791756827E1,-8.778368950E0,-1.695913076E0,3.765106440E0
3.795811963E1,-8.776574135E0,-1.695314884E0,3.761517286E0
3.799856562E1,-8.764610291E0,-1.700100541E0,3.763910055E0
3.803906077E1,-8.769993782E0,-1.711466432E0,3.769891977E0
3.807952760E1,-8.780163765E0,-1.709073544E0,3.779463291E0
3.811999911E1,-8.776574135E0,-1.710868239E0,3.758526087E0
3.816052572E1,-8.762217522E0,-1.709671736E0,3.770490170E0
3.820101353E1,-8.775976181E0,-1.719841242E0,3.772883177E0
3.824150421E1,-8.770592690E0,-1.704287887E0,3.771088600E0
3.828199390E1,-8.777770996E0,-1.705484390E0,3.766901016E0
3.832244416E1,-8.762217522E0,-1.713859200E0,3.759124279E0
3.836296155E1,-8.763413429E0,-1.715653777E0,3.771686792E0
3.840343030E1,-8.782556534E0,-1.706680775E0,3.774079561E0
3.844393103E1,-8.767003059E0,-1.704287887E0,3.755535126E0
3.848442046E1,-8.761020660E0,-1.708475351E0,3.774677753E0
3.852490999E1,-8.766405106E0,-1.722234130E0,3.777668715E0
3.856539155E1,-8.764012337E0,-1.722234130E0,3.760919094E0
3.860589020E1,-8.771788597E0,-1.694716692E0,3.759722471E0
3.864642947E1,-8.767601013E0,-1.697707653E0,3.759124279E0
3.868693952E1,-8.779565811E0,-1.694118381E0,3.765704632E0
3.872740218E1,-8.768797874E0,-1.698305845E0,3.775275946E0
3.876786577E1,-8.767601013E0,-1.709671736E0,3.763311863E0
3.880834869E1,-8.766405106E0,-1.704287887E0,3.775275946E0
3.884883384E1,-8.765208244E0,-1.706082582E0,3.777668715E0
3.888931812E1,-8.790332794E0,-1.716850281E0,3.762713671E0
3.892981692E1,-8.768199921E0,-1.702493310E0,3.753740549E0
3.897031640E1,-8.762815475E0,-1.696511269E0,3.768097401E0
3.901080124E1,-8.787342072E0,-1.706082582E0,3.768695593E0
3.905128817E1,-8.778368950E0,-1.699502230E0,3.780061483E0
3.909178239E1,-8.764012337E0,-1.709671736E0,3.767499208E0
3.913229077E1,-8.762217522E0,-1.713261008E0,3.769891977E0
3.917277510E1,-8.779565811E0,-1.716850281E0,3.777070522E0
3.921324817E1,-8.771190643E0,-1.711466432E0,3.764508247E0
3.925373358E1,-8.776574135E0,-1.700698733E0,3.773481369E0
3.929419801E1,-8.759226799E0,-1.709073544E0,3.780061483E0
3.933468286E1,-8.764610291E0,-1.711466432E0,3.787838221E0
3.937517207E1,-8.770592690E0,-1.711466432E0,3.755535126E0
3.941566135E1,-8.768797874E0,-1.684547186E0,3.755535126E0
3.945619041E1,-8.762815475E0,-1.698904037E0,3.746562004E0
3.949667963E1,-8.768797874E0,-1.712064624E0,3.776472330E0
3.953710207E1,-8.771190643E0,-1.707877159E0,3.762713671E0
3.957772947E1,-8.749056816E0,-1.707877159E0,3.786641836E0
3.961814041E1,-8.792127609E0,-1.730608940E0,3.778266907E0
3.965863244E1,-8.785547256E0,-1.734796405E0,3.775275946E0
3.969913869E1,-8.756235123E0,-1.721037745E0,3.763311863E0
3.973961160E1,-8.761619568E0,-1.697109461E0,3.770490170E0
3.978011301E1,-8.780761719E0,-1.721037745E0,3.756133318E0
3.982060265E1,-8.780163765E0,-1.716252089E0,3.767499208E0
3.986109233E1,-8.750851631E0,-1.716252089E0,3.779463291E0
3.990158192E1,-8.773583412E0,-1.735992789E0,3.769293785E0
3.994204827E1,-8.769395828E0,-1.727617979E0,3.777668715E0
3.998253791E1,-8.774181366E0,-1.721635938E0,3.774677753E0
4.002302754E1,-8.769993782E0,-1.719243050E0,3.771088600E0
4.006351567E1,-8.766405106E0,-1.715653777E0,3.759124279E0
4.010401015E1,-8.751449585E0,-1.731207132E0,3.780061483E0
4.014452770E1,-8.767003059E0,-1.729412556E0,3.754936934E0
4.018501134E1,-8.759226799E0,-1.703091502E0,3.760320902E0
4.022548687E1,-8.778368950E0,-1.721037745E0,3.769891977E0
4.026599291E1,-8.758029938E0,-1.705484390E0,3.782454491E0
4.030647671E1,-8.765806198E0,-1.728216171E0,3.763910055E0
4.034693317E1,-8.768797874E0,-1.716252089E0,3.769293785E0
4.038741994E1,-8.762217522E0,-1.716850281E0,3.771088600E0
4.042793082E1,-8.780761719E0,-1.731207132E0,3.777668715E0
4.046845046E1,-8.760422707E0,-1.719841242E0,3.769293785E0
4.050892218E1,-8.768199921E0,-1.716850281E0,3.779463291E0
4.054939108E1,-8.760422707E0,-1.716850281E0,3.773481369E0
4.058989541E1,-8.761619568E0,-1.719841242E0,3.766302824E0
4.063036874E1,-8.774779320E0,-1.703689694E0,3.772284985E0
4.067086801E1,-8.778966904E0,-1.725823283E0,3.763910055E0
4.071139062E1,-8.793922424E0,-1.750648856E0,3.767499208E0
4.075187082E1,-8.769395828E0,-1.709073544E0,3.778266907E0
4.079232947E1,-8.806484222E0,-1.716850281E0,3.695116282E0
4.083281036E1,-8.832207680E0,-1.671386600E0,3.648456335E0
4.087329775E1,-8.658429146E0,-1.666002750E0,3.731606960E0
4.091378697E1,-8.720342636E0,-1.768594980E0,3.828516245E0
4.095429306E1,-8.789734840E0,-1.758425593E0,3.802195072E0
4.099478228E1,-8.783752441E0,-1.751247048E0,3.796213150E0
4.103527155E1,-8.796913147E0,-1.756032705E0,3.780061483E0
4.107573265E1,-8.768797874E0,-1.647458434E0,3.851846218E0
4.111630525E1,-8.793922424E0,-1.657029629E0,3.753142357E0
4.115678676E1,-8.754440308E0,-1.543370605E0,3.661616802E0
4.119725681E1,-8.815457344E0,-1.666600943E0,3.641875982E0
4.123773306E1,-8.769993782E0,-1.893620014E0,3.707080364E0
4.127823921E1,-8.804690361E0,-1.869691849E0,3.781257868E0
4.131871681E1,-8.824430466E0,-1.754238129E0,3.735196114E0
4.135919770E1,-8.762217522E0,-1.629512191E0,3.813561201E0
4.139969629E1,-8.751449585E0,-1.567298889E0,3.822534084E0
4.144018588E1,-8.759226799E0,-1.693520188E0,3.798605919E0
4.148067603E1,-8.673383713E0,-1.719841242E0,3.748356581E0
4.152116312E1,-8.814261436E0,-1.676172256E0,3.747160196E0
4.156169197E1,-8.807083130E0,-1.713261008E0,3.681357622E0
4.160218884E1,-8.831010818E0,-1.727617979E0,3.678366661E0
4.164264478E1,-8.850751877E0,-1.794916034E0,3.772284985E0
4.168312244E1,-8.768199921E0,-1.787737608E0,3.829712629E0
4.172365134E1,-8.665607452E0,-1.570888042E0,3.790829182E0
4.176412515E1,-8.741878510E0,-1.594218135E0,3.770490170E0
4.180459697E1,-8.722137451E0,-1.685145378E0,3.775275946E0
4.184508619E1,-8.881858826E0,-1.787139416E0,3.678366661E0
4.188557536E1,-8.884849548E0,-1.867897153E0,3.672384501E0
4.192606093E1,-8.765208244E0,-1.701895118E0,3.770490170E0
4.196654286E1,-8.727521896E0,-1.490728498E0,3.729214191E0
4.200703515E1,-8.717351913E0,-1.628913999E0,3.735196114E0
4.204753036E1,-8.759226799E0,-1.769193292E0,3.802195072E0
4.208802614E1,-8.810073853E0,-1.887039781E0,3.750749588E0
4.212850187E1,-8.858528137E0,-1.836192250E0,3.734597921E0
4.216897812E1,-8.750253677E0,-1.615155339E0,3.726222992E0
4.220948608E1,-8.681758881E0,-1.461117268E0,3.757927895E0
4.224997478E1,-8.747262001E0,-1.651645780E0,3.728615999E0
4.229049864E1,-8.807681084E0,-1.843370795E0,3.725624800E0
4.233098832E1,-8.868698120E0,-1.951047778E0,3.736990690E0
4.237147801E1,-8.814859390E0,-1.823629975E0,3.742374659E0
4.241196775E1,-8.703593254E0,-1.560718536E0,3.752544165E0
4.245245744E1,-8.742476463E0,-1.534397483E0,3.713062525E0
4.249294713E1,-8.763413429E0,-1.718644857E0,3.707678795E0
4.253337890E1,-8.851349831E0,-1.865504384E0,3.708875179E0
4.257386312E1,-8.848957062E0,-1.861915112E0,3.712464333E0
4.261441588E1,-8.781958580E0,-1.687538147E0,3.758526087E0
4.265485504E1,-8.692526817E0,-1.515254974E0,3.771088600E0
4.269534280E1,-8.725129128E0,-1.674975872E0,3.769293785E0
4.273583760E1,-8.802895546E0,-1.830808401E0,3.736990690E0
4.277640322E1,-8.864510536E0,-1.896012783E0,3.723830223E0
4.281684525E1,-8.769395828E0,-1.769193292E0,3.745963812E0
4.285731072E1,-8.696713448E0,-1.491924882E0,3.769293785E0
4.289783140E1,-8.747860909E0,-1.587039590E0,3.747160196E0
4.293833728E1,-8.777172089E0,-1.775175333E0,3.700500250E0
4.297878457E1,-8.874081612E0,-1.906182289E0,3.682554007E0
4.301926713E1,-8.842975616E0,-1.878066659E0,3.741178274E0
4.305977384E1,-8.728717804E0,-1.666600943E0,3.793820381E0
4.310024900E1,-8.689535141E0,-1.497906923E0,3.764508247E0
4.314077905E1,-8.736495018E0,-1.649253011E0,3.750749588E0
4.318124681E1,-8.790931702E0,-1.811067581E0,3.690928936E0
4.322172062E1,-8.880064011E0,-1.854138494E0,3.742972851E0
4.326221770E1,-8.816654205E0,-1.757827282E0,3.681357622E0
4.330270577E1,-8.787940025E0,-1.660618901E0,3.740580082E0
4.334318046E1,-8.684151649E0,-1.562513232E0,3.786641836E0
4.338366015E1,-8.767601013E0,-1.649253011E0,3.793820381E0
4.342416322E1,-8.749056816E0,-1.797308922E0,3.716651678E0
4.346465067E1,-8.869894028E0,-1.869093537E0,3.723232031E0
4.350513848E1,-8.801698685E0,-1.811067581E0,3.707080364E0
4.354563067E1,-8.800502777E0,-1.676770449E0,3.766302824E0
4.358613410E1,-8.690732002E0,-1.536192179E0,3.781257868E0
4.362667473E1,-8.738887787E0,-1.665404558E0,3.780659676E0
4.366718202E1,-8.790332794E0,-1.820040703E0,3.711866140E0
4.370762369E1,-8.856135368E0,-1.857727647E0,3.729812384E0
4.374809874E1,-8.793922424E0,-1.759621978E0,3.711866140E0
4.378858624E1,-8.800502777E0,-1.636690736E0,3.737588882E0
4.382910582E1,-8.661419868E0,-1.560120344E0,3.765106440E0
4.386959478E1,-8.778966904E0,-1.677368641E0,3.790829182E0
4.391004301E1,-8.766405106E0,-1.819442511E0,3.713062525E0
4.395052608E1,-8.851948738E0,-1.837986946E0,3.741776466E0
4.399102280E1,-8.758627892E0,-1.727617979E0,3.739383698E0
4.403150890E1,-8.801698685E0,-1.653440475E0,3.734597921E0
4.407198733E1,-8.756834030E0,-1.652842283E0,3.735794306E0
4.411257020E1,-8.750851631E0,-1.734796405E0,3.758526087E0
4.415302119E1,-8.776574135E0,-1.744666815E0,3.742972851E0
4.419347072E1,-8.787342072E0,-1.728216171E0,3.748356581E0
4.423397640E1,-8.794520378E0,-1.693520188E0,3.749552965E0
4.427445968E1,-8.778966904E0,-1.712064624E0,3.722633839E0
4.431494905E1,-8.793324471E0,-1.726421595E0,3.753142357E0
4.435543843E1,-8.746066093E0,-1.748256087E0,3.731606960E0
4.439592838E1,-8.807083130E0,-1.713859200E0,3.755535126E0
4.443641822E1,-8.768797874E0,-1.719841242E0,3.750151396E0
4.447690786E1,-8.754440308E0,-1.729412556E0,3.748356581E0
4.451738067E1,-8.759824753E0,-1.725225091E0,3.750749588E0
4.455786270E1,-8.780163765E0,-1.732403636E0,3.759124279E0
4.459836004E1,-8.778966904E0,-1.724626899E0,3.755535126E0
4.463885733E1,-8.771788597E0,-1.738385677E0,3.750151396E0
4.467935025E1,-8.769993782E0,-1.731207132E0,3.759124279E0
4.471985317E1,-8.772386551E0,-1.748256087E0,3.750151396E0
4.476033098E1,-8.769993782E0,-1.742274046E0,3.764508247E0
4.480084077E1,-8.750851631E0,-1.735992789E0,3.763311863E0
4.484133067E1,-8.753842354E0,-1.735394597E0,3.768097401E0
4.488182056E1,-8.778368950E0,-1.742872238E0,3.765704632E0
4.492231385E1,-8.758029938E0,-1.733600020E0,3.762115479E0
4.496281046E1,-8.771190643E0,-1.722234130E0,3.765704632E0
4.500328931E1,-8.752646446E0,-1.739881158E0,3.767499208E0
4.504375713E1,-8.767601013E0,-1.739881158E0,3.751945972E0
4.508425796E1,-8.772985458E0,-1.729412556E0,3.753740549E0
4.512472338E1,-8.784949303E0,-1.731207132E0,3.755535126E0
4.516527843E1,-8.758627892E0,-1.726421595E0,3.756133318E0
4.520571239E1,-8.773583412E0,-1.728814363E0,3.772883177E0
4.524624614E1,-8.776574135E0,-1.745265007E0,3.764508247E0
4.528677135E1,-8.773583412E0,-1.730010748E0,3.762713671E0
4.532726119E1,-8.772985458E0,-1.731207132E0,3.749552965E0
4.536768431E1,-8.768199921E0,-1.731207132E0,3.751945972E0
4.540819676E1,-8.775976181E0,-1.721037745E0,3.749552965E0
4.544868749E1,-8.760422707E0,-1.738983870E0,3.764508247E0
4.548916702E1,-8.783752441E0,-1.734198213E0,3.765704632E0
4.552962291E1,-8.768199921E0,-1.736590981E0,3.755535126E0
4.557013827E1,-8.768797874E0,-1.723430514E0,3.766302824E0
4.561067301E1,-8.747262001E0,-1.738385677E0,3.755535126E0
4.565111869E1,-8.769993782E0,-1.744068623E0,3.766302824E0
4.569165056E1,-8.768199921E0,-1.739881158E0,3.742972851E0
4.573212739E1,-8.776574135E0,-1.730608940E0,3.752544165E0
4.577262187E1,-8.757431984E0,-1.728814363E0,3.756133318E0
4.581308280E1,-8.750253677E0,-1.721635938E0,3.770490170E0
4.585355806E1,-8.768199921E0,-1.716252089E0,3.768097401E0
4.589404775E1,-8.832805634E0,-1.732403636E0,3.767499208E0
4.593456286E1,-8.738288879E0,-1.808674812E0,3.777070522E0
4.597506525E1,-8.758029938E0,-1.730608940E0,3.786641836E0
4.601555546E1,-8.853144646E0,-1.676172256E0,3.665206194E0
4.605602525E1,-8.719146729E0,-1.600200176E0,3.780061483E0
4.609648119E1,-8.749056816E0,-1.761416554E0,3.769293785E0
4.613699025E1,-8.729914665E0,-1.817647934E0,3.754338741E0
4.617748900E1,-8.807681084E0,-1.846361756E0,3.689134359E0
4.621797556E1,-8.819046974E0,-1.811665893E0,3.672982693E0
4.625846463E1,-8.872286797E0,-1.810469389E0,3.629313707E0
4.629895301E1,-8.690732002E0,-1.622333765E0,3.751347780E0
4.633943952E1,-8.751449585E0,-1.627717614E0,3.738187075E0
4.637991129E1,-8.759226799E0,-1.692323804E0,3.752544165E0
4.642041801E1,-8.825029373E0,-1.829612017E0,3.740580082E0
4.646090754E1,-8.808876991E0,-1.892423630E0,3.739383698E0
4.650139655E1,-8.601000786E0,-1.701296926E0,3.890430450E0
4.654186983E1,-8.666803360E0,-1.634896040E0,3.892823458E0
4.658237426E1,-8.900403023E0,-1.760818362E0,3.689134359E0
4.662287452E1,-9.047262192E0,-1.822433591E0,3.250051260E0
4.666335416E1,-8.947062492E0,-1.718046665E0,3.090330362E0
4.670389181E1,-9.256933212E0,-9.317052960E-1,3.596711636E0
4.674437728E1,-8.690732002E0,5.096712112E-1,3.981357813E0
4.678485176E1,-7.315157890E0,5.312066078E-1,5.340181828E0
4.682529765E1,-8.406285286E0,-9.161519408E-1,5.114359379E0
4.686579822E1,-9.449555397E0,-1.965404749E0,2.336292267E0
4.690628754E1,-1.180678558E1,-3.843471408E-1,1.852343798E0
4.694680671E1,-9.463912964E0,-2.367997169E0,1.753639936E0
4.698726072E1,-8.737690926E0,-3.095116138E0,2.096112728E0
4.702776030E1,-8.352446556E0,-4.268197536E0,1.724626899E0
4.706827353E1,-9.403493881E0,-5.552245617E0,8.012964725E-1
4.710877827E1,-9.440582275E0,-3.269792080E0,9.876375198E-1
4.714924244E1,-1.010548782E1,-3.304488182E0,1.939681888E0
4.718971858E1,-9.720842361E0,-2.643470764E0,2.799602509E0
4.723021254E1,-8.877671242E0,-1.758425593E0,3.672982693E0
4.727072077E1,-8.554341316E0,-4.612165689E-1,4.816751957E0
4.731121869E1,-8.855537415E0,1.755733639E-1,4.440779686E0
4.735167306E1,-9.081359863E0,3.939184248E-1,3.647858143E0
4.739214510E1,-8.873483658E0,1.089332461E0,4.108775616E0
4.743264603E1,-8.540582657E0,6.924230456E-1,3.656831264E0
4.747314140E1,-8.141578674E0,1.019940615E0,3.547060490E0
4.751362546E1,-7.995018482E0,9.960124493E-1,3.496811152E0
4.755411869E1,-8.346464157E0,5.264210105E-1,3.135195971E0
4.759463593E1,-8.811868668E0,4.552344978E-1,3.318845034E0
4.763516124E1,-9.597611427E0,2.371885478E-1,2.302194595E0
4.767564556E1,-9.577870369E0,1.238285750E-1,2.440380096E0
4.771611312E1,-9.453742981E0,-1.683948934E-1,3.151347399E0
4.775661499E1,-8.666803360E0,-1.050449133E0,3.913760424E0
4.779707874E1,-7.574480057E0,-5.335994363E-1,4.025625229E0
4.783756671E1,-9.165707588E0,-5.072783828E-1,4.255635262E0
4.787807921E1,-9.183054924E0,-1.083350420E0,4.281956196E0
4.791856405E1,-7.875676632E0,-1.481157184E0,4.192823410E0
4.795906619E1,-7.866105556E0,-1.170688510E0,3.566203117E0
4.799951780E1,-9.260522842E0,1.250249892E-1,4.523930073E0
4.804002265E1,-1.027777100E1,8.772686124E-1,3.532105207E0
4.808050520E1,-9.141778946E0,-6.358926296E-1,3.651447296E0
4.812100187E1,-8.620741844E0,2.198405862E-1,3.039183855E0
4.816151452E1,-9.193822861E0,2.659024298E-1,3.119044304E0
4.820196910E1,-8.365009308E0,6.550351977E-1,3.404687405E0
4.824252364E1,-9.693922997E0,6.924230456E-1,3.792623997E0
4.828296942E1,-1.200688457E1,-9.334999323E-1,3.402892828E0
4.832345921E1,-9.846165657E0,-1.383350611E0,2.591426849E0
4.836394905E1,-8.635697365E0,-1.516451359E0,2.138585299E-1
4.840440166E1,-1.043180943E1,-1.652244091E0,1.691127419E0
4.844487885E1,-1.024008465E1,-3.053540707E0,1.049850941E0
4.848536864E1,-7.496713161E0,-3.350250721E0,1.456331730E0
4.852585848E1,-7.920841217E0,-4.794020176E0,5.958128572E-1
4.856637770E1,-9.481859207E0,-3.825525284E0,3.107678294E-1
4.860687786E1,-1.007438183E1,-2.985943556E0,1.563709617E0
4.864736952E1,-1.077428246E1,-3.082553864E0,2.087139606E0
4.868785228E1,-9.754940033E0,-1.120439172E0,2.859722137E0
4.872832244E1,-7.955537319E0,2.958126962E-1,3.393919706E0
4.876882483E1,-8.366803169E0,3.394817114E-1,3.602095366E0
4.880930645E1,-8.551948547E0,5.180460811E-1,4.188635826E0
4.884978713E1,-9.062217712E0,9.792626500E-1,3.231507063E0
4.889027666E1,-9.208778381E0,3.592225015E-1,3.737588882E0
4.893081510E1,-8.365607262E0,-3.394817114E-1,2.830410004E0
4.897132905E1,-8.612366676E0,-1.039083242E0,3.362813234E0
4.901181853E1,-9.249156952E0,-1.257129192E0,3.548256874E0
4.905228062E1,-9.218349457E0,-1.252941728E0,3.728017569E0
4.909274207E1,-9.143573761E0,-1.246361494E0,2.999702215E0
4.913327562E1,-9.335298538E0,-1.106680512E0,3.674179077E0
4.917373666E1,-9.645467758E0,-1.204487085E0,3.332603693E0
4.921421233E1,-8.408678055E0,-7.055835724E-1,3.655036688E0
4.925472202E1,-8.484351158E0,-8.270193338E-1,4.110570431E0
4.929523468E1,-9.163912773E0,-1.532004714E0,3.545864105E0
4.933572395E1,-9.142376900E0,-1.748256087E0,3.711866140E0
4.937616192E1,-8.810671806E0,-1.625923038E0,3.521337509E0
4.941665108E1,-8.654241562E0,-1.191027522E0,3.723232031E0
4.945714036E1,-8.862117767E0,-1.116251707E0,4.031008720E0
4.949764640E1,-8.938688278E0,-1.117448211E0,3.618546009E0
4.953813562E1,-8.768797874E0,-1.059422255E0,3.597309828E0
4.957865077E1,-8.884251595E0,-9.918249846E-1,3.662813187E0
4.961909713E1,-8.946464539E0,-1.301396370E0,3.740580082E0
4.965959921E1,-8.822636604E0,-1.299601793E0,3.923331738E0
4.970008853E1,-8.765208244E0,-1.161715388E0,4.057330132E0
4.974054791E1,-8.680562019E0,-1.058225870E0,3.848257065E0
4.978107713E1,-8.698807716E0,-1.138983607E0,3.644867182E0
4.982156650E1,-9.168698311E0,-1.047458172E0,4.063312054E0
4.986205593E1,-9.020941734E0,-8.880363107E-1,3.193820000E0
4.990254530E1,-8.676973343E0,-1.143171072E0,3.897608995E0
4.994300905E1,-9.050851822E0,-1.327119231E0,3.972384691E0
4.998350707E1,-8.670392990E0,-8.569296002E-1,3.762115479E0
5.002399640E1,-8.690732002E0,-7.372884750E-1,3.797409534E0
5.006448072E1,-9.013762474E0,-9.954141974E-1,4.096811295E0
5.010498093E1,-8.716753960E0,-1.173679471E0,4.375276089E0
5.014549869E1,-8.333304405E0,-1.247557878E0,4.422833443E0
5.018600176E1,-8.523234367E0,-1.132403374E0,4.144668102E0
5.022650676E1,-8.787342072E0,-1.246361494E0,3.948456526E0
5.026698723E1,-8.645866394E0,-1.296610713E0,4.120739460E0
5.030745197E1,-8.592626572E0,-1.033101201E0,4.053142548E0
5.034790655E1,-8.608778000E0,-1.089930773E0,4.044169426E0
5.038840931E1,-9.056235313E0,-1.287039518E0,3.981956005E0
5.042892666E1,-9.038289070E0,-1.361815214E0,3.865006685E0
5.046940744E1,-8.272287369E0,-9.137591720E-1,4.165904045E0
5.050988978E1,-8.714361191E0,-1.241575837E0,4.110570431E0
5.055036582E1,-8.746066093E0,-1.388734460E0,4.002892971E0
5.059085510E1,-8.286643982E0,-1.297807217E0,4.658526421E0
5.063136546E1,-9.274281502E0,-1.276870012E0,3.678366661E0
5.067187884E1,-9.187840462E0,-1.711466432E0,3.888635874E0
5.071235494E1,-8.595019341E0,-1.453938842E0,3.885644913E0
5.075284780E1,-8.813663483E0,-1.401894927E0,4.061517239E0
5.079331733E1,-8.548956871E0,-1.387538075E0,4.314857483E0
5.083377655E1,-8.629714966E0,-1.337886930E0,4.121936321E0
5.087429608E1,-8.756834030E0,-1.398903966E0,4.099204063E0
5.091478593E1,-8.582456589E0,-1.533799291E0,4.165306091E0
5.095525562E1,-8.563314438E0,-1.416251898E0,4.281956196E0
5.099573681E1,-8.593822479E0,-1.546959877E0,4.323830605E0
5.103619343E1,-8.613563538E0,-1.446760416E0,4.077070713E0
5.107671733E1,-8.906385422E0,-1.224826097E0,3.956831455E0
5.111725187E1,-8.697610855E0,-1.444367528E0,3.952045679E0
5.115775885E1,-8.660821915E0,-1.351047516E0,4.013660908E0
5.119822046E1,-8.652446747E0,-1.348056436E0,4.165904045E0
5.123875223E1,-8.694320679E0,-1.409671664E0,4.130908966E0
5.127923249E1,-8.687741280E0,-1.418644667E0,4.114159584E0
5.131972270E1,-8.633902550E0,-1.410269856E0,4.156332970E0
5.136021286E1,-8.623134613E0,-1.337886930E0,4.167100430E0
5.140070306E1,-8.574081421E0,-1.339083314E0,4.151547432E0
5.144119327E1,-8.722735405E0,-1.439581871E0,4.206582069E0
5.148168343E1,-8.816654205E0,-1.463510156E0,4.084847450E0
5.152217364E1,-8.520841599E0,-1.388734460E0,4.123132706E0
5.156261890E1,-8.668598175E0,-1.423430324E0,4.240679741E0
5.160313718E1,-8.522037506E0,-1.346261859E0,4.232305050E0
5.164362129E1,-8.544171333E0,-1.370788217E0,4.242474556E0
5.168409666E1,-8.684749603E0,-1.407278776E0,4.215555191E0
5.172460858E1,-8.489136696E0,-1.422233939E0,4.278367043E0
5.176509004E1,-8.729914665E0,-1.397109270E0,4.135694981E0
5.180555760E1,-8.854341507E0,-1.296610713E0,3.962215185E0
5.184602499E1,-8.686544418E0,-1.336690545E0,3.903591156E0
5.188652077E1,-8.834600449E0,-1.444965720E0,4.009473324E0
5.192701671E1,-8.862715721E0,-1.477568030E0,4.025625229E0
5.196751999E1,-8.670990944E0,-1.355234981E0,4.111766815E0
5.200802624E1,-8.502895355E0,-1.303789258E0,4.217350006E0
5.204854572E1,-8.476573944E0,-1.281057477E0,4.377070904E0
5.208903806E1,-8.562117577E0,-1.416850090E0,4.257429600E0
5.212946926E1,-8.599804878E0,-1.519442320E0,4.211966038E0
5.216995885E1,-8.686544418E0,-1.473978758E0,4.205984116E0
5.221044884E1,-8.713164330E0,-1.453938842E0,4.177868366E0
5.225093848E1,-8.734101295E0,-1.380957723E0,4.141676903E0
5.229148895E1,-8.633303642E0,-1.343868971E0,4.247858524E0
5.233197916E1,-8.234002113E0,-1.301994562E0,4.508975029E0
5.237246942E1,-8.372187614E0,-1.379761338E0,4.509573460E0
5.241290202E1,-8.777770996E0,-1.348056436E0,4.139882088E0
5.245340723E1,-8.685946465E0,-1.361217022E0,3.947260141E0
5.249388213E1,-8.850153923E0,-1.406680584E0,3.967000723E0
5.253438286E1,-8.800502777E0,-1.331306696E0,3.944268942E0
5.257493275E1,-8.653642654E0,-1.294217944E0,3.924528122E0
5.261534765E1,-8.744869232E0,-1.325922847E0,3.975375652E0
5.265584718E1,-8.774779320E0,-1.397707582E0,4.070490360E0
5.269639343E1,-8.639883995E0,-1.497308731E0,4.265804768E0
5.273684635E1,-8.548956871E0,-1.516451359E0,4.326821327E0
5.277733124E1,-8.571090698E0,-1.458724499E0,4.235894203E0
5.281779588E1,-8.648857117E0,-1.432403445E0,4.162314892E0
5.285830786E1,-8.615358353E0,-1.394118309E0,4.073481560E0
5.289880421E1,-8.664410591E0,-1.400698543E0,4.081856251E0
5.293926119E1,-8.747860909E0,-1.435394526E0,4.076472282E0
5.297976249E1,-8.698209763E0,-1.431805253E0,4.085445404E0
5.302025108E1,-8.673981667E0,-1.409671664E0,4.105186462E0
5.306073004E1,-8.664410591E0,-1.377966762E0,4.066901207E0
5.310123739E1,-8.658429146E0,-1.314556956E0,3.858426571E0
5.314171864E1,-8.690134048E0,-1.399502158E0,4.051946163E0
5.318221301E1,-8.578866959E0,-1.446162224E0,4.395615101E0
5.322275374E1,-8.434102058E0,-1.518844128E0,4.418047905E0
5.326322280E1,-8.609375954E0,-1.563111424E0,4.374678135E0
5.330368900E1,-8.698209763E0,-1.569691658E0,4.339384079E0
5.334417489E1,-8.635697365E0,-1.570289850E0,4.262215137E0
5.338466452E1,-8.638090134E0,-1.431805253E0,4.044767380E0
5.342515416E1,-8.747860909E0,-1.382752419E0,3.894618034E0
5.346564374E1,-8.785547256E0,-1.333699465E0,3.879961967E0
5.350613791E1,-8.681160927E0,-1.308574915E0,3.914358854E0
5.354663650E1,-8.703593254E0,-1.392921925E0,4.041178226E0
5.358712650E1,-8.690732002E0,-1.434198022E0,4.109972000E0
5.362765358E1,-8.667402267E0,-1.467099428E0,4.111766815E0
5.366809067E1,-8.677571297E0,-1.479362607E0,4.158127785E0
5.370861296E1,-8.707780838E0,-1.493719578E0,4.111168385E0
5.374908775E1,-8.646464348E0,-1.413260818E0,4.121936321E0
5.378956176E1,-8.626125336E0,-1.331904888E0,4.121936321E0
5.383005140E1,-8.676973343E0,-1.405484200E0,4.095016956E0
5.387054103E1,-8.689535141E0,-1.445564032E0,4.065106392E0
5.391103067E1,-8.764012337E0,-1.435394526E0,4.016652107E0
5.395158447E1,-8.681758881E0,-1.397109270E0,4.063910007E0
5.399207410E1,-8.668000221E0,-1.372582912E0,4.106980801E0
5.403246598E1,-8.638090134E0,-1.361217022E0,4.062115669E0
5.407299306E1,-8.696713448E0,-1.415653706E0,4.123730659E0
5.411348233E1,-8.716156006E0,-1.487139225E0,4.315455437E0
5.415401010E1,-8.548358917E0,-1.397109270E0,3.925724745E0
5.419447312E1,-8.710173607E0,-1.425225019E0,4.329812527E0
5.423501098E1,-8.412865639E0,-1.251745343E0,4.131507397E0
5.427545384E1,-8.681758881E0,-1.376770377E0,4.049553394E0
5.431594260E1,-8.908778191E0,-1.460519075E0,3.947858334E0
5.435643192E1,-8.870492935E0,-1.485344648E0,3.856631994E0
5.439692176E1,-8.929117203E0,-1.360020518E0,3.797409534E0
5.443741317E1,-8.738288879E0,-1.245763302E0,3.872783422E0
5.447791900E1,-8.534600258E0,-1.291226864E0,4.025026798E0
5.451841322E1,-8.718548775E0,-1.418046474E0,4.146462440E0
5.455890098E1,-8.710771561E0,-1.490728498E0,4.246063709E0
5.459938806E1,-8.595617294E0,-1.475175142E0,4.293322086E0
5.463986478E1,-8.559126854E0,-1.389930844E0,4.191029072E0
5.468033853E1,-8.660223007E0,-1.380957723E0,4.147060871E0
5.472083473E1,-8.678768158E0,-1.383948803E0,4.107579231E0
5.476133062E1,-8.650053978E0,-1.382154226E0,4.099204063E0
5.480183265E1,-8.641080856E0,-1.381555915E0,4.130311012E0
5.484231119E1,-8.650053978E0,-1.400698543E0,4.153341770E0
5.488278718E1,-8.676973343E0,-1.400698543E0,4.193421841E0
5.492330733E1,-8.679964066E0,-1.401894927E0,4.145266056E0
5.496382306E1,-8.700602531E0,-1.385145187E0,4.091427803E0
5.500431265E1,-8.680562019E0,-1.363011599E0,4.043570995E0
5.504480213E1,-8.697312355E0,-1.321137190E0,4.057928085E0
5.508523567E1,-8.728119850E0,-1.358824134E0,4.045963764E0
5.512574223E1,-8.710173607E0,-1.383948803E0,4.087838173E0
5.516625332E1,-8.672785759E0,-1.420439363E0,4.147658825E0
5.520675306E1,-8.586644173E0,-1.374377489E0,4.188037872E0
5.524723796E1,-8.647661209E0,-1.380957723E0,4.184448719E0
5.528770801E1,-8.670392990E0,-1.388136268E0,4.157529354E0
5.532816760E1,-8.664410591E0,-1.384546995E0,4.101597309E0
5.536870103E1,-8.630312920E0,-1.368395448E0,4.111168385E0
5.540917447E1,-8.673383713E0,-1.362413406E0,4.173680782E0
5.544964598E1,-8.692526817E0,-1.397109270E0,4.129712582E0
5.549015134E1,-8.678169250E0,-1.309771299E0,4.057928085E0
5.553061895E1,-8.667402267E0,-1.382154226E0,4.121337891E0
5.557114838E1,-8.675178528E0,-1.390529037E0,4.177269936E0
5.561169322E1,-8.571688652E0,-1.398903966E0,4.214957237E0
5.565208817E1,-8.622536659E0,-1.368993640E0,4.193421841E0
5.569261249E1,-8.629117012E0,-1.418046474E0,4.144668102E0
5.573312843E1,-8.732905388E0,-1.456331730E0,4.165306091E0
5.577363171E1,-8.711968422E0,-1.382154226E0,4.134498596E0
5.581408510E1,-8.696115494E0,-1.296012521E0,4.059722900E0
5.585455702E1,-8.608778000E0,-1.276271820E0,4.080061913E0
5.589507760E1,-8.633303642E0,-1.339083314E0,4.123132706E0
5.593556067E1,-8.602197647E0,-1.377368569E0,4.177269936E0
5.597607306E1,-8.691927910E0,-1.449153185E0,4.184448719E0
5.601655926E1,-8.770592690E0,-1.459920883E0,4.095016956E0
5.605703327E1,-8.643473625E0,-1.452742457E0,4.147060871E0
5.609749400E1,-8.810073853E0,-1.564307809E0,4.200001717E0
5.613799702E1,-8.558527946E0,-1.290030479E0,4.304687977E0
5.617850457E1,-8.446065903E0,-9.305089116E-1,4.189234257E0
5.621899541E1,-8.635098457E0,-1.232602715E0,4.042973042E0
5.625948312E1,-8.821439743E0,-1.363011599E0,3.945465326E0
5.629997874E1,-8.800502777E0,-1.406082392E0,3.929313898E0
5.634044374E1,-8.796913147E0,-1.418644667E0,4.099204063E0
5.638093405E1,-8.555537224E0,-1.348056436E0,4.316651821E0
5.642142390E1,-8.452047348E0,-1.333101273E0,4.399204254E0
5.646191327E1,-8.666803360E0,-1.356431365E0,4.244269371E0
5.650239749E1,-8.685347557E0,-1.293021560E0,4.086043835E0
5.654291926E1,-8.732905388E0,-1.281655669E0,4.031607151E0
5.658335353E1,-8.669795036E0,-1.347458243E0,4.098606110E0
5.662385280E1,-8.601000786E0,-1.310967684E0,4.176073551E0
5.666437426E1,-8.693124771E0,-1.352842093E0,4.161716938E0
5.670484124E1,-8.685946465E0,-1.326521039E0,4.177269936E0
5.674532593E1,-8.650651932E0,-1.349851131E0,4.133900166E0
5.678584286E1,-8.702396393E0,-1.327119231E0,4.087838173E0
5.682629244E1,-8.681758881E0,-1.306780219E0,4.111168385E0
5.686678233E1,-8.670990944E0,-1.343868971E0,4.153341770E0
5.690730306E1,-8.627322197E0,-1.342672586E0,4.176073551E0
5.694784994E1,-8.687142372E0,-1.356431365E0,4.184448719E0
5.698830395E1,-8.673383713E0,-1.331306696E0,4.159922123E0
5.702877390E1,-8.632705688E0,-1.308574915E0,4.146462440E0
5.706926374E1,-8.666205406E0,-1.310369492E0,4.092624187E0
5.710975666E1,-8.714361191E0,-1.328913927E0,4.112963200E0
5.715029926E1,-8.675776482E0,-1.329512119E0,4.118945122E0
5.719072791E1,-8.650053978E0,-1.338485122E0,4.168296814E0
5.723123937E1,-8.673981667E0,-1.343270779E0,4.151547432E0
5.727173077E1,-8.656634331E0,-1.336092353E0,4.158127785E0
5.731220739E1,-8.662017822E0,-1.334895968E0,4.140480518E0
5.735269046E1,-8.691329956E0,-1.327119231E0,4.126123428E0
5.739318124E1,-8.660821915E0,-1.319342613E0,4.144069672E0
5.743367134E1,-8.689535141E0,-1.325922847E0,4.124329090E0
5.747414567E1,-8.678768158E0,-1.327119231E0,4.142275333E0
5.751461400E1,-8.704790115E0,-1.313360572E0,4.132703781E0
5.755509671E1,-8.682356834E0,-1.367199063E0,4.110570431E0
5.759558629E1,-8.685347557E0,-1.341476202E0,4.072883129E0
5.763607582E1,-8.693124771E0,-1.261914849E0,4.177269936E0
5.767660629E1,-8.632705688E0,-1.329512119E0,4.178466320E0
5.771709577E1,-8.623732567E0,-1.348654628E0,4.214358807E0
5.775760067E1,-8.583653450E0,-1.368395448E0,4.244867325E0
5.779809025E1,-8.670392990E0,-1.312762380E0,4.220939159E0
5.783862369E1,-8.591429710E0,-1.322333574E0,4.152145386E0
5.787904749E1,-8.671588898E0,-1.355833173E0,4.234099865E0
5.791956504E1,-8.644669533E0,-1.343868971E0,4.167698860E0
5.796010567E1,-8.657232285E0,-1.348654628E0,4.153940201E0
5.800055124E1,-8.647661209E0,-1.305583835E0,4.151547432E0
5.804103296E1,-8.650053978E0,-1.300798178E0,4.107579231E0
5.808157062E1,-8.735298157E0,-1.296012521E0,4.062115669E0
5.812201332E1,-8.701200485E0,-1.309771299E0,4.084249020E0
5.816251129E1,-8.646464348E0,-1.329512119E0,4.133302212E0
5.820298322E1,-8.661419868E0,-1.352842093E0,4.171886444E0
5.824348749E1,-8.682954788E0,-1.383350611E0,4.183850288E0
5.828396869E1,-8.612964630E0,-1.345663667E0,4.209573269E0
5.832442197E1,-8.668598175E0,-1.367797256E0,4.187439442E0
5.836491322E1,-8.649456024E0,-1.343868971E0,4.136891365E0
5.840540442E1,-8.679964066E0,-1.316351533E0,4.141676903E0
5.844589567E1,-8.727521896E0,-1.338485122E0,4.114757538E0
5.848638770E1,-8.687142372E0,-1.349851131E0,4.108177185E0
5.852687885E1,-8.666803360E0,-1.290628672E0,4.129114628E0
5.856738463E1,-8.666205406E0,-1.350449324E0,4.128516197E0
5.860788244E1,-8.644669533E0,-1.377966762E0,4.149154663E0
5.864836650E1,-8.661419868E0,-1.366002679E0,4.175475597E0
5.868887473E1,-8.680562019E0,-1.373779297E0,4.157529354E0
5.872934192E1,-8.649456024E0,-1.368395448E0,4.155136585E0
5.876986093E1,-8.681758881E0,-1.358225942E0,4.152743816E0
5.881034322E1,-8.654839516E0,-1.360020518E0,4.113561153E0
5.885080207E1,-8.698807716E0,-1.360618830E0,4.097409725E0
5.889128411E1,-8.674580574E0,-1.352243900E0,4.144668102E0
5.893180812E1,-8.708976746E0,-1.389930844E0,4.126721859E0
5.897231520E1,-8.737690926E0,-1.319940805E0,4.121337891E0
5.901280525E1,-8.664410591E0,-1.331306696E0,4.173680782E0
5.905327801E1,-8.728119850E0,-1.380359530E0,4.157529354E0
5.909373765E1,-8.680562019E0,-1.409671664E0,4.125525475E0
5.913425624E1,-8.560322762E0,-1.517647743E0,4.106980801E0
5.917477530E1,-8.795717239E0,-1.261316657E0,4.379463673E0
5.921524030E1,-8.354241371E0,-1.149751306E0,4.142275333E0
5.925573197E1,-8.772386551E0,-1.146162033E0,4.117748737E0
5.929622713E1,-8.705388069E0,-1.246959686E0,4.114159584E0
5.933671832E1,-8.749056816E0,-1.524826288E0,3.969393730E0
5.937720978E1,-8.667402267E0,-1.261316657E0,4.316651821E0
5.941769160E1,-8.443673134E0,-1.217647672E0,4.270590305E0
5.945824260E1,-8.768797874E0,-1.168295622E0,4.284348965E0
5.949869405E1,-8.535198212E0,-1.217049360E0,4.097409725E0
5.953916353E1,-8.661419868E0,-1.331306696E0,4.155734539E0
5.957965895E1,-8.781359673E0,-1.373181105E0,4.194019794E0
5.962015937E1,-8.666205406E0,-1.372582912E0,4.179663181E0
5.966060192E1,-8.617152214E0,-1.251147151E0,4.274777889E0
5.970111536E1,-8.482556343E0,-1.115055323E0,4.281956196E0
5.974160603E1,-8.738288879E0,-1.205085278E0,4.051946163E0
5.978207910E1,-8.834600449E0,-1.258325577E0,4.059124470E0
5.982257004E1,-8.683553696E0,-1.301396370E0,4.030410767E0
5.986305947E1,-8.811270714E0,-1.348056436E0,4.252644062E0
5.990354890E1,-8.607581139E0,-1.435992718E0,4.276572227E0
5.994409629E1,-8.341080666E0,-1.122832060E0,4.439583302E0
5.998452306E1,-8.680562019E0,-1.110867858E0,4.188037872E0
6.002502010E1,-8.744869232E0,-1.143171072E0,4.055535316E0
6.006551119E1,-8.651848793E0,-1.258923769E0,4.068097591E0
6.010603765E1,-8.597412109E0,-1.341476202E0,4.265804768E0
6.014653749E1,-8.503493309E0,-1.227817178E0,4.338785648E0
6.018702275E1,-8.700602531E0,-1.122233868E0,4.137489319E0
6.022752608E1,-8.725129128E0,-1.227218866E0,4.155734539E0
6.026802754E1,-8.697312355E0,-1.297209024E0,4.065704823E0
6.030849864E1,-8.763413429E0,-1.383350611E0,4.158127785E0
6.034895702E1,-8.670392990E0,-1.254736423E0,4.174877167E0
6.038946499E1,-8.630910873E0,-1.211665511E0,4.245465755E0
6.042995119E1,-8.649456024E0,-1.216451168E0,4.186243057E0
6.047043551E1,-8.664410591E0,-1.255334616E0,4.149154663E0
6.051091379E1,-8.720342636E0,-1.306780219E0,4.149752617E0
6.055141228E1,-8.615956306E0,-1.284048438E0,4.196412563E0
6.059188775E1,-8.653044701E0,-1.259521961E0,4.216153622E0
6.063239004E1,-8.654839516E0,-1.242174029E0,4.210769653E0
6.067288499E1,-8.649456024E0,-1.252941728E0,4.192225456E0
6.071336108E1,-8.659027100E0,-1.276870012E0,4.177269936E0
6.075384353E1,-8.714361191E0,-1.316949725E0,4.135096550E0
6.079433072E1,-8.715557098E0,-1.261914849E0,4.182653904E0
6.083480030E1,-8.630312920E0,-1.247557878E0,4.214358807E0
6.087528963E1,-8.560322762E0,-1.251745343E0,4.255635262E0
6.091577890E1,-8.660223007E0,-1.267896891E0,4.180261135E0
6.095636608E1,-8.729914665E0,-1.260120273E0,4.149154663E0
6.099678796E1,-8.646464348E0,-1.267896891E0,4.167100430E0
6.103727718E1,-8.613563538E0,-1.245165110E0,4.219144344E0
6.107777233E1,-8.651848793E0,-1.264905930E0,4.186841488E0
6.111829822E1,-8.718548775E0,-1.292423368E0,4.162314892E0
6.115875650E1,-8.629714966E0,-1.271486163E0,4.214358807E0
6.119925926E1,-8.630312920E0,-1.279262781E0,4.227519512E0
6.123974848E1,-8.683553696E0,-1.239183068E0,4.202992916E0
6.128027556E1,-8.653044701E0,-1.285843015E0,4.141676903E0
6.132070166E1,-8.644669533E0,-1.230209947E0,4.170091629E0
6.136119082E1,-8.660223007E0,-1.232602715E0,4.198207378E0
6.140168010E1,-8.729315758E0,-1.314556956E0,4.164109707E0
6.144216937E1,-8.632705688E0,-1.309173107E0,4.191029072E0
6.148265864E1,-8.575876236E0,-1.290030479E0,4.241278172E0
6.152314791E1,-8.647661209E0,-1.303789258E0,4.235894203E0
6.156363228E1,-8.666803360E0,-1.333699465E0,4.152743816E0
6.160413744E1,-8.696115494E0,-1.281057477E0,4.136292934E0
6.164464968E1,-8.675178528E0,-1.270289779E0,4.139284134E0
6.168512405E1,-8.687741280E0,-1.347458243E0,4.194019794E0
6.172561385E1,-8.621339798E0,-1.418644667E0,4.259822369E0
6.176613723E1,-8.619544983E0,-1.312762380E0,4.281357765E0
6.180662332E1,-8.624929428E0,-1.284646630E0,4.264608383E0
6.184707817E1,-8.590831757E0,-1.242174029E0,4.186243057E0
6.188756733E1,-8.692526817E0,-1.281655669E0,4.152743816E0
6.192807572E1,-8.657830238E0,-1.376172066E0,4.180261135E0
6.196859812E1,-8.606983185E0,-1.335494161E0,4.237090588E0
6.200906650E1,-8.695517540E0,-1.273878932E0,4.220939159E0
6.204953900E1,-8.572885513E0,-1.149751306E0,4.216751575E0
6.209003254E1,-8.661419868E0,-1.328913927E0,4.186243057E0
6.213053426E1,-8.822636604E0,-1.419841170E0,4.042374611E0
6.217100015E1,-8.534600258E0,-1.344467282E0,4.252045631E0
6.221148015E1,-8.474779129E0,-1.147358418E0,4.367499352E0
6.225196937E1,-8.595617294E0,-1.188634634E0,4.298107624E0
6.229241822E1,-8.767003059E0,-1.269093275E0,4.014258862E0
6.233294739E1,-8.814859390E0,-1.447358608E0,4.007678986E0
6.237344629E1,-8.659027100E0,-1.339083314E0,4.156332970E0
6.241395640E1,-8.568099976E0,-1.232602715E0,4.280161381E0
6.245443468E1,-8.589036942E0,-1.198804140E0,4.303491592E0
6.249492384E1,-8.522636414E0,-1.310967684E0,4.252045631E0
6.253539728E1,-8.567501068E0,-1.339681625E0,4.275974274E0
6.257588489E1,-8.670392990E0,-1.379163146E0,4.214358807E0
6.261644046E1,-8.580063820E0,-1.353440285E0,4.226323128E0
6.265688963E1,-8.589036942E0,-1.269093275E0,4.286741734E0
6.269739187E1,-8.659027100E0,-1.315155149E0,4.158725739E0
6.273786478E1,-9.081958771E0,-1.433001637E0,3.833301783E0
6.277836213E1,-8.856135368E0,-1.245165110E0,3.750749588E0
6.281884437E1,-8.875278473E0,-1.249950767E0,3.806382656E0
6.285933911E1,-8.708976746E0,-1.292423368E0,4.124329090E0
6.289983864E1,-8.487341881E0,-1.330708504E0,4.354339123E0
6.294033358E1,-8.421239853E0,-1.351047516E0,4.447360039E0
6.298082114E1,-8.508278847E0,-1.408475280E0,4.322634220E0
6.302131192E1,-8.678169250E0,-1.379761338E0,4.203591347E0
6.306178551E1,-8.710771561E0,-1.340878010E0,4.102793694E0
6.310228327E1,-8.657232285E0,-1.333101273E0,4.097409725E0
6.314279286E1,-8.648857117E0,-1.330708504E0,4.132105827E0
6.318326640E1,-8.641080856E0,-1.339083314E0,4.190430641E0
6.322379213E1,-8.689535141E0,-1.343868971E0,4.205984116E0
6.326426421E1,-8.601598740E0,-1.370788217E0,4.185046673E0
6.330472635E1,-8.621937752E0,-1.365404367E0,4.179064751E0
6.334520213E1,-8.662017822E0,-1.370190024E0,4.189832687E0
6.338569145E1,-8.627322197E0,-1.355234981E0,4.199403763E0
6.342618858E1,-8.698209763E0,-1.351047516E0,4.181457520E0
6.346669343E1,-8.670392990E0,-1.346860051E0,4.182653904E0
6.350718275E1,-8.687741280E0,-1.329512119E0,4.146462440E0
6.354767202E1,-8.624929428E0,-1.286441326E0,4.152743816E0
6.358814145E1,-8.655437469E0,-1.342672586E0,4.155136585E0
6.362863556E1,-8.639286041E0,-1.350449324E0,4.198805332E0
6.366918249E1,-8.650651932E0,-1.383948803E0,4.178466320E0
6.370964822E1,-8.647063255E0,-1.377966762E0,4.201796532E0
6.375011624E1,-8.621937752E0,-1.319342613E0,4.241278172E0
6.379062676E1,-8.615358353E0,-1.343270779E0,4.224528313E0
6.383110145E1,-8.638688087E0,-1.406082392E0,4.197010994E0
6.387157166E1,-8.615956306E0,-1.363011599E0,4.201796532E0
6.391206145E1,-8.558527946E0,-1.364806175E0,4.220939159E0
6.395255358E1,-8.650651932E0,-1.351047516E0,4.352544308E0
6.399304348E1,-8.513663292E0,-1.372582912E0,4.192823410E0
6.403353332E1,-8.677571297E0,-1.372582912E0,4.302295208E0
6.407399707E1,-8.644071579E0,-1.348056436E0,4.138087749E0
6.411448687E1,-8.689535141E0,-1.414457321E0,4.106980801E0
6.415502437E1,-8.720941544E0,-1.364806175E0,4.181457520E0
6.419551421E1,-8.563912392E0,-1.352842093E0,4.195216179E0
6.423600405E1,-8.609973907E0,-1.396511078E0,4.272384644E0
6.427649390E1,-8.659625053E0,-1.425225019E0,4.229912281E0
6.431696874E1,-8.601598740E0,-1.395314693E0,4.249054909E0
6.435746921E1,-8.560921669E0,-1.319940805E0,4.255635262E0
6.439795905E1,-8.531010628E0,-1.309771299E0,4.274179459E0
6.443844890E1,-8.628518105E0,-1.388136268E0,4.226921082E0
6.447893723E1,-8.626125336E0,-1.401894927E0,4.203591347E0
6.451941817E1,-8.706583977E0,-1.447956800E0,4.168296814E0
6.455988989E1,-8.725129128E0,-1.400698543E0,4.173680782E0
6.460041614E1,-8.642875671E0,-1.337886930E0,4.173082829E0
6.464090791E1,-8.566903114E0,-1.308574915E0,4.226921082E0
6.468140197E1,-8.550751686E0,-1.364806175E0,4.275974274E0
6.472188379E1,-8.596813202E0,-1.429412484E0,4.278367043E0
6.476241504E1,-8.591429710E0,-1.401894927E0,4.274777889E0
6.480288134E1,-8.657830238E0,-1.383948803E0,4.200001717E0
6.484332421E1,-8.661419868E0,-1.368993640E0,4.179663181E0
6.488381405E1,-8.682954788E0,-1.353440285E0,4.118346691E0
6.492430989E1,-8.640482903E0,-1.360618830E0,4.162913322E0
6.496481171E1,-8.625527382E0,-1.371386528E0,4.238885403E0
6.500530155E1,-8.610571861E0,-1.383948803E0,4.251447678E0
6.504579155E1,-8.600402832E0,-1.422832131E0,4.250251293E0
6.508628681E1,-8.608179092E0,-1.373779297E0,4.234099865E0
6.512683942E1,-8.599205971E0,-1.374377489E0,4.252644062E0
6.516726150E1,-8.603393555E0,-1.375573874E0,4.231706619E0
6.520782739E1,-8.643473625E0,-1.377368569E0,4.199403763E0
6.524824260E1,-8.673383713E0,-1.372582912E0,4.207180500E0
6.528875660E1,-8.644071579E0,-1.392323732E0,4.182653904E0
6.532925905E1,-8.580063820E0,-1.385743380E0,4.193421841E0
6.536974952E1,-8.666803360E0,-1.330708504E0,4.211966038E0
6.541019463E1,-8.621339798E0,-1.343270779E0,4.211966038E0
6.545068515E1,-8.592027664E0,-1.376172066E0,4.265206337E0
6.549117567E1,-8.573483467E0,-1.425823212E0,4.246063709E0
6.553165572E1,-8.648259163E0,-1.388136268E0,4.279563427E0
6.557215963E1,-8.614759445E0,-1.342672586E0,4.253242016E0
6.561272739E1,-8.556135178E0,-1.383350611E0,4.244269371E0
6.565315978E1,-8.598010063E0,-1.382752419E0,4.237689018E0
6.569365489E1,-8.636295319E0,-1.363011599E0,4.203591347E0
6.573417567E1,-8.675776482E0,-1.379163146E0,4.226323128E0
6.577462541E1,-8.635098457E0,-1.386939883E0,4.232305050E0
6.581510687E1,-8.605786324E0,-1.367199063E0,4.211966038E0
6.585559244E1,-8.602795601E0,-1.367199063E0,4.250849247E0
6.589608223E1,-8.562117577E0,-1.363011599E0,4.284348965E0
6.593657364E1,-8.609973907E0,-1.366600871E0,4.247858524E0
6.597706431E1,-8.685946465E0,-1.336092353E0,4.176073551E0
6.601756218E1,-8.641678810E0,-1.340279818E0,4.135694981E0
6.605805864E1,-8.656634331E0,-1.374975681E0,4.192823410E0
6.609856379E1,-8.666205406E0,-1.410269856E0,4.204787731E0
6.613906525E1,-8.609375954E0,-1.401894927E0,4.255635262E0
6.617953661E1,-8.595019341E0,-1.358824134E0,4.286143780E0
6.622001483E1,-8.612366676E0,-1.356431365E0,4.250251293E0
6.626050582E1,-8.604590416E0,-1.350449324E0,4.177269936E0
6.630103145E1,-8.605188370E0,-1.366600871E0,4.183252335E0
6.634150072E1,-8.679366112E0,-1.372582912E0,4.200600147E0
6.638195020E1,-8.648857117E0,-1.383350611E0,4.204189301E0
6.642244119E1,-8.606385231E0,-1.357029557E0,4.220340729E0
6.646293082E1,-8.616554260E0,-1.377966762E0,4.235894203E0
6.650342051E1,-8.635697365E0,-1.375573874E0,4.201198578E0
6.654387275E1,-8.627920151E0,-1.373181105E0,4.216153622E0
6.658443160E1,-8.614759445E0,-1.377966762E0,4.253840446E0
6.662494447E1,-8.609375954E0,-1.387538075E0,4.249652863E0
6.666537968E1,-8.647063255E0,-1.350449324E0,4.187439442E0
6.670587369E1,-8.618947029E0,-1.364207983E0,4.192823410E0
6.674643629E1,-8.671588898E0,-1.377966762E0,4.194618225E0
6.678689119E1,-8.642276764E0,-1.391725421E0,4.201796532E0
6.682735010E1,-8.663214684E0,-1.352842093E0,4.215555191E0
6.686785812E1,-8.561519623E0,-1.315753341E0,4.243670940E0
6.690839134E1,-8.566903114E0,-1.348654628E0,4.258625984E0
6.694885884E1,-8.583054543E0,-1.373181105E0,4.259224415E0
6.698933707E1,-8.639883995E0,-1.427617788E0,4.255036831E0
6.702983332E1,-8.640482903E0,-1.397109270E0,4.218546391E0
6.707031135E1,-8.680562019E0,-1.403689623E0,4.242474556E0
6.711080239E1,-8.664410591E0,-1.415055513E0,4.216751575E0
6.715138843E1,-8.635697365E0,-1.312762380E0,4.111168385E0
6.719177312E1,-8.632107735E0,-1.287039518E0,4.119543076E0
6.723226838E1,-8.626125336E0,-1.337886930E0,4.218546391E0
6.727277197E1,-8.579465866E0,-1.385145187E0,4.294518471E0
6.731322910E1,-8.603393555E0,-1.428814173E0,4.278367043E0
6.735370275E1,-8.632705688E0,-1.379163146E0,4.240679741E0
6.739419197E1,-8.605188370E0,-1.377368569E0,4.232305050E0
6.743468129E1,-8.642276764E0,-1.358824134E0,4.200600147E0
6.747517082E1,-8.630312920E0,-1.341476202E0,4.180261135E0
6.751566030E1,-8.666205406E0,-1.364806175E0,4.195216179E0
6.755615405E1,-8.616554260E0,-1.376770377E0,4.225724697E0
6.759665426E1,-8.612964630E0,-1.376770377E0,4.239483356E0
6.763716989E1,-8.636295319E0,-1.379761338E0,4.218546391E0
6.767766895E1,-8.624331474E0,-1.374377489E0,4.218546391E0
6.771816067E1,-8.623134613E0,-1.366002679E0,4.218546391E0
6.775866364E1,-8.620143890E0,-1.374975681E0,4.225126743E0
6.779911056E1,-8.628518105E0,-1.379761338E0,4.199403763E0
6.783960202E1,-8.633902550E0,-1.378564954E0,4.220939159E0
6.788009197E1,-8.629117012E0,-1.363011599E0,4.220340729E0
6.792059494E1,-8.624929428E0,-1.358225942E0,4.215555191E0
6.796111098E1,-8.614161491E0,-1.367199063E0,4.232305050E0
6.800160088E1,-8.635697365E0,-1.388734460E0,4.223331928E0
6.804209082E1,-8.633303642E0,-1.378564954E0,4.219144344E0
6.808254077E1,-8.628518105E0,-1.370190024E0,4.226323128E0
6.812310244E1,-8.642875671E0,-1.374975681E0,4.203591347E0
6.816356004E1,-8.629714966E0,-1.351645708E0,4.217350006E0
6.820401457E1,-8.622536659E0,-1.371386528E0,4.219144344E0
6.824456937E1,-8.609973907E0,-1.378564954E0,4.225724697E0
6.828505260E1,-8.624331474E0,-1.372582912E0,4.224528313E0
6.832547437E1,-8.619544983E0,-1.370190024E0,4.214957237E0
6.836596426E1,-8.628518105E0,-1.371386528E0,4.213162422E0
6.840646265E1,-8.620143890E0,-1.366600871E0,4.210769653E0
6.844695244E1,-8.636295319E0,-1.371984720E0,4.216153622E0
6.848746332E1,-8.628518105E0,-1.380957723E0,4.216751575E0
6.852799233E1,-8.605786324E0,-1.375573874E0,4.220340729E0
6.856849343E1,-8.611768723E0,-1.366600871E0,4.226323128E0
6.860894884E1,-8.620741844E0,-1.368395448E0,4.222135544E0
6.864940832E1,-8.627322197E0,-1.371386528E0,4.210171223E0
6.868989296E1,-8.628518105E0,-1.371984720E0,4.212564468E0
6.873029577E1,-8.653642654E0,-1.374975681E0,4.205385685E0
6.875054067E1,-8.636893272E0,-1.363011599E0,4.210171223E0
6.877079004E1,-8.586644173E0,-1.347458243E0,4.229313850E0
6.881079004E1,-8.630910873E0,-1.372582912E0,4.230510235E0
6.885079004E1,-8.616554260E0,-1.377368569E0,4.225724697E0
6.889079004E1,-8.642875671E0,-1.367797256E0,4.218546391E0
6.893079004E1,-8.611768723E0,-1.365404367E0,4.208974838E0
6.897079004E1,-8.635697365E0,-1.394118309E0,4.208974838E0
6.901079004E1,-8.633303642E0,-1.363011599E0,4.211368084E0
6.905079004E1,-8.621339798E0,-1.372582912E0,4.223331928E0
6.909079004E1,-8.628518105E0,-1.401296735E0,4.218546391E0
6.913079004E1,-8.635697365E0,-1.360618830E0,4.237689018E0
6.917079004E1,-8.621339798E0,-1.370190024E0,4.216153622E0
6.921079004E1,-8.635697365E0,-1.389332652E0,4.228117466E0
6.925079004E1,-8.626125336E0,-1.384546995E0,4.223331928E0
6.929079004E1,-8.645268440E0,-1.367797256E0,4.213760853E0
6.933079004E1,-8.628518105E0,-1.386939883E0,4.204189301E0
6.937079004E1,-8.626125336E0,-1.339083314E0,4.220939159E0
6.941079004E1,-8.647661209E0,-1.384546995E0,4.220939159E0
6.945079004E1,-8.635697365E0,-1.389332652E0,4.223331928E0
6.949079004E1,-8.599804878E0,-1.391725421E0,4.247260094E0
6.953079004E1,-8.635697365E0,-1.360618830E0,4.199403763E0
6.957079004E1,-8.630910873E0,-1.391725421E0,4.216153622E0
6.961079004E1,-8.642875671E0,-1.365404367E0,4.208974838E0
6.965079004E1,-8.604590416E0,-1.379761338E0,4.220939159E0
6.969079004E1,-8.606983185E0,-1.401296735E0,4.230510235E0
6.973079004E1,-8.628518105E0,-1.384546995E0,4.213760853E0
6.977079004E1,-8.621339798E0,-1.379761338E0,4.220939159E0
6.981079004E1,-8.642875671E0,-1.370190024E0,4.216153622E0
6.985079004E1,-8.635697365E0,-1.365404367E0,4.189832687E0
6.989079004E1,-8.630910873E0,-1.389332652E0,4.208974838E0
6.993079004E1,-8.623732567E0,-1.379761338E0,4.204189301E0
6.997079004E1,-8.609375954E0,-1.379761338E0,4.213760853E0
7.001079004E1,-8.630910873E0,-1.377368569E0,4.232903481E0
7.005079004E1,-8.611768723E0,-1.386939883E0,4.235296249E0
7.009079004E1,-8.606983185E0,-1.372582912E0,4.211368084E0
7.013079004E1,-8.647661209E0,-1.370190024E0,4.197010994E0
7.017079004E1,-8.635697365E0,-1.370190024E0,4.223331928E0
7.021079004E1,-8.604590416E0,-1.382154226E0,4.230510235E0
7.025079004E1,-8.623732567E0,-1.401296735E0,4.208974838E0
7.029079004E1,-8.630910873E0,-1.394118309E0,4.211368084E0
7.033079004E1,-8.630910873E0,-1.355833173E0,4.225724697E0
7.037079004E1,-8.614161491E0,-1.377368569E0,4.232903481E0
7.041079004E1,-8.614161491E0,-1.377368569E0,4.232903481E0
7.045079004E1,-8.614161491E0,-1.377368569E0,4.232903481E0
7.049079004E1,-8.614161491E0,-1.377368569E0,4.232903481E0
7.053079004E1,-8.614161491E0,-1.377368569E0,4.232903481E0
7.057079004E1,-8.614161491E0,-1.377368569E0,4.232903481E0
7.061079004E1,-8.614161491E0,-1.377368569E0,4.232903481E0
7.065079004E1,-8.614161491E0,-1.377368569E0,4.232903481E0
7.069079004E1,-8.614161491E0,-1.377368569E0,4.232903481E0
7.073079004E1,-8.614161491E0,-1.377368569E0,4.232903481E0
7.077079004E1,-8.614161491E0,-1.377368569E0,4.232903481E0
7.081079004E1,-8.614161491E0,-1.377368569E0,4.232903481E0
7.085079004E1,-8.614161491E0,-1.377368569E0,4.232903481E0
7.089079004E1,-8.614161491E0,-1.377368569E0,4.232903481E0
7.093079004E1,-8.614161491E0,-1.377368569E0,4.232903481E0
7.097079004E1,-8.614161491E0,-1.377368569E0,4.232903481E0
7.101079004E1,-8.614161491E0,-1.377368569E0,4.232903481E0
7.105079004E1,-8.614161491E0,-1.377368569E0,4.232903481E0
7.109079004E1,-8.580661774E0,-1.394118309E0,4.237689018E0
7.113079004E1,-8.609375954E0,-1.389332652E0,4.228117466E0
7.117079004E1,-8.642875671E0,-1.370190024E0,4.197010994E0
7.121079004E1,-8.642875671E0,-1.367797256E0,4.204189301E0
7.125079004E1,-8.633303642E0,-1.367797256E0,4.208974838E0
7.129079004E1,-8.621339798E0,-1.377368569E0,4.218546391E0
7.133079004E1,-8.618947029E0,-1.379761338E0,4.216153622E0
7.137079004E1,-8.638090134E0,-1.403689623E0,4.197010994E0
7.141079004E1,-8.623732567E0,-1.367797256E0,4.220939159E0
7.145079004E1,-8.604590416E0,-1.391725421E0,4.223331928E0
7.149079004E1,-8.628518105E0,-1.372582912E0,4.249652863E0
7.153079004E1,-8.640482903E0,-1.370190024E0,4.223331928E0
7.157079004E1,-8.650053978E0,-1.379761338E0,4.182653904E0
7.161079004E1,-8.578269005E0,-1.386939883E0,4.273581028E0
7.165079004E1,-8.645268440E0,-1.386939883E0,4.240081787E0
7.169079004E1,-8.633303642E0,-1.374975681E0,4.199403763E0
7.173079004E1,-8.642875671E0,-1.353440285E0,4.204189301E0
7.177079004E1,-8.602197647E0,-1.365404367E0,4.225724697E0
7.181079004E1,-8.616554260E0,-1.389332652E0,4.204189301E0
7.185079004E1,-8.645268440E0,-1.379761338E0,4.211368084E0
7.189079004E1,-8.623732567E0,-1.379761338E0,4.199403763E0
7.193079004E1,-8.621339798E0,-1.374975681E0,4.240081787E0
7.197079004E1,-8.628518105E0,-1.360618830E0,4.216153622E0
7.201079004E1,-8.638090134E0,-1.353440285E0,4.199403763E0
7.205079004E1,-8.633303642E0,-1.372582912E0,4.213760853E0
7.209079004E1,-8.611768723E0,-1.358225942E0,4.230510235E0
7.213079004E1,-8.635697365E0,-1.358225942E0,4.213760853E0
7.217079004E1,-8.604590416E0,-1.396511078E0,4.230510235E0
7.221079004E1,-8.626125336E0,-1.377368569E0,4.223331928E0
7.225079004E1,-8.628518105E0,-1.391725421E0,4.213760853E0
7.229079004E1,-8.638090134E0,-1.382154226E0,4.189832687E0
7.233079004E1,-8.604590416E0,-1.374975681E0,4.237689018E0
7.237079004E1,-8.657232285E0,-1.360618830E0,4.208974838E0
7.241079004E1,-8.626125336E0,-1.379761338E0,4.223331928E0
7.245079004E1,-8.621339798E0,-1.360618830E0,4.232903481E0
7.249079004E1,-8.618947029E0,-1.382154226E0,4.223331928E0
7.253079004E1,-8.633303642E0,-1.386939883E0,4.225724697E0
7.257079004E1,-8.616554260E0,-1.382154226E0,4.230510235E0
7.261079004E1,-8.626125336E0,-1.367797256E0,4.235296249E0
7.265079004E1,-8.628518105E0,-1.374975681E0,4.206582069E0
7.269079004E1,-8.611768723E0,-1.360618830E0,4.216153622E0
7.273079004E1,-8.614161491E0,-1.370190024E0,4.218546391E0
7.277079004E1,-8.635697365E0,-1.394118309E0,4.208974838E0
7.281079004E1,-8.659625053E0,-1.394118309E0,4.232903481E0
7.285079004E1,-8.645268440E0,-1.415653706E0,4.240081787E0
7.289079004E1,-8.726922989E0,-1.432403445E0,4.244867325E0
7.293079004E1,-8.405686378E0,-1.439581871E0,4.307080746E0
7.297079004E1,-8.844171524E0,-1.540379524E0,4.173082829E0
7.301079004E1,-8.774779320E0,-1.307976723E0,4.192225456E0
7.305079004E1,-8.456234932E0,-1.303191066E0,4.338187218E0
7.309079004E1,-8.606983185E0,-9.005986452E-1,4.177868366E0
7.313079004E1,-8.868100166E0,-1.135394335E0,4.505984306E0
7.317079004E1,-8.868100166E0,-1.135394335E0,4.505984306E0
7.321079004E1,-8.868100166E0,-1.135394335E0,4.505984306E0
7.325079004E1,-8.915956497E0,-1.386939883E0,4.422235489E0
7.329079004E1,-8.429914474E0,-1.296012521E0,4.443770885E0
7.333079004E1,-8.372187614E0,-1.272084355E0,4.414757729E0
7.337079004E1,-8.539983749E0,-1.355833173E0,4.558626175E0
7.341079004E1,-8.786744118E0,-1.137787223E0,4.304687977E0
7.345079004E1,-8.238189697E0,-1.075573802E0,4.503591537E0
7.349079004E1,-8.681160927E0,-1.006181955E0,4.278367043E0
7.353079004E1,-8.657232285E0,-1.298405409E0,4.072285175E0
7.357079004E1,-8.808279037E0,-1.245763302E0,4.077070713E0
7.361079004E1,-8.789136887E0,-1.231406331E0,4.091427803E0
7.365079004E1,-8.657232285E0,-1.183250785E0,4.175475597E0
7.369079004E1,-8.717351913E0,-1.140179992E0,4.165904045E0
7.373079004E1,-8.592626572E0,-1.109073281E0,4.240081787E0
7.377079004E1,-8.662017822E0,-1.190429211E0,4.232903481E0
7.381079004E1,-8.575876236E0,-1.221835017E0,4.220939159E0
7.385079004E1,-8.676374435E0,-1.267298698E0,4.197010994E0
7.389079004E1,-8.710173607E0,-1.214656591E0,4.244867325E0
7.393079004E1,-8.566305161E0,-1.185643673E0,4.124927044E0
7.397079004E1,-8.758029938E0,-1.180858016E0,4.220939159E0
7.401079004E1,-8.626125336E0,-1.077966571E0,4.197010994E0
7.405079004E1,-8.729315758E0,-1.252941728E0,4.161118507E0
7.409079004E1,-8.755637169E0,-1.248156071E0,4.108177185E0
7.413079004E1,-8.755637169E0,-1.205085278E0,4.283152580E0
7.417079004E1,-8.571090698E0,-1.183250785E0,4.275974274E0
7.421079004E1,-8.472985268E0,-1.137787223E0,4.285545349E0
7.425079004E1,-8.801100731E0,-1.152144074E0,4.204189301E0
7.429079004E1,-8.590232849E0,-1.147358418E0,4.144069672E0
7.433079004E1,-8.669196129E0,-1.159322619E0,4.024428368E0
7.437079004E1,-8.563912392E0,-1.128215909E0,4.197010994E0
7.441079004E1,-8.499305725E0,-1.104287624E0,4.268795490E0
7.445079004E1,-8.561519623E0,-1.121037364E0,4.283152580E0
7.449079004E1,-8.444271088E0,-1.188036442E0,4.323830605E0
7.453079004E1,-8.659625053E0,-1.257727385E0,4.254438877E0
7.457079004E1,-8.662017822E0,-1.336690545E0,4.199403763E0
7.461079004E1,-8.853742599E0,-1.446760416E0,4.108177185E0
7.465079004E1,-8.939884186E0,-1.468295813E0,4.074677944E0
7.469079004E1,-8.618947029E0,-1.123430252E0,3.823132277E0
7.473079004E1,-8.784351349E0,-1.231406331E0,4.043570995E0
7.477079004E1,-8.786744118E0,-1.403689623E0,4.309473515E0
7.481079004E1,-8.513663292E0,-1.537986755E0,4.045963764E0
7.485079004E1,-9.289834976E0,-1.384546995E0,4.019642830E0
7.489079004E1,-8.638090134E0,-9.391828775E-1,4.000500202E0
7.493079004E1,-8.496912956E0,-1.478166223E0,3.521337509E0
7.497079004E1,-9.421440125E0,-1.631306887E0,3.358625650E0
7.501079004E1,-9.155537605E0,-1.499701619E0,3.585943937E0
7.505079004E1,-8.477770805E0,-1.310369492E0,3.753740549E0
7.509079004E1,-8.918349266E0,-1.298405409E0,4.180261135E0
7.513079004E1,-8.516056061E0,-1.322333574E0,4.216153622E0
7.517079004E1,-8.520841599E0,-1.353440285E0,4.129712582E0
7.521079004E1,-8.932705879E0,-1.293619752E0,3.940679789E0
7.525079004E1,-8.784351349E0,-1.403689623E0,3.818346739E0
7.529079004E1,-8.750851631E0,-1.363011599E0,3.859024763E0
7.533079004E1,-8.662017822E0,-1.363011599E0,3.928715706E0
7.537079004E1,-8.880064011E0,-1.334297776E0,3.832703590E0
7.541079004E1,-8.863314629E0,-1.315155149E0,3.859024763E0
7.545079004E1,-8.868100166E0,-1.324726462E0,3.813561201E0
7.549079004E1,-8.750851631E0,-1.296012521E0,3.787240028E0
7.553079004E1,-8.832207680E0,-1.317547917E0,3.820739508E0
7.557079004E1,-8.846564293E0,-1.331904888E0,3.856631994E0
7.561079004E1,-8.796315193E0,-1.403689623E0,3.895216227E0
7.565079004E1,-8.707780838E0,-1.391725421E0,4.146462440E0
7.569079004E1,-8.386544228E0,-1.312762380E0,4.323830605E0
7.573079004E1,-8.530412674E0,-1.401296735E0,4.302295208E0
7.577079004E1,-8.606983185E0,-1.370190024E0,4.194618225E0
7.581079004E1,-8.781958580E0,-1.413260818E0,4.024428368E0
7.585079004E1,-8.889635086E0,-1.372582912E0,3.777668715E0
7.589079004E1,-8.932705879E0,-1.334297776E0,3.801596880E0
7.593079004E1,-8.724530220E0,-1.307976723E0,3.947858334E0
7.597079004E1,-8.549555779E0,-1.310369492E0,4.120141506E0
7.601079004E1,-8.539983749E0,-1.408475280E0,4.271188259E0
7.605079004E1,-8.923134804E0,-1.408475280E0,3.981357813E0
7.609079004E1,-8.865707397E0,-1.410868049E0,3.849453449E0
7.613079004E1,-8.846564293E0,-1.348654628E0,3.907180309E0
7.617079004E1,-8.468199730E0,-1.363011599E0,4.110570431E0
7.621079004E1,-8.484949112E0,-1.336690545E0,4.259224415E0
7.625079004E1,-8.817850113E0,-1.403689623E0,4.124927044E0
7.629079004E1,-8.789136887E0,-1.284048438E0,3.665206194E0
7.633079004E1,-8.963812828E0,-1.319940805E0,3.895216227E0
7.637079004E1,-8.609375954E0,-1.406082392E0,4.045963764E0
7.641079004E1,-8.511270523E0,-1.410868049E0,4.074677944E0
7.645079004E1,-8.621339798E0,-1.389332652E0,4.244867325E0
7.649079004E1,-8.707780838E0,-1.396511078E0,4.156332970E0
7.653079004E1,-8.858528137E0,-1.418046474E0,3.780061483E0
7.657079004E1,-8.925527573E0,-1.506880045E0,3.739383698E0
7.661079004E1,-8.915956497E0,-1.363011599E0,3.741776466E0
7.665079004E1,-8.767601013E0,-1.322333574E0,3.801596880E0
7.669079004E1,-8.647661209E0,-1.293619752E0,3.969393730E0
7.673079004E1,-8.758029938E0,-1.406082392E0,4.002892971E0
7.677079004E1,-8.803493500E0,-1.434796333E0,3.974179268E0
7.681079004E1,-8.724530220E0,-1.461117268E0,3.868596077E0
7.685079004E1,-8.813064575E0,-1.478166223E0,3.902394533E0
7.689079004E1,-8.767601013E0,-1.408475280E0,3.890430450E0
7.693079004E1,-8.707780838E0,-1.348654628E0,3.940679789E0
7.697079004E1,-8.808279037E0,-1.372582912E0,3.969393730E0
7.701079004E1,-8.743673325E0,-1.391725421E0,3.895216227E0
7.705079004E1,-8.685946465E0,-1.422832131E0,3.892823458E0
7.709079004E1,-8.817850113E0,-1.439581871E0,3.888037682E0
7.713079004E1,-8.743673325E0,-1.437189102E0,3.897608995E0
7.717079004E1,-8.848957062E0,-1.425225019E0,3.892823458E0
7.721079004E1,-8.741280556E0,-1.358225942E0,3.868596077E0
7.725079004E1,-8.748458862E0,-1.410868049E0,3.811168194E0
7.729079004E1,-8.767601013E0,-1.343868971E0,3.945465326E0
7.733079004E1,-8.719744682E0,-1.490130305E0,3.983750582E0
7.737079004E1,-8.724530220E0,-1.420439363E0,3.931108475E0
7.741079004E1,-8.915956497E0,-1.418046474E0,3.892823458E0
7.745079004E1,-8.755637169E0,-1.439581871E0,3.873381615E0
7.749079004E1,-8.803493500E0,-1.415653706E0,3.890430450E0
7.753079004E1,-8.736495018E0,-1.396511078E0,3.854238987E0
7.757079004E1,-8.758029938E0,-1.394118309E0,3.911965847E0
7.761079004E1,-8.932705879E0,-1.470688581E0,3.916751623E0
7.765079004E1,-8.659625053E0,-1.456331730E0,3.856631994E0
7.769079004E1,-8.640482903E0,-1.487737536E0,3.849453449E0
7.773079004E1,-8.640482903E0,-1.487737536E0,3.849453449E0
7.777079004E1,-8.640482903E0,-1.487737536E0,3.849453449E0
7.781079004E1,-8.640482903E0,-1.487737536E0,3.849453449E0
7.785079004E1,-8.640482903E0,-1.487737536E0,3.849453449E0
7.789079004E1,-8.640482903E0,-1.487737536E0,3.849453449E0
7.793079004E1,-8.640482903E0,-1.487737536E0,3.849453449E0
7.797079004E1,-8.640482903E0,-1.487737536E0,3.849453449E0
7.801079004E1,-8.640482903E0,-1.487737536E0,3.849453449E0
7.805079004E1,-8.640482903E0,-1.487737536E0,3.849453449E0
7.809079004E1,-8.640482903E0,-1.487737536E0,3.849453449E0
7.813079004E1,-8.640482903E0,-1.487737536E0,3.849453449E0
7.817079004E1,-8.640482903E0,-1.487737536E0,3.849453449E0
7.821079004E1,-8.640482903E0,-1.487737536E0,3.849453449E0
7.825079004E1,-8.640482903E0,-1.487737536E0,3.849453449E0
7.829079004E1,-8.640482903E0,-1.487737536E0,3.849453449E0
7.833079004E1,-8.640482903E0,-1.487737536E0,3.849453449E0
7.837079004E1,-8.640482903E0,-1.487737536E0,3.849453449E0
7.841079004E1,-8.640482903E0,-1.487737536E0,3.849453449E0
7.845079004E1,-8.640482903E0,-1.487737536E0,3.849453449E0
7.849079004E1,-8.640482903E0,-1.487737536E0,3.849453449E0
7.853079004E1,-8.640482903E0,-1.487737536E0,3.849453449E0
7.857079004E1,-8.640482903E0,-1.487737536E0,3.849453449E0
7.861079004E1,-8.640482903E0,-1.487737536E0,3.849453449E0
7.865079004E1,-8.640482903E0,-1.487737536E0,3.849453449E0
7.869079004E1,-8.640482903E0,-1.487737536E0,3.849453449E0
7.873079004E1,-8.640482903E0,-1.487737536E0,3.849453449E0
7.877079004E1,-8.640482903E0,-1.487737536E0,3.849453449E0
7.881079004E1,-8.640482903E0,-1.487737536E0,3.849453449E0
7.885079004E1,-8.640482903E0,-1.487737536E0,3.849453449E0
7.889079004E1,-8.640482903E0,-1.487737536E0,3.849453449E0
7.893079004E1,-8.640482903E0,-1.487737536E0,3.849453449E0
7.897079004E1,-8.640482903E0,-1.487737536E0,3.849453449E0
7.901079004E1,-8.640482903E0,-1.487737536E0,3.849453449E0
7.905079004E1,-8.640482903E0,-1.487737536E0,3.849453449E0
7.909079004E1,-8.640482903E0,-1.487737536E0,3.849453449E0
7.913079004E1,-8.640482903E0,-1.487737536E0,3.849453449E0
7.917079004E1,-8.640482903E0,-1.487737536E0,3.849453449E0
7.921079004E1,-8.354839325E0,-1.221236825E0,4.169493675E0
7.925079004E1,-8.463413239E0,-1.278066397E0,4.362115860E0
7.929079004E1,-8.642875671E0,-1.444367528E0,4.302295208E0
7.933079004E1,-8.820243835E0,-1.480558991E0,4.218546391E0
7.937079004E1,-8.609375954E0,-1.509272933E0,4.158725739E0
7.941079004E1,-8.813064575E0,-1.422832131E0,4.156332970E0
7.945079004E1,-8.662017822E0,-1.231406331E0,4.206582069E0
7.949079004E1,-8.468199730E0,-1.353440285E0,4.383651257E0
7.953079004E1,-8.585447311E0,-1.324726462E0,4.314259052E0
7.957079004E1,-8.616554260E0,-1.384546995E0,4.170690060E0
7.961079004E1,-8.580661774E0,-1.358225942E0,4.089034557E0
7.965079004E1,-8.848957062E0,-1.396511078E0,4.149154663E0
7.969079004E1,-8.530412674E0,-1.396511078E0,4.139284134E0
7.973079004E1,-8.712566376E0,-1.363011599E0,4.134498596E0
7.977079004E1,-8.618947029E0,-1.406082392E0,4.170690060E0
7.981079004E1,-8.618947029E0,-1.422832131E0,4.326223373E0
7.985079004E1,-8.499305725E0,-1.408475280E0,4.283152580E0
7.989079004E1,-8.621339798E0,-1.341476202E0,4.201796532E0
7.993079004E1,-8.659625053E0,-1.482951880E0,4.249652863E0
7.997079004E1,-8.659625053E0,-1.372582912E0,4.108177185E0
8.001079004E1,-8.734101295E0,-1.334297776E0,4.089034557E0
8.005079004E1,-8.642875671E0,-1.296012521E0,4.129712582E0
8.009079004E1,-8.592626572E0,-1.374975681E0,4.189832687E0
8.013079004E1,-8.578269005E0,-1.396511078E0,4.249652863E0
8.017079004E1,-8.516056061E0,-1.473380566E0,4.225724697E0
8.021079004E1,-8.654839516E0,-1.456331730E0,4.232903481E0
8.025079004E1,-8.693124771E0,-1.418046474E0,4.235296249E0
8.029079004E1,-8.678768158E0,-1.499701619E0,4.173082829E0
8.033079004E1,-8.673981667E0,-1.391725421E0,4.010071754E0
8.037079004E1,-8.722137451E0,-1.478166223E0,4.000500202E0
8.041079004E1,-8.769993782E0,-1.480558991E0,4.074677944E0
8.045079004E1,-8.695517540E0,-1.549950838E0,4.057928085E0
8.049079004E1,-8.717351913E0,-1.449153185E0,4.084249020E0
8.053079004E1,-8.662017822E0,-1.434796333E0,4.050749779E0
8.057079004E1,-8.750851631E0,-1.473380566E0,4.228117466E0
8.061079004E1,-8.815457344E0,-1.446760416E0,4.170690060E0
8.065079004E1,-7.986643791E0,-1.168893814E0,4.352544308E0
8.069079004E1,-8.211868286E0,-1.453938842E0,4.388436794E0
8.073079004E1,-9.093324661E0,-1.731805444E0,4.127319813E0
8.077079004E1,-8.506484032E0,-1.727019787E0,4.168296814E0
8.081079004E1,-8.585447311E0,-1.657627940E0,4.062713623E0
8.085079004E1,-9.124430656E0,-1.738983870E0,3.765704632E0
8.089079004E1,-8.729315758E0,-2.014756680E0,4.077070713E0
8.093079004E1,-8.839385986E0,-1.945065737E0,3.971786499E0
8.097079004E1,-8.511270523E0,-1.703091502E0,4.007678986E0
8.101079004E1,-8.738887787E0,-1.825424552E0,3.796811342E0
8.105079004E1,-8.779565811E0,-1.875673890E0,3.602693558E0
8.109079004E1,-9.045467377E0,-1.966601133E0,3.734597921E0
8.113079004E1,-9.349655151E0,-2.210968018E0,4.208974838E0
8.117079004E1,-8.645268440E0,-2.009970903E0,3.888037682E0
8.121079004E1,-8.678768158E0,-1.916351795E0,3.775275946E0
8.125079004E1,-9.256335258E0,-1.451546073E0,3.387339592E0
8.129079004E1,-9.962816238E0,-1.178465128E0,3.075674295E0
8.133079004E1,-1.141466141E1,-1.209870934E0,5.035396099E0
8.137079004E1,-1.012582684E1,-1.185643673E0,2.323729992E0
8.141079004E1,-9.122037888E0,-9.607182741E-1,3.212364435E0
8.145079004E1,-6.163611889E0,-8.958129883E-1,2.448156595E0
8.149079004E1,-5.349154949E0,9.810572863E-2,2.680559635E0
8.153079004E1,-7.663313389E0,3.329014480E-1,3.008675337E0
8.157079004E1,-1.318953705E1,-7.785646915E-1,5.270191669E0
8.161079004E1,-9.553344727E0,5.509474277E-1,3.571586847E0
8.165079004E1,-6.587739944E0,5.318048596E-1,3.516551971E0
8.169079004E1,-9.083752632E0,-7.546364665E-1,3.746562004E0
8.173079004E1,-1.013539886E1,-6.852445602E-1,3.674777269E0
8.177079004E1,-8.590232849E0,-6.514459848E-1,3.044567823E0
8.181079004E1,-9.474081993E0,-5.629115105E-1,2.908176899E0
8.185079004E1,-9.232108116E0,-3.831507266E-1,3.224328518E0
8.189079004E1,-9.261120796E0,7.178468257E-2,2.989532709E0
8.193079004E1,-9.392725945E0,2.204387933E-1,3.049353361E0
8.197079004E1,-8.930313110E0,1.028913707E-1,3.032603502E0
8.201079004E1,-9.244371414E0,-1.268195957E-1,2.965604544E0
8.205079004E1,-9.421440125E0,-1.701895148E-1,3.078366280E0
8.209079004E1,-9.165108681E0,-1.965105534E-1,2.838784933E0
8.213079004E1,-9.227322578E0,-5.503492057E-2,2.970390320E0
8.217079004E1,-9.349655151E0,-1.196411345E-2,3.092723370E0
8.221079004E1,-9.165108681E0,-4.546362907E-2,3.085544825E0
8.225079004E1,-9.102895737E0,-1.414756328E-1,3.229114056E0
8.229079004E1,-9.093324661E0,-5.982056633E-2,3.269792080E0
8.233079004E1,-9.306584358E0,-3.807578981E-1,3.341576815E0
8.237079004E1,-8.908778191E0,-3.257229924E-1,3.267399311E0
8.241079004E1,-9.198608398E0,-2.515454888E-1,3.324826956E0
8.245079004E1,-9.167501450E0,-2.395813614E-1,3.339184046E0
8.249079004E1,-9.033503532E0,-8.614161611E-2,3.241078377E0
8.253079004E1,-9.273084641E0,-1.677966863E-1,3.224328518E0
8.257079004E1,-9.174679756E0,-1.630110443E-1,3.018246651E0
8.261079004E1,-9.273084641E0,-2.228316069E-1,3.154936552E0
8.265079004E1,-9.000003815E0,-1.244267747E-1,3.097508907E0
8.269079004E1,-9.285049438E0,-1.797607988E-1,3.099901676E0
8.273079004E1,-9.117252350E0,-1.821536273E-1,3.188436270E0
8.277079004E1,-9.162715912E0,-1.316052526E-1,3.186043262E0
8.281079004E1,-9.232108116E0,-2.300100774E-1,3.229114056E0
8.285079004E1,-9.050253868E0,-1.821536273E-1,3.174079180E0
8.289079004E1,-9.217751503E0,-1.701895148E-1,3.229114056E0
8.293079004E1,-9.169894218E0,-2.084746659E-1,3.269792080E0
8.297079004E1,-9.126823425E0,-1.773679852E-1,3.150151014E0
8.301079004E1,-9.215357780E0,-1.630110443E-1,3.186043262E0
8.305079004E1,-9.134002686E0,-1.582254022E-1,3.174079180E0
8.309079004E1,-9.143573761E0,-1.316052526E-1,3.178864956E0
8.313079004E1,-9.155537605E0,-1.821536273E-1,3.186043262E0
8.317079004E1,-9.203393936E0,-1.414756328E-1,3.154936552E0
8.321079004E1,-9.126823425E0,-1.965105534E-1,3.186043262E0
8.325079004E1,-9.229715347E0,-2.467598319E-1,3.123830080E0
8.329079004E1,-9.232108116E0,-1.630110443E-1,3.186043262E0
8.333079004E1,-9.086145401E0,-1.292124242E-1,3.178864956E0
8.337079004E1,-9.263513565E0,-1.701895148E-1,3.217149973E0
8.341079004E1,-9.122037888E0,-1.677966863E-1,3.138186932E0
8.345079004E1,-9.268299103E0,-1.869392693E-1,3.142972469E0
