Time (s),Acceleration x (m/s^2),Acceleration y (m/s^2),Acceleration z (m/s^2),Datetime
0.0,-2.393121719,5.952744484,7.809275627,2024-06-04 16:15:10.000000
0.009793966,-2.460120678,5.998208046,10.56161976,2024-06-04 16:15:10.009794
0.049793966,-2.088934183,6.132505417,11.59412289,2024-06-04 16:15:10.049794
0.089793966,-2.510370016,6.115755558,6.99003315,2024-06-04 16:15:10.089794
0.129793966,-2.510370016,6.115755558,6.99003315,2024-06-04 16:15:10.129794
0.169793966,-1.811067581,6.436692715,7.642974854,2024-06-04 16:15:10.169794
0.209793966,-1.520040631,6.704988003,7.105187893,2024-06-04 16:15:10.209794
0.249793966,-0.7953144312,6.792325974,7.71475935,2024-06-04 16:15:10.249794
0.289793966,-0.6251249313,6.838088989,5.969494343,2024-06-04 16:15:10.289794
0.329793966,-1.336690545,6.509674072,7.391428947,2024-06-04 16:15:10.329794
0.369793966,-0.1256231815,6.059524059,7.568498135,2024-06-04 16:15:10.369794
0.409793966,0.1414756328,7.017550468,6.156433582,2024-06-04 16:15:10.409794
0.449793966,-1.924726725,4.315455437,7.36151886,2024-06-04 16:15:10.449794
0.489793966,-2.391925335,5.521737576,9.772586823,2024-06-04 16:15:10.489794
0.529793966,-0.1905284971,1.84456718,8.725727081,2024-06-04 16:15:10.529794
0.569793966,1.994118571,0.1438684613,14.05932808,2024-06-04 16:15:10.569794
0.609793966,5.264209747,-1.669592023,21.35833549,2024-06-04 16:15:10.609794
0.649793966,5.264209747,-1.669592023,21.35833549,2024-06-04 16:15:10.649794
0.689793966,5.264209747,-1.669592023,21.35833549,2024-06-04 16:15:10.689794
0.729793966,5.264209747,-1.669592023,21.35833549,2024-06-04 16:15:10.729794
0.769793966,5.264209747,-1.669592023,21.35833549,2024-06-04 16:15:10.769794
0.809793966,5.264209747,-1.669592023,21.35833549,2024-06-04 16:15:10.809794
0.849793966,5.264209747,-1.669592023,21.35833549,2024-06-04 16:15:10.849794
0.889793966,5.264209747,-1.669592023,21.35833549,2024-06-04 16:15:10.889794
0.929793966,5.264209747,-1.669592023,21.35833549,2024-06-04 16:15:10.929794
0.969793966,5.264209747,-1.669592023,21.35833549,2024-06-04 16:15:10.969794
1.009793966,5.264209747,-1.669592023,21.35833549,2024-06-04 16:15:11.009794
1.049793966,5.264209747,-1.669592023,21.35833549,2024-06-04 16:15:11.049794
1.089793966,5.264209747,-1.669592023,21.35833549,2024-06-04 16:15:11.089794
1.129793966,5.264209747,-1.669592023,21.35833549,2024-06-04 16:15:11.129794
1.169793966,5.264209747,-1.669592023,21.35833549,2024-06-04 16:15:11.169794
1.209793966,5.264209747,-1.669592023,21.35833549,2024-06-04 16:15:11.209794
1.249793966,5.264209747,-1.669592023,21.35833549,2024-06-04 16:15:11.249794
1.289793966,1.430010676,6.017350674,7.2535429,2024-06-04 16:15:11.289794
1.329793966,1.500898004,5.841478348,7.873881817,2024-06-04 16:15:11.329794
1.369793966,1.500898004,5.841478348,7.873881817,2024-06-04 16:15:11.369794
1.409793966,1.425225019,4.628017902,10.70668507,2024-06-04 16:15:11.409794
1.449793966,2.126022816,5.073681355,10.66481018,2024-06-04 16:15:11.449794
1.489793966,2.966800928,5.755336761,9.750752449,2024-06-04 16:15:11.489794
1.529793966,2.20618248,5.643771172,8.845368385,2024-06-04 16:15:11.529794
1.569793966,2.716451883,5.707180977,8.01416111,2024-06-04 16:15:11.569794
1.609793966,2.482852697,5.288137913,8.186743736,2024-06-04 16:15:11.609794
1.649793966,1.824228168,4.998307228,8.376973152,2024-06-04 16:15:11.649794
1.689793966,2.797807932,5.36111927,7.307381153,2024-06-04 16:15:11.689794
1.729793966,3.405285835,5.217250824,7.616354465,2024-06-04 16:15:11.729794
1.769793966,2.501995087,5.2737813,5.798407555,2024-06-04 16:15:11.769794
1.809793966,3.247060299,5.760122299,6.678667068,2024-06-04 16:15:11.809794
1.849793966,3.92392993,6.166004658,6.937391281,2024-06-04 16:15:11.849794
1.889793966,2.261217356,5.846263885,6.291927338,2024-06-04 16:15:11.889794
1.929793966,3.201596737,5.896512985,7.544569969,2024-06-04 16:15:11.929794
1.969793966,2.486441851,5.974279881,6.541976929,2024-06-04 16:15:11.969794
2.009793966,2.537887573,5.793622017,7.523034573,2024-06-04 16:15:12.009794
2.049793966,2.387139797,5.49421978,8.374580383,2024-06-04 16:15:12.049794
2.089793966,2.027917147,5.784050465,6.442675114,2024-06-04 16:15:12.089794
2.129793966,2.376372099,5.735895157,7.003193855,2024-06-04 16:15:12.129794
2.169793966,2.173879385,6.106184483,6.028417587,2024-06-04 16:15:12.169794
2.209793966,1.465902925,4.298706055,4.637589455,2024-06-04 16:15:12.209794
2.249793966,0.1268195957,2.151147604,1.901994944,2024-06-04 16:15:12.249794
2.289793966,0.1268195957,2.151147604,1.901994944,2024-06-04 16:15:12.289794
2.329793966,0.1268195957,2.151147604,1.901994944,2024-06-04 16:15:12.329794
2.369793966,4.892724037,-1.870888233,6.858428001,2024-06-04 16:15:12.369794
2.409793966,4.892724037,-1.870888233,6.858428001,2024-06-04 16:15:12.409794
2.449793966,4.892724037,-1.870888233,6.858428001,2024-06-04 16:15:12.449794
2.489793966,4.892724037,-1.870888233,6.858428001,2024-06-04 16:15:12.489794
2.529793966,4.892724037,-1.870888233,6.858428001,2024-06-04 16:15:12.529794
2.569793966,4.892724037,-1.870888233,6.858428001,2024-06-04 16:15:12.569794
2.609793966,4.214957237,-3.003889799,7.683652401,2024-06-04 16:15:12.609794
2.649793966,4.214957237,-3.003889799,7.683652401,2024-06-04 16:15:12.649794
2.689793966,4.214957237,-3.003889799,7.683652401,2024-06-04 16:15:12.689794
2.729793966,4.214957237,-3.003889799,7.683652401,2024-06-04 16:15:12.729794
2.769793966,4.214957237,-3.003889799,7.683652401,2024-06-04 16:15:12.769794
2.809793966,4.214957237,-3.003889799,7.683652401,2024-06-04 16:15:12.809794
2.849793966,4.214957237,-3.003889799,7.683652401,2024-06-04 16:15:12.849794
2.889793966,4.214957237,-3.003889799,7.683652401,2024-06-04 16:15:12.889794
2.929793966,9.961619377,0.6888338327,10.14736271,2024-06-04 16:15:12.929794
2.969793966,-0.3281157911,-4.105784416,15.88445377,2024-06-04 16:15:12.969794
3.009793966,11.27198887,6.385247231,6.794719219,2024-06-04 16:15:13.009794
3.049793966,-4.085445404,0.4803591371,5.696413517,2024-06-04 16:15:13.049794
3.089793966,-4.000500202,0.4671986103,12.29492092,2024-06-04 16:15:13.089794
3.129793966,-0.2180459648,-1.573879123,11.68175983,2024-06-04 16:15:13.129794
3.169793966,-4.890331268,-3.508177042,7.176972389,2024-06-04 16:15:13.169794
3.209793966,-5.599503994,-4.569394112,10.08156013,2024-06-04 16:15:13.209794
3.249793966,-5.666502953,-3.86620307,5.859424591,2024-06-04 16:15:13.249794
3.289793966,-6.468996048,-3.735794306,8.842975616,2024-06-04 16:15:13.289794
3.329793966,-8.125427246,-4.617250443,6.725327015,2024-06-04 16:15:13.329794
3.369793966,-3.052942514,-1.704287887,5.393422127,2024-06-04 16:15:13.369794
3.409793966,-1.756032705,0.157028988,9.081359863,2024-06-04 16:15:13.409794
3.449793966,-6.283253193,2.032702923,6.99003315,2024-06-04 16:15:13.449794
3.489793966,-6.109773636,2.364407778,5.55882597,2024-06-04 16:15:13.489794
3.529793966,-3.424428225,-0.1558325738,6.921837807,2024-06-04 16:15:13.529794
3.569793966,-6.832107067,-2.44935298,4.438984871,2024-06-04 16:15:13.569794
3.609793966,-8.106285095,-2.977568626,8.231010437,2024-06-04 16:15:13.609794
3.649793966,-7.72552681,-3.104687452,7.906484127,2024-06-04 16:15:13.649794
3.689793966,-9.104091644,-0.4289134443,8.131409645,2024-06-04 16:15:13.689794
3.729793966,-8.737690926,1.849352837,6.822236538,2024-06-04 16:15:13.729794
3.769793966,-5.314459324,0.2491526604,7.018746853,2024-06-04 16:15:13.769794
3.809793966,-8.111070633,-2.505584478,7.823632717,2024-06-04 16:15:13.809794
3.849793966,-7.085746288,-2.026720762,6.587739944,2024-06-04 16:15:13.849794
3.889793966,-6.652346134,-4.225724697,7.170990467,2024-06-04 16:15:13.889794
3.929793966,-5.93719101,-1.978565216,7.216454029,2024-06-04 16:15:13.929794
3.969793966,-5.93719101,-1.978565216,7.216454029,2024-06-04 16:15:13.969794
4.009793966,-5.93719101,-1.978565216,7.216454029,2024-06-04 16:15:14.009794
4.049793966,-5.93719101,-1.978565216,7.216454029,2024-06-04 16:15:14.049794
4.089793966,-5.93719101,-1.978565216,7.216454029,2024-06-04 16:15:14.089794
4.129793966,-5.93719101,-1.978565216,7.216454029,2024-06-04 16:15:14.129794
4.169793966,-5.93719101,-1.978565216,7.216454029,2024-06-04 16:15:14.169794
4.209793966,-5.93719101,-1.978565216,7.216454029,2024-06-04 16:15:14.209794
4.249793966,-5.93719101,-1.978565216,7.216454029,2024-06-04 16:15:14.249794
4.289793966,-5.93719101,-1.978565216,7.216454029,2024-06-04 16:15:14.289794
4.329793966,-5.93719101,-1.978565216,7.216454029,2024-06-04 16:15:14.329794
4.369793966,-5.93719101,-1.978565216,7.216454029,2024-06-04 16:15:14.369794
4.409793966,-5.93719101,-1.978565216,7.216454029,2024-06-04 16:15:14.409794
4.449793966,-5.93719101,-1.978565216,7.216454029,2024-06-04 16:15:14.449794
4.489793966,-5.93719101,-1.978565216,7.216454029,2024-06-04 16:15:14.489794
4.529793966,-5.93719101,-1.978565216,7.216454029,2024-06-04 16:15:14.529794
4.569793966,-5.93719101,-1.978565216,7.216454029,2024-06-04 16:15:14.569794
4.609793966,-1.218245864,-2.500798702,8.579465866,2024-06-04 16:15:14.609794
4.649793966,-1.741675735,-2.427817583,8.168797493,2024-06-04 16:15:14.649794
4.689793966,-0.7247261405,-2.3201406,8.131409645,2024-06-04 16:15:14.689794
4.729793966,-1.160519004,-1.729412556,8.402097702,2024-06-04 16:15:14.729794
4.769793966,-2.825624466,-3.372982502,10.48744297,2024-06-04 16:15:14.769794
4.809793966,-3.356232882,-3.390928745,10.01545811,2024-06-04 16:15:14.809794
4.849793966,-4.265206337,-1.630110383,8.271688461,2024-06-04 16:15:14.849794
4.889793966,-2.572882652,-3.643670797,6.682256222,2024-06-04 16:15:14.889794
4.929793966,-6.5288167,-5.208875656,7.815258026,2024-06-04 16:15:14.929794
4.969793966,-5.268995285,-3.698705673,7.546962738,2024-06-04 16:15:14.969794
5.009793966,-6.180361748,-3.762115479,6.610471725,2024-06-04 16:15:15.009794
5.049793966,-7.321738243,-3.971786499,7.068996429,2024-06-04 16:15:15.049794
5.089793966,-7.696813107,-2.641077995,6.893123627,2024-06-04 16:15:15.089794
5.129793966,-6.330212116,-3.16570425,6.649953365,2024-06-04 16:15:15.129794
5.169793966,-6.703791618,-4.377668858,5.555236816,2024-06-04 16:15:15.169794
5.209793966,-6.47497797,-2.565704107,4.939383984,2024-06-04 16:15:15.209794
5.249793966,-6.62243557,-2.819642305,6.623631954,2024-06-04 16:15:15.249794
5.289793966,-7.302595615,-3.168097258,7.561319351,2024-06-04 16:15:15.289794
5.329793966,-6.708577156,-1.043270707,8.139784813,2024-06-04 16:15:15.329794
5.369793966,-6.811468601,-0.9882357717,6.311069489,2024-06-04 16:15:15.369794
5.409793966,-7.306184769,-2.10209465,8.191529274,2024-06-04 16:15:15.409794
5.449793966,-8.451449394,-1.104287624,7.4010005,2024-06-04 16:15:15.449794
5.489793966,-9.110074043,-1.131805062,6.259325027,2024-06-04 16:15:15.489794
5.529793966,-7.459624767,-1.031306505,6.486942291,2024-06-04 16:15:15.529794
5.569793966,-6.944569588,-0.5784648657,5.294120312,2024-06-04 16:15:15.569794
5.609793966,-7.395018578,-0.613160789,5.922834396,2024-06-04 16:15:15.609794
5.649793966,-7.395018578,-0.613160789,5.922834396,2024-06-04 16:15:15.649794
5.689793966,-7.395018578,-0.613160789,5.922834396,2024-06-04 16:15:15.689794
5.729793966,-7.395018578,-0.613160789,5.922834396,2024-06-04 16:15:15.729794
5.769793966,-7.395018578,-0.613160789,5.922834396,2024-06-04 16:15:15.769794
5.809793966,-7.395018578,-0.613160789,5.922834396,2024-06-04 16:15:15.809794
5.849793966,-7.395018578,-0.613160789,5.922834396,2024-06-04 16:15:15.849794
5.889793966,-7.395018578,-0.613160789,5.922834396,2024-06-04 16:15:15.889794
5.929793966,-7.395018578,-0.613160789,5.922834396,2024-06-04 16:15:15.929794
5.969793966,-7.395018578,-0.613160789,5.922834396,2024-06-04 16:15:15.969794
6.009793966,-7.395018578,-0.613160789,5.922834396,2024-06-04 16:15:16.009794
6.049793966,-7.395018578,-0.613160789,5.922834396,2024-06-04 16:15:16.049794
6.089793966,-7.395018578,-0.613160789,5.922834396,2024-06-04 16:15:16.089794
6.129793966,-7.395018578,-0.613160789,5.922834396,2024-06-04 16:15:16.129794
6.169793966,-7.395018578,-0.613160789,5.922834396,2024-06-04 16:15:16.169794
6.209793966,-7.395018578,-0.613160789,5.922834396,2024-06-04 16:15:16.209794
6.249793966,-6.262914181,-5.45085001,4.006482601,2024-06-04 16:15:16.249794
6.289793966,-8.748458862,-4.923830986,6.80309391,2024-06-04 16:15:16.289794
6.329793966,-7.799704552,-3.208775282,-2.568096876,2024-06-04 16:15:16.329794
6.369793966,-3.573979616,-0.941575706,6.501298904,2024-06-04 16:15:16.369794
6.409793966,-9.138788223,-0.9619147182,5.036592484,2024-06-04 16:15:16.409794
6.449793966,-9.190233231,-7.755437374,3.26141715,2024-06-04 16:15:16.449794
6.489793966,-8.234600067,-10.7042923,6.530013084,2024-06-04 16:15:16.489794
6.529793966,-9.295816422,-7.299006462,5.094020367,2024-06-04 16:15:16.529794
6.569793966,-12.18245792,-7.954340458,4.522733688,2024-06-04 16:15:16.569794
6.609793966,-6.005386829,-6.217450619,1.710269928,2024-06-04 16:15:16.609794
6.649793966,-4.810171604,-0.1414756328,2.228914261,2024-06-04 16:15:16.649794
6.689793966,-7.38664341,2.641077995,6.101398468,2024-06-04 16:15:16.689794
6.729793966,-9.125627518,-1.248156071,7.348059177,2024-06-04 16:15:16.729794
6.769793966,-9.589237213,-7.990232944,2.867498875,2024-06-04 16:15:16.769794
6.809793966,-9.490832329,-5.655735493,4.816154003,2024-06-04 16:15:16.809794
6.849793966,-9.150752068,-4.588536739,5.064109802,2024-06-04 16:15:16.849794
6.889793966,-8.343473434,-2.749951363,5.595914841,2024-06-04 16:15:16.889794
6.929793966,-4.653142929,1.479362607,6.091827393,2024-06-04 16:15:16.929794
6.969793966,-3.089133978,-0.05623133108,7.908876896,2024-06-04 16:15:16.969794
7.009793966,-11.3449707,0.8814560175,4.065106392,2024-06-04 16:15:17.009794
7.049793966,-7.983054638,2.079362869,0.7187440991,2024-06-04 16:15:17.049794
7.089793966,3.443570852,2.11645174,-1.521237016,2024-06-04 16:15:17.089794
7.129793966,11.1128664,2.547757864,9.040681839,2024-06-04 16:15:17.129794
7.169793966,-1.767996788,-2.816053152,12.03739357,2024-06-04 16:15:17.169794
7.209793966,-5.834300041,-10.92114162,2.912962437,2024-06-04 16:15:17.209794
7.249793966,5.052145958,-9.126823425,-0.7953144312,2024-06-04 16:15:17.249794
7.289793966,5.052145958,-9.126823425,-0.7953144312,2024-06-04 16:15:17.289794
7.329793966,5.052145958,-9.126823425,-0.7953144312,2024-06-04 16:15:17.329794
7.369793966,-5.749055386,2.340479612,6.827321053,2024-06-04 16:15:17.369794
7.409793966,-5.749055386,2.340479612,6.827321053,2024-06-04 16:15:17.409794
7.449793966,-5.749055386,2.340479612,6.827321053,2024-06-04 16:15:17.449794
7.489793966,-5.749055386,2.340479612,6.827321053,2024-06-04 16:15:17.489794
7.529793966,-5.749055386,2.340479612,6.827321053,2024-06-04 16:15:17.529794
7.569793966,-5.749055386,2.340479612,6.827321053,2024-06-04 16:15:17.569794
7.609793966,-5.749055386,2.340479612,6.827321053,2024-06-04 16:15:17.609794
7.649793966,-5.749055386,2.340479612,6.827321053,2024-06-04 16:15:17.649794
7.689793966,-5.749055386,2.340479612,6.827321053,2024-06-04 16:15:17.689794
7.729793966,-5.749055386,2.340479612,6.827321053,2024-06-04 16:15:17.729794
7.769793966,-5.749055386,2.340479612,6.827321053,2024-06-04 16:15:17.769794
7.809793966,-5.749055386,2.340479612,6.827321053,2024-06-04 16:15:17.809794
7.849793966,-5.749055386,2.340479612,6.827321053,2024-06-04 16:15:17.849794
7.889793966,-5.749055386,2.340479612,6.827321053,2024-06-04 16:15:17.889794
7.929793966,-11.0491581,-12.02662563,4.716851711,2024-06-04 16:15:17.929794
7.969793966,-4.342973232,-8.512466431,2.76311183,2024-06-04 16:15:17.969794
8.009793966,-3.268595695,-5.237888813,3.789632797,2024-06-04 16:15:18.009794
8.049793966,-3.807579041,-3.070888758,3.361018419,2024-06-04 16:15:18.049794
8.089793966,-3.019443035,-3.605086327,3.783650875,2024-06-04 16:15:18.089794
8.129793966,-2.426621199,1.246959686,4.399204254,2024-06-04 16:15:18.129794
8.169793966,-4.235296249,-2.487638235,5.066503048,2024-06-04 16:15:18.169794
8.209793966,-5.455635548,-5.344369411,4.583750725,2024-06-04 16:15:18.209794
8.249793966,-5.40060091,-7.324131012,4.613661289,2024-06-04 16:15:18.249794
8.289793966,-5.586343765,-6.289534092,3.814757586,2024-06-04 16:15:18.289794
8.329793966,-7.222435951,-6.078666687,3.788436413,2024-06-04 16:15:18.329794
8.369793966,-7.165008068,-7.129116058,4.523930073,2024-06-04 16:15:18.369794
8.409793966,-5.992226124,-9.838389397,4.650749683,2024-06-04 16:15:18.409794
8.449793966,-5.809175014,-10.06839943,5.510969639,2024-06-04 16:15:18.449794
8.489793966,-7.812865257,-8.755637169,5.664110184,2024-06-04 16:15:18.489794
8.529793966,-7.860721588,-8.590232849,4.974379063,2024-06-04 16:15:18.529794
8.569793966,-5.00787878,-8.665607452,5.061717033,2024-06-04 16:15:18.569794
8.609793966,-4.680660248,-7.414160728,3.849453449,2024-06-04 16:15:18.609794
8.649793966,-4.357329845,-7.939983845,3.305684566,2024-06-04 16:15:18.649794
8.689793966,-4.654339314,-7.901698589,4.406383038,2024-06-04 16:15:18.689794
8.729793966,-5.904888153,-7.297810078,4.32263422,2024-06-04 16:15:18.729794
8.769793966,-7.48833847,-8.548358917,5.555236816,2024-06-04 16:15:18.769794
8.809793966,-6.864409924,-8.869296074,5.452046394,2024-06-04 16:15:18.809794
8.849793966,-6.948158741,-7.983054638,5.150251865,2024-06-04 16:15:18.849794
8.889793966,-6.732505798,-8.513663292,4.768297195,2024-06-04 16:15:18.889794
8.929793966,-6.732505798,-8.513663292,4.768297195,2024-06-04 16:15:18.929794
8.969793966,-6.732505798,-8.513663292,4.768297195,2024-06-04 16:15:18.969794
9.009793966,-6.732505798,-8.513663292,4.768297195,2024-06-04 16:15:19.009794
9.049793966,-6.732505798,-8.513663292,4.768297195,2024-06-04 16:15:19.049794
9.089793966,-6.732505798,-8.513663292,4.768297195,2024-06-04 16:15:19.089794
9.129793966,-6.732505798,-8.513663292,4.768297195,2024-06-04 16:15:19.129794
9.169793966,-6.732505798,-8.513663292,4.768297195,2024-06-04 16:15:19.169794
9.209793966,-6.732505798,-8.513663292,4.768297195,2024-06-04 16:15:19.209794
9.249793966,-6.732505798,-8.513663292,4.768297195,2024-06-04 16:15:19.249794
9.289793966,-6.732505798,-8.513663292,4.768297195,2024-06-04 16:15:19.289794
9.329793966,-6.732505798,-8.513663292,4.768297195,2024-06-04 16:15:19.329794
9.369793966,-6.732505798,-8.513663292,4.768297195,2024-06-04 16:15:19.369794
9.409793966,-6.732505798,-8.513663292,4.768297195,2024-06-04 16:15:19.409794
9.449793966,-6.732505798,-8.513663292,4.768297195,2024-06-04 16:15:19.449794
9.489793966,-6.732505798,-8.513663292,4.768297195,2024-06-04 16:15:19.489794
9.529793966,-6.732505798,-8.513663292,4.768297195,2024-06-04 16:15:19.529794
9.569793966,-7.147062302,-10.01067257,4.618446827,2024-06-04 16:15:19.569794
9.609793966,-7.047461033,-9.229715347,5.624628544,2024-06-04 16:15:19.609794
9.649793966,-5.894120216,-8.539983749,5.237888813,2024-06-04 16:15:19.649794
9.689793966,-4.600500584,-9.734002113,4.624428749,2024-06-04 16:15:19.689794
9.729793966,-5.437689304,-7.150651455,4.269991875,2024-06-04 16:15:19.729794
9.769793966,-4.787439823,-7.218846798,3.820739508,2024-06-04 16:15:19.769794
9.809793966,-5.309673309,-8.174779892,4.886742115,2024-06-04 16:15:19.809794
9.849793966,-5.618646622,-8.09312439,4.540679932,2024-06-04 16:15:19.849794
9.889793966,-7.889435291,-8.026124954,5.805585861,2024-06-04 16:15:19.889794
9.929793966,-7.823632717,-8.467002869,5.398207664,2024-06-04 16:15:19.929794
9.969793966,-6.042774677,-7.70040226,4.974379063,2024-06-04 16:15:19.969794
10.00979397,-7.023532867,-7.460821152,5.300102234,2024-06-04 16:15:20.009794
10.04979397,-6.902695179,-7.178168774,5.490630627,2024-06-04 16:15:20.049794
10.08979397,-5.845067501,-4.879563808,3.897608995,2024-06-04 16:15:20.089794
10.12979397,-3.989732742,-3.781257868,4.216153622,2024-06-04 16:15:20.129794
10.16979397,-2.893819809,-1.823031783,4.59691143,2024-06-04 16:15:20.169794
10.20979397,-2.9476583,-1.547558069,4.629214287,2024-06-04 16:15:20.209794
10.24979397,-1.790728688,0.2599203587,3.468695641,2024-06-04 16:15:20.249794
10.28979397,-3.01226449,-0.9340981245,4.028017998,2024-06-04 16:15:20.289794
10.32979397,-3.957429647,-2.275873423,4.409972191,2024-06-04 16:15:20.329794
10.36979397,-5.134698391,-3.30089879,4.523930073,2024-06-04 16:15:20.369794
10.40979397,-6.046363831,-4.770689964,4.650749683,2024-06-04 16:15:20.409794
10.44979397,-6.177968979,-7.245167732,4.66151762,2024-06-04 16:15:20.449794
10.48979397,-7.472784996,-9.239585876,4.811367989,2024-06-04 16:15:20.489794
10.52979397,-7.521838188,-9.408279419,5.385047436,2024-06-04 16:15:20.529794
10.56979397,-4.550251484,-9.149555206,6.338587284,2024-06-04 16:15:20.569794
10.60979397,-5.132305622,-7.666903019,5.786443233,2024-06-04 16:15:20.609794
10.64979397,-5.132305622,-7.666903019,5.786443233,2024-06-04 16:15:20.649794
10.68979397,-5.132305622,-7.666903019,5.786443233,2024-06-04 16:15:20.689794
10.72979397,-5.132305622,-7.666903019,5.786443233,2024-06-04 16:15:20.729794
10.76979397,-5.132305622,-7.666903019,5.786443233,2024-06-04 16:15:20.769794
10.80979397,-5.132305622,-7.666903019,5.786443233,2024-06-04 16:15:20.809794
10.84979397,-5.132305622,-7.666903019,5.786443233,2024-06-04 16:15:20.849794
10.88979397,-5.132305622,-7.666903019,5.786443233,2024-06-04 16:15:20.889794
10.92979397,-5.132305622,-7.666903019,5.786443233,2024-06-04 16:15:20.929794
10.96979397,-5.132305622,-7.666903019,5.786443233,2024-06-04 16:15:20.969794
11.00979397,-5.132305622,-7.666903019,5.786443233,2024-06-04 16:15:21.009794
11.04979397,-5.132305622,-7.666903019,5.786443233,2024-06-04 16:15:21.049794
11.08979397,-5.132305622,-7.666903019,5.786443233,2024-06-04 16:15:21.089794
11.12979397,-5.132305622,-7.666903019,5.786443233,2024-06-04 16:15:21.129794
11.16979397,-5.132305622,-7.666903019,5.786443233,2024-06-04 16:15:21.169794
11.20979397,-5.132305622,-7.666903019,5.786443233,2024-06-04 16:15:21.209794
11.24979397,-2.583650351,-1.631306887,5.102395058,2024-06-04 16:15:21.249794
11.28979397,-1.549950838,-0.936490953,4.521537304,2024-06-04 16:15:21.289794
11.32979397,-2.376372099,-0.2012962103,3.913162231,2024-06-04 16:15:21.329794
11.36979397,-3.139383316,-1.402493119,4.17069006,2024-06-04 16:15:21.369794
11.40979397,-3.905983925,-2.650649309,4.157529354,2024-06-04 16:15:21.409794
11.44979397,-4.584947109,-4.162314892,4.843671322,2024-06-04 16:15:21.449794
11.48979397,-5.843871117,-6.166004658,5.538486958,2024-06-04 16:15:21.489794
11.52979397,-6.69063139,-7.907680511,5.303691387,2024-06-04 16:15:21.529794
11.56979397,-5.810371399,-9.07059288,5.605485916,2024-06-04 16:15:21.569794
11.60979397,-6.635596275,-10.16052341,5.707180977,2024-06-04 16:15:21.609794
11.64979397,-5.098805904,-10.00588703,5.334797859,2024-06-04 16:15:21.649794
11.68979397,-6.047560215,-8.701798439,5.716752529,2024-06-04 16:15:21.689794
11.72979397,-6.932605267,-9.985548019,5.968297958,2024-06-04 16:15:21.729794
11.76979397,-5.785246849,-9.38435173,5.927619934,2024-06-04 16:15:21.769794
11.80979397,-4.879563808,-8.386544228,5.05812788,2024-06-04 16:15:21.809794
11.84979397,-4.352544308,-8.7532444,5.277370453,2024-06-04 16:15:21.849794
11.88979397,-5.678467274,-8.28126049,4.553840637,2024-06-04 16:15:21.889794
11.92979397,-6.20070076,-7.132705212,4.180261135,2024-06-04 16:15:21.929794
11.96979397,-7.521838188,-8.7532444,5.088038445,2024-06-04 16:15:21.969794
12.00979397,-8.057231903,-8.808279037,4.483252525,2024-06-04 16:15:22.009794
12.04979397,-5.377869129,-8.085946083,5.030610561,2024-06-04 16:15:22.049794
12.08979397,-6.228218079,-7.042675018,5.506184101,2024-06-04 16:15:22.089794
12.12979397,-4.914259434,-6.872784615,4.433002949,2024-06-04 16:15:22.129794
12.16979397,-6.073881149,-4.539483547,5.36111927,2024-06-04 16:15:22.169794
12.20979397,-4.608875751,-4.339384079,3.59790802,2024-06-04 16:15:22.209794
12.24979397,-4.608875751,-4.339384079,3.59790802,2024-06-04 16:15:22.249794
12.28979397,-4.608875751,-4.339384079,3.59790802,2024-06-04 16:15:22.289794
12.32979397,-4.608875751,-4.339384079,3.59790802,2024-06-04 16:15:22.329794
12.36979397,-1.907976985,-0.1486541033,3.168097258,2024-06-04 16:15:22.369794
12.40979397,-1.907976985,-0.1486541033,3.168097258,2024-06-04 16:15:22.409794
12.44979397,-1.907976985,-0.1486541033,3.168097258,2024-06-04 16:15:22.449794
12.48979397,-1.907976985,-0.1486541033,3.168097258,2024-06-04 16:15:22.489794
12.52979397,-1.907976985,-0.1486541033,3.168097258,2024-06-04 16:15:22.529794
12.56979397,-1.907976985,-0.1486541033,3.168097258,2024-06-04 16:15:22.569794
12.60979397,-6.267699718,-9.114859581,5.58754015,2024-06-04 16:15:22.609794
12.64979397,-6.267699718,-9.114859581,5.58754015,2024-06-04 16:15:22.649794
12.68979397,-6.267699718,-9.114859581,5.58754015,2024-06-04 16:15:22.689794
12.72979397,-6.267699718,-9.114859581,5.58754015,2024-06-04 16:15:22.729794
12.76979397,-6.267699718,-9.114859581,5.58754015,2024-06-04 16:15:22.769794
12.80979397,-6.267699718,-9.114859581,5.58754015,2024-06-04 16:15:22.809794
12.84979397,-6.267699718,-9.114859581,5.58754015,2024-06-04 16:15:22.849794
12.88979397,-5.251049519,-7.609176159,3.490231037,2024-06-04 16:15:22.889794
12.92979397,-6.477370739,-7.236793041,3.883252144,2024-06-04 16:15:22.929794
12.96979397,-7.4010005,-7.956733704,4.231706619,2024-06-04 16:15:22.969794
13.00979397,-7.723134041,-7.363911629,4.507180691,2024-06-04 16:15:23.009794
13.04979397,-7.114758968,-8.471788406,4.141676903,2024-06-04 16:15:23.049794
13.08979397,-4.377668858,-7.257132053,4.841278553,2024-06-04 16:15:23.089794
13.12979397,-7.496713161,-7.098009109,5.249852657,2024-06-04 16:15:23.129794
13.16979397,-6.188736439,-6.012565136,5.50857687,2024-06-04 16:15:23.169794
13.20979397,-6.035595894,-6.447460651,5.105984211,2024-06-04 16:15:23.209794
13.24979397,-5.24506712,-4.720440865,3.058924675,2024-06-04 16:15:23.249794
13.28979397,-1.019342422,0.06819544733,3.328416348,2024-06-04 16:15:23.289794
13.32979397,-1.374975681,-0.6828517914,4.775475979,2024-06-04 16:15:23.329794
13.36979397,-2.542972326,-0.7570292354,3.951447487,2024-06-04 16:15:23.369794
13.40979397,-2.685345173,-1.110269666,3.386143208,2024-06-04 16:15:23.409794
13.44979397,-2.547757864,-2.311765671,4.014857292,2024-06-04 16:15:23.449794
13.48979397,-4.856831551,-4.382454872,5.314459324,2024-06-04 16:15:23.489794
13.52979397,-7.29302454,-7.023532867,6.845267296,2024-06-04 16:15:23.529794
13.56979397,-8.011768341,-8.032107353,6.332605362,2024-06-04 16:15:23.569794
13.60979397,-6.253343105,-8.263314247,4.199403763,2024-06-04 16:15:23.609794
13.64979397,-5.908477306,-8.083553314,4.35852623,2024-06-04 16:15:23.649794
13.68979397,-6.144469261,-8.181958199,4.381258488,2024-06-04 16:15:23.689794
13.72979397,-7.84157896,-9.374779701,6.104988098,2024-06-04 16:15:23.729794
13.76979397,-6.801897526,-9.98913765,5.773283005,2024-06-04 16:15:23.769794
13.80979397,-4.188635826,-9.435796738,6.547959328,2024-06-04 16:15:23.809794
13.84979397,-4.354937077,-8.624929428,4.956432819,2024-06-04 16:15:23.849794
13.88979397,-4.690530777,-7.387839794,4.329812527,2024-06-04 16:15:23.889794
13.92979397,-4.690530777,-7.387839794,4.329812527,2024-06-04 16:15:23.929794
13.96979397,-4.690530777,-7.387839794,4.329812527,2024-06-04 16:15:23.969794
14.00979397,-4.690530777,-7.387839794,4.329812527,2024-06-04 16:15:24.009794
14.04979397,-4.690530777,-7.387839794,4.329812527,2024-06-04 16:15:24.049794
14.08979397,-4.690530777,-7.387839794,4.329812527,2024-06-04 16:15:24.089794
14.12979397,-4.690530777,-7.387839794,4.329812527,2024-06-04 16:15:24.129794
14.16979397,-4.690530777,-7.387839794,4.329812527,2024-06-04 16:15:24.169794
14.20979397,-4.690530777,-7.387839794,4.329812527,2024-06-04 16:15:24.209794
14.24979397,-4.690530777,-7.387839794,4.329812527,2024-06-04 16:15:24.249794
14.28979397,-4.690530777,-7.387839794,4.329812527,2024-06-04 16:15:24.289794
14.32979397,-4.690530777,-7.387839794,4.329812527,2024-06-04 16:15:24.329794
14.36979397,-4.690530777,-7.387839794,4.329812527,2024-06-04 16:15:24.369794
14.40979397,-4.690530777,-7.387839794,4.329812527,2024-06-04 16:15:24.409794
14.44979397,-4.690530777,-7.387839794,4.329812527,2024-06-04 16:15:24.449794
14.48979397,-4.690530777,-7.387839794,4.329812527,2024-06-04 16:15:24.489794
14.52979397,-4.690530777,-7.387839794,4.329812527,2024-06-04 16:15:24.529794
14.56979397,-6.545566559,-6.896713257,4.831707001,2024-06-04 16:15:24.569794
14.60979397,-7.421339512,-7.564908981,5.318048477,2024-06-04 16:15:24.609794
14.64979397,-7.517052174,-8.325527191,5.991029739,2024-06-04 16:15:24.649794
14.68979397,-6.546762943,-8.577073097,5.483152866,2024-06-04 16:15:24.689794
14.72979397,-7.143472672,-8.746066093,4.342973232,2024-06-04 16:15:24.729794
14.76979397,-7.53858757,-8.741280556,4.726422787,2024-06-04 16:15:24.769794
14.80979397,-5.043771267,-8.440681458,5.552844048,2024-06-04 16:15:24.809794
14.84979397,-6.255735874,-8.102695465,4.259224415,2024-06-04 16:15:24.849794
14.88979397,-5.217250824,-8.293224335,4.378865242,2024-06-04 16:15:24.889794
14.92979397,-6.180361748,-8.203493118,4.844867706,2024-06-04 16:15:24.929794
14.96979397,-7.226025105,-7.848757267,4.781457901,2024-06-04 16:15:24.969794
15.00979397,-8.983254433,-7.882256985,4.817350388,2024-06-04 16:15:25.009794
15.04979397,-8.015357971,-8.168797493,3.889234066,2024-06-04 16:15:25.049794
15.08979397,-6.954140663,-8.289634705,4.917848587,2024-06-04 16:15:25.089794
15.12979397,-5.145465851,-7.281060219,5.642574787,2024-06-04 16:15:25.129794
15.16979397,-4.403990269,-6.827321053,4.578965187,2024-06-04 16:15:25.169794
15.20979397,-4.555037022,-5.005486012,4.913063049,2024-06-04 16:15:25.209794
15.24979397,-3.653241873,-5.306084156,5.109573841,2024-06-04 16:15:25.249794
15.28979397,-2.964408159,-2.917748213,4.70488739,2024-06-04 16:15:25.289794
15.32979397,-2.224128723,-1.966601133,4.750350952,2024-06-04 16:15:25.329794
15.36979397,-1.15094769,-0.6035895348,4.561018944,2024-06-04 16:15:25.369794
15.40979397,-2.86630249,-1.039681435,3.831507206,2024-06-04 16:15:25.409794
15.44979397,-3.359822035,-2.060220242,4.449752808,2024-06-04 16:15:25.449794
15.48979397,-3.299702406,-3.517748356,3.689134359,2024-06-04 16:15:25.489794
15.52979397,-4.762315273,-5.589932919,4.574179649,2024-06-04 16:15:25.529794
15.56979397,-7.463213921,-8.271688461,5.285745144,2024-06-04 16:15:25.569794
15.60979397,-7.463213921,-8.271688461,5.285745144,2024-06-04 16:15:25.609794
15.64979397,-7.463213921,-8.271688461,5.285745144,2024-06-04 16:15:25.649794
15.68979397,-7.463213921,-8.271688461,5.285745144,2024-06-04 16:15:25.689794
15.72979397,-7.463213921,-8.271688461,5.285745144,2024-06-04 16:15:25.729794
15.76979397,-7.463213921,-8.271688461,5.285745144,2024-06-04 16:15:25.769794
15.80979397,-7.463213921,-8.271688461,5.285745144,2024-06-04 16:15:25.809794
15.84979397,-7.463213921,-8.271688461,5.285745144,2024-06-04 16:15:25.849794
15.88979397,-7.463213921,-8.271688461,5.285745144,2024-06-04 16:15:25.889794
15.92979397,-7.463213921,-8.271688461,5.285745144,2024-06-04 16:15:25.929794
15.96979397,-7.463213921,-8.271688461,5.285745144,2024-06-04 16:15:25.969794
16.00979397,-7.463213921,-8.271688461,5.285745144,2024-06-04 16:15:26.009794
16.04979397,-7.463213921,-8.271688461,5.285745144,2024-06-04 16:15:26.049794
16.08979397,-7.463213921,-8.271688461,5.285745144,2024-06-04 16:15:26.089794
16.12979397,-7.463213921,-8.271688461,5.285745144,2024-06-04 16:15:26.129794
16.16979397,-7.463213921,-8.271688461,5.285745144,2024-06-04 16:15:26.169794
16.20979397,-5.746662617,-6.415157318,4.334598064,2024-06-04 16:15:26.209794
16.24979397,-4.966004372,-4.689334393,4.828117847,2024-06-04 16:15:26.249794
16.28979397,-5.14785862,-4.030410767,3.721437454,2024-06-04 16:15:26.289794
16.32979397,-2.606382132,-2.534298182,3.1405797,2024-06-04 16:15:26.329794
16.36979397,-1.351047516,-1.315155149,3.754936934,2024-06-04 16:15:26.369794
16.40979397,-1.600200176,-0.9257232547,4.472484589,2024-06-04 16:15:26.409794
16.44979397,-1.613360643,-1.188036442,3.917948008,2024-06-04 16:15:26.449794
16.48979397,-3.375375509,-2.599203587,4.427021027,2024-06-04 16:15:26.489794
16.52979397,-4.95015192,-4.555037022,4.79820776,2024-06-04 16:15:26.529794
16.56979397,-6.889534473,-7.601997375,4.403990269,2024-06-04 16:15:26.569794
16.60979397,-8.242975235,-8.918349266,6.029613972,2024-06-04 16:15:26.609794
16.64979397,-5.600700378,-7.600800991,5.254638672,2024-06-04 16:15:26.649794
16.68979397,-6.826124668,-9.163912773,4.903491974,2024-06-04 16:15:26.689794
16.72979397,-6.93978405,-8.326724052,4.580161572,2024-06-04 16:15:26.729794
16.76979397,-8.045268059,-8.72453022,4.727619171,2024-06-04 16:15:26.769794
16.80979397,-9.373583794,-8.679964066,6.55782938,2024-06-04 16:15:26.809794
16.84979397,-6.430710793,-8.877671242,4.235296249,2024-06-04 16:15:26.849794
16.88979397,-4.770689964,-7.914859295,3.77647233,2024-06-04 16:15:26.889794
16.92979397,-4.849653244,-7.424928665,4.075874329,2024-06-04 16:15:26.929794
16.96979397,-6.187540054,-7.435696602,4.428217411,2024-06-04 16:15:26.969794
17.00979397,-6.794719219,-7.37587595,4.649553299,2024-06-04 16:15:27.009794
17.04979397,-8.202297211,-8.136195183,4.001696587,2024-06-04 16:15:27.049794
17.08979397,-10.07916737,-9.230911255,4.64716053,2024-06-04 16:15:27.089794
17.12979397,-8.191529274,-8.244171143,4.642374992,2024-06-04 16:15:27.129794
17.16979397,-4.909473896,-6.695416927,4.174279213,2024-06-04 16:15:27.169794
17.20979397,-4.319045067,-7.3540411,4.515555382,2024-06-04 16:15:27.209794
17.24979397,-4.319045067,-7.3540411,4.515555382,2024-06-04 16:15:27.249794
17.28979397,-4.319045067,-7.3540411,4.515555382,2024-06-04 16:15:27.289794
17.32979397,-4.319045067,-7.3540411,4.515555382,2024-06-04 16:15:27.329794
17.36979397,-2.575275421,-2.255235434,5.16221571,2024-06-04 16:15:27.369794
17.40979397,-2.575275421,-2.255235434,5.16221571,2024-06-04 16:15:27.409794
17.44979397,-2.575275421,-2.255235434,5.16221571,2024-06-04 16:15:27.449794
17.48979397,-2.575275421,-2.255235434,5.16221571,2024-06-04 16:15:27.489794
17.52979397,-2.575275421,-2.255235434,5.16221571,2024-06-04 16:15:27.529794
17.56979397,-2.575275421,-2.255235434,5.16221571,2024-06-04 16:15:27.569794
17.60979397,-2.575275421,-2.255235434,5.16221571,2024-06-04 16:15:27.609794
17.64979397,-2.575275421,-2.255235434,5.16221571,2024-06-04 16:15:27.649794
17.68979397,-2.575275421,-2.255235434,5.16221571,2024-06-04 16:15:27.689794
17.72979397,-2.575275421,-2.255235434,5.16221571,2024-06-04 16:15:27.729794
17.76979397,-2.575275421,-2.255235434,5.16221571,2024-06-04 16:15:27.769794
17.80979397,-2.575275421,-2.255235434,5.16221571,2024-06-04 16:15:27.809794
17.84979397,-2.575275421,-2.255235434,5.16221571,2024-06-04 16:15:27.849794
17.88979397,-5.319244862,-7.818847179,3.70588398,2024-06-04 16:15:27.889794
17.92979397,-5.355136871,-7.815258026,4.311866283,2024-06-04 16:15:27.929794
17.96979397,-6.739684105,-8.158926964,4.413561344,2024-06-04 16:15:27.969794
18.00979397,-6.966104984,-7.942376614,3.752544165,2024-06-04 16:15:28.009794
18.04979397,-8.063214302,-8.30279541,4.581357956,2024-06-04 16:15:28.049794
18.08979397,-10.1772728,-9.361619949,4.632803917,2024-06-04 16:15:28.089794
18.12979397,-8.899206161,-9.099306107,4.185046673,2024-06-04 16:15:28.129794
18.16979397,-5.953940868,-7.526623726,4.504787922,2024-06-04 16:15:28.169794
18.20979397,-4.868795872,-6.839285374,4.1129632,2024-06-04 16:15:28.209794
18.24979397,-5.031806946,-5.781657696,4.138087749,2024-06-04 16:15:28.249794
18.28979397,-4.311866283,-3.786043644,4.254438877,2024-06-04 16:15:28.289794
18.32979397,-3.559622765,-4.708476543,4.983950615,2024-06-04 16:15:28.329794
18.36979397,-1.876870275,-2.092523336,4.132105827,2024-06-04 16:15:28.369794
18.40979397,-1.632503271,-0.861117065,3.499802113,2024-06-04 16:15:28.409794
18.44979397,-2.112862349,-0.774975419,4.555037022,2024-06-04 16:15:28.449794
18.48979397,-1.311565876,-1.097109199,3.897608995,2024-06-04 16:15:28.489794
18.52979397,-2.86032033,-2.814856768,3.496212959,2024-06-04 16:15:28.529794
18.56979397,-3.674777269,-5.084448814,3.658027649,2024-06-04 16:15:28.569794
18.60979397,-6.390032768,-8.451449394,3.992125511,2024-06-04 16:15:28.609794
18.64979397,-7.859525204,-9.143573761,5.107180595,2024-06-04 16:15:28.649794
18.68979397,-8.431110382,-9.588040352,5.845067501,2024-06-04 16:15:28.689794
18.72979397,-6.750451565,-9.62154007,6.16121912,2024-06-04 16:15:28.729794
18.76979397,-6.261717796,-8.865707397,5.277370453,2024-06-04 16:15:28.769794
18.80979397,-8.679964066,-9.391530037,5.066503048,2024-06-04 16:15:28.809794
18.84979397,-7.205686092,-9.453742981,5.449653625,2024-06-04 16:15:28.849794
18.88979397,-7.205686092,-9.453742981,5.449653625,2024-06-04 16:15:28.889794
18.92979397,-5.07248497,-7.582854748,3.971786499,2024-06-04 16:15:28.929794
18.96979397,-5.07248497,-7.582854748,3.971786499,2024-06-04 16:15:28.969794
19.00979397,-5.07248497,-7.582854748,3.971786499,2024-06-04 16:15:29.009794
19.04979397,-5.07248497,-7.582854748,3.971786499,2024-06-04 16:15:29.049794
19.08979397,-5.07248497,-7.582854748,3.971786499,2024-06-04 16:15:29.089794
19.12979397,-5.07248497,-7.582854748,3.971786499,2024-06-04 16:15:29.129794
19.16979397,-7.60678339,-6.872784615,4.130908966,2024-06-04 16:15:29.169794
19.20979397,-7.60678339,-6.872784615,4.130908966,2024-06-04 16:15:29.209794
19.24979397,-7.60678339,-6.872784615,4.130908966,2024-06-04 16:15:29.249794
19.28979397,-7.60678339,-6.872784615,4.130908966,2024-06-04 16:15:29.289794
19.32979397,-7.60678339,-6.872784615,4.130908966,2024-06-04 16:15:29.329794
19.36979397,-7.60678339,-6.872784615,4.130908966,2024-06-04 16:15:29.369794
19.40979397,-7.60678339,-6.872784615,4.130908966,2024-06-04 16:15:29.409794
19.44979397,-7.60678339,-6.872784615,4.130908966,2024-06-04 16:15:29.449794
19.48979397,-7.60678339,-6.872784615,4.130908966,2024-06-04 16:15:29.489794
19.52979397,-2.244467735,-0.7378866673,4.368097782,2024-06-04 16:15:29.529794
19.56979397,-4.654339314,-2.927319288,4.606482506,2024-06-04 16:15:29.569794
19.60979397,-5.744269848,-5.796014786,4.423431873,2024-06-04 16:15:29.609794
19.64979397,-6.278467655,-7.267899513,5.181358337,2024-06-04 16:15:29.649794
19.68979397,-5.66052103,-6.587739944,6.437889099,2024-06-04 16:15:29.689794
19.72979397,-7.945965767,-8.683553696,5.104787827,2024-06-04 16:15:29.729794
19.76979397,-6.596114635,-8.522037506,4.873581409,2024-06-04 16:15:29.769794
19.80979397,-6.16121912,-8.977272034,4.006482601,2024-06-04 16:15:29.809794
19.84979397,-8.062017441,-9.643074989,4.974379063,2024-06-04 16:15:29.849794
19.88979397,-6.992425919,-8.61296463,5.356333256,2024-06-04 16:15:29.889794
19.92979397,-6.44985342,-8.101499557,4.715655327,2024-06-04 16:15:29.929794
19.96979397,-6.119344711,-8.720941544,4.339384079,2024-06-04 16:15:29.969794
20.00979397,-5.100002289,-8.253742218,3.974179268,2024-06-04 16:15:30.009794
20.04979397,-5.543272972,-7.404589653,3.962215185,2024-06-04 16:15:30.049794
20.08979397,-5.543272972,-7.404589653,3.962215185,2024-06-04 16:15:30.089794
20.12979397,-5.543272972,-7.404589653,3.962215185,2024-06-04 16:15:30.129794
20.16979397,-8.681160927,-7.826025486,4.608875751,2024-06-04 16:15:30.169794
20.20979397,-8.681160927,-7.826025486,4.608875751,2024-06-04 16:15:30.209794
20.24979397,-8.681160927,-7.826025486,4.608875751,2024-06-04 16:15:30.249794
20.28979397,-8.681160927,-7.826025486,4.608875751,2024-06-04 16:15:30.289794
20.32979397,-8.681160927,-7.826025486,4.608875751,2024-06-04 16:15:30.329794
20.36979397,-8.681160927,-7.826025486,4.608875751,2024-06-04 16:15:30.369794
20.40979397,-8.681160927,-7.826025486,4.608875751,2024-06-04 16:15:30.409794
20.44979397,-8.681160927,-7.826025486,4.608875751,2024-06-04 16:15:30.449794
20.48979397,-8.681160927,-7.826025486,4.608875751,2024-06-04 16:15:30.489794
20.52979397,-2.381157637,-0.8826524615,3.972982883,2024-06-04 16:15:30.529794
20.56979397,-2.801397085,-2.023131609,4.102195263,2024-06-04 16:15:30.569794
20.60979397,-4.913063049,-4.177868366,4.313062668,2024-06-04 16:15:30.609794
20.64979397,-6.273681641,-6.502495766,4.79820776,2024-06-04 16:15:30.649794
20.68979397,-6.273681641,-6.502495766,4.79820776,2024-06-04 16:15:30.689794
20.72979397,-7.477570534,-7.951947689,4.686941147,2024-06-04 16:15:30.729794
20.76979397,-6.618846416,-9.926923752,4.726422787,2024-06-04 16:15:30.769794
20.80979397,-6.618846416,-9.926923752,4.726422787,2024-06-04 16:15:30.809794
20.84979397,-6.618846416,-9.926923752,4.726422787,2024-06-04 16:15:30.849794
20.88979397,-6.618846416,-9.926923752,4.726422787,2024-06-04 16:15:30.889794
20.92979397,-6.618846416,-9.926923752,4.726422787,2024-06-04 16:15:30.929794
20.96979397,-6.618846416,-9.926923752,4.726422787,2024-06-04 16:15:30.969794
21.00979397,-6.618846416,-9.926923752,4.726422787,2024-06-04 16:15:31.009794
21.04979397,-5.986244202,-7.742276669,3.800400496,2024-06-04 16:15:31.049794
21.08979397,-5.986244202,-7.742276669,3.800400496,2024-06-04 16:15:31.089794
21.12979397,-5.986244202,-7.742276669,3.800400496,2024-06-04 16:15:31.129794
21.16979397,-5.986244202,-7.742276669,3.800400496,2024-06-04 16:15:31.169794
21.20979397,-5.986244202,-7.742276669,3.800400496,2024-06-04 16:15:31.209794
21.24979397,-5.986244202,-7.742276669,3.800400496,2024-06-04 16:15:31.249794
21.28979397,-5.986244202,-7.742276669,3.800400496,2024-06-04 16:15:31.289794
21.32979397,-7.481160164,-6.445067883,4.421039104,2024-06-04 16:15:31.329794
21.36979397,-7.481160164,-6.445067883,4.421039104,2024-06-04 16:15:31.369794
21.40979397,-4.406383038,-4.893920422,4.474877357,2024-06-04 16:15:31.409794
21.44979397,-4.406383038,-4.893920422,4.474877357,2024-06-04 16:15:31.449794
21.48979397,-3.80159688,-1.918744683,4.441378117,2024-06-04 16:15:31.489794
21.52979397,-2.429013968,-0.7067800164,3.953840256,2024-06-04 16:15:31.529794
21.56979397,-2.429013968,-0.7067800164,3.953840256,2024-06-04 16:15:31.569794
21.60979397,-2.429013968,-0.7067800164,3.953840256,2024-06-04 16:15:31.609794
21.64979397,-2.429013968,-0.7067800164,3.953840256,2024-06-04 16:15:31.649794
21.68979397,-6.929016113,-6.294320107,4.955236435,2024-06-04 16:15:31.689794
21.72979397,-7.058228493,-6.984051228,4.89631319,2024-06-04 16:15:31.729794
21.76979397,-7.058228493,-6.984051228,4.89631319,2024-06-04 16:15:31.769794
21.80979397,-7.058228493,-6.984051228,4.89631319,2024-06-04 16:15:31.809794
21.84979397,-7.058228493,-6.984051228,4.89631319,2024-06-04 16:15:31.849794
21.88979397,-7.058228493,-6.984051228,4.89631319,2024-06-04 16:15:31.889794
21.92979397,-7.674081326,-9.297013283,5.932405472,2024-06-04 16:15:31.929794
21.96979397,-7.674081326,-9.297013283,5.932405472,2024-06-04 16:15:31.969794
22.00979397,-7.674081326,-9.297013283,5.932405472,2024-06-04 16:15:32.009794
22.04979397,-7.674081326,-9.297013283,5.932405472,2024-06-04 16:15:32.049794
22.08979397,-7.674081326,-9.297013283,5.932405472,2024-06-04 16:15:32.089794
22.12979397,-7.674081326,-9.297013283,5.932405472,2024-06-04 16:15:32.129794
22.16979397,-7.674081326,-9.297013283,5.932405472,2024-06-04 16:15:32.169794
22.20979397,-8.083553314,-8.499305725,5.481956482,2024-06-04 16:15:32.209794
22.24979397,-9.005986214,-8.40329361,4.864010334,2024-06-04 16:15:32.249794
22.28979397,-6.682256222,-7.849953651,4.569394112,2024-06-04 16:15:32.289794
22.32979397,-5.941977024,-7.102795124,4.427021027,2024-06-04 16:15:32.329794
22.36979397,-5.941977024,-7.102795124,4.427021027,2024-06-04 16:15:32.369794
22.40979397,-5.941977024,-7.102795124,4.427021027,2024-06-04 16:15:32.409794
22.44979397,-5.941977024,-7.102795124,4.427021027,2024-06-04 16:15:32.449794
22.48979397,-5.941977024,-7.102795124,4.427021027,2024-06-04 16:15:32.489794
22.52979397,-5.941977024,-7.102795124,4.427021027,2024-06-04 16:15:32.529794
22.56979397,-2.057827473,-0.04307080805,4.219742775,2024-06-04 16:15:32.569794
22.60979397,-2.057827473,-0.04307080805,4.219742775,2024-06-04 16:15:32.609794
22.64979397,-2.057827473,-0.04307080805,4.219742775,2024-06-04 16:15:32.649794
22.68979397,-2.057827473,-0.04307080805,4.219742775,2024-06-04 16:15:32.689794
22.72979397,-2.057827473,-0.04307080805,4.219742775,2024-06-04 16:15:32.729794
22.76979397,-2.057827473,-0.04307080805,4.219742775,2024-06-04 16:15:32.769794
22.80979397,-2.057827473,-0.04307080805,4.219742775,2024-06-04 16:15:32.809794
22.84979397,-2.057827473,-0.04307080805,4.219742775,2024-06-04 16:15:32.849794
22.88979397,-2.057827473,-0.04307080805,4.219742775,2024-06-04 16:15:32.889794
22.92979397,-6.140880108,-8.921937943,4.287938118,2024-06-04 16:15:32.929794
22.96979397,-6.140880108,-8.921937943,4.287938118,2024-06-04 16:15:32.969794
23.00979397,-8.022536278,-9.411869049,5.066503048,2024-06-04 16:15:33.009794
23.04979397,-7.141079903,-8.829814911,5.554040432,2024-06-04 16:15:33.049794
23.08979397,-5.878567219,-8.713762283,3.934697628,2024-06-04 16:15:33.089794
23.12979397,-5.878567219,-8.713762283,3.934697628,2024-06-04 16:15:33.129794
23.16979397,-5.878567219,-8.713762283,3.934697628,2024-06-04 16:15:33.169794
23.20979397,-5.878567219,-8.713762283,3.934697628,2024-06-04 16:15:33.209794
23.24979397,-5.878567219,-8.713762283,3.934697628,2024-06-04 16:15:33.249794
23.28979397,-8.145766258,-8.133802414,5.278566837,2024-06-04 16:15:33.289794
23.32979397,-8.145766258,-8.133802414,5.278566837,2024-06-04 16:15:33.329794
23.36979397,-8.145766258,-8.133802414,5.278566837,2024-06-04 16:15:33.369794
23.40979397,-8.145766258,-8.133802414,5.278566837,2024-06-04 16:15:33.409794
23.44979397,-8.145766258,-8.133802414,5.278566837,2024-06-04 16:15:33.449794
23.48979397,-8.145766258,-8.133802414,5.278566837,2024-06-04 16:15:33.489794
23.52979397,-8.145766258,-8.133802414,5.278566837,2024-06-04 16:15:33.529794
23.56979397,-8.145766258,-8.133802414,5.278566837,2024-06-04 16:15:33.569794
23.60979397,-8.145766258,-8.133802414,5.278566837,2024-06-04 16:15:33.609794
23.64979397,-8.145766258,-8.133802414,5.278566837,2024-06-04 16:15:33.649794
23.68979397,-8.145766258,-8.133802414,5.278566837,2024-06-04 16:15:33.689794
23.72979397,-8.145766258,-8.133802414,5.278566837,2024-06-04 16:15:33.729794
23.76979397,-8.145766258,-8.133802414,5.278566837,2024-06-04 16:15:33.769794
23.80979397,-8.145766258,-8.133802414,5.278566837,2024-06-04 16:15:33.809794
23.84979397,-8.145766258,-8.133802414,5.278566837,2024-06-04 16:15:33.849794
23.88979397,-7.973483086,-7.762615681,4.741976261,2024-06-04 16:15:33.889794
23.92979397,-6.767201424,-8.915956497,4.264009953,2024-06-04 16:15:33.929794
23.96979397,-5.933601856,-8.253742218,4.700101852,2024-06-04 16:15:33.969794
24.00979397,-7.406982422,-9.057432175,4.488038063,2024-06-04 16:15:34.009794
24.04979397,-7.406982422,-9.057432175,4.488038063,2024-06-04 16:15:34.049794
24.08979397,-7.406982422,-9.057432175,4.488038063,2024-06-04 16:15:34.089794
24.12979397,-7.406982422,-9.057432175,4.488038063,2024-06-04 16:15:34.129794
24.16979397,-7.406982422,-9.057432175,4.488038063,2024-06-04 16:15:34.169794
24.20979397,-7.406982422,-9.057432175,4.488038063,2024-06-04 16:15:34.209794
24.24979397,-7.406982422,-9.057432175,4.488038063,2024-06-04 16:15:34.249794
24.28979397,-7.406982422,-9.057432175,4.488038063,2024-06-04 16:15:34.289794
24.32979397,-7.406982422,-9.057432175,4.488038063,2024-06-04 16:15:34.329794
24.36979397,-7.406982422,-9.057432175,4.488038063,2024-06-04 16:15:34.369794
24.40979397,-7.406982422,-9.057432175,4.488038063,2024-06-04 16:15:34.409794
24.44979397,-7.406982422,-9.057432175,4.488038063,2024-06-04 16:15:34.449794
24.48979397,-7.406982422,-9.057432175,4.488038063,2024-06-04 16:15:34.489794
24.52979397,-7.406982422,-9.057432175,4.488038063,2024-06-04 16:15:34.529794
24.56979397,-7.406982422,-9.057432175,4.488038063,2024-06-04 16:15:34.569794
24.60979397,-7.406982422,-9.057432175,4.488038063,2024-06-04 16:15:34.609794
24.64979397,-7.406982422,-9.057432175,4.488038063,2024-06-04 16:15:34.649794
24.68979397,-3.06610322,-1.310369492,4.679463863,2024-06-04 16:15:34.689794
24.72979397,-3.06610322,-1.310369492,4.679463863,2024-06-04 16:15:34.729794
24.76979397,-3.105883837,-1.034895778,2.89142704,2024-06-04 16:15:34.769794
24.80979397,-3.105883837,-1.034895778,2.89142704,2024-06-04 16:15:34.809794
24.84979397,-6.400800705,-4.244867325,4.252045631,2024-06-04 16:15:34.849794
24.88979397,-6.794719219,-5.762515068,5.296513081,2024-06-04 16:15:34.889794
24.92979397,-6.895516872,-6.921837807,4.998307228,2024-06-04 16:15:34.929794
24.96979397,-6.895516872,-6.921837807,4.998307228,2024-06-04 16:15:34.969794
25.00979397,-6.895516872,-6.921837807,4.998307228,2024-06-04 16:15:35.009794
25.04979397,-6.895516872,-6.921837807,4.998307228,2024-06-04 16:15:35.049794
25.08979397,-6.895516872,-6.921837807,4.998307228,2024-06-04 16:15:35.089794
25.12979397,-6.895516872,-6.921837807,4.998307228,2024-06-04 16:15:35.129794
25.16979397,-6.895516872,-6.921837807,4.998307228,2024-06-04 16:15:35.169794
25.20979397,-6.895516872,-6.921837807,4.998307228,2024-06-04 16:15:35.209794
25.24979397,-6.895516872,-6.921837807,4.998307228,2024-06-04 16:15:35.249794
25.28979397,-6.895516872,-6.921837807,4.998307228,2024-06-04 16:15:35.289794
25.32979397,-6.895516872,-6.921837807,4.998307228,2024-06-04 16:15:35.329794
25.36979397,-6.895516872,-6.921837807,4.998307228,2024-06-04 16:15:35.369794
25.40979397,-6.895516872,-6.921837807,4.998307228,2024-06-04 16:15:35.409794
25.44979397,-6.895516872,-6.921837807,4.998307228,2024-06-04 16:15:35.449794
25.48979397,-6.895516872,-6.921837807,4.998307228,2024-06-04 16:15:35.489794
25.52979397,-6.895516872,-6.921837807,4.998307228,2024-06-04 16:15:35.529794
25.56979397,-6.895516872,-6.921837807,4.998307228,2024-06-04 16:15:35.569794
25.60979397,-6.895516872,-6.921837807,4.998307228,2024-06-04 16:15:35.609794
25.64979397,-5.734698772,-4.298706055,4.552644253,2024-06-04 16:15:35.649794
25.68979397,-5.734698772,-4.298706055,4.552644253,2024-06-04 16:15:35.689794
25.72979397,-3.679563046,-1.874477386,4.315455437,2024-06-04 16:15:35.729794
25.76979397,-2.630310297,-0.751047194,4.189832687,2024-06-04 16:15:35.769794
25.80979397,-2.630310297,-0.751047194,4.189832687,2024-06-04 16:15:35.809794
25.84979397,-2.630310297,-0.751047194,4.189832687,2024-06-04 16:15:35.849794
25.88979397,-2.630310297,-0.751047194,4.189832687,2024-06-04 16:15:35.889794
25.92979397,-4.551447868,-3.601497173,4.275974274,2024-06-04 16:15:35.929794
25.96979397,-4.551447868,-3.601497173,4.275974274,2024-06-04 16:15:35.969794
26.00979397,-7.096812725,-5.747859001,5.230710506,2024-06-04 16:15:36.009794
26.04979397,-7.096812725,-5.747859001,5.230710506,2024-06-04 16:15:36.049794
26.08979397,-7.096812725,-5.747859001,5.230710506,2024-06-04 16:15:36.089794
26.12979397,-7.096812725,-5.747859001,5.230710506,2024-06-04 16:15:36.129794
26.16979397,-7.096812725,-5.747859001,5.230710506,2024-06-04 16:15:36.169794
26.20979397,-7.096812725,-5.747859001,5.230710506,2024-06-04 16:15:36.209794
26.24979397,-7.096812725,-5.747859001,5.230710506,2024-06-04 16:15:36.249794
26.28979397,-6.888338089,-9.268299103,5.204090118,2024-06-04 16:15:36.289794
26.32979397,-6.888338089,-9.268299103,5.204090118,2024-06-04 16:15:36.329794
26.36979397,-6.888338089,-9.268299103,5.204090118,2024-06-04 16:15:36.369794
26.40979397,-6.888338089,-9.268299103,5.204090118,2024-06-04 16:15:36.409794
26.44979397,-6.888338089,-9.268299103,5.204090118,2024-06-04 16:15:36.449794
26.48979397,-6.888338089,-9.268299103,5.204090118,2024-06-04 16:15:36.489794
26.52979397,-7.414160728,-7.036693096,4.401597023,2024-06-04 16:15:36.529794
26.56979397,-7.414160728,-7.036693096,4.401597023,2024-06-04 16:15:36.569794
26.60979397,-7.414160728,-7.036693096,4.401597023,2024-06-04 16:15:36.609794
26.64979397,-7.414160728,-7.036693096,4.401597023,2024-06-04 16:15:36.649794
26.68979397,-7.366304398,-6.094220161,4.434199333,2024-06-04 16:15:36.689794
26.72979397,-7.366304398,-6.094220161,4.434199333,2024-06-04 16:15:36.729794
26.76979397,-7.366304398,-6.094220161,4.434199333,2024-06-04 16:15:36.769794
26.80979397,-7.366304398,-6.094220161,4.434199333,2024-06-04 16:15:36.809794
26.84979397,-7.366304398,-6.094220161,4.434199333,2024-06-04 16:15:36.849794
26.88979397,-7.366304398,-6.094220161,4.434199333,2024-06-04 16:15:36.889794
26.92979397,-2.246860504,-0.9125627279,4.551447868,2024-06-04 16:15:36.929794
26.96979397,-2.246860504,-0.9125627279,4.551447868,2024-06-04 16:15:36.969794
27.00979397,-2.246860504,-0.9125627279,4.551447868,2024-06-04 16:15:37.009794
27.04979397,-2.246860504,-0.9125627279,4.551447868,2024-06-04 16:15:37.049794
27.08979397,-2.246860504,-0.9125627279,4.551447868,2024-06-04 16:15:37.089794
27.12979397,-2.246860504,-0.9125627279,4.551447868,2024-06-04 16:15:37.129794
27.16979397,-2.246860504,-0.9125627279,4.551447868,2024-06-04 16:15:37.169794
27.20979397,-7.706384659,-9.445367813,4.599304199,2024-06-04 16:15:37.209794
27.24979397,-6.453442574,-8.510073662,4.718048096,2024-06-04 16:15:37.249794
27.28979397,-7.736294746,-8.321938515,3.659224033,2024-06-04 16:15:37.289794
27.32979397,-6.97567606,-8.597412109,4.309473515,2024-06-04 16:15:37.329794
27.36979397,-6.97567606,-8.597412109,4.309473515,2024-06-04 16:15:37.369794
27.40979397,-6.97567606,-8.597412109,4.309473515,2024-06-04 16:15:37.409794
27.44979397,-6.97567606,-8.597412109,4.309473515,2024-06-04 16:15:37.449794
27.48979397,-4.753940582,-6.785147667,3.483052492,2024-06-04 16:15:37.489794
27.52979397,-4.753940582,-6.785147667,3.483052492,2024-06-04 16:15:37.529794
27.56979397,-4.753940582,-6.785147667,3.483052492,2024-06-04 16:15:37.569794
27.60979397,-4.753940582,-6.785147667,3.483052492,2024-06-04 16:15:37.609794
27.64979397,-4.753940582,-6.785147667,3.483052492,2024-06-04 16:15:37.649794
27.68979397,-4.753940582,-6.785147667,3.483052492,2024-06-04 16:15:37.689794
27.72979397,-5.870192051,-6.2401824,5.038985252,2024-06-04 16:15:37.729794
27.76979397,-5.870192051,-6.2401824,5.038985252,2024-06-04 16:15:37.769794
27.80979397,-5.870192051,-6.2401824,5.038985252,2024-06-04 16:15:37.809794
27.84979397,-5.870192051,-6.2401824,5.038985252,2024-06-04 16:15:37.849794
27.88979397,-5.870192051,-6.2401824,5.038985252,2024-06-04 16:15:37.889794
27.92979397,-3.643670797,-3.080759048,3.634099483,2024-06-04 16:15:37.929794
27.96979397,-2.442174673,-1.486541033,4.396811485,2024-06-04 16:15:37.969794
28.00979397,-2.442174673,-1.486541033,4.396811485,2024-06-04 16:15:38.009794
28.04979397,-2.442174673,-1.486541033,4.396811485,2024-06-04 16:15:38.049794
28.08979397,-2.442174673,-1.486541033,4.396811485,2024-06-04 16:15:38.089794
28.12979397,-2.442174673,-1.486541033,4.396811485,2024-06-04 16:15:38.129794
28.12979397,-3.715455294,-2.886641502,4.004089355,2024-06-04 16:15:38.129794
28.20979397,-7.383054256,-6.404389858,5.925227165,2024-06-04 16:15:38.209794
28.24979397,-7.383054256,-6.404389858,5.925227165,2024-06-04 16:15:38.249794
28.28979397,-7.383054256,-6.404389858,5.925227165,2024-06-04 16:15:38.289794
28.32979397,-7.383054256,-6.404389858,5.925227165,2024-06-04 16:15:38.329794
28.36979397,-7.383054256,-6.404389858,5.925227165,2024-06-04 16:15:38.369794
28.40979397,-7.383054256,-6.404389858,5.925227165,2024-06-04 16:15:38.409794
28.44979397,-7.383054256,-6.404389858,5.925227165,2024-06-04 16:15:38.449794
28.48979397,-7.383054256,-6.404389858,5.925227165,2024-06-04 16:15:38.489794
28.52979397,-7.383054256,-6.404389858,5.925227165,2024-06-04 16:15:38.529794
28.56979397,-7.383054256,-6.404389858,5.925227165,2024-06-04 16:15:38.569794
28.60979397,-7.383054256,-6.404389858,5.925227165,2024-06-04 16:15:38.609794
28.64979397,-7.383054256,-6.404389858,5.925227165,2024-06-04 16:15:38.649794
28.68979397,-7.383054256,-6.404389858,5.925227165,2024-06-04 16:15:38.689794
28.72979397,-7.383054256,-6.404389858,5.925227165,2024-06-04 16:15:38.729794
28.76979397,-7.587640762,-7.012764931,4.102195263,2024-06-04 16:15:38.769794
28.80979397,-7.114758968,-7.040282249,5.39701128,2024-06-04 16:15:38.809794
28.84979397,-5.809175014,-7.284649372,4.637589455,2024-06-04 16:15:38.849794
28.88979397,-5.723930836,-5.745466232,4.774279594,2024-06-04 16:15:38.889794
28.92979397,-5.896512985,-5.300102234,4.331008911,2024-06-04 16:15:38.929794
28.96979397,-5.896512985,-5.300102234,4.331008911,2024-06-04 16:15:38.969794
29.00979397,-5.896512985,-5.300102234,4.331008911,2024-06-04 16:15:39.009794
29.04979397,-5.896512985,-5.300102234,4.331008911,2024-06-04 16:15:39.049794
29.08979397,-5.896512985,-5.300102234,4.331008911,2024-06-04 16:15:39.089794
29.12979397,-2.637488842,-1.13419795,4.237689018,2024-06-04 16:15:39.129794
29.16979397,-2.637488842,-1.13419795,4.237689018,2024-06-04 16:15:39.169794
29.20979397,-2.637488842,-1.13419795,4.237689018,2024-06-04 16:15:39.209794
29.24979397,-2.637488842,-1.13419795,4.237689018,2024-06-04 16:15:39.249794
29.28979397,-2.637488842,-1.13419795,4.237689018,2024-06-04 16:15:39.289794
29.32979397,-2.637488842,-1.13419795,4.237689018,2024-06-04 16:15:39.329794
29.36979397,-2.637488842,-1.13419795,4.237689018,2024-06-04 16:15:39.369794
29.40979397,-2.637488842,-1.13419795,4.237689018,2024-06-04 16:15:39.409794
29.44979397,-2.637488842,-1.13419795,4.237689018,2024-06-04 16:15:39.449794
29.48979397,-2.637488842,-1.13419795,4.237689018,2024-06-04 16:15:39.489794
29.52979397,-2.637488842,-1.13419795,4.237689018,2024-06-04 16:15:39.529794
29.56979397,-2.637488842,-1.13419795,4.237689018,2024-06-04 16:15:39.569794
29.60979397,-5.430510998,-8.106285095,3.765704632,2024-06-04 16:15:39.609794
29.64979397,-5.082056046,-7.381857872,3.550051451,2024-06-04 16:15:39.649794
29.68979397,-6.525227547,-7.566105366,4.392025948,2024-06-04 16:15:39.689794
29.72979397,-6.525227547,-7.566105366,4.392025948,2024-06-04 16:15:39.729794
29.76979397,-6.525227547,-7.566105366,4.392025948,2024-06-04 16:15:39.769794
29.80979397,-6.525227547,-7.566105366,4.392025948,2024-06-04 16:15:39.809794
29.84979397,-6.525227547,-7.566105366,4.392025948,2024-06-04 16:15:39.849794
29.88979397,-6.525227547,-7.566105366,4.392025948,2024-06-04 16:15:39.889794
29.92979397,-5.213661671,-7.416553974,4.718048096,2024-06-04 16:15:39.929794
29.96979397,-5.213661671,-7.416553974,4.718048096,2024-06-04 16:15:39.969794
30.00979397,-5.213661671,-7.416553974,4.718048096,2024-06-04 16:15:40.009794
30.04979397,-5.213661671,-7.416553974,4.718048096,2024-06-04 16:15:40.049794
30.08979397,-5.213661671,-7.416553974,4.718048096,2024-06-04 16:15:40.089794
30.12979397,-5.213661671,-7.416553974,4.718048096,2024-06-04 16:15:40.129794
30.16979397,-5.213661671,-7.416553974,4.718048096,2024-06-04 16:15:40.169794
30.20979397,-5.213661671,-7.416553974,4.718048096,2024-06-04 16:15:40.209794
30.24979397,-5.213661671,-7.416553974,4.718048096,2024-06-04 16:15:40.249794
30.28979397,-5.213661671,-7.416553974,4.718048096,2024-06-04 16:15:40.289794
30.32979397,-5.213661671,-7.416553974,4.718048096,2024-06-04 16:15:40.329794
30.36979397,-5.213661671,-7.416553974,4.718048096,2024-06-04 16:15:40.369794
30.40979397,-5.213661671,-7.416553974,4.718048096,2024-06-04 16:15:40.409794
30.44979397,-5.213661671,-7.416553974,4.718048096,2024-06-04 16:15:40.449794
30.48979397,-5.213661671,-7.416553974,4.718048096,2024-06-04 16:15:40.489794
30.52979397,-5.213661671,-7.416553974,4.718048096,2024-06-04 16:15:40.529794
30.56979397,-5.213661671,-7.416553974,4.718048096,2024-06-04 16:15:40.569794
30.60979397,-5.473581791,-8.434700012,4.720440865,2024-06-04 16:15:40.609794
30.64979397,-4.99352169,-7.890631676,3.466302633,2024-06-04 16:15:40.649794
30.68979397,-4.99352169,-7.890631676,3.466302633,2024-06-04 16:15:40.689794
30.72979397,-4.99352169,-7.890631676,3.466302633,2024-06-04 16:15:40.729794
30.76979397,-4.99352169,-7.890631676,3.466302633,2024-06-04 16:15:40.769794
30.80979397,-4.99352169,-7.890631676,3.466302633,2024-06-04 16:15:40.809794
30.84979397,-4.99352169,-7.890631676,3.466302633,2024-06-04 16:15:40.849794
30.88979397,-4.99352169,-7.890631676,3.466302633,2024-06-04 16:15:40.889794
30.92979397,-6.43549633,-7.806882858,4.946562767,2024-06-04 16:15:40.929794
30.96979397,-6.43549633,-7.806882858,4.946562767,2024-06-04 16:15:40.969794
31.00979397,-6.43549633,-7.806882858,4.946562767,2024-06-04 16:15:41.009794
31.04979397,-6.43549633,-7.806882858,4.946562767,2024-06-04 16:15:41.049794
31.08979397,-6.43549633,-7.806882858,4.946562767,2024-06-04 16:15:41.089794
31.12979397,-6.43549633,-7.806882858,4.946562767,2024-06-04 16:15:41.129794
31.16979397,-6.43549633,-7.806882858,4.946562767,2024-06-04 16:15:41.169794
31.20979397,-6.43549633,-7.806882858,4.946562767,2024-06-04 16:15:41.209794
31.24979397,-6.43549633,-7.806882858,4.946562767,2024-06-04 16:15:41.249794
31.28979397,-3.496212959,-2.871088028,5.233103275,2024-06-04 16:15:41.289794
31.32979397,-5.859424591,-4.849653244,4.755136967,2024-06-04 16:15:41.329794
31.36979397,-7.511070251,-6.128916264,4.350151539,2024-06-04 16:15:41.369794
31.40979397,-7.068996429,-6.288038731,4.482056141,2024-06-04 16:15:41.409794
31.44979397,-7.255935669,-7.508677483,4.194618225,2024-06-04 16:15:41.449794
31.48979397,-7.255935669,-7.508677483,4.194618225,2024-06-04 16:15:41.489794
31.52979397,-7.255935669,-7.508677483,4.194618225,2024-06-04 16:15:41.529794
31.56979397,-7.255935669,-7.508677483,4.194618225,2024-06-04 16:15:41.569794
31.60979397,-7.255935669,-7.508677483,4.194618225,2024-06-04 16:15:41.609794
31.64979397,-7.255935669,-7.508677483,4.194618225,2024-06-04 16:15:41.649794
31.68979397,-7.255935669,-7.508677483,4.194618225,2024-06-04 16:15:41.689794
31.72979397,-4.691727161,-6.508477688,3.408874989,2024-06-04 16:15:41.729794
31.76979397,-4.691727161,-6.508477688,3.408874989,2024-06-04 16:15:41.769794
31.80979397,-4.691727161,-6.508477688,3.408874989,2024-06-04 16:15:41.809794
31.84979397,-4.691727161,-6.508477688,3.408874989,2024-06-04 16:15:41.849794
31.88979397,-4.691727161,-6.508477688,3.408874989,2024-06-04 16:15:41.889794
31.92979397,-7.383054256,-7.85593605,4.792225361,2024-06-04 16:15:41.929794
31.96979397,-7.383054256,-7.85593605,4.792225361,2024-06-04 16:15:41.969794
32.00979397,-7.383054256,-7.85593605,4.792225361,2024-06-04 16:15:42.009794
32.04979397,-7.383054256,-7.85593605,4.792225361,2024-06-04 16:15:42.049794
32.08979397,-7.383054256,-7.85593605,4.792225361,2024-06-04 16:15:42.089794
32.12979397,-3.243471146,-2.246860504,3.485445261,2024-06-04 16:15:42.129794
32.16979397,-4.441378117,-1.870888233,4.928616524,2024-06-04 16:15:42.169794
32.20979397,-3.090330362,-0.9029914737,4.247260094,2024-06-04 16:15:42.209794
32.24979397,-3.207578659,-0.5497509837,3.731008768,2024-06-04 16:15:42.249794
32.28979397,-3.207578659,-0.5497509837,3.731008768,2024-06-04 16:15:42.289794
32.32979397,-3.207578659,-0.5497509837,3.731008768,2024-06-04 16:15:42.329794
32.36979397,-3.207578659,-0.5497509837,3.731008768,2024-06-04 16:15:42.369794
32.40979397,-6.673881531,-6.272485256,4.442574501,2024-06-04 16:15:42.409794
32.44979397,-6.673881531,-6.272485256,4.442574501,2024-06-04 16:15:42.449794
32.48979397,-8.499305725,-11.29472065,4.14646244,2024-06-04 16:15:42.489794
32.52979397,-8.499305725,-11.29472065,4.14646244,2024-06-04 16:15:42.529794
32.56979397,-8.499305725,-11.29472065,4.14646244,2024-06-04 16:15:42.569794
32.60979397,-8.499305725,-11.29472065,4.14646244,2024-06-04 16:15:42.609794
32.64979397,-8.499305725,-11.29472065,4.14646244,2024-06-04 16:15:42.649794
32.68979397,-8.499305725,-11.29472065,4.14646244,2024-06-04 16:15:42.689794
32.72979397,-8.499305725,-11.29472065,4.14646244,2024-06-04 16:15:42.729794
32.76979397,-8.499305725,-11.29472065,4.14646244,2024-06-04 16:15:42.769794
32.80979397,-8.499305725,-11.29472065,4.14646244,2024-06-04 16:15:42.809794
32.84979397,-8.499305725,-11.29472065,4.14646244,2024-06-04 16:15:42.849794
32.88979397,-8.499305725,-11.29472065,4.14646244,2024-06-04 16:15:42.889794
32.92979397,-7.645367622,-7.774580002,4.466502666,2024-06-04 16:15:42.929794
32.96979397,-8.17956543,-8.46819973,5.164608479,2024-06-04 16:15:42.969794
33.00979397,-5.198108196,-7.154240608,4.64716053,2024-06-04 16:15:43.009794
33.04979397,-6.833303452,-6.830910206,4.786243439,2024-06-04 16:15:43.049794
33.08979397,-6.833303452,-6.830910206,4.786243439,2024-06-04 16:15:43.089794
33.12979397,-6.833303452,-6.830910206,4.786243439,2024-06-04 16:15:43.129794
33.16979397,-6.833303452,-6.830910206,4.786243439,2024-06-04 16:15:43.169794
33.20979397,-4.247260094,-2.23728919,4.317848682,2024-06-04 16:15:43.209794
33.24979397,-1.573879123,-0.6900302172,4.017250061,2024-06-04 16:15:43.249794
33.28979397,0.1606182158,0.3520440459,3.839882135,2024-06-04 16:15:43.289794
33.32979397,-3.067299604,-2.79421854,4.188635826,2024-06-04 16:15:43.329794
33.36979397,-3.067299604,-2.79421854,4.188635826,2024-06-04 16:15:43.369794
33.40979397,-3.067299604,-2.79421854,4.188635826,2024-06-04 16:15:43.409794
33.44979397,-3.067299604,-2.79421854,4.188635826,2024-06-04 16:15:43.449794
33.48979397,-3.067299604,-2.79421854,4.188635826,2024-06-04 16:15:43.489794
33.52979397,-3.067299604,-2.79421854,4.188635826,2024-06-04 16:15:43.529794
33.56979397,-3.067299604,-2.79421854,4.188635826,2024-06-04 16:15:43.569794
33.60979397,-3.067299604,-2.79421854,4.188635826,2024-06-04 16:15:43.609794
33.64979397,-3.067299604,-2.79421854,4.188635826,2024-06-04 16:15:43.649794
33.68979397,-3.067299604,-2.79421854,4.188635826,2024-06-04 16:15:43.689794
33.72979397,-3.067299604,-2.79421854,4.188635826,2024-06-04 16:15:43.729794
33.76979397,-5.873781204,-8.069195747,3.054138899,2024-06-04 16:15:43.769794
33.80979397,-4.095016956,-6.948158741,3.508177042,2024-06-04 16:15:43.809794
33.84979397,-4.852046013,-7.893024445,4.157529354,2024-06-04 16:15:43.849794
33.88979397,-6.91106987,-7.389036179,4.881956577,2024-06-04 16:15:43.889794
33.92979397,-8.581858635,-7.299006462,3.827918053,2024-06-04 16:15:43.929794
33.96979397,-8.581858635,-7.299006462,3.827918053,2024-06-04 16:15:43.969794
34.00979397,-8.581858635,-7.299006462,3.827918053,2024-06-04 16:15:44.009794
34.04979397,-8.581858635,-7.299006462,3.827918053,2024-06-04 16:15:44.049794
34.08979397,-8.581858635,-7.299006462,3.827918053,2024-06-04 16:15:44.089794
34.12979397,-4.594518661,-4.864010334,4.431806564,2024-06-04 16:15:44.129794
34.16979397,-4.594518661,-4.864010334,4.431806564,2024-06-04 16:15:44.169794
34.20979397,-4.594518661,-4.864010334,4.431806564,2024-06-04 16:15:44.209794
34.24979397,-4.594518661,-4.864010334,4.431806564,2024-06-04 16:15:44.249794
34.28979397,-4.594518661,-4.864010334,4.431806564,2024-06-04 16:15:44.289794
34.32979397,-4.594518661,-4.864010334,4.431806564,2024-06-04 16:15:44.329794
34.36979397,-4.594518661,-4.864010334,4.431806564,2024-06-04 16:15:44.369794
34.40979397,-4.594518661,-4.864010334,4.431806564,2024-06-04 16:15:44.409794
34.44979397,-4.82333231,-4.162314892,3.882055521,2024-06-04 16:15:44.449794
34.48979397,-4.82333231,-4.162314892,3.882055521,2024-06-04 16:15:44.489794
34.52979397,-4.82333231,-4.162314892,3.882055521,2024-06-04 16:15:44.529794
34.56979397,-4.82333231,-4.162314892,3.882055521,2024-06-04 16:15:44.569794
34.60979397,-7.052246571,-9.597611427,4.975575447,2024-06-04 16:15:44.609794
34.64979397,-7.556533813,-9.577272415,4.48085928,2024-06-04 16:15:44.649794
34.68979397,-6.145665646,-8.792725563,5.437689304,2024-06-04 16:15:44.689794
34.72979397,-6.145665646,-8.792725563,5.437689304,2024-06-04 16:15:44.729794
34.76979397,-6.145665646,-8.792725563,5.437689304,2024-06-04 16:15:44.769794
34.80979397,-6.145665646,-8.792725563,5.437689304,2024-06-04 16:15:44.809794
34.84979397,-6.145665646,-8.792725563,5.437689304,2024-06-04 16:15:44.849794
34.88979397,-6.145665646,-8.792725563,5.437689304,2024-06-04 16:15:44.889794
34.92979397,-6.981658459,-6.404389858,3.988536358,2024-06-04 16:15:44.929794
34.96979397,-6.981658459,-6.404389858,3.988536358,2024-06-04 16:15:44.969794
35.00979397,-6.981658459,-6.404389858,3.988536358,2024-06-04 16:15:45.009794
35.04979397,-6.981658459,-6.404389858,3.988536358,2024-06-04 16:15:45.049794
35.08979397,-6.981658459,-6.404389858,3.988536358,2024-06-04 16:15:45.089794
35.12979397,-6.981658459,-6.404389858,3.988536358,2024-06-04 16:15:45.129794
35.16979397,-6.981658459,-6.404389858,3.988536358,2024-06-04 16:15:45.169794
35.20979397,-6.981658459,-6.404389858,3.988536358,2024-06-04 16:15:45.209794
35.24979397,-6.981658459,-6.404389858,3.988536358,2024-06-04 16:15:45.249794
35.28979397,-6.981658459,-6.404389858,3.988536358,2024-06-04 16:15:45.289794
35.32979397,-6.981658459,-6.404389858,3.988536358,2024-06-04 16:15:45.329794
35.36979397,-6.981658459,-6.404389858,3.988536358,2024-06-04 16:15:45.369794
35.40979397,-6.981658459,-6.404389858,3.988536358,2024-06-04 16:15:45.409794
35.44979397,-6.981658459,-6.404389858,3.988536358,2024-06-04 16:15:45.449794
35.48979397,-5.459224701,-5.291727066,3.837489367,2024-06-04 16:15:45.489794
35.52979397,-5.459224701,-5.291727066,3.837489367,2024-06-04 16:15:45.529794
35.56979397,-5.459224701,-5.291727066,3.837489367,2024-06-04 16:15:45.569794
35.60979397,-5.459224701,-5.291727066,3.837489367,2024-06-04 16:15:45.609794
35.64979397,-5.459224701,-5.291727066,3.837489367,2024-06-04 16:15:45.649794
35.68979397,-5.459224701,-5.291727066,3.837489367,2024-06-04 16:15:45.689794
35.72979397,-6.696613312,-8.047660828,4.03399992,2024-06-04 16:15:45.729794
35.76979397,-6.696613312,-8.047660828,4.03399992,2024-06-04 16:15:45.769794
35.80979397,-6.696613312,-8.047660828,4.03399992,2024-06-04 16:15:45.809794
35.84979397,-6.696613312,-8.047660828,4.03399992,2024-06-04 16:15:45.849794
35.88979397,-6.696613312,-8.047660828,4.03399992,2024-06-04 16:15:45.889794
35.92979397,-6.181558132,-7.285845757,4.359723091,2024-06-04 16:15:45.929794
35.96979397,-6.181558132,-7.285845757,4.359723091,2024-06-04 16:15:45.969794
36.00979397,-6.181558132,-7.285845757,4.359723091,2024-06-04 16:15:46.009794
36.04979397,-6.181558132,-7.285845757,4.359723091,2024-06-04 16:15:46.049794
36.08979397,-6.181558132,-7.285845757,4.359723091,2024-06-04 16:15:46.089794
36.12979397,-6.181558132,-7.285845757,4.359723091,2024-06-04 16:15:46.129794
36.16979397,-6.181558132,-7.285845757,4.359723091,2024-06-04 16:15:46.169794
36.20979397,-6.181558132,-7.285845757,4.359723091,2024-06-04 16:15:46.209794
36.24979397,-6.181558132,-7.285845757,4.359723091,2024-06-04 16:15:46.249794
36.28979397,-5.567201138,-3.744169235,5.15144825,2024-06-04 16:15:46.289794
36.32979397,-5.567201138,-3.744169235,5.15144825,2024-06-04 16:15:46.329794
36.36979397,-2.394318104,-0.8479565382,3.672384501,2024-06-04 16:15:46.369794
36.40979397,-2.394318104,-0.8479565382,3.672384501,2024-06-04 16:15:46.409794
36.44979397,-2.394318104,-0.8479565382,3.672384501,2024-06-04 16:15:46.449794
36.48979397,-5.168197632,-2.748754978,4.041178226,2024-06-04 16:15:46.489794
36.52979397,-5.168197632,-2.748754978,4.041178226,2024-06-04 16:15:46.529794
36.56979397,-5.168197632,-2.748754978,4.041178226,2024-06-04 16:15:46.569794
36.60979397,-5.168197632,-2.748754978,4.041178226,2024-06-04 16:15:46.609794
36.64979397,-5.168197632,-2.748754978,4.041178226,2024-06-04 16:15:46.649794
36.68979397,-7.161418915,-8.359026909,4.634000301,2024-06-04 16:15:46.689794
36.72979397,-7.161418915,-8.359026909,4.634000301,2024-06-04 16:15:46.729794
36.76979397,-7.161418915,-8.359026909,4.634000301,2024-06-04 16:15:46.769794
36.80979397,-7.161418915,-8.359026909,4.634000301,2024-06-04 16:15:46.809794
36.84979397,-7.161418915,-8.359026909,4.634000301,2024-06-04 16:15:46.849794
36.88979397,-7.161418915,-8.359026909,4.634000301,2024-06-04 16:15:46.889794
36.92979397,-7.569694519,-6.143272877,3.274577856,2024-06-04 16:15:46.929794
36.96979397,-7.569694519,-6.143272877,3.274577856,2024-06-04 16:15:46.969794
37.00979397,-7.569694519,-6.143272877,3.274577856,2024-06-04 16:15:47.009794
37.04979397,-7.569694519,-6.143272877,3.274577856,2024-06-04 16:15:47.049794
37.08979397,-7.569694519,-6.143272877,3.274577856,2024-06-04 16:15:47.089794
37.12979397,-7.570890903,-7.4010005,3.792025566,2024-06-04 16:15:47.129794
37.16979397,-8.992825508,-7.671688557,4.468895435,2024-06-04 16:15:47.169794
37.20979397,-8.992825508,-7.671688557,4.468895435,2024-06-04 16:15:47.209794
37.24979397,-4.539483547,-5.701199055,4.618446827,2024-06-04 16:15:47.249794
37.28979397,-2.478066921,-4.962415218,4.531108856,2024-06-04 16:15:47.289794
37.32979397,-2.478066921,-4.962415218,4.531108856,2024-06-04 16:15:47.329794
37.36979397,-2.478066921,-4.962415218,4.531108856,2024-06-04 16:15:47.369794
37.40979397,-2.478066921,-4.962415218,4.531108856,2024-06-04 16:15:47.409794
37.44979397,-2.478066921,-4.962415218,4.531108856,2024-06-04 16:15:47.449794
37.48979397,-2.915355206,-1.458724499,3.536890984,2024-06-04 16:15:47.489794
37.52979397,-4.366901398,-3.428017616,4.205385685,2024-06-04 16:15:47.529794
37.56979397,-4.366901398,-3.428017616,4.205385685,2024-06-04 16:15:47.569794
37.60979397,-4.366901398,-3.428017616,4.205385685,2024-06-04 16:15:47.609794
37.64979397,-4.366901398,-3.428017616,4.205385685,2024-06-04 16:15:47.649794
37.68979397,-4.366901398,-3.428017616,4.205385685,2024-06-04 16:15:47.689794
37.72979397,-4.366901398,-3.428017616,4.205385685,2024-06-04 16:15:47.729794
37.76979397,-4.366901398,-3.428017616,4.205385685,2024-06-04 16:15:47.769794
37.80979397,-4.366901398,-3.428017616,4.205385685,2024-06-04 16:15:47.809794
37.84979397,-4.366901398,-3.428017616,4.205385685,2024-06-04 16:15:47.849794
37.88979397,-4.366901398,-3.428017616,4.205385685,2024-06-04 16:15:47.889794
37.92979397,-5.744269848,-8.369794846,4.962415218,2024-06-04 16:15:47.929794
37.96979397,-5.703591824,-7.297810078,3.92991209,2024-06-04 16:15:47.969794
38.00979397,-7.57806921,-6.465406895,4.408775806,2024-06-04 16:15:48.009794
38.04979397,-8.167600632,-7.908876896,4.491627216,2024-06-04 16:15:48.049794
38.08979397,-8.167600632,-7.908876896,4.491627216,2024-06-04 16:15:48.089794
38.12979397,-8.167600632,-7.908876896,4.491627216,2024-06-04 16:15:48.129794
38.16979397,-8.167600632,-7.908876896,4.491627216,2024-06-04 16:15:48.169794
38.20979397,-7.309773922,-7.986643791,3.941876173,2024-06-04 16:15:48.209794
38.24979397,-7.309773922,-7.986643791,3.941876173,2024-06-04 16:15:48.249794
38.28979397,-7.309773922,-7.986643791,3.941876173,2024-06-04 16:15:48.289794
38.32979397,-7.309773922,-7.986643791,3.941876173,2024-06-04 16:15:48.329794
38.36979397,-7.309773922,-7.986643791,3.941876173,2024-06-04 16:15:48.369794
38.40979397,-7.309773922,-7.986643791,3.941876173,2024-06-04 16:15:48.409794
38.44979397,-7.309773922,-7.986643791,3.941876173,2024-06-04 16:15:48.449794
38.48979397,-7.309773922,-7.986643791,3.941876173,2024-06-04 16:15:48.489794
38.52979397,-7.309773922,-7.986643791,3.941876173,2024-06-04 16:15:48.529794
38.56979397,-7.309773922,-7.986643791,3.941876173,2024-06-04 16:15:48.569794
38.60979397,-7.309773922,-7.986643791,3.941876173,2024-06-04 16:15:48.609794
38.64979397,-7.309773922,-7.986643791,3.941876173,2024-06-04 16:15:48.649794
38.68979397,-8.286046028,-7.242774963,4.669892311,2024-06-04 16:15:48.689794
38.72979397,-8.286046028,-7.242774963,4.669892311,2024-06-04 16:15:48.729794
38.76979397,-7.168597698,-7.753044605,3.181257725,2024-06-04 16:15:48.769794
38.80979397,-6.452246189,-8.113463402,3.786043644,2024-06-04 16:15:48.809794
38.84979397,-7.138687134,-8.854939461,4.813760757,2024-06-04 16:15:48.849794
38.88979397,-7.611568928,-9.09571743,5.141876698,2024-06-04 16:15:48.889794
38.92979397,-6.897909641,-8.96889782,4.774279594,2024-06-04 16:15:48.929794
38.96979397,-6.897909641,-8.96889782,4.774279594,2024-06-04 16:15:48.969794
39.00979397,-6.897909641,-8.96889782,4.774279594,2024-06-04 16:15:49.009794
39.04979397,-6.897909641,-8.96889782,4.774279594,2024-06-04 16:15:49.049794
39.08979397,-5.647360325,-7.639385223,4.235296249,2024-06-04 16:15:49.089794
39.12979397,-7.013961315,-7.873881817,3.972982883,2024-06-04 16:15:49.129794
39.16979397,-7.013961315,-7.873881817,3.972982883,2024-06-04 16:15:49.169794
39.20979397,-7.013961315,-7.873881817,3.972982883,2024-06-04 16:15:49.209794
39.24979397,-7.013961315,-7.873881817,3.972982883,2024-06-04 16:15:49.249794
39.28979397,-7.013961315,-7.873881817,3.972982883,2024-06-04 16:15:49.289794
39.32979397,-7.013961315,-7.873881817,3.972982883,2024-06-04 16:15:49.329794
39.36979397,-7.013961315,-7.873881817,3.972982883,2024-06-04 16:15:49.369794
39.40979397,-7.013961315,-7.873881817,3.972982883,2024-06-04 16:15:49.409794
39.44979397,-5.330012321,-2.799004316,3.570390463,2024-06-04 16:15:49.449794
39.48979397,-5.330012321,-2.799004316,3.570390463,2024-06-04 16:15:49.489794
39.52979397,-5.330012321,-2.799004316,3.570390463,2024-06-04 16:15:49.529794
39.56979397,-2.333301067,-0.485144794,3.642474174,2024-06-04 16:15:49.569794
39.60979397,-4.919044971,-2.825624466,3.36700058,2024-06-04 16:15:49.609794
39.64979397,-6.204289913,-4.561018944,4.256831646,2024-06-04 16:15:49.649794
39.68979397,-7.598408222,-6.001797199,4.260420799,2024-06-04 16:15:49.689794
39.72979397,-7.598408222,-6.001797199,4.260420799,2024-06-04 16:15:49.729794
39.76979397,-7.598408222,-6.001797199,4.260420799,2024-06-04 16:15:49.769794
39.80979397,-7.598408222,-6.001797199,4.260420799,2024-06-04 16:15:49.809794
39.84979397,-7.598408222,-6.001797199,4.260420799,2024-06-04 16:15:49.849794
39.88979397,-6.915855408,-8.834600449,3.909573078,2024-06-04 16:15:49.889794
39.92979397,-7.806882858,-8.871688843,4.285545349,2024-06-04 16:15:49.929794
39.96979397,-7.806882858,-8.871688843,4.285545349,2024-06-04 16:15:49.969794
40.00979397,-7.806882858,-8.871688843,4.285545349,2024-06-04 16:15:50.009794
40.04979397,-7.806882858,-8.871688843,4.285545349,2024-06-04 16:15:50.049794
40.08979397,-7.806882858,-8.871688843,4.285545349,2024-06-04 16:15:50.089794
40.12979397,-7.806882858,-8.871688843,4.285545349,2024-06-04 16:15:50.129794
40.16979397,-7.806882858,-8.871688843,4.285545349,2024-06-04 16:15:50.169794
40.20979397,-7.806882858,-8.871688843,4.285545349,2024-06-04 16:15:50.209794
40.24979397,-7.806882858,-8.871688843,4.285545349,2024-06-04 16:15:50.249794
40.28979397,-7.806882858,-8.871688843,4.285545349,2024-06-04 16:15:50.289794
40.32979397,-7.806882858,-8.871688843,4.285545349,2024-06-04 16:15:50.329794
40.36979397,-7.806882858,-8.871688843,4.285545349,2024-06-04 16:15:50.369794
40.40979397,-7.806882858,-8.871688843,4.285545349,2024-06-04 16:15:50.409794
40.44979397,-7.806882858,-8.871688843,4.285545349,2024-06-04 16:15:50.449794
40.48979397,-2.109273195,-1.142572761,3.867399693,2024-06-04 16:15:50.489794
40.52979397,-2.109273195,-1.142572761,3.867399693,2024-06-04 16:15:50.529794
40.56979397,-2.109273195,-1.142572761,3.867399693,2024-06-04 16:15:50.569794
40.60979397,-2.109273195,-1.142572761,3.867399693,2024-06-04 16:15:50.609794
40.64979397,-2.109273195,-1.142572761,3.867399693,2024-06-04 16:15:50.649794
40.68979397,-2.109273195,-1.142572761,3.867399693,2024-06-04 16:15:50.689794
40.72979397,-8.177172661,-6.92542696,5.146662235,2024-06-04 16:15:50.729794
40.76979397,-8.701798439,-7.4010005,3.613760471,2024-06-04 16:15:50.769794
40.80979397,-8.701798439,-7.4010005,3.613760471,2024-06-04 16:15:50.809794
40.84979397,-8.701798439,-7.4010005,3.613760471,2024-06-04 16:15:50.849794
40.88979397,-8.701798439,-7.4010005,3.613760471,2024-06-04 16:15:50.889794
40.92979397,-7.48833847,-8.242975235,3.976572037,2024-06-04 16:15:50.929794
40.92979397,-7.48833847,-8.242975235,3.976572037,2024-06-04 16:15:50.929794
41.00979397,-7.48833847,-8.242975235,3.976572037,2024-06-04 16:15:51.009794
41.04979397,-7.48833847,-8.242975235,3.976572037,2024-06-04 16:15:51.049794
41.08979397,-7.48833847,-8.242975235,3.976572037,2024-06-04 16:15:51.089794
41.12979397,-7.48833847,-8.242975235,3.976572037,2024-06-04 16:15:51.129794
41.16979397,-7.48833847,-8.242975235,3.976572037,2024-06-04 16:15:51.169794
41.20979397,-7.48833847,-8.242975235,3.976572037,2024-06-04 16:15:51.209794
41.24979397,-7.48833847,-8.242975235,3.976572037,2024-06-04 16:15:51.249794
41.28979397,-7.48833847,-8.242975235,3.976572037,2024-06-04 16:15:51.289794
41.32979397,-7.48833847,-8.242975235,3.976572037,2024-06-04 16:15:51.329794
41.36979397,-6.754041195,-6.862017155,4.384847641,2024-06-04 16:15:51.369794
41.40979397,-5.30728054,-5.208875656,3.905983925,2024-06-04 16:15:51.409794
41.44979397,-3.752544165,-3.766901016,4.158725739,2024-06-04 16:15:51.449794
41.48979397,-6.709774017,-4.102195263,4.768297195,2024-06-04 16:15:51.489794
41.52979397,-6.709774017,-4.102195263,4.768297195,2024-06-04 16:15:51.529794
41.56979397,-6.709774017,-4.102195263,4.768297195,2024-06-04 16:15:51.569794
41.60979397,-6.709774017,-4.102195263,4.768297195,2024-06-04 16:15:51.609794
41.64979397,-6.709774017,-4.102195263,4.768297195,2024-06-04 16:15:51.649794
41.68979397,-4.738387108,-3.719044685,4.103391647,2024-06-04 16:15:51.689794
41.72979397,-4.738387108,-3.719044685,4.103391647,2024-06-04 16:15:51.729794
41.76979397,-4.738387108,-3.719044685,4.103391647,2024-06-04 16:15:51.769794
41.80979397,-4.738387108,-3.719044685,4.103391647,2024-06-04 16:15:51.809794
41.84979397,-4.738387108,-3.719044685,4.103391647,2024-06-04 16:15:51.849794
41.88979397,-4.738387108,-3.719044685,4.103391647,2024-06-04 16:15:51.889794
41.92979397,-8.584251404,-8.555537224,4.255635262,2024-06-04 16:15:51.929794
41.96979397,-8.584251404,-8.555537224,4.255635262,2024-06-04 16:15:51.969794
42.00979397,-8.584251404,-8.555537224,4.255635262,2024-06-04 16:15:52.009794
42.04979397,-8.584251404,-8.555537224,4.255635262,2024-06-04 16:15:52.049794
42.08979397,-8.584251404,-8.555537224,4.255635262,2024-06-04 16:15:52.089794
42.12979397,-8.584251404,-8.555537224,4.255635262,2024-06-04 16:15:52.129794
42.16979397,-8.584251404,-8.555537224,4.255635262,2024-06-04 16:15:52.169794
42.20979397,-8.584251404,-8.555537224,4.255635262,2024-06-04 16:15:52.209794
42.24979397,-8.584251404,-8.555537224,4.255635262,2024-06-04 16:15:52.249794
42.28979397,-8.584251404,-8.555537224,4.255635262,2024-06-04 16:15:52.289794
42.32979397,-8.584251404,-8.555537224,4.255635262,2024-06-04 16:15:52.329794
42.36979397,-8.584251404,-8.555537224,4.255635262,2024-06-04 16:15:52.369794
42.40979397,-8.584251404,-8.555537224,4.255635262,2024-06-04 16:15:52.409794
42.44979397,-8.584251404,-8.555537224,4.255635262,2024-06-04 16:15:52.449794
42.48979397,-8.584251404,-8.555537224,4.255635262,2024-06-04 16:15:52.489794
42.52979397,-8.584251404,-8.555537224,4.255635262,2024-06-04 16:15:52.529794
42.56979397,-8.584251404,-8.555537224,4.255635262,2024-06-04 16:15:52.569794
42.60979397,-8.584251404,-8.555537224,4.255635262,2024-06-04 16:15:52.609794
42.64979397,-8.584251404,-8.555537224,4.255635262,2024-06-04 16:15:52.649794
42.68979397,-8.584251404,-8.555537224,4.255635262,2024-06-04 16:15:52.689794
42.72979397,-8.584251404,-8.555537224,4.255635262,2024-06-04 16:15:52.729794
42.76979397,-8.584251404,-8.555537224,4.255635262,2024-06-04 16:15:52.769794
42.80979397,-8.584251404,-8.555537224,4.255635262,2024-06-04 16:15:52.809794
42.84979397,-8.584251404,-8.555537224,4.255635262,2024-06-04 16:15:52.849794
42.88979397,-8.584251404,-8.555537224,4.255635262,2024-06-04 16:15:52.889794
42.92979397,-6.714559555,-8.139784813,4.380061626,2024-06-04 16:15:52.929794
42.96979397,-7.699205875,-7.93878746,4.540679932,2024-06-04 16:15:52.969794
43.00979397,-8.638090134,-6.646364212,4.043570995,2024-06-04 16:15:53.009794
43.04979397,-8.638090134,-6.646364212,4.043570995,2024-06-04 16:15:53.049794
43.08979397,-8.638090134,-6.646364212,4.043570995,2024-06-04 16:15:53.089794
43.12979397,-8.638090134,-6.646364212,4.043570995,2024-06-04 16:15:53.129794
43.16979397,-8.638090134,-6.646364212,4.043570995,2024-06-04 16:15:53.169794
43.20979397,-8.638090134,-6.646364212,4.043570995,2024-06-04 16:15:53.209794
43.24979397,-8.638090134,-6.646364212,4.043570995,2024-06-04 16:15:53.249794
43.28979397,-8.638090134,-6.646364212,4.043570995,2024-06-04 16:15:53.289794
43.32979397,-8.638090134,-6.646364212,4.043570995,2024-06-04 16:15:53.329794
43.36979397,-8.638090134,-6.646364212,4.043570995,2024-06-04 16:15:53.369794
43.40979397,-8.638090134,-6.646364212,4.043570995,2024-06-04 16:15:53.409794
43.44979397,-8.638090134,-6.646364212,4.043570995,2024-06-04 16:15:53.449794
43.48979397,-8.638090134,-6.646364212,4.043570995,2024-06-04 16:15:53.489794
43.52979397,-8.638090134,-6.646364212,4.043570995,2024-06-04 16:15:53.529794
43.56979397,-8.638090134,-6.646364212,4.043570995,2024-06-04 16:15:53.569794
43.60979397,-8.638090134,-6.646364212,4.043570995,2024-06-04 16:15:53.609794
43.64979397,-8.638090134,-6.646364212,4.043570995,2024-06-04 16:15:53.649794
43.68979397,-2.889034271,-1.15094769,3.209971666,2024-06-04 16:15:53.689794
43.72979397,-3.787240028,-2.067398787,4.04476738,2024-06-04 16:15:53.729794
43.76979397,-5.214858055,-3.364607811,4.118945122,2024-06-04 16:15:53.769794
43.80979397,-7.018746853,-5.42572546,4.531108856,2024-06-04 16:15:53.809794
43.84979397,-7.018746853,-5.42572546,4.531108856,2024-06-04 16:15:53.849794
43.88979397,-7.018746853,-5.42572546,4.531108856,2024-06-04 16:15:53.889794
43.92979397,-8.081160545,-10.49462128,4.486841679,2024-06-04 16:15:53.929794
43.96979397,-7.654938698,-8.895617485,4.522733688,2024-06-04 16:15:53.969794
44.00979397,-8.960223198,-7.762615681,4.250849247,2024-06-04 16:15:54.009794
44.04979397,-8.545966148,-8.333902359,4.545465946,2024-06-04 16:15:54.049794
44.08979397,-8.545966148,-8.333902359,4.545465946,2024-06-04 16:15:54.089794
44.12979397,-8.545966148,-8.333902359,4.545465946,2024-06-04 16:15:54.129794
44.16979397,-8.545966148,-8.333902359,4.545465946,2024-06-04 16:15:54.169794
44.20979397,-8.545966148,-8.333902359,4.545465946,2024-06-04 16:15:54.209794
44.24979397,-7.338488102,-7.665706635,3.829114437,2024-06-04 16:15:54.249794
44.24979397,-8.545966148,-8.333902359,4.545465946,2024-06-04 16:15:54.249794
44.32979397,-7.338488102,-7.665706635,3.829114437,2024-06-04 16:15:54.329794
44.36979397,-7.338488102,-7.665706635,3.829114437,2024-06-04 16:15:54.369794
44.40979397,-7.338488102,-7.665706635,3.829114437,2024-06-04 16:15:54.409794
44.44979397,-7.537391186,-6.853642464,3.625724554,2024-06-04 16:15:54.449794
44.48979397,-7.537391186,-6.853642464,3.625724554,2024-06-04 16:15:54.489794
44.52979397,-7.537391186,-6.853642464,3.625724554,2024-06-04 16:15:54.529794
44.56979397,-7.537391186,-6.853642464,3.625724554,2024-06-04 16:15:54.569794
44.60979397,-7.537391186,-6.853642464,3.625724554,2024-06-04 16:15:54.609794
44.64979397,-2.702095032,-0.704387188,3.649652719,2024-06-04 16:15:54.649794
44.68979397,-2.492423773,-1.284048438,3.914358854,2024-06-04 16:15:54.689794
44.72979397,-3.926322937,-2.042274237,3.665206194,2024-06-04 16:15:54.729794
44.76979397,-4.726422787,-3.874577999,3.64127779,2024-06-04 16:15:54.769794
44.80979397,-4.726422787,-3.874577999,3.64127779,2024-06-04 16:15:54.809794
44.84979397,-4.726422787,-3.874577999,3.64127779,2024-06-04 16:15:54.849794
44.88979397,-4.726422787,-3.874577999,3.64127779,2024-06-04 16:15:54.889794
44.92979397,-8.266902924,-9.608379364,3.886841297,2024-06-04 16:15:54.929794
44.96979397,-8.266902924,-9.608379364,3.886841297,2024-06-04 16:15:54.969794
45.00979397,-8.266902924,-9.608379364,3.886841297,2024-06-04 16:15:55.009794
45.04979397,-8.266902924,-9.608379364,3.886841297,2024-06-04 16:15:55.049794
45.08979397,-8.266902924,-9.608379364,3.886841297,2024-06-04 16:15:55.089794
45.12979397,-8.266902924,-9.608379364,3.886841297,2024-06-04 16:15:55.129794
45.16979397,-8.266902924,-9.608379364,3.886841297,2024-06-04 16:15:55.169794
45.20979397,-8.266902924,-9.608379364,3.886841297,2024-06-04 16:15:55.209794
45.24979397,-8.266902924,-9.608379364,3.886841297,2024-06-04 16:15:55.249794
45.28979397,-8.266902924,-9.608379364,3.886841297,2024-06-04 16:15:55.289794
45.32979397,-8.266902924,-9.608379364,3.886841297,2024-06-04 16:15:55.329794
45.36979397,-7.753044605,-7.596015453,4.011268139,2024-06-04 16:15:55.369794
45.40979397,-6.944569588,-7.34327364,3.809971809,2024-06-04 16:15:55.409794
45.44979397,-6.944569588,-7.34327364,3.809971809,2024-06-04 16:15:55.449794
45.48979397,-7.358827114,-4.411168575,2.796611547,2024-06-04 16:15:55.489794
45.52979397,-4.462913513,-2.676970243,2.269592285,2024-06-04 16:15:55.529794
45.56979397,-4.462913513,-2.676970243,2.269592285,2024-06-04 16:15:55.569794
45.60979397,-4.462913513,-2.676970243,2.269592285,2024-06-04 16:15:55.609794
45.64979397,-4.462913513,-2.676970243,2.269592285,2024-06-04 16:15:55.649794
45.68979397,-2.996711254,-1.607378602,2.842374086,2024-06-04 16:15:55.689794
45.72979397,-4.375276089,-3.302095175,3.535694599,2024-06-04 16:15:55.729794
45.76979397,-6.58654356,-5.453242779,4.141676903,2024-06-04 16:15:55.769794
45.80979397,-6.58654356,-5.453242779,4.141676903,2024-06-04 16:15:55.809794
45.80979397,-8.03928566,-7.491927624,4.866403103,2024-06-04 16:15:55.809794
45.88979397,-8.03928566,-7.491927624,4.866403103,2024-06-04 16:15:55.889794
45.92979397,-8.03928566,-7.491927624,4.866403103,2024-06-04 16:15:55.929794
45.96979397,-8.03928566,-7.491927624,4.866403103,2024-06-04 16:15:55.969794
46.00979397,-8.03928566,-7.491927624,4.866403103,2024-06-04 16:15:56.009794
46.04979397,-8.03928566,-7.491927624,4.866403103,2024-06-04 16:15:56.049794
46.08979397,-8.03928566,-7.491927624,4.866403103,2024-06-04 16:15:56.089794
46.12979397,-8.03928566,-7.491927624,4.866403103,2024-06-04 16:15:56.129794
46.16979397,-8.03928566,-7.491927624,4.866403103,2024-06-04 16:15:56.169794
46.20979397,-8.03928566,-7.491927624,4.866403103,2024-06-04 16:15:56.209794
46.24979397,-7.285845757,-7.360322475,3.727419376,2024-06-04 16:15:56.249794
46.28979397,-8.047660828,-7.417750359,4.129712582,2024-06-04 16:15:56.289794
46.32979397,-10.11147022,-7.981858253,4.593322277,2024-06-04 16:15:56.329794
46.36979397,-7.894220829,-7.705187798,3.690330744,2024-06-04 16:15:56.369794
46.40979397,-7.979465485,-6.592525482,4.472484589,2024-06-04 16:15:56.409794
46.44979397,-7.584051132,-5.964708805,3.940679789,2024-06-04 16:15:56.449794
46.48979397,-7.584051132,-5.964708805,3.940679789,2024-06-04 16:15:56.489794
46.52979397,-7.584051132,-5.964708805,3.940679789,2024-06-04 16:15:56.529794
46.56979397,-7.584051132,-5.964708805,3.940679789,2024-06-04 16:15:56.569794
46.60979397,-2.908176899,-0.7654041648,3.974179268,2024-06-04 16:15:56.609794
46.64979397,-2.908176899,-0.7654041648,3.974179268,2024-06-04 16:15:56.649794
46.68979397,-3.692723513,-1.677966833,3.394518137,2024-06-04 16:15:56.689794
46.72979397,-3.692723513,-1.677966833,3.394518137,2024-06-04 16:15:56.729794
46.76979397,-3.692723513,-1.677966833,3.394518137,2024-06-04 16:15:56.769794
46.80979397,-3.692723513,-1.677966833,3.394518137,2024-06-04 16:15:56.809794
46.84979397,-3.692723513,-1.677966833,3.394518137,2024-06-04 16:15:56.849794
46.88979397,-3.692723513,-1.677966833,3.394518137,2024-06-04 16:15:56.889794
46.92979397,-3.692723513,-1.677966833,3.394518137,2024-06-04 16:15:56.929794
46.96979397,-3.692723513,-1.677966833,3.394518137,2024-06-04 16:15:56.969794
47.00979397,-3.692723513,-1.677966833,3.394518137,2024-06-04 16:15:57.009794
47.04979397,-3.692723513,-1.677966833,3.394518137,2024-06-04 16:15:57.049794
47.08979397,-7.00439024,-7.887042522,4.097409725,2024-06-04 16:15:57.089794
47.12979397,-4.770689964,-7.867899895,4.1129632,2024-06-04 16:15:57.129794
47.16979397,-4.770689964,-7.867899895,4.1129632,2024-06-04 16:15:57.169794
47.20979397,-4.770689964,-7.867899895,4.1129632,2024-06-04 16:15:57.209794
47.24979397,-4.770689964,-7.867899895,4.1129632,2024-06-04 16:15:57.249794
47.28979397,-9.209376335,-7.477570534,4.456931114,2024-06-04 16:15:57.289794
47.32979397,-9.801301003,-8.203493118,5.526523113,2024-06-04 16:15:57.329794
47.36979397,-5.860620975,-8.567501068,3.808775425,2024-06-04 16:15:57.369794
47.40979397,-6.234200478,-5.181358337,3.55244422,2024-06-04 16:15:57.409794
47.44979397,-6.234200478,-5.181358337,3.55244422,2024-06-04 16:15:57.449794
47.48979397,-6.234200478,-5.181358337,3.55244422,2024-06-04 16:15:57.489794
47.52979397,-6.234200478,-5.181358337,3.55244422,2024-06-04 16:15:57.529794
47.56979397,-6.234200478,-5.181358337,3.55244422,2024-06-04 16:15:57.569794
47.60979397,-6.234200478,-5.181358337,3.55244422,2024-06-04 16:15:57.609794
47.64979397,-6.234200478,-5.181358337,3.55244422,2024-06-04 16:15:57.649794
47.68979397,-6.234200478,-5.181358337,3.55244422,2024-06-04 16:15:57.689794
47.72979397,-6.234200478,-5.181358337,3.55244422,2024-06-04 16:15:57.729794
47.76979397,-6.234200478,-5.181358337,3.55244422,2024-06-04 16:15:57.769794
47.80979397,-6.234200478,-5.181358337,3.55244422,2024-06-04 16:15:57.809794
47.84979397,-6.234200478,-5.181358337,3.55244422,2024-06-04 16:15:57.849794
47.88979397,-8.296813011,-9.009575844,3.964607954,2024-06-04 16:15:57.889794
47.92979397,-8.296813011,-9.009575844,3.964607954,2024-06-04 16:15:57.929794
47.96979397,-8.269295692,-7.757830143,4.205385685,2024-06-04 16:15:57.969794
48.00979397,-9.531808853,-6.883552551,4.275974274,2024-06-04 16:15:58.009794
48.04979397,-7.951947689,-7.621140003,4.641178608,2024-06-04 16:15:58.049794
48.08979397,-7.120740891,-5.784050465,3.578765392,2024-06-04 16:15:58.089794
48.12979397,-7.120740891,-5.784050465,3.578765392,2024-06-04 16:15:58.129794
48.16979397,-7.120740891,-5.784050465,3.578765392,2024-06-04 16:15:58.169794
48.20979397,-7.120740891,-5.784050465,3.578765392,2024-06-04 16:15:58.209794
48.24979397,-7.120740891,-5.784050465,3.578765392,2024-06-04 16:15:58.249794
48.28979397,-7.120740891,-5.784050465,3.578765392,2024-06-04 16:15:58.289794
48.32979397,-7.120740891,-5.784050465,3.578765392,2024-06-04 16:15:58.329794
48.36979397,-7.120740891,-5.784050465,3.578765392,2024-06-04 16:15:58.369794
48.40979397,-7.120740891,-5.784050465,3.578765392,2024-06-04 16:15:58.409794
48.44979397,-7.120740891,-5.784050465,3.578765392,2024-06-04 16:15:58.449794
48.48979397,-7.120740891,-5.784050465,3.578765392,2024-06-04 16:15:58.489794
48.52979397,-7.120740891,-5.784050465,3.578765392,2024-06-04 16:15:58.529794
48.56979397,-7.120740891,-5.784050465,3.578765392,2024-06-04 16:15:58.569794
48.60979397,-7.120740891,-5.784050465,3.578765392,2024-06-04 16:15:58.609794
48.64979397,-7.120740891,-5.784050465,3.578765392,2024-06-04 16:15:58.649794
48.68979397,-3.448356628,-2.037488461,3.612264872,2024-06-04 16:15:58.689794
48.72979397,-5.896512985,-4.093820572,4.19581461,2024-06-04 16:15:58.729794
48.76979397,-5.896512985,-4.093820572,4.19581461,2024-06-04 16:15:58.769794
48.80979397,-5.896512985,-4.093820572,4.19581461,2024-06-04 16:15:58.809794
48.84979397,-5.896512985,-4.093820572,4.19581461,2024-06-04 16:15:58.849794
48.88979397,-5.896512985,-4.093820572,4.19581461,2024-06-04 16:15:58.889794
48.92979397,-5.896512985,-4.093820572,4.19581461,2024-06-04 16:15:58.929794
48.96979397,-8.283653259,-9.136395454,3.788436413,2024-06-04 16:15:58.969794
48.96979397,-8.283653259,-9.136395454,3.788436413,2024-06-04 16:15:58.969794
49.04979397,-7.791329861,-8.972486496,4.770689964,2024-06-04 16:15:59.049794
49.08979397,-6.191129684,-7.150651455,3.842274904,2024-06-04 16:15:59.089794
49.12979397,-6.191129684,-7.150651455,3.842274904,2024-06-04 16:15:59.129794
49.16979397,-6.191129684,-7.150651455,3.842274904,2024-06-04 16:15:59.169794
49.20979397,-6.191129684,-7.150651455,3.842274904,2024-06-04 16:15:59.209794
49.24979397,-6.191129684,-7.150651455,3.842274904,2024-06-04 16:15:59.249794
49.28979397,-6.191129684,-7.150651455,3.842274904,2024-06-04 16:15:59.289794
49.32979397,-6.191129684,-7.150651455,3.842274904,2024-06-04 16:15:59.329794
49.36979397,-6.191129684,-7.150651455,3.842274904,2024-06-04 16:15:59.369794
49.40979397,-6.191129684,-7.150651455,3.842274904,2024-06-04 16:15:59.409794
49.44979397,-7.727920055,-6.27966404,2.411067963,2024-06-04 16:15:59.449794
49.48979397,-7.727920055,-6.27966404,2.411067963,2024-06-04 16:15:59.489794
49.52979397,-4.253242016,-2.950051308,3.296113253,2024-06-04 16:15:59.529794
49.56979397,-4.253242016,-2.950051308,3.296113253,2024-06-04 16:15:59.569794
49.60979397,-4.253242016,-2.950051308,3.296113253,2024-06-04 16:15:59.609794
49.64979397,-1.898405671,-0.4779663086,3.474677563,2024-06-04 16:15:59.649794
49.68979397,-3.605086327,-1.87567389,3.581158161,2024-06-04 16:15:59.689794
49.72979397,-4.656732082,-3.685544968,3.831507206,2024-06-04 16:15:59.729794
49.76979397,-7.006783009,-5.328815937,4.655535698,2024-06-04 16:15:59.769794
49.80979397,-7.983054638,-6.663113594,4.49521637,2024-06-04 16:15:59.809794
49.84979397,-7.983054638,-6.663113594,4.49521637,2024-06-04 16:15:59.849794
49.88979397,-7.983054638,-6.663113594,4.49521637,2024-06-04 16:15:59.889794
49.92979397,-7.983054638,-6.663113594,4.49521637,2024-06-04 16:15:59.929794
49.96979397,-7.983054638,-6.663113594,4.49521637,2024-06-04 16:15:59.969794
50.00979397,-7.983054638,-6.663113594,4.49521637,2024-06-04 16:16:00.009794
50.04979397,-7.983054638,-6.663113594,4.49521637,2024-06-04 16:16:00.049794
50.08979397,-7.983054638,-6.663113594,4.49521637,2024-06-04 16:16:00.089794
50.12979397,-7.983054638,-6.663113594,4.49521637,2024-06-04 16:16:00.129794
50.16979397,-7.983054638,-6.663113594,4.49521637,2024-06-04 16:16:00.169794
50.20979397,-7.983054638,-6.663113594,4.49521637,2024-06-04 16:16:00.209794
50.24979397,-7.983054638,-6.663113594,4.49521637,2024-06-04 16:16:00.249794
50.28979397,-7.983054638,-6.663113594,4.49521637,2024-06-04 16:16:00.289794
50.32979397,-7.983054638,-6.663113594,4.49521637,2024-06-04 16:16:00.329794
50.36979397,-6.048756599,-6.421139717,3.865006685,2024-06-04 16:16:00.369794
50.40979397,-6.643970966,-6.400800705,4.366901398,2024-06-04 16:16:00.409794
50.44979397,-6.643970966,-6.400800705,4.366901398,2024-06-04 16:16:00.449794
50.48979397,-6.643970966,-6.400800705,4.366901398,2024-06-04 16:16:00.489794
50.52979397,-4.225724697,-2.656631231,2.833999395,2024-06-04 16:16:00.529794
50.56979397,-0.5485545993,0.01674975827,3.480659723,2024-06-04 16:16:00.569794
50.60979397,-2.036292076,-0.2048854381,4.810171604,2024-06-04 16:16:00.609794
50.64979397,-2.036292076,-0.2048854381,4.810171604,2024-06-04 16:16:00.649794
50.68979397,-3.974179268,-2.938086987,4.132105827,2024-06-04 16:16:00.689794
50.72979397,-3.974179268,-2.938086987,4.132105827,2024-06-04 16:16:00.729794
50.76979397,-3.974179268,-2.938086987,4.132105827,2024-06-04 16:16:00.769794
50.80979397,-3.974179268,-2.938086987,4.132105827,2024-06-04 16:16:00.809794
50.84979397,-3.974179268,-2.938086987,4.132105827,2024-06-04 16:16:00.849794
50.88979397,-3.974179268,-2.938086987,4.132105827,2024-06-04 16:16:00.889794
50.92979397,-3.974179268,-2.938086987,4.132105827,2024-06-04 16:16:00.929794
50.96979397,-3.974179268,-2.938086987,4.132105827,2024-06-04 16:16:00.969794
51.00979397,-3.974179268,-2.938086987,4.132105827,2024-06-04 16:16:01.009794
51.04979397,-3.974179268,-2.938086987,4.132105827,2024-06-04 16:16:01.049794
51.08979397,-3.974179268,-2.938086987,4.132105827,2024-06-04 16:16:01.089794
51.12979397,-3.974179268,-2.938086987,4.132105827,2024-06-04 16:16:01.129794
51.16979397,-3.974179268,-2.938086987,4.132105827,2024-06-04 16:16:01.169794
51.20979397,-3.974179268,-2.938086987,4.132105827,2024-06-04 16:16:01.209794
51.24979397,-9.256335258,-7.766204834,4.407579422,2024-06-04 16:16:01.249794
51.28979397,-10.33789158,-7.079763889,4.177868366,2024-06-04 16:16:01.289794
51.32979397,-10.57388306,-7.417750359,3.119044304,2024-06-04 16:16:01.329794
51.36979397,-10.57388306,-7.417750359,3.119044304,2024-06-04 16:16:01.369794
51.40979397,-10.57388306,-7.417750359,3.119044304,2024-06-04 16:16:01.409794
51.44979397,-6.204289913,-4.186243057,3.285345554,2024-06-04 16:16:01.449794
51.48979397,-6.204289913,-4.186243057,3.285345554,2024-06-04 16:16:01.489794
51.52979397,-3.506980658,-2.342872381,2.724826813,2024-06-04 16:16:01.529794
51.56979397,-3.506980658,-2.342872381,2.724826813,2024-06-04 16:16:01.569794
51.60979397,-3.842274904,-0.3460619748,3.765704632,2024-06-04 16:16:01.609794
51.64979397,-3.842274904,-0.3460619748,3.765704632,2024-06-04 16:16:01.649794
51.68979397,-3.809971809,-2.224128723,3.1405797,2024-06-04 16:16:01.689794
51.72979397,-3.809971809,-2.224128723,3.1405797,2024-06-04 16:16:01.729794
51.76979397,-3.809971809,-2.224128723,3.1405797,2024-06-04 16:16:01.769794
51.80979397,-3.809971809,-2.224128723,3.1405797,2024-06-04 16:16:01.809794
51.84979397,-3.809971809,-2.224128723,3.1405797,2024-06-04 16:16:01.849794
51.88979397,-3.809971809,-2.224128723,3.1405797,2024-06-04 16:16:01.889794
51.92979397,-3.809971809,-2.224128723,3.1405797,2024-06-04 16:16:01.929794
51.96979397,-8.467002869,-10.11386299,4.303491592,2024-06-04 16:16:01.969794
52.00979397,-9.980762482,-9.353244781,5.722734451,2024-06-04 16:16:02.009794
52.04979397,-8.27408123,-7.787740231,5.132305622,2024-06-04 16:16:02.049794
52.08979397,-8.27408123,-7.787740231,5.132305622,2024-06-04 16:16:02.089794
52.12979397,-8.27408123,-7.787740231,5.132305622,2024-06-04 16:16:02.129794
52.16979397,-6.55782938,-7.466803074,3.717848301,2024-06-04 16:16:02.169794
52.20979397,-6.55782938,-7.466803074,3.717848301,2024-06-04 16:16:02.209794
52.24979397,-10.77727318,-7.832007408,4.550251484,2024-06-04 16:16:02.249794
52.28979397,-9.661021233,-7.295417309,3.329612732,2024-06-04 16:16:02.289794
52.32979397,-9.661021233,-7.295417309,3.329612732,2024-06-04 16:16:02.329794
52.36979397,-9.661021233,-7.295417309,3.329612732,2024-06-04 16:16:02.369794
52.40979397,-9.661021233,-7.295417309,3.329612732,2024-06-04 16:16:02.409794
52.44979397,-9.661021233,-7.295417309,3.329612732,2024-06-04 16:16:02.449794
52.48979397,-9.661021233,-7.295417309,3.329612732,2024-06-04 16:16:02.489794
52.52979397,-9.661021233,-7.295417309,3.329612732,2024-06-04 16:16:02.529794
52.56979397,-9.661021233,-7.295417309,3.329612732,2024-06-04 16:16:02.569794
52.60979397,-9.661021233,-7.295417309,3.329612732,2024-06-04 16:16:02.609794
52.64979397,-9.661021233,-7.295417309,3.329612732,2024-06-04 16:16:02.649794
52.68979397,-9.661021233,-7.295417309,3.329612732,2024-06-04 16:16:02.689794
52.72979397,-9.661021233,-7.295417309,3.329612732,2024-06-04 16:16:02.729794
52.76979397,-9.661021233,-7.295417309,3.329612732,2024-06-04 16:16:02.769794
52.80979397,-9.661021233,-7.295417309,3.329612732,2024-06-04 16:16:02.809794
52.80979397,-8.240582466,-6.3373909,3.988536358,2024-06-04 16:16:02.809794
52.88979397,-6.016154289,-7.066603661,3.522534132,2024-06-04 16:16:02.889794
52.92979397,-7.362715244,-7.955537319,4.116552353,2024-06-04 16:16:02.929794
52.96979397,-7.362715244,-7.955537319,4.116552353,2024-06-04 16:16:02.969794
53.00979397,-7.362715244,-7.955537319,4.116552353,2024-06-04 16:16:03.009794
53.04979397,-7.362715244,-7.955537319,4.116552353,2024-06-04 16:16:03.049794
53.08979397,-7.362715244,-7.955537319,4.116552353,2024-06-04 16:16:03.089794
53.12979397,-5.849853039,-7.276274681,3.757329702,2024-06-04 16:16:03.129794
53.16979397,-5.849853039,-7.276274681,3.757329702,2024-06-04 16:16:03.169794
53.20979397,-5.849853039,-7.276274681,3.757329702,2024-06-04 16:16:03.209794
53.24979397,-5.849853039,-7.276274681,3.757329702,2024-06-04 16:16:03.249794
53.28979397,-5.849853039,-7.276274681,3.757329702,2024-06-04 16:16:03.289794
53.32979397,-5.849853039,-7.276274681,3.757329702,2024-06-04 16:16:03.329794
53.36979397,-5.849853039,-7.276274681,3.757329702,2024-06-04 16:16:03.369794
53.40979397,-5.849853039,-7.276274681,3.757329702,2024-06-04 16:16:03.409794
53.44979397,-6.713363171,-4.380061626,2.481656075,2024-06-04 16:16:03.449794
53.48979397,-6.713363171,-4.380061626,2.481656075,2024-06-04 16:16:03.489794
53.52979397,-6.713363171,-4.380061626,2.481656075,2024-06-04 16:16:03.529794
53.56979397,-6.713363171,-4.380061626,2.481656075,2024-06-04 16:16:03.569794
53.60979397,-6.713363171,-4.380061626,2.481656075,2024-06-04 16:16:03.609794
53.64979397,-6.713363171,-4.380061626,2.481656075,2024-06-04 16:16:03.649794
53.68979397,-6.091827393,-3.322434187,4.139284134,2024-06-04 16:16:03.689794
53.72979397,-6.26530695,-6.260521412,5.178965569,2024-06-04 16:16:03.729794
53.76979397,-6.26530695,-6.260521412,5.178965569,2024-06-04 16:16:03.769794
53.80979397,-6.26530695,-6.260521412,5.178965569,2024-06-04 16:16:03.809794
53.84979397,-7.07737112,-7.757830143,4.552644253,2024-06-04 16:16:03.849794
53.88979397,-7.07737112,-7.757830143,4.552644253,2024-06-04 16:16:03.889794
53.92979397,-10.02383327,-7.51346302,4.765904427,2024-06-04 16:16:03.929794
53.96979397,-10.02383327,-7.51346302,4.765904427,2024-06-04 16:16:03.969794
54.00979397,-10.02383327,-7.51346302,4.765904427,2024-06-04 16:16:04.009794
54.04979397,-10.02383327,-7.51346302,4.765904427,2024-06-04 16:16:04.049794
54.08979397,-10.02383327,-7.51346302,4.765904427,2024-06-04 16:16:04.089794
54.12979397,-10.02383327,-7.51346302,4.765904427,2024-06-04 16:16:04.129794
54.16979397,-10.02383327,-7.51346302,4.765904427,2024-06-04 16:16:04.169794
54.20979397,-10.02383327,-7.51346302,4.765904427,2024-06-04 16:16:04.209794
54.24979397,-10.02383327,-7.51346302,4.765904427,2024-06-04 16:16:04.249794
54.28979397,-10.02383327,-7.51346302,4.765904427,2024-06-04 16:16:04.289794
54.32979397,-10.02383327,-7.51346302,4.765904427,2024-06-04 16:16:04.329794
54.36979397,-10.02383327,-7.51346302,4.765904427,2024-06-04 16:16:04.369794
54.40979397,-10.02383327,-7.51346302,4.765904427,2024-06-04 16:16:04.409794
54.44979397,-4.569394112,-2.388336182,1.896012783,2024-06-04 16:16:04.449794
54.48979397,-4.569394112,-2.388336182,1.896012783,2024-06-04 16:16:04.489794
54.52979397,-4.569394112,-2.388336182,1.896012783,2024-06-04 16:16:04.529794
54.56979397,-4.569394112,-2.388336182,1.896012783,2024-06-04 16:16:04.569794
54.60979397,-2.35962224,-1.658824325,4.126123428,2024-06-04 16:16:04.609794
54.64979397,-2.35962224,-1.658824325,4.126123428,2024-06-04 16:16:04.649794
54.68979397,-6.36251545,-4.496412754,4.348955154,2024-06-04 16:16:04.689794
54.72979397,-7.668099403,-5.755336761,4.74436903,2024-06-04 16:16:04.729794
54.76979397,-7.668099403,-5.755336761,4.74436903,2024-06-04 16:16:04.769794
54.80979397,-7.668099403,-5.755336761,4.74436903,2024-06-04 16:16:04.809794
54.84979397,-7.668099403,-5.755336761,4.74436903,2024-06-04 16:16:04.849794
54.88979397,-7.668099403,-5.755336761,4.74436903,2024-06-04 16:16:04.889794
54.92979397,-7.668099403,-5.755336761,4.74436903,2024-06-04 16:16:04.929794
54.96979397,-7.668099403,-5.755336761,4.74436903,2024-06-04 16:16:04.969794
55.00979397,-7.668099403,-5.755336761,4.74436903,2024-06-04 16:16:05.009794
55.04979397,-7.668099403,-5.755336761,4.74436903,2024-06-04 16:16:05.049794
55.08979397,-7.668099403,-5.755336761,4.74436903,2024-06-04 16:16:05.089794
55.12979397,-7.668099403,-5.755336761,4.74436903,2024-06-04 16:16:05.129794
55.16979397,-7.668099403,-5.755336761,4.74436903,2024-06-04 16:16:05.169794
55.20979397,-7.668099403,-5.755336761,4.74436903,2024-06-04 16:16:05.209794
55.24979397,-7.668099403,-5.755336761,4.74436903,2024-06-04 16:16:05.249794
55.28979397,-7.668099403,-5.755336761,4.74436903,2024-06-04 16:16:05.289794
55.32979397,-6.707380772,-5.468796253,3.790829182,2024-06-04 16:16:05.329794
55.36979397,-5.732305527,-5.484349728,1.294816136,2024-06-04 16:16:05.369794
55.40979397,-4.818546772,-2.776272535,3.211168051,2024-06-04 16:16:05.409794
55.44979397,-4.818546772,-2.776272535,3.211168051,2024-06-04 16:16:05.449794
55.48979397,-4.30827713,-1.98813653,3.868596077,2024-06-04 16:16:05.489794
55.52979397,-3.323630571,-1.270887971,3.526123285,2024-06-04 16:16:05.529794
55.56979397,-1.727019787,-0.5545366406,2.972783089,2024-06-04 16:16:05.569794
55.60979397,-1.727019787,-0.5545366406,2.972783089,2024-06-04 16:16:05.609794
55.64979397,-1.727019787,-0.5545366406,2.972783089,2024-06-04 16:16:05.649794
55.68979397,-7.774580002,-5.385047436,4.654339314,2024-06-04 16:16:05.689794
55.72979397,-7.774580002,-5.385047436,4.654339314,2024-06-04 16:16:05.729794
55.76979397,-7.774580002,-5.385047436,4.654339314,2024-06-04 16:16:05.769794
55.80979397,-7.774580002,-5.385047436,4.654339314,2024-06-04 16:16:05.809794
55.84979397,-7.237989426,-8.43948555,3.992125511,2024-06-04 16:16:05.849794
55.88979397,-7.237989426,-8.43948555,3.992125511,2024-06-04 16:16:05.889794
55.92979397,-7.237989426,-8.43948555,3.992125511,2024-06-04 16:16:05.929794
55.96979397,-7.237989426,-8.43948555,3.992125511,2024-06-04 16:16:05.969794
56.00979397,-7.237989426,-8.43948555,3.992125511,2024-06-04 16:16:06.009794
56.04979397,-7.237989426,-8.43948555,3.992125511,2024-06-04 16:16:06.049794
56.08979397,-7.237989426,-8.43948555,3.992125511,2024-06-04 16:16:06.089794
56.12979397,-7.237989426,-8.43948555,3.992125511,2024-06-04 16:16:06.129794
56.16979397,-7.237989426,-8.43948555,3.992125511,2024-06-04 16:16:06.169794
56.20979397,-7.237989426,-8.43948555,3.992125511,2024-06-04 16:16:06.209794
56.24979397,-10.09950638,-8.187939644,4.514358997,2024-06-04 16:16:06.249794
56.28979397,-7.054639339,-7.94955492,3.869792461,2024-06-04 16:16:06.289794
56.32979397,-6.707380772,-5.597111225,4.503591537,2024-06-04 16:16:06.329794
56.36979397,-6.707380772,-5.597111225,4.503591537,2024-06-04 16:16:06.369794
56.40979397,-6.707380772,-5.597111225,4.503591537,2024-06-04 16:16:06.409794
56.44979397,-3.843471289,-2.606382132,2.442174673,2024-06-04 16:16:06.449794
56.48979397,-3.843471289,-2.606382132,2.442174673,2024-06-04 16:16:06.489794
56.52979397,-3.843471289,-2.606382132,2.442174673,2024-06-04 16:16:06.529794
56.52979397,-5.615057468,-0.8001000881,4.038785458,2024-06-04 16:16:06.529794
56.60979397,-5.615057468,-0.8001000881,4.038785458,2024-06-04 16:16:06.609794
56.64979397,-5.615057468,-0.8001000881,4.038785458,2024-06-04 16:16:06.649794
56.68979397,-7.281060219,-5.510969639,4.644767761,2024-06-04 16:16:06.689794
56.72979397,-7.281060219,-5.510969639,4.644767761,2024-06-04 16:16:06.729794
56.76979397,-7.281060219,-5.510969639,4.644767761,2024-06-04 16:16:06.769794
56.80979397,-7.281060219,-5.510969639,4.644767761,2024-06-04 16:16:06.809794
56.84979397,-7.281060219,-5.510969639,4.644767761,2024-06-04 16:16:06.849794
56.88979397,-7.281060219,-5.510969639,4.644767761,2024-06-04 16:16:06.889794
56.92979397,-7.281060219,-5.510969639,4.644767761,2024-06-04 16:16:06.929794
56.96979397,-7.281060219,-5.510969639,4.644767761,2024-06-04 16:16:06.969794
57.00979397,-6.386443615,-7.806882858,3.778865099,2024-06-04 16:16:07.009794
57.04979397,-6.247360706,-7.088139057,3.21954298,2024-06-04 16:16:07.049794
57.08979397,-6.247360706,-7.088139057,3.21954298,2024-06-04 16:16:07.089794
57.12979397,-6.247360706,-7.088139057,3.21954298,2024-06-04 16:16:07.129794
57.16979397,-6.247360706,-7.088139057,3.21954298,2024-06-04 16:16:07.169794
57.20979397,-6.247360706,-7.088139057,3.21954298,2024-06-04 16:16:07.209794
57.24979397,-11.06949711,-8.17956543,2.76311183,2024-06-04 16:16:07.249794
57.28979397,-8.544769287,-7.192525864,5.11196661,2024-06-04 16:16:07.289794
57.32979397,-7.545766354,-6.924230576,3.318845034,2024-06-04 16:16:07.329794
57.36979397,-7.545766354,-6.924230576,3.318845034,2024-06-04 16:16:07.369794
57.40979397,-7.545766354,-6.924230576,3.318845034,2024-06-04 16:16:07.409794
57.44979397,-7.545766354,-6.924230576,3.318845034,2024-06-04 16:16:07.449794
57.48979397,-7.545766354,-6.924230576,3.318845034,2024-06-04 16:16:07.489794
57.52979397,-7.545766354,-6.924230576,3.318845034,2024-06-04 16:16:07.529794
57.56979397,-7.545766354,-6.924230576,3.318845034,2024-06-04 16:16:07.569794
57.60979397,-7.545766354,-6.924230576,3.318845034,2024-06-04 16:16:07.609794
57.64979397,-7.545766354,-6.924230576,3.318845034,2024-06-04 16:16:07.649794
57.68979397,-7.064210415,-5.744269848,3.732205153,2024-06-04 16:16:07.689794
57.72979397,-7.064210415,-5.744269848,3.732205153,2024-06-04 16:16:07.729794
57.76979397,-8.693124771,-9.826425552,2.9476583,2024-06-04 16:16:07.769794
57.80979397,-8.912366867,-9.372386932,6.280860424,2024-06-04 16:16:07.809794
57.84979397,-7.006783009,-10.43599701,4.304687977,2024-06-04 16:16:07.849794
57.88979397,-11.12004471,-9.784550667,5.300102234,2024-06-04 16:16:07.889794
57.92979397,-11.12004471,-9.784550667,5.300102234,2024-06-04 16:16:07.929794
57.96979397,-11.12004471,-9.784550667,5.300102234,2024-06-04 16:16:07.969794
58.00979397,-11.12004471,-9.784550667,5.300102234,2024-06-04 16:16:08.009794
58.04979397,-11.12004471,-9.784550667,5.300102234,2024-06-04 16:16:08.049794
58.08979397,-7.445267677,-8.82861805,4.175475597,2024-06-04 16:16:08.089794
58.12979397,-7.445267677,-8.82861805,4.175475597,2024-06-04 16:16:08.129794
58.16979397,-7.445267677,-8.82861805,4.175475597,2024-06-04 16:16:08.169794
58.20979397,-7.445267677,-8.82861805,4.175475597,2024-06-04 16:16:08.209794
58.24979397,-7.445267677,-8.82861805,4.175475597,2024-06-04 16:16:08.249794
58.28979397,-7.445267677,-8.82861805,4.175475597,2024-06-04 16:16:08.289794
58.32979397,-7.445267677,-8.82861805,4.175475597,2024-06-04 16:16:08.329794
58.36979397,-7.445267677,-8.82861805,4.175475597,2024-06-04 16:16:08.369794
58.40979397,-7.445267677,-8.82861805,4.175475597,2024-06-04 16:16:08.409794
58.44979397,-7.445267677,-8.82861805,4.175475597,2024-06-04 16:16:08.449794
58.48979397,-7.445267677,-8.82861805,4.175475597,2024-06-04 16:16:08.489794
58.52979397,-7.445267677,-8.82861805,4.175475597,2024-06-04 16:16:08.529794
58.56979397,-7.445267677,-8.82861805,4.175475597,2024-06-04 16:16:08.569794
58.60979397,-7.445267677,-8.82861805,4.175475597,2024-06-04 16:16:08.609794
58.64979397,-7.445267677,-8.82861805,4.175475597,2024-06-04 16:16:08.649794
58.68979397,-3.876971006,-9.401101112,2.527119875,2024-06-04 16:16:08.689794
58.72979397,-10.39172935,-14.80289841,8.301599503,2024-06-04 16:16:08.729794
58.76979397,-11.95843029,-9.614361763,6.261717796,2024-06-04 16:16:08.769794
58.80979397,-8.420043945,-13.75723457,6.440282345,2024-06-04 16:16:08.809794
58.84979397,-10.35464096,-10.50179958,3.77647233,2024-06-04 16:16:08.849794
58.88979397,-10.35464096,-10.50179958,3.77647233,2024-06-04 16:16:08.889794
58.92979397,-10.35464096,-10.50179958,3.77647233,2024-06-04 16:16:08.929794
58.96979397,-10.35464096,-10.50179958,3.77647233,2024-06-04 16:16:08.969794
59.00979397,-10.35464096,-10.50179958,3.77647233,2024-06-04 16:16:09.009794
59.04979397,-10.35464096,-10.50179958,3.77647233,2024-06-04 16:16:09.049794
59.08979397,-10.35464096,-10.50179958,3.77647233,2024-06-04 16:16:09.089794
59.12979397,-10.35464096,-10.50179958,3.77647233,2024-06-04 16:16:09.129794
59.16979397,-10.35464096,-10.50179958,3.77647233,2024-06-04 16:16:09.169794
59.20979397,-10.35464096,-10.50179958,3.77647233,2024-06-04 16:16:09.209794
59.24979397,-10.35464096,-10.50179958,3.77647233,2024-06-04 16:16:09.249794
59.28979397,-10.35464096,-10.50179958,3.77647233,2024-06-04 16:16:09.289794
59.32979397,-10.35464096,-10.50179958,3.77647233,2024-06-04 16:16:09.329794
59.36979397,-10.35464096,-10.50179958,3.77647233,2024-06-04 16:16:09.369794
59.40979397,-10.35464096,-10.50179958,3.77647233,2024-06-04 16:16:09.409794
59.44979397,-3.009871721,-0.9499505758,2.747558594,2024-06-04 16:16:09.449794
59.48979397,-3.009871721,-0.9499505758,2.747558594,2024-06-04 16:16:09.489794
59.52979397,-5.868995667,-2.976372242,5.374279499,2024-06-04 16:16:09.529794
59.56979397,-7.427321434,-9.020342827,5.000699997,2024-06-04 16:16:09.569794
59.60979397,-7.310970306,-9.131608963,3.690330744,2024-06-04 16:16:09.609794
59.64979397,-11.42303658,-10.88764191,5.11196661,2024-06-04 16:16:09.649794
59.68979397,-13.4219408,-13.02802181,3.652045488,2024-06-04 16:16:09.689794
59.72979397,-13.4219408,-13.02802181,3.652045488,2024-06-04 16:16:09.729794
59.76979397,-13.4219408,-13.02802181,3.652045488,2024-06-04 16:16:09.769794
59.80979397,-13.4219408,-13.02802181,3.652045488,2024-06-04 16:16:09.809794
59.84979397,-13.4219408,-13.02802181,3.652045488,2024-06-04 16:16:09.849794
59.88979397,-3.43758893,-3.553640842,-0.9846464992,2024-06-04 16:16:09.889794
59.92979397,-7.564908981,-6.876374245,3.182454109,2024-06-04 16:16:09.929794
59.92979397,-3.43758893,-3.553640842,-0.9846464992,2024-06-04 16:16:09.929794
60.00979397,-7.564908981,-6.876374245,3.182454109,2024-06-04 16:16:10.009794
60.04979397,-7.564908981,-6.876374245,3.182454109,2024-06-04 16:16:10.049794
60.08979397,-7.564908981,-6.876374245,3.182454109,2024-06-04 16:16:10.089794
60.12979397,-7.564908981,-6.876374245,3.182454109,2024-06-04 16:16:10.129794
60.16979397,-7.564908981,-6.876374245,3.182454109,2024-06-04 16:16:10.169794
60.20979397,-7.564908981,-6.876374245,3.182454109,2024-06-04 16:16:10.209794
60.24979397,-7.564908981,-6.876374245,3.182454109,2024-06-04 16:16:10.249794
60.28979397,-7.564908981,-6.876374245,3.182454109,2024-06-04 16:16:10.289794
60.32979397,-1.401296735,-0.2156531364,3.178864956,2024-06-04 16:16:10.329794
60.36979397,-2.873480797,-0.1450648755,4.504787922,2024-06-04 16:16:10.369794
60.40979397,-6.850052834,-4.551447868,6.224628925,2024-06-04 16:16:10.409794
60.44979397,-6.850052834,-4.551447868,6.224628925,2024-06-04 16:16:10.449794
60.48979397,-6.850052834,-4.551447868,6.224628925,2024-06-04 16:16:10.489794
60.52979397,-6.850052834,-4.551447868,6.224628925,2024-06-04 16:16:10.529794
60.56979397,-6.850052834,-4.551447868,6.224628925,2024-06-04 16:16:10.569794
60.60979397,-8.362615585,-7.260721207,3.318845034,2024-06-04 16:16:10.609794
60.64979397,-7.534998417,-5.947958946,4.149154663,2024-06-04 16:16:10.649794
60.68979397,-8.554341316,-9.892228127,6.262914181,2024-06-04 16:16:10.689794
60.72979397,-8.554341316,-9.892228127,6.262914181,2024-06-04 16:16:10.729794
60.72979397,-9.891031265,-7.397411346,5.464010715,2024-06-04 16:16:10.729794
60.80979397,-9.891031265,-7.397411346,5.464010715,2024-06-04 16:16:10.809794
60.84979397,-9.891031265,-7.397411346,5.464010715,2024-06-04 16:16:10.849794
60.88979397,-9.891031265,-7.397411346,5.464010715,2024-06-04 16:16:10.889794
60.92979397,-9.891031265,-7.397411346,5.464010715,2024-06-04 16:16:10.929794
60.96979397,-9.891031265,-7.397411346,5.464010715,2024-06-04 16:16:10.969794
61.00979397,-9.891031265,-7.397411346,5.464010715,2024-06-04 16:16:11.009794
61.04979397,-9.891031265,-7.397411346,5.464010715,2024-06-04 16:16:11.049794
61.08979397,1.942672849,0.6191428304,1.458724499,2024-06-04 16:16:11.089794
61.12979397,1.789532185,-1.947458506,0.1929213256,2024-06-04 16:16:11.129794
61.16979397,-3.809971809,0.6804589629,3.920340776,2024-06-04 16:16:11.169794
61.20979397,-3.809971809,0.6804589629,3.920340776,2024-06-04 16:16:11.209794
61.24979397,-3.183650494,-2.80857563,3.714258909,2024-06-04 16:16:11.249794
61.28979397,-3.183650494,-2.80857563,3.714258909,2024-06-04 16:16:11.289794
61.32979397,-3.183650494,-2.80857563,3.714258909,2024-06-04 16:16:11.329794
61.36979397,-3.183650494,-2.80857563,3.714258909,2024-06-04 16:16:11.369794
61.40979397,-9.794121742,-10.93190956,3.355036497,2024-06-04 16:16:11.409794
61.40979397,-9.794121742,-10.93190956,3.355036497,2024-06-04 16:16:11.409794
61.48979397,-9.820443153,-9.547362328,3.485445261,2024-06-04 16:16:11.489794
61.52979397,-10.17966557,-8.162815094,5.343173027,2024-06-04 16:16:11.529794
61.56979397,-10.17966557,-8.162815094,5.343173027,2024-06-04 16:16:11.569794
61.60979397,-10.17966557,-8.162815094,5.343173027,2024-06-04 16:16:11.609794
61.64979397,-10.17966557,-8.162815094,5.343173027,2024-06-04 16:16:11.649794
61.68979397,-1.965404749,-7.834400654,1.020538807,2024-06-04 16:16:11.689794
