Time (s),Gyroscope x (rad/s),Gyroscope y (rad/s),Gyroscope z (rad/s),Datetime
0.0,-0.7338123918,-0.7717612982,-0.7528534532,2024-06-04 16:15:10.000000
0.030776153,-0.4410064816,-0.5428693891,-0.350328505,2024-06-04 16:15:10.030776
0.071260111,0.3109148741,-0.06364767253,-0.04687025398,2024-06-04 16:15:10.071260
0.156313497,0.08508548886,-0.2358159572,0.2098509073,2024-06-04 16:15:10.156313
0.196798913,0.1183740199,-0.1062569916,0.2271609455,2024-06-04 16:15:10.196799
0.237287611,0.07629731297,-0.2019948065,0.3232982159,2024-06-04 16:15:10.237288
0.277773341,-0.08841434121,-0.1532603949,0.1898777932,2024-06-04 16:15:10.277773
0.318256413,-0.5419372916,-0.5402063131,0.06524552405,2024-06-04 16:15:10.318256
0.358742559,-0.6250254512,-0.4507267177,-0.1003982127,2024-06-04 16:15:10.358743
0.399222143,-1.258705974,-0.7320814133,-0.2235657871,2024-06-04 16:15:10.399222
0.439730893,-1.911560655,-0.8090444803,-0.4214328229,2024-06-04 16:15:10.439731
0.480221778,-2.110892296,-0.132488355,0.5788210034,2024-06-04 16:15:10.480222
0.520702663,-3.400889635,0.07563154399,2.169480324,2024-06-04 16:15:10.520703
0.561185945,-3.573457241,-2.921268463,2.435921669,2024-06-04 16:15:10.561186
0.60167157,0.5653724074,-2.111025572,2.856156111,2024-06-04 16:15:10.601672
0.64215907,3.628316879,2.148441792,2.676398039,2024-06-04 16:15:10.642159
0.682654799,2.203967094,0.01837527007,-0.4613790512,2024-06-04 16:15:10.682655
0.723146882,2.89357233,-0.8633713722,-1.179745555,2024-06-04 16:15:10.723147
0.763644955,2.461087704,-0.8266208172,-0.8354089856,2024-06-04 16:15:10.763645
0.804127351,0.9097089767,0.1027949899,-0.3894758224,2024-06-04 16:15:10.804127
0.844593132,-0.02516612969,0.8834776282,-0.3183715343,2024-06-04 16:15:10.844593
0.885080632,0.08615072072,0.0037283157,-0.1221023351,2024-06-04 16:15:10.885081
0.925586257,-0.1198387146,-0.986938417,-0.2440715134,2024-06-04 16:15:10.925586
0.96609657,-0.4023917615,0.2572537661,-0.259783715,2024-06-04 16:15:10.966097
1.006586674,-0.4178376496,0.5442008972,-0.2411421239,2024-06-04 16:15:11.006587
1.047072455,-0.07709623873,-0.7247579098,-0.5050535798,2024-06-04 16:15:11.047072
1.08759433,0.02250304818,-0.5319507122,-0.4182371199,2024-06-04 16:15:11.087594
1.128082403,-0.2085193694,-0.265642494,-0.1237001866,2024-06-04 16:15:11.128082
1.168546101,0.08615072072,-0.6190335155,-0.1825543046,2024-06-04 16:15:11.168546
1.20900808,0.2296908647,-0.6491263509,-0.1806901544,2024-06-04 16:15:11.209008
1.249506361,-0.1046591476,-0.3479317427,-0.06737598777,2024-06-04 16:15:11.249506
1.289976257,-0.4676373005,-0.24753353,-0.01304910425,2024-06-04 16:15:11.289976
1.330481882,-0.5374100804,-0.4190360308,0.01038602181,2024-06-04 16:15:11.330482
1.370969903,-0.7700303197,0.05539211631,0.08868064731,2024-06-04 16:15:11.370970
1.411457924,-0.4300878346,-0.07829462737,0.2998631001,2024-06-04 16:15:11.411458
1.45191282,0.1482005417,-0.2794905007,0.3861469626,2024-06-04 16:15:11.451913
1.492386049,0.4227643609,-0.1298252791,0.186149478,2024-06-04 16:15:11.492386
1.532894486,0.4555202723,-0.06657706201,0.2205032408,2024-06-04 16:15:11.532894
1.57339032,0.4011933804,0.0074566314,0.1294258088,2024-06-04 16:15:11.573390
1.61388157,0.3322195411,0.2545906901,0.1123820841,2024-06-04 16:15:11.613882
1.654369538,0.5323501825,-0.03462007269,0.2375469655,2024-06-04 16:15:11.654370
1.694855216,0.6551182866,-0.382019192,0.1371487528,2024-06-04 16:15:11.694855
1.735378861,0.5698996782,0.09320788831,0.04527240247,2024-06-04 16:15:11.735379
1.775830997,0.2054568231,0.2364817262,0.1821548492,2024-06-04 16:15:11.775831
1.816324174,0.1580539495,0.1944050342,0.1091863886,2024-06-04 16:15:11.816324
1.856831726,0.0952052027,0.4830831885,-0.1394123733,2024-06-04 16:15:11.856832
1.897319851,-0.08162347972,0.1464695334,-0.03568530455,2024-06-04 16:15:11.897320
1.937859851,0.04380770773,0.007722939365,-0.1577876359,2024-06-04 16:15:11.937860
1.978299695,-0.1789591461,0.1438064575,-0.2408758104,2024-06-04 16:15:11.978300
2.018770372,-0.2471340597,0.2388785034,-0.2318213433,2024-06-04 16:15:12.018770
2.059244486,0.09014534205,0.02689713426,-0.2009295821,2024-06-04 16:15:12.059244
2.099751309,-0.00998655986,-0.03541899845,-0.1354177445,2024-06-04 16:15:12.099751
2.14019032,-0.1749645174,0.1677742004,-0.01038602181,2024-06-04 16:15:12.140190
2.180694799,-0.1358172148,-0.1471353173,-0.09400681406,2024-06-04 16:15:12.180695
2.221161153,-0.534480691,-0.2238320857,0.1025286764,2024-06-04 16:15:12.221161
2.261665424,-0.7125077248,-1.497051835,0.603853941,2024-06-04 16:15:12.261665
2.302159538,-0.2197043151,-4.031507492,0.7583127618,2024-06-04 16:15:12.302160
2.342658445,-2.027005196,-2.211689949,1.005180478,2024-06-04 16:15:12.342658
2.383143809,-3.355084658,0.9884030819,1.691057444,2024-06-04 16:15:12.383144
2.423623288,-3.577984571,1.190397859,0.6512568593,2024-06-04 16:15:12.423623
2.464102768,-2.015553951,-0.7555165291,-0.1868152469,2024-06-04 16:15:12.464103
2.504596257,-1.528609395,0.4952002168,0.6762897968,2024-06-04 16:15:12.504596
2.545097038,-1.098388433,0.4058537781,1.022224188,2024-06-04 16:15:12.545097
2.585595216,-0.5025236607,-0.1147788614,1.12222302,2024-06-04 16:15:12.585595
2.626098288,0.3625786901,-2.279332399,1.729805231,2024-06-04 16:15:12.626098
2.666576101,0.03901416063,-3.389305115,1.790789843,2024-06-04 16:15:12.666576
2.707042091,-1.117030025,-0.6477948427,1.795583367,2024-06-04 16:15:12.707042
2.747540372,-0.7338123918,0.7713618875,2.056032896,2024-06-04 16:15:12.747540
2.788047195,-0.5648398399,1.105445623,2.734186888,2024-06-04 16:15:12.788047
2.828520841,0.233951807,1.485733747,3.167603493,2024-06-04 16:15:12.828521
2.869020945,0.650857389,2.744306564,2.903825283,2024-06-04 16:15:12.869021
2.909503028,0.2741643488,3.810072184,1.311834455,2024-06-04 16:15:12.909503
2.949978757,0.9216928482,4.016727448,1.027017832,2024-06-04 16:15:12.949979
2.990473497,1.555373311,3.451488256,0.3675054014,2024-06-04 16:15:12.990473
3.030963809,0.7222279906,2.797834635,-0.9421986341,2024-06-04 16:15:13.030964
3.071429695,0.7163692117,1.431406856,-0.05299534276,2024-06-04 16:15:13.071430
3.111914747,1.430741072,1.85736692,0.0005326165119,2024-06-04 16:15:13.111915
3.152415997,1.358038902,1.256974936,-0.06444659829,2024-06-04 16:15:13.152416
3.19290282,1.175617814,1.18906641,0.6019898057,2024-06-04 16:15:13.192903
3.233392351,0.9264864326,1.0075773,0.7394048572,2024-06-04 16:15:13.233392
3.273886205,0.586943388,1.331274986,0.6131747365,2024-06-04 16:15:13.273886
3.314375632,0.1788259894,1.298785329,0.5234288573,2024-06-04 16:15:13.314376
3.354871882,-0.2671071887,0.8714937568,0.7410027385,2024-06-04 16:15:13.354872
3.395363966,-0.4340824485,1.147256017,-0.2366148829,2024-06-04 16:15:13.395364
3.435851934,-0.06644391268,1.064034581,-0.8577789068,2024-06-04 16:15:13.435852
3.476328653,0.1511299312,1.078681588,-0.8370068669,2024-06-04 16:15:13.476329
3.516813236,0.1758965999,0.7396711707,-0.6533873081,2024-06-04 16:15:13.516813
3.557311986,0.1545919478,0.5729622245,-0.7986584306,2024-06-04 16:15:13.557312
3.597800216,-0.340608269,0.3384777904,-0.8103760481,2024-06-04 16:15:13.597800
3.638285997,-0.4077179432,-0.2347507328,-0.7018554211,2024-06-04 16:15:13.638286
3.678777559,-0.5422036052,-0.243006289,-0.6017234921,2024-06-04 16:15:13.678778
3.719252247,-0.1978670359,-0.1700378209,-0.1046591476,2024-06-04 16:15:13.719252
3.759736882,0.05179695413,-0.8838770986,0.5985277891,2024-06-04 16:15:13.759737
3.800262455,0.09893351793,-0.959774971,0.9532504082,2024-06-04 16:15:13.800262
3.840724851,-0.01797580719,-0.7770875096,0.9468590021,2024-06-04 16:15:13.840725
3.881191101,-0.316107899,-0.8548495173,0.5572500229,2024-06-04 16:15:13.881191
3.921678445,-0.6921351552,-0.7741581202,0.3105154335,2024-06-04 16:15:13.921678
3.962165893,-0.8914669156,-0.8801487684,0.09560466558,2024-06-04 16:15:13.962166
4.002651934,-1.198253989,-0.2454030514,-0.1003982127,2024-06-04 16:15:14.002652
4.043202611,-0.9479242563,-0.1625811905,0.1563229412,2024-06-04 16:15:14.043203
4.083665736,-0.4282236695,-0.3532578945,0.03382114694,2024-06-04 16:15:14.083666
4.124109643,0.002796236658,-0.329023838,-0.2890776098,2024-06-04 16:15:14.124110
4.164650059,0.2485987544,-0.4406070113,-0.3505948186,2024-06-04 16:15:14.164650
4.205125945,0.3423392773,-0.0221035853,-0.261115253,2024-06-04 16:15:14.205126
4.245590736,0.7041190267,-0.3151758313,-0.03275591508,2024-06-04 16:15:14.245591
4.28607407,0.6045197248,0.1597849578,0.1850842386,2024-06-04 16:15:14.286074
4.326580372,0.398796618,0.1584534049,0.1137136221,2024-06-04 16:15:14.326580
4.36718407,0.2424736619,-0.5955983996,0.2497971505,2024-06-04 16:15:14.367184
4.407548653,0.4624442756,-1.263366342,-0.141542837,2024-06-04 16:15:14.407549
4.448038393,0.2834851444,-1.611830711,0.0330222249,2024-06-04 16:15:14.448038
4.488517455,0.2137123793,-1.56788981,-0.05406057462,2024-06-04 16:15:14.488517
4.52903282,0.01691057347,-1.531139374,-0.4738955498,2024-06-04 16:15:14.529033
4.569516413,-0.3477985859,-1.252447724,-0.8335448503,2024-06-04 16:15:14.569516
4.609973705,-0.417571336,-1.041265249,-1.182142377,2024-06-04 16:15:14.609974
4.650463497,-0.5664376616,-0.9571118951,-1.243393302,2024-06-04 16:15:14.650463
4.690966674,-0.7908023596,0.3382114768,-0.5806851387,2024-06-04 16:15:14.690967
4.731439486,-0.3440702558,0.930880487,0.2173075378,2024-06-04 16:15:14.731439
4.771923236,0.0949388966,2.587450981,-0.03275591508,2024-06-04 16:15:14.771923
4.812388445,-0.2484655976,2.56215167,-0.1022623703,2024-06-04 16:15:14.812388
4.852877403,-0.3696358502,2.749100208,0.07296846062,2024-06-04 16:15:14.852877
4.893369851,-0.079493016,1.713294148,-0.4211665094,2024-06-04 16:15:14.893370
4.933931257,-0.1443390697,1.801974773,-0.127961114,2024-06-04 16:15:14.933931
4.974379174,-0.07736254483,1.638328433,-0.4054543078,2024-06-04 16:15:14.974379
5.014906049,0.05685681105,1.011571884,-0.007190322969,2024-06-04 16:15:15.014906
5.055343184,0.3908073604,0.8962604403,0.2950695455,2024-06-04 16:15:15.055343
5.095849747,0.2121145278,-0.004793548491,0.6991923451,2024-06-04 16:15:15.095850
5.136297403,0.229424566,0.2082530558,0.524227798,2024-06-04 16:15:15.136297
5.17682782,-0.07283531129,0.1672415882,0.3864132762,2024-06-04 16:15:15.176828
5.217346518,-0.7588453889,-0.8665670753,0.5716306567,2024-06-04 16:15:15.217347
5.257796466,-0.5142412186,-1.020759583,0.7204970121,2024-06-04 16:15:15.257796
5.298272663,-0.1051917598,-0.4531235099,0.7239589691,2024-06-04 16:15:15.298273
5.338780893,0.2741643488,0.3062545061,0.6182346344,2024-06-04 16:15:15.338781
5.379266101,0.6463301182,0.6123758554,1.026485205,2024-06-04 16:15:15.379266
5.419754643,1.032210827,-0.3189041317,1.211702585,2024-06-04 16:15:15.419755
5.460242299,0.9746882319,-0.06204982474,0.8720263839,2024-06-04 16:15:15.460242
5.500758497,0.6231613159,0.08947957307,0.5817503929,2024-06-04 16:15:15.500758
5.541246205,0.6404713392,-0.3556546867,0.4575175941,2024-06-04 16:15:15.541246
5.581733966,0.4475310147,-1.234072447,0.585478723,2024-06-04 16:15:15.581734
5.622183809,0.2629793882,-1.888791323,1.008908868,2024-06-04 16:15:15.622184
5.662673341,0.1420754492,-2.044448376,0.915967226,2024-06-04 16:15:15.662673
5.703166153,0.248865068,-1.330209732,0.7969274521,2024-06-04 16:15:15.703166
5.743656934,0.4448679388,-0.913969934,0.8318138123,2024-06-04 16:15:15.743657
5.784150893,0.02889444493,-1.745517492,0.04021254554,2024-06-04 16:15:15.784151
5.824640059,-0.05179695413,-0.5849460959,-0.7315487862,2024-06-04 16:15:15.824640
5.865105841,-0.5536548495,-0.149265781,-1.121690392,2024-06-04 16:15:15.865106
5.905598757,-0.8147701025,0.08468602598,-1.244991064,2024-06-04 16:15:15.905599
5.946098497,-1.042729974,0.4207670391,-1.151250601,2024-06-04 16:15:15.946098
5.98658433,-0.8006557822,0.1723014414,-0.868164897,2024-06-04 16:15:15.986584
6.027069122,-0.7708292603,-0.02263620123,-0.7005238533,2024-06-04 16:15:16.027069
6.067568861,-0.8704285622,-1.371886969,-0.03861469775,2024-06-04 16:15:16.067569
6.108034486,-0.9071790576,0.8629719019,-0.8684312105,2024-06-04 16:15:16.108034
6.148518757,-1.182541847,3.388905764,-1.756702423,2024-06-04 16:15:16.148519
6.18903532,-1.519821167,5.697532177,-2.523270607,2024-06-04 16:15:16.189035
6.229517143,0.08295502514,5.796065807,-1.932199597,2024-06-04 16:15:16.229517
6.269997247,0.142874375,5.377162933,-1.353778005,2024-06-04 16:15:16.269997
6.310498341,0.06671021879,1.891720653,-0.1322220564,2024-06-04 16:15:16.310498
6.350986778,-0.2644441128,-1.781469107,-0.8796161413,2024-06-04 16:15:16.350987
6.391457768,0.3628450036,-1.643787742,-0.8982577324,2024-06-04 16:15:16.391458
6.431942924,0.9536498785,-0.5812177658,-0.138347134,2024-06-04 16:15:16.431943
6.472461205,1.10810864,0.7002575397,0.6477948427,2024-06-04 16:15:16.472461
6.512943341,1.037270665,0.7564486265,0.6352783442,2024-06-04 16:15:16.512943
6.553430736,0.4837489426,1.407172799,0.1118494645,2024-06-04 16:15:16.553431
6.593925111,-0.4633763731,2.159360409,0.09214265645,2024-06-04 16:15:16.593925
6.634413653,-2.191583872,-1.354576945,0.8459281921,2024-06-04 16:15:16.634414
6.67490282,-1.841521621,-1.972545266,0.4178376496,2024-06-04 16:15:16.674903
6.715376674,-0.6412702799,-2.097976446,0.3054555655,2024-06-04 16:15:16.715377
6.755862091,0.7086462975,-1.675744653,0.893863678,2024-06-04 16:15:16.755862
6.79635157,0.8689638376,-1.935927868,1.684666038,2024-06-04 16:15:16.796352
6.836849382,0.9395354986,0.2593842447,1.860296369,2024-06-04 16:15:16.836849
6.877342299,0.8338111639,-1.028216124,2.775997162,2024-06-04 16:15:16.877342
6.917814538,0.7781527042,-0.5884081125,2.474536419,2024-06-04 16:15:16.917815
6.958289174,0.1561897993,0.002663082443,1.137402534,2024-06-04 16:15:16.958289
6.998772559,0.8529853225,0.3017272651,0.8291507363,2024-06-04 16:15:16.998773
7.039262299,0.07975932211,-0.4896077216,2.036592484,2024-06-04 16:15:17.039262
7.079769174,-0.8251561522,-0.5071840882,1.530207276,2024-06-04 16:15:17.079769
7.12022407,-1.302646875,0.01438064594,0.221035853,2024-06-04 16:15:17.120224
7.160737924,-0.8640371561,2.357893229,-2.523803234,2024-06-04 16:15:17.160738
7.201237403,1.688261151,1.43620038,-2.786250114,2024-06-04 16:15:17.201237
7.241702351,1.534335017,0.8701622486,-5.372103214,2024-06-04 16:15:17.241702
7.282178913,-0.4095821083,3.361742258,-5.782617569,2024-06-04 16:15:17.282179
7.322694382,0.3226324618,2.533923149,-1.970148444,2024-06-04 16:15:17.322694
7.363182351,-0.06671021879,-0.4355471432,-1.953104734,2024-06-04 16:15:17.363182
7.403670111,-0.3576519787,1.524082184,-2.816076756,2024-06-04 16:15:17.403670
7.444125476,-0.2742975056,-0.05832150951,-1.393724203,2024-06-04 16:15:17.444125
7.484656153,0.1055912226,-0.1017297506,0.07350108027,2024-06-04 16:15:17.484656
7.525165841,0.2368811965,0.6419360638,0.4290226102,2024-06-04 16:15:17.525166
7.565641518,0.2928059399,0.4087831676,-0.6829475164,2024-06-04 16:15:17.565642
7.606101934,0.7075810432,-0.2704360485,-0.1878804713,2024-06-04 16:15:17.606102
7.646590163,0.8154358864,-0.02902759984,0.5165048838,2024-06-04 16:15:17.646590
7.687084851,1.692255855,-0.2472672164,0.8706948161,2024-06-04 16:15:17.687085
7.727564851,0.8644366264,0.3579182923,0.4167724252,2024-06-04 16:15:17.727565
7.768069747,0.7496577501,0.2026605755,0.8334116936,2024-06-04 16:15:17.768070
7.808567351,1.225950003,0.8262213469,0.02130465955,2024-06-04 16:15:17.808567
7.849023913,1.074287534,-0.02663082629,-0.7840114832,2024-06-04 16:15:17.849024
7.889522403,1.753639817,-0.5495271087,-1.420621395,2024-06-04 16:15:17.889522
7.930039278,1.308239341,-0.376160413,-0.1410102248,2024-06-04 16:15:17.930039
7.970518601,0.8439308405,0.02396774292,0.8139711618,2024-06-04 16:15:17.970519
8.011004122,0.8726921678,0.1877473146,0.8403357267,2024-06-04 16:15:18.011004
8.051446413,0.3673722446,0.3989297748,0.9750877023,2024-06-04 16:15:18.051446
8.091944226,-0.3999949992,0.6206313968,0.002130466048,2024-06-04 16:15:18.091944
8.132429434,-0.3736304939,0.5284887552,-1.280143738,2024-06-04 16:15:18.132429
8.17294808,-0.3752283454,0.4708330035,-1.399316788,2024-06-04 16:15:18.172948
8.21346282,-0.5145075321,0.4933360517,-1.664559722,2024-06-04 16:15:18.213463
8.253902299,-0.4535229504,0.1203713343,-1.661896706,2024-06-04 16:15:18.253902
8.294426101,-0.6367430687,-0.09453943372,-1.702908158,2024-06-04 16:15:18.294426
8.334921361,-0.9441959262,0.137681365,-1.685864449,2024-06-04 16:15:18.334921
8.375375424,-0.9953271151,0.223698929,-1.619819999,2024-06-04 16:15:18.375375
8.415863601,-0.95857656,0.2593842447,-1.417691946,2024-06-04 16:15:18.415864
8.456319747,-0.820895195,0.3597824574,-1.001052737,2024-06-04 16:15:18.456320
8.496854747,-0.4977301359,0.0758978501,-0.5985277891,2024-06-04 16:15:18.496855
8.537342299,-0.146735847,-0.2893439233,0.009054481052,2024-06-04 16:15:18.537342
8.577830111,0.3111811876,-0.1290263534,0.4295552075,2024-06-04 16:15:18.577830
8.618302716,0.5472634435,0.2135792226,0.5929353237,2024-06-04 16:15:18.618303
8.658790788,0.4387428463,0.3653749228,0.4327509105,2024-06-04 16:15:18.658791
8.699279747,0.5469971299,0.2489982247,0.4018591642,2024-06-04 16:15:18.699280
8.739770059,0.8149032593,0.004793548491,0.487344116,2024-06-04 16:15:18.739770
8.780270841,1.04206419,0.1299584359,0.7093120217,2024-06-04 16:15:18.780271
8.820762872,1.171090603,0.1267627329,1.011571884,2024-06-04 16:15:18.820763
8.861230632,1.241928577,0.195203945,1.25511086,2024-06-04 16:15:18.861231
8.901718601,1.33859849,-0.2219679356,1.132875323,2024-06-04 16:15:18.901719
8.942198757,1.626211405,-0.7435326576,1.196256638,2024-06-04 16:15:18.942199
8.982705632,1.650445461,-1.010373473,0.9953271151,2024-06-04 16:15:18.982706
9.023187403,1.617955804,-0.8548495173,0.7423342466,2024-06-04 16:15:19.023187
9.063686101,1.391860127,-0.8833444715,0.5860112906,2024-06-04 16:15:19.063686
9.104177455,0.8005226254,-0.4507267177,0.4513925016,2024-06-04 16:15:19.104177
9.144638445,0.1575213373,0.1203713343,0.1976007223,2024-06-04 16:15:19.144638
9.185136882,-0.3802881837,0.339276731,-0.1817553788,2024-06-04 16:15:19.185137
9.225626153,-0.78414464,0.3624455333,-0.7095783353,2024-06-04 16:15:19.225626
9.266123445,-1.10105145,0.4276910722,-1.07695055,2024-06-04 16:15:19.266123
9.306630007,-1.348851323,0.4689688385,-1.289730906,2024-06-04 16:15:19.306630
9.347124903,-1.47481513,0.4093157947,-1.432605267,2024-06-04 16:15:19.347125
9.387587663,-1.499848127,0.3110480309,-1.657635689,2024-06-04 16:15:19.387588
9.428060007,-1.26882565,0.02423405088,-1.594520688,2024-06-04 16:15:19.428060
9.468540528,-1.175351501,0.004527240526,-1.245790005,2024-06-04 16:15:19.468541
9.509038601,-1.085605621,0.1312899739,-1.030346632,2024-06-04 16:15:19.509039
9.549543809,-1.009974003,0.2511286736,-0.7182333469,2024-06-04 16:15:19.549544
9.590016153,-0.7513887286,0.05139749497,-0.2073209733,2024-06-04 16:15:19.590016
9.630492455,-0.1896114796,-0.1311568171,0.1328878254,2024-06-04 16:15:19.630492
9.670982559,0.227560401,0.157654494,0.2697702646,2024-06-04 16:15:19.670983
9.711476622,0.4637758136,0.1991985738,0.3374125659,2024-06-04 16:15:19.711477
9.751967559,0.6194329858,0.1350182891,0.4165061116,2024-06-04 16:15:19.751968
9.792471518,0.7637720704,-0.08415340632,0.3683043122,2024-06-04 16:15:19.792472
9.83295532,0.8505885601,0.139012903,0.5473966002,2024-06-04 16:15:19.832955
9.873428288,1.017031193,-0.04287562892,0.7620410919,2024-06-04 16:15:19.873428
9.913914851,1.124087095,0.06338136643,1.149386406,2024-06-04 16:15:19.913915
9.954426622,1.242727518,0.0117175635,1.258572817,2024-06-04 16:15:19.954427
9.994919591,1.39425683,-0.3705679476,1.231675625,2024-06-04 16:15:19.994920
10.0353861,1.525546789,-0.8511211872,1.211436272,2024-06-04 16:15:20.035386
10.07587147,1.468290567,-1.07402122,1.048056126,2024-06-04 16:15:20.075871
10.11633511,1.256309152,-0.7509892583,0.7780195475,2024-06-04 16:15:20.116335
10.15685824,0.9368724227,-0.4512593448,0.58228302,2024-06-04 16:15:20.156858
10.19737574,0.4520582557,-0.06817491353,0.3091838956,2024-06-04 16:15:20.197376
10.23783886,-0.08721595258,0.1174419373,0.002396774245,2024-06-04 16:15:20.237839
10.2783198,-0.6191666722,0.4710993171,-0.5117112994,2024-06-04 16:15:20.278320
10.31882766,-0.979881227,0.46018067,-0.8508548737,2024-06-04 16:15:20.318828
10.35935157,-1.214765072,0.4386096895,-1.225816846,2024-06-04 16:15:20.359352
10.39982042,-1.407172799,0.4513925016,-1.447784781,2024-06-04 16:15:20.399820
10.44024006,-1.551511884,0.3342168629,-1.549514532,2024-06-04 16:15:20.440240
10.48075605,-1.538462758,0.04234301299,-1.622749329,2024-06-04 16:15:20.480756
10.52125808,-1.305176735,-0.4232969582,-1.311568141,2024-06-04 16:15:20.521258
10.561746,-1.108774424,-0.1660431921,-1.001052737,2024-06-04 16:15:20.561746
10.6022348,-0.7689650655,0.1091863886,-0.8324795961,2024-06-04 16:15:20.602235
10.64266766,-0.5488613248,-0.0298265256,-0.5484618545,2024-06-04 16:15:20.642668
10.68321308,-0.2018616647,-0.2536586225,-0.1300915778,2024-06-04 16:15:20.683213
10.72369808,0.1354177445,-0.4038564563,0.254058063,2024-06-04 16:15:20.723698
10.76418152,0.3615134656,-0.3122464418,0.4921376705,2024-06-04 16:15:20.764182
10.80466376,0.5328828096,-0.252060771,0.5567173958,2024-06-04 16:15:20.804664
10.84516209,0.6511237025,-0.2099840641,0.6525883675,2024-06-04 16:15:20.845162
10.88559475,0.7933322787,-0.3668396175,0.7415353656,2024-06-04 16:15:20.885595
10.9261472,0.9331441522,-0.3623123765,0.9662995338,2024-06-04 16:15:20.926147
10.96661766,1.119293571,-0.6336805224,1.139799356,2024-06-04 16:15:20.966618
11.00710574,1.114766359,-0.4720313847,1.429542661,2024-06-04 16:15:21.007106
11.04760897,1.26509738,-0.570032835,1.536598682,2024-06-04 16:15:21.047609
11.08810032,1.245923162,-0.8327459097,1.653241634,2024-06-04 16:15:21.088100
11.12854574,1.138867259,-0.9906666875,1.25511086,2024-06-04 16:15:21.128546
11.16903464,1.074287534,-0.701322794,0.894662559,2024-06-04 16:15:21.169035
11.20956615,0.7632394433,-0.6339467764,0.6565830112,2024-06-04 16:15:21.209566
11.25005501,0.2789579034,-0.3468665183,0.3443365693,2024-06-04 16:15:21.250055
11.29053787,-0.231421873,-0.0005326165119,-0.06311506033,2024-06-04 16:15:21.290538
11.33099329,-0.7700303197,0.325695008,-0.4461994767,2024-06-04 16:15:21.330993
11.37148131,-1.155644655,0.4930697381,-0.8037183285,2024-06-04 16:15:21.371481
11.41197037,-1.421287179,0.5231625438,-1.079347372,2024-06-04 16:15:21.411970
11.45245839,-1.568555593,0.3856143653,-1.272420883,2024-06-04 16:15:21.452458
11.49297855,-1.614094377,0.134485662,-1.400115609,2024-06-04 16:15:21.492979
11.53344261,-1.620485783,-0.3066539466,-1.353511691,2024-06-04 16:15:21.533443
11.57396912,-1.536598682,-0.6118432283,-1.27588284,2024-06-04 16:15:21.573969
11.6144324,-1.510234118,-0.511977613,-0.978682816,2024-06-04 16:15:21.614432
11.65492074,-1.348851323,-0.4182371199,-0.5585815907,2024-06-04 16:15:21.654921
11.69541246,-1.015300274,-0.4555202723,-0.1708367467,2024-06-04 16:15:21.695412
11.7359135,-0.434348762,-0.7315487862,0.325695008,2024-06-04 16:15:21.735914
11.77639558,0.1990654171,-0.4147751033,0.7740249634,2024-06-04 16:15:21.776396
11.81687048,0.4280905128,0.0713706091,0.8073135018,2024-06-04 16:15:21.816870
11.85734251,0.5167711973,0.3704347908,0.6555177569,2024-06-04 16:15:21.857343
11.89783084,0.6732272506,0.1097190008,0.7575138211,2024-06-04 16:15:21.897831
11.93833235,0.6258243918,0.0705716908,0.8387378454,2024-06-04 16:15:21.938332
11.97885173,0.6066502333,0.1949376464,1.135272145,2024-06-04 16:15:21.978852
12.01933074,0.773625493,-0.147401616,1.600512624,2024-06-04 16:15:22.019331
12.05981912,0.9339430332,-0.1929403245,1.65217638,2024-06-04 16:15:22.059819
12.10028459,1.098787904,-0.4358134568,1.593854904,2024-06-04 16:15:22.100285
12.14073313,1.196922421,-0.8082455397,1.467092156,2024-06-04 16:15:22.140733
12.18128751,1.12595129,-0.7842777967,1.148054838,2024-06-04 16:15:22.181288
12.22177589,0.886806488,-0.7824136615,0.9138367772,2024-06-04 16:15:22.221776
12.2622524,0.5165048838,-0.3830844164,0.6949313879,2024-06-04 16:15:22.262252
12.30273084,0.08348763734,-0.2059894353,0.2841508985,2024-06-04 16:15:22.302731
12.34323813,-0.4197018147,0.06444659829,-0.2222342342,2024-06-04 16:15:22.343238
12.38370943,-0.9828106165,0.4111799598,-0.7203638554,2024-06-04 16:15:22.383709
12.42418652,-1.370155931,0.6978607774,-1.048988223,2024-06-04 16:15:22.424187
12.46466683,-1.54378891,0.5447335243,-1.284937382,2024-06-04 16:15:22.464667
12.50517522,-1.544587851,0.199731186,-1.403311372,2024-06-04 16:15:22.505175
12.54568214,-1.542990088,-0.1892120093,-1.429942131,2024-06-04 16:15:22.545682
12.58616261,-1.639127374,-0.2858819067,-1.251915097,2024-06-04 16:15:22.586163
12.62666647,-1.498250246,-0.2360822707,-1.008243084,2024-06-04 16:15:22.626666
12.66714673,-1.239798069,-0.2411421239,-0.7312824726,2024-06-04 16:15:22.667147
12.70761511,-0.9314131141,-0.4643084407,-0.2057231218,2024-06-04 16:15:22.707615
12.74809522,-0.3781577349,-0.5335485935,0.2852161527,2024-06-04 16:15:22.748095
12.78858475,0.0842865631,-0.2683055699,0.6118432283,2024-06-04 16:15:22.788585
12.82908235,0.1857500076,0.06870753318,0.7143719196,2024-06-04 16:15:22.829082
12.8695735,0.3247629106,0.1323551983,0.6208977103,2024-06-04 16:15:22.869573
12.91005522,0.4288894534,-0.2115819156,0.5812177658,2024-06-04 16:15:22.910055
12.95053907,0.4475310147,-0.05645735189,0.8326127529,2024-06-04 16:15:22.950539
12.99104558,0.5162385702,-0.2043915838,1.128614426,2024-06-04 16:15:22.991046
13.03153381,0.6322157979,-0.0758978501,1.409036994,2024-06-04 16:15:23.031534
13.07202183,0.8133054376,-0.1049254537,1.529940963,2024-06-04 16:15:23.072022
13.1124936,1.15085113,-0.2113156021,1.716090441,2024-06-04 16:15:23.112494
13.15300735,1.407572269,-0.8276860714,1.669752717,2024-06-04 16:15:23.153007
13.19347964,1.376680493,-1.029547691,1.066431403,2024-06-04 16:15:23.193480
13.23394261,1.349783421,-1.200783968,0.8355421424,2024-06-04 16:15:23.233943
13.27444287,0.7682993412,-0.716768682,0.4580501914,2024-06-04 16:15:23.274443
13.31493454,0.05392742157,0.3248960674,0.1438064575,2024-06-04 16:15:23.314935
13.35541553,-0.4745613039,0.4420717061,-0.1897446364,2024-06-04 16:15:23.355416
13.39590131,-0.878950417,0.451126188,-0.7669677734,2024-06-04 16:15:23.395901
13.43635454,-1.284005284,0.6467295885,-1.18240869,2024-06-04 16:15:23.436355
13.47686324,-1.466026902,1.060306311,-1.350049734,2024-06-04 16:15:23.476863
13.51737131,-1.381340981,0.8403357267,-1.509035707,2024-06-04 16:15:23.517371
13.55786095,-1.215031385,0.2348838747,-1.666157603,2024-06-04 16:15:23.557861
13.59835443,-1.290929317,-0.08362079412,-1.383338213,2024-06-04 16:15:23.598354
13.63884584,-1.45031476,-0.01837527007,-1.059374213,2024-06-04 16:15:23.638846
13.6793322,-1.435135245,-0.001597849536,-0.8918663263,2024-06-04 16:15:23.679332
13.71982266,-1.247787356,-0.07882724702,-0.4509930313,2024-06-04 16:15:23.719823
13.76031662,-0.7615084648,-0.6536536217,0.05033225939,2024-06-04 16:15:23.760317
13.80077761,-0.1608501822,-0.4675041437,0.3813534081,2024-06-04 16:15:23.800778
13.84125464,0.2821536064,0.1837527007,0.6041202545,2024-06-04 16:15:23.841255
13.88174428,0.4443353117,0.5620435476,0.4655068219,2024-06-04 16:15:23.881744
13.92220188,0.6362104416,0.2958684862,0.472430855,2024-06-04 16:15:23.922202
13.9627474,0.6617760062,-0.04953333735,0.4215659797,2024-06-04 16:15:23.962747
14.0032735,0.7930659652,0.1262301207,0.8619066477,2024-06-04 16:15:24.003274
14.0437087,0.9368724227,-0.07643046975,1.190930486,2024-06-04 16:15:24.043709
14.08420459,1.103315115,-0.1625811905,1.338199019,2024-06-04 16:15:24.084205
14.12467371,1.446453333,-0.4022586346,1.502777457,2024-06-04 16:15:24.124674
14.1651798,1.675478339,-0.65871346,1.304377794,2024-06-04 16:15:24.165180
14.20568542,1.615292668,-0.7898702621,0.8917331696,2024-06-04 16:15:24.205685
14.24615631,1.384403467,-0.2347507328,0.7524539828,2024-06-04 16:15:24.246156
14.28666417,0.9733566642,-0.107588537,0.5276898146,2024-06-04 16:15:24.286664
14.32711959,0.3388772607,0.1994648874,0.2034595013,2024-06-04 16:15:24.327120
14.36763553,-0.2785584331,0.4351477027,-0.2166417688,2024-06-04 16:15:24.367636
14.40810126,-0.7418016195,0.6057181358,-0.758179605,2024-06-04 16:15:24.408101
14.44854626,-1.062703133,0.753519237,-1.208240509,2024-06-04 16:15:24.448546
14.48909204,-1.303179502,0.8339443207,-1.459768653,2024-06-04 16:15:24.489092
14.52961438,-1.386667132,0.7588453889,-1.605705619,2024-06-04 16:15:24.529614
14.57005423,-1.324350953,0.2186390758,-1.701310277,2024-06-04 16:15:24.570054
14.61056303,-1.220091224,0.06231613085,-1.579607368,2024-06-04 16:15:24.610563
14.65105152,-0.9631038308,-0.1091863886,-1.414229989,2024-06-04 16:15:24.651052
14.69149371,-0.8017209768,0.09720251709,-1.111038089,2024-06-04 16:15:24.691494
14.73199329,-0.5962641835,-0.1078548431,-0.7195649147,2024-06-04 16:15:24.731993
14.77248173,-0.2649767101,-0.3647091687,-0.2395442724,2024-06-04 16:15:24.772482
14.81297595,0.09999874979,-0.3966661394,0.0007989247679,2024-06-04 16:15:24.812976
14.85350891,0.2904091477,-0.391073674,0.3675054014,2024-06-04 16:15:24.853509
14.8939223,0.4488625526,-0.3476654291,0.478289634,2024-06-04 16:15:24.893922
14.93443636,0.4944012761,-0.3260944486,0.5684349537,2024-06-04 16:15:24.934436
14.97493839,0.518369019,-0.3913399875,0.6840127707,2024-06-04 16:15:24.974938
15.01542964,0.5744268894,-0.433683008,1.070958614,2024-06-04 16:15:25.015430
15.0559211,0.6005251408,-0.5963973403,1.439396143,2024-06-04 16:15:25.055921
15.09638735,0.782679975,-0.5271571875,1.664959192,2024-06-04 16:15:25.096387
15.13684407,1.0316782,-0.6488600373,1.736995578,2024-06-04 16:15:25.136844
15.17739053,1.166030645,-0.6584471464,1.634866357,2024-06-04 16:15:25.177391
15.21788433,1.183873296,-0.7778863907,1.279611111,2024-06-04 16:15:25.217884
15.25834183,1.015965939,-0.354855746,0.9114400148,2024-06-04 16:15:25.258342
15.29886782,0.7382065058,-0.06844121963,0.573228538,2024-06-04 16:15:25.298868
15.33935496,0.2387453467,0.1541924775,0.1768286824,2024-06-04 16:15:25.339355
15.37982365,-0.2521939278,0.5647066832,-0.2965342402,2024-06-04 16:15:25.379824
15.42032011,-0.756182313,0.9196955562,-0.6975944638,2024-06-04 16:15:25.420320
15.46074548,-1.08107841,1.100918293,-1.152582169,2024-06-04 16:15:25.460745
15.50126933,-1.369889617,1.296388626,-1.487731099,2024-06-04 16:15:25.501269
15.54175714,-1.482005477,1.478277087,-1.653108478,2024-06-04 16:15:25.541757
15.58226798,-1.405841231,0.9934629202,-1.764425397,2024-06-04 16:15:25.582268
15.62270365,-1.060306311,0.4450010955,-1.796914935,2024-06-04 16:15:25.622704
15.66322381,-0.8869396448,0.2159759998,-1.413963675,2024-06-04 16:15:25.663224
15.70372459,-0.7854762077,0.4165061116,-1.207175374,2024-06-04 16:15:25.703725
15.74420282,-0.5866770744,0.1017297506,-0.8513875008,2024-06-04 16:15:25.744203
15.78470756,-0.2260957062,-0.1434070021,-0.3545894325,2024-06-04 16:15:25.784708
15.82518834,0.1623148769,-0.356187284,0.09081111848,2024-06-04 16:15:25.825188
15.86565006,0.4770912528,-0.1444722265,0.3661738634,2024-06-04 16:15:25.865650
15.90613725,0.6607108116,-0.158320263,0.4458000064,2024-06-04 16:15:25.906137
15.94665308,0.7432663441,-0.2318213433,0.4990616739,2024-06-04 16:15:25.946653
15.98712464,0.7749570012,-0.230756104,0.6640396118,2024-06-04 16:15:25.987125
16.02761417,0.8457950354,-0.3418066502,0.9210271239,2024-06-04 16:15:26.027614
16.06812188,0.9192960858,-0.6778876781,1.315829039,2024-06-04 16:15:26.068122
16.10859292,0.8290175796,-0.7539186478,1.499581814,2024-06-04 16:15:26.108593
16.1490786,0.9797480702,-0.904915452,1.520087481,2024-06-04 16:15:26.149079
16.1896048,1.116896868,-1.027417302,1.56828928,2024-06-04 16:15:26.189605
16.23006475,0.8947957158,-0.213978678,1.481739163,2024-06-04 16:15:26.230065
16.27054443,0.8505885601,-0.1921414137,1.139799356,2024-06-04 16:15:26.270544
16.31103844,0.6319494843,-0.4560528994,0.9026518464,2024-06-04 16:15:26.311038
16.35149813,0.2278267145,-0.113447316,0.4101147056,2024-06-04 16:15:26.351498
16.39199001,-0.2138455361,0.2716344297,-0.07003907114,2024-06-04 16:15:26.391990
16.43249167,-0.6761566401,0.7295514941,-0.6376751065,2024-06-04 16:15:26.432492
16.47297923,-0.9836095572,1.089866519,-1.157375693,2024-06-04 16:15:26.472979
16.51347574,-1.288266182,1.260437012,-1.517823935,2024-06-04 16:15:26.513476
16.55396355,-1.427145958,1.261235952,-1.726609588,2024-06-04 16:15:26.553964
16.59448365,-1.236868739,0.8382052183,-1.824611068,2024-06-04 16:15:26.594484
16.63498907,-0.8776188493,0.2127802968,-1.916487336,2024-06-04 16:15:26.634989
16.67543063,-0.6983934045,0.2034595013,-1.689859033,2024-06-04 16:15:26.675431
16.71592891,-0.5648398399,0.3808208108,-1.354310632,2024-06-04 16:15:26.715929
16.75641594,-0.4758928418,0.2809551954,-1.017297506,2024-06-04 16:15:26.756416
16.7969035,-0.06324820966,-0.06045197323,-0.4693683088,2024-06-04 16:15:26.796903
16.83738188,0.28241992,-0.037815772,0.09959928691,2024-06-04 16:15:26.837382
16.87784402,0.2991973162,-0.3135779798,0.3704347908,2024-06-04 16:15:26.877844
16.91833808,0.4816184938,-0.350328505,0.3736304939,2024-06-04 16:15:26.918338
16.95883855,0.5483286977,-0.2403431982,0.4260932207,2024-06-04 16:15:26.958839
16.9993486,0.577888906,-0.1276948154,0.5391410589,2024-06-04 16:15:26.999349
17.03985355,0.7411358953,-0.3197030723,0.753785491,2024-06-04 16:15:27.039854
17.08032313,0.7121082544,-0.4270252883,1.226615787,2024-06-04 16:15:27.080323
17.12075782,0.7059831619,-0.5934679508,1.702775002,2024-06-04 16:15:27.120758
17.1612448,0.9866721034,-0.7138392925,1.658035159,2024-06-04 16:15:27.161245
17.20175246,1.119826198,-0.7215622067,1.510500431,2024-06-04 16:15:27.201752
17.24224376,1.185204864,-0.492537111,1.303578854,2024-06-04 16:15:27.242244
17.28273068,1.107043386,-0.3841496706,0.9548482299,2024-06-04 16:15:27.282731
17.32323126,0.7320814133,-0.3295564651,0.7804163694,2024-06-04 16:15:27.323231
17.36373683,0.3162410557,-0.1174419373,0.2969337106,2024-06-04 16:15:27.363737
17.40422386,-0.08481918275,0.1667089611,-0.03115806542,2024-06-04 16:15:27.404224
17.44466079,-0.4924039543,0.6683005691,-0.484814167,2024-06-04 16:15:27.444661
17.4851886,-0.8696296215,1.134473205,-1.035140157,2024-06-04 16:15:27.485189
17.52566386,-1.143128157,1.190930486,-1.457904577,2024-06-04 16:15:27.525664
17.56618657,-1.385069251,1.117695808,-1.65630424,2024-06-04 16:15:27.566187
17.60665407,-1.236336112,0.7990579009,-1.746050119,2024-06-04 16:15:27.606654
17.64715136,-0.863504529,0.2167749256,-1.779072285,2024-06-04 16:15:27.647151
17.68759621,-0.5616441369,0.2175738513,-1.644320369,2024-06-04 16:15:27.687596
17.7280935,-0.3725652397,0.2804225981,-1.40837121,2024-06-04 16:15:27.728094
17.76861844,-0.2226337045,-0.006391398143,-1.12222302,2024-06-04 16:15:27.768618
17.8090824,-0.04460663348,-0.4001281559,-0.597995162,2024-06-04 16:15:27.809082
17.84955964,0.1394123733,-0.3649754524,-0.1766955256,2024-06-04 16:15:27.849560
17.89008683,0.2637783289,-0.3058550358,0.2860150635,2024-06-04 16:15:27.890087
17.93053553,0.4264926612,-0.3817528784,0.5343475342,2024-06-04 16:15:27.930536
17.97102282,0.4789553881,-0.3481980562,0.5796199441,2024-06-04 16:15:27.971023
18.01151011,0.4062532485,-0.416905582,0.7346113324,2024-06-04 16:15:28.011510
18.05198673,0.4784227908,-0.560978353,0.9258206487,2024-06-04 16:15:28.051987
18.09248214,0.5504591465,-0.5372769237,1.450581074,2024-06-04 16:15:28.092482
18.13295412,0.7419347763,-0.8529853225,1.852307081,2024-06-04 16:15:28.132954
18.17348433,0.8798824549,-0.8710942864,1.734865189,2024-06-04 16:15:28.173484
18.21397157,1.099320531,-1.097190022,1.521685362,2024-06-04 16:15:28.213972
18.25442365,1.111304402,-0.9722914696,1.293192863,2024-06-04 16:15:28.254424
18.29497647,0.9342093468,-0.5652392507,1.023023129,2024-06-04 16:15:28.294976
18.33544891,0.6402050257,-0.2541912198,0.8890700936,2024-06-04 16:15:28.335449
18.37591787,0.208119899,-0.03248960897,0.5316844583,2024-06-04 16:15:28.375918
18.41643688,-0.3504616618,0.3155752718,0.1744319052,2024-06-04 16:15:28.416437
18.45687756,-0.8304823041,0.6544525623,-0.2760285139,2024-06-04 16:15:28.456878
18.49736876,-1.193460464,1.143261313,-0.834343791,2024-06-04 16:15:28.497369
18.53785329,-1.459369302,1.497717619,-1.175750971,2024-06-04 16:15:28.537853
18.57834147,-1.644187212,1.769751549,-1.524747968,2024-06-04 16:15:28.578341
18.61887225,-1.688926935,1.635665298,-1.734066248,2024-06-04 16:15:28.618872
18.65931277,-1.369357109,0.8587109447,-1.875475883,2024-06-04 16:15:28.659313
18.69979282,-0.9284837246,0.487344116,-1.678407788,2024-06-04 16:15:28.699793
18.74031813,-0.5704323053,0.5825493336,-1.340995193,2024-06-04 16:15:28.740318
18.78084683,-0.349662751,0.482816875,-1.096657395,2024-06-04 16:15:28.780847
18.8212423,-0.1291595101,0.4410064816,-0.5290213227,2024-06-04 16:15:28.821242
18.86175756,0.2664414048,-0.1484668553,-0.09081111848,2024-06-04 16:15:28.861758
18.90223074,0.5090482235,-0.09320788831,0.1989322603,2024-06-04 16:15:28.902231
18.94273683,0.6223623753,0.1957365721,0.314776361,2024-06-04 16:15:28.942737
18.98321584,0.7006570101,0.1046591476,0.2788247466,2024-06-04 16:15:28.983216
19.02372621,0.8279523849,-0.05485950038,0.3925383687,2024-06-04 16:15:29.023726
19.06420261,0.9003882408,-0.03222329915,0.7745575905,2024-06-04 16:15:29.064203
19.10469042,1.069760323,-0.3857475221,1.120891452,2024-06-04 16:15:29.104690
19.1451872,1.152981639,-0.5122439265,1.388797522,2024-06-04 16:15:29.145187
19.18568824,1.218227148,-0.7264889479,1.305709362,2024-06-04 16:15:29.185688
19.22617464,1.400648236,-1.239664912,1.242594361,2024-06-04 16:15:29.226175
19.26665334,1.678141475,-1.589194536,1.155777812,2024-06-04 16:15:29.266653
19.30713568,1.644586682,-1.176283598,0.937271893,2024-06-04 16:15:29.307136
19.34763746,1.141530395,-0.1905435622,0.9729571939,2024-06-04 16:15:29.347637
19.38813006,0.6276885867,0.1999974996,0.6398055553,2024-06-04 16:15:29.388130
19.42864746,0.1207707971,0.07643046975,0.2724333405,2024-06-04 16:15:29.428647
19.46906647,-0.5414046645,0.1962691844,-0.2659088075,2024-06-04 16:15:29.469066
19.50957016,-1.067496657,0.539673686,-0.6925346255,2024-06-04 16:15:29.509570
19.55009996,-1.48520112,1.029148221,-1.007710457,2024-06-04 16:15:29.550100
19.59059391,-1.66922009,0.8611077666,-1.244458437,2024-06-04 16:15:29.590594
19.63108084,-1.68040514,0.8975919485,-1.484535336,2024-06-04 16:15:29.631081
19.67152881,-1.376547337,0.4002613127,-1.550579786,2024-06-04 16:15:29.671529
19.7119947,-1.072290182,-0.1657768935,-1.485600591,2024-06-04 16:15:29.711995
19.7524947,-0.8989235163,-0.2129134536,-1.438197732,2024-06-04 16:15:29.752495
19.79298897,-0.8025199175,-0.03142437339,-1.171490073,2024-06-04 16:15:29.792989
19.83348402,-0.7652367949,-0.06391397864,-0.6802844405,2024-06-04 16:15:29.833484
19.87397386,-0.4902735054,-0.2376801223,-0.1652442664,2024-06-04 16:15:29.873974
19.91447371,-0.07629731297,-0.4272916019,0.2758953571,2024-06-04 16:15:29.914474
19.95494891,0.1375482082,-0.270169735,0.5617772937,2024-06-04 16:15:29.954949
19.99544647,0.2619141638,-0.1734998226,0.585478723,2024-06-04 16:15:29.995446
20.03592027,0.4320851564,-0.08921326697,0.6296858788,2024-06-04 16:15:30.035920
20.07639365,0.6125090122,-0.2177069932,0.8099765778,2024-06-04 16:15:30.076394
20.11690636,0.7509892583,-0.03941362351,1.082942486,2024-06-04 16:15:30.116906
20.15740001,0.8521864414,-0.176429227,1.359237313,2024-06-04 16:15:30.157400
20.19782438,1.013302922,-0.2877460718,1.555772781,2024-06-04 16:15:30.197824
20.23836178,1.140198827,-0.5189016461,1.39758575,2024-06-04 16:15:30.238362
20.27883579,1.320755839,-0.800788939,1.415694714,2024-06-04 16:15:30.278836
20.31933037,1.300516367,-0.7587122321,1.197321892,2024-06-04 16:15:30.319330
20.35981761,0.9094427228,-0.554586947,0.9993217587,2024-06-04 16:15:30.359818
20.4003048,0.5175700784,-0.2302234918,0.7444647551,2024-06-04 16:15:30.400305
20.4407522,0.05552527308,0.1195724085,0.4197018147,2024-06-04 16:15:30.440752
20.48123928,-0.3352820873,0.3374125659,-0.02902759984,2024-06-04 16:15:30.481239
20.52174407,-0.7476604581,0.6256912351,-0.5649729371,2024-06-04 16:15:30.521744
20.56227016,-1.054181218,0.9394024014,-1.041531563,2024-06-04 16:15:30.562270
20.60276532,-1.278146505,1.201849103,-1.412365794,2024-06-04 16:15:30.602765
20.64324584,-1.277880192,1.038469076,-1.64139092,2024-06-04 16:15:30.643246
20.68370735,-1.195324659,0.622495532,-1.863225698,2024-06-04 16:15:30.683707
20.72420042,-1.050719261,0.1486000121,-1.856834292,2024-06-04 16:15:30.724200
20.76470761,-0.9655005932,-0.02316881903,-1.632602811,2024-06-04 16:15:30.764708
20.80520199,-0.8161016703,0.1171756312,-1.360968351,2024-06-04 16:15:30.805202
20.84567042,-0.7657693624,0.1355509013,-1.075352788,2024-06-04 16:15:30.845670
20.88616657,-0.5145075321,-0.07483261824,-0.5311518312,2024-06-04 16:15:30.886167
20.92664209,0.01531272475,-0.4683030546,-0.06950645149,2024-06-04 16:15:30.926642
20.96713766,0.2818872929,-0.02663082629,0.2742975056,2024-06-04 16:15:30.967138
21.00763334,0.3620460629,0.04793548584,0.4165061116,2024-06-04 16:15:31.007633
21.04810886,0.5149070024,0.1387466043,0.3805544972,2024-06-04 16:15:31.048109
21.08860376,0.6692326665,0.07722939551,0.5804188251,2024-06-04 16:15:31.088604
21.12908959,0.8138380051,-0.2161091566,0.8688306808,2024-06-04 16:15:31.129090
21.1695624,0.9286168814,-0.1348851323,1.10477984,2024-06-04 16:15:31.169562
21.21002407,1.182541847,-0.3053224087,1.329410791,2024-06-04 16:15:31.210024
21.25051204,1.193194151,-0.6672353148,1.583468914,2024-06-04 16:15:31.250512
21.2909999,1.302114248,-0.9200950265,1.433537364,2024-06-04 16:15:31.291000
21.3315173,1.487731099,-1.343924642,1.3315413,2024-06-04 16:15:31.331517
21.3720099,1.251515627,-1.156310439,1.24099648,2024-06-04 16:15:31.372010
21.41249141,0.908111155,-0.5154396296,1.029680848,2024-06-04 16:15:31.412491
21.45297865,0.5342143774,0.04367455468,0.625158608,2024-06-04 16:15:31.452979
21.4934672,0.1151783243,0.2367480397,0.3019935489,2024-06-04 16:15:31.493467
21.53399657,-0.3525921404,0.240476355,-0.2842840552,2024-06-04 16:15:31.533997
21.5744698,-0.7822805047,0.4604469836,-0.779484272,2024-06-04 16:15:31.574470
21.61495621,-1.106643915,0.9441959262,-1.171756268,2024-06-04 16:15:31.614956
21.65543381,-1.361900449,0.9631038308,-1.374283791,2024-06-04 16:15:31.655434
21.69591225,-1.46735847,0.762839973,-1.478942871,2024-06-04 16:15:31.695912
21.73638917,-1.337666392,0.2985315621,-1.598248959,2024-06-04 16:15:31.736389
21.77688199,-1.236336112,-0.08415340632,-1.646717072,2024-06-04 16:15:31.776882
21.81737475,-1.187867999,-0.07563154399,-1.506639004,2024-06-04 16:15:31.817375
21.85787631,-1.10105145,-0.05113118514,-1.261235952,2024-06-04 16:15:31.857876
21.89836433,-0.9838758707,0.05512581021,-0.8431319594,2024-06-04 16:15:31.898364
21.9388485,-0.635944128,-0.176429227,-0.1966686398,2024-06-04 16:15:31.938848
21.97932152,-0.1608501822,-0.2885449827,0.2750964165,2024-06-04 16:15:31.979322
22.01980173,0.1103847697,-0.2057231218,0.6312837005,2024-06-04 16:15:32.019802
22.06028912,0.2267614752,-0.1655105799,0.6331478953,2024-06-04 16:15:32.060289
22.10077652,0.3340837061,-0.09027849883,0.5001268983,2024-06-04 16:15:32.100777
22.1412762,0.4826837182,-0.1591191888,0.603853941,2024-06-04 16:15:32.141276
22.18180089,0.5975957513,0.01784265228,0.9591091871,2024-06-04 16:15:32.181801
22.22225548,0.7195649147,0.06710968167,1.282007933,2024-06-04 16:15:32.222255
22.26276079,0.8471265435,0.02450035885,1.611963868,2024-06-04 16:15:32.262761
22.30324261,1.108641267,-0.1806901544,1.548582554,2024-06-04 16:15:32.303243
22.34373068,1.275749683,-0.4579170346,1.352046967,2024-06-04 16:15:32.343731
22.38421449,1.588928223,-1.011705041,1.127815485,2024-06-04 16:15:32.384214
22.42468938,1.376147866,-0.9528509378,0.9290163517,2024-06-04 16:15:32.424689
22.46517673,0.9752208591,-0.4880098701,0.796394825,2024-06-04 16:15:32.465177
22.50565657,0.5528559685,-0.08122401685,0.4742949903,2024-06-04 16:15:32.505657
22.54617647,0.1268958896,0.03275591508,0.1246322617,2024-06-04 16:15:32.546176
22.58671949,-0.3797555864,0.352858454,-0.3817528784,2024-06-04 16:15:32.586719
22.6271473,-0.8081123829,0.7316819429,-0.8202294111,2024-06-04 16:15:32.627147
22.6676335,-1.200384498,1.03953433,-1.112369537,2024-06-04 16:15:32.667634
22.708121,-1.372286439,0.9969249368,-1.366294503,2024-06-04 16:15:32.708121
22.74861058,-1.351248145,0.8818798065,-1.53380239,2024-06-04 16:15:32.748611
22.78909761,-1.257907033,0.5527228117,-1.600113153,2024-06-04 16:15:32.789098
22.82958511,-1.033409238,-0.142874375,-1.584401011,2024-06-04 16:15:32.829585
22.87007261,-0.9726908803,-0.1388797611,-1.468823195,2024-06-04 16:15:32.870073
22.91053376,-0.8983908892,0.0817566365,-1.317693233,2024-06-04 16:15:32.910534
22.95102115,-0.8227593303,0.113447316,-0.9155677557,2024-06-04 16:15:32.951021
22.99150891,-0.47056669,-0.1782933772,-0.4579170346,2024-06-04 16:15:32.991509
23.03204193,-0.06191666797,-0.3700353205,0.05778888986,2024-06-04 16:15:33.032042
23.072516,0.1862826198,-0.2781589627,0.414375633,2024-06-04 16:15:33.072516
23.11298407,0.3047898114,-0.1695052087,0.4942681193,2024-06-04 16:15:33.112984
23.15349193,0.4267589748,-0.1332872808,0.455653429,2024-06-04 16:15:33.153492
23.19398766,0.6428681016,-0.06551183015,0.5087819099,2024-06-04 16:15:33.193988
23.23447594,0.8223599195,0.01225017942,0.744731009,2024-06-04 16:15:33.234476
23.27494324,0.9853405356,0.2095845938,1.103181958,2024-06-04 16:15:33.274943
23.31545339,1.079347372,0.07962616533,1.376014709,2024-06-04 16:15:33.315453
23.3559199,1.195058346,-0.2304897904,1.362166762,2024-06-04 16:15:33.355920
23.39642277,1.371886969,-0.5676360726,1.238599658,2024-06-04 16:15:33.396423
23.4369335,1.426213861,-0.8772193789,1.269757748,2024-06-04 16:15:33.436933
23.47742178,1.285336852,-0.8801487684,1.141397238,2024-06-04 16:15:33.477422
23.51787818,0.8844097257,-0.6816160083,0.92741853,2024-06-04 16:15:33.517878
23.55837891,0.5382089615,-0.2366148829,0.634745717,2024-06-04 16:15:33.558379
23.5988836,0.04806863889,0.3792229593,0.2367480397,2024-06-04 16:15:33.598884
23.63940516,-0.4205007255,0.5428693891,-0.1878804713,2024-06-04 16:15:33.639405
23.67979881,-0.7516550422,0.7234264016,-0.6291532516,2024-06-04 16:15:33.679799
23.72028683,-1.074420691,0.9146357179,-1.053249121,2024-06-04 16:15:33.720287
23.7607749,-1.249651432,1.033409238,-1.386800289,2024-06-04 16:15:33.760775
23.80127376,-1.225417495,0.9761528969,-1.528742552,2024-06-04 16:15:33.801274
23.84179016,-1.091198087,0.5165048838,-1.687462211,2024-06-04 16:15:33.841790
23.88227949,-0.9244890809,0.1150451675,-1.738593459,2024-06-04 16:15:33.882279
23.9227449,-0.8467270732,-0.158320263,-1.466160059,2024-06-04 16:15:33.922745
23.96324152,-0.7918676138,0.04181039706,-1.242061734,2024-06-04 16:15:33.963242
24.00373475,-0.693466723,0.204258427,-0.9472584724,2024-06-04 16:15:34.003735
24.04421261,-0.4703003764,-0.1073222235,-0.4781564772,2024-06-04 16:15:34.044213
24.08471329,-0.1440727711,-0.2880123854,-0.007190322969,2024-06-04 16:15:34.084713
24.12519902,0.03288906813,-0.3109148741,0.2479329854,2024-06-04 16:15:34.125199
24.16568459,0.1921414137,-0.2011958808,0.4276910722,2024-06-04 16:15:34.165685
24.20619298,0.3556546867,-0.2592510879,0.4418053925,2024-06-04 16:15:34.206193
24.24670063,0.5302197337,-0.07483261824,0.5338149071,2024-06-04 16:15:34.246701
24.28721558,0.66949898,0.09081111848,0.8158353567,2024-06-04 16:15:34.287216
24.32765402,0.8511211872,0.002929390874,1.048056126,2024-06-04 16:15:34.327654
24.36813907,0.9019860625,-0.07483261824,1.367492914,2024-06-04 16:15:34.368139
24.40861907,1.116097927,-0.3655080795,1.335003257,2024-06-04 16:15:34.408619
24.44909996,1.217428207,-0.4067858756,1.153647423,2024-06-04 16:15:34.449100
24.48958162,1.400115609,-0.7829462886,1.253779292,2024-06-04 16:15:34.489582
24.53005704,1.48480165,-1.082276702,1.171756268,2024-06-04 16:15:34.530057
24.57054459,1.266961575,-1.084140897,0.9793485999,2024-06-04 16:15:34.570545
24.61103058,0.7997236848,-0.5428693891,0.753785491,2024-06-04 16:15:34.611031
24.65151553,0.3732310236,-0.2099840641,0.3872122169,2024-06-04 16:15:34.651516
24.69199115,-0.1182408631,0.3352820873,0.06844121963,2024-06-04 16:15:34.691991
24.73251074,-0.5877423286,0.6448654532,-0.4182371199,2024-06-04 16:15:34.732511
24.77301735,-1.065632463,0.820895195,-0.8117075562,2024-06-04 16:15:34.773017
24.81351433,-1.31449759,0.9591091871,-1.145391822,2024-06-04 16:15:34.813514
24.85399808,-1.504641652,0.8933310509,-1.278013349,2024-06-04 16:15:34.853998
24.89449094,-1.515560269,0.7766880393,-1.418224573,2024-06-04 16:15:34.894491
24.93495136,-1.471885681,0.3741630912,-1.551112413,2024-06-04 16:15:34.934951
24.97546537,-1.250184059,-0.05113118514,-1.365495563,2024-06-04 16:15:34.975465
25.01593943,-1.068029284,0.1360835135,-1.158973575,2024-06-04 16:15:35.015939
25.05642647,-0.8429988027,0.3174394369,-1.148587465,2024-06-04 16:15:35.056426
25.09691553,-0.6567161679,0.3395430148,-0.7206301689,2024-06-04 16:15:35.096916
25.13741272,-0.3930709958,-0.08015878499,-0.256588012,2024-06-04 16:15:35.137413
25.17785084,-0.07416684926,-0.2757622004,0.1294258088,2024-06-04 16:15:35.177851
25.2183723,0.1077216864,-0.06631075591,0.3014609516,2024-06-04 16:15:35.218372
25.25887923,0.2315550297,0.1715025157,0.322499305,2024-06-04 16:15:35.258879
25.29936818,0.4730966091,0.1864157766,0.3821523488,2024-06-04 16:15:35.299368
25.339856,0.5765573978,0.003195699072,0.5063851476,2024-06-04 16:15:35.339856
25.3803112,0.7682993412,0.08521863818,0.7689650655,2024-06-04 16:15:35.380311
25.42078266,0.9334104657,-0.005059856921,0.9655005932,2024-06-04 16:15:35.420783
25.46127042,1.034341216,-0.06471290439,1.120625138,2024-06-04 16:15:35.461270
25.50179891,1.117695808,-0.03355484083,1.235936642,2024-06-04 16:15:35.501799
25.54227824,1.231542587,-0.2773600519,1.104247212,2024-06-04 16:15:35.542278
25.5827599,1.469089508,-0.6698983908,1.168294311,2024-06-04 16:15:35.582760
25.62327636,1.533536077,-0.8788172603,0.9841421843,2024-06-04 16:15:35.623276
25.66380511,1.328478694,-0.8180989623,0.8230256438,2024-06-04 16:15:35.663805
25.70429313,0.923024416,-0.5604457259,0.5833482146,2024-06-04 16:15:35.704293
25.74471355,0.5507254601,-0.1873478591,0.3259612918,2024-06-04 16:15:35.744714
25.78520011,0.0736342296,0.2074541301,-0.0260982085,2024-06-04 16:15:35.785200
25.8257073,-0.4263595045,0.4199681282,-0.4501941204,2024-06-04 16:15:35.825707
25.86617824,-0.7527202964,0.6302185059,-0.8473928571,2024-06-04 16:15:35.866178
25.90668641,-0.9966586232,0.6459306479,-1.095325828,2024-06-04 16:15:35.906686
25.94712292,-1.138600945,0.619299829,-1.305975676,2024-06-04 16:15:35.947123
25.98765808,-1.184405923,0.3802881837,-1.477611303,2024-06-04 16:15:35.987658
26.02815449,-1.20650959,0.2806889117,-1.548183084,2024-06-04 16:15:36.028154
26.06862188,-1.344057798,0.3206351399,-1.504242182,2024-06-04 16:15:36.068622
26.10912917,-1.341394663,0.05166380107,-1.185604334,2024-06-04 16:15:36.109129
26.14961714,-1.150584817,0.1246322617,-1.019161701,2024-06-04 16:15:36.149617
26.1900648,-0.9860063195,0.1874810159,-0.7079805136,2024-06-04 16:15:36.190065
26.23055272,-0.678553462,0.06551183015,-0.3636439145,2024-06-04 16:15:36.230553
26.27104074,-0.240476355,0.006125089712,0.01384802908,2024-06-04 16:15:36.271041
26.3115647,0.09653674066,0.04314193875,0.2846835256,2024-06-04 16:15:36.311565
26.35202667,0.2531259954,0.1432738453,0.3717663288,2024-06-04 16:15:36.352027
26.39254183,0.3679048419,0.2442046702,0.3707011044,2024-06-04 16:15:36.392542
26.43301464,0.62049824,0.2311555594,0.499594301,2024-06-04 16:15:36.433015
26.47350256,0.7536523938,0.1549914032,0.6105116606,2024-06-04 16:15:36.473503
26.51402058,0.9113068581,0.1731003672,0.7748238444,2024-06-04 16:15:36.514021
26.55448496,0.9848079085,-0.05619104207,0.9907998443,2024-06-04 16:15:36.554485
26.59498886,1.035672784,-0.1913424879,1.135804653,2024-06-04 16:15:36.594989
26.63546709,1.013036609,-0.2033263594,1.158174634,2024-06-04 16:15:36.635467
26.67595943,1.187335372,-0.5508586168,1.169359565,2024-06-04 16:15:36.675959
26.71644777,1.440594554,-0.7350108027,0.9615059495,2024-06-04 16:15:36.716448
26.75692824,1.272820354,-0.5916038156,0.8885374665,2024-06-04 16:15:36.756928
26.79739542,0.9382039905,-0.2938711643,0.8017209768,2024-06-04 16:15:36.797395
26.8378848,0.6170362234,-0.09347419441,0.530619204,2024-06-04 16:15:36.837885
26.87839496,0.2467346042,0.08521863818,0.2007964253,2024-06-04 16:15:36.878395
26.91885714,-0.1856168509,0.3501953483,-0.1950708032,2024-06-04 16:15:36.918857
26.95934548,-0.6657706499,0.7095783353,-0.6810833812,2024-06-04 16:15:36.959345
26.99983381,-0.9910661578,1.073888063,-1.154978871,2024-06-04 16:15:36.999834
27.04030803,-1.163900256,1.204245925,-1.402246118,2024-06-04 16:15:37.040308
27.0807961,-1.096524239,0.8989235163,-1.502377987,2024-06-04 16:15:37.080796
27.12128256,-1.075752258,0.7639052272,-1.623281956,2024-06-04 16:15:37.121283
27.16177292,-0.8195636868,0.4529903531,-1.754571915,2024-06-04 16:15:37.161773
27.2022786,-0.6545857191,0.07483261824,-1.56496048,2024-06-04 16:15:37.202279
27.24281188,-0.553388536,0.2077204436,-1.33859849,2024-06-04 16:15:37.242812
27.28331865,-0.5246272683,0.3536573648,-1.166962743,2024-06-04 16:15:37.283319
27.32376303,-0.5632419586,0.239144817,-0.5599130988,2024-06-04 16:15:37.323763
27.36425662,-0.2916075289,-0.1878804713,-0.1873478591,2024-06-04 16:15:37.364257
27.40475048,0.08721595258,-0.1697715074,0.1091863886,2024-06-04 16:15:37.404750
27.44524954,0.2864145339,-0.006924014539,0.323830843,2024-06-04 16:15:37.445250
27.48572256,0.3921388984,0.172567755,0.3177057505,2024-06-04 16:15:37.485723
27.52619673,0.6074491143,0.1371487528,0.4050548673,2024-06-04 16:15:37.526197
27.56670391,0.7619079351,0.1834863871,0.4804200828,2024-06-04 16:15:37.566704
27.60717006,0.8074466586,0.287612915,0.7615084648,2024-06-04 16:15:37.607170
27.6476598,0.9195623994,0.01517957076,0.9615059495,2024-06-04 16:15:37.647660
27.68815079,1.153247952,-0.05858781561,1.18906641,2024-06-04 16:15:37.688151
27.72863032,1.378012061,-0.4001281559,1.321954131,2024-06-04 16:15:37.728630
27.76911511,1.536998153,-0.4541887343,1.172821522,2024-06-04 16:15:37.769115
27.80963214,1.687994838,-0.8250229955,1.007310987,2024-06-04 16:15:37.809632
27.85012063,1.611031771,-1.002650619,0.878950417,2024-06-04 16:15:37.850121
27.89060917,1.289864063,-0.5279561281,0.6754909158,2024-06-04 16:15:37.890609
27.93106777,0.8306154609,-0.1258306503,0.4913387299,2024-06-04 16:15:37.931068
27.97155923,0.3836170435,0.1536598653,0.2764279842,2024-06-04 16:15:37.971559
28.01204912,-0.1880136281,0.3427387178,-0.1985328048,2024-06-04 16:15:38.012049
28.0525461,-0.6314168572,0.6379414201,-0.6653711796,2024-06-04 16:15:38.052546
28.09303865,-0.9785496593,0.8022536039,-0.9925308824,2024-06-04 16:15:38.093039
28.13351527,-1.219558716,1.003050089,-1.355908513,2024-06-04 16:15:38.133515
28.1740062,-1.325416207,0.8733579516,-1.590792418,2024-06-04 16:15:38.174006
28.21450699,-1.15005219,0.6107779741,-1.703174472,2024-06-04 16:15:38.214507
28.25498402,-0.9071790576,0.2154433727,-1.539394855,2024-06-04 16:15:38.254984
28.29546324,-0.7857425213,-0.1399449855,-1.436599851,2024-06-04 16:15:38.295463
28.33595006,-0.7292851806,0.1659100503,-1.377745748,2024-06-04 16:15:38.335950
28.37644568,-0.6777545214,0.04713656008,-1.092662811,2024-06-04 16:15:38.376446
28.41694751,-0.5946663618,-0.07190322876,-0.6754909158,2024-06-04 16:15:38.416948
28.45744048,-0.21784015,-0.3420729637,-0.2653761804,2024-06-04 16:15:38.457440
28.49790381,0.08348763734,-0.3790898025,0.07722939551,2024-06-04 16:15:38.497904
28.53838292,0.3111811876,-0.2006632686,0.3685706258,2024-06-04 16:15:38.538383
28.57889079,0.4057206213,0.01784265228,0.3749620318,2024-06-04 16:15:38.578891
28.61935209,0.5456656218,0.03541899845,0.3374125659,2024-06-04 16:15:38.619352
28.65982225,0.6623086333,-0.1178414002,0.5138418078,2024-06-04 16:15:38.659822
28.70033266,0.7714950442,-0.1668421179,0.7631062865,2024-06-04 16:15:38.700333
28.74082079,0.8186315894,-0.0117175635,1.080013156,2024-06-04 16:15:38.740821
28.78130829,0.8087781668,-0.1178414002,1.294524431,2024-06-04 16:15:38.781308
28.82183095,1.05245018,-0.2105166763,1.403977156,2024-06-04 16:15:38.821831
28.86230985,1.193993092,-0.539673686,1.398651004,2024-06-04 16:15:38.862310
28.90281157,1.278146505,-0.6483274698,1.339796782,2024-06-04 16:15:38.902812
28.9432587,1.061504722,-0.2946700752,1.093861103,2024-06-04 16:15:38.943259
28.98379615,0.8276860714,-0.1282274276,0.8451292515,2024-06-04 16:15:38.983796
29.02425996,0.4350145459,-0.1041265279,0.5436683297,2024-06-04 16:15:39.024260
29.06475475,0.06111774594,0.05565842614,0.1070559174,2024-06-04 16:15:39.064755
29.10525912,-0.3712337017,0.4641752839,-0.4017260075,2024-06-04 16:15:39.105259
29.14574058,-0.7846772671,0.9417991638,-0.8412677646,2024-06-04 16:15:39.145741
29.18620865,-1.0075773,1.259638071,-1.234871387,2024-06-04 16:15:39.186209
29.22673709,-1.114899516,1.179479241,-1.512497783,2024-06-04 16:15:39.226737
29.26719496,-1.103714585,1.031545043,-1.760430694,2024-06-04 16:15:39.267195
29.30767167,-0.8501890898,0.6768224239,-1.927672267,2024-06-04 16:15:39.307672
29.34817303,-0.7175676227,0.1890788674,-1.733000994,2024-06-04 16:15:39.348173
29.38867277,-0.6684337258,0.2364817262,-1.429942131,2024-06-04 16:15:39.388673
29.4291611,-0.5520570278,0.2063889056,-1.266295791,2024-06-04 16:15:39.429161
29.46959266,-0.4300878346,0.2559222281,-0.9102416039,2024-06-04 16:15:39.469593
29.51008105,-0.1565892547,-0.132488355,-0.3513937294,2024-06-04 16:15:39.510081
29.55056943,0.1700378209,-0.2129134536,0.03275591508,2024-06-04 16:15:39.550569
29.59105772,0.4403406978,-0.153793022,0.293471694,2024-06-04 16:15:39.591058
29.6316024,0.5499265194,0.07776200771,0.3177057505,2024-06-04 16:15:39.631602
29.67209558,0.696662426,0.01864157803,0.3142437339,2024-06-04 16:15:39.672096
29.71258386,0.8495233655,-0.04660394415,0.4316856861,2024-06-04 16:15:39.712584
29.75305949,0.9283505678,-0.1567224115,0.7106435895,2024-06-04 16:15:39.753059
29.79358298,0.9645684958,-0.1684399694,1.01423502,2024-06-04 16:15:39.793583
29.83401615,1.008243084,-0.2925396264,1.240730166,2024-06-04 16:15:39.834016
29.874536,1.020226955,-0.5503259897,1.305709362,2024-06-04 16:15:39.874536
29.9150236,1.194792032,-0.7157034278,1.39385736,2024-06-04 16:15:39.915024
29.95546214,1.232341409,-1.008243084,1.340329409,2024-06-04 16:15:39.955462
29.99602407,1.197455049,-0.6858769059,1.084540367,2024-06-04 16:15:39.996024
30.03648459,0.8601756692,-0.5551195741,0.8653686643,2024-06-04 16:15:40.036485
30.07696027,0.4989285171,-0.4448679388,0.5236951709,2024-06-04 16:15:40.076960
30.11745417,0.114113085,-0.3282249272,0.1888125539,2024-06-04 16:15:40.117454
30.15795365,-0.3501953483,0.04846810177,-0.2470009029,2024-06-04 16:15:40.157954
30.19838808,-0.760176897,0.5766905546,-0.7477935553,2024-06-04 16:15:40.198388
30.23891532,-1.057110667,0.8834776282,-1.089733362,2024-06-04 16:15:40.238915
30.27940381,-1.277347565,0.946326375,-1.339663625,2024-06-04 16:15:40.279404
30.31989214,-1.366161346,0.6485937834,-1.538063288,2024-06-04 16:15:40.319892
30.36038053,-1.445254922,0.2535254657,-1.601178408,2024-06-04 16:15:40.360381
30.40086881,-1.438597202,-0.09453943372,-1.532204509,2024-06-04 16:15:40.400869
30.44131657,-1.311301827,-0.06258244067,-1.198120832,2024-06-04 16:15:40.441317
30.4818247,-1.134606361,0.06577813625,-1.033276081,2024-06-04 16:15:40.481825
30.52235256,-0.9178314209,0.0330222249,-0.6784203053,2024-06-04 16:15:40.522353
30.56283584,-0.4471315742,-0.2613815665,-0.3308880031,2024-06-04 16:15:40.562836
30.60331261,-0.07496577501,-0.06737598777,0.09613727778,2024-06-04 16:15:40.603313
30.64379647,0.1940055639,0.04713656008,0.3081186414,2024-06-04 16:15:40.643796
30.68428147,0.371633172,0.290275991,0.3685706258,2024-06-04 16:15:40.684281
30.7247662,0.5909380317,0.2079867423,0.4069190025,2024-06-04 16:15:40.724766
30.76525688,0.8471265435,0.3209014535,0.588141799,2024-06-04 16:15:40.765257
30.80577193,1.03540647,0.2207695395,0.7489919662,2024-06-04 16:15:40.805772
30.84626553,1.194259405,0.2545906901,1.110505462,2024-06-04 16:15:40.846266
30.88672683,1.249917746,-0.3018604219,1.333405495,2024-06-04 16:15:40.886727
30.9271985,1.393724203,-0.6621754766,1.362699389,2024-06-04 16:15:40.927198
30.96768345,1.574014902,-1.075352788,1.20611012,2024-06-04 16:15:40.967683
31.00819298,1.27921176,-0.588141799,1.072822809,2024-06-04 16:15:41.008193
31.04870251,0.993329823,0.04287562892,0.8533847928,2024-06-04 16:15:41.048703
31.08918782,0.6106448174,0.1219691783,0.9873378873,2024-06-04 16:15:41.089188
31.12966803,0.3162410557,-0.265642494,0.6411371231,2024-06-04 16:15:41.129668
31.17013266,-0.07896039635,-0.2906754613,0.223698929,2024-06-04 16:15:41.170133
31.21059678,-0.5256925225,0.4756265581,-0.3836170435,2024-06-04 16:15:41.210597
31.25108386,-0.7971937656,0.9018529058,-0.9006544948,2024-06-04 16:15:41.251084
31.29159943,-0.9772181511,1.105978131,-1.32115531,2024-06-04 16:15:41.291599
31.33210475,-1.035273314,0.875754714,-1.478942871,2024-06-04 16:15:41.332105
31.37262022,-1.145258665,0.5774894357,-1.521552205,2024-06-04 16:15:41.372620
31.41309006,-1.247254729,0.4639089704,-1.629673362,2024-06-04 16:15:41.413090
31.45356225,-1.268559337,0.3579182923,-1.57241714,2024-06-04 16:15:41.453562
31.4940447,-1.095725298,0.316107899,-1.389196992,2024-06-04 16:15:41.494045
31.53453829,-0.8525858521,0.3363473415,-1.088934422,2024-06-04 16:15:41.534538
31.5750297,-0.5461982489,0.3725652397,-0.7177007794,2024-06-04 16:15:41.575030
31.61553121,-0.08774857223,-0.03595161438,-0.3007951677,2024-06-04 16:15:41.615531
31.65602443,0.3849485815,0.007722939365,0.1448716968,2024-06-04 16:15:41.656024
31.69651152,0.6822817326,0.2852161527,0.339276731,2024-06-04 16:15:41.696512
31.73697157,0.7496577501,0.2348838747,0.2679060996,2024-06-04 16:15:41.736972
31.77745881,0.7374075651,-0.1194392517,0.3464670479,2024-06-04 16:15:41.777459
31.81795871,0.7184996605,0.09933298081,0.5750926733,2024-06-04 16:15:41.817959
31.85848433,0.8165011406,-0.1934729517,0.8925321102,2024-06-04 16:15:41.858484
31.8989562,0.9227581024,-0.1059906855,1.174419403,2024-06-04 16:15:41.898956
31.93939402,1.212368369,-0.2509955168,1.350449204,2024-06-04 16:15:41.939394
31.97988266,1.295456529,-0.4472647011,1.370688558,2024-06-04 16:15:41.979883
32.02037131,1.420887709,-0.7082468271,1.412765265,2024-06-04 16:15:42.020371
32.06085996,1.340995193,-0.7093120217,1.294258118,2024-06-04 16:15:42.060860
32.1013486,1.128614426,-0.3167736828,0.9545819163,2024-06-04 16:15:42.101349
32.14184766,0.7989247441,-0.09906667471,0.5796199441,2024-06-04 16:15:42.141848
32.18235735,0.3508611321,-0.06950645149,0.2692376375,2024-06-04 16:15:42.182357
32.22283068,-0.1323551983,0.04527240247,-0.1825543046,2024-06-04 16:15:42.222831
32.26333193,-0.5544537902,0.4231638312,-0.5950657725,2024-06-04 16:15:42.263332
32.30380334,-0.9425980449,0.6544525623,-0.9581770897,2024-06-04 16:15:42.303803
32.34432079,-1.244058967,0.7990579009,-1.297720075,2024-06-04 16:15:42.344321
32.38480412,-1.363764524,0.6816160083,-1.573216081,2024-06-04 16:15:42.384804
32.42529985,-1.311301827,0.521032095,-1.713027835,2024-06-04 16:15:42.425300
32.46578824,-1.308106184,0.2527265251,-1.756968737,2024-06-04 16:15:42.465788
32.50628449,-1.09439373,-0.147401616,-1.47441566,2024-06-04 16:15:42.506284
32.54673506,-0.8043841124,0.1209039465,-1.097456336,2024-06-04 16:15:42.546735
32.58725235,-0.6066502333,0.1749645174,-0.8849423528,2024-06-04 16:15:42.587252
32.62771735,-0.4468652606,-0.156456098,-0.5292876363,2024-06-04 16:15:42.627717
32.66821563,-0.2535254657,-0.4523245692,-0.1838858575,2024-06-04 16:15:42.668216
32.70870397,0.02862813696,-0.3977313936,0.2468677461,2024-06-04 16:15:42.708704
32.74916693,0.1623148769,-0.09107742459,0.4668383598,2024-06-04 16:15:42.749167
32.78965527,0.3463338912,0.04953333735,0.5218310356,2024-06-04 16:15:42.789655
32.83014355,0.5232957006,-0.008255556226,0.5995930433,2024-06-04 16:15:42.830144
32.87063193,0.5840139985,-0.005592473317,0.8837439418,2024-06-04 16:15:42.870632
32.9111023,0.7469946742,-0.3415403366,1.181077123,2024-06-04 16:15:42.911102
32.95159058,0.8742899895,-0.24753353,1.292393923,2024-06-04 16:15:42.951591
32.99212058,1.112902164,-0.2573869228,1.437265635,2024-06-04 16:15:42.992121
33.03260209,1.437931418,-0.6262238622,1.411167502,2024-06-04 16:15:43.032602
33.07307902,1.325016737,-0.4302209914,1.198387146,2024-06-04 16:15:43.073079
33.11359178,1.098255277,-0.3306216896,0.9841421843,2024-06-04 16:15:43.113592
33.15408464,0.8529853225,-0.5902722478,0.9300816059,2024-06-04 16:15:43.154085
33.19454641,0.5970631242,-0.9102416039,0.5876091719,2024-06-04 16:15:43.194546
33.23503964,0.2805557549,-0.6403381824,0.2655093372,2024-06-04 16:15:43.235040
33.27555751,-0.1707035899,0.2591179311,-0.4017260075,2024-06-04 16:15:43.275558
33.31600912,-0.6111774445,1.036871195,-0.9520519972,2024-06-04 16:15:43.316009
33.35655397,-0.9098421335,1.113434792,-1.312899709,2024-06-04 16:15:43.356554
33.39701558,-1.018762231,0.9348751307,-1.583069444,2024-06-04 16:15:43.397016
33.43749548,-1.039001703,0.7742912769,-1.721549749,2024-06-04 16:15:43.437495
33.47798355,-1.009707808,0.6408708096,-1.812627196,2024-06-04 16:15:43.477984
33.51844886,-1.22648263,0.6459306479,-1.73566401,2024-06-04 16:15:43.518449
33.55896407,-1.144726038,0.3533910513,-1.388131738,2024-06-04 16:15:43.558964
33.59946162,-0.9194292426,-0.05246272683,-1.19199574,2024-06-04 16:15:43.599462
33.6399497,-0.8051829934,-0.1276948154,-0.7957290411,2024-06-04 16:15:43.639950
33.68040548,-0.3805544972,-0.5005263686,-0.2661750913,2024-06-04 16:15:43.680405
33.7208935,0.1157109365,-0.3511274457,0.213312909,2024-06-04 16:15:43.720894
33.76138141,0.3926715255,0.006924014539,0.4015928507,2024-06-04 16:15:43.761381
33.80188183,0.5989272594,0.1414096802,0.431153059,2024-06-04 16:15:43.801882
33.8423973,0.8540505767,0.1627143472,0.5090482235,2024-06-04 16:15:43.842397
33.88288324,0.9757534266,0.4037233293,0.6499252915,2024-06-04 16:15:43.882883
33.92334001,0.972025156,0.2511286736,0.9673647285,2024-06-04 16:15:43.923340
33.96382334,0.9571118951,0.01704372838,1.169359565,2024-06-04 16:15:43.963823
34.00433855,1.005579948,-0.4565854967,1.387732267,2024-06-04 16:15:44.004339
34.04482441,0.9930635095,-0.7074478865,1.503576398,2024-06-04 16:15:44.044824
34.08533197,0.9051817656,-0.834610045,1.508369923,2024-06-04 16:15:44.085332
34.12582624,1.110505462,-0.9011871219,1.210903645,2024-06-04 16:15:44.125826
34.16628921,1.096391082,-0.6187672615,0.9591091871,2024-06-04 16:15:44.166289
34.20677842,0.7765548825,-0.5521901846,0.8991898298,2024-06-04 16:15:44.206778
34.24726733,0.2983984053,-0.7592448592,0.4090494812,2024-06-04 16:15:44.247267
34.28775566,-0.2213021666,-0.3769593239,0.005059856921,2024-06-04 16:15:44.287756
34.32824504,-0.6567161679,0.3091838956,-0.4853467941,2024-06-04 16:15:44.328245
34.36873368,-0.8917331696,0.6342130899,-0.9280842543,2024-06-04 16:15:44.368734
34.40921046,-1.064300895,0.7953296304,-1.279611111,2024-06-04 16:15:44.409210
34.44965936,-1.208373666,0.6533873081,-1.479741812,2024-06-04 16:15:44.449659
34.49014785,-1.325682521,0.6882736683,-1.567090988,2024-06-04 16:15:44.490148
34.53063634,-1.33526957,0.6390066743,-1.51595974,2024-06-04 16:15:44.530636
34.57112494,-1.231808782,0.4463326335,-1.479209185,2024-06-04 16:15:44.571125
34.61161884,-0.787340343,0.3182383776,-1.236735582,2024-06-04 16:15:44.611619
34.65214223,-0.5648398399,0.4258269072,-0.9613727927,2024-06-04 16:15:44.652142
34.69264686,-0.2250304818,0.3627118468,-0.5031894445,2024-06-04 16:15:44.692647
34.73312384,0.3039908707,0.2292914093,-0.2310224175,2024-06-04 16:15:44.733124
34.77359587,0.7784190178,0.3318201005,0.1288931966,2024-06-04 16:15:44.773596
34.81407796,1.115831614,0.4878767133,0.3501953483,2024-06-04 16:15:44.814078
34.85457863,1.273885489,0.2303566486,0.4250279665,2024-06-04 16:15:44.854579
34.89506395,1.124353409,0.08575125784,0.4013265371,2024-06-04 16:15:44.895064
34.93550884,1.079879999,-0.02689713426,0.4932028949,2024-06-04 16:15:44.935509
34.97601863,0.9951939583,-0.6597787142,0.8022536039,2024-06-04 16:15:44.976019
35.01654165,0.7579132915,-0.9659000635,1.225018024,2024-06-04 16:15:45.016542
35.05704535,0.8260881901,-1.108374953,1.617556334,2024-06-04 16:15:45.057045
35.09752816,0.9158340693,-1.067629814,1.616491079,2024-06-04 16:15:45.097528
35.13801822,0.7746906877,-0.7263557911,1.644719839,2024-06-04 16:15:45.138018
35.17849129,0.5328828096,-0.6051855087,1.664692879,2024-06-04 16:15:45.178491
35.21897613,0.3236976862,0.2756290436,1.121424079,2024-06-04 16:15:45.218976
35.25946728,0.01105179265,-0.005592473317,0.921826005,2024-06-04 16:15:45.259467
35.29993702,-0.281221509,-0.3010614812,0.4993279874,2024-06-04 16:15:45.299937
35.34041598,-0.6521888971,-0.04234301299,0.05752258375,2024-06-04 16:15:45.340416
35.38090436,-1.076284766,0.2953358591,-0.4099815488,2024-06-04 16:15:45.380904
35.4213927,-1.425281763,0.790536046,-0.8298165202,2024-06-04 16:15:45.421393
35.46188103,-1.732601523,0.9532504082,-1.113168478,2024-06-04 16:15:45.461881
35.50239468,-1.855103254,1.138467789,-1.33939743,2024-06-04 16:15:45.502395
35.54287129,-1.702508688,1.019028544,-1.616091609,2024-06-04 16:15:45.542871
35.58336447,-1.497451305,0.6150389314,-1.605971932,2024-06-04 16:15:45.583364
35.62384223,-1.127416015,0.4732297659,-1.305709362,2024-06-04 16:15:45.623842
35.66434921,-0.7061163187,0.3440702558,-1.186403275,2024-06-04 16:15:45.664349
35.70483759,-0.5264914036,0.4994611442,-0.8678985834,2024-06-04 16:15:45.704838
35.74530056,-0.2519276142,0.04394086078,-0.3388772607,2024-06-04 16:15:45.745301
35.78581884,0.07736254483,-0.06098458916,0.04740286991,2024-06-04 16:15:45.785819
35.82629613,0.2462019771,0.09134373069,0.263112545,2024-06-04 16:15:45.826296
35.86680098,0.239810586,-0.01358172111,0.3821523488,2024-06-04 16:15:45.866801
35.90728941,0.3268933892,-0.1684399694,0.4439358711,2024-06-04 16:15:45.907289
35.94774035,0.5042546988,-0.1607170254,0.597995162,2024-06-04 16:15:45.947740
35.98827306,0.5776225924,-0.09613727778,0.9047822952,2024-06-04 16:15:45.988273
36.02872936,0.7621742487,-0.224897325,1.177615166,2024-06-04 16:15:46.028729
36.06922483,0.7959953547,-0.3937367499,1.335802197,2024-06-04 16:15:46.069225
36.10971275,1.107043386,-0.5476629138,1.476146698,2024-06-04 16:15:46.109713
36.15020447,1.358305216,-0.7579132915,1.321421623,2024-06-04 16:15:46.150204
36.19069238,1.383071899,-1.057243824,1.060039997,2024-06-04 16:15:46.190692
36.2311803,1.268293023,-0.6134410501,0.8539174199,2024-06-04 16:15:46.231180
36.27166968,0.9669652581,-0.6022561193,0.8858743906,2024-06-04 16:15:46.271670
36.31215676,0.6149057746,-0.3814865649,0.545532465,2024-06-04 16:15:46.312157
36.35262681,0.2400768995,-0.1319557428,0.1233007237,2024-06-04 16:15:46.352627
36.39313561,-0.2026605755,0.5585815907,-0.4416722357,2024-06-04 16:15:46.393136
36.43361092,-0.5595136285,1.003316402,-0.8489907384,2024-06-04 16:15:46.433611
36.47409936,-0.8611077666,1.293459177,-1.273219824,2024-06-04 16:15:46.474099
36.51459332,-1.072556496,1.278545976,-1.473084092,2024-06-04 16:15:46.514593
36.55511249,-1.120225668,0.8294170499,-1.664826035,2024-06-04 16:15:46.555112
36.59556499,-1.016898036,0.621696651,-1.878139019,2024-06-04 16:15:46.595565
36.63604749,-1.025153637,0.343803972,-1.70823431,2024-06-04 16:15:46.636047
36.6765465,-0.8352758288,0.1869483888,-1.44032824,2024-06-04 16:15:46.676547
36.71699259,-0.5469971299,0.03142437339,-1.247121572,2024-06-04 16:15:46.716993
36.75752686,-0.3352820873,0.01997311972,-0.8077129126,2024-06-04 16:15:46.757527
36.7980028,-0.06617759913,-0.3058550358,-0.2885449827,2024-06-04 16:15:46.798003
36.83849113,0.2938711643,-0.1054580659,0.04260931909,2024-06-04 16:15:46.838491
36.87899077,0.4035901725,0.06284874678,0.2846835256,2024-06-04 16:15:46.878991
36.91947806,0.3322195411,-0.1118494645,0.3387441039,2024-06-04 16:15:46.919478
36.95991327,0.3071865737,-0.2736317217,0.5447335243,2024-06-04 16:15:46.959913
37.00040155,0.4499278069,-0.4232969582,0.7764217257,2024-06-04 16:15:47.000402
37.04088988,0.6516563296,-0.6054518223,0.9569787383,2024-06-04 16:15:47.040890
37.08139447,0.678553462,-0.2813546658,1.190397859,2024-06-04 16:15:47.081394
37.12191421,0.4824174047,-0.4235632718,1.427678585,2024-06-04 16:15:47.121914
37.16240244,0.565638721,-0.7445979118,1.625279307,2024-06-04 16:15:47.162402
37.20289499,0.7347444892,-1.072955966,1.516891837,2024-06-04 16:15:47.202895
37.2433827,0.9344756603,-1.224219084,1.374683261,2024-06-04 16:15:47.243383
37.28386681,0.9059807062,-0.2065220475,1.203180671,2024-06-04 16:15:47.283867
37.32435629,0.6870753169,-0.1027949899,0.918364048,2024-06-04 16:15:47.324356
37.36485738,0.4185034335,-0.2805557549,0.594533205,2024-06-04 16:15:47.364857
37.4053377,0.0352858454,-0.3673722446,0.1704372764,2024-06-04 16:15:47.405338
37.44581681,-0.3781577349,0.1310236603,-0.2999962568,2024-06-04 16:15:47.445817
37.48630671,-0.7942643762,0.8701622486,-0.8045172691,2024-06-04 16:15:47.486307
37.52680546,-1.004914165,1.095991611,-1.15710938,2024-06-04 16:15:47.526805
37.56729561,-1.15085113,1.173620462,-1.42541492,2024-06-04 16:15:47.567296
37.60776046,-1.172954679,0.747926712,-1.571351886,2024-06-04 16:15:47.607760
37.64826332,-1.012104511,0.2892107666,-1.727142215,2024-06-04 16:15:47.648263
37.6887729,-0.8653686643,0.01784265228,-1.59318912,2024-06-04 16:15:47.688773
37.72923863,-0.7572475076,0.04820179567,-1.353245378,2024-06-04 16:15:47.729239
37.76968113,-0.6836133003,0.3549889028,-1.077749491,2024-06-04 16:15:47.769681
37.81016968,-0.6196992993,0.1957365721,-0.8180989623,2024-06-04 16:15:47.810170
37.85065827,-0.2492645234,-0.1524614692,-0.3822855055,2024-06-04 16:15:47.850658
37.89114691,0.1860163212,-0.156456098,0.06977276504,2024-06-04 16:15:47.891147
37.93164889,0.4456668794,0.3728315532,0.3824186623,2024-06-04 16:15:47.931649
37.97215759,0.5501928329,0.2846835256,0.4545882046,2024-06-04 16:15:47.972158
38.01266483,0.4621779919,-0.233951807,0.4820179343,2024-06-04 16:15:48.012665
38.05313832,0.6489931941,-0.3673722446,0.5844134688,2024-06-04 16:15:48.053138
38.09362905,0.8077129126,-0.6962629557,0.771894455,2024-06-04 16:15:48.093629
38.13411264,0.852452755,-0.5897396207,1.111038089,2024-06-04 16:15:48.134113
38.17459358,0.7137061357,-0.376160413,1.415694714,2024-06-04 16:15:48.174594
38.21508066,0.7797505856,-0.5977289081,1.722082376,2024-06-04 16:15:48.215081
38.25558228,0.9302147627,-0.9368724227,1.599713683,2024-06-04 16:15:48.255582
38.29606905,0.8407351375,-0.7432663441,1.362965703,2024-06-04 16:15:48.296069
38.3365653,0.7443315983,-0.2725664973,1.047789812,2024-06-04 16:15:48.336565
38.37706072,0.4861457348,0.1153114736,0.9101084471,2024-06-04 16:15:48.377061
38.41757072,0.256588012,0.2114487588,0.6565830112,2024-06-04 16:15:48.417571
38.45806931,-0.05232957378,0.07802832127,0.1776276082,2024-06-04 16:15:48.458069
38.49854186,-0.4071853161,0.352858454,-0.4861457348,2024-06-04 16:15:48.498542
38.5390152,-0.7444647551,0.6208977103,-0.968829453,2024-06-04 16:15:48.539015
38.57951275,-0.9812127948,1.022224188,-1.319557428,2024-06-04 16:15:48.579513
38.61996994,-1.008376241,0.9785496593,-1.570819259,2024-06-04 16:15:48.619970
38.66043915,-1.038469076,0.7886719108,-1.684000254,2024-06-04 16:15:48.660439
38.70090994,-0.9796149135,0.2790910602,-1.651244283,2024-06-04 16:15:48.700910
38.74142671,-1.110904932,-0.1828206182,-1.509834647,2024-06-04 16:15:48.741427
38.78194384,-1.200917125,-0.2746969759,-1.312100768,2024-06-04 16:15:48.781944
38.82241723,-1.127682328,-0.2344844192,-1.002650619,2024-06-04 16:15:48.822417
38.8629216,-0.9567124248,-0.3002625704,-0.6203650832,2024-06-04 16:15:48.862922
38.90337551,-0.4833494723,-0.5449998379,-0.1599181145,2024-06-04 16:15:48.903376
38.94385509,-0.03715000302,-0.3551220596,0.2151770741,2024-06-04 16:15:48.943855
38.98438363,0.2038589716,-0.1854836941,0.332885325,2024-06-04 16:15:48.984384
39.02486197,0.4248948097,-0.08149032295,0.4599143565,2024-06-04 16:15:49.024862
39.06536056,0.6106448174,-0.173233524,0.6432675719,2024-06-04 16:15:49.065361
39.10584389,0.7539186478,0.140877068,0.7721607685,2024-06-04 16:15:49.105844
39.14631306,0.9600412846,0.01384802908,1.010240316,2024-06-04 16:15:49.146313
39.18681879,1.056444883,0.0181089621,1.280410051,2024-06-04 16:15:49.186819
39.22729301,1.197721362,-0.2832188308,1.554707646,2024-06-04 16:15:49.227293
39.26789077,1.309837103,-0.4999937415,1.375482202,2024-06-04 16:15:49.267891
39.30828499,1.437132478,-0.7122414112,1.280410051,2024-06-04 16:15:49.308285
39.34877337,1.196922421,-0.1129147038,1.172022581,2024-06-04 16:15:49.348773
39.38924004,0.8817466497,0.004260932095,0.9125052094,2024-06-04 16:15:49.389240
39.42972822,0.5499265194,-0.4355471432,0.6989260316,2024-06-04 16:15:49.429728
39.47021098,0.1410102248,-0.4536561072,0.3027924895,2024-06-04 16:15:49.470211
39.51069915,-0.2846835256,-0.1271621883,-0.1244991124,2024-06-04 16:15:49.510699
39.55117681,-0.574693203,0.492537111,-0.7216953635,2024-06-04 16:15:49.551177
39.59167014,-0.9154346585,0.7465952039,-1.091597557,2024-06-04 16:15:49.591670
39.63215832,-1.247254729,0.8515206575,-1.329011321,2024-06-04 16:15:49.632158
39.67266691,-1.444455981,0.6350120306,-1.512497783,2024-06-04 16:15:49.672667
39.71312718,-1.512897253,0.2612484097,-1.699712396,2024-06-04 16:15:49.713127
39.75364941,-1.373618007,0.009054481052,-1.649380207,2024-06-04 16:15:49.753649
39.79413921,-1.233140349,-0.1577876359,-1.202648044,2024-06-04 16:15:49.794139
39.83465457,-1.023822069,-0.02876129188,-1.075352788,2024-06-04 16:15:49.834655
39.87512077,-0.8443303108,0.1193061024,-0.730483532,2024-06-04 16:15:49.875121
39.91557598,-0.5387415886,-0.204924196,-0.3676385581,2024-06-04 16:15:49.915576
39.95604822,-0.1065233052,-0.3199693561,-0.007190322969,2024-06-04 16:15:49.956048
39.99656957,0.1868152469,-0.06258244067,0.2820204496,2024-06-04 16:15:49.996570
40.03705285,0.3612471521,0.2037258148,0.4125114977,2024-06-04 16:15:50.037053
40.07759499,0.6870753169,0.2298240215,0.5348801613,2024-06-04 16:15:50.077595
40.11805134,0.9275516272,0.0713706091,0.6517894268,2024-06-04 16:15:50.118051
40.15851973,1.096391082,0.3227656186,0.8286181092,2024-06-04 16:15:50.158520
40.19901676,1.125684977,0.12117026,1.07655108,2024-06-04 16:15:50.199017
40.23950504,1.150318503,-0.1940055639,1.293192863,2024-06-04 16:15:50.239505
40.27996827,1.017297506,-0.5671034455,1.413297892,2024-06-04 16:15:50.279968
40.32045608,0.8769530654,-0.4749607742,1.487597942,2024-06-04 16:15:50.320456
40.36094134,0.9674978852,-0.7275541425,1.440727711,2024-06-04 16:15:50.360941
40.40142822,0.8508548737,-0.6861432195,1.247920513,2024-06-04 16:15:50.401428
40.44192488,0.7118419409,-0.9659000635,0.9172987938,2024-06-04 16:15:50.441925
40.48242035,0.4464657903,-0.6248922944,0.6057181358,2024-06-04 16:15:50.482420
40.52292556,0.007057168987,-0.1862826198,0.1757634431,2024-06-04 16:15:50.522926
40.56341035,-0.4809527099,0.3627118468,-0.3071865737,2024-06-04 16:15:50.563410
40.60388207,-0.8286181092,0.6549851298,-0.7933322787,2024-06-04 16:15:50.603882
40.64436733,-1.093062282,0.7900034189,-1.191196799,2024-06-04 16:15:50.644367
40.68481868,-1.249118924,0.7889382243,-1.451246858,2024-06-04 16:15:50.684819
40.72532457,-1.222754359,0.5146406889,-1.554041862,2024-06-04 16:15:50.725325
40.76584191,-1.230477333,0.06338136643,-1.647516012,2024-06-04 16:15:50.765842
40.806324,-1.215297699,-0.002130466048,-1.55457449,2024-06-04 16:15:50.806324
40.84681931,-0.979881227,-0.000266308256,-1.294524431,2024-06-04 16:15:50.846819
40.88729181,-0.8211615086,0.2109161317,-1.000253797,2024-06-04 16:15:50.887292
40.92777009,-0.6790860295,0.2636451721,-0.5844134688,2024-06-04 16:15:50.927770
40.96825686,-0.3741630912,-0.2267614752,-0.2142449915,2024-06-04 16:15:50.968257
41.00877431,-0.0355521515,-0.2816209793,0.1342193633,2024-06-04 16:15:51.008774
41.04928744,0.1671084315,-0.3287575543,0.3430050313,2024-06-04 16:15:51.049287
41.0897754,0.3386109471,-0.1788259894,0.4772244096,2024-06-04 16:15:51.089775
41.13026337,0.6460638046,-0.1532603949,0.5745600462,2024-06-04 16:15:51.130263
41.17075139,0.8929315805,-0.06577813625,0.7524539828,2024-06-04 16:15:51.170751
41.21123936,0.9435301423,-0.09666989744,1.10105145,2024-06-04 16:15:51.211239
41.25172738,1.002117991,-0.0487344116,1.338465333,2024-06-04 16:15:51.251727
41.29219754,0.776288569,-0.4408733249,1.552843451,2024-06-04 16:15:51.292198
41.3326891,0.7110430598,-0.7034532428,1.666557074,2024-06-04 16:15:51.332689
41.37317931,0.7395380139,-1.059640527,1.554441333,2024-06-04 16:15:51.373179
41.41364441,0.7517881989,-0.4315525293,1.248985767,2024-06-04 16:15:51.413644
41.45412212,0.572030127,-0.3849485815,1.085605621,2024-06-04 16:15:51.454122
41.4946278,0.420101285,-0.4509930313,1.028881907,2024-06-04 16:15:51.494628
41.53510999,0.1713693589,-0.7376738787,0.5143743753,2024-06-04 16:15:51.535110
41.5756153,-0.1941387206,-0.1705704331,0.05565842614,2024-06-04 16:15:51.575615
41.61608921,-0.5850792527,0.6097127795,-0.5439345837,2024-06-04 16:15:51.616089
41.65657676,-1.024354696,1.018229604,-0.9938623905,2024-06-04 16:15:51.656577
41.69707139,-1.303179502,1.15790832,-1.330609202,2024-06-04 16:15:51.697071
41.73754103,-1.350981832,0.9199618697,-1.487731099,2024-06-04 16:15:51.737541
41.77805525,-1.33526957,0.7633726001,-1.616624236,2024-06-04 16:15:51.778055
41.81854374,-1.278146505,0.2431394309,-1.726076961,2024-06-04 16:15:51.818544
41.85903707,-1.222221732,0.06204982474,-1.527677298,2024-06-04 16:15:51.859037
41.89953223,-0.9729571939,0.04953333735,-1.243126988,2024-06-04 16:15:51.899532
41.93997478,-0.8744231462,0.1683068126,-0.9403344393,2024-06-04 16:15:51.939975
41.98046296,-0.5776225924,-0.03089175746,-0.4792217016,2024-06-04 16:15:51.980463
42.02095124,-0.1962691844,-0.1721682847,-0.06391397864,2024-06-04 16:15:52.020951
42.06143941,0.0573894307,-0.1025286764,0.2599168718,2024-06-04 16:15:52.061439
42.10192697,0.2659088075,0.000266308256,0.3901416063,2024-06-04 16:15:52.101927
42.14243848,0.5053198934,0.009587096982,0.560978353,2024-06-04 16:15:52.142438
42.18293645,0.675357759,0.145404309,0.7489919662,2024-06-04 16:15:52.182936
42.22342468,0.7406032681,0.1472684592,0.9303479195,2024-06-04 16:15:52.223425
42.26389624,0.8460613489,-0.1065233052,1.241795421,2024-06-04 16:15:52.263896
42.3043865,0.8705616593,-0.374296248,1.403977156,2024-06-04 16:15:52.304386
42.34489072,1.012503982,-0.4805532396,1.624480367,2024-06-04 16:15:52.344891
42.3853629,1.093728065,-0.7520545125,1.504907966,2024-06-04 16:15:52.385363
42.42593431,1.064966679,-0.6738930345,1.158440948,2024-06-04 16:15:52.425934
42.46642264,0.7374075651,-0.3479317427,1.057110667,2024-06-04 16:15:52.466423
42.50681707,0.502923131,0.005858781748,0.9559134841,2024-06-04 16:15:52.506817
42.54737712,0.3391435742,-0.2789579034,0.7130403519,2024-06-04 16:15:52.547377
42.58781822,0.06644391268,-0.3913399875,0.2870802879,2024-06-04 16:15:52.587818
42.62830051,-0.2649767101,-0.007190322969,-0.2432725877,2024-06-04 16:15:52.628301
42.66879379,-0.6367430687,0.6019898057,-0.8255556226,2024-06-04 16:15:52.668794
42.70928212,-0.8129059672,1.325416207,-1.303046346,2024-06-04 16:15:52.709282
42.74977056,-0.7729597092,1.440994024,-1.570286632,2024-06-04 16:15:52.749771
42.79025889,-0.5829487443,1.04912138,-1.782800674,2024-06-04 16:15:52.790259
42.83074728,-0.3259612918,0.5465977192,-1.889590263,2024-06-04 16:15:52.830747
42.87123514,-0.1880136281,0.3304885328,-1.94911015,2024-06-04 16:15:52.871235
42.91172343,-0.142208606,0.1930734813,-2.008496761,2024-06-04 16:15:52.911723
42.95218363,-0.09693620354,-0.06098458916,-1.497318149,2024-06-04 16:15:52.952184
42.99268384,-0.1991985738,-0.3047898114,-1.077216864,2024-06-04 16:15:52.992684
43.0331853,-0.1624480337,-0.7018554211,-0.5761579275,2024-06-04 16:15:53.033185
43.07366733,0.05073172227,-0.7682993412,0.005326164886,2024-06-04 16:15:53.073667
43.11415561,0.229424566,-0.5252930522,0.423430115,2024-06-04 16:15:53.114156
43.15463686,0.3298227787,-0.1884130985,0.5953320861,2024-06-04 16:15:53.154637
43.19514822,0.3620460629,-0.3868127465,0.7087793946,2024-06-04 16:15:53.195148
43.23564181,0.3647091687,-0.5370106101,0.9007876515,2024-06-04 16:15:53.235642
43.27612639,0.3631113172,-0.4419385493,1.292393923,2024-06-04 16:15:53.276126
43.31659796,0.511977613,-0.5340812206,1.535533428,2024-06-04 16:15:53.316598
43.35708368,0.5547201037,-0.4251611233,1.714492559,2024-06-04 16:15:53.357084
43.39761863,0.7533860803,-0.6552514434,1.751109958,2024-06-04 16:15:53.397619
43.43807452,0.9627043605,-1.01463449,1.678540945,2024-06-04 16:15:53.438075
43.47856285,0.9957265854,-1.155511498,1.424482822,2024-06-04 16:15:53.478563
43.51902587,0.7648373246,-0.5021241903,1.094127417,2024-06-04 16:15:53.519026
43.55955009,0.4989285171,-0.1482005417,0.9380708337,2024-06-04 16:15:53.559550
43.60003842,0.1085206121,-0.0458050184,0.4955996573,2024-06-04 16:15:53.600038
43.64052681,-0.2964010835,0.2750964165,-0.1077216864,2024-06-04 16:15:53.640527
43.68098379,-0.657248795,0.6941324472,-0.6659038067,2024-06-04 16:15:53.680984
43.72146186,-0.9620385766,0.924222827,-1.087336659,2024-06-04 16:15:53.721462
43.76198759,-1.156976223,1.046990871,-1.460567594,2024-06-04 16:15:53.761988
43.80247301,-1.218493462,0.7617747784,-1.667222857,2024-06-04 16:15:53.802473
43.84296973,-1.15750885,0.5394073725,-1.799311757,2024-06-04 16:15:53.842970
43.88344441,-1.06696403,0.3725652397,-1.770017862,2024-06-04 16:15:53.883444
43.92391514,-0.8773525357,0.1478010863,-1.62807548,2024-06-04 16:15:53.923915
43.96438447,-0.6881405115,0.1113168523,-1.231143117,2024-06-04 16:15:53.964384
44.00490108,-0.6215634942,-0.01331541315,-0.8657681346,2024-06-04 16:15:54.004901
44.04538645,-0.4037233293,-0.3777582645,-0.2621804774,2024-06-04 16:15:54.045386
44.0858778,-0.09427312016,-0.6757571697,0.3776251078,2024-06-04 16:15:54.085878
44.12635837,0.1404775977,-0.68321383,0.8366073966,2024-06-04 16:15:54.126358
44.16684342,0.2571206093,0.02769605815,0.9380708337,2024-06-04 16:15:54.166843
44.20734098,0.2664414048,-0.01837527007,0.7641715407,2024-06-04 16:15:54.207341
44.2478403,0.2715012729,-0.0817566365,0.6744256616,2024-06-04 16:15:54.247840
44.2883229,0.5547201037,-0.1804238409,1.025153637,2024-06-04 16:15:54.288323
44.32880707,0.5765573978,-0.09161003679,1.424216509,2024-06-04 16:15:54.328807
44.36930072,0.5936011076,-0.345801264,1.70490551,2024-06-04 16:15:54.369301
44.40981624,0.8117075562,-0.3841496706,1.64844811,2024-06-04 16:15:54.409816
44.45021785,0.9712262154,-0.8101097345,1.819284797,2024-06-04 16:15:54.450218
44.49070629,1.020759583,-1.046857715,1.551511884,2024-06-04 16:15:54.490706
44.5312202,0.810642302,-0.5809514523,1.099720001,2024-06-04 16:15:54.531220
44.57173681,0.4185034335,-0.1625811905,0.7173013091,2024-06-04 16:15:54.571737
44.61221483,-0.06644391268,0.2362154275,0.2987978756,2024-06-04 16:15:54.612215
44.65269436,-0.4620448351,0.6669690013,-0.3404751122,2024-06-04 16:15:54.652694
44.69314118,-0.7378070354,0.9774844646,-0.9054480791,2024-06-04 16:15:54.693141
44.73366113,-1.011838198,1.262833714,-1.376946807,2024-06-04 16:15:54.733661
44.77417025,-1.067230344,1.266562104,-1.78093648,2024-06-04 16:15:54.774170
44.81464509,-0.9750877023,0.9713593721,-1.896514297,2024-06-04 16:15:54.814645
44.85513718,-0.8999887705,0.6419360638,-1.907965541,2024-06-04 16:15:54.855137
44.89563806,-0.8736242056,0.2995967865,-1.993849874,2024-06-04 16:15:54.895638
44.93609738,-0.8477923274,0.1605838835,-1.603308797,2024-06-04 16:15:54.936097
44.97658363,-0.7580464482,0.0005326165119,-1.126750231,2024-06-04 16:15:54.976584
45.01708322,-0.5797531009,0.03861469775,-0.6517894268,2024-06-04 16:15:55.017083
45.05757332,-0.1318225861,-0.3378120363,-0.06764229387,2024-06-04 16:15:55.057573
45.09807233,0.2462019771,-0.3234313726,0.426625818,2024-06-04 16:15:55.098072
45.13856431,0.3199693561,-0.08042509109,0.48468104,2024-06-04 16:15:55.138564
45.17904202,0.4533897936,-0.07962616533,0.4599143565,2024-06-04 16:15:55.179042
45.21952551,0.6902710199,-0.2667077184,0.4649742246,2024-06-04 16:15:55.219526
45.26001332,0.8617734909,-0.03808208182,0.7545844316,2024-06-04 16:15:55.260013
45.30050118,1.040466309,-0.1412765235,1.056311727,2024-06-04 16:15:55.300501
45.34095733,1.156177282,-0.2374138087,1.42288506,2024-06-04 16:15:55.340957
45.38148358,1.280809522,-0.4507267177,1.562164187,2024-06-04 16:15:55.381484
45.42197348,1.278945446,-0.6813496947,1.50890255,2024-06-04 16:15:55.421973
45.46246139,1.360702038,-0.9680305123,1.487597942,2024-06-04 16:15:55.462461
45.50295421,1.10810864,-1.043928385,1.358704686,2024-06-04 16:15:55.502954
45.54343952,0.5954652429,-0.5687012672,0.9588428736,2024-06-04 16:15:55.543440
45.58392165,0.158320263,-0.06710968167,0.5753589869,2024-06-04 16:15:55.583922
45.62443921,-0.3033251166,0.2085193694,0.03275591508,2024-06-04 16:15:55.624439
45.66489145,-0.756981194,0.6206313968,-0.5354127288,2024-06-04 16:15:55.664891
45.70535061,-1.12555182,0.8991898298,-1.014368176,2024-06-04 16:15:55.705351
45.74585223,-1.328878164,1.104646683,-1.437931418,2024-06-04 16:15:55.745852
45.78636749,-1.393324852,1.200251341,-1.763626456,2024-06-04 16:15:55.786367
45.82689655,-1.320888996,0.9125052094,-1.929536462,2024-06-04 16:15:55.826897
45.8673454,-1.121290922,0.234617576,-1.835529685,2024-06-04 16:15:55.867345
45.90787421,-0.9865389466,-0.009587096982,-1.454975128,2024-06-04 16:15:55.907874
45.94829254,-0.8712274432,0.06817491353,-1.287866712,2024-06-04 16:15:55.948293
45.98877842,-0.7066489458,0.2450035959,-0.8276860714,2024-06-04 16:15:55.988778
46.02930842,-0.3384777904,-0.08122401685,-0.2560553849,2024-06-04 16:15:56.029308
46.06976936,0.1013302878,-0.153793022,0.2924064696,2024-06-04 16:15:56.069769
46.11025676,0.3151758313,0.008788172156,0.5460650921,2024-06-04 16:15:56.110257
46.15074415,0.3934704363,0.1217028722,0.5777557492,2024-06-04 16:15:56.150744
46.19123358,0.5776225924,-0.03089175746,0.5479292274,2024-06-04 16:15:56.191234
46.23172171,0.7102441192,0.04314193875,0.7652367949,2024-06-04 16:15:56.231722
46.27221994,0.8082455397,-0.009054481052,0.9836095572,2024-06-04 16:15:56.272220
46.31269171,1.002650619,0.1571218669,1.353644848,2024-06-04 16:15:56.312692
46.35319973,1.12302196,-0.2155765295,1.561365247,2024-06-04 16:15:56.353200
46.39369139,1.223020673,-0.4664389193,1.594387531,2024-06-04 16:15:56.393691
46.43415702,1.379609942,-1.043928385,1.609567046,2024-06-04 16:15:56.434157
46.47464509,1.329277635,-1.269491434,1.480940223,2024-06-04 16:15:56.474645
46.51512046,0.9376713634,-1.035140157,0.9796149135,2024-06-04 16:15:56.515120
46.55564238,0.499727428,-0.4597811997,0.5074504018,2024-06-04 16:15:56.555642
46.59613296,0.07549838722,0.1597849578,0.02050573565,2024-06-04 16:15:56.596133
46.63661447,-0.3898752928,0.5298202634,-0.4999937415,2024-06-04 16:15:56.636614
46.67713337,-0.7489919662,0.9085106254,-0.96563375,2024-06-04 16:15:56.677133
46.71762176,-1.024887323,0.9330109954,-1.388398051,2024-06-04 16:15:56.717622
46.75804759,-1.263765812,0.9836095572,-1.689859033,2024-06-04 16:15:56.758048
46.79857228,-1.408504367,0.8565804958,-1.862959385,2024-06-04 16:15:56.798572
46.8390716,-1.430075288,0.5817503929,-1.853106022,2024-06-04 16:15:56.839072
46.87955999,-1.289864063,0.07882724702,-1.627809167,2024-06-04 16:15:56.879560
46.92004843,-1.036072254,0.231421873,-1.365495563,2024-06-04 16:15:56.920048
46.96049754,-0.8134385943,0.3523258269,-1.07402122,2024-06-04 16:15:56.960498
47.00098598,-0.473762393,0.3235645294,-0.5588479042,2024-06-04 16:15:57.000986
47.04147436,-0.01318225823,-0.08095771074,0.006391398143,2024-06-04 16:15:57.041474
47.08196973,0.3801550269,-0.03009283356,0.5162385702,2024-06-04 16:15:57.081970
47.1224677,0.6220960617,0.292140156,0.7143719196,2024-06-04 16:15:57.122468
47.16294775,0.6900047064,0.1898777932,0.6645722389,2024-06-04 16:15:57.162948
47.20343686,0.740070641,0.164844811,0.5934679508,2024-06-04 16:15:57.203437
47.2439216,0.675357759,-0.1625811905,0.7306166887,2024-06-04 16:15:57.243922
47.28441129,0.865501821,-0.1439396143,1.116364241,2024-06-04 16:15:57.284411
47.32491608,1.185204864,-0.5290213227,1.283073187,2024-06-04 16:15:57.324916
47.36540811,1.396653652,-0.3908073604,1.566425204,2024-06-04 16:15:57.365408
47.40589983,1.520486951,-0.8314144015,1.515027642,2024-06-04 16:15:57.405900
47.44637546,1.62807548,-1.159506202,1.382406116,2024-06-04 16:15:57.446375
47.4868729,1.345788717,-0.8372731805,1.107442856,2024-06-04 16:15:57.486873
47.52737228,0.8916000128,-0.7018554211,0.5860112906,2024-06-04 16:15:57.527372
47.56784691,0.3122464418,-0.3383446336,0.12117026,2024-06-04 16:15:57.567847
47.60832926,-0.1754971445,0.3669727743,-0.2954690158,2024-06-04 16:15:57.608329
47.64881134,-0.5792204738,0.8488575816,-0.7539186478,2024-06-04 16:15:57.648811
47.68931733,-0.8142374754,1.018495917,-1.302513719,2024-06-04 16:15:57.689317
47.72979514,-0.9157009125,1.231941938,-1.647782326,2024-06-04 16:15:57.729795
47.7702628,-0.9710930586,0.7801500559,-1.787594199,2024-06-04 16:15:57.770263
47.81075077,-0.8986572027,0.5652392507,-1.915422082,2024-06-04 16:15:57.810751
47.85123879,-0.6978607774,-0.06071828306,-1.862959385,2024-06-04 16:15:57.851239
47.8917427,-0.5986609459,-0.09720251709,-1.484269023,2024-06-04 16:15:57.891743
47.93224639,-0.4519250989,-0.05698996782,-1.454176188,2024-06-04 16:15:57.932246
47.97272275,-0.3613803089,-0.2613815665,-1.041265249,2024-06-04 16:15:57.972723
48.01321212,-0.1493989378,-0.5191679597,-0.3889431953,2024-06-04 16:15:58.013212
48.05371389,0.1617822647,-0.5782883763,0.228758797,2024-06-04 16:15:58.053714
48.09419759,0.3298227787,-0.4808195531,0.464707911,2024-06-04 16:15:58.094198
48.13468259,0.3362141848,-0.6523220539,0.5197005868,2024-06-04 16:15:58.134683
48.17515509,0.3010614812,-0.6163704395,0.6328815818,2024-06-04 16:15:58.175155
48.2156353,0.3162410557,-0.5077167153,0.8102428913,2024-06-04 16:15:58.215635
48.25612551,0.395600915,-0.5745600462,1.215963483,2024-06-04 16:15:58.256126
48.29661285,0.4714987576,-0.6592460871,1.597583175,2024-06-04 16:15:58.296613
48.33710118,0.4890751243,-0.9059807062,1.915422082,2024-06-04 16:15:58.337101
48.37760186,0.4632432163,-0.9488562942,1.900242567,2024-06-04 16:15:58.377602
48.41810822,0.6388735175,-1.24845314,1.684932351,2024-06-04 16:15:58.418108
48.45858556,0.4786891043,-0.5894733071,1.490527272,2024-06-04 16:15:58.458586
48.49904676,0.2288919389,0.01251648832,1.411966324,2024-06-04 16:15:58.499047
48.53953014,-0.0573894307,0.143540144,1.144326568,2024-06-04 16:15:58.539530
48.58001848,-0.3030588031,0.16031757,0.6006582975,2024-06-04 16:15:58.580018
48.62050686,-0.6274222732,0.4322183132,-0.008255556226,2024-06-04 16:15:58.620507
48.66099218,-0.9910661578,1.053115964,-0.625158608,2024-06-04 16:15:58.660992
48.70145488,-1.239798069,1.499848127,-1.140598297,2024-06-04 16:15:58.701455
48.74197389,-1.353112221,1.552577138,-1.468823195,2024-06-04 16:15:58.741974
48.78246332,-1.277347565,1.561897874,-1.66669023,2024-06-04 16:15:58.782463
48.82298738,-1.103448272,1.351514339,-1.859231114,2024-06-04 16:15:58.822987
48.86345124,-0.824090898,0.851254344,-1.706902742,2024-06-04 16:15:58.863451
48.90394863,-0.6846785545,0.6171693802,-1.426480174,2024-06-04 16:15:58.903949
48.94441999,-0.4966649115,0.597995162,-1.141397238,2024-06-04 16:15:58.944420
48.98492363,-0.233286038,0.4695014656,-0.680018127,2024-06-04 16:15:58.984924
49.02539301,0.1111836955,0.279889971,-0.06204982474,2024-06-04 16:15:59.025393
49.06591087,0.5045210123,0.1501978636,0.3320863843,2024-06-04 16:15:59.065911
49.10644749,0.693466723,0.2828193605,0.4197018147,2024-06-04 16:15:59.106447
49.14688082,0.7073147297,0.2106498331,0.3278254569,2024-06-04 16:15:59.146881
49.18736671,0.8013215661,0.1659100503,0.3989297748,2024-06-04 16:15:59.187367
49.22784671,0.9089100957,-0.2786915898,0.6043865681,2024-06-04 16:15:59.227847
49.26834389,1.037803292,-0.3292901516,0.9175651073,2024-06-04 16:15:59.268344
49.30884926,1.232341409,-0.6065170765,1.291861296,2024-06-04 16:15:59.308849
49.34932139,1.209705234,-0.7912018299,1.410901189,2024-06-04 16:15:59.349321
49.38980921,1.065499306,-0.7461957335,1.21356678,2024-06-04 16:15:59.389809
49.43026587,1.294124961,-1.481606007,1.468423724,2024-06-04 16:15:59.430266
49.47075353,1.090265989,-1.189865232,1.371221185,2024-06-04 16:15:59.470754
49.51124134,0.6447322965,-0.5857450366,1.210637331,2024-06-04 16:15:59.511241
49.5517415,0.176429227,-0.1001319066,0.7588453889,2024-06-04 16:15:59.551741
49.59224759,-0.2750964165,0.1637795717,0.2740311921,2024-06-04 16:15:59.592248
49.63273014,-0.6772218943,0.5817503929,-0.3934704363,2024-06-04 16:15:59.632730
49.67321181,-0.8352758288,0.799590528,-0.9789491296,2024-06-04 16:15:59.673212
49.71365634,-0.9330109954,1.033675551,-1.360169411,2024-06-04 16:15:59.713656
49.75414421,-1.166030645,1.097323179,-1.675478339,2024-06-04 16:15:59.754144
49.79468905,-1.102116704,1.003050089,-1.920215726,2024-06-04 16:15:59.794689
49.83518556,-0.909309566,0.3430050313,-1.861627817,2024-06-04 16:15:59.835186
49.87566754,-0.8643034697,0.1536598653,-1.586265087,2024-06-04 16:15:59.875668
49.91613181,-0.851254344,0.2244978547,-1.442724943,2024-06-04 16:15:59.916132
49.95659629,-0.762573719,0.1347519755,-1.201050282,2024-06-04 16:15:59.956596
49.9971153,-0.4322183132,0.03595161438,-0.6797518134,2024-06-04 16:15:59.997115
50.03763244,0.05392742157,-0.3159747422,-0.06817491353,2024-06-04 16:16:00.037632
50.07810405,0.3809539676,-0.2499302924,0.3824186623,2024-06-04 16:16:00.078104
50.11861848,0.4706998467,-0.2432725877,0.5583152771,2024-06-04 16:16:00.118618
50.15907968,0.5573831797,-0.06657706201,0.6105116606,2024-06-04 16:16:00.159080
50.19960119,0.5890738368,-0.06098458916,0.618500948,2024-06-04 16:16:00.199601
50.24008936,0.5882749557,-0.04047885537,0.8850755095,2024-06-04 16:16:00.240089
50.28057754,0.7017222643,-0.1620485783,1.172555208,2024-06-04 16:16:00.280578
50.32106572,0.8109086156,-0.1118494645,1.411966324,2024-06-04 16:16:00.321066
50.36154301,1.038868546,-0.374296248,1.532603979,2024-06-04 16:16:00.361543
50.4020102,1.151916385,-0.6491263509,1.503310084,2024-06-04 16:16:00.402010
50.4425002,1.165498137,-0.6738930345,1.515293956,2024-06-04 16:16:00.442500
50.48299186,0.9102416039,-0.5801525116,1.390129089,2024-06-04 16:16:00.482992
50.52348066,0.605052352,-0.5724295974,0.9865389466,2024-06-04 16:16:00.523481
50.56395368,0.1444722265,0.0758978501,0.4394086301,2024-06-04 16:16:00.563954
50.60443468,-0.3560541272,0.6504579186,-0.1364829838,2024-06-04 16:16:00.604435
50.64492171,-0.6671021581,0.9878704548,-0.7661688328,2024-06-04 16:16:00.644922
50.68540973,-0.8043841124,1.154179931,-1.230876803,2024-06-04 16:16:00.685410
50.7258953,-0.912771523,1.219159245,-1.637396336,2024-06-04 16:16:00.725895
50.76641233,-0.8706948161,1.317160606,-1.813159704,2024-06-04 16:16:00.766412
50.80692645,-0.666303277,1.084540367,-2.162689447,2024-06-04 16:16:00.806926
50.84738952,-0.5267577171,0.2726996541,-2.117949486,2024-06-04 16:16:00.847390
50.88787671,-0.467903614,0.004793548491,-1.612363338,2024-06-04 16:16:00.887877
50.92832957,-0.3829512596,0.2114487588,-1.404909253,2024-06-04 16:16:00.928330
50.96881395,-0.2905423045,0.1091863886,-0.9395354986,2024-06-04 16:16:00.968814
51.00935046,-0.08002562821,-0.1822880059,-0.3908073604,2024-06-04 16:16:01.009350
51.04983843,0.1788259894,-0.4978632927,0.05246272683,2024-06-04 16:16:01.049838
51.09032723,0.3436708152,-0.2267614752,0.3765598834,2024-06-04 16:16:01.090327
51.13081681,0.5770899653,-0.1115831584,0.6022561193,2024-06-04 16:16:01.130817
51.17130546,0.7733591795,-0.1524614692,0.5039883852,2024-06-04 16:16:01.171305
51.2117202,0.8127728105,-0.4129109383,0.4114462435,2024-06-04 16:16:01.211720
51.25223342,0.9893351793,-0.3569862247,0.7087793946,2024-06-04 16:16:01.252233
51.29275462,0.9943950176,-0.2571206093,1.126750231,2024-06-04 16:16:01.292755
51.33324926,0.9515193701,-0.5348801613,1.608501911,2024-06-04 16:16:01.333249
51.37373212,1.242993832,-0.810642302,1.706769586,2024-06-04 16:16:01.373732
51.41420702,1.437665105,-0.9105079174,1.550979257,2024-06-04 16:16:01.414207
51.45468978,1.437398791,-1.025819421,1.405841231,2024-06-04 16:16:01.454690
51.49520738,1.086271405,-0.9701609612,1.106910229,2024-06-04 16:16:01.495207
51.5356752,0.4770912528,-0.4312862158,0.6794854999,2024-06-04 16:16:01.535675
51.57616686,-0.1392792165,0.03248960897,0.2700365782,2024-06-04 16:16:01.576167
51.61666353,-0.6828143597,0.4332835376,-0.2509955168,2024-06-04 16:16:01.616664
51.65713551,-1.084274054,0.7196980715,-0.7800168991,2024-06-04 16:16:01.657136
51.69758087,-1.413564205,0.9537830353,-1.195457816,2024-06-04 16:16:01.697581
51.73809556,-1.53340292,1.155511498,-1.482404947,2024-06-04 16:16:01.738096
51.77859374,-1.439662457,1.015300274,-1.689859033,2024-06-04 16:16:01.778594
51.81908072,-1.269091964,0.4473978579,-1.761762261,2024-06-04 16:16:01.819081
51.85959244,-1.153247952,-0.1300915778,-1.661896706,2024-06-04 16:16:01.859592
51.90009275,-1.005713105,-0.07323476672,-1.414229989,2024-06-04 16:16:01.900093
51.94050447,-0.842199862,0.2748301327,-1.165098667,2024-06-04 16:16:01.940504
51.98103431,-0.6892057657,-0.02157096937,-0.6603113413,2024-06-04 16:16:01.981034
52.02151285,-0.2820204496,-0.1849510819,-0.02077204362,2024-06-04 16:16:02.021513
52.06201848,0.08748225868,-0.1950708032,0.4396749437,2024-06-04 16:16:02.062018
52.102494,0.2605826259,0.2316881865,0.6384740472,2024-06-04 16:16:02.102494
52.1429929,0.4248948097,-0.3679048419,0.5974625945,2024-06-04 16:16:02.142993
52.1835528,0.5087819099,0.4471315742,0.7178338766,2024-06-04 16:16:02.183553
52.22404056,0.7078473568,-0.2057231218,0.8869396448,2024-06-04 16:16:02.224041
52.26446118,0.8556483984,0.2940043211,1.1994524,2024-06-04 16:16:02.264461
52.30493092,0.9318125844,-0.1535267085,1.60690403,2024-06-04 16:16:02.304931
52.34541973,1.12302196,-0.4126446545,1.523283243,2024-06-04 16:16:02.345420
52.38592447,1.195058346,-0.8239577413,1.468956351,2024-06-04 16:16:02.385924
52.42643004,1.213433623,-1.102516174,1.491592526,2024-06-04 16:16:02.426430
52.4669178,0.9768186808,-0.9499215484,1.321954131,2024-06-04 16:16:02.466918
52.50739092,0.553388536,-0.4741618633,0.9716256857,2024-06-04 16:16:02.507391
52.54785697,0.1636464298,-0.1681736708,0.4165061116,2024-06-04 16:16:02.547857
52.58834655,-0.2194380015,0.1336867511,-0.1062569916,2024-06-04 16:16:02.588347
52.62883983,-0.6396724582,0.5489944816,-0.727820456,2024-06-04 16:16:02.628840
52.6693277,-0.8770862222,0.8698959351,-1.194925189,2024-06-04 16:16:02.669328
52.70979884,-1.033941746,0.9982565045,-1.564694166,2024-06-04 16:16:02.709799
52.75028665,-1.075752258,0.7830794454,-1.775610328,2024-06-04 16:16:02.750287
52.79077447,-1.030213475,0.3722989559,-1.931933284,2024-06-04 16:16:02.790774
52.83126228,-1.096524239,-0.3753614724,-1.620618939,2024-06-04 16:16:02.831262
52.87175009,-1.149253249,-0.1086537689,-1.304910421,2024-06-04 16:16:02.871750
52.91229181,-1.03873539,0.07989247888,-1.199985027,2024-06-04 16:16:02.912292
52.95273994,-0.7588453889,0.04154408723,-0.8210283518,2024-06-04 16:16:02.952740
52.99323301,-0.3720326424,-0.160983339,-0.2131797522,2024-06-04 16:16:02.993233
53.03373577,-0.01051917579,-0.3268933892,0.1917419434,2024-06-04 16:16:03.033736
53.07421035,0.1966686398,-0.1876141727,0.4423380196,2024-06-04 16:16:03.074210
53.11471452,0.3732310236,-0.1059906855,0.5569837093,2024-06-04 16:16:03.114715
53.1551877,0.5667039752,-0.09666989744,0.6472622156,2024-06-04 16:16:03.155188
53.19567952,0.7027874589,-0.07216953486,0.8238245845,2024-06-04 16:16:03.195680
53.23616754,0.8266208172,-0.1442059278,1.132875323,2024-06-04 16:16:03.236168
53.27666087,0.9730903506,-0.2954690158,1.451113701,2024-06-04 16:16:03.276661
53.31714686,1.040466309,-0.1761629134,1.668421268,2024-06-04 16:16:03.317147
53.35762811,1.142861843,-0.5535216928,1.551778197,2024-06-04 16:16:03.357628
53.39812665,1.357240081,-0.9882699251,1.50597322,2024-06-04 16:16:03.398127
53.43861514,1.208107352,-1.097190022,1.304644108,2024-06-04 16:16:03.438615
53.47910316,0.6212971807,-0.6195661426,1.052317023,2024-06-04 16:16:03.479103
53.51957764,0.09813459218,0.05858781561,0.6802844405,2024-06-04 16:16:03.519578
53.56006561,-0.3944025338,0.4628437459,0.01731003635,2024-06-04 16:16:03.560066
53.60055358,-0.759378016,0.7918676138,-0.6227618456,2024-06-04 16:16:03.600554
53.64104134,-0.9926640391,0.8832113147,-1.18240869,2024-06-04 16:16:03.641041
53.68152785,-1.098388433,1.110771775,-1.600645781,2024-06-04 16:16:03.681528
53.72201431,-1.097323179,1.349916577,-1.858964801,2024-06-04 16:16:03.722014
53.76251228,-0.80864501,0.8608414531,-2.052437782,2024-06-04 16:16:03.762512
53.8030177,-0.750323534,0.1619154215,-1.845915675,2024-06-04 16:16:03.803018
53.84349842,-0.7165023685,0.03701684624,-1.538862228,2024-06-04 16:16:03.843498
53.88399035,-0.6018566489,0.1472684592,-1.412632108,2024-06-04 16:16:03.883990
53.92448978,-0.5134423375,-0.01225017942,-1.095059514,2024-06-04 16:16:03.924490
53.96497014,-0.2998631001,-0.2376801223,-0.3450023532,2024-06-04 16:16:03.964970
54.00545462,0.07629731297,-0.5814840794,0.2215684652,2024-06-04 16:16:04.005455
54.04594124,0.3617797792,-0.3295564651,0.6177020073,2024-06-04 16:16:04.045941
54.08643207,0.4717650712,0.08868064731,0.7394048572,2024-06-04 16:16:04.086432
54.12690712,0.5146406889,-0.3990629315,0.3882774413,2024-06-04 16:16:04.126907
54.16739645,0.5360785127,-0.3644428551,0.469235152,2024-06-04 16:16:04.167396
54.20788962,0.7501903772,-0.3977313936,1.097589493,2024-06-04 16:16:04.207890
54.24837754,0.7485924959,-0.4227643609,1.476945639,2024-06-04 16:16:04.248378
54.28886895,0.9240896702,-0.5247604251,1.74977839,2024-06-04 16:16:04.288869
54.32936473,1.216629267,-0.7789516449,1.78093648,2024-06-04 16:16:04.329365
54.36985296,1.388131738,-0.9794817567,1.780403852,2024-06-04 16:16:04.369853
54.41034118,1.121690392,-1.050586104,1.609567046,2024-06-04 16:16:04.410341
54.45077582,0.4691019952,-0.5426030755,1.030746102,2024-06-04 16:16:04.450776
54.49126405,0.01105179265,-0.2621804774,0.5418041348,2024-06-04 16:16:04.491264
54.53178207,-0.3821523488,0.2066552043,0.1022623703,2024-06-04 16:16:04.531782
54.57228723,-0.7394048572,0.7391385436,-0.5215647221,2024-06-04 16:16:04.572287
54.6127765,-0.9817453623,1.189865232,-1.051385045,2024-06-04 16:16:04.612777
54.65326254,-1.048588753,1.148587465,-1.438464046,2024-06-04 16:16:04.653263
54.69371155,-1.049920321,1.12967968,-1.669353247,2024-06-04 16:16:04.693712
54.7342115,-0.9428643584,1.011039257,-1.864024639,2024-06-04 16:16:04.734212
54.77471087,-0.8864070177,0.4809527099,-1.839790583,2024-06-04 16:16:04.774711
54.81520046,-0.8973256946,-0.03115806542,-1.450714231,2024-06-04 16:16:04.815200
54.85571301,-0.8035851717,0.04979964346,-1.316894293,2024-06-04 16:16:04.855713
54.89620759,-0.6774882078,0.2428731322,-0.9520519972,2024-06-04 16:16:04.896208
54.93667514,-0.4037233293,-0.1785596907,-0.5628424883,2024-06-04 16:16:04.936675
54.97720207,0.008921326138,-0.2067883611,0.03408745676,2024-06-04 16:16:04.977202
55.01767155,0.2555227578,-0.2118482143,0.3230319023,2024-06-04 16:16:05.017672
55.05813811,0.429155767,-0.3431381881,0.4894745648,2024-06-04 16:16:05.058138
55.09864764,0.568834424,-0.2853493094,0.5995930433,2024-06-04 16:16:05.098648
55.1391366,0.7395380139,-0.357518822,0.6683005691,2024-06-04 16:16:05.139137
55.17961983,0.8348763585,-0.2906754613,1.047257185,2024-06-04 16:16:05.179620
55.22010796,0.8796161413,-0.3002625704,1.353378534,2024-06-04 16:16:05.220108
55.26059613,0.9541825056,-0.4627105892,1.677475691,2024-06-04 16:16:05.260596
55.30108426,1.168161154,-0.855914712,1.695850968,2024-06-04 16:16:05.301084
55.34155415,1.28959775,-0.9102416039,1.53340292,2024-06-04 16:16:05.341554
55.38206316,1.144459724,-1.616357923,1.469222665,2024-06-04 16:16:05.382063
55.42253228,0.590139091,-0.6840127707,1.153647423,2024-06-04 16:16:05.422532
55.4630204,0.1548582464,0.001597849536,0.8137048483,2024-06-04 16:16:05.463020
55.50352915,-0.2455362082,0.1965354979,0.4157072008,2024-06-04 16:16:05.503529
55.54404702,-0.641802907,0.4436695576,-0.1692388952,2024-06-04 16:16:05.544047
55.58449103,-1.031811357,0.8531184793,-0.7485924959,2024-06-04 16:16:05.584491
55.62499348,-1.217428207,1.116364241,-1.194126248,2024-06-04 16:16:05.624993
55.66547702,-1.246455789,1.193593621,-1.528742552,2024-06-04 16:16:05.665477
55.70594051,-1.154046774,0.7500572205,-1.81289351,2024-06-04 16:16:05.705941
55.74647827,-1.012104511,0.2556559145,-1.95576787,2024-06-04 16:16:05.746478
55.78695785,-1.10185039,-0.1455374658,-1.608635068,2024-06-04 16:16:05.786958
55.82741593,-1.061637878,-0.1444722265,-1.407305956,2024-06-04 16:16:05.827416
55.86792832,-1.062969446,0.006125089712,-1.191196799,2024-06-04 16:16:05.867928
55.9084216,-0.8717600703,-0.08601756394,-0.7485924959,2024-06-04 16:16:05.908422
55.94887895,-0.4122451842,-0.3583177626,-0.2563216984,2024-06-04 16:16:05.948879
55.98936718,-0.0171768833,-0.24753353,0.24234052,2024-06-04 16:16:05.989367
56.02985546,0.1881467849,-0.1708367467,0.5503259897,2024-06-04 16:16:06.029855
56.07034369,0.3724320829,-0.1364829838,0.6874747872,2024-06-04 16:16:06.070344
56.11083134,0.4667052329,0.07509893179,0.7212958932,2024-06-04 16:16:06.110831
56.15131947,0.6196992993,-0.1174419373,0.7966611385,2024-06-04 16:16:06.151319
56.1918278,0.7643046975,0.018907886,1.213034153,2024-06-04 16:16:06.191828
56.23231592,0.9168993235,-0.1972012669,1.555772781,2024-06-04 16:16:06.232316
56.27279181,1.084939837,0.003462007269,1.793719292,2024-06-04 16:16:06.272792
56.31332077,1.1670959,-0.6174356937,1.535267115,2024-06-04 16:16:06.313321
56.35378994,1.389463305,-0.9187634587,1.260969639,2024-06-04 16:16:06.353790
56.39434665,1.340728879,-1.145924449,1.252181411,2024-06-04 16:16:06.394347
56.4347615,0.9501878619,-0.8457950354,0.9034507871,2024-06-04 16:16:06.434762
56.47525014,0.5603125691,-0.2784252763,0.3728315532,2024-06-04 16:16:06.475250
56.51575285,0.06671021879,0.2745638192,-0.1476679295,2024-06-04 16:16:06.515753
56.55624504,-0.4082505703,0.5665708184,-0.5442008972,2024-06-04 16:16:06.556245
56.59673118,-0.7924002409,0.637408793,-1.010373473,2024-06-04 16:16:06.596731
56.6372177,-1.207574844,0.7314156294,-1.486665845,2024-06-04 16:16:06.637218
56.67770978,-1.337932706,1.026485205,-1.566558361,2024-06-04 16:16:06.677710
56.71814322,-1.35604167,0.5652392507,-1.703707099,2024-06-04 16:16:06.718143
56.75865249,-1.297320724,0.3597824574,-1.820616364,2024-06-04 16:16:06.758652
56.79917363,-1.277613878,0.009853405878,-1.809431434,2024-06-04 16:16:06.799174
56.83966218,-1.029414535,-0.1311568171,-1.332473397,2024-06-04 16:16:06.839662
56.88015072,-0.8595098853,-0.4525908828,-1.067363501,2024-06-04 16:16:06.880151
56.92063936,-0.5925358534,0.06764229387,-0.4366123974,2024-06-04 16:16:06.920639
56.96112926,-0.1219691783,-0.1705704331,0.05033225939,2024-06-04 16:16:06.961129
57.00160811,-0.1158440933,-0.3620460629,0.2673735023,2024-06-04 16:16:07.001608
57.04212348,0.1961360276,-0.359382987,0.5918700695,2024-06-04 16:16:07.042123
57.08266405,0.4829500318,-0.5740274191,0.7734923363,2024-06-04 16:16:07.082664
57.12306874,0.5579158068,0.0181089621,0.9569787383,2024-06-04 16:16:07.123069
57.16355301,0.7139724493,0.0330222249,0.8477923274,2024-06-04 16:16:07.163553
57.20403582,0.9014534354,-0.1649779677,1.302513719,2024-06-04 16:16:07.204036
57.24453145,0.9491226077,-0.2022611201,1.524614811,2024-06-04 16:16:07.244531
57.28502863,0.9496552348,-0.4280905128,1.868818164,2024-06-04 16:16:07.285029
57.32552087,1.207574844,-1.073488593,1.887992382,2024-06-04 16:16:07.325521
57.36602337,1.245923162,-1.386800289,1.430874228,2024-06-04 16:16:07.366023
57.4064929,1.024221539,-1.419556141,1.165631294,2024-06-04 16:16:07.406493
57.44699822,0.4675041437,-0.4390091598,0.8461945057,2024-06-04 16:16:07.446998
57.48747535,-0.1744319052,0.06977276504,0.3635107577,2024-06-04 16:16:07.487475
57.5279654,-0.7540518045,0.753519237,-0.2549901605,2024-06-04 16:16:07.527965
57.56849207,-1.005979419,0.9982565045,-0.6797518134,2024-06-04 16:16:07.568492
57.60895879,-1.270157218,1.043262601,-1.095059514,2024-06-04 16:16:07.608959
57.64947431,-1.391993284,1.03873539,-1.376680493,2024-06-04 16:16:07.649474
57.68989415,-1.389063835,1.053648591,-1.673880577,2024-06-04 16:16:07.689894
57.7303827,-1.358438373,0.6153052449,-1.972545266,2024-06-04 16:16:07.730383
57.77089332,-1.304510951,-0.1463363916,-1.951773167,2024-06-04 16:16:07.770893
57.81137421,-0.9788159728,0.02636451647,-1.696516752,2024-06-04 16:16:07.811374
57.85186468,-0.8651023507,0.09001219273,-1.387599111,2024-06-04 16:16:07.851865
57.89238671,-0.523029387,0.1672415882,-0.5194342732,2024-06-04 16:16:07.892387
57.93285311,-0.1611164957,-0.243006289,0.1848179251,2024-06-04 16:16:07.932853
57.9733341,0.1639127284,-0.05246272683,0.6270228028,2024-06-04 16:16:07.973334
58.01381368,0.4158403277,-0.09986559302,0.8131722808,2024-06-04 16:16:08.013814
58.05429853,0.3093170524,-0.05272903293,0.3981308341,2024-06-04 16:16:08.054299
58.09479051,0.4667052329,0.2207695395,0.637408793,2024-06-04 16:16:08.094791
58.13528457,0.5640408993,0.07003907114,1.312899709,2024-06-04 16:16:08.135285
58.17578186,0.5528559685,-0.01358172111,1.578142762,2024-06-04 16:16:08.175782
58.21627358,0.9041165113,-0.5615109801,1.473217249,2024-06-04 16:16:08.216274
58.25674457,1.193460464,-0.6808170676,1.65590477,2024-06-04 16:16:08.256745
58.29723035,1.301847935,-0.9208939672,1.596251726,2024-06-04 16:16:08.297230
58.33772368,1.33859849,-0.9661663771,1.391460657,2024-06-04 16:16:08.337724
58.37824395,1.128081799,-0.8812140226,1.079480529,2024-06-04 16:16:08.378244
58.41872926,0.6167699099,-0.1929403245,0.5902722478,2024-06-04 16:16:08.418729
58.45920853,0.1223686412,0.2625799477,0.03621792421,2024-06-04 16:16:08.459209
58.49968556,-0.3874785006,0.8696296215,-0.7384728193,2024-06-04 16:16:08.499686
58.54016837,-0.7396711707,1.350182891,-1.278279662,2024-06-04 16:16:08.540168
58.58065697,-0.8978582621,1.040066838,-1.538329601,2024-06-04 16:16:08.580657
58.62114556,-1.113301635,0.9580439329,-1.912226439,2024-06-04 16:16:08.621146
58.66163421,-1.214498758,0.8275529146,-2.324072123,2024-06-04 16:16:08.661634
58.70210941,-1.368558168,0.5575163364,-2.465748072,2024-06-04 16:16:08.702109
58.74264134,-1.224352241,0.233286038,-2.250304699,2024-06-04 16:16:08.742641
58.78310238,-1.080013156,-0.02370143496,-1.709565878,2024-06-04 16:16:08.783102
58.82360535,-0.4833494723,-0.2043915838,-1.515693426,2024-06-04 16:16:08.823605
58.86408082,0.3042571843,-0.1599181145,-0.8364742398,2024-06-04 16:16:08.864081
58.90456061,0.8953283429,-0.1284937263,0.1240996495,2024-06-04 16:16:08.904561
58.94508816,1.310636044,-0.1772281379,0.9580439329,2024-06-04 16:16:08.945088
58.98557488,1.35191381,0.01704372838,1.197588205,2024-06-04 16:16:08.985575
59.0260666,1.503709555,-0.6073159575,1.382672429,2024-06-04 16:16:09.026067
59.06653494,1.518622875,-0.3119801283,1.952971578,2024-06-04 16:16:09.066535
59.107009,1.465627432,-0.4014596939,1.846714616,2024-06-04 16:16:09.107009
59.14750337,1.256575465,-1.911693811,1.730337858,2024-06-04 16:16:09.147503
59.188004,0.8931978941,-1.312367082,1.400515079,2024-06-04 16:16:09.188004
59.22849264,0.7134398222,-0.843398273,1.191196799,2024-06-04 16:16:09.228493
59.26897785,0.5813509226,-0.7326140404,0.8589772582,2024-06-04 16:16:09.268978
59.3095052,0.2837514579,-0.02263620123,0.7311493158,2024-06-04 16:16:09.309505
59.34999389,0.0006657706108,0.5737611651,0.2532591522,2024-06-04 16:16:09.349994
59.39048436,-0.6553846002,0.7175676227,-0.5343475342,2024-06-04 16:16:09.390484
59.43097389,-0.9982565045,0.7838783264,-0.6925346255,2024-06-04 16:16:09.430974
59.47146348,-1.086670876,1.153381109,-0.999188602,2024-06-04 16:16:09.471463
59.51200447,-1.154046774,1.491326213,-1.513562918,2024-06-04 16:16:09.512004
59.55242551,-1.421020865,1.443657041,-1.381474137,2024-06-04 16:16:09.552426
59.59290707,-1.422618747,1.547783613,-1.600645781,2024-06-04 16:16:09.592907
59.63338895,-1.153514266,1.498250246,-1.864290953,2024-06-04 16:16:09.633389
59.67385316,-0.7849435806,0.7029206157,-1.749245763,2024-06-04 16:16:09.673853
59.7143291,-0.5179695487,-0.3628450036,-1.107842326,2024-06-04 16:16:09.714329
59.75485546,-0.1387466043,-0.8670997024,-0.4424711764,2024-06-04 16:16:09.754855
59.79535728,0.2813546658,-0.8732247949,0.4117125571,2024-06-04 16:16:09.795357
59.83581009,0.7102441192,-0.2043915838,1.024354696,2024-06-04 16:16:09.835810
59.87635952,1.025819421,0.1552577168,1.489994645,2024-06-04 16:16:09.876360
59.91678202,0.5523233414,-1.029814005,0.8768199086,2024-06-04 16:16:09.916782
59.95728244,0.8583115339,-0.8479254842,0.9905335307,2024-06-04 16:16:09.957282
59.99779525,1.147921681,-1.12302196,1.398651004,2024-06-04 16:16:09.997795
60.03826296,0.9549813867,-0.8069140315,1.319024801,2024-06-04 16:16:10.038263
60.0787703,0.9448617101,-1.152315855,1.420488238,2024-06-04 16:16:10.078770
60.11924468,1.054314375,-1.371088028,1.628208637,2024-06-04 16:16:10.119245
60.15973332,1.004781008,-1.961626649,1.318492174,2024-06-04 16:16:10.159733
60.20019134,0.7003906965,-0.409715265,0.7953296304,2024-06-04 16:16:10.200191
60.24067994,0.2131797522,0.493868649,0.3720326424,2024-06-04 16:16:10.240680
60.28116858,-0.305721879,1.264697909,0.06897383928,2024-06-04 16:16:10.281169
60.32167895,-0.5949326158,1.336601138,-0.6688331962,2024-06-04 16:16:10.321679
60.36219363,-0.8163679838,1.742588043,-1.534867644,2024-06-04 16:16:10.362194
60.4026504,-1.031811357,1.860828996,-2.003170729,2024-06-04 16:16:10.402650
60.44314389,-1.293858647,1.295057058,-2.252967834,2024-06-04 16:16:10.443144
60.48363712,-1.53340292,0.836341083,-2.257495165,2024-06-04 16:16:10.483637
60.52413843,-1.552843451,1.102516174,-1.894383788,2024-06-04 16:16:10.524138
60.56463572,-1.216362953,0.4423380196,-1.498649716,2024-06-04 16:16:10.564636
60.60512202,-0.681216538,0.08814803511,-0.9390029311,2024-06-04 16:16:10.605122
60.64559936,-0.1509967744,-0.5181027055,-0.2890776098,2024-06-04 16:16:10.645599
60.68605941,0.4576507509,-0.493868649,0.5671034455,2024-06-04 16:16:10.686059
60.72654926,1.213433623,-0.2659088075,1.396786809,2024-06-04 16:16:10.726549
60.76706218,1.382805586,-0.4837489426,1.389330149,2024-06-04 16:16:10.767062
60.80755035,1.135671616,-0.7170349956,0.4729634523,2024-06-04 16:16:10.807550
60.84805238,1.110239148,-0.950720489,0.2537917793,2024-06-04 16:16:10.848052
60.8885279,1.424083352,-0.6967955232,1.02462101,2024-06-04 16:16:10.888528
60.92901811,1.419556141,-0.5774894357,1.346454501,2024-06-04 16:16:10.929018
60.96949473,1.326348305,-0.9070459008,1.533136606,2024-06-04 16:16:10.969495
61.00998337,1.469888449,-1.864290953,1.882133603,2024-06-04 16:16:11.009983
61.05047202,0.9832100868,-0.1575213373,1.688926935,2024-06-04 16:16:11.050472
61.09096691,0.3396761715,0.1278279573,0.9295489788,2024-06-04 16:16:11.090967
61.1314579,-0.2684387267,0.65871346,0.2247641683,2024-06-04 16:16:11.131458
61.17194301,-0.7604432106,1.118760943,-0.4797543287,2024-06-04 16:16:11.171943
61.21243009,-1.088801265,1.194658875,-1.259371758,2024-06-04 16:16:11.212430
61.25293426,-1.224085927,1.162968159,-1.747381568,2024-06-04 16:16:11.252934
61.29342275,-1.461766005,1.393591046,-2.076671839,2024-06-04 16:16:11.293423
61.33390447,-1.434602618,0.7252905369,-2.349637747,2024-06-04 16:16:11.333904
61.37441004,-1.319557428,0.1147788614,-2.477199316,2024-06-04 16:16:11.374410
61.41488306,-1.169226408,-0.3021267056,-1.911960125,2024-06-04 16:16:11.414883
61.45535962,-0.952185154,0.04287562892,-1.284671068,2024-06-04 16:16:11.455360
61.49585181,-0.6567161679,-0.3388772607,-0.7235595584,2024-06-04 16:16:11.495852
61.53634848,0.03688369319,-0.5785546899,0.3485974967,2024-06-04 16:16:11.536348
61.57682947,0.819696784,-0.5252930522,1.340063095,2024-06-04 16:16:11.576829
61.61731645,1.148986936,0.0074566314,1.701443434,2024-06-04 16:16:11.617316
61.65783374,0.8971925378,-0.0005326165119,1.197055578,2024-06-04 16:16:11.657834
61.69827134,0.547529757,-0.4185034335,0.7532529235,2024-06-04 16:16:11.698271
61.73875941,0.8556483984,-0.9768186808,1.177348852,2024-06-04 16:16:11.738759
61.7792704,1.162036061,-0.07909355313,1.907432914,2024-06-04 16:16:11.779270
61.81977072,0.9890688658,-0.5082492828,2.330463648,2024-06-04 16:16:11.819771
61.86025988,0.9480574131,-1.16003871,2.114886999,2024-06-04 16:16:11.860260
61.9007478,1.003183246,-1.296122313,1.570686102,2024-06-04 16:16:11.900748
61.94123603,0.3572525382,0.1310236603,0.8962604403,2024-06-04 16:16:11.941236
