Time (s),Linear Acceleration x (m/s^2),Linear Acceleration y (m/s^2),Linear Acceleration z (m/s^2),Datetime
0.030776153,0.0,0.0,0.0,2024-06-04 16:15:10.030776
0.071260111,-0.09421730042,-0.1248679161,-1.383673668,2024-06-04 16:15:10.071260
0.156313497,-0.1983578205,-0.1168785095,-0.691740036,2024-06-04 16:15:10.156313
0.196798913,0.4627375603,0.3508944511,-0.8309307098,2024-06-04 16:15:10.196799
0.237287611,0.09174895287,0.1768517494,-1.091007233,2024-06-04 16:15:10.237288
0.277773341,0.823815465,0.338406086,-0.6029906273,2024-06-04 16:15:10.277773
0.318256413,0.2253900766,0.3960471153,-1.858448982,2024-06-04 16:15:10.318256
0.358742559,0.5098733902,0.2687830925,-0.01300477982,2024-06-04 16:15:10.358743
0.399222143,0.3735799193,0.4297552109,-1.224170685,2024-06-04 16:15:10.399222
0.439730893,0.4640334547,1.340968609,-2.016190529,2024-06-04 16:15:10.439731
0.480221778,-1.441624284,0.1054682732,-0.016664505,2024-06-04 16:15:10.480222
0.520702663,-2.034962416,1.452506542,0.117430687,2024-06-04 16:15:10.520703
0.561185945,1.744652987,-1.326909304,-1.215451241,2024-06-04 16:15:10.561186
0.60167157,0.5679831505,-2.027529478,7.37176609,2024-06-04 16:15:10.601672
0.64215907,3.081205845,-4.62887764,7.989645958,2024-06-04 16:15:10.642159
0.682654799,2.940594673,-2.150416136,-5.847743034,2024-06-04 16:15:10.682655
0.723146882,2.550076723,-0.4329743385,1.541507721,2024-06-04 16:15:10.723147
0.763644955,-0.2836134434,-2.990502357,-1.386504173,2024-06-04 16:15:10.763645
0.804127351,-0.8514986038,-1.793588161,-4.403618336,2024-06-04 16:15:10.804127
0.844593132,0.6830556393,-0.2105793953,-3.846875668,2024-06-04 16:15:10.844593
0.885080632,-0.7710202932,-0.6633467674,-1.648853302,2024-06-04 16:15:10.885081
0.925586257,-0.3729743958,0.2346119881,-2.843225002,2024-06-04 16:15:10.925586
0.96609657,1.222230673,0.09683799744,-0.07450008392,2024-06-04 16:15:10.966097
1.006586674,0.4675855637,-0.2938365936,-0.1782903671,2024-06-04 16:15:11.006587
1.047072455,-0.07037723064,0.3520860672,-1.51761198,2024-06-04 16:15:11.047072
1.08759433,-0.3459712267,-0.3661203384,0.1468791962,2024-06-04 16:15:11.087594
1.128082403,-1.586336374,-0.8626561165,-0.4155063629,2024-06-04 16:15:11.128082
1.168546101,-0.6848758459,-0.3010592461,0.6429076195,2024-06-04 16:15:11.168546
1.20900808,-0.7924096584,-0.1634545326,0.3285217285,2024-06-04 16:15:11.209008
1.249506361,-0.9173363447,0.0710272789,-0.2714877129,2024-06-04 16:15:11.249506
1.289976257,-1.035247326,0.5062065125,-0.819065094,2024-06-04 16:15:11.289976
1.330481882,-1.057029128,0.4319300652,-0.1126432419,2024-06-04 16:15:11.330482
1.370969903,-0.503816247,0.4234242439,0.9449772835,2024-06-04 16:15:11.370970
1.411457924,-0.9728527069,-0.1695508957,2.110260963,2024-06-04 16:15:11.411458
1.45191282,-0.796759963,-0.1343870163,2.399754524,2024-06-04 16:15:11.451913
1.492386049,0.4269549847,0.6191797256,2.115402222,2024-06-04 16:15:11.492386
1.532894486,-0.5973331928,0.3651800156,0.869811058,2024-06-04 16:15:11.532894
1.57339032,-0.1884763241,0.3244638443,0.350672245,2024-06-04 16:15:11.573390
1.61388157,-0.0282227993,0.07988500595,0.1847481728,2024-06-04 16:15:11.613882
1.654369538,-0.9234967232,-0.4689869881,0.5251784325,2024-06-04 16:15:11.654370
1.694855216,-0.3421132565,-0.4723448753,-0.1407837868,2024-06-04 16:15:11.694855
1.735378861,0.4394564629,-0.5434865952,0.1150922775,2024-06-04 16:15:11.735379
1.775830997,-0.3373191357,-0.7556033134,-1.287268639,2024-06-04 16:15:11.775831
1.816324174,0.1845169067,-0.304684639,-1.086027145,2024-06-04 16:15:11.816324
1.856831726,1.38884449,0.1461935043,-0.02873420715,2024-06-04 16:15:11.856832
1.897319851,-0.2488536835,-0.01775407791,-1.44598341,2024-06-04 16:15:11.897320
1.937859851,0.3961875439,-0.111058712,0.01163291931,2024-06-04 16:15:11.937860
1.978299695,0.3118708134,0.0321393013,-0.620513916,2024-06-04 16:15:11.978300
2.018770372,-0.02122569084,-0.08654069901,-0.4179925919,2024-06-04 16:15:12.018770
2.059244486,0.1265802383,-0.4137167931,0.8857889175,2024-06-04 16:15:12.059244
2.099751309,-0.1960484982,-0.2147955894,-0.5642385483,2024-06-04 16:15:12.099751
2.14019032,0.003083229065,-0.172729969,-0.940580368,2024-06-04 16:15:12.140190
2.180694799,-0.2847640514,-0.07063674927,-1.095513344,2024-06-04 16:15:12.180695
2.221161153,-0.3445091248,-0.4944124222,-2.654107571,2024-06-04 16:15:12.221161
2.261665424,-2.526772738,-2.560092926,-4.977678299,2024-06-04 16:15:12.261665
2.302159538,-2.563676596,-3.743369102,-4.614580154,2024-06-04 16:15:12.302160
2.342658445,0.7197098732,-3.703603029,-6.287266254,2024-06-04 16:15:12.342658
2.383143809,-1.315449715,-4.478495598,-0.9691505432,2024-06-04 16:15:12.383144
2.423623288,3.007227421,-0.3352179527,0.9982042313,2024-06-04 16:15:12.423623
2.464102768,3.31117487,0.5355113745,5.921200752,2024-06-04 16:15:12.464103
2.504596257,-1.047053814,-1.06525147,8.293859482,2024-06-04 16:15:12.504596
2.545097038,-0.6775875092,-0.7912852764,4.42559433,2024-06-04 16:15:12.545097
2.585595216,1.522458553,-0.4012169838,2.501099586,2024-06-04 16:15:12.585595
2.626098288,-1.595091343,-2.046552658,0.8713607788,2024-06-04 16:15:12.626098
2.666576101,0.4593963623,-0.4925670624,-2.659897804,2024-06-04 16:15:12.666576
2.707042091,1.522443771,0.4656251669,0.2441120148,2024-06-04 16:15:12.707042
2.747540372,0.5848617554,-0.2141070366,4.884941578,2024-06-04 16:15:12.747540
2.788047195,-2.703148842,-0.560803175,3.01724577,2024-06-04 16:15:12.788047
2.828520841,-3.122455597,-1.174800873,6.000668526,2024-06-04 16:15:12.828521
2.869020945,0.3848478794,-0.5105314255,5.118990898,2024-06-04 16:15:12.869021
2.909503028,5.572428226,2.414335251,0.959397316,2024-06-04 16:15:12.909503
2.949978757,5.121718407,2.527803898,3.552774429,2024-06-04 16:15:12.949979
2.990473497,3.619080067,1.964044452,4.238260269,2024-06-04 16:15:12.990473
3.030963809,10.31467915,8.571895599,-4.096898556,2024-06-04 16:15:13.030964
3.071429695,-3.10444355,2.946460485,-1.697511673,2024-06-04 16:15:13.071430
3.111914747,0.6520268917,2.221801758,4.785495758,2024-06-04 16:15:13.111915
3.152415997,2.010364532,-0.2824654579,0.6895065308,2024-06-04 16:15:13.152416
3.19290282,-1.950172424,-3.019942999,0.3269577026,2024-06-04 16:15:13.192903
3.233392351,-0.6783089638,-3.540565491,-1.048807144,2024-06-04 16:15:13.233392
3.273886205,-0.2661323547,-3.044597626,-0.8639936447,2024-06-04 16:15:13.273886
3.314375632,-0.3964076042,-3.30658102,-0.519785881,2024-06-04 16:15:13.314376
3.354871882,-2.174848557,-3.878651619,-1.558644772,2024-06-04 16:15:13.354872
3.395363966,4.370887756,-0.5356634259,-1.367820263,2024-06-04 16:15:13.395364
3.435851934,3.433063269,1.629647255,0.5609869957,2024-06-04 16:15:13.435852
3.476328653,0.9101252556,3.161740065,0.1977324486,2024-06-04 16:15:13.476329
3.516813236,0.5615563393,2.901054382,-1.579182625,2024-06-04 16:15:13.516813
3.557311986,3.084825039,-0.0003463029861,-0.5523533821,2024-06-04 16:15:13.557312
3.597800216,-0.07284355164,-0.4992830753,-1.133024693,2024-06-04 16:15:13.597800
3.638285997,-0.953754425,-2.393886328,-1.024157047,2024-06-04 16:15:13.638286
3.678777559,-0.3065295219,0.1524577141,0.006637573242,2024-06-04 16:15:13.678778
3.719252247,-1.705671787,3.360695362,2.515806198,2024-06-04 16:15:13.719252
3.759736882,-1.125001431,3.371302605,-0.05283927917,2024-06-04 16:15:13.759737
3.800262455,0.3703932762,1.150082231,-0.6570663452,2024-06-04 16:15:13.800262
3.840724851,-1.458415508,-0.6215229034,0.2135601044,2024-06-04 16:15:13.840725
3.881191101,-0.4822573662,-1.237214327,-0.6035223007,2024-06-04 16:15:13.881191
3.921678445,-0.624894619,-2.031863213,-0.5479397774,2024-06-04 16:15:13.921678
3.962165893,-0.541182518,0.05137825012,-0.7969765663,2024-06-04 16:15:13.962166
4.002651934,0.4590306282,0.7543468475,-0.4110507965,2024-06-04 16:15:14.002652
4.043202611,-1.354516029,-0.5457761288,-0.4361791611,2024-06-04 16:15:14.043203
4.083665736,0.01366662979,0.4204585552,-0.7402129173,2024-06-04 16:15:14.083666
4.124109643,-0.1256947517,0.9490647316,-1.006567001,2024-06-04 16:15:14.124110
4.164650059,-1.142145634,-0.06057524681,-0.2654700279,2024-06-04 16:15:14.164650
4.205125945,-0.4171757698,-1.491147995,0.4032926559,2024-06-04 16:15:14.205126
4.245590736,-0.3858652115,-1.851955414,0.5168895721,2024-06-04 16:15:14.245591
4.28607407,-1.008162498,-0.3796029091,0.9778022766,2024-06-04 16:15:14.286074
4.326580372,-0.3930644989,2.100756884,0.07958984375,2024-06-04 16:15:14.326580
4.36718407,-1.523395538,-1.196772099,-1.049307346,2024-06-04 16:15:14.367184
4.407548653,-0.1381034851,-0.8680745363,-0.5545310974,2024-06-04 16:15:14.407549
4.448038393,-1.181737185,-1.340455651,-1.680353165,2024-06-04 16:15:14.448038
4.488517455,0.2192184925,-0.6322784424,-0.6092672348,2024-06-04 16:15:14.488517
4.52903282,-0.1285421848,-0.5674084425,-1.217715263,2024-06-04 16:15:14.529033
4.569516413,0.3314727545,0.001824617386,-0.5865440369,2024-06-04 16:15:14.569516
4.609973705,0.5643091202,-0.2275574207,-1.182851791,2024-06-04 16:15:14.609974
4.650463497,0.02418863773,0.1594498158,-1.189266205,2024-06-04 16:15:14.650463
4.690966674,0.1664793491,0.5891699791,-1.275857925,2024-06-04 16:15:14.690967
4.731439486,0.03214287758,0.8938786983,-0.7480611801,2024-06-04 16:15:14.731439
4.771923236,0.4077570438,0.5282523632,1.247367859,2024-06-04 16:15:14.771923
4.812388445,0.9122993946,-0.3025317192,0.9006538391,2024-06-04 16:15:14.812388
4.852877403,-0.1996836662,1.333486557,0.8888244629,2024-06-04 16:15:14.852877
4.893369851,2.710617781,0.5323684216,-0.6383619308,2024-06-04 16:15:14.893370
4.933931257,-0.6382584572,-2.238536358,0.5687193871,2024-06-04 16:15:14.933931
4.974379174,0.9224557877,-0.2099194527,0.8426628113,2024-06-04 16:15:14.974379
5.014906049,0.06395769119,-0.1419968605,0.3198008537,2024-06-04 16:15:15.014906
5.055343184,-0.5585923195,-0.8540315628,0.9533782005,2024-06-04 16:15:15.055343
5.095849747,-1.494033813,0.01306200027,0.06033992767,2024-06-04 16:15:15.095850
5.136297403,0.2700204849,-0.2801964283,0.05915594101,2024-06-04 16:15:15.136297
5.17682782,0.2129993439,-1.176713705,-0.6008234024,2024-06-04 16:15:15.176828
5.217346518,0.2704071999,0.2028262615,-2.355165958,2024-06-04 16:15:15.217347
5.257796466,-0.08747625351,0.1463112831,-0.5812535286,2024-06-04 16:15:15.257796
5.298272663,-0.6667151451,-0.6014735699,-0.04472589493,2024-06-04 16:15:15.298273
5.338780893,-0.6027760506,1.294781685,0.7306251526,2024-06-04 16:15:15.338781
5.379266101,0.1454172134,0.596826911,0.3028082848,2024-06-04 16:15:15.379266
5.419754643,-0.1448020935,-0.9024717808,0.5887246132,2024-06-04 16:15:15.419755
5.460242299,-1.299815655,-0.6743017435,0.260664463,2024-06-04 16:15:15.460242
5.500758497,-1.653606415,-0.4995370507,-0.1931929588,2024-06-04 16:15:15.500758
5.541246205,-0.9004569054,-0.6407823563,-0.3868947029,2024-06-04 16:15:15.541246
5.581733966,-0.5724959373,-0.6032863855,-2.193664074,2024-06-04 16:15:15.581734
5.622183809,-1.659917831,-1.590522885,-1.619900703,2024-06-04 16:15:15.622184
5.662673341,0.4410104752,-0.7997728586,-2.141955376,2024-06-04 16:15:15.662673
5.703166153,0.7641553879,0.2461349964,-0.4337940216,2024-06-04 16:15:15.703166
5.743656934,-0.3019075394,-1.263896465,-0.5632448196,2024-06-04 16:15:15.743657
5.784150893,0.1123695374,-0.5915670395,-1.997943878,2024-06-04 16:15:15.784151
5.824640059,1.061396837,0.5785084963,-0.3143215179,2024-06-04 16:15:15.824640
5.865105841,0.8413760662,0.7045502067,-1.060235023,2024-06-04 16:15:15.865106
5.905598757,0.6228680611,0.3752762973,-0.3132724762,2024-06-04 16:15:15.905599
5.946098497,-0.1193647385,-0.7429062724,-0.9483766556,2024-06-04 16:15:15.946098
5.98658433,0.05390834808,0.3517419696,0.8993806839,2024-06-04 16:15:15.986584
6.027069122,0.3285291195,0.3416250944,0.5488739014,2024-06-04 16:15:16.027069
6.067568861,-2.244980097,0.2016634941,0.2310886383,2024-06-04 16:15:16.067569
6.108034486,0.7842156887,0.5054570436,3.369387627,2024-06-04 16:15:16.108034
6.148518757,1.753875017,0.3959026337,1.266849518,2024-06-04 16:15:16.148519
6.18903532,3.917105675,1.5580194,-1.007087708,2024-06-04 16:15:16.189035
6.229517143,2.928706169,-1.501794338,4.146276474,2024-06-04 16:15:16.229517
6.269997247,0.5709447861,-0.3688569069,0.2324800491,2024-06-04 16:15:16.269997
6.310498341,-0.4805402756,-0.7396454811,1.628102064,2024-06-04 16:15:16.310498
6.350986778,4.937800884,2.64879179,-4.70394659,2024-06-04 16:15:16.350987
6.391457768,-1.074914932,4.119808197,2.178548813,2024-06-04 16:15:16.391458
6.431942924,-2.241484165,0.8857827187,0.4855728149,2024-06-04 16:15:16.431943
6.472461205,-1.238407135,-3.275763512,0.3086647987,2024-06-04 16:15:16.472461
6.512943341,-0.3244838715,-5.671462059,0.8413348198,2024-06-04 16:15:16.512943
6.553430736,-1.777116776,-3.396480322,0.8903913498,2024-06-04 16:15:16.553431
6.593925111,-2.382074356,-3.695503235,0.3392798901,2024-06-04 16:15:16.593925
6.634413653,-0.6273736954,0.3743202686,-2.93390274,2024-06-04 16:15:16.634414
6.67490282,3.392930031,4.680393219,0.7788889408,2024-06-04 16:15:16.674903
6.715376674,0.953660965,5.874180794,0.7674322128,2024-06-04 16:15:16.715377
6.755862091,-1.812988758,0.3484585285,1.276211262,2024-06-04 16:15:16.755862
6.79635157,-2.300610542,-4.346002579,-2.855086088,2024-06-04 16:15:16.796352
6.836849382,-1.881865978,-3.962300062,-0.9014673233,2024-06-04 16:15:16.836849
6.877342299,-1.831789017,-2.208426952,-2.52045989,2024-06-04 16:15:16.877342
6.917814538,1.325920105,-2.037895203,-1.053267002,2024-06-04 16:15:16.917815
6.958289174,4.701637268,1.304141402,-0.5767612457,2024-06-04 16:15:16.958289
6.998772559,2.508410931,-1.120061874,0.7133188248,2024-06-04 16:15:16.998773
7.039262299,-7.035324097,0.7222230434,-1.981289864,2024-06-04 16:15:17.039262
7.079769174,0.5448079109,1.938764811,-0.6304001808,2024-06-04 16:15:17.079769
7.12022407,6.010682106,2.301184177,-2.403223515,2024-06-04 16:15:17.120224
7.160737924,13.85799408,0.9129126072,1.800905228,2024-06-04 16:15:17.160738
7.201237403,5.242208004,-5.89506197,5.171121597,2024-06-04 16:15:17.201237
7.241702351,9.735168457,-6.417873859,-0.2724804878,2024-06-04 16:15:17.241702
7.282178913,3.279414654,-5.58208704,-4.427179337,2024-06-04 16:15:17.282179
7.322694382,-20.70454407,-3.862313271,-0.726680994,2024-06-04 16:15:17.322694
7.363182351,-5.945602417,7.415094376,0.02345013618,2024-06-04 16:15:17.363182
7.403670111,2.323657513,7.196537495,2.155892849,2024-06-04 16:15:17.403670
7.444125476,-0.575715065,1.743069172,-0.4815587997,2024-06-04 16:15:17.444125
7.484656153,-1.134221077,-10.86827564,-0.8843324184,2024-06-04 16:15:17.484656
7.525165841,-0.6273736954,-5.803731918,1.400219202,2024-06-04 16:15:17.525166
7.565641518,1.227586269,0.5769457817,0.3564095497,2024-06-04 16:15:17.565642
7.606101934,-1.504220009,-0.6493463516,0.9519076347,2024-06-04 16:15:17.606102
7.646590163,-0.5022940636,-1.01714325,1.299597025,2024-06-04 16:15:17.646590
7.687084851,-0.5323824883,-0.5904607773,0.8507475853,2024-06-04 16:15:17.687085
7.727564851,2.055122852,8.83330822,1.113215446,2024-06-04 16:15:17.727565
7.768069747,-2.146830559,0.3038740158,0.8537812233,2024-06-04 16:15:17.768070
7.808567351,-0.5976715088,-3.26102066,1.931689739,2024-06-04 16:15:17.808567
7.849023913,1.560735226,1.197240114,-0.1389307976,2024-06-04 16:15:17.849024
7.889522403,0.02497005463,-3.591112614,0.9931797981,2024-06-04 16:15:17.889522
7.930039278,-2.986433983,-6.407338142,0.3146882057,2024-06-04 16:15:17.930039
7.970518601,2.747058868,-4.371012688,-2.416181803,2024-06-04 16:15:17.970519
8.011004122,3.730876446,-1.927511692,-1.533088684,2024-06-04 16:15:18.011004
8.051446413,4.1886549,-0.006130933762,-1.665173531,2024-06-04 16:15:18.051446
8.091944226,4.233988285,1.847279429,-1.502675056,2024-06-04 16:15:18.091944
8.132429434,4.121001244,3.585974932,0.1294374466,2024-06-04 16:15:18.132429
8.17294808,2.746121883,2.462806463,0.8663873672,2024-06-04 16:15:18.172948
8.21346282,2.027061939,0.2977967262,0.2693119049,2024-06-04 16:15:18.213463
8.253902299,1.377680302,-1.375108242,0.3312449455,2024-06-04 16:15:18.253902
8.294426101,0.4772872925,-0.4678616524,-0.2054240704,2024-06-04 16:15:18.294426
8.334921361,-0.842476368,0.4993424416,0.06182026863,2024-06-04 16:15:18.334921
8.375375424,-1.984775543,0.6084513664,0.8302795887,2024-06-04 16:15:18.375375
8.415863601,-1.149401665,-1.528728485,1.776164293,2024-06-04 16:15:18.415864
8.456319747,-1.547681808,-2.521270275,2.447159529,2024-06-04 16:15:18.456320
8.496854747,-2.409086227,-0.8979568481,2.646329403,2024-06-04 16:15:18.496855
8.537342299,-3.310508251,-0.237285614,2.11293292,2024-06-04 16:15:18.537342
8.577830111,-0.7802705765,-0.6417150497,2.366204739,2024-06-04 16:15:18.577830
8.618302716,0.06620311737,-0.119811058,1.016553402,2024-06-04 16:15:18.618303
8.658790788,0.5950942039,-0.021504879,0.3311007023,2024-06-04 16:15:18.658791
8.699279747,0.7000002861,-0.489631176,0.8568778038,2024-06-04 16:15:18.699280
8.739770059,-0.1183180809,-0.05287361145,0.9451127052,2024-06-04 16:15:18.739770
8.780270841,-1.599491596,-1.114792824,1.302537918,2024-06-04 16:15:18.780271
8.820762872,-1.173738003,-2.440894604,1.682241917,2024-06-04 16:15:18.820763
8.861230632,-0.3948245049,-1.862067699,0.887819767,2024-06-04 16:15:18.861231
8.901718601,-0.1402277946,-3.011608124,-0.1918969154,2024-06-04 16:15:18.901719
8.942198757,-0.9847950935,-3.113446236,0.3270850182,2024-06-04 16:15:18.942199
8.982705632,-0.3772687912,-2.54633379,-0.9957180023,2024-06-04 16:15:18.982706
9.023187403,0.3885731697,-0.9611136913,-2.363846779,2024-06-04 16:15:19.023187
9.063686101,2.314333916,-1.084269047,-2.978950977,2024-06-04 16:15:19.063686
9.104177455,3.18204546,0.2076122761,-3.361313105,2024-06-04 16:15:19.104177
9.144638445,3.745215893,1.223579288,-3.083573341,2024-06-04 16:15:19.144638
9.185136882,3.507766962,2.417915583,-2.398300648,2024-06-04 16:15:19.185137
9.225626153,3.526448727,2.595168352,-2.755643845,2024-06-04 16:15:19.225626
9.266123445,3.212985516,2.309143066,-2.024864197,2024-06-04 16:15:19.266123
9.306630007,1.138834476,1.046152592,-1.177013874,2024-06-04 16:15:19.306630
9.347124903,0.3920817375,-0.5367584229,-0.3299264908,2024-06-04 16:15:19.347125
9.387587663,0.08897066116,-1.307718754,0.05542373657,2024-06-04 16:15:19.387588
9.428060007,-0.8227176666,-1.922692299,0.4634013176,2024-06-04 16:15:19.428060
9.468540528,-1.661952972,-1.754554749,0.7278790474,2024-06-04 16:15:19.468541
9.509038601,-1.665178776,-0.415687561,0.8956794739,2024-06-04 16:15:19.509039
9.549543809,-1.569908619,-0.8789510727,1.007180929,2024-06-04 16:15:19.549544
9.590016153,-2.582807064,-2.05830431,1.363980293,2024-06-04 16:15:19.590016
9.630492455,-2.233807087,-0.8581991196,1.92688489,2024-06-04 16:15:19.630492
9.670982559,-0.4597945213,-0.9575853348,1.583394051,2024-06-04 16:15:19.670983
9.711476622,-0.2784199715,-1.441756248,0.9541265965,2024-06-04 16:15:19.711477
9.751967559,-0.377456665,0.5825929642,0.3721606731,2024-06-04 16:15:19.751968
9.792471518,0.2636504173,-0.1547050476,0.0244474411,2024-06-04 16:15:19.792472
9.83295532,-0.1767716408,-1.205852032,0.6150555611,2024-06-04 16:15:19.832955
9.873428288,-0.5022344589,-1.033941269,0.07303762436,2024-06-04 16:15:19.873428
9.913914851,-2.333807468,-1.975219727,0.7817602158,2024-06-04 16:15:19.913915
9.954426622,-0.8067212105,-2.473854065,0.269197464,2024-06-04 16:15:19.954427
9.994919591,-0.2601184845,-2.386603832,-0.7710785866,2024-06-04 16:15:19.994920
10.0353861,-0.6267957687,-2.765472889,-0.5381011963,2024-06-04 16:15:20.035386
10.07587147,-0.2053108215,-2.724288702,-1.750366688,2024-06-04 16:15:20.075871
10.11633511,0.5328879356,-1.338932991,-2.854474545,2024-06-04 16:15:20.116335
10.15685824,2.412894964,-0.3428094387,-2.925999641,2024-06-04 16:15:20.156858
10.19737574,3.003636837,0.7915639877,-2.935636997,2024-06-04 16:15:20.197376
10.23783886,2.87356472,1.83671546,-2.570063591,2024-06-04 16:15:20.237839
10.2783198,4.442415237,3.129818201,-3.277418375,2024-06-04 16:15:20.278320
10.31882766,2.558465958,2.084028721,-2.675837994,2024-06-04 16:15:20.318828
10.35935157,1.666491508,1.571403503,-1.80166626,2024-06-04 16:15:20.359352
10.39982042,0.5004811287,1.277052164,-1.280079842,2024-06-04 16:15:20.399820
10.44024006,-0.5403795242,0.06993722916,-0.721367836,2024-06-04 16:15:20.440240
10.48075605,-1.236876011,-1.53800869,-0.3191738129,2024-06-04 16:15:20.480756
10.52125808,-2.91879034,-2.913681984,0.07833862305,2024-06-04 16:15:20.521258
10.561746,-2.251782417,-2.030207634,1.110962868,2024-06-04 16:15:20.561746
10.6022348,-0.5419535637,-1.232204437,1.579568386,2024-06-04 16:15:20.602235
10.64266766,-0.9507608414,0.02451086044,1.221754074,2024-06-04 16:15:20.642668
10.68321308,-2.939452648,-1.452762127,1.073525429,2024-06-04 16:15:20.683213
10.72369808,-3.045705318,-1.362305164,0.7847700119,2024-06-04 16:15:20.723698
10.76418152,-1.673832893,-1.268076897,-0.2772045135,2024-06-04 16:15:20.764182
10.80466376,-1.139054298,-1.647206783,-0.3318142891,2024-06-04 16:15:20.804664
10.84516209,-0.6817088127,-0.123855114,-0.7195224762,2024-06-04 16:15:20.845162
10.88559475,-1.411181927,-0.6684522629,-0.6385407448,2024-06-04 16:15:20.885595
10.9261472,-2.494441509,-1.29957819,-0.8072729111,2024-06-04 16:15:20.926147
10.96661766,-2.581893444,-2.164708614,-0.7521739006,2024-06-04 16:15:20.966618
11.00710574,-3.840295315,-3.210523605,-1.136090279,2024-06-04 16:15:21.007106
11.04760897,-0.01428937912,-2.596355438,-1.577254295,2024-06-04 16:15:21.047609
11.08810032,-0.570081234,-3.301558018,-1.857901573,2024-06-04 16:15:21.088100
11.12854574,0.948782444,-1.989943504,-2.7338624,2024-06-04 16:15:21.128546
11.16903464,0.4559850693,-1.081900597,-3.231578827,2024-06-04 16:15:21.169035
11.20956615,0.72778368,-1.104758978,-3.232728958,2024-06-04 16:15:21.209566
11.25005501,1.863184452,0.1374104023,-3.467816353,2024-06-04 16:15:21.250055
11.29053787,2.873654366,1.457869411,-3.723950863,2024-06-04 16:15:21.290538
11.33099329,2.808593035,2.641468048,-3.554075718,2024-06-04 16:15:21.330993
11.37148131,2.037152767,2.220664501,-3.171309948,2024-06-04 16:15:21.371481
11.41197037,1.393294096,1.678541422,-2.747686863,2024-06-04 16:15:21.411970
11.45245839,0.5602865219,0.9006891251,-2.182694912,2024-06-04 16:15:21.452458
11.49297855,-1.03276825,-0.3908829689,-1.06704092,2024-06-04 16:15:21.492979
11.53344261,-2.218211651,-1.365022182,-0.4517178535,2024-06-04 16:15:21.533443
11.57396912,-2.0729146,-2.097373962,-0.204761982,2024-06-04 16:15:21.573969
11.6144324,-2.995560646,-2.94997406,0.04789400101,2024-06-04 16:15:21.614432
11.65492074,-2.33773303,-2.671178818,0.5648479462,2024-06-04 16:15:21.654921
11.69541246,-2.411583424,-0.9777398109,0.7286233902,2024-06-04 16:15:21.695412
11.7359135,-3.404892921,-1.628299713,1.294201851,2024-06-04 16:15:21.735914
11.77639558,-2.535313129,-1.938070774,1.604397297,2024-06-04 16:15:21.776396
11.81687048,-1.432197571,-0.9014072418,0.2338371277,2024-06-04 16:15:21.816870
11.85734251,-0.762052536,-1.376327991,0.08630943298,2024-06-04 16:15:21.857343
11.89783084,-1.09064436,-1.370240211,-0.6924366951,2024-06-04 16:15:21.897831
11.93833235,-1.776918411,-0.6446805,-1.398398876,2024-06-04 16:15:21.938332
11.97885173,-2.624411583,-1.835213184,-0.5374035835,2024-06-04 16:15:21.978852
12.01933074,-2.428450584,-2.875572681,-1.223649979,2024-06-04 16:15:22.019331
12.05981912,-0.8305077553,-2.501157761,-0.7176184654,2024-06-04 16:15:22.059819
12.10028459,-0.130604744,-2.853876591,-1.37046957,2024-06-04 16:15:22.100285
12.14073313,0.3381357193,-2.574325085,-1.503554344,2024-06-04 16:15:22.140733
12.18128751,0.4806032181,-1.707201958,-2.430275917,2024-06-04 16:15:22.181288
12.22177589,0.590526104,-0.8182280064,-3.0297966,2024-06-04 16:15:22.221776
12.2622524,1.234513283,-1.205054522,-2.721008778,2024-06-04 16:15:22.262252
12.30273084,2.410391569,1.103061557,-2.906383991,2024-06-04 16:15:22.302731
12.34323813,2.779509783,1.77088964,-3.987609386,2024-06-04 16:15:22.343238
12.38370943,3.712601662,3.032046795,-3.709872484,2024-06-04 16:15:22.383709
12.42418652,2.837726593,2.666456223,-3.268009186,2024-06-04 16:15:22.424187
12.46466683,0.182533741,0.8131568432,-2.037467003,2024-06-04 16:15:22.464667
12.50517522,-1.867174149,-0.2571673393,-1.25667429,2024-06-04 16:15:22.505175
12.54568214,-1.742725849,-1.589949608,-0.2278351784,2024-06-04 16:15:22.545682
12.58616261,-1.412745476,-2.128337383,-1.127585411,2024-06-04 16:15:22.586163
12.62666647,-2.197281361,-2.092163563,0.4957666397,2024-06-04 16:15:22.626666
12.66714673,-2.760049343,-2.101671696,1.284011841,2024-06-04 16:15:22.667147
12.70761511,-3.083548307,-1.771936893,1.144678116,2024-06-04 16:15:22.707615
12.74809522,-2.516453028,-2.685781956,1.95490694,2024-06-04 16:15:22.748095
12.78858475,-1.609645367,-1.988222122,1.485595226,2024-06-04 16:15:22.788585
12.82908235,-0.8413796425,-0.5573477745,0.1631579399,2024-06-04 16:15:22.829082
12.8695735,-0.1098380089,-0.2977342606,-0.4079456329,2024-06-04 16:15:22.869573
12.91005522,-0.659514904,-0.1877832413,-1.211641788,2024-06-04 16:15:22.910055
12.95053907,-1.93927002,-0.6477556229,-0.7579445839,2024-06-04 16:15:22.950539
12.99104558,-2.269072056,-1.219326973,-0.8280949593,2024-06-04 16:15:22.991046
13.03153381,-2.403110027,-1.628601074,-0.4079995155,2024-06-04 16:15:23.031534
13.07202183,-0.4555859566,-2.464589119,-1.331912518,2024-06-04 16:15:23.072022
13.1124936,1.313928604,-2.266134739,-0.437078476,2024-06-04 16:15:23.112494
13.15300735,-1.457901001,-2.952881336,-0.5591340065,2024-06-04 16:15:23.153007
13.19347964,0.2651200294,-2.066146612,-1.359485149,2024-06-04 16:15:23.193480
13.23394261,-0.2125892639,-3.346978188,-2.064478397,2024-06-04 16:15:23.233943
13.27444287,1.477502823,-0.6087825298,-4.061182499,2024-06-04 16:15:23.274443
13.31493454,5.34003067,2.954473019,-3.24425745,2024-06-04 16:15:23.314935
13.35541553,3.878353596,1.872127056,-2.626467228,2024-06-04 16:15:23.355416
13.39590131,3.564219475,2.574240446,-3.104242325,2024-06-04 16:15:23.395901
13.43635454,3.191138506,2.530331373,-3.035783291,2024-06-04 16:15:23.436355
13.47686324,2.970179081,1.763614655,-1.439041138,2024-06-04 16:15:23.476863
13.51737131,0.2544083595,0.1472549438,0.6115474701,2024-06-04 16:15:23.517371
13.55786095,-2.215661049,-1.560454369,1.763730526,2024-06-04 16:15:23.557861
13.59835443,-2.482995033,-1.548135757,0.6383833885,2024-06-04 16:15:23.598354
13.63884584,-1.36057663,-1.395965099,-0.3174152374,2024-06-04 16:15:23.638846
13.6793322,-0.947807312,-0.5923752785,0.7424287796,2024-06-04 16:15:23.679332
13.71982266,-2.551895618,-1.006267548,1.211182117,2024-06-04 16:15:23.719823
13.76031662,-2.998614788,-1.52767849,2.326903105,2024-06-04 16:15:23.760317
13.80077761,-1.625080109,-2.134734154,2.618255854,2024-06-04 16:15:23.800778
13.84125464,0.8330714703,-1.618081093,2.62370348,2024-06-04 16:15:23.841255
13.88174428,0.521173954,-0.6431665421,1.163353682,2024-06-04 16:15:23.881744
13.92220188,0.6207842827,0.1559934616,-0.1150128841,2024-06-04 16:15:23.922202
13.9627474,0.8029589653,0.3832321167,-0.9522335529,2024-06-04 16:15:23.962747
14.0032735,-2.282506466,-1.28155899,1.181233883,2024-06-04 16:15:24.003274
14.0437087,-2.441869736,-1.839729786,0.8853297234,2024-06-04 16:15:24.043709
14.08420459,-0.453918457,-2.195044518,0.7068004608,2024-06-04 16:15:24.084205
14.12467371,-0.8525762558,-3.416951656,0.9050788879,2024-06-04 16:15:24.124674
14.1651798,1.545601368,-2.750458241,-0.4600429535,2024-06-04 16:15:24.165180
14.20568542,2.311834812,-1.582164764,-1.103272915,2024-06-04 16:15:24.205685
14.24615631,1.37463522,-1.904693604,-1.264358521,2024-06-04 16:15:24.246156
14.28666417,1.546980381,-0.9503781796,-1.659199238,2024-06-04 16:15:24.286664
14.32711959,4.198876381,1.163642764,-2.761399508,2024-06-04 16:15:24.327120
14.36763553,4.323796272,2.103569508,-2.228056431,2024-06-04 16:15:24.367636
14.40810126,4.353216648,2.794681311,-2.280704737,2024-06-04 16:15:24.408101
14.44854626,3.643975019,2.483070612,-1.932401657,2024-06-04 16:15:24.448546
14.48909204,2.268835545,2.030294418,-1.156392097,2024-06-04 16:15:24.489092
14.52961438,1.100848198,0.9508552551,0.02046489716,2024-06-04 16:15:24.529614
14.57005423,-0.5880479813,-0.6388449669,0.5935573578,2024-06-04 16:15:24.570054
14.61056303,-1.420859337,-0.9411902428,1.281188965,2024-06-04 16:15:24.610563
14.65105152,-2.215911865,-1.064823627,2.259707928,2024-06-04 16:15:24.651052
14.69149371,-1.839664936,-1.305352211,1.366162062,2024-06-04 16:15:24.691494
14.73199329,-1.751602173,-0.8993263245,1.24928546,2024-06-04 16:15:24.731993
14.77248173,-3.161026478,-1.217320442,1.559396505,2024-06-04 16:15:24.772482
14.81297595,-0.3704752922,-0.638859272,2.078014135,2024-06-04 16:15:24.812976
14.85350891,-1.493844509,-0.8669743538,0.5407133102,2024-06-04 16:15:24.853509
14.8939223,-0.6642508507,-0.876616478,0.1559939384,2024-06-04 16:15:24.893922
14.93443636,-1.039705753,-1.103769779,0.347468853,2024-06-04 16:15:24.934436
14.97493839,-1.872557163,-0.9003224373,0.3030357361,2024-06-04 16:15:24.974938
15.01542964,-3.097835541,-1.255290508,-0.03805780411,2024-06-04 16:15:25.015430
15.0559211,-2.668119431,-1.835875511,-0.9004859924,2024-06-04 16:15:25.055921
15.09638735,-1.459039688,-2.491645813,-0.7460503578,2024-06-04 16:15:25.096387
15.13684407,0.7568249702,-2.634638786,-0.4181303978,2024-06-04 16:15:25.136844
15.17739053,1.764234543,-2.546243191,-1.005093575,2024-06-04 16:15:25.177391
15.21788433,1.478856564,-1.626194715,-0.9636378288,2024-06-04 16:15:25.217884
15.25834183,2.028101921,-1.878655434,-2.023578167,2024-06-04 16:15:25.258342
15.29886782,3.042579651,-0.4112272263,-1.84301424,2024-06-04 16:15:25.298868
15.33935496,3.759178638,0.498967886,-2.19984293,2024-06-04 16:15:25.339355
15.37982365,5.134054184,2.333867311,-2.38137722,2024-06-04 16:15:25.379824
15.42032011,4.046077728,2.273427486,-2.07996273,2024-06-04 16:15:25.420320
15.46074548,3.605211973,2.181651354,-1.358111382,2024-06-04 16:15:25.460745
15.50126933,2.899639368,1.366433144,-1.049446583,2024-06-04 16:15:25.501269
15.54175714,2.484091759,0.3545975685,-0.2670755386,2024-06-04 16:15:25.541757
15.58226798,-0.4630289078,-1.691932678,1.222466707,2024-06-04 16:15:25.582268
15.62270365,-1.859603882,-1.409678936,2.318323851,2024-06-04 16:15:25.622704
15.66322381,-2.005430698,-1.904509544,1.991488457,2024-06-04 16:15:25.663224
15.70372459,-2.28222847,-1.158092022,2.214672089,2024-06-04 16:15:25.703725
15.74420282,-1.880172729,-0.8789148331,1.407702446,2024-06-04 16:15:25.744203
15.78470756,-2.443618774,-0.577981472,2.584611654,2024-06-04 16:15:25.784708
15.82518834,-2.150399208,-1.024155617,1.934077263,2024-06-04 16:15:25.825188
15.86565006,-0.8206477165,0.1621994972,2.221122503,2024-06-04 16:15:25.865650
15.90613725,0.009400367737,-0.4217281342,0.614938736,2024-06-04 16:15:25.906137
15.94665308,0.06208992004,-0.290494442,0.1249382496,2024-06-04 16:15:25.946653
15.98712464,-1.596968651,-1.212991714,1.177844048,2024-06-04 16:15:25.987125
16.02761417,-3.256664753,-1.588046074,0.0539021492,2024-06-04 16:15:26.027614
16.06812188,-2.625127792,-1.532698631,-0.836632967,2024-06-04 16:15:26.068122
16.10859292,-1.688309669,-2.960261345,-0.6344399452,2024-06-04 16:15:26.108593
16.1490786,-1.323797226,-3.062478542,-1.097571373,2024-06-04 16:15:26.149079
16.1896048,0.7344079018,-1.83694458,-1.168186665,2024-06-04 16:15:26.189605
16.23006475,1.206919193,-2.269622087,-1.609483242,2024-06-04 16:15:26.230065
16.27054443,2.40806675,-0.6888921261,-1.680027485,2024-06-04 16:15:26.270544
16.31103844,1.616069317,-0.8811666965,-2.636594772,2024-06-04 16:15:26.311038
16.35149813,4.50479126,0.8583242893,-3.04359746,2024-06-04 16:15:26.351498
16.39199001,5.137328148,1.767791152,-2.460043907,2024-06-04 16:15:26.391990
16.43249167,5.022444725,2.249529839,-1.836949825,2024-06-04 16:15:26.432492
16.47297923,4.803596497,2.259615898,-1.2913661,2024-06-04 16:15:26.472979
16.51347574,2.915838718,1.434851646,-0.6912841797,2024-06-04 16:15:26.513476
16.55396355,1.246089458,-0.09158706665,0.4850254059,2024-06-04 16:15:26.553964
16.59448365,-1.118381023,-2.299244881,1.572766304,2024-06-04 16:15:26.594484
16.63498907,-1.456740379,-1.725500584,1.815226793,2024-06-04 16:15:26.634989
16.67543063,-0.3981304169,-0.9697003365,1.49335146,2024-06-04 16:15:26.675431
16.71592891,-1.640341759,-1.413926125,1.958186626,2024-06-04 16:15:26.715929
16.75641594,-1.699718952,-0.4840502739,1.365458012,2024-06-04 16:15:26.756416
16.7969035,-3.592477322,-0.851498127,2.109169006,2024-06-04 16:15:26.796903
16.83738188,-4.111219883,-1.297271252,3.104947805,2024-06-04 16:15:26.837382
16.87784402,-0.6342272758,-0.8885178566,0.4585669041,2024-06-04 16:15:26.877844
16.91833808,0.2138266563,-0.251686573,0.3742642403,2024-06-04 16:15:26.918338
16.95883855,-0.003470420837,-0.1474909782,0.1925501823,2024-06-04 16:15:26.958839
16.9993486,-1.256062508,-0.2705373764,0.6724772453,2024-06-04 16:15:26.999349
17.03985355,-1.342192173,-0.493970871,0.1118068695,2024-06-04 16:15:27.039854
17.08032313,-3.060070992,-2.137917995,-0.01043367386,2024-06-04 16:15:27.080323
17.12075782,-3.942033291,-3.209852695,-0.3863492012,2024-06-04 16:15:27.120758
17.1612448,-0.9505476952,-2.129693985,-0.7410588264,2024-06-04 16:15:27.161245
17.20175246,1.888260841,-2.270564556,-1.518822193,2024-06-04 16:15:27.201752
17.24224376,1.345764637,-2.529994965,-1.166808128,2024-06-04 16:15:27.242244
17.28273068,3.851922512,0.3357944489,-1.732765675,2024-06-04 16:15:27.282731
17.32323126,1.259268761,-0.7892024517,-2.476489067,2024-06-04 16:15:27.323231
17.36373683,2.955696821,0.4481496811,-2.983012676,2024-06-04 16:15:27.363737
17.40422386,3.776216507,0.566770792,-1.717541218,2024-06-04 16:15:27.404224
17.44466079,4.620743752,2.271533012,-1.824977398,2024-06-04 16:15:27.444661
17.4851886,4.986800194,2.87218523,-1.795836449,2024-06-04 16:15:27.485189
17.52566386,3.385134697,1.913643599,-1.098533154,2024-06-04 16:15:27.525664
17.56618657,1.5991292,-0.07978487015,-0.5261468887,2024-06-04 16:15:27.566187
17.60665407,-1.048048496,-1.652965069,1.413578987,2024-06-04 16:15:27.606654
17.64715136,-1.425312042,-1.219980717,2.347544193,2024-06-04 16:15:27.647151
17.68759621,-1.46214962,-1.596981525,2.29762578,2024-06-04 16:15:27.687596
17.7280935,-2.138623714,-1.343596458,2.044579983,2024-06-04 16:15:27.728094
17.76861844,-2.294747829,-0.8468008041,1.069564104,2024-06-04 16:15:27.768618
17.8090824,-2.917364597,-0.1775269508,1.055660248,2024-06-04 16:15:27.809082
17.84955964,-2.725297451,0.2561597824,0.8652462959,2024-06-04 16:15:27.849560
17.89008683,-1.087305069,-0.2028222084,0.4968192577,2024-06-04 16:15:27.890087
17.93053553,-0.452984333,-0.3419675827,0.08481359482,2024-06-04 16:15:27.930536
17.97102282,-1.380030632,-0.8559875488,0.2329363823,2024-06-04 16:15:27.971023
18.01151011,-2.053636551,-1.02924633,-0.345574379,2024-06-04 16:15:28.011510
18.05198673,-2.445451736,-1.372601986,-0.4757857323,2024-06-04 16:15:28.051987
18.09248214,-4.150182724,-2.555219173,-0.2742576599,2024-06-04 16:15:28.092482
18.13295412,-3.349534988,-3.260285378,-1.010126591,2024-06-04 16:15:28.132954
18.17348433,-0.7073130608,-2.745027065,-1.428826809,2024-06-04 16:15:28.173484
18.21397157,1.252371311,-2.35287571,-1.609253407,2024-06-04 16:15:28.213972
18.25442365,1.119850159,-1.974324226,-1.952925205,2024-06-04 16:15:28.254424
18.29497647,0.8340373039,-0.6937179565,-2.13093853,2024-06-04 16:15:28.294976
18.33544891,2.434752226,-1.308556318,-2.403137684,2024-06-04 16:15:28.335449
18.37591787,3.779041052,0.06263399124,-3.175090551,2024-06-04 16:15:28.375918
18.41643688,4.362677574,1.971117377,-2.980253935,2024-06-04 16:15:28.416437
18.45687756,3.949500084,2.177535057,-2.048242092,2024-06-04 16:15:28.456878
18.49736876,4.719120026,2.875373125,-2.175040722,2024-06-04 16:15:28.497369
18.53785329,3.932744503,1.953064203,-1.808999777,2024-06-04 16:15:28.537853
18.57834147,3.33582449,0.7628908157,-1.104963541,2024-06-04 16:15:28.578341
18.61887225,0.5670528412,-1.888818264,0.05886507034,2024-06-04 16:15:28.618872
18.65931277,-1.791625023,-2.691112518,2.234571934,2024-06-04 16:15:28.659313
18.69979282,-2.369294643,-2.150811672,3.040160418,2024-06-04 16:15:28.699793
18.74031813,-1.842828274,-2.410012722,3.494013071,2024-06-04 16:15:28.740318
18.78084683,-1.047138691,-1.079761505,3.195652485,2024-06-04 16:15:28.780847
18.8212423,-3.409885883,-1.602049351,2.823944092,2024-06-04 16:15:28.821242
18.86175756,-2.191762447,-1.350932598,2.726531029,2024-06-04 16:15:28.861758
18.90223074,-1.641235828,-0.8526368141,2.522967577,2024-06-04 16:15:28.902231
18.94273683,-0.08851146698,-0.06747674942,1.278859854,2024-06-04 16:15:28.942737
18.98321584,0.4694170952,0.1585564613,0.6547913551,2024-06-04 16:15:28.983216
19.02372621,-0.7252817154,0.06647253036,1.065917969,2024-06-04 16:15:29.023726
19.06420261,-2.546662807,-0.5946712494,0.734470129,2024-06-04 16:15:29.064203
19.10469042,-1.61917448,-0.9641022682,-0.1005280018,2024-06-04 16:15:29.104690
19.1451872,-2.505935192,-2.771205902,0.1200342178,2024-06-04 16:15:29.145187
19.18568824,-1.407707691,-1.762897968,-0.6196994781,2024-06-04 16:15:29.185688
19.22617464,-0.3000979424,-2.675859928,-0.8156671524,2024-06-04 16:15:29.226175
19.26665334,-0.1564059258,-2.857037067,-1.262608528,2024-06-04 16:15:29.266653
19.30713568,1.537035465,-2.089086533,-3.025387287,2024-06-04 16:15:29.307136
19.34763746,1.413184643,-1.66960001,-2.529818535,2024-06-04 16:15:29.347637
19.38813006,3.711773634,1.033849716,-3.22332859,2024-06-04 16:15:29.388130
19.42864746,2.602892876,0.7578585148,-3.398713112,2024-06-04 16:15:29.428647
19.46906647,3.620383739,3.032946825,-3.710825205,2024-06-04 16:15:29.469066
19.50957016,3.128944397,2.768862486,-2.275988579,2024-06-04 16:15:29.509570
19.55009996,3.647945166,2.770564795,-1.490960598,2024-06-04 16:15:29.550100
19.59059391,1.413842678,0.9791009426,-0.8135275841,2024-06-04 16:15:29.590594
19.63108084,0.06292438507,-1.121338367,0.01053667068,2024-06-04 16:15:29.631081
19.67152881,0.1062893867,-1.045249939,0.7909183502,2024-06-04 16:15:29.671529
19.7119947,-0.6453070641,-0.2996582985,1.666085243,2024-06-04 16:15:29.711995
19.7524947,-2.746856213,-1.907956123,0.9098081589,2024-06-04 16:15:29.752495
19.79298897,-1.44901371,-1.024673462,0.9627592564,2024-06-04 16:15:29.792989
19.83348402,-2.403283119,-1.603878498,0.4863421917,2024-06-04 16:15:29.833484
19.87397386,-3.134397507,-1.570814133,1.19960928,2024-06-04 16:15:29.873974
19.91447371,-2.578570366,-0.8596186638,1.707865953,2024-06-04 16:15:29.914474
19.95494891,-1.553753376,-0.5456523895,1.048012257,2024-06-04 16:15:29.954949
19.99544647,-0.7316403389,-1.034924507,0.4275283813,2024-06-04 16:15:29.995446
20.03592027,-0.01027488708,-0.833053112,0.06986498833,2024-06-04 16:15:30.035920
20.07639365,-0.5655875206,-0.2899832726,-0.2747635841,2024-06-04 16:15:30.076394
20.11690636,-1.783700466,-1.050565243,0.2716050148,2024-06-04 16:15:30.116906
20.15740001,-2.144361496,-2.020857811,-0.1051549911,2024-06-04 16:15:30.157400
20.19782438,-2.256738663,-1.984067917,-0.2523007393,2024-06-04 16:15:30.197824
20.23836178,0.5075182915,-2.568878174,-0.3305921555,2024-06-04 16:15:30.238362
20.27883579,0.07192516327,-2.983509541,-1.308040142,2024-06-04 16:15:30.278836
20.31933037,1.35293293,-1.792925835,-1.673215866,2024-06-04 16:15:30.319330
20.35981761,1.06637907,-1.256032228,-2.325863361,2024-06-04 16:15:30.359818
20.4003048,1.507566452,-0.8677835464,-2.891745567,2024-06-04 16:15:30.400305
20.4407522,4.08378458,1.042444825,-2.559713364,2024-06-04 16:15:30.440752
20.48123928,4.21419096,1.805106044,-1.945109844,2024-06-04 16:15:30.481239
20.52174407,4.075518608,2.141811609,-1.755330563,2024-06-04 16:15:30.521744
20.56227016,4.230520248,2.667833805,-1.67115593,2024-06-04 16:15:30.562270
20.60276532,3.539757252,1.862120867,-1.042469501,2024-06-04 16:15:30.602765
20.64324584,1.320251942,0.2743048668,0.1306400299,2024-06-04 16:15:30.643246
20.68370735,-0.2099890709,-1.068025112,0.6948399544,2024-06-04 16:15:30.683707
20.72420042,-1.767822266,-1.370014668,1.2445786,2024-06-04 16:15:30.724200
20.76470761,-1.756941319,-1.668532372,0.8111143112,2024-06-04 16:15:30.764708
20.80520199,-0.8602108955,-1.949426651,1.367442846,2024-06-04 16:15:30.805202
20.84567042,-0.9074320793,-0.664182663,1.353622437,2024-06-04 16:15:30.845670
20.88616657,-3.58271265,-0.5567278862,1.95639205,2024-06-04 16:15:30.886167
20.92664209,-2.488974571,-1.436738968,2.654112816,2024-06-04 16:15:30.926642
20.96713766,-2.573344707,-1.578195095,2.128773451,2024-06-04 16:15:30.967138
21.00763334,0.1002135277,-0.5415349007,0.5273151398,2024-06-04 16:15:31.007633
21.04810886,0.3054742813,-0.3197631836,0.234256506,2024-06-04 16:15:31.048109
21.08860376,-0.6064310074,-0.0701675415,0.204485178,2024-06-04 16:15:31.088604
21.12908959,-1.318306446,-0.4133443832,-0.2680382729,2024-06-04 16:15:31.129090
21.1695624,-2.584213734,-0.8378696442,0.1761159897,2024-06-04 16:15:31.169562
21.21002407,-1.643614292,-1.425907135,0.7238292694,2024-06-04 16:15:31.210024
21.25051204,-0.7411756516,-2.876370907,-0.6527428627,2024-06-04 16:15:31.250512
21.2909999,-2.503574371,-1.940441608,-1.258396626,2024-06-04 16:15:31.291000
21.3315173,-1.777060032,-2.172357559,-1.317834854,2024-06-04 16:15:31.331517
21.3720099,0.6331315041,-3.012156487,-2.622911453,2024-06-04 16:15:31.372010
21.41249141,1.866598606,-2.255239964,-2.586271763,2024-06-04 16:15:31.412491
21.45297865,3.645530701,0.4555163383,-2.699249268,2024-06-04 16:15:31.452979
21.4934672,3.610843897,1.022376895,-2.187803745,2024-06-04 16:15:31.493467
21.53399657,3.605443716,2.04940629,-2.505373955,2024-06-04 16:15:31.533997
21.5744698,4.153964996,2.584306002,-2.851239681,2024-06-04 16:15:31.574470
21.61495621,4.141807556,2.790684462,-2.404297113,2024-06-04 16:15:31.614956
21.65543381,1.786720276,1.429722786,-1.266704082,2024-06-04 16:15:31.655434
21.69591225,-0.09687614441,-0.3972530365,-0.2377943993,2024-06-04 16:15:31.695912
21.73638917,-1.134404182,-1.109357834,0.2101559639,2024-06-04 16:15:31.736389
21.77688199,-0.9784908295,-0.5494446754,0.2914180756,2024-06-04 16:15:31.776882
21.81737475,-0.82787323,-1.23940134,0.3882899284,2024-06-04 16:15:31.817375
21.85787631,-1.223124504,-1.505908966,1.16430378,2024-06-04 16:15:31.857876
21.89836433,-3.183614731,-2.033919334,1.461105108,2024-06-04 16:15:31.898364
21.9388485,-4.018511295,-1.774301052,2.141535282,2024-06-04 16:15:31.938848
21.97932152,-2.646972656,-1.188982487,2.20842576,2024-06-04 16:15:31.979322
22.01980173,-1.69562912,-1.268265247,1.139954567,2024-06-04 16:15:32.019802
22.06028912,0.1215748787,0.05062770844,0.198217392,2024-06-04 16:15:32.060289
22.10077652,1.019397736,0.4046874046,-0.4535090923,2024-06-04 16:15:32.100777
22.1412762,-0.10987854,-0.7409100533,0.4697360992,2024-06-04 16:15:32.141276
22.18180089,-1.263815403,-0.6003494263,0.3442592621,2024-06-04 16:15:32.181801
22.22225548,-1.875186443,-1.629692554,1.032272816,2024-06-04 16:15:32.222255
22.26276079,-2.437974453,-2.421980858,0.6562905312,2024-06-04 16:15:32.262761
22.30324261,-0.9650835991,-2.52709198,-0.2779221535,2024-06-04 16:15:32.303243
22.34373068,0.7978796959,-2.672523499,-0.713722229,2024-06-04 16:15:32.343731
22.38421449,1.357527733,-1.852966309,-0.4152107239,2024-06-04 16:15:32.384214
22.42468938,0.9771399498,-2.249289274,-2.690255165,2024-06-04 16:15:32.424689
22.46517673,1.282708168,-0.8877854347,-1.97053194,2024-06-04 16:15:32.465177
22.50565657,3.139476299,0.7129421234,-2.651856899,2024-06-04 16:15:32.505657
22.54617647,2.755763531,0.9123623371,-1.803652763,2024-06-04 16:15:32.546176
22.58671949,4.095221519,2.482158422,-1.817978382,2024-06-04 16:15:32.586719
22.6271473,4.227398872,2.766698122,-1.914528847,2024-06-04 16:15:32.627147
22.6676335,2.99806881,2.098780394,-1.500898361,2024-06-04 16:15:32.667634
22.708121,2.205094814,1.186154366,-0.8902711868,2024-06-04 16:15:32.708121
22.74861058,0.6935091019,0.08899307251,-0.007183074951,2024-06-04 16:15:32.748611
22.78909761,-0.1384677887,-0.173807621,0.9904060364,2024-06-04 16:15:32.789098
22.82958511,-1.010174274,-0.3582291603,1.484856129,2024-06-04 16:15:32.829585
22.87007261,-1.978564739,-2.309558868,0.694411993,2024-06-04 16:15:32.870073
22.91053376,-1.213644028,-1.423093796,1.394590139,2024-06-04 16:15:32.910534
22.95102115,-1.661277771,-1.10222578,1.13449049,2024-06-04 16:15:32.951021
22.99150891,-2.49069643,-1.477291584,2.384136915,2024-06-04 16:15:32.991509
23.03204193,-3.257822514,-1.109069824,2.102368832,2024-06-04 16:15:33.032042
23.072516,-2.108095169,-1.134834766,1.799288988,2024-06-04 16:15:33.072516
23.11298407,-0.4180579185,-0.7090706825,0.4194631577,2024-06-04 16:15:33.112984
23.15349193,1.158085823,0.5825033188,0.1720814705,2024-06-04 16:15:33.153492
23.19398766,0.1630191803,0.04296922684,0.4546027184,2024-06-04 16:15:33.193988
23.23447594,-1.117541313,-0.9849586487,0.397395134,2024-06-04 16:15:33.234476
23.27494324,-1.678558826,-1.583300591,0.836359024,2024-06-04 16:15:33.274943
23.31545339,-1.929090977,-1.808558464,0.4226198196,2024-06-04 16:15:33.315453
23.3559199,-1.607697964,-1.894761562,-0.2765636444,2024-06-04 16:15:33.355920
23.39642277,0.4462170601,-2.607107162,-0.6127252579,2024-06-04 16:15:33.396423
23.4369335,0.2513260841,-2.448868275,-1.063842773,2024-06-04 16:15:33.436933
23.47742178,0.6160302162,-1.648402452,-1.762059212,2024-06-04 16:15:33.477422
23.51787818,0.929494381,-1.21195817,-1.98473978,2024-06-04 16:15:33.517878
23.55837891,2.881317377,-0.1836547852,-2.527171135,2024-06-04 16:15:33.558379
23.5988836,4.47300005,1.475685716,-2.267785549,2024-06-04 16:15:33.598884
23.63940516,3.882986546,1.990149021,-1.517062187,2024-06-04 16:15:33.639405
23.67979881,3.757294893,1.758084893,-1.478312492,2024-06-04 16:15:33.679799
23.72028683,3.426862478,2.135257483,-1.118113518,2024-06-04 16:15:33.720287
23.7607749,2.559538841,1.762391806,-0.6013503075,2024-06-04 16:15:33.760775
23.80127376,0.9126996994,0.2533345222,0.3507637978,2024-06-04 16:15:33.801274
23.84179016,-0.3998794556,-0.6456751823,1.478771687,2024-06-04 16:15:33.841790
23.88227949,-0.9964976311,-0.1553301811,1.120236158,2024-06-04 16:15:33.882279
23.9227449,-2.05950737,-1.496077061,0.8249237537,2024-06-04 16:15:33.922745
23.96324152,-0.8492660522,-1.471702576,1.091710091,2024-06-04 16:15:33.963242
24.00373475,-1.098255634,-0.8255691528,1.451551199,2024-06-04 16:15:34.003735
24.04421261,-2.747142315,-1.469791889,1.747284651,2024-06-04 16:15:34.044213
24.08471329,-2.881849289,-0.9450078011,1.780151844,2024-06-04 16:15:34.084713
24.12519902,-2.007009983,-0.8794550896,1.354956627,2024-06-04 16:15:34.125199
24.16568459,-1.318796158,-0.6235122681,0.3750977516,2024-06-04 16:15:34.165685
24.20619298,0.3116059303,0.5136065483,-0.2094287872,2024-06-04 16:15:34.206193
24.24670063,-0.5481619835,-0.1593375206,0.2640020847,2024-06-04 16:15:34.246701
24.28721558,-0.8759026527,-1.154432774,0.3194897175,2024-06-04 16:15:34.287216
24.32765402,-1.116253376,-1.176118851,0.2183332443,2024-06-04 16:15:34.327654
24.36813907,-2.626731873,-1.74846983,-0.005871772766,2024-06-04 16:15:34.368139
24.40861907,-0.9141898155,-2.103891373,-0.07549715042,2024-06-04 16:15:34.408619
24.44909996,0.4280376434,-2.178196907,-0.4414000511,2024-06-04 16:15:34.449100
24.48958162,-0.3734993935,-2.728838444,-0.417412281,2024-06-04 16:15:34.489582
24.53005704,0.06788682938,-2.290333271,-1.773229599,2024-06-04 16:15:34.530057
24.57054459,0.5306019783,-1.511655807,-2.308942795,2024-06-04 16:15:34.570545
24.61103058,1.464700699,-1.100069523,-2.996336699,2024-06-04 16:15:34.611031
24.65151553,2.922866106,0.6581361294,-2.771255016,2024-06-04 16:15:34.651516
24.69199115,3.613350153,1.638674855,-2.278634071,2024-06-04 16:15:34.691991
24.73251074,4.225968361,2.213806629,-2.151807308,2024-06-04 16:15:34.732511
24.77301735,4.075217247,2.688702106,-2.571480513,2024-06-04 16:15:34.773017
24.81351433,2.910824299,1.897165298,-1.812248945,2024-06-04 16:15:34.813514
24.85399808,0.8204259872,0.86733675,-1.081629753,2024-06-04 16:15:34.853998
24.89449094,-0.3008146286,-0.02777528763,0.521750927,2024-06-04 16:15:34.894491
24.93495136,-0.9441299438,-0.6775426865,1.002056122,2024-06-04 16:15:34.934951
24.97546537,-1.525109768,-1.579190731,1.18830204,2024-06-04 16:15:34.975465
25.01593943,-0.8585295677,-2.067493439,1.476954222,2024-06-04 16:15:35.015939
25.05642647,0.1903882027,-0.9919109344,1.85125351,2024-06-04 16:15:35.056426
25.09691553,-1.541882038,-0.8436927795,1.589473248,2024-06-04 16:15:35.096916
25.13741272,-2.741313934,-1.268614769,2.076056242,2024-06-04 16:15:35.137413
25.17785084,-2.688262939,-0.8348321915,1.735723972,2024-06-04 16:15:35.177851
25.2183723,-0.5006532669,-0.5635685921,1.60947752,2024-06-04 16:15:35.218372
25.25887923,0.2811541557,-0.6726584435,0.9316267967,2024-06-04 16:15:35.258879
25.29936818,0.1097979546,-0.1648669243,0.869705677,2024-06-04 16:15:35.299368
25.339856,-0.6780567169,-0.3456959724,0.8093225956,2024-06-04 16:15:35.339856
25.3803112,-1.769515991,-1.107557774,0.9352355003,2024-06-04 16:15:35.380311
25.42078266,-0.8486375809,-0.8888654709,0.6464827061,2024-06-04 16:15:35.420783
25.46127042,-0.961979866,-1.701115608,0.2594242096,2024-06-04 16:15:35.461270
25.50179891,-0.657936573,-1.885408878,0.4598565102,2024-06-04 16:15:35.501799
25.54227824,0.9687957764,-1.531133175,-0.5394897461,2024-06-04 16:15:35.542278
25.5827599,-0.6939845085,-1.974712849,0.1522674561,2024-06-04 16:15:35.582760
25.62327636,0.5427312851,-2.306365728,-0.9817743301,2024-06-04 16:15:35.623276
25.66380511,0.9134721756,-1.133281946,-1.752786636,2024-06-04 16:15:35.663805
25.70429313,1.094883919,-1.166578054,-2.421943188,2024-06-04 16:15:35.704293
25.74471355,2.633129597,0.3236765862,-2.239169598,2024-06-04 16:15:35.744714
25.78520011,3.828004599,1.940800667,-2.025261402,2024-06-04 16:15:35.785200
25.8257073,3.613470078,2.202378035,-1.860780716,2024-06-04 16:15:35.825707
25.86617824,3.786229134,2.552420616,-1.475082397,2024-06-04 16:15:35.866178
25.90668641,2.684985161,1.93803668,-1.637601852,2024-06-04 16:15:35.906686
25.94712292,2.253205299,1.326954365,-1.069495201,2024-06-04 16:15:35.947123
25.98765808,-0.1367411613,-0.1826710701,0.1203069687,2024-06-04 16:15:35.987658
26.02815449,-0.8257293701,-0.1193637848,0.6135249138,2024-06-04 16:15:36.028154
26.06862188,-0.9101352692,0.1372952461,0.5595355034,2024-06-04 16:15:36.068622
26.10912917,-2.035711288,-1.550248623,0.5869402885,2024-06-04 16:15:36.109129
26.14961714,-1.48682785,-1.567349911,1.753971815,2024-06-04 16:15:36.149617
26.1900648,-1.349749565,-1.148584366,1.472753525,2024-06-04 16:15:36.190065
26.23055272,-1.574981689,-0.6428217888,2.376125574,2024-06-04 16:15:36.230553
26.27104074,-1.695300102,-1.243824005,2.274960041,2024-06-04 16:15:36.271041
26.3115647,-1.364419937,-1.199242115,1.989394665,2024-06-04 16:15:36.311565
26.35202667,0.2158031464,-0.471476078,0.9737200737,2024-06-04 16:15:36.352027
26.39254183,0.5290822983,-0.5177402496,0.8483338356,2024-06-04 16:15:36.392542
26.43301464,-0.1420478821,-0.1891336441,1.117793798,2024-06-04 16:15:36.433015
26.47350256,-0.4012088776,-0.4000582695,0.6268513203,2024-06-04 16:15:36.473503
26.51402058,-0.8790402412,-0.5107064247,0.8878619671,2024-06-04 16:15:36.514021
26.55448496,-1.171349525,-0.7931432724,0.5090787411,2024-06-04 16:15:36.554485
26.59498886,-1.386782646,-1.750428677,0.4363546371,2024-06-04 16:15:36.594989
26.63546709,-0.350935936,-1.741028786,0.499894619,2024-06-04 16:15:36.635467
26.67595943,0.354434967,-1.72683239,0.1566915512,2024-06-04 16:15:36.675959
26.71644777,0.6802587509,-1.471953869,-0.6469788551,2024-06-04 16:15:36.716448
26.75692824,1.841745853,-1.266829729,-1.584907055,2024-06-04 16:15:36.756928
26.79739542,1.128176689,-1.195384979,-1.954635143,2024-06-04 16:15:36.797395
26.8378848,2.065155506,-0.2330541611,-1.69489193,2024-06-04 16:15:36.837885
26.87839496,3.108962774,1.174287319,-0.9810876846,2024-06-04 16:15:36.878395
26.91885714,3.970626354,1.572855711,-1.59137249,2024-06-04 16:15:36.918857
26.95934548,4.527406216,2.547804832,-1.281822681,2024-06-04 16:15:36.959345
26.99983381,4.296950817,2.738936424,-0.9751782417,2024-06-04 16:15:36.999834
27.04030803,2.130324841,1.13048315,0.02143859863,2024-06-04 16:15:37.040308
27.0807961,0.1000347137,-0.2793898582,1.230559826,2024-06-04 16:15:37.080796
27.12128256,-0.3068776131,-0.3754358292,1.441214323,2024-06-04 16:15:37.121283
27.16177292,0.2316560745,0.4881286621,2.104266644,2024-06-04 16:15:37.161773
27.2022786,-1.297272682,-0.9647874832,1.739567518,2024-06-04 16:15:37.202279
27.24281188,-1.602590561,-1.884227276,1.82309413,2024-06-04 16:15:37.242812
27.28331865,-1.277293205,-1.112680435,1.766363144,2024-06-04 16:15:37.283319
27.32376303,-2.389803886,-0.647482872,1.498710632,2024-06-04 16:15:37.323763
27.36425662,-1.954656124,-0.9134755135,1.968281507,2024-06-04 16:15:37.364257
27.40475048,-2.748832703,-0.2129964828,2.104040861,2024-06-04 16:15:37.404750
27.44524954,-0.1360807419,-0.8970565796,1.506439447,2024-06-04 16:15:37.445250
27.48572256,0.1676898003,-0.5660691261,0.9601595402,2024-06-04 16:15:37.485723
27.52619673,0.597571373,0.2324919701,0.5591847897,2024-06-04 16:15:37.526197
27.56670391,-0.2044196129,-0.9824280739,0.7255578041,2024-06-04 16:15:37.566704
27.60717006,-1.031031132,-1.008046627,0.9293646812,2024-06-04 16:15:37.607170
27.6476598,-0.6819343567,-0.259724617,0.4027945995,2024-06-04 16:15:37.647660
27.68815079,-1.61026001,-1.403246403,0.8366045952,2024-06-04 16:15:37.688151
27.72863032,-0.7866039276,-1.85310173,0.2734465599,2024-06-04 16:15:37.728630
27.76911511,0.8700723648,-1.526608467,0.5320372581,2024-06-04 16:15:37.769115
27.80963214,0.04094982147,-2.321058273,-0.1428141594,2024-06-04 16:15:37.809632
27.85012063,-0.04064083099,-1.559013128,-1.174386978,2024-06-04 16:15:37.850121
27.89060917,0.04064512253,-1.660883188,-1.991162777,2024-06-04 16:15:37.890609
27.93106777,2.240091801,-0.6436035633,-2.634840488,2024-06-04 16:15:37.931068
27.97155923,4.334208488,0.8234391212,-2.183099747,2024-06-04 16:15:37.971559
28.01204912,3.840816498,2.80047226,-2.174898863,2024-06-04 16:15:38.012049
28.0525461,4.214324951,2.953257084,-2.163650036,2024-06-04 16:15:38.052546
28.09303865,2.399508476,1.993774414,-0.9743390083,2024-06-04 16:15:38.093039
28.13351527,3.083991289,1.596384764,-0.771835804,2024-06-04 16:15:38.133515
28.1740062,1.266224384,0.7257871628,0.3377537727,2024-06-04 16:15:38.174006
28.21450699,-0.6321940422,-0.4969449043,1.75060463,2024-06-04 16:15:38.214507
28.25498402,-0.6732831001,-1.065150738,1.48421073,2024-06-04 16:15:38.254984
28.29546324,-1.611883163,-0.8089675903,1.127707005,2024-06-04 16:15:38.295463
28.33595006,-1.474189281,-0.8133182526,0.5788753033,2024-06-04 16:15:38.335950
28.37644568,-0.6593017578,-0.573568821,1.029957771,2024-06-04 16:15:38.376446
28.41694751,-3.403602123,-1.273370266,1.510269165,2024-06-04 16:15:38.416948
28.45744048,-2.757909298,-0.7996182442,1.645821571,2024-06-04 16:15:38.457440
28.49790381,-1.989029884,-0.7842311859,1.172800303,2024-06-04 16:15:38.497904
28.53838292,-0.6332473755,-1.159400463,0.9171874523,2024-06-04 16:15:38.538383
28.57889079,0.4578051567,-0.113132,0.05394744873,2024-06-04 16:15:38.578891
28.61935209,0.390024662,0.09098768234,0.4246094227,2024-06-04 16:15:38.619352
28.65982225,-1.296935081,0.01235437393,-0.1101386547,2024-06-04 16:15:38.659822
28.70033266,-1.942389965,-0.4109163284,0.1936411858,2024-06-04 16:15:38.700333
28.74082079,-1.851899624,-1.48313427,0.6996250153,2024-06-04 16:15:38.740821
28.78130829,-1.430269718,-1.359738827,-0.307246685,2024-06-04 16:15:38.781308
28.82183095,-0.9206018448,-1.578442097,0.3232159615,2024-06-04 16:15:38.821831
28.86230985,0.9096727371,-2.550136089,-0.4666090012,2024-06-04 16:15:38.862310
28.90281157,0.5418701172,-2.182442188,-0.7426276207,2024-06-04 16:15:38.902812
28.9432587,1.345558643,-1.670720577,-1.565486431,2024-06-04 16:15:38.943259
28.98379615,1.366606712,-1.18996048,-1.623181343,2024-06-04 16:15:38.983796
29.02425996,2.934929371,0.06300020218,-1.838943958,2024-06-04 16:15:39.024260
29.06475475,3.600045204,1.078860283,-1.474917412,2024-06-04 16:15:39.064755
29.10525912,4.261178017,2.164008141,-1.253006458,2024-06-04 16:15:39.105259
29.14574058,4.461993217,2.477761745,-1.185595512,2024-06-04 16:15:39.145741
29.18620865,3.943631649,2.135725737,-0.8532109261,2024-06-04 16:15:39.186209
29.22673709,2.056508064,0.9757936001,-0.07756662369,2024-06-04 16:15:39.226737
29.26719496,0.4151124954,-0.4970912933,0.8979101181,2024-06-04 16:15:39.267195
29.30767167,-0.5977530479,-1.063480854,1.605854511,2024-06-04 16:15:39.307672
29.34817303,-1.489649296,-1.185103416,1.687212706,2024-06-04 16:15:39.348173
29.38867277,-3.464600563,-3.039784908,1.354186773,2024-06-04 16:15:39.388673
29.4291611,-0.880900383,-0.6681780815,1.365277529,2024-06-04 16:15:39.429161
29.46959266,-1.368535995,-0.1538481712,1.380142689,2024-06-04 16:15:39.469593
29.51008105,-2.748152733,-1.570132732,2.397320271,2024-06-04 16:15:39.510081
29.55056943,-2.091911793,-0.1621761322,1.322353125,2024-06-04 16:15:39.550569
29.59105772,-0.9723062515,-0.6526479721,1.213016033,2024-06-04 16:15:39.591058
29.6316024,-0.081594944,-0.4127225876,0.344096899,2024-06-04 16:15:39.631602
29.67209558,-0.03852939606,-0.07813453674,0.3088889122,2024-06-04 16:15:39.672096
29.71258386,-1.433223248,-0.556886673,0.6615157127,2024-06-04 16:15:39.712584
29.75305949,-0.5860080719,-0.8220243454,-0.3029918671,2024-06-04 16:15:39.753059
29.79358298,-1.777804852,-1.708753586,0.207154274,2024-06-04 16:15:39.793583
29.83401615,-2.343718529,-1.838594913,-0.4311323166,2024-06-04 16:15:39.834016
29.874536,-0.9497447014,-2.261820793,-1.177217484,2024-06-04 16:15:39.874536
29.9150236,-0.2146100998,-2.965640545,-0.3505311012,2024-06-04 16:15:39.915024
29.95546214,0.9048109055,-2.869249344,-1.732608318,2024-06-04 16:15:39.955462
29.99602407,-0.3794775009,-1.030060768,-1.826705456,2024-06-04 16:15:39.996024
30.03648459,1.262576103,0.1430101395,-2.573870182,2024-06-04 16:15:40.036485
30.07696027,2.275892258,-0.5025875568,-2.509101391,2024-06-04 16:15:40.076960
30.11745417,3.36695838,1.172728777,-2.975810766,2024-06-04 16:15:40.117454
30.15795365,3.412531376,2.253420353,-2.390280724,2024-06-04 16:15:40.157954
30.19838808,4.40639925,3.036996365,-2.582799911,2024-06-04 16:15:40.198388
30.23891532,3.384500742,2.022131205,-2.144188166,2024-06-04 16:15:40.238915
30.27940381,1.614283085,0.7266225815,-1.177110195,2024-06-04 16:15:40.279404
30.31989214,0.2213754654,-0.04687690735,-0.8833694458,2024-06-04 16:15:40.319892
30.36038053,-1.470352173,-0.8269314766,0.007129669189,2024-06-04 16:15:40.360381
30.40086881,-2.604663372,-1.351836205,0.3329310417,2024-06-04 16:15:40.400869
30.44131657,-1.819311619,-2.507894516,0.5806696415,2024-06-04 16:15:40.441317
30.4818247,-0.4966845512,-1.128190041,1.696649075,2024-06-04 16:15:40.481825
30.52235256,-2.158948898,-1.563579559,1.348967552,2024-06-04 16:15:40.522353
30.56283584,-1.966982365,-1.068707466,1.646988869,2024-06-04 16:15:40.562836
30.60331261,-2.399171829,-1.246688366,1.476229429,2024-06-04 16:15:40.603313
30.64379647,-0.6755552292,-0.5146522522,0.848429203,2024-06-04 16:15:40.643796
30.68428147,0.1085038185,-0.4332928658,0.3205180168,2024-06-04 16:15:40.684281
30.7247662,0.5410952568,-0.4286665916,0.6936202049,2024-06-04 16:15:40.724766
30.76525688,-0.01546907425,0.13403368,0.6111655235,2024-06-04 16:15:40.765257
30.80577193,-0.6336522102,-1.188066959,1.119995594,2024-06-04 16:15:40.805772
30.84626553,-2.146130562,-2.614909172,0.9984846115,2024-06-04 16:15:40.846266
30.88672683,-1.4972682,-1.877664566,0.2679281235,2024-06-04 16:15:40.886727
30.9271985,-2.307607174,-2.315747261,-0.2073230743,2024-06-04 16:15:40.927198
30.96768345,0.7068428993,-2.830779076,-0.5838241577,2024-06-04 16:15:40.967683
31.00819298,0.8813767433,-1.991187572,-1.806664944,2024-06-04 16:15:41.008193
31.04870251,1.957814217,-0.4735627174,-1.781186104,2024-06-04 16:15:41.048703
31.08918782,1.651699066,-0.9789054394,-2.399832487,2024-06-04 16:15:41.089188
31.12966803,1.660918236,0.002917289734,-1.986128807,2024-06-04 16:15:41.129668
31.17013266,2.802755117,0.7168536186,-2.239913464,2024-06-04 16:15:41.170133
31.21059678,5.152937412,3.066111803,-2.138753891,2024-06-04 16:15:41.210597
31.25108386,5.083370209,2.677895546,-1.073814392,2024-06-04 16:15:41.251084
31.29159943,3.592276573,1.71189189,-0.3226351738,2024-06-04 16:15:41.291599
31.33210475,1.162313938,0.4045319557,-0.07741165161,2024-06-04 16:15:41.332105
31.37262022,-0.6979198456,-0.5414390564,-0.06948518753,2024-06-04 16:15:41.372620
31.41309006,-1.120677471,-0.1768932343,0.5168514252,2024-06-04 16:15:41.413090
31.45356225,-1.205350399,-0.5447359085,0.5081386566,2024-06-04 16:15:41.453562
31.4940447,-1.035478115,-1.340283394,0.9173760414,2024-06-04 16:15:41.494045
31.53453829,-1.073901653,-1.853102684,1.57743907,2024-06-04 16:15:41.534538
31.5750297,-1.83295536,-1.349528313,1.489229441,2024-06-04 16:15:41.575030
31.61553121,-2.477998257,-2.022798538,1.85066843,2024-06-04 16:15:41.615531
31.65602443,-1.949108601,-1.883985519,2.256784678,2024-06-04 16:15:41.656024
31.69651152,-0.5056624413,-0.9861111641,1.821686268,2024-06-04 16:15:41.696512
31.73697157,0.2786574364,0.5758957863,0.3033139706,2024-06-04 16:15:41.736972
31.77745881,-0.5352606773,0.03646230698,0.01249814034,2024-06-04 16:15:41.777459
31.81795871,-2.122038364,-0.5393304825,0.5614321232,2024-06-04 16:15:41.817959
31.85848433,-0.4236149788,-0.3050599098,-0.01797199249,2024-06-04 16:15:41.858484
31.8989562,-1.550636292,-1.845467091,0.05106592178,2024-06-04 16:15:41.898956
31.93939402,-1.472342014,-2.68287611,-0.03223276138,2024-06-04 16:15:41.939394
31.97988266,-0.3358769417,-2.401083469,-0.3299679756,2024-06-04 16:15:41.979883
32.02037131,-0.334022522,-2.895646572,-0.7513418198,2024-06-04 16:15:42.020371
32.06085996,0.1023116112,-3.534049749,-1.764866829,2024-06-04 16:15:42.060860
32.1013486,1.661266804,-1.581891298,-2.226391315,2024-06-04 16:15:42.101349
32.14184766,3.451675653,0.5404307842,-2.7479949,2024-06-04 16:15:42.141848
32.18235735,2.481759071,0.6984078884,-1.840622902,2024-06-04 16:15:42.182357
32.22283068,3.44689703,1.84442699,-2.196285248,2024-06-04 16:15:42.222831
32.26333193,3.671912432,2.707375526,-2.127624512,2024-06-04 16:15:42.263332
32.30380334,3.661474228,2.599699497,-2.357364178,2024-06-04 16:15:42.303803
32.34432079,2.618295193,1.929475784,-1.63812685,2024-06-04 16:15:42.344321
32.38480412,1.10372591,0.6454615593,-0.9171943665,2024-06-04 16:15:42.384804
32.42529985,-0.08369779587,-0.299220562,-0.376888752,2024-06-04 16:15:42.425300
32.46578824,-1.016099453,-0.7894997597,0.308052063,2024-06-04 16:15:42.465788
32.50628449,-2.417103291,-3.25498867,0.1947724819,2024-06-04 16:15:42.506284
32.54673506,-3.216722488,-2.505008221,2.053106546,2024-06-04 16:15:42.546735
32.58725235,-2.622008324,-1.319521904,1.531205893,2024-06-04 16:15:42.587252
32.62771735,-1.099138737,-0.1598033905,0.8717522621,2024-06-04 16:15:42.627717
32.66821563,-1.336195469,-0.3985509872,0.6320254803,2024-06-04 16:15:42.668216
32.70870397,-2.472584724,-0.516658783,0.8348910809,2024-06-04 16:15:42.708704
32.74916693,-0.8299674988,-0.8581900597,0.4534130096,2024-06-04 16:15:42.749167
32.78965527,0.008732318878,-0.5960607529,0.4347889423,2024-06-04 16:15:42.789655
32.83014355,0.03706741333,0.03566455841,0.2862510681,2024-06-04 16:15:42.830144
32.87063193,-1.814286709,-1.69986105,0.549131155,2024-06-04 16:15:42.870632
32.9111023,-1.577994347,-1.127343655,-0.4831895828,2024-06-04 16:15:42.911102
32.95159058,-1.497862339,-1.921985626,0.3909406662,2024-06-04 16:15:42.951591
32.99212058,-1.499071598,-2.65392971,0.1477313042,2024-06-04 16:15:42.992121
33.03260209,1.714373112,-1.957330227,-0.6976270676,2024-06-04 16:15:43.032602
33.07307902,-0.1157956123,-2.574472427,-0.7136912346,2024-06-04 16:15:43.073079
33.11359178,0.7934260368,-1.616097689,-2.110381603,2024-06-04 16:15:43.113592
33.15408464,0.8233714104,-1.673956156,-1.622300625,2024-06-04 16:15:43.154085
33.19454641,1.274929523,-0.2457337379,-2.450214386,2024-06-04 16:15:43.194546
33.23503964,2.710828066,0.7916743755,-2.371798515,2024-06-04 16:15:43.235040
33.27555751,6.078466892,2.957691908,-2.494912148,2024-06-04 16:15:43.275558
33.31600912,5.872686863,2.969645262,-2.39157939,2024-06-04 16:15:43.316009
33.35655397,2.844489574,0.6715664864,-1.651080132,2024-06-04 16:15:43.356554
33.39701558,1.068557262,0.690097332,-0.7758550644,2024-06-04 16:15:43.397016
33.43749548,-0.2251706123,0.2700839043,-0.5336341858,2024-06-04 16:15:43.437495
33.47798355,-0.3888683319,-0.9819698334,0.05393218994,2024-06-04 16:15:43.477984
33.51844886,-1.405025482,-1.477482319,-0.05232596397,2024-06-04 16:15:43.518449
33.55896407,-1.391088486,-2.246088505,0.5894756317,2024-06-04 16:15:43.558964
33.59946162,-3.22728157,-1.52667284,1.738936901,2024-06-04 16:15:43.599462
33.6399497,-3.573757648,-0.2484025955,2.003507137,2024-06-04 16:15:43.639950
33.68040548,-2.515608788,-1.331099987,1.875396013,2024-06-04 16:15:43.680405
33.7208935,-1.471877575,-1.410708904,2.030570269,2024-06-04 16:15:43.720894
33.76138141,-0.5636162758,-1.136912346,0.9519348145,2024-06-04 16:15:43.761381
33.80188183,-0.611345768,0.03337240219,-0.7779078484,2024-06-04 16:15:43.801882
33.8423973,1.420613766,-0.1234250069,0.04232907295,2024-06-04 16:15:43.842397
33.88288324,-0.1299338341,-1.000534058,0.4100496769,2024-06-04 16:15:43.882883
33.92334001,-1.629023075,-0.7491803169,0.3045606613,2024-06-04 16:15:43.923340
33.96382334,-2.733839035,-1.539525032,-0.2012476921,2024-06-04 16:15:43.963823
34.00433855,-2.377649307,-1.870558262,-0.3513970375,2024-06-04 16:15:44.004339
34.04482441,-1.261077404,-2.863591194,-0.7123813629,2024-06-04 16:15:44.044824
34.08533197,-1.161407948,-2.903122425,-0.4896316528,2024-06-04 16:15:44.085332
34.12582624,1.22010231,-1.625380039,-1.665555954,2024-06-04 16:15:44.125826
34.16628832,2.761858702,-1.261850357,-2.558516502,2024-06-04 16:15:44.166288
34.20677842,2.143107891,-0.6547448635,-2.536086559,2024-06-04 16:15:44.206778
34.24726733,1.359973907,0.6699051857,-2.83191514,2024-06-04 16:15:44.247267
34.28775566,2.960066319,1.641404986,-2.930296183,2024-06-04 16:15:44.287756
34.32824504,4.298745155,2.744670391,-2.197312832,2024-06-04 16:15:44.328245
34.36873368,3.878023863,1.966778517,-1.614697933,2024-06-04 16:15:44.368734
34.40921046,2.307571411,0.6500151157,-1.395196438,2024-06-04 16:15:44.409210
34.44965936,1.648463249,0.6495437622,-1.713038206,2024-06-04 16:15:44.449659
34.49014785,0.3405580521,-0.1760516167,-0.7900514603,2024-06-04 16:15:44.490148
34.53063634,-1.824029446,-1.762570381,0.09202814102,2024-06-04 16:15:44.530636
34.57112494,-2.242380619,-1.38828516,0.3358426094,2024-06-04 16:15:44.571125
34.61161884,-1.77586937,-2.367646694,0.7746789455,2024-06-04 16:15:44.611619
34.65214223,-2.373966694,-2.270662308,1.240634918,2024-06-04 16:15:44.652142
34.69264686,-1.766033173,-1.685582161,1.618227243,2024-06-04 16:15:44.692647
34.73312384,-1.112208366,0.1972036362,1.439252138,2024-06-04 16:15:44.733124
34.77359587,-1.544108868,-1.503376007,1.709300041,2024-06-04 16:15:44.773596
34.81407796,-0.9541625977,-1.61499548,0.7202649117,2024-06-04 16:15:44.814078
34.85457863,-0.5600175858,-0.9857115746,0.2618794441,2024-06-04 16:15:44.854579
34.89506395,-1.064308643,0.1723947525,0.1480293274,2024-06-04 16:15:44.895064
34.93550884,-1.502025127,-0.03603315353,-0.4595274925,2024-06-04 16:15:44.935509
34.97601863,-2.847877026,-0.8987841606,-2.174459934,2024-06-04 16:15:44.976019
35.01654165,-5.089539528,-1.197241783,-1.969214201,2024-06-04 16:15:45.016542
35.05704535,-3.903151989,-2.251567841,-1.457456112,2024-06-04 16:15:45.057045
35.09752816,0.02877759933,-3.19560957,-2.051733971,2024-06-04 16:15:45.097528
35.13801822,1.378005981,-3.057832003,-1.700572491,2024-06-04 16:15:45.138018
35.17849129,1.180469036,-1.925595045,-2.362725735,2024-06-04 16:15:45.178491
35.21897613,1.748844147,0.05265641212,-2.939690113,2024-06-04 16:15:45.218976
35.25946728,2.250563622,0.2959570885,-2.617382526,2024-06-04 16:15:45.259467
35.29993702,1.138665676,-0.4075596333,-1.808421135,2024-06-04 16:15:45.299937
35.34041598,3.269279242,1.592545986,-2.213858604,2024-06-04 16:15:45.340416
35.38090436,4.150453091,2.55023241,-2.578180313,2024-06-04 16:15:45.380904
35.4213927,4.058561325,2.397333622,-2.303682804,2024-06-04 16:15:45.421393
35.46188103,2.543990612,1.559946299,-1.581032276,2024-06-04 16:15:45.461881
35.50239468,1.337665081,0.3966031075,-1.049745083,2024-06-04 16:15:45.502395
35.54287129,0.4066605568,-1.633265495,0.02143287659,2024-06-04 16:15:45.542871
35.58336447,-1.773302078,-2.38506031,0.7678470612,2024-06-04 16:15:45.583364
35.62384223,-2.956669807,-2.961116791,1.705054998,2024-06-04 16:15:45.623842
35.66434921,-1.55798912,-2.322626591,2.207957983,2024-06-04 16:15:45.664349
35.70483759,-1.371778965,-1.060538292,1.391272068,2024-06-04 16:15:45.704838
35.74530056,-2.129209995,-0.4815826416,1.485988379,2024-06-04 16:15:45.745301
35.78581884,-1.9758811,-0.84227705,1.794763565,2024-06-04 16:15:45.785819
35.82629613,-1.300492287,-0.7378482819,1.416989565,2024-06-04 16:15:45.826296
35.86680098,-1.35281086,-0.3538651466,0.6812119484,2024-06-04 16:15:45.866801
35.90728941,-0.4775280952,-0.3597869873,0.6296424866,2024-06-04 16:15:45.907289
35.94774035,-0.4118490219,-0.1552171707,0.7858629227,2024-06-04 16:15:45.947740
35.98827306,-1.127038956,-1.16236496,0.9552435875,2024-06-04 16:15:45.988273
36.02872936,-1.105558872,-1.074917316,0.252712965,2024-06-04 16:15:46.028729
36.06922483,-0.9237208366,-1.67972374,0.1717448235,2024-06-04 16:15:46.069225
36.10971275,-1.337520123,-1.816048622,-0.3683490753,2024-06-04 16:15:46.109713
36.15020447,0.1325888634,-1.982643127,-0.2010030746,2024-06-04 16:15:46.150204
36.19069238,0.502989769,-2.492881775,-0.08763837814,2024-06-04 16:15:46.190692
36.2311803,0.7596435547,-1.548146486,-1.856620312,2024-06-04 16:15:46.231180
36.27166968,2.495521545,-1.353006124,-2.690752268,2024-06-04 16:15:46.271670
36.31215676,1.16037941,-0.5032556057,-1.876327991,2024-06-04 16:15:46.312157
36.35262681,3.585606575,0.539175272,-2.053961277,2024-06-04 16:15:46.352627
36.39313561,4.935258865,2.308327198,-2.606873274,2024-06-04 16:15:46.393136
36.43361092,4.925937653,2.184105158,-1.999740601,2024-06-04 16:15:46.433611
36.47409936,3.33561492,2.244950294,-1.460105419,2024-06-04 16:15:46.474099
36.51459332,1.411445141,1.390663385,-1.038373947,2024-06-04 16:15:46.514593
36.55511249,0.1024880409,0.1971988678,-0.2189679146,2024-06-04 16:15:46.555112
36.59556499,-1.399050713,-0.5949983597,0.1094272137,2024-06-04 16:15:46.595565
36.63604749,-1.176549911,-1.422282696,0.9207103252,2024-06-04 16:15:46.636047
36.6765465,-1.571555138,-2.71461916,0.693269968,2024-06-04 16:15:46.676547
36.71699259,-1.685021877,-0.6374115944,1.705950499,2024-06-04 16:15:46.716993
36.75752686,-3.24572134,-1.057174206,1.367655039,2024-06-04 16:15:46.757527
36.7980028,-2.458474636,-1.282631397,0.979631424,2024-06-04 16:15:46.798003
36.83849113,-1.493135452,-1.291341782,1.16819334,2024-06-04 16:15:46.838491
36.87899077,-1.141370296,-1.049096584,0.3552088737,2024-06-04 16:15:46.878991
36.91947806,-0.6247758865,0.8086299896,-0.7900857925,2024-06-04 16:15:46.919478
36.95991327,-2.514053822,0.5734977722,-0.01472806931,2024-06-04 16:15:46.959913
37.00040155,-1.576973438,-0.3094205856,1.065200567,2024-06-04 16:15:47.000402
37.04088988,-0.4935736656,-0.991692543,-0.9458904266,2024-06-04 16:15:47.040890
37.08139447,-2.096464634,-2.659773827,0.5152215958,2024-06-04 16:15:47.081394
37.12191421,-1.299764633,-1.178130627,-0.6900238991,2024-06-04 16:15:47.121914
37.16240244,-1.207118034,-2.210999489,-0.7913284302,2024-06-04 16:15:47.162402
37.20289499,-2.10956049,-2.438709736,-1.287628174,2024-06-04 16:15:47.202895
37.2433827,0.4322552681,-1.128293991,-2.110166073,2024-06-04 16:15:47.243383
37.28386681,2.880847216,-2.136346817,-2.374261856,2024-06-04 16:15:47.283867
37.32435629,3.243530273,-1.136465073,-1.79005146,2024-06-04 16:15:47.324356
37.36485738,1.300098419,-0.1938252449,-2.149249077,2024-06-04 16:15:47.364857
37.4053377,1.736551285,0.5222122669,-1.996718407,2024-06-04 16:15:47.405338
37.44581681,3.844533682,2.684835434,-2.184182167,2024-06-04 16:15:47.445817
37.48630671,5.041405678,2.870674372,-1.939866066,2024-06-04 16:15:47.486307
37.52680546,3.206119061,2.101079464,-1.675440788,2024-06-04 16:15:47.526805
37.56729561,1.711985111,0.7845292091,-0.9126887321,2024-06-04 16:15:47.567296
37.60776046,0.183409214,-0.07443094254,-0.3669662476,2024-06-04 16:15:47.607760
37.64826332,-1.065736294,-0.791451931,0.9854011536,2024-06-04 16:15:47.648263
37.6887729,-2.90205431,-0.776184082,0.9930889606,2024-06-04 16:15:47.688773
37.72923863,-2.7186656,-1.408289909,0.5223562717,2024-06-04 16:15:47.729239
37.76968113,0.1787519455,-1.538037777,0.2109892368,2024-06-04 16:15:47.769681
37.81016968,-2.166004181,-1.638592243,0.05205631256,2024-06-04 16:15:47.810170
37.85065827,-2.956418991,-0.8652505875,0.9647459984,2024-06-04 16:15:47.850658
37.89114691,-2.325603962,-0.3738455772,1.488789797,2024-06-04 16:15:47.891147
37.93164889,-1.060367107,-1.145391941,1.846224546,2024-06-04 16:15:47.931649
37.97215759,-0.256175518,-0.3996353149,0.4222505093,2024-06-04 16:15:47.972158
38.01266483,-1.597208977,0.6100783348,0.4970769882,2024-06-04 16:15:48.012665
38.05313832,-2.688546181,-0.7292499542,0.6573214531,2024-06-04 16:15:48.053138
38.09362905,-1.853188515,-1.557682991,-0.3018212318,2024-06-04 16:15:48.093629
38.13411264,-1.967198372,-1.074215889,-0.08716535568,2024-06-04 16:15:48.134113
38.17459358,-1.605275631,-1.614935875,-1.015204906,2024-06-04 16:15:48.174594
38.21508066,-0.9502863884,-2.586767673,-1.621304512,2024-06-04 16:15:48.215081
38.25558228,0.8021988869,-2.584303856,-1.653036594,2024-06-04 16:15:48.255582
38.29606905,-0.5673141479,-1.214296341,-2.124026775,2024-06-04 16:15:48.296069
38.3365653,1.660682678,-0.603066206,-1.737935543,2024-06-04 16:15:48.336565
38.37706072,2.740760326,-1.299110651,-2.477111816,2024-06-04 16:15:48.377061
38.41757072,1.463281631,-1.74805212,-1.349397659,2024-06-04 16:15:48.417571
38.45806931,3.201458454,1.598146796,-2.078324795,2024-06-04 16:15:48.458069
38.49854186,4.266479015,3.060323,-2.06535244,2024-06-04 16:15:48.498542
38.5390152,4.804221153,2.926606655,-1.90077877,2024-06-04 16:15:48.539015
38.57951275,3.152877331,1.810144424,-1.31270504,2024-06-04 16:15:48.579513
38.61996994,0.8412022591,0.5996818542,-0.2968354225,2024-06-04 16:15:48.619970
38.66043915,-0.4951753616,0.06696748734,-0.05197763443,2024-06-04 16:15:48.660439
38.70090994,-1.584499359,-0.757876873,0.811662674,2024-06-04 16:15:48.700910
38.74142671,-3.558012486,-1.874971867,-0.009095907211,2024-06-04 16:15:48.741427
38.78194384,-2.197736263,-0.6552400589,-0.02266168594,2024-06-04 16:15:48.781944
38.82241723,-1.221773148,-0.6956787109,0.3490383625,2024-06-04 16:15:48.822417
38.8629216,-1.770738602,-0.8202605247,1.377180099,2024-06-04 16:15:48.862922
38.90337551,-2.57099247,-1.633290291,1.982907772,2024-06-04 16:15:48.903376
38.94385509,-2.441840172,-1.262348652,1.668887854,2024-06-04 16:15:48.943855
38.98438363,-0.8394351006,-1.451865673,0.9630403519,2024-06-04 16:15:48.984384
39.02486197,-0.9369893074,0.09406805038,-0.01967453957,2024-06-04 16:15:49.024862
39.06536056,0.2340860367,0.4357070923,-0.2207739353,2024-06-04 16:15:49.065361
39.10584389,0.1393136978,-0.4890627861,0.2862365246,2024-06-04 16:15:49.105844
39.14631306,-0.8976931572,-1.407115459,0.2930755615,2024-06-04 16:15:49.146313
39.18681879,-2.264986515,-1.974667072,0.03105449677,2024-06-04 16:15:49.186819
39.22729301,-2.24294138,-2.394322872,0.3802399635,2024-06-04 16:15:49.227293
39.26789077,-0.4333343506,-2.164757729,-0.1736512184,2024-06-04 16:15:49.267891
39.30828499,0.827103138,-2.998504162,-0.5906405449,2024-06-04 16:15:49.308285
39.34877337,1.44136858,-1.82895875,-1.72713995,2024-06-04 16:15:49.348773
39.38924004,1.174338341,-0.7695081234,-1.760817051,2024-06-04 16:15:49.389240
39.42972822,0.4577360153,-0.8332812786,-2.245948076,2024-06-04 16:15:49.429728
39.47021098,2.604820728,0.7388703823,-2.651580811,2024-06-04 16:15:49.470211
39.51069915,4.917089939,2.422274351,-2.370118141,2024-06-04 16:15:49.510699
39.55117681,5.345303535,3.437696218,-2.234502316,2024-06-04 16:15:49.551177
39.59167014,3.813285351,2.665503979,-1.855480671,2024-06-04 16:15:49.591670
39.63215832,1.804186344,0.9721655846,-1.522102118,2024-06-04 16:15:49.632158
39.67266691,0.04633808136,0.1037516594,-0.7241437435,2024-06-04 16:15:49.672667
39.71312718,-1.408575058,-0.6098613739,0.1433582306,2024-06-04 16:15:49.713127
39.75364941,-2.430657387,-1.393382072,0.602419138,2024-06-04 16:15:49.753649
39.79413921,-2.373918533,-2.784588814,0.5862464905,2024-06-04 16:15:49.794139
39.83465457,-0.5515651703,-0.4143147469,1.037932396,2024-06-04 16:15:49.834655
39.87512077,-1.707850933,-1.033540726,1.059596777,2024-06-04 16:15:49.875121
39.91557598,-1.976486206,-1.056589127,1.186589956,2024-06-04 16:15:49.915576
39.95604822,-2.586598873,-1.238931656,1.407436609,2024-06-04 16:15:49.956048
39.99656957,-1.058486462,-1.303941727,1.472702742,2024-06-04 16:15:49.996570
40.03705285,-0.3747882843,-0.2890315056,0.6796984673,2024-06-04 16:15:50.037053
40.07759499,-0.4061684608,-0.5623164177,0.9090821743,2024-06-04 16:15:50.077595
40.11805134,-0.3543167114,-0.02719593048,-0.02689957619,2024-06-04 16:15:50.118051
40.15851973,-0.2114033699,-0.8257694244,0.6005494595,2024-06-04 16:15:50.158520
40.19901676,-1.694509506,-2.072971344,-0.09176850319,2024-06-04 16:15:50.199017
40.23950504,-2.633354664,-1.465405941,-0.5312819481,2024-06-04 16:15:50.239505
40.27996827,-2.1677742,-1.468128681,-0.1971650124,2024-06-04 16:15:50.279968
40.32045608,-0.182516098,-2.53121376,-1.082342148,2024-06-04 16:15:50.320456
40.36094134,0.699139595,-2.139405727,-1.625597477,2024-06-04 16:15:50.360941
40.40142822,0.05849742889,-1.925158501,-1.335383415,2024-06-04 16:15:50.401428
40.44192488,1.531790257,-0.3279902935,-2.630511999,2024-06-04 16:15:50.441925
40.48242035,1.389178753,-0.2130684853,-2.882405758,2024-06-04 16:15:50.482420
40.52292556,4.884143829,2.105665445,-2.455233574,2024-06-04 16:15:50.522926
40.56341035,3.900878906,1.636341929,-2.442796707,2024-06-04 16:15:50.563410
40.60388207,3.735792637,2.189403057,-2.517602682,2024-06-04 16:15:50.603882
40.64436733,2.984834194,2.282211781,-2.003564596,2024-06-04 16:15:50.644367
40.68481868,1.730957031,1.587172031,-1.054713488,2024-06-04 16:15:50.684819
40.72532457,-0.4209537506,0.09407758713,-0.4608249664,2024-06-04 16:15:50.725325
40.76584191,-2.227388859,-1.351095676,0.31904459,2024-06-04 16:15:50.765842
40.806324,-2.184957027,-0.9771137238,-0.1551721096,2024-06-04 16:15:50.806324
40.84681931,-1.432199001,-1.742084026,0.4478530884,2024-06-04 16:15:50.846819
40.88729181,-1.605316162,-1.936674595,0.7060804367,2024-06-04 16:15:50.887292
40.92777009,-1.923585415,-0.83791399,0.3925523758,2024-06-04 16:15:50.927770
40.96825686,-2.682980537,-0.9598178864,0.8477985859,2024-06-04 16:15:50.968257
41.00877431,-3.501502514,-1.48885107,1.642483711,2024-06-04 16:15:51.008774
41.04928744,-1.689317703,-0.165178299,0.7122583389,2024-06-04 16:15:51.049287
41.0897754,-0.3577165604,-0.5505261421,0.3519766331,2024-06-04 16:15:51.089775
41.13026337,-0.214615345,-0.6617288589,0.4806325436,2024-06-04 16:15:51.130263
41.17075139,-0.8454909325,-0.6834740639,0.04838395119,2024-06-04 16:15:51.170751
41.21123936,-1.066099644,-1.133708477,0.01477766037,2024-06-04 16:15:51.211239
41.25172738,-2.431777,-1.481182098,-0.4776973724,2024-06-04 16:15:51.251727
41.29219754,-2.562973499,-1.85150528,-1.341170311,2024-06-04 16:15:51.292198
41.3326891,-1.889883041,-1.657053947,-0.9917988777,2024-06-04 16:15:51.332689
41.37317931,-0.02673387527,-2.702656746,-1.410667419,2024-06-04 16:15:51.373179
41.41364441,0.9910025597,-2.097003698,-1.985447407,2024-06-04 16:15:51.413644
41.45412212,3.880984783,-0.416394949,-1.164233685,2024-06-04 16:15:51.454122
41.4946278,0.8198056221,-1.055610418,-2.113129139,2024-06-04 16:15:51.494628
41.53510999,0.9560732841,-0.4936344624,-2.622275114,2024-06-04 16:15:51.535110
41.5756153,5.002543449,2.268445015,-2.685111284,2024-06-04 16:15:51.575615
41.61608921,5.318564415,2.908530474,-2.825825691,2024-06-04 16:15:51.616089
41.65657676,3.798458338,2.447739601,-1.747191429,2024-06-04 16:15:51.656577
41.69707139,2.167739391,0.9410352707,-0.8883318901,2024-06-04 16:15:51.697071
41.73754103,0.1305813789,-0.1197667122,-0.0552482605,2024-06-04 16:15:51.737541
41.77805525,-0.8096256256,-1.076841831,0.4302024841,2024-06-04 16:15:51.778055
41.81854374,-1.168351173,-1.047287941,0.332452774,2024-06-04 16:15:51.818544
41.85903707,-0.748816967,-1.263959885,0.3073499203,2024-06-04 16:15:51.859037
41.89953223,-1.306402206,-1.110373497,1.428483486,2024-06-04 16:15:51.899532
41.93997478,-2.625696659,-0.8894748688,1.460991383,2024-06-04 16:15:51.939975
41.98046296,-1.999804974,-1.52666235,1.570235968,2024-06-04 16:15:51.980463
42.02095124,-2.644453049,-1.458819866,1.521900654,2024-06-04 16:15:52.020951
42.06143941,-2.495005608,-1.210082054,1.877349615,2024-06-04 16:15:52.061439
42.10192697,-0.2996134758,-0.04273843765,0.9363148212,2024-06-04 16:15:52.101927
42.14243848,1.001253128,0.9940071106,0.1968924999,2024-06-04 16:15:52.142438
42.18293645,-0.2203650475,-1.022947788,1.327740192,2024-06-04 16:15:52.182936
42.22342468,-1.286224842,-0.8382339478,0.621863842,2024-06-04 16:15:52.223425
42.26389624,-2.120335579,-1.05650425,0.6303713322,2024-06-04 16:15:52.263896
42.3043865,-1.982089996,-1.807760715,-0.5324971676,2024-06-04 16:15:52.304386
42.34489072,-1.358909607,-1.280045509,-0.1425523758,2024-06-04 16:15:52.344891
42.3853629,-0.6987543106,-2.425435066,0.06175470352,2024-06-04 16:15:52.385363
42.42593431,0.3477487564,-2.176967621,-0.6012501717,2024-06-04 16:15:52.425934
42.46642264,2.747898579,-1.63455534,-2.269946575,2024-06-04 16:15:52.466423
42.50681707,2.415912151,-0.9663834572,-1.947615147,2024-06-04 16:15:52.506817
42.54737712,1.557959557,-0.4356582165,-1.511458397,2024-06-04 16:15:52.547377
42.58781822,3.030509472,0.9517741203,-1.465206146,2024-06-04 16:15:52.587818
42.62830051,4.644413471,2.549937725,-1.204753876,2024-06-04 16:15:52.628301
42.66879379,5.480604649,3.356805801,-1.186002254,2024-06-04 16:15:52.668794
42.70928212,5.108683109,2.069025517,-0.3658766747,2024-06-04 16:15:52.709282
42.74977056,3.233652115,-0.2439041138,-0.8167207241,2024-06-04 16:15:52.749771
42.79025889,0.33984375,-1.948366642,0.2428007126,2024-06-04 16:15:52.790259
42.83074728,-2.048450947,-0.884909153,1.233922243,2024-06-04 16:15:52.830747
42.87123514,-2.490490913,-0.763522625,1.510900497,2024-06-04 16:15:52.871235
42.91172343,-1.951899052,-1.263111115,1.962402821,2024-06-04 16:15:52.911723
42.95218363,-1.864301682,-1.444003105,1.216531277,2024-06-04 16:15:52.952184
42.99268384,-2.783536911,0.110625267,0.6608302593,2024-06-04 16:15:52.992684
43.0331853,-3.52611351,1.059703827,0.682706356,2024-06-04 16:15:53.033185
43.07366733,-3.335881233,0.2856426239,0.8614346981,2024-06-04 16:15:53.073667
43.11415561,-1.486638069,-1.189586639,0.3334534168,2024-06-04 16:15:53.114156
43.15463686,-1.160486221,-1.277366638,-0.2556006908,2024-06-04 16:15:53.154637
43.19514822,-2.125461578,-0.315015316,-0.6130177975,2024-06-04 16:15:53.195148
43.23564181,-3.485007763,-0.2258124352,-0.5594649315,2024-06-04 16:15:53.235642
43.27612639,-3.027511597,-1.134981155,-0.9349842072,2024-06-04 16:15:53.276126
43.31659796,-1.944998741,-2.073907852,-1.227301359,2024-06-04 16:15:53.316598
43.35708368,-1.120670319,-1.864267349,-1.690590143,2024-06-04 16:15:53.357084
43.39761863,-0.50958395,-1.904750347,-1.352398872,2024-06-04 16:15:53.397619
43.43807452,-0.8157324791,-2.481775284,-1.096927643,2024-06-04 16:15:53.438075
43.47856285,-0.3922739029,-2.600621462,-2.280667782,2024-06-04 16:15:53.478563
43.51902587,1.793408871,-2.06494832,-3.06724596,2024-06-04 16:15:53.519026
43.55955009,2.065587044,-0.5315725803,-2.292668343,2024-06-04 16:15:53.559550
43.60003842,1.553507328,0.1664218903,-2.457233429,2024-06-04 16:15:53.600038
43.64052681,4.561878204,2.357279301,-2.797763348,2024-06-04 16:15:53.640527
43.68098379,4.846987724,1.95483458,-2.291688442,2024-06-04 16:15:53.680984
43.72146186,3.624816656,2.281722546,-2.183865547,2024-06-04 16:15:53.721462
43.76198759,2.638788223,1.821746349,-1.22440362,2024-06-04 16:15:53.761988
43.80247301,0.9986453056,1.105654478,-0.4326591492,2024-06-04 16:15:53.802473
43.84296973,-1.099044323,-0.4846820831,0.1809434891,2024-06-04 16:15:53.842970
43.88344441,-2.269982338,-1.150867462,0.7296514511,2024-06-04 16:15:53.883444
43.92391514,-2.164156914,-1.917181015,0.8633718491,2024-06-04 16:15:53.923915
43.96438447,-2.350804329,-3.125318527,0.9692265987,2024-06-04 16:15:53.964384
44.00490108,-2.904472351,-0.8645839691,0.6337175369,2024-06-04 16:15:54.004901
44.04538645,-3.858726501,-0.7197217941,1.127462626,2024-06-04 16:15:54.045386
44.0858778,-3.423226357,-0.6517868042,1.018857479,2024-06-04 16:15:54.085878
44.12635837,-2.379579067,-0.3861041069,0.3861179352,2024-06-04 16:15:54.126358
44.16684342,-0.1174674034,-0.4131326675,1.056955814,2024-06-04 16:15:54.166843
44.20734098,0.5253777504,-0.3757538795,-0.7523033619,2024-06-04 16:15:54.207341
44.2478403,0.4905719757,-0.08984422684,-1.037442446,2024-06-04 16:15:54.247840
44.2883229,-2.335172653,-1.698486328,0.08251333237,2024-06-04 16:15:54.288323
44.32880707,-4.281653404,-2.155825615,0.1385016441,2024-06-04 16:15:54.328807
44.36930072,-2.257108688,-2.030390739,-0.9210577011,2024-06-04 16:15:54.369301
44.40981624,0.6703839302,-2.489588737,-0.2675280571,2024-06-04 16:15:54.409816
44.45021785,0.3173246384,-3.378516197,-1.225645781,2024-06-04 16:15:54.450218
44.49070629,0.4563789368,-1.291933298,-1.676944256,2024-06-04 16:15:54.490706
44.5312202,1.322300911,-0.8152451515,-2.309914112,2024-06-04 16:15:54.531220
44.57173681,3.279508591,-0.2718896866,-2.737910748,2024-06-04 16:15:54.571737
44.61221483,4.722280025,1.009461403,-2.357226849,2024-06-04 16:15:54.612215
44.65269436,4.991557121,2.026956081,-1.640986919,2024-06-04 16:15:54.652694
44.69314118,4.780089378,1.873436451,-1.135822058,2024-06-04 16:15:54.693141
44.73366113,3.997228146,2.053198338,-0.9686074257,2024-06-04 16:15:54.733661
44.77417025,3.23429966,1.070135593,-0.3297255039,2024-06-04 16:15:54.774170
44.81464509,0.4216871262,-0.3371405602,0.6317451,2024-06-04 16:15:54.814645
44.85513718,-1.370868683,-1.854502201,1.614300728,2024-06-04 16:15:54.855137
44.89563806,-1.244454384,-0.7598829269,1.285295963,2024-06-04 16:15:54.895638
44.93609738,-2.040374279,-1.793430328,1.015787601,2024-06-04 16:15:54.936097
44.97658363,-2.101923943,-1.635323524,1.83389926,2024-06-04 16:15:54.976584
45.01708322,-3.524176121,-0.827981472,1.833883762,2024-06-04 16:15:55.017083
45.05757332,-3.188509941,-1.088667393,2.470796108,2024-06-04 16:15:55.057573
45.09807233,-2.152068615,-1.412425995,2.328765392,2024-06-04 16:15:55.098072
45.13856431,-1.012680054,-0.2475543022,1.610433817,2024-06-04 16:15:55.138564
45.17904202,0.9632077217,0.3629722595,1.307270765,2024-06-04 16:15:55.179042
45.21952551,1.122683048,-0.05285739899,0.6863260269,2024-06-04 16:15:55.219526
45.26001332,-1.291851521,-0.5120587349,1.232894421,2024-06-04 16:15:55.260013
45.30050118,-2.453717709,-1.331016064,0.6105804443,2024-06-04 16:15:55.300501
45.34095733,-2.891387463,-1.620358944,0.08007574081,2024-06-04 16:15:55.340957
45.38148358,-1.64294529,-2.513286591,-0.4100842476,2024-06-04 16:15:55.381484
45.42197348,-0.01119089127,-3.175447464,-0.9317421913,2024-06-04 16:15:55.421973
45.46246139,0.4539532661,-2.416559696,-1.561119556,2024-06-04 16:15:55.462461
45.50295421,0.1149067879,-1.586659193,-2.804203987,2024-06-04 16:15:55.502954
45.54343952,1.95340538,-0.1895427704,-3.364735603,2024-06-04 16:15:55.543440
45.58392165,4.589151859,0.9868634939,-2.879956722,2024-06-04 16:15:55.583922
45.62443921,4.661215782,2.004818916,-2.524910927,2024-06-04 16:15:55.624439
45.66489145,4.832359314,2.462060213,-2.148692131,2024-06-04 16:15:55.664891
45.70535061,4.673138618,2.016399384,-2.177598953,2024-06-04 16:15:55.705351
45.74585223,3.259930611,1.17512989,-1.221405745,2024-06-04 16:15:55.745852
45.78636749,0.9866895676,-0.09707736969,0.04771113396,2024-06-04 16:15:55.786367
45.82689655,-0.4443674088,-1.389012814,1.100696564,2024-06-04 16:15:55.826897
45.8673454,-2.005702496,-2.12269783,1.31456542,2024-06-04 16:15:55.867345
45.90787421,-2.52336359,-2.324253559,1.312865496,2024-06-04 16:15:55.907874
45.94829254,-0.6067848206,-0.3409113884,1.703460932,2024-06-04 16:15:55.948293
45.98877842,-1.673303604,-0.5732197762,1.59739852,2024-06-04 16:15:55.988778
46.02930842,-2.716919899,-0.960486412,2.144906759,2024-06-04 16:15:56.029308
46.06976936,-2.927129745,-1.252782345,2.117535353,2024-06-04 16:15:56.069769
46.11025676,-2.070921421,-1.109642982,1.378941059,2024-06-04 16:15:56.110257
46.15074415,-0.2228097916,-0.2622132301,0.88083601,2024-06-04 16:15:56.150744
46.19123358,0.6495800018,-0.2734045982,0.6300060749,2024-06-04 16:15:56.191234
46.23172171,-0.8673477173,-0.7201757431,0.6407315731,2024-06-04 16:15:56.231722
46.27221994,-0.6992163658,-1.043523788,0.4464125633,2024-06-04 16:15:56.272220
46.31269171,-1.593868256,-1.821661472,1.187825918,2024-06-04 16:15:56.312692
46.35319973,-1.934677124,-2.896360397,0.1773507595,2024-06-04 16:15:56.353200
46.39369139,-0.8997273445,-2.836595535,-0.3070449829,2024-06-04 16:15:56.393691
46.43415702,-0.1081624031,-2.304154158,-0.2934784889,2024-06-04 16:15:56.434157
46.47464509,0.2193136215,-2.675721407,-1.799165726,2024-06-04 16:15:56.474645
46.51512046,2.022993088,-1.017059326,-2.954330921,2024-06-04 16:15:56.515120
46.55564238,4.475478172,0.652854085,-2.979907274,2024-06-04 16:15:56.555642
46.59613296,5.165977478,1.507775784,-2.475762129,2024-06-04 16:15:56.596133
46.63661447,5.071937561,2.00978899,-1.718250275,2024-06-04 16:15:56.636614
46.67713337,4.484293461,2.229282856,-1.522932291,2024-06-04 16:15:56.677133
46.71762176,3.570548534,1.59079957,-1.495257378,2024-06-04 16:15:56.717622
46.75804759,1.995305061,0.9855027199,-1.200794697,2024-06-04 16:15:56.758048
46.79857228,0.391078949,-0.02449560165,-0.2211797237,2024-06-04 16:15:56.798572
46.8390716,-1.650815964,-1.792027473,0.9590654373,2024-06-04 16:15:56.839072
46.87955999,-2.714020252,-2.713723183,0.9510967731,2024-06-04 16:15:56.879560
46.92004843,-1.781422615,-0.9431118965,2.409160852,2024-06-04 16:15:56.920048
46.96049754,-0.6053667068,-1.555454731,2.480591536,2024-06-04 16:15:56.960498
47.00098598,-1.988340378,-2.140381336,2.40295887,2024-06-04 16:15:57.000986
47.04147436,-3.163794041,-0.5375380516,2.775977135,2024-06-04 16:15:57.041474
47.08196973,-2.069787979,-0.09540891647,2.623389244,2024-06-04 16:15:57.081970
47.1224677,-0.8900837898,-0.7224774361,1.649457455,2024-06-04 16:15:57.122468
47.16294775,1.032959938,-0.8840179443,1.224590778,2024-06-04 16:15:57.162948
47.20343686,0.7775244713,-0.2692050934,0.4839069843,2024-06-04 16:15:57.203437
47.2439216,-1.818313122,-1.087624073,1.258078098,2024-06-04 16:15:57.243922
47.28441129,-3.104733944,-0.8931083679,1.541273594,2024-06-04 16:15:57.284411
47.32491608,-1.880509377,-2.195593834,0.945081234,2024-06-04 16:15:57.324916
47.36540811,-1.764864445,-3.634942532,1.041189671,2024-06-04 16:15:57.365408
47.40589983,1.922878265,-3.407418251,-0.5716547966,2024-06-04 16:15:57.405900
47.44637546,1.698202133,-1.296031713,-1.205278397,2024-06-04 16:15:57.446375
47.4868729,1.088681698,-2.02728343,-2.053042412,2024-06-04 16:15:57.486873
47.52737228,0.676366806,-1.085140228,-1.968254566,2024-06-04 16:15:57.527372
47.56784691,2.143427372,0.8197629452,-1.338654518,2024-06-04 16:15:57.567847
47.60832926,5.305128098,0.8396399021,-1.813009262,2024-06-04 16:15:57.608329
47.64881134,6.088202,2.308936596,-2.768764973,2024-06-04 16:15:57.648811
47.68931733,5.621324539,2.537407398,-2.647506237,2024-06-04 16:15:57.689317
47.72979514,3.57237339,1.123346329,-1.923343658,2024-06-04 16:15:57.729795
47.7702628,-0.3130168915,-0.8547096252,0.4219326973,2024-06-04 16:15:57.770263
47.81075077,-2.368824005,-0.5589728355,1.18620348,2024-06-04 16:15:57.810751
47.85123879,-1.647512913,-0.1787452698,1.548871279,2024-06-04 16:15:57.851239
47.8917427,-2.480426788,-2.402942181,0.3677651882,2024-06-04 16:15:57.891743
47.93224639,-0.0305018425,-0.6076641083,1.101405859,2024-06-04 16:15:57.932246
47.97272275,-2.540811539,-0.6498727798,0.9764754772,2024-06-04 16:15:57.972723
48.01321212,-4.051976681,0.1526532173,0.6778516769,2024-06-04 16:15:58.013212
48.05371389,-3.363255501,-0.3125581741,0.7264766693,2024-06-04 16:15:58.053714
48.09419759,-2.436775208,0.6348648071,-0.2831223011,2024-06-04 16:15:58.094198
48.13468259,0.123128891,0.7736163139,-1.12232995,2024-06-04 16:15:58.134683
48.17515509,-1.278131485,-0.7794218063,-1.068811655,2024-06-04 16:15:58.175155
48.2156353,-2.843578339,-0.421391964,-0.9157443047,2024-06-04 16:15:58.215635
48.25612551,-4.256455898,-2.386132717,-0.2644686699,2024-06-04 16:15:58.256126
48.29661285,-3.5236063,-2.314347267,-1.300253391,2024-06-04 16:15:58.296613
48.33710118,-3.299717426,-2.58155489,-1.726107121,2024-06-04 16:15:58.337101
48.37760186,-1.410570621,-3.785618305,-2.134822607,2024-06-04 16:15:58.377602
48.41810822,0.4472789764,-1.797984123,-2.372236252,2024-06-04 16:15:58.418108
48.45858556,1.089581013,-2.228084564,-3.38179636,2024-06-04 16:15:58.458586
48.49904676,2.07213068,-1.101966858,-2.850568056,2024-06-04 16:15:58.499047
48.53953014,2.569375515,-0.02297592163,-3.11632514,2024-06-04 16:15:58.539530
48.58001848,3.084682465,0.6303361654,-2.84912014,2024-06-04 16:15:58.580018
48.62050686,5.130320549,1.859555244,-2.879609108,2024-06-04 16:15:58.620507
48.66099218,5.32986927,2.278204918,-2.471491814,2024-06-04 16:15:58.660992
48.70145488,4.612224579,1.996896029,-1.402293444,2024-06-04 16:15:58.701455
48.74197389,1.958768845,0.764749527,-0.1487398148,2024-06-04 16:15:58.741974
48.78246332,0.3365077972,-0.3353538513,1.148033381,2024-06-04 16:15:58.782463
48.82298738,-0.1374692917,-1.145204067,1.687853813,2024-06-04 16:15:58.822987
48.86345124,-1.442483425,-1.286843777,2.295518637,2024-06-04 16:15:58.863451
48.90394863,-2.205337048,-1.955804348,1.249306679,2024-06-04 16:15:58.903949
48.94441999,-2.178545952,-1.138899803,2.902702332,2024-06-04 16:15:58.944420
48.98492363,-2.811249733,-1.951912403,2.004416943,2024-06-04 16:15:58.984924
49.02539301,-3.272476673,-1.721869469,2.96500349,2024-06-04 16:15:59.025393
49.06591087,-2.104496479,-1.714844227,3.126038551,2024-06-04 16:15:59.065911
49.10644749,-0.3082857132,-0.6835589409,2.130503654,2024-06-04 16:15:59.106447
49.14688082,0.1276192665,-0.1071186066,1.337112427,2024-06-04 16:15:59.146881
49.18736671,-0.1329092979,-0.4449467659,1.240826368,2024-06-04 16:15:59.187367
49.22784671,-0.9457211494,0.01271152496,0.8295712471,2024-06-04 16:15:59.227847
49.26834389,-2.669709206,-0.4657945633,0.4995691776,2024-06-04 16:15:59.268344
49.30884926,-2.960878849,-1.586189747,0.7808952332,2024-06-04 16:15:59.308849
49.34932139,-1.384540081,-1.646520615,-0.555213213,2024-06-04 16:15:59.349321
49.38980921,-0.4764165878,-1.923782825,-1.343539,2024-06-04 16:15:59.389809
49.43026587,-1.340861797,-2.70585537,-1.106298208,2024-06-04 16:15:59.430266
49.47075353,0.6041135788,-2.555803299,-2.694300652,2024-06-04 16:15:59.470754
49.51124134,2.577573299,-1.267151356,-2.791838646,2024-06-04 16:15:59.511241
49.5517415,3.61327672,0.0002272129059,-2.695802689,2024-06-04 16:15:59.551741
49.59224759,4.465452194,1.24666369,-2.316222191,2024-06-04 16:15:59.592248
49.63273014,5.261240959,2.191498756,-2.157427073,2024-06-04 16:15:59.632730
49.67321181,5.252610683,2.441425562,-1.459545135,2024-06-04 16:15:59.673212
49.71365634,3.49020505,1.365083694,-0.8632600307,2024-06-04 16:15:59.713656
49.75414421,2.29237175,0.4091677666,-0.4524891376,2024-06-04 16:15:59.754144
49.79468905,-0.181746006,-0.5239982605,1.089627266,2024-06-04 16:15:59.794689
49.83518556,-1.564317703,-1.034128666,1.344710588,2024-06-04 16:15:59.835186
49.87566754,-3.079915047,-1.445934296,0.8556234837,2024-06-04 16:15:59.875668
49.91613181,-0.8123645782,-1.210845947,1.08385396,2024-06-04 16:15:59.916132
49.95659629,-1.52650547,-1.000008106,1.387826204,2024-06-04 16:15:59.956596
49.9971153,-3.762577534,-1.054382801,2.143476248,2024-06-04 16:15:59.997115
50.03763244,-2.970301151,-1.15899992,2.344302177,2024-06-04 16:16:00.037632
50.07810405,-2.241381168,-0.9403691292,1.556115627,2024-06-04 16:16:00.078104
50.11861848,-0.446750164,-0.298971653,0.8412797451,2024-06-04 16:16:00.118618
50.15907968,-0.005944728851,0.05495738983,0.6383430958,2024-06-04 16:16:00.159080
50.19960119,-0.005795955658,-0.04423952103,0.4567396641,2024-06-04 16:16:00.199601
50.24008936,-1.718323231,-0.6647648811,-0.03558897972,2024-06-04 16:16:00.240089
50.28057754,-2.000395298,-0.9323840141,-0.006358385086,2024-06-04 16:16:00.280578
50.32106572,-1.782626629,-1.162474155,0.22295928,2024-06-04 16:16:00.321066
50.36154301,-0.8631877899,-1.925023079,-0.123336792,2024-06-04 16:16:00.361543
50.4020102,1.193698406,-2.411859512,-0.9974265099,2024-06-04 16:16:00.402010
50.4425002,0.3031945229,-2.3961308,-0.5914649963,2024-06-04 16:16:00.442500
50.48299186,0.08081960678,-2.198924303,-1.479529858,2024-06-04 16:16:00.482992
50.52348066,1.480865479,-1.440382481,-1.45344305,2024-06-04 16:16:00.523481
50.56395368,4.246649742,0.5231872797,-2.565239191,2024-06-04 16:16:00.563954
50.60443468,5.776865482,2.321988106,-1.764062166,2024-06-04 16:16:00.604435
50.64492171,5.927423477,2.575882435,-0.5777902603,2024-06-04 16:16:00.644922
50.68540973,4.802648544,1.629716158,-0.37606287,2024-06-04 16:16:00.685410
50.7258953,3.573473454,0.8934044838,-0.04938769341,2024-06-04 16:16:00.725895
50.76641233,1.559122086,0.1631031036,0.8549499512,2024-06-04 16:16:00.766412
50.80692645,-0.5881152153,-0.9492645264,2.215067387,2024-06-04 16:16:00.806926
50.84738952,-1.045982361,-1.334038734,1.720612049,2024-06-04 16:16:00.847390
50.88787671,-3.336305618,-3.087169647,0.9457206726,2024-06-04 16:16:00.887877
50.92832957,-1.885595798,-0.3168711662,1.904944658,2024-06-04 16:16:00.928330
50.96881395,-2.335350037,-0.6564984322,1.202976704,2024-06-04 16:16:00.968814
51.00935046,-3.287707806,-0.5511693954,2.055250406,2024-06-04 16:16:01.009350
51.04983843,-2.776250839,-0.4284200668,1.675354958,2024-06-04 16:16:01.049838
51.09032723,-2.583277225,-1.02285099,1.501896858,2024-06-04 16:16:01.090327
51.13081681,-0.8117809296,-0.1550974846,1.193394899,2024-06-04 16:16:01.130817
51.17130546,0.4420676231,0.1778187752,0.01982164383,2024-06-04 16:16:01.171305
51.2117202,0.9288949966,-0.2134585381,-0.7065320015,2024-06-04 16:16:01.211720
51.25223342,-1.675938129,-1.176974773,-0.08239483833,2024-06-04 16:16:01.252233
51.29275462,-3.888295174,-1.334816456,0.2769804001,2024-06-04 16:16:01.292755
51.33324926,-3.645860195,-1.864820957,-1.246990442,2024-06-04 16:16:01.333249
51.37373212,-0.9598755836,-3.715270042,-0.6468706131,2024-06-04 16:16:01.373732
51.41420702,0.393638134,-2.980748892,-1.606695652,2024-06-04 16:16:01.414207
51.45468978,1.064830303,-1.177214622,-2.473792791,2024-06-04 16:16:01.454690
51.49520738,0.9146885872,-1.250004292,-2.936234713,2024-06-04 16:16:01.495207
51.5356752,2.724144459,-0.4298658371,-3.669748068,2024-06-04 16:16:01.535675
51.57616686,4.527067184,1.815232992,-3.064675331,2024-06-04 16:16:01.576167
51.61666353,3.495400429,2.125660896,-2.336095095,2024-06-04 16:16:01.616664
51.65713551,4.385825157,2.668173313,-2.408897877,2024-06-04 16:16:01.657136
51.69758087,3.496743679,1.758029461,-2.321451664,2024-06-04 16:16:01.697581
51.73809556,2.31494236,0.9388847351,-1.087234974,2024-06-04 16:16:01.738096
51.77859374,0.2508497238,-0.3997440338,0.1183314323,2024-06-04 16:16:01.778594
51.81908072,-0.9544224739,-1.270799637,0.9497122765,2024-06-04 16:16:01.819081
51.85959244,-1.496890068,-1.677889824,0.5101954937,2024-06-04 16:16:01.859592
51.90009275,-1.908866405,-1.717622757,0.7274534702,2024-06-04 16:16:01.900093
51.94050447,-0.8119630814,-0.3727388382,2.043534279,2024-06-04 16:16:01.940504
51.98103431,-2.925379753,-2.495743275,0.7618792057,2024-06-04 16:16:01.981034
52.02151285,-4.204324722,-1.577812672,2.285361528,2024-06-04 16:16:02.021513
52.06201848,-3.386073589,-0.4999551773,1.704654694,2024-06-04 16:16:02.062018
52.102494,-1.053418159,0.1994824409,0.7870907784,2024-06-04 16:16:02.102494
52.1429929,0.4758973122,0.4281358719,0.363856554,2024-06-04 16:16:02.142993
52.1835528,-1.310729027,-1.848282337,0.798530817,2024-06-04 16:16:02.183553
52.22404056,0.7937569618,-0.1246576309,-0.1682319641,2024-06-04 16:16:02.224041
52.26446118,-2.356705666,-1.422647953,0.6896021366,2024-06-04 16:16:02.264461
52.30493092,-3.44665575,-1.887581348,0.1983730793,2024-06-04 16:16:02.304931
52.34541973,-0.9726066589,-2.107048512,-0.2238259315,2024-06-04 16:16:02.345420
52.38592447,-0.5048313141,-3.087320328,-1.151269913,2024-06-04 16:16:02.385924
52.42643004,-0.1128616333,-3.045049667,-1.478274107,2024-06-04 16:16:02.426430
52.4669178,0.4579339027,-1.65186739,-2.580751181,2024-06-04 16:16:02.466918
52.50739092,2.630987644,-0.556624651,-3.43487072,2024-06-04 16:16:02.507391
52.54785697,4.41851902,1.28363955,-2.506290197,2024-06-04 16:16:02.547857
52.58834655,4.217759609,1.496399045,-2.494344234,2024-06-04 16:16:02.588347
52.62883983,5.164753437,2.158792496,-2.214385509,2024-06-04 16:16:02.628840
52.6693277,4.693183899,2.433461666,-1.713524342,2024-06-04 16:16:02.669328
52.70979884,2.730901718,1.666734695,-1.152299881,2024-06-04 16:16:02.709799
52.75028665,-0.2673025131,0.1585130692,0.2217431068,2024-06-04 16:16:02.750287
52.79077447,-2.099394798,-1.001761913,0.4836125374,2024-06-04 16:16:02.790774
52.83126228,-2.272815228,-0.9458389282,-0.07441782951,2024-06-04 16:16:02.831262
52.87175009,-2.039194107,-2.00833559,-0.040350914,2024-06-04 16:16:02.871750
52.91229181,-0.6458024979,-0.2128038406,0.6648361683,2024-06-04 16:16:02.912292
52.95273994,-2.312618256,-0.8864221573,1.06050539,2024-06-04 16:16:02.952740
52.99323301,-3.666174889,-1.467986584,1.933188438,2024-06-04 16:16:02.993233
53.03373577,-3.001672745,-0.8330888748,1.529467106,2024-06-04 16:16:03.033736
53.07421035,-1.89158535,-0.4311065674,0.7567689419,2024-06-04 16:16:03.074210
53.11471452,-0.6994585991,-0.5488448143,0.4280610085,2024-06-04 16:16:03.114715
53.1551877,0.02055501938,-0.416949749,0.3667106628,2024-06-04 16:16:03.155188
53.19567952,-1.068282604,-0.5921049118,0.1582388878,2024-06-04 16:16:03.195680
53.23616754,-2.116668224,-0.9084935188,0.03081202507,2024-06-04 16:16:03.236168
53.27666087,-2.122946262,-1.744297504,-0.2986383438,2024-06-04 16:16:03.276661
53.31714686,-1.79420042,-3.214183807,0.003653526306,2024-06-04 16:16:03.317147
53.35762811,0.4116444588,-3.251269817,-0.434317112,2024-06-04 16:16:03.357628
53.39812665,0.00799036026,-1.90794158,-1.282531738,2024-06-04 16:16:03.398127
53.43861514,0.1260037422,-2.12793088,-2.248828888,2024-06-04 16:16:03.438615
53.47910316,1.141514301,-1.516254425,-3.713544846,2024-06-04 16:16:03.479103
53.51957764,4.241696358,0.4905920029,-2.763237476,2024-06-04 16:16:03.519578
53.56006561,5.259842873,2.470616579,-2.649136543,2024-06-04 16:16:03.560066
53.60055358,4.748440266,2.213013172,-1.921126842,2024-06-04 16:16:03.600554
53.64104134,4.186783314,2.092565536,-1.733237743,2024-06-04 16:16:03.641041
53.68152785,2.74891758,1.75293684,-1.198660135,2024-06-04 16:16:03.681528
53.72201431,0.9764795303,0.7431089878,0.3676693439,2024-06-04 16:16:03.722014
53.76251228,0.7551393509,-1.445607185,1.77668047,2024-06-04 16:16:03.762512
53.8030177,-1.66092062,-1.800262928,0.8087089062,2024-06-04 16:16:03.803018
53.84349842,-3.77771616,-1.266883373,1.199760437,2024-06-04 16:16:03.843498
53.88399035,-0.8357887268,-0.9150276184,1.429392815,2024-06-04 16:16:03.883990
53.92448978,-1.982894897,-0.9324846268,0.6348767281,2024-06-04 16:16:03.924490
53.96497014,-5.072847366,-0.7338662148,1.783943415,2024-06-04 16:16:03.964970
54.00545462,-3.840840816,-0.7038969994,1.082437992,2024-06-04 16:16:04.005455
54.04594124,-1.83848381,-0.5144848824,1.355391979,2024-06-04 16:16:04.045941
54.08643207,-0.8538098335,-1.162177563,0.7911465168,2024-06-04 16:16:04.086432
54.12690712,2.229426861,0.3773450851,-1.500818372,2024-06-04 16:16:04.126907
54.16739645,-0.280807972,-0.2233943939,-0.6829955578,2024-06-04 16:16:04.167396
54.20788962,-3.971834183,-1.00989151,0.442445755,2024-06-04 16:16:04.207890
54.24837754,-4.521647453,-1.86589098,0.3310670853,2024-06-04 16:16:04.248378
54.28886895,-2.822602749,-3.481142521,-0.3520355225,2024-06-04 16:16:04.288869
54.32936473,1.341444969,-3.2491436,-0.8756141663,2024-06-04 16:16:04.329365
54.36985296,0.1586322784,-2.607518196,-1.822279453,2024-06-04 16:16:04.369853
54.41034118,0.9184188843,-2.262075186,-3.018138647,2024-06-04 16:16:04.410341
54.45077582,2.105794907,-0.6485230923,-3.604120016,2024-06-04 16:16:04.450776
54.49126405,2.294621944,0.4995837212,-3.177986622,2024-06-04 16:16:04.491264
54.53178207,4.19351387,1.079637527,-2.299043655,2024-06-04 16:16:04.531782
54.57228723,5.391429424,2.317768574,-1.397269249,2024-06-04 16:16:04.572287
54.6127765,5.002966404,2.182329893,-1.623625278,2024-06-04 16:16:04.612777
54.65326254,3.566842079,1.036567926,-1.118405104,2024-06-04 16:16:04.653263
54.69371155,1.589561939,0.4239497185,-0.1007137299,2024-06-04 16:16:04.693712
54.7342115,-0.6120071411,-0.2308750153,0.6741371155,2024-06-04 16:16:04.734212
54.77471087,-1.692117691,-0.8544659615,0.7119748592,2024-06-04 16:16:04.774711
54.81520046,-3.036960602,-2.602727413,0.003189563751,2024-06-04 16:16:04.815200
54.85571301,-1.837844849,-1.420306206,0.4372091293,2024-06-04 16:16:04.855713
54.89620759,-1.985623837,-1.121841908,1.05731535,2024-06-04 16:16:04.896208
54.93667514,-2.180398464,-0.8775367737,1.635485172,2024-06-04 16:16:04.936675
54.97720207,-4.172649384,-0.8803844452,2.301371574,2024-06-04 16:16:04.977202
55.01767155,-2.129543781,-0.8955674171,1.289028406,2024-06-04 16:16:05.017672
55.05813811,-0.5794854164,-0.1287078857,0.3861057758,2024-06-04 16:16:05.058138
55.09864764,-0.4247274399,-0.3755164146,0.3213820457,2024-06-04 16:16:05.098648
55.1391366,-0.06642913818,-0.4641795158,-0.111644268,2024-06-04 16:16:05.139137
55.17961983,-2.29925251,-1.136410713,-0.04078173637,2024-06-04 16:16:05.179620
55.22010796,-2.765261173,-2.399160862,-0.1771421432,2024-06-04 16:16:05.220108
55.26059613,-3.544446468,-2.993506908,-0.8262124062,2024-06-04 16:16:05.260596
55.30108426,-1.790078163,-2.83271122,-1.542788982,2024-06-04 16:16:05.301084
55.34155415,-0.04537200928,-1.913061619,-2.067787409,2024-06-04 16:16:05.341554
55.38206316,1.308698177,-2.396296263,-3.66094923,2024-06-04 16:16:05.382063
55.42253228,1.562951088,-1.088824034,-4.154556751,2024-06-04 16:16:05.422532
55.4630204,3.213447332,0.5941096544,-2.955364704,2024-06-04 16:16:05.463020
55.50352915,3.007787704,0.6081585884,-2.126782894,2024-06-04 16:16:05.503529
55.54404702,3.380290031,1.034553409,-2.009285927,2024-06-04 16:16:05.544047
55.58449103,5.253938198,2.300751686,-2.64567852,2024-06-04 16:16:05.584491
55.62499348,4.692757607,2.074738503,-2.018838406,2024-06-04 16:16:05.624993
55.66547702,2.070052147,0.947936058,-0.626578331,2024-06-04 16:16:05.665477
55.70594051,-0.3980545998,-0.1113710403,0.5720868111,2024-06-04 16:16:05.705941
55.74647827,-1.241920471,-0.5133042336,0.5330059528,2024-06-04 16:16:05.746478
55.78695785,-2.166338444,-2.181496143,-0.3677101135,2024-06-04 16:16:05.786958
55.82741593,-1.621107101,-1.429487705,0.482894659,2024-06-04 16:16:05.827416
55.86792832,-1.514331818,-0.7953443527,0.9758415222,2024-06-04 16:16:05.867928
55.9084216,-2.820022583,-1.563124657,0.8507916927,2024-06-04 16:16:05.908422
55.94887895,-2.434520245,-0.1076302528,1.611660242,2024-06-04 16:16:05.948879
55.98936718,-2.861502171,-0.7018446922,1.817216635,2024-06-04 16:16:05.989367
56.02985546,-2.139779568,-0.07542467117,0.7687268257,2024-06-04 16:16:06.029855
56.07034369,-1.215546131,0.04869747162,0.594745636,2024-06-04 16:16:06.070344
56.11083134,0.7060685158,-0.1201024055,0.1430141926,2024-06-04 16:16:06.110831
56.15131947,0.4723215103,-1.499838352,0.1274621487,2024-06-04 16:16:06.151319
56.1918278,-2.298991203,-0.9232845306,0.3214998245,2024-06-04 16:16:06.191828
56.23231592,-2.645102978,-1.670423031,0.3210740089,2024-06-04 16:16:06.232316
56.27279181,-2.439226151,-3.140888691,0.2822976112,2024-06-04 16:16:06.272792
56.31332077,0.5230345726,-3.003331184,-1.094449997,2024-06-04 16:16:06.313321
56.35378994,0.6357841492,-1.396001816,-0.3550257683,2024-06-04 16:16:06.353790
56.39434665,0.6469211578,-2.113464832,-1.611918211,2024-06-04 16:16:06.394347
56.4347615,1.665790081,-2.013240099,-3.416081905,2024-06-04 16:16:06.434762
56.47525014,3.775261402,0.2516620159,-3.607865334,2024-06-04 16:16:06.475250
56.51575285,4.737739086,1.483960032,-2.828953505,2024-06-04 16:16:06.515753
56.55624504,2.385512352,1.505530119,-1.923114777,2024-06-04 16:16:06.556245
56.59673118,3.294072151,2.638432026,-1.784333706,2024-06-04 16:16:06.596731
56.6372177,4.04344511,3.689042807,-2.554964304,2024-06-04 16:16:06.637218
56.67770978,2.513753414,2.077334881,-0.8847196102,2024-06-04 16:16:06.677710
56.71814322,-1.183389187,-1.053683758,0.4604387283,2024-06-04 16:16:06.718143
56.75865249,-2.270524502,-0.8900604248,1.03139329,2024-06-04 16:16:06.758652
56.79917363,-1.250715256,-0.1159930229,0.6085581779,2024-06-04 16:16:06.799174
56.83966218,-1.220521927,-2.279074669,-0.2240827084,2024-06-04 16:16:06.839662
56.88015072,-2.09740448,-0.2039208412,1.529292583,2024-06-04 16:16:06.880151
56.92063936,-5.474236012,-3.356403351,1.162446976,2024-06-04 16:16:06.920639
56.96112926,-2.330007076,-1.853115082,2.152162552,2024-06-04 16:16:06.961129
57.00160811,-2.630077362,1.879440784,0.3712992668,2024-06-04 16:16:07.001608
57.04212348,-0.5943083763,-0.843249321,0.8045349121,2024-06-04 16:16:07.042123
57.08266405,-1.119895935,0.7233843803,0.161895752,2024-06-04 16:16:07.082664
57.12306874,-3.908214092,-2.305032253,1.322472811,2024-06-04 16:16:07.123069
57.16355301,1.54976368,-1.900039673,-0.8769161701,2024-06-04 16:16:07.163553
57.20403582,0.7474455833,-0.1969666481,-0.7429022789,2024-06-04 16:16:07.204036
57.24453145,-3.714396,-1.791842937,0.376101017,2024-06-04 16:16:07.244531
57.28502863,-2.884323597,-2.850916386,-1.383020401,2024-06-04 16:16:07.285029
57.32552087,-1.711808205,-3.133862972,-0.3704900742,2024-06-04 16:16:07.325521
57.36602337,0.8576216698,-2.253772497,-2.679336309,2024-06-04 16:16:07.366023
57.4064929,2.417355537,-0.7162168026,-3.000248909,2024-06-04 16:16:07.406493
57.44699822,1.013464928,-1.026084185,-3.372584343,2024-06-04 16:16:07.446998
57.48747535,4.228162766,1.538510203,-3.458999157,2024-06-04 16:16:07.487475
57.5279654,5.072792053,2.141151905,-3.171898365,2024-06-04 16:16:07.527965
57.56849207,6.007307053,2.22051692,-2.990730524,2024-06-04 16:16:07.568492
57.60895879,3.649661064,2.145755768,-1.912568331,2024-06-04 16:16:07.608959
57.64947431,0.124915123,1.40839386,-0.6871709824,2024-06-04 16:16:07.649474
57.68989415,-0.06904029846,-0.08628320694,0.003266811371,2024-06-04 16:16:07.689894
57.7303827,1.449007034,-0.4460830688,-0.004029035568,2024-06-04 16:16:07.730383
57.77089332,-1.808168411,-2.379127979,0.2349202633,2024-06-04 16:16:07.770893
57.81137421,-4.115516186,-3.382599831,1.968171358,2024-06-04 16:16:07.811374
57.85186468,-1.105313301,-2.06974411,1.939177513,2024-06-04 16:16:07.851865
57.89238671,-4.748324871,-2.743736267,2.419080019,2024-06-04 16:16:07.892387
57.93285311,-4.479458332,0.7203388214,1.810699701,2024-06-04 16:16:07.932853
57.9733341,-1.936897755,0.7893676758,2.257504463,2024-06-04 16:16:07.973334
58.01381368,-0.1304244995,1.000936508,1.044230461,2024-06-04 16:16:08.013814
58.05429853,2.329197407,-0.02165842056,-1.17751801,2024-06-04 16:16:08.054299
58.09479051,-0.2112030983,-2.036251068,1.136330128,2024-06-04 16:16:08.094791
58.13528457,-4.421516418,-1.586003304,1.59352684,2024-06-04 16:16:08.135285
58.17578186,-4.414114952,-1.591493607,-0.04236626625,2024-06-04 16:16:08.175782
58.21627358,0.085916996,-1.588169575,0.9509949684,2024-06-04 16:16:08.216274
58.25674457,-0.3528223038,-4.255157471,-0.06160497665,2024-06-04 16:16:08.256745
58.29723035,0.5624923706,-2.802487373,-0.3583703041,2024-06-04 16:16:08.297230
58.33772368,1.15395689,-1.531734943,-1.656898737,2024-06-04 16:16:08.337724
58.37824395,4.045735359,-1.160899401,-2.977328062,2024-06-04 16:16:08.378244
58.41872926,3.364309788,0.3384988308,-2.301378489,2024-06-04 16:16:08.418729
58.45920853,3.745299578,1.372413397,-2.211545229,2024-06-04 16:16:08.459209
58.49968556,6.390461922,2.89736104,-2.089389324,2024-06-04 16:16:08.499686
58.54016837,5.718142509,1.496345758,-1.577961922,2024-06-04 16:16:08.540168
58.58065697,1.875597,0.06142807007,-0.909822464,2024-06-04 16:16:08.580657
58.62114556,1.176762104,0.6109704971,-0.6008520126,2024-06-04 16:16:08.621146
58.66163421,2.350951672,1.42509079,-0.1343209743,2024-06-04 16:16:08.661634
58.70210941,2.611739397,-1.366403103,0.1121718884,2024-06-04 16:16:08.702109
58.74264134,-2.45469141,-7.229955673,3.598037243,2024-06-04 16:16:08.742641
58.78310238,-8.114239693,-3.038503647,4.342078209,2024-06-04 16:16:08.783102
58.82360535,-3.56029892,-4.474561691,4.238418102,2024-06-04 16:16:08.823605
58.86408082,-5.263236523,-4.3864851,3.189910412,2024-06-04 16:16:08.864081
58.90456061,-4.647229671,1.135760307,1.805580378,2024-06-04 16:16:08.904561
58.94508816,-3.61593008,2.379254818,0.7847316265,2024-06-04 16:16:08.945088
58.98557488,0.9704842567,3.55533123,-0.9348738194,2024-06-04 16:16:08.985575
59.0260666,3.510145664,3.514789104,-1.572016001,2024-06-04 16:16:09.026067
59.06653494,0.170498848,1.556664944,0.03768157959,2024-06-04 16:16:09.066535
59.107009,-6.474404812,-3.98806715,1.055393219,2024-06-04 16:16:09.107009
59.14750337,-4.56551981,-2.733057499,-2.825162888,2024-06-04 16:16:09.147503
59.188004,-3.448785305,-3.795994282,0.9266843796,2024-06-04 16:16:09.188004
59.22849264,-2.197675705,-6.354517937,1.085624695,2024-06-04 16:16:09.228493
59.26897785,2.189368248,-2.530524254,0.224943161,2024-06-04 16:16:09.268978
59.3095052,3.404073238,-0.1041405201,-2.767386436,2024-06-04 16:16:09.309505
59.34999389,6.931045055,1.094238997,-4.773540497,2024-06-04 16:16:09.349994
59.39048436,9.926169395,3.472196102,-6.771610737,2024-06-04 16:16:09.390484
59.43097389,5.043663979,3.535971403,-4.548047543,2024-06-04 16:16:09.430974
59.47146348,3.786115408,2.835791111,-2.251543999,2024-06-04 16:16:09.471463
59.51200447,4.256636143,3.548991442,-0.7223033905,2024-06-04 16:16:09.512004
59.55242551,0.3244628906,0.8866586685,0.9566676617,2024-06-04 16:16:09.552426
59.59290707,-0.8533992767,-3.280422688,2.623010635,2024-06-04 16:16:09.592907
59.63338895,-3.573949814,-3.050526619,3.008072615,2024-06-04 16:16:09.633389
59.67385316,-5.518678188,-4.631588459,2.803596973,2024-06-04 16:16:09.673853
59.7143291,-6.893033028,-3.785923004,1.426333189,2024-06-04 16:16:09.714329
59.75485546,-5.02170372,-0.8397960663,1.617199421,2024-06-04 16:16:09.754855
59.79535728,-2.251860619,-0.07398271561,1.821802378,2024-06-04 16:16:09.795357
59.83581009,0.1989145279,1.314169884,2.388408184,2024-06-04 16:16:09.835810
59.87635952,0.340795517,1.686119556,1.562094927,2024-06-04 16:16:09.876360
59.91678202,2.884903669,2.353168964,-4.174452305,2024-06-04 16:16:09.916782
59.95728244,-3.186209679,-1.933747768,0.8233866692,2024-06-04 16:16:09.957282
59.99779525,-6.6256423,-4.11034441,1.094796658,2024-06-04 16:16:09.997795
60.03826296,-1.781414509,-1.861093998,-0.1990332603,2024-06-04 16:16:10.038263
60.0787703,-0.1056842804,-3.033597946,-0.8593406677,2024-06-04 16:16:10.078770
60.11924468,-3.150143147,-5.062137604,-0.04187583923,2024-06-04 16:16:10.119245
60.15973332,1.918020248,-1.958704472,-3.0966084,2024-06-04 16:16:10.159733
60.20019134,2.375131607,0.644654274,-3.653849602,2024-06-04 16:16:10.200191
60.24067994,9.176805496,1.589710593,-3.243046999,2024-06-04 16:16:10.240680
60.28116858,6.53888607,-0.2931053638,-3.213376522,2024-06-04 16:16:10.281169
60.32167895,6.624471188,1.844331622,-3.742301464,2024-06-04 16:16:10.321679
60.36219363,5.735521317,3.585929632,-1.8105371,2024-06-04 16:16:10.362194
60.4026504,3.028921127,3.227340698,0.3493804932,2024-06-04 16:16:10.402650
60.44314389,-0.02682638168,-0.9706482887,2.0557096,2024-06-04 16:16:10.443144
60.48363712,-2.569562912,-3.930309296,1.43435955,2024-06-04 16:16:10.483637
60.52413843,-4.993589401,-2.266845703,2.315809011,2024-06-04 16:16:10.524138
60.56463572,-4.244258404,-2.886340141,1.854560137,2024-06-04 16:16:10.564636
60.60512202,-4.005867958,-1.650612831,2.376346111,2024-06-04 16:16:10.605122
60.64559936,-2.908203602,0.8193731308,1.810724497,2024-06-04 16:16:10.645599
60.68605941,-1.415455341,0.8962554932,2.218831539,2024-06-04 16:16:10.686059
60.72654926,-3.87528801,-2.99377346,4.29033947,2024-06-04 16:16:10.726549
60.76706218,-2.39374733,-0.436352253,1.250865459,2024-06-04 16:16:10.767062
60.80755035,2.628944874,-1.435255051,-1.413612604,2024-06-04 16:16:10.807550
60.84805238,1.618223667,-3.149895668,-1.47248888,2024-06-04 16:16:10.848052
60.8885279,-5.987189293,-2.666481018,1.793400764,2024-06-04 16:16:10.888528
60.92901811,-4.263740063,-2.947399616,-0.6555428505,2024-06-04 16:16:10.929018
60.96949473,0.5713906288,-1.762783527,-2.734997272,2024-06-04 16:16:10.969495
61.00998337,1.330966949,-2.277740717,-2.833156109,2024-06-04 16:16:11.009983
61.05047202,-1.1760993,-2.576264143,-2.973970413,2024-06-04 16:16:11.050472
61.09096691,5.797267914,2.118223906,-5.193420887,2024-06-04 16:16:11.090967
61.1314579,8.894990921,0.7958228588,-4.746543884,2024-06-04 16:16:11.131458
61.17194301,4.520021439,2.399502039,-1.811900139,2024-06-04 16:16:11.171943
61.21243009,3.544396162,2.888429403,-0.1101665497,2024-06-04 16:16:11.212430
61.25293426,3.668544292,1.568379164,-0.6242570877,2024-06-04 16:16:11.252934
61.29342275,3.550462723,1.664000988,-1.058521748,2024-06-04 16:16:11.293423
61.33390447,0.1088433266,0.9789323807,0.6736092567,2024-06-04 16:16:11.333904
61.37441004,-2.421437263,-2.300932884,0.5621221066,2024-06-04 16:16:11.374410
61.41488306,-3.829411507,-3.796929359,0.3475840092,2024-06-04 16:16:11.414883
61.45535962,-3.38992691,-2.967442036,1.871449947,2024-06-04 16:16:11.455360
61.49585181,-3.789272785,-1.994111538,1.315579176,2024-06-04 16:16:11.495852
61.53634848,-5.191452503,-0.9639492035,2.474390745,2024-06-04 16:16:11.536348
61.57682947,-4.981193542,-2.270476818,3.164502621,2024-06-04 16:16:11.576829
61.61731645,-3.884954453,-1.205444336,1.593543053,2024-06-04 16:16:11.617316
61.65783374,2.392411232,0.06172132492,-1.551310301,2024-06-04 16:16:11.657834
61.69827134,4.82602644,-1.475467205,-3.134817362,2024-06-04 16:16:11.698271
61.73875941,-1.615706444,-2.146466255,-1.282265186,2024-06-04 16:16:11.738759
61.7792704,-7.878718376,-3.048759937,2.002398014,2024-06-04 16:16:11.779270
61.81977072,-3.095175266,-4.967620373,-0.1693711281,2024-06-04 16:16:11.819771
61.86025988,-0.109817028,-4.078063011,-2.729678631,2024-06-04 16:16:11.860260
61.9007478,3.851392746,-1.402060032,-3.537697315,2024-06-04 16:16:11.900748
61.94123603,5.326535225,0.928134799,-4.327809334,2024-06-04 16:16:11.941236
61.98168728,7.796952724,2.700098991,-1.891460419,2024-06-04 16:16:11.981687
62.02220592,5.326022148,1.491542935,-2.370645046,2024-06-04 16:16:12.022206
62.06270171,5.284673214,1.630563736,-2.110800743,2024-06-04 16:16:12.062702
62.1031702,5.955648899,1.631505966,-0.8198442459,2024-06-04 16:16:12.103170
62.14367202,3.898936749,1.567723989,-0.7006413937,2024-06-04 16:16:12.143672
62.1841665,1.300400734,-1.175166607,0.4196670055,2024-06-04 16:16:12.184167
62.22465509,-3.067159176,-3.298157692,1.584827185,2024-06-04 16:16:12.224655
62.26515415,-5.52303648,-5.038225174,3.516906261,2024-06-04 16:16:12.265154
62.30563832,-5.324819088,-2.769839764,2.091501474,2024-06-04 16:16:12.305638
62.34613941,-4.96506691,-0.5463905334,0.5536668301,2024-06-04 16:16:12.346139
62.38661431,-2.17871666,-2.077946663,1.131922007,2024-06-04 16:16:12.386614
62.42707775,-1.206914902,-1.448987961,3.407717228,2024-06-04 16:16:12.427078
62.46756639,-2.336064339,1.223646164,0.7952693701,2024-06-04 16:16:12.467566
62.50807254,-0.3052487373,-0.6641798019,-0.803461194,2024-06-04 16:16:12.508073
62.54854353,-0.2297048569,0.750374794,-1.612759113,2024-06-04 16:16:12.548544
62.58905145,4.768933296,-0.1225175858,-1.202800155,2024-06-04 16:16:12.589051
