"Time (s)","Acceleration x (m/s^2)","Acceleration y (m/s^2)","Acceleration z (m/s^2)"
0.000000000E0,3.190829039E0,7.689634800E0,5.488237858E0
1.720052200E-2,2.553740025E0,7.390232563E0,6.719345093E0
5.720052200E-2,2.826820850E0,7.310970306E0,6.333801746E0
9.720052200E-2,3.468695641E0,7.098009109E0,5.202893734E0
1.372005220E-1,2.299801588E0,7.569694519E0,5.095216751E0
1.772005220E-1,2.865106106E0,6.194718838E0,5.217250824E0
2.172005220E-1,2.865106106E0,6.194718838E0,5.217250824E0
2.572005220E-1,4.697709084E0,7.656135082E0,6.586543560E0
2.972005220E-1,-7.298108935E-2,4.681856632E0,6.060720444E0
3.372005220E-1,-1.906780601E0,3.790829182E0,1.422682571E1
3.772005220E-1,-1.456331730E0,6.537191391E0,9.922138214E0
4.172005220E-1,-4.791627228E-1,6.183950901E0,7.928019524E0
4.572005220E-1,1.587039590E0,3.673580885E0,5.030610561E0
4.972005220E-1,9.882357717E-1,4.458127499E0,8.465806961E0
5.372005220E-1,9.882357717E-1,4.458127499E0,8.465806961E0
5.772005220E-1,9.882357717E-1,4.458127499E0,8.465806961E0
6.172005220E-1,9.882357717E-1,4.458127499E0,8.465806961E0
6.572005220E-1,9.882357717E-1,4.458127499E0,8.465806961E0
6.972005220E-1,9.882357717E-1,4.458127499E0,8.465806961E0
7.372005220E-1,9.882357717E-1,4.458127499E0,8.465806961E0
7.772005220E-1,9.882357717E-1,4.458127499E0,8.465806961E0
8.172005220E-1,9.882357717E-1,4.458127499E0,8.465806961E0
8.572005220E-1,9.882357717E-1,4.458127499E0,8.465806961E0
8.972005220E-1,9.882357717E-1,4.458127499E0,8.465806961E0
9.372005220E-1,9.882357717E-1,4.458127499E0,8.465806961E0
9.772005220E-1,9.882357717E-1,4.458127499E0,8.465806961E0
1.017200522E0,9.882357717E-1,4.458127499E0,8.465806961E0
1.057200522E0,9.882357717E-1,4.458127499E0,8.465806961E0
1.097200522E0,9.882357717E-1,4.458127499E0,8.465806961E0
1.137200522E0,9.882357717E-1,4.458127499E0,8.465806961E0
1.177200522E0,9.882357717E-1,4.458127499E0,8.465806961E0
1.217200522E0,9.882357717E-1,4.458127499E0,8.465806961E0
1.257200522E0,9.882357717E-1,4.458127499E0,8.465806961E0
1.297200522E0,8.682954907E-1,5.872584820E0,8.566305161E0
1.337200522E0,-5.258227587E-1,6.840481758E0,7.662117004E0
1.377200522E0,1.737787485E0,9.208179474E0,8.443074226E0
1.417200522E0,-1.297209024E0,5.255835056E0,7.477570534E0
1.457200522E0,2.809772015E0,6.969694138E0,4.735994339E0
1.497200522E0,-8.374879509E-2,6.036792278E0,5.330012321E0
1.537200522E0,3.410071373E0,5.139483929E0,8.752047539E0
1.577200522E0,7.618148923E-1,4.843671322E0,7.729116440E0
1.617200522E0,1.709073544E0,4.678267479E0,8.838189125E0
1.657200522E0,2.889034271E0,4.926223755E0,6.720541477E0
1.697200522E0,3.060121059E0,6.720541477E0,6.110970020E0
1.737200522E0,4.352544308E0,5.895316601E0,5.752644539E0
1.777200522E0,2.446960211E0,3.869792461E0,8.778368950E0
1.817200522E0,3.335594654E0,2.930908680E0,8.166404724E0
1.857200522E0,5.006682396E0,3.164507866E0,7.453642368E0
1.897200522E0,2.467299223E0,2.940479994E0,6.333801746E0
1.937200522E0,5.222335458E-1,3.451945782E0,3.251846075E0
1.977200522E0,-8.036893010E-1,3.195614576E0,4.663910389E0
2.017200522E0,-1.557129383E0,3.335594654E0,7.276274681E0
2.057200522E0,-5.575575829E0,2.976372242E0,8.118248940E0
2.097200522E0,-6.633203506E0,2.875873804E0,6.405586243E0
2.137200522E0,-1.090439224E1,1.716252089E0,5.070092201E0
2.177200522E0,-1.233799171E1,2.488834620E0,3.299702406E0
2.217200522E0,-1.233799171E1,2.488834620E0,3.299702406E0
2.257200522E0,-1.233799171E1,2.488834620E0,3.299702406E0
2.297200522E0,-1.233799171E1,2.488834620E0,3.299702406E0
2.337200522E0,-1.233799171E1,2.488834620E0,3.299702406E0
2.377200522E0,-1.233799171E1,2.488834620E0,3.299702406E0
2.417200522E0,-1.233799171E1,2.488834620E0,3.299702406E0
2.457200522E0,-1.233799171E1,2.488834620E0,3.299702406E0
2.497200522E0,-1.233799171E1,2.488834620E0,3.299702406E0
2.537200522E0,-1.233799171E1,2.488834620E0,3.299702406E0
2.577200522E0,-1.233799171E1,2.488834620E0,3.299702406E0
2.617200522E0,-1.233799171E1,2.488834620E0,3.299702406E0
2.657200522E0,-1.233799171E1,2.488834620E0,3.299702406E0
2.697200522E0,-1.233799171E1,2.488834620E0,3.299702406E0
2.737200522E0,-1.233799171E1,2.488834620E0,3.299702406E0
2.777200522E0,-1.233799171E1,2.488834620E0,3.299702406E0
2.817200522E0,-1.233799171E1,2.488834620E0,3.299702406E0
2.857200522E0,-1.233799171E1,2.488834620E0,3.299702406E0
2.897200522E0,-1.233799171E1,2.488834620E0,3.299702406E0
2.937200522E0,-3.863810301E0,-1.754836321E0,4.317848682E0
2.977200522E0,-1.130309582E1,-3.786043644E0,5.501398563E0
3.017200522E0,-1.052931690E1,-6.233004093E0,4.549055099E0
3.057200522E0,-7.393822193E0,-7.159026146E0,5.796014786E0
3.097200522E0,-7.984251022E0,-5.167001247E0,5.566004753E0
3.137200522E0,-3.868596077E0,-7.019943595E-1,5.931209087E0
3.177200522E0,-7.366304398E0,-2.817249537E0,6.030810356E0
3.217200522E0,-7.355237484E0,-2.651845694E0,6.532405853E0
3.257200522E0,-6.873981476E0,-1.500898004E0,7.121937275E0
3.297200522E0,-7.282256603E0,4.803591371E-1,6.466603279E0
3.337200522E0,-8.571090698E0,-3.914358854E0,6.852446079E0
3.377200522E0,-6.701398849E0,-1.198804140E0,5.752644539E0
3.417200522E0,-5.503791332E0,8.862416744E-1,6.133701801E0
3.457200522E0,-7.990232944E0,-3.097508907E0,7.798508167E0
3.497200522E0,-6.866802692E0,1.009771109E0,6.223432541E0
3.537200522E0,-7.092027187E0,-2.627917528E0,6.442675114E0
3.577200522E0,-7.852346420E0,1.582253933E0,6.348158360E0
3.617200522E0,-5.102395058E0,7.474579811E-1,9.101698875E0
3.657200522E0,-5.652146339E0,-2.369193554E0,5.606682777E0
3.697200522E0,-1.113559818E1,-6.457031727E0,6.845267296E0
3.737200522E0,-8.777172089E0,-4.256831646E0,7.212864876E0
3.777200522E0,-6.664309978E0,-3.721437454E0,4.940580368E0
3.817200522E0,-7.350451946E0,-3.618546009E0,4.464109898E0
3.857200522E0,-7.350451946E0,-3.618546009E0,4.464109898E0
3.897200522E0,-7.350451946E0,-3.618546009E0,4.464109898E0
3.937200522E0,-7.350451946E0,-3.618546009E0,4.464109898E0
3.977200522E0,-7.350451946E0,-3.618546009E0,4.464109898E0
4.017200522E0,-7.350451946E0,-3.618546009E0,4.464109898E0
4.057200522E0,-7.350451946E0,-3.618546009E0,4.464109898E0
4.097200522E0,-7.350451946E0,-3.618546009E0,4.464109898E0
4.137200522E0,-7.350451946E0,-3.618546009E0,4.464109898E0
4.177200522E0,-7.350451946E0,-3.618546009E0,4.464109898E0
4.217200522E0,-7.350451946E0,-3.618546009E0,4.464109898E0
4.257200522E0,-7.350451946E0,-3.618546009E0,4.464109898E0
4.297200522E0,-7.350451946E0,-3.618546009E0,4.464109898E0
4.337200522E0,-7.350451946E0,-3.618546009E0,4.464109898E0
4.377200522E0,-7.350451946E0,-3.618546009E0,4.464109898E0
4.417200522E0,-7.350451946E0,-3.618546009E0,4.464109898E0
4.457200522E0,-7.350451946E0,-3.618546009E0,4.464109898E0
4.497200522E0,-7.350451946E0,-3.618546009E0,4.464109898E0
4.537200522E0,-7.350451946E0,-3.618546009E0,4.464109898E0
4.577200522E0,-6.609275341E0,-2.633899450E0,6.707380772E0
4.617200522E0,-7.042675018E0,-2.249253273E0,6.318248272E0
4.657200522E0,-6.942176819E0,-2.011167526E0,7.099205494E0
4.697200522E0,-6.302694798E0,-1.931905150E0,5.823532104E0
4.737200522E0,-7.402196884E0,-2.691327333E0,5.852245808E0
4.777200522E0,-7.488338470E0,-2.436192513E0,6.417550564E0
4.817200522E0,-6.858428001E0,-2.324926376E0,5.822335720E0
4.857200522E0,-7.070192814E0,-2.262413740E0,6.331408501E0
4.897200522E0,-7.450053215E0,-2.390728951E0,5.900102615E0
4.937200522E0,-6.771986961E0,-3.358625650E0,5.892923832E0
4.977200522E0,-7.167401314E0,-3.241078377E0,7.222435951E0
5.017200522E0,-8.081160545E0,-3.693919897E0,7.861917973E0
5.057200522E0,-7.810472012E0,-2.997907639E0,7.515855789E0
5.097200522E0,-9.889835358E0,-2.449352980E0,7.488338470E0
5.137200522E0,-7.176972389E0,-2.091326952E0,4.037589073E0
5.177200522E0,-4.381258488E0,-1.666002721E-1,3.956233025E0
5.217200522E0,-5.871388435E0,-1.352243900E0,5.504987717E0
5.257200522E0,-6.480959892E0,-9.798609018E-1,6.204289913E0
5.297200522E0,-6.731309414E0,-9.173483849E-1,6.228218079E0
5.337200522E0,-8.148159027E0,-1.033699393E0,8.096714020E0
5.377200522E0,-7.916055679E0,-8.312067389E-1,5.754140377E0
5.417200522E0,-6.345765591E0,-6.634100676E-1,6.658328056E0
5.457200522E0,-8.050053596E0,-1.242174029E0,5.890531063E0
5.497200522E0,-8.050053596E0,-1.242174029E0,5.890531063E0
5.537200522E0,-8.050053596E0,-1.242174029E0,5.890531063E0
5.577200522E0,-8.050053596E0,-1.242174029E0,5.890531063E0
5.617200522E0,-7.739883900E0,-9.149555564E-1,5.868995667E0
5.657200522E0,-7.739883900E0,-9.149555564E-1,5.868995667E0
5.697200522E0,-7.739883900E0,-9.149555564E-1,5.868995667E0
5.737200522E0,-7.739883900E0,-9.149555564E-1,5.868995667E0
5.777200522E0,-7.739883900E0,-9.149555564E-1,5.868995667E0
5.817200522E0,-7.739883900E0,-9.149555564E-1,5.868995667E0
5.857200522E0,-7.272685528E0,-8.527421951E-1,6.004190445E0
5.897200522E0,-7.272685528E0,-8.527421951E-1,6.004190445E0
5.937200522E0,-7.272685528E0,-8.527421951E-1,6.004190445E0
5.977200522E0,-7.272685528E0,-8.527421951E-1,6.004190445E0
6.017200522E0,-7.272685528E0,-8.527421951E-1,6.004190445E0
6.057200522E0,-7.272685528E0,-8.527421951E-1,6.004190445E0
6.097200522E0,-7.272685528E0,-8.527421951E-1,6.004190445E0
6.137200522E0,-7.272685528E0,-8.527421951E-1,6.004190445E0
6.177200522E0,-7.272685528E0,-8.527421951E-1,6.004190445E0
6.217200522E0,-7.272685528E0,-8.527421951E-1,6.004190445E0
6.257200522E0,-7.612765312E0,-7.115656137E-1,6.035595894E0
6.297200522E0,-7.662117004E0,-7.510471940E-1,5.983851433E0
6.337200522E0,-7.588837147E0,-8.144569993E-1,6.069095612E0
6.377200522E0,-7.500302792E0,-8.802596331E-1,6.119344711E0
6.417200522E0,-7.424928665E0,-8.994022012E-1,6.236593246E0
6.457200522E0,-7.288238525E0,-8.754739761E-1,6.336194515E0
6.497200522E0,-7.217650414E0,-8.682954907E-1,6.394818306E0
6.537200522E0,-7.371089935E0,-9.041878581E-1,6.610471725E0
6.577200522E0,-8.386544228E0,-1.433599830E0,7.264310360E0
6.617200522E0,-8.023732185E0,-7.666005492E-1,5.147858620E0
6.657200522E0,-7.239185810E0,-6.340979785E-2,4.285545349E0
6.697200522E0,-7.973483086E0,-2.862414122E-1,5.432903767E0
6.737200522E0,-8.091927528E0,-5.952146053E-1,5.347958565E0
6.777200522E0,-7.974679470E0,-7.486543655E-1,5.729912758E0
6.817200522E0,-7.597211838E0,-5.988038778E-1,6.206682682E0
6.857200522E0,-7.686045647E0,-9.125627279E-1,6.205486298E0
6.897200522E0,-7.379465103E0,-6.179464459E-1,5.459224701E0
6.937200522E0,-7.034300327E0,-1.689931005E-1,5.714359760E0
6.977200522E0,-7.174579620E0,-6.912266612E-1,5.842674732E0
7.017200522E0,-7.657331467E0,-1.453938842E0,6.746862411E0
7.057200522E0,-6.900302410E0,-3.652045429E-1,6.429514408E0
7.097200522E0,-7.130312443E0,-8.347960114E-1,6.148058891E0
7.137200522E0,-7.961519241E0,-1.164108157E0,6.088238239E0
7.177200522E0,-7.961519241E0,-1.164108157E0,6.088238239E0
7.217200522E0,-7.961519241E0,-1.164108157E0,6.088238239E0
7.257200522E0,-7.961519241E0,-1.164108157E0,6.088238239E0
7.297200522E0,-7.961519241E0,-1.164108157E0,6.088238239E0
7.337200522E0,-7.961519241E0,-1.164108157E0,6.088238239E0
7.377200522E0,-7.961519241E0,-1.164108157E0,6.088238239E0
7.417200522E0,-7.961519241E0,-1.164108157E0,6.088238239E0
7.457200522E0,-7.961519241E0,-1.164108157E0,6.088238239E0
7.497200522E0,-7.961519241E0,-1.164108157E0,6.088238239E0
7.537200522E0,-7.961519241E0,-1.164108157E0,6.088238239E0
7.577200522E0,-7.961519241E0,-1.164108157E0,6.088238239E0
7.617200522E0,-7.961519241E0,-1.164108157E0,6.088238239E0
7.657200522E0,-7.961519241E0,-1.164108157E0,6.088238239E0
7.697200522E0,-7.961519241E0,-1.164108157E0,6.088238239E0
7.737200522E0,-7.961519241E0,-1.164108157E0,6.088238239E0
7.777200522E0,-7.961519241E0,-1.164108157E0,6.088238239E0
7.817200522E0,-7.961519241E0,-1.164108157E0,6.088238239E0
7.857200522E0,-7.961519241E0,-1.164108157E0,6.088238239E0
7.897200522E0,-7.517052174E0,-1.394118309E0,6.082255840E0
7.937200522E0,-7.121937275E0,-1.279262781E0,6.096612930E0
7.977200522E0,-7.270292282E0,-1.343868971E0,6.276074886E0
8.017200522E0,-7.542177200E0,-1.290030479E0,6.209075451E0
8.057200522E0,-7.452445984E0,-1.408475280E0,6.024828434E0
8.097200522E0,-7.350451946E0,-1.533201098E0,6.128916264E0
8.137200522E0,-7.363911629E0,-1.458724499E0,6.302694798E0
8.177200522E0,-7.252346516E0,-1.573879123E0,6.120541096E0
8.217200522E0,-7.316952705E0,-1.101894855E0,6.206682682E0
8.257200522E0,-7.464410305E0,-1.104287624E0,6.143272877E0
8.297200522E0,-7.568498135E0,-1.388136268E0,6.088238239E0
8.337200522E0,-7.403393269E0,-1.490130305E0,5.999404430E0
8.377200522E0,-7.333702087E0,-1.588235974E0,6.047560215E0
8.417200522E0,-7.333702087E0,-1.573879123E0,6.075077534E0
8.457200522E0,-7.360322475E0,-1.478166223E0,6.242575169E0
8.497200522E0,-7.261917591E0,-1.349851131E0,6.200700760E0
8.537200522E0,-7.409375191E0,-1.347458243E0,6.112166405E0
8.577200522E0,-7.357630730E0,-1.346261859E0,6.142076492E0
8.617200522E0,-7.463213921E0,-1.516451359E0,6.128916264E0
8.657200522E0,-7.401000500E0,-1.680359721E0,6.087041855E0
8.697200522E0,-7.399804115E0,-1.637288928E0,6.099005699E0
8.737200522E0,-7.428517818E0,-1.697109461E0,6.023632050E0
8.777200522E0,-7.166204929E0,-1.661217093E0,6.008975983E0
8.817200522E0,-7.166204929E0,-1.661217093E0,6.008975983E0
8.857200522E0,-7.332505703E0,-1.257727385E0,6.142076492E0
8.897200522E0,-7.332505703E0,-1.257727385E0,6.142076492E0
8.937200522E0,-7.332505703E0,-1.257727385E0,6.142076492E0
8.977200522E0,-7.332505703E0,-1.257727385E0,6.142076492E0
9.017200522E0,-7.332505703E0,-1.257727385E0,6.142076492E0
9.057200522E0,-7.332505703E0,-1.257727385E0,6.142076492E0
9.097200522E0,-7.332505703E0,-1.257727385E0,6.142076492E0
9.137200522E0,-7.332505703E0,-1.257727385E0,6.142076492E0
9.177200522E0,-7.332505703E0,-1.257727385E0,6.142076492E0
9.217200522E0,-7.332505703E0,-1.257727385E0,6.142076492E0
9.257200522E0,-7.332505703E0,-1.257727385E0,6.142076492E0
9.297200522E0,-7.332505703E0,-1.257727385E0,6.142076492E0
9.337200522E0,-7.332505703E0,-1.257727385E0,6.142076492E0
9.377200522E0,-7.332505703E0,-1.257727385E0,6.142076492E0
9.417200522E0,-7.332505703E0,-1.257727385E0,6.142076492E0
9.457200522E0,-7.332505703E0,-1.257727385E0,6.142076492E0
9.497200522E0,-7.332505703E0,-1.257727385E0,6.142076492E0
9.537200522E0,-7.332505703E0,-1.257727385E0,6.142076492E0
9.577200522E0,-7.247560501E0,-1.625324726E0,6.267699718E0
9.617200522E0,-7.184150696E0,-1.901994944E0,6.241378784E0
9.657200522E0,-7.331309319E0,-1.607378602E0,5.968297958E0
9.697200522E0,-7.349255562E0,-1.522433400E0,6.131309032E0
9.737200522E0,-7.512266636E0,-1.520040631E0,6.054738522E0
9.777200522E0,-7.599604607E0,-1.597807288E0,6.014957905E0
9.817200522E0,-7.255935669E0,-1.497308731E0,5.937191010E0
9.857200522E0,-7.380661488E0,-1.578664780E0,6.042774677E0
9.897200522E0,-7.346862793E0,-1.552343726E0,6.122933865E0
9.937200522E0,-7.172186852E0,-1.530808330E0,6.077470303E0
9.977200522E0,-7.312166691E0,-1.475773335E0,6.095416546E0
1.001720052E1,-7.483552933E0,-1.522433400E0,5.932405472E0
1.005720052E1,-7.330112934E0,-1.485344648E0,6.155237198E0
1.009720052E1,-7.568498135E0,-1.666002750E0,6.254539490E0
1.013720052E1,-7.247560501E0,-1.536790371E0,6.039185047E0
1.017720052E1,-7.218846798E0,-1.664806366E0,6.254539490E0
1.021720052E1,-7.322934628E0,-1.595414519E0,6.334998131E0
1.025720052E1,-7.178168774E0,-1.615753531E0,6.235396862E0
1.029720052E1,-7.230811119E0,-1.558325768E0,6.276074886E0
1.033720052E1,-7.237989426E0,-1.554736495E0,6.149255276E0
1.037720052E1,-7.258328438E0,-1.557129383E0,6.273681641E0
1.041720052E1,-7.378268719E0,-1.582253933E0,6.174379826E0
1.045720052E1,-7.064210415E0,-1.508076429E0,6.143272877E0
1.049720052E1,-7.064210415E0,-1.508076429E0,6.143272877E0
1.053720052E1,-7.064210415E0,-1.508076429E0,6.143272877E0
1.057720052E1,-7.064210415E0,-1.508076429E0,6.143272877E0
1.061720052E1,-7.018746853E0,-1.339083314E0,6.384050846E0
1.065720052E1,-7.018746853E0,-1.339083314E0,6.384050846E0
1.069720052E1,-7.018746853E0,-1.339083314E0,6.384050846E0
1.073720052E1,-7.018746853E0,-1.339083314E0,6.384050846E0
1.077720052E1,-7.018746853E0,-1.339083314E0,6.384050846E0
1.081720052E1,-7.018746853E0,-1.339083314E0,6.384050846E0
1.085720052E1,-7.172186852E0,-1.443171144E0,6.155237198E0
1.089720052E1,-7.172186852E0,-1.443171144E0,6.155237198E0
1.093720052E1,-7.172186852E0,-1.443171144E0,6.155237198E0
1.097720052E1,-7.172186852E0,-1.443171144E0,6.155237198E0
1.101720052E1,-7.172186852E0,-1.443171144E0,6.155237198E0
1.105720052E1,-7.172186852E0,-1.443171144E0,6.155237198E0
1.109720052E1,-7.172186852E0,-1.443171144E0,6.155237198E0
1.113720052E1,-7.172186852E0,-1.443171144E0,6.155237198E0
1.117720052E1,-7.172186852E0,-1.443171144E0,6.155237198E0
1.121720052E1,-6.665506363E0,-1.740479350E0,6.446264267E0
1.125720052E1,-6.524031162E0,-2.218146563E0,6.671488762E0
1.129720052E1,-6.779165745E0,-2.193022013E0,6.938587666E0
1.133720052E1,-6.642774582E0,-2.221735716E0,6.578168392E0
1.137720052E1,-6.682256222E0,-2.146361828E0,6.334998131E0
1.141720052E1,-7.019943237E0,-2.147558212E0,6.065506458E0
1.145720052E1,-7.275078297E0,-2.002493382E0,6.277271271E0
1.149720052E1,-7.668099403E0,-1.976172447E0,6.258128643E0
1.153720052E1,-7.849953651E0,-1.642074585E0,5.841478348E0
1.157720052E1,-7.730312824E0,-1.473380566E0,5.664110184E0
1.161720052E1,-7.851150036E0,-1.614557028E0,5.711966991E0
1.165720052E1,-7.525427341E0,-1.667199135E0,5.971887112E0
1.169720052E1,-7.656135082E0,-1.616949916E0,5.921638012E0
1.173720052E1,-7.482356548E0,-1.564307809E0,5.999404430E0
1.177720052E1,-7.321738243E0,-1.693520188E0,6.175576210E0
1.181720052E1,-7.493124008E0,-1.715055585E0,6.254539490E0
1.185720052E1,-7.361518860E0,-1.643270969E0,6.403193474E0
1.189720052E1,-7.706384659E0,-2.021935225E0,5.629414558E0
1.193720052E1,-6.961319447E0,-1.664806366E0,6.508477688E0
1.197720052E1,-7.042675018E0,-1.748854280E0,6.446264267E0
1.201720052E1,-7.101598740E0,-1.801496387E0,6.340980053E0
1.205720052E1,-7.167401314E0,-1.754836321E0,6.274878502E0
1.209720052E1,-7.322934628E0,-1.669592023E0,6.161219120E0
1.213720052E1,-7.322934628E0,-1.669592023E0,6.161219120E0
1.217720052E1,-7.322934628E0,-1.669592023E0,6.161219120E0
1.221720052E1,-7.322934628E0,-1.669592023E0,6.161219120E0
1.225720052E1,-7.322934628E0,-1.669592023E0,6.161219120E0
1.229720052E1,-7.322934628E0,-1.669592023E0,6.161219120E0
1.233720052E1,-7.322934628E0,-1.669592023E0,6.161219120E0
1.237720052E1,-7.322934628E0,-1.669592023E0,6.161219120E0
1.241720052E1,-7.322934628E0,-1.669592023E0,6.161219120E0
1.245720052E1,-7.322934628E0,-1.669592023E0,6.161219120E0
1.249720052E1,-7.322934628E0,-1.669592023E0,6.161219120E0
1.253720052E1,-7.322934628E0,-1.669592023E0,6.161219120E0
1.257720052E1,-7.322934628E0,-1.669592023E0,6.161219120E0
1.261720052E1,-7.322934628E0,-1.669592023E0,6.161219120E0
1.265720052E1,-7.322934628E0,-1.669592023E0,6.161219120E0
1.269720052E1,-7.322934628E0,-1.669592023E0,6.161219120E0
1.273720052E1,-7.322934628E0,-1.669592023E0,6.161219120E0
1.277720052E1,-7.322934628E0,-1.669592023E0,6.161219120E0
1.281720052E1,-7.322934628E0,-1.669592023E0,6.161219120E0
1.285720052E1,-7.197311401E0,-1.756032705E0,6.464210510E0
1.289720052E1,-7.174579620E0,-1.668395638E0,6.453442574E0
1.293720052E1,-7.102795124E0,-1.709073544E0,6.421139717E0
1.297720052E1,-7.113562584E0,-1.748854280E0,6.398407936E0
1.301720052E1,-7.019943237E0,-1.703091502E0,6.521637917E0
1.305720052E1,-7.024729252E0,-1.773978829E0,6.538387775E0
1.309720052E1,-6.950551510E0,-1.766800404E0,6.552744865E0
1.313720052E1,-6.897909641E0,-1.757229090E0,6.515655994E0
1.317720052E1,-6.860820770E0,-1.808674812E0,6.632007122E0
1.321720052E1,-6.739684105E0,-1.796710730E0,6.563811779E0
1.325720052E1,-6.652346134E0,-1.753639936E0,6.752844810E0
1.329720052E1,-6.857231617E0,-1.753639936E0,6.664309978E0
1.333720052E1,-7.143472672E0,-1.887637973E0,6.297909260E0
1.337720052E1,-6.993622303E0,-1.763211131E0,6.277271271E0
1.341720052E1,-7.054639339E0,-1.833799481E0,6.530013084E0
1.345720052E1,-6.932605267E0,-1.707877159E0,6.636792660E0
1.349720052E1,-6.961319447E0,-1.668395638E0,6.417550564E0
1.353720052E1,-7.060621262E0,-1.728216171E0,6.495316982E0
1.357720052E1,-7.013961315E0,-1.779960990E0,6.498906136E0
1.361720052E1,-6.950551510E0,-1.852941990E0,6.445067883E0
1.365720052E1,-7.034300327E0,-1.849352837E0,6.421139717E0
1.369720052E1,-7.153044224E0,-1.736590981E0,6.344569206E0
1.373720052E1,-7.205686092E0,-1.626521230E0,6.397211552E0
1.377720052E1,-7.205686092E0,-1.626521230E0,6.397211552E0
1.381720052E1,-7.205686092E0,-1.626521230E0,6.397211552E0
1.385720052E1,-7.205686092E0,-1.626521230E0,6.397211552E0
1.389720052E1,-7.205686092E0,-1.626521230E0,6.397211552E0
1.393720052E1,-7.205686092E0,-1.626521230E0,6.397211552E0
1.397720052E1,-7.205686092E0,-1.626521230E0,6.397211552E0
1.401720052E1,-7.205686092E0,-1.626521230E0,6.397211552E0
1.405720052E1,-7.205686092E0,-1.626521230E0,6.397211552E0
1.409720052E1,-7.205686092E0,-1.626521230E0,6.397211552E0
1.413720052E1,-7.205686092E0,-1.626521230E0,6.397211552E0
1.417720052E1,-7.205686092E0,-1.626521230E0,6.397211552E0
1.421720052E1,-7.205686092E0,-1.626521230E0,6.397211552E0
1.425720052E1,-7.205686092E0,-1.626521230E0,6.397211552E0
1.429720052E1,-7.205686092E0,-1.626521230E0,6.397211552E0
1.433720052E1,-7.205686092E0,-1.626521230E0,6.397211552E0
1.437720052E1,-7.205686092E0,-1.626521230E0,6.397211552E0
1.441720052E1,-7.205686092E0,-1.626521230E0,6.397211552E0
1.445720052E1,-7.205686092E0,-1.626521230E0,6.397211552E0
1.449720052E1,-7.205686092E0,-1.626521230E0,6.397211552E0
1.453720052E1,-7.193722248E0,-1.737787485E0,6.356533527E0
1.457720052E1,-7.080960274E0,-1.760818362E0,6.425925255E0
1.461720052E1,-6.990033150E0,-1.744068623E0,6.403193474E0
1.465720052E1,-6.993622303E0,-1.866102576E0,6.343372822E0
1.469720052E1,-7.154240608E0,-1.825424552E0,6.271288872E0
1.473720052E1,-7.327720165E0,-1.724626899E0,6.270092487E0
1.477720052E1,-7.414160728E0,-1.700698733E0,6.122933865E0
1.481720052E1,-7.149455070E0,-1.721037745E0,6.271288872E0
1.485720052E1,-7.033103943E0,-1.849352837E0,6.355337143E0
1.489720052E1,-6.943373203E0,-1.801496387E0,6.400800705E0
1.493720052E1,-6.980462074E0,-1.850549221E0,6.445067883E0
1.497720052E1,-6.878767014E0,-1.706680775E0,6.535995007E0
1.501720052E1,-7.058228493E0,-1.680359721E0,6.441478729E0
1.505720052E1,-7.254739285E0,-1.770389676E0,6.331408501E0
1.509720052E1,-7.314559937E0,-1.763211131E0,6.163611889E0
1.513720052E1,-7.357630730E0,-1.868495345E0,6.160022736E0
1.517720052E1,-7.095616341E0,-1.766800404E0,6.260521412E0
1.521720052E1,-7.277471066E0,-1.759621978E0,6.286842346E0
1.525720052E1,-7.277471066E0,-1.794317842E0,6.201897144E0
1.529720052E1,-7.175776005E0,-1.703091502E0,6.167201042E0
1.533720052E1,-7.186543941E0,-1.703091502E0,6.382854462E0
1.537720052E1,-7.057032108E0,-1.740479350E0,6.421139717E0
1.541720052E1,-7.070192814E0,-1.756032705E0,6.379265308E0
1.545720052E1,-7.070192814E0,-1.756032705E0,6.379265308E0
1.549720052E1,-7.070192814E0,-1.756032705E0,6.379265308E0
1.553720052E1,-7.070192814E0,-1.756032705E0,6.379265308E0
1.557720052E1,-7.070192814E0,-1.756032705E0,6.379265308E0
1.561720052E1,-7.197311401E0,-1.710269928E0,6.373282909E0
1.565720052E1,-7.197311401E0,-1.710269928E0,6.373282909E0
1.569720052E1,-7.197311401E0,-1.710269928E0,6.373282909E0
1.573720052E1,-7.197311401E0,-1.710269928E0,6.373282909E0
1.577720052E1,-7.197311401E0,-1.710269928E0,6.373282909E0
1.581720052E1,-7.197311401E0,-1.710269928E0,6.373282909E0
1.585720052E1,-6.751648426E0,-1.925923109E0,6.437889099E0
1.589720052E1,-6.751648426E0,-1.925923109E0,6.437889099E0
1.593720052E1,-6.751648426E0,-1.925923109E0,6.437889099E0
1.597720052E1,-6.751648426E0,-1.925923109E0,6.437889099E0
1.601720052E1,-6.751648426E0,-1.925923109E0,6.437889099E0
1.605720052E1,-6.751648426E0,-1.925923109E0,6.437889099E0
1.609720052E1,-6.751648426E0,-1.925923109E0,6.437889099E0
1.613720052E1,-6.751648426E0,-1.925923109E0,6.437889099E0
1.617720052E1,-7.025925636E0,-1.824228168E0,6.485745907E0
1.621720052E1,-7.346862793E0,-1.888834357E0,6.109773636E0
1.625720052E1,-7.324131012E0,-1.652842283E0,6.087041855E0
1.629720052E1,-7.147062302E0,-1.669592023E0,6.369693756E0
1.633720052E1,-7.124330521E0,-1.800299883E0,6.500102520E0
1.637720052E1,-7.182954311E0,-1.750050664E0,6.136094570E0
1.641720052E1,-7.258328438E0,-1.879263043E0,6.130112648E0
1.645720052E1,-7.156633377E0,-1.770389676E0,6.311069489E0
1.649720052E1,-7.180561543E0,-1.837388635E0,6.458228111E0
1.653720052E1,-6.984051228E0,-1.772782445E0,6.250949860E0
1.657720052E1,-7.180561543E0,-1.894816399E0,6.282056808E0
1.661720052E1,-7.167401314E0,-1.878066659E0,6.312266350E0
1.665720052E1,-7.105187893E0,-1.744068623E0,6.285645962E0
1.669720052E1,-7.166204929E0,-1.776371717E0,6.253343105E0
1.673720052E1,-7.235596657E0,-1.677966833E0,6.236593246E0
1.677720052E1,-7.263113976E0,-1.745265007E0,6.206682682E0
1.681720052E1,-7.181757927E0,-1.727019787E0,6.291927338E0
1.685720052E1,-7.221239567E0,-1.778764486E0,6.197111607E0
1.689720052E1,-7.179365158E0,-1.838585138E0,6.277271271E0
1.693720052E1,-7.174579620E0,-1.851745605E0,6.309873104E0
1.697720052E1,-6.963712215E0,-1.806282043E0,6.346961975E0
1.701720052E1,-7.086942673E0,-1.869691849E0,6.372086525E0
1.705720052E1,-7.129116058E0,-1.809871197E0,6.313462734E0
1.709720052E1,-7.129116058E0,-1.809871197E0,6.313462734E0
1.713720052E1,-7.129116058E0,-1.809871197E0,6.313462734E0
1.717720052E1,-7.129116058E0,-1.809871197E0,6.313462734E0
1.721720052E1,-7.129116058E0,-1.809871197E0,6.313462734E0
1.725720052E1,-7.129116058E0,-1.809871197E0,6.313462734E0
1.729720052E1,-7.129116058E0,-1.809871197E0,6.313462734E0
1.733720052E1,-7.129116058E0,-1.809871197E0,6.313462734E0
1.737720052E1,-7.129116058E0,-1.809871197E0,6.313462734E0
1.741720052E1,-7.129116058E0,-1.809871197E0,6.313462734E0
1.745720052E1,-7.129116058E0,-1.809871197E0,6.313462734E0
1.749720052E1,-7.129116058E0,-1.809871197E0,6.313462734E0
1.753720052E1,-7.129116058E0,-1.809871197E0,6.313462734E0
1.757720052E1,-7.129116058E0,-1.809871197E0,6.313462734E0
1.761720052E1,-7.129116058E0,-1.809871197E0,6.313462734E0
1.765720052E1,-7.129116058E0,-1.809871197E0,6.313462734E0
1.769720052E1,-7.129116058E0,-1.809871197E0,6.313462734E0
1.773720052E1,-7.129116058E0,-1.809871197E0,6.313462734E0
1.777720052E1,-7.129116058E0,-1.809871197E0,6.313462734E0
1.781720052E1,-7.174579620E0,-1.854138494E0,6.246164322E0
1.785720052E1,-7.156633377E0,-1.827817440E0,6.299105644E0
1.789720052E1,-7.190133095E0,-1.765604019E0,6.265306950E0
1.793720052E1,-7.165008068E0,-1.790728688E0,6.258128643E0
1.797720052E1,-7.093223572E0,-1.797907114E0,6.325426579E0
1.801720052E1,-7.096812725E0,-1.813460469E0,6.308676720E0
1.805720052E1,-7.131508827E0,-1.852941990E0,6.299105644E0
1.809720052E1,-7.228417873E0,-1.836192250E0,6.258128643E0
1.813720052E1,-7.276274681E0,-1.855334878E0,6.211468697E0
1.817720052E1,-7.263113976E0,-1.806282043E0,6.224628925E0
1.821720052E1,-7.235596657E0,-1.834995866E0,6.173183441E0
1.825720052E1,-7.248756886E0,-1.840977907E0,6.155237198E0
1.829720052E1,-7.148258686E0,-1.795514345E0,6.262914181E0
1.833720052E1,-6.895516872E0,-1.744068623E0,6.394818306E0
1.837720052E1,-7.114758968E0,-1.840977907E0,6.362515450E0
1.841720052E1,-7.102795124E0,-1.858924150E0,6.234200478E0
1.845720052E1,-7.224828720E0,-1.872084618E0,6.266503334E0
1.849720052E1,-7.255935669E0,-1.893620014E0,6.285645962E0
1.853720052E1,-7.065407276E0,-1.800299883E0,6.235396862E0
1.857720052E1,-7.270292282E0,-1.790728688E0,6.243771553E0
1.861720052E1,-7.232007504E0,-1.725823283E0,6.262914181E0
1.865720052E1,-7.117151737E0,-1.752443433E0,6.294320107E0
1.869720052E1,-7.138687134E0,-1.815853238E0,6.284449577E0
1.873720052E1,-7.138687134E0,-1.815853238E0,6.284449577E0
1.877720052E1,-7.138687134E0,-1.815853238E0,6.284449577E0
1.881720052E1,-7.138687134E0,-1.815853238E0,6.284449577E0
1.885720052E1,-7.138687134E0,-1.815853238E0,6.284449577E0
1.889720052E1,-7.138687134E0,-1.815853238E0,6.284449577E0
1.893720052E1,-7.138687134E0,-1.815853238E0,6.284449577E0
1.897720052E1,-7.138687134E0,-1.815853238E0,6.284449577E0
1.901720052E1,-7.138687134E0,-1.815853238E0,6.284449577E0
1.905720052E1,-7.138687134E0,-1.815853238E0,6.284449577E0
1.909720052E1,-7.138687134E0,-1.815853238E0,6.284449577E0
1.913720052E1,-7.138687134E0,-1.815853238E0,6.284449577E0
1.917720052E1,-7.138687134E0,-1.815853238E0,6.284449577E0
1.921720052E1,-7.138687134E0,-1.815853238E0,6.284449577E0
1.925720052E1,-7.138687134E0,-1.815853238E0,6.284449577E0
1.929720052E1,-7.138687134E0,-1.815853238E0,6.284449577E0
1.933720052E1,-7.138687134E0,-1.815853238E0,6.284449577E0
1.937720052E1,-7.138687134E0,-1.815853238E0,6.284449577E0
1.941720052E1,-7.138687134E0,-1.815853238E0,6.284449577E0
1.945720052E1,-7.138687134E0,-1.815853238E0,6.284449577E0
1.949720052E1,-7.137490749E0,-1.789532185E0,6.234200478E0
1.953720052E1,-7.049853802E0,-1.797907114E0,6.295516491E0
1.957720052E1,-7.096812725E0,-1.799103498E0,6.338587284E0
1.961720052E1,-7.170990467E0,-1.940280080E0,6.315855503E0
1.965720052E1,-7.203293324E0,-2.000100613E0,6.223432541E0
1.969720052E1,-7.200900555E0,-2.009970903E0,6.271288872E0
1.973720052E1,-7.046264648E0,-1.910369754E0,6.223432541E0
1.977720052E1,-6.987640381E0,-1.880459547E0,6.200700760E0
1.981720052E1,-7.131508827E0,-1.625324726E0,6.101398468E0
1.985720052E1,-7.357630730E0,-1.563111424E0,6.212665081E0
1.989720052E1,-7.570890903E0,-1.727019787E0,6.300302029E0
1.993720052E1,-7.463213921E0,-1.861316919E0,6.077470303E0
1.997720052E1,-7.220043182E0,-1.839781523E0,6.035595894E0
2.001720052E1,-7.326523781E0,-2.011167526E0,6.181558132E0
2.005720052E1,-7.080960274E0,-1.928315997E0,6.338587284E0
2.009720052E1,-7.054639339E0,-1.826620936E0,6.334998131E0
2.013720052E1,-7.130312443E0,-1.820638895E0,6.290730953E0
2.017720052E1,-7.153044224E0,-1.737787485E0,6.241378784E0
2.021720052E1,-7.234400272E0,-1.775175333E0,6.265306950E0
2.025720052E1,-7.197311401E0,-1.824228168E0,6.203093529E0
2.029720052E1,-7.215257645E0,-1.823031783E0,6.148058891E0
2.033720052E1,-7.334898949E0,-1.867298961E0,6.154040813E0
2.037720052E1,-7.334898949E0,-1.867298961E0,6.154040813E0
2.041720052E1,-7.334898949E0,-1.867298961E0,6.154040813E0
2.045720052E1,-7.334898949E0,-1.867298961E0,6.154040813E0
2.049720052E1,-7.334898949E0,-1.867298961E0,6.154040813E0
2.053720052E1,-7.334898949E0,-1.867298961E0,6.154040813E0
2.057720052E1,-7.334898949E0,-1.867298961E0,6.154040813E0
2.061720052E1,-7.334898949E0,-1.867298961E0,6.154040813E0
2.065720052E1,-7.334898949E0,-1.867298961E0,6.154040813E0
2.069720052E1,-7.334898949E0,-1.867298961E0,6.154040813E0
2.073720052E1,-7.334898949E0,-1.867298961E0,6.154040813E0
2.077720052E1,-7.334898949E0,-1.867298961E0,6.154040813E0
2.081720052E1,-7.334898949E0,-1.867298961E0,6.154040813E0
2.085720052E1,-7.334898949E0,-1.867298961E0,6.154040813E0
2.089720052E1,-7.334898949E0,-1.867298961E0,6.154040813E0
2.093720052E1,-7.334898949E0,-1.867298961E0,6.154040813E0
2.097720052E1,-7.334898949E0,-1.867298961E0,6.154040813E0
2.101720052E1,-7.334898949E0,-1.867298961E0,6.154040813E0
2.105720052E1,-7.334898949E0,-1.867298961E0,6.154040813E0
2.109720052E1,-7.334898949E0,-1.867298961E0,6.154040813E0
2.113720052E1,-7.253542900E0,-1.719841242E0,6.231807709E0
2.117720052E1,-7.206882477E0,-1.756032705E0,6.162415504E0
2.121720052E1,-7.396214962E0,-1.927119493E0,6.121737480E0
2.125720052E1,-7.100401878E0,-1.917548299E0,6.075077534E0
2.129720052E1,-7.223632336E0,-1.982154489E0,6.290730953E0
2.133720052E1,-7.106384277E0,-1.901994944E0,6.343372822E0
2.137720052E1,-7.060621262E0,-1.867298961E0,6.248557091E0
2.141720052E1,-7.287042141E0,-1.959422588E0,6.212665081E0
2.145720052E1,-7.124330521E0,-1.927119493E0,6.155237198E0
2.149720052E1,-7.297810078E0,-1.875673890E0,6.156433582E0
2.153720052E1,-7.215257645E0,-1.872084618E0,6.054738522E0
2.157720052E1,-7.279863834E0,-1.760818362E0,6.155237198E0
2.161720052E1,-7.228417873E0,-1.753639936E0,6.176772594E0
2.165720052E1,-7.132705212E0,-1.825424552E0,6.203093529E0
2.169720052E1,-7.257132053E0,-1.959422588E0,6.197111607E0
2.173720052E1,-7.172186852E0,-1.888834357E0,6.083452702E0
2.177720052E1,-7.332505703E0,-1.904387712E0,6.019743443E0
2.181720052E1,-7.410571575E0,-1.880459547E0,5.962316036E0
2.185720052E1,-7.567301750E0,-1.759621978E0,6.137290955E0
2.189720052E1,-7.526623726E0,-1.837388635E0,6.016154289E0
2.193720052E1,-7.392625332E0,-1.800299883E0,5.950351715E0
2.197720052E1,-7.230811119E0,-1.764407635E0,6.069095612E0
2.201720052E1,-7.377072334E0,-1.876870275E0,6.112166405E0
2.205720052E1,-7.377072334E0,-1.876870275E0,6.112166405E0
2.209720052E1,-7.377072334E0,-1.876870275E0,6.112166405E0
2.213720052E1,-7.377072334E0,-1.876870275E0,6.112166405E0
2.217720052E1,-7.377072334E0,-1.876870275E0,6.112166405E0
2.221720052E1,-7.377072334E0,-1.876870275E0,6.112166405E0
2.225720052E1,-7.377072334E0,-1.876870275E0,6.112166405E0
2.229720052E1,-7.377072334E0,-1.876870275E0,6.112166405E0
2.233720052E1,-7.377072334E0,-1.876870275E0,6.112166405E0
2.237720052E1,-7.377072334E0,-1.876870275E0,6.112166405E0
2.241720052E1,-7.377072334E0,-1.876870275E0,6.112166405E0
2.245720052E1,-7.377072334E0,-1.876870275E0,6.112166405E0
2.249720052E1,-7.377072334E0,-1.876870275E0,6.112166405E0
2.253720052E1,-7.377072334E0,-1.876870275E0,6.112166405E0
2.257720052E1,-7.377072334E0,-1.876870275E0,6.112166405E0
2.261720052E1,-7.377072334E0,-1.876870275E0,6.112166405E0
2.265720052E1,-7.377072334E0,-1.876870275E0,6.112166405E0
2.269720052E1,-7.377072334E0,-1.876870275E0,6.112166405E0
2.273720052E1,-7.377072334E0,-1.876870275E0,6.112166405E0
2.277720052E1,-7.434499741E0,-1.866102576E0,5.977869034E0
2.281720052E1,-7.366304398E0,-1.823031783E0,6.047560215E0
2.285720052E1,-7.331309319E0,-1.775175333E0,6.006583214E0
2.289720052E1,-7.226025105E0,-1.738983870E0,6.125326633E0
2.293720052E1,-7.556533813E0,-1.776371717E0,6.029613972E0
2.297720052E1,-7.512266636E0,-1.875673890E0,5.898906231E0
2.301720052E1,-7.616354465E0,-1.892423630E0,5.793622017E0
2.305720052E1,-7.374679565E0,-1.837388635E0,5.922834396E0
2.309720052E1,-7.482356548E0,-1.754836321E0,6.082255840E0
2.313720052E1,-7.249953270E0,-1.683948994E0,5.944369793E0
2.317720052E1,-7.290631294E0,-1.785943031E0,6.057131290E0
2.321720052E1,-7.159026146E0,-1.801496387E0,6.070291996E0
2.325720052E1,-7.349255562E0,-1.875673890E0,6.130112648E0
2.329720052E1,-7.333702087E0,-1.881655931E0,6.016154289E0
2.333720052E1,-7.405786037E0,-1.843370795E0,6.094220161E0
2.337720052E1,-7.294220924E0,-1.777568102E0,6.014957905E0
2.341720052E1,-7.417750359E0,-1.803889155E0,6.054738522E0
2.345720052E1,-7.366304398E0,-1.829013824E0,6.006583214E0
2.349720052E1,-7.328916550E0,-1.772782445E0,6.052345753E0
2.353720052E1,-7.334898949E0,-1.893620014E0,6.006583214E0
2.357720052E1,-7.403393269E0,-1.911566138E0,6.049952984E0
2.361720052E1,-7.452445984E0,-1.943869352E0,6.077470303E0
2.365720052E1,-7.438089371E0,-1.772782445E0,5.999404430E0
2.369720052E1,-7.334898949E0,-1.752443433E0,6.061916828E0
2.373720052E1,-7.334898949E0,-1.752443433E0,6.061916828E0
2.377720052E1,-7.334898949E0,-1.752443433E0,6.061916828E0
2.381720052E1,-7.334898949E0,-1.752443433E0,6.061916828E0
2.385720052E1,-7.334898949E0,-1.752443433E0,6.061916828E0
2.389720052E1,-7.334898949E0,-1.752443433E0,6.061916828E0
2.393720052E1,-7.334898949E0,-1.752443433E0,6.061916828E0
2.397720052E1,-7.334898949E0,-1.752443433E0,6.061916828E0
2.401720052E1,-7.334898949E0,-1.752443433E0,6.061916828E0
2.405720052E1,-7.334898949E0,-1.752443433E0,6.061916828E0
2.409720052E1,-7.334898949E0,-1.752443433E0,6.061916828E0
2.413720052E1,-7.334898949E0,-1.752443433E0,6.061916828E0
2.417720052E1,-7.334898949E0,-1.752443433E0,6.061916828E0
2.421720052E1,-7.334898949E0,-1.752443433E0,6.061916828E0
2.425720052E1,-7.334898949E0,-1.752443433E0,6.061916828E0
2.429720052E1,-7.334898949E0,-1.752443433E0,6.061916828E0
2.433720052E1,-7.334898949E0,-1.752443433E0,6.061916828E0
2.437720052E1,-7.334898949E0,-1.752443433E0,6.061916828E0
2.441720052E1,-7.334898949E0,-1.752443433E0,6.061916828E0
2.445720052E1,-7.214061260E0,-1.613360643E0,6.361319065E0
2.449720052E1,-7.149455070E0,-1.751247048E0,6.271288872E0
2.453720052E1,-7.135097980E0,-1.753639936E0,6.274878502E0
2.457720052E1,-6.911069870E0,-1.862513304E0,6.449853420E0
2.461720052E1,-6.961319447E0,-1.923530340E0,6.482156754E0
2.465720052E1,-6.902695179E0,-1.893620014E0,6.413960934E0
2.469720052E1,-6.911069870E0,-1.849352837E0,6.586543560E0
2.473720052E1,-6.932605267E0,-1.737787485E0,6.599703789E0
2.477720052E1,-7.006783009E0,-1.777568102E0,6.541976929E0
2.481720052E1,-7.061817646E0,-1.728216171E0,6.502495766E0
2.485720052E1,-7.022336483E0,-1.790728688E0,6.528816700E0
2.489720052E1,-7.099205494E0,-1.866102576E0,6.380461693E0
2.493720052E1,-7.051050186E0,-1.788335800E0,6.396014690E0
2.497720052E1,-7.101598740E0,-1.767996788E0,6.474977970E0
2.501720052E1,-7.024729252E0,-1.631306887E0,6.593721867E0
2.505720052E1,-6.901498795E0,-1.735394597E0,6.653542519E0
2.509720052E1,-6.719345093E0,-1.771586061E0,6.471388817E0
2.513720052E1,-6.835696220E0,-2.170290232E0,6.440282345E0
2.517720052E1,-6.315855503E0,-1.946262121E0,6.591329098E0
2.521720052E1,-6.797111988E0,-2.008774519E0,6.739684105E0
2.525720052E1,-6.657131672E0,-2.146361828E0,6.509674072E0
2.529720052E1,-6.519245148E0,-2.001296997E0,6.533602238E0
2.533720052E1,-6.697809696E0,-1.917548299E0,6.651149750E0
2.537720052E1,-6.697809696E0,-1.917548299E0,6.651149750E0
2.541720052E1,-6.697809696E0,-1.917548299E0,6.651149750E0
2.545720052E1,-6.697809696E0,-1.917548299E0,6.651149750E0
2.549720052E1,-6.697809696E0,-1.917548299E0,6.651149750E0
2.553720052E1,-6.697809696E0,-1.917548299E0,6.651149750E0
2.557720052E1,-6.697809696E0,-1.917548299E0,6.651149750E0
2.561720052E1,-6.697809696E0,-1.917548299E0,6.651149750E0
2.565720052E1,-6.697809696E0,-1.917548299E0,6.651149750E0
2.569720052E1,-6.697809696E0,-1.917548299E0,6.651149750E0
2.573720052E1,-6.697809696E0,-1.917548299E0,6.651149750E0
2.577720052E1,-6.697809696E0,-1.917548299E0,6.651149750E0
2.581720052E1,-6.697809696E0,-1.917548299E0,6.651149750E0
2.585720052E1,-7.282256603E0,-1.791925073E0,6.125326633E0
2.589720052E1,-7.282256603E0,-1.791925073E0,6.125326633E0
2.593720052E1,-7.282256603E0,-1.791925073E0,6.125326633E0
2.597720052E1,-7.282256603E0,-1.791925073E0,6.125326633E0
2.601720052E1,-7.282256603E0,-1.791925073E0,6.125326633E0
2.605720052E1,-7.282256603E0,-1.791925073E0,6.125326633E0
2.609720052E1,-7.366304398E0,-1.917548299E0,6.083452702E0
2.613720052E1,-7.006783009E0,-1.748854280E0,6.192326069E0
2.617720052E1,-7.208079338E0,-1.787139416E0,6.346961975E0
2.621720052E1,-7.190133095E0,-1.799103498E0,6.231807709E0
2.625720052E1,-7.194918633E0,-1.805085540E0,6.221039772E0
2.629720052E1,-7.260721207E0,-1.779960990E0,6.224628925E0
2.633720052E1,-7.264310360E0,-1.709073544E0,6.173183441E0
2.637720052E1,-7.294220924E0,-1.757229090E0,6.252146244E0
2.641720052E1,-7.275078297E0,-1.840977907E0,6.131309032E0
2.645720052E1,-7.089335442E0,-1.694716692E0,6.235396862E0
2.649720052E1,-7.304988384E0,-1.758425593E0,6.218647003E0
2.653720052E1,-7.309773922E0,-1.735394597E0,6.168397903E0
2.657720052E1,-7.374679565E0,-1.823031783E0,6.181558132E0
2.661720052E1,-7.228417873E0,-1.885245085E0,6.133701801E0
2.665720052E1,-7.264310360E0,-1.829013824E0,6.168397903E0
2.669720052E1,-7.258328438E0,-1.832603097E0,6.128916264E0
2.673720052E1,-7.190133095E0,-1.812264085E0,6.212665081E0
2.677720052E1,-7.199704170E0,-1.693520188E0,6.303891182E0
2.681720052E1,-7.269095898E0,-1.771586061E0,6.160022736E0
2.685720052E1,-7.163811684E0,-1.767996788E0,6.149255276E0
2.689720052E1,-7.271489143E0,-1.881655931E0,6.168397903E0
2.693720052E1,-7.208079338E0,-1.869691849E0,6.203093529E0
2.697720052E1,-7.247560501E0,-1.870888233E0,6.119344711E0
2.701720052E1,-7.247560501E0,-1.870888233E0,6.119344711E0
2.705720052E1,-7.247560501E0,-1.870888233E0,6.119344711E0
2.709720052E1,-7.247560501E0,-1.870888233E0,6.119344711E0
2.713720052E1,-7.247560501E0,-1.870888233E0,6.119344711E0
2.717720052E1,-7.247560501E0,-1.870888233E0,6.119344711E0
2.721720052E1,-7.247560501E0,-1.870888233E0,6.119344711E0
2.725720052E1,-7.247560501E0,-1.870888233E0,6.119344711E0
2.729720052E1,-7.247560501E0,-1.870888233E0,6.119344711E0
2.733720052E1,-7.247560501E0,-1.870888233E0,6.119344711E0
2.737720052E1,-7.247560501E0,-1.870888233E0,6.119344711E0
2.741720052E1,-7.247560501E0,-1.870888233E0,6.119344711E0
2.745720052E1,-7.247560501E0,-1.870888233E0,6.119344711E0
2.749720052E1,-7.247560501E0,-1.870888233E0,6.119344711E0
2.753720052E1,-7.247560501E0,-1.870888233E0,6.119344711E0
2.757720052E1,-7.247560501E0,-1.870888233E0,6.119344711E0
2.761720052E1,-7.247560501E0,-1.870888233E0,6.119344711E0
2.765720052E1,-7.247560501E0,-1.870888233E0,6.119344711E0
2.769720052E1,-7.247560501E0,-1.870888233E0,6.119344711E0
2.773720052E1,-7.196115017E0,-1.661217093E0,6.221039772E0
2.777720052E1,-7.285845757E0,-1.880459547E0,6.194718838E0
2.781720052E1,-7.402196884E0,-1.723430514E0,6.118148327E0
2.785720052E1,-7.315756321E0,-1.482951880E0,6.149255276E0
2.789720052E1,-7.210472107E0,-1.561915040E0,6.260521412E0
2.793720052E1,-7.253542900E0,-1.595414519E0,6.254539490E0
2.797720052E1,-7.223632336E0,-1.681556106E0,6.093023777E0
2.801720052E1,-7.324131012E0,-1.821835399E0,6.145665646E0
2.805720052E1,-7.344470024E0,-1.837388635E0,6.199504375E0
2.809720052E1,-7.209275723E0,-1.717448473E0,6.212665081E0
2.813720052E1,-7.234400272E0,-1.642074585E0,6.203093529E0
2.817720052E1,-7.294220924E0,-1.648056626E0,6.174379826E0
2.821720052E1,-7.259524822E0,-1.599003673E0,6.169594288E0
2.825720052E1,-7.327720165E0,-1.718644857E0,6.150451660E0
2.829720052E1,-7.300202847E0,-1.703091502E0,6.118148327E0
2.833720052E1,-7.287042141E0,-1.717448473E0,6.180361748E0
2.837720052E1,-7.216454029E0,-1.655235052E0,6.157629967E0
2.841720052E1,-7.130312443E0,-1.631306887E0,6.221039772E0
2.845720052E1,-7.374679565E0,-1.762014747E0,6.209075451E0
2.849720052E1,-7.310970306E0,-1.675574064E0,6.094220161E0
2.853720052E1,-7.299006462E0,-1.644467354E0,6.132505417E0
2.857720052E1,-7.269095898E0,-1.595414519E0,6.213861465E0
2.861720052E1,-7.218846798E0,-1.643270969E0,6.238986015E0
2.865720052E1,-7.218846798E0,-1.643270969E0,6.238986015E0
2.869720052E1,-7.218846798E0,-1.643270969E0,6.238986015E0
2.873720052E1,-7.218846798E0,-1.643270969E0,6.238986015E0
2.877720052E1,-7.218846798E0,-1.643270969E0,6.238986015E0
2.881720052E1,-7.218846798E0,-1.643270969E0,6.238986015E0
2.885720052E1,-7.218846798E0,-1.643270969E0,6.238986015E0
2.889720052E1,-7.218846798E0,-1.643270969E0,6.238986015E0
2.893720052E1,-7.218846798E0,-1.643270969E0,6.238986015E0
2.897720052E1,-7.218846798E0,-1.643270969E0,6.238986015E0
2.901720052E1,-7.218846798E0,-1.643270969E0,6.238986015E0
2.905720052E1,-7.218846798E0,-1.643270969E0,6.238986015E0
2.909720052E1,-7.218846798E0,-1.643270969E0,6.238986015E0
2.913720052E1,-7.218846798E0,-1.643270969E0,6.238986015E0
2.917720052E1,-7.218846798E0,-1.643270969E0,6.238986015E0
2.921720052E1,-7.218846798E0,-1.643270969E0,6.238986015E0
2.925720052E1,-7.218846798E0,-1.643270969E0,6.238986015E0
2.929720052E1,-7.218846798E0,-1.643270969E0,6.238986015E0
2.933720052E1,-7.218846798E0,-1.643270969E0,6.238986015E0
2.937720052E1,-7.218846798E0,-1.643270969E0,6.238986015E0
2.941720052E1,-7.232007504E0,-1.704287887E0,6.216254234E0
2.945720052E1,-7.223632336E0,-1.644467354E0,6.179165363E0
2.949720052E1,-7.282256603E0,-1.675574064E0,6.225825310E0
2.953720052E1,-7.295417309E0,-1.681556106E0,6.230610847E0
2.957720052E1,-7.281060219E0,-1.730608940E0,6.127719879E0
2.961720052E1,-7.203293324E0,-1.673181176E0,6.149255276E0
2.965720052E1,-7.261917591E0,-1.668395638E0,6.261717796E0
2.969720052E1,-7.258328438E0,-1.668395638E0,6.262914181E0
2.973720052E1,-7.252346516E0,-1.687538147E0,6.249753475E0
2.977720052E1,-7.252346516E0,-1.624128342E0,6.217450619E0
2.981720052E1,-7.299006462E0,-1.766800404E0,6.215057850E0
2.985720052E1,-7.185347080E0,-1.520040631E0,6.179165363E0
2.989720052E1,-7.260721207E0,-1.796710730E0,6.230610847E0
2.993720052E1,-7.342077255E0,-1.667199135E0,6.213861465E0
2.997720052E1,-7.235596657E0,-1.676770449E0,6.103791237E0
3.001720052E1,-7.303792000E0,-1.692323804E0,6.195915222E0
3.005720052E1,-7.302595615E0,-1.366600871E0,6.282056808E0
3.009720052E1,-7.340880871E0,-1.717448473E0,6.199504375E0
3.013720052E1,-7.378268719E0,-1.751247048E0,6.055934906E0
3.017720052E1,-7.261917591E0,-1.648056626E0,6.075077534E0
3.021720052E1,-7.255935669E0,-1.521237016E0,6.187540054E0
3.025720052E1,-7.279863834E0,-1.733001828E0,6.286842346E0
3.029720052E1,-7.159026146E0,-1.773978829E0,6.213861465E0
3.033720052E1,-7.159026146E0,-1.773978829E0,6.213861465E0
3.037720052E1,-7.159026146E0,-1.773978829E0,6.213861465E0
3.041720052E1,-7.159026146E0,-1.773978829E0,6.213861465E0
3.045720052E1,-7.159026146E0,-1.773978829E0,6.213861465E0
3.049720052E1,-7.159026146E0,-1.773978829E0,6.213861465E0
3.053720052E1,-7.159026146E0,-1.773978829E0,6.213861465E0
3.057720052E1,-7.159026146E0,-1.773978829E0,6.213861465E0
3.061720052E1,-7.159026146E0,-1.773978829E0,6.213861465E0
3.065720052E1,-7.159026146E0,-1.773978829E0,6.213861465E0
3.069720052E1,-7.159026146E0,-1.773978829E0,6.213861465E0
3.073720052E1,-7.159026146E0,-1.773978829E0,6.213861465E0
3.077720052E1,-7.159026146E0,-1.773978829E0,6.213861465E0
3.081720052E1,-7.159026146E0,-1.773978829E0,6.213861465E0
3.085720052E1,-7.159026146E0,-1.773978829E0,6.213861465E0
3.089720052E1,-7.159026146E0,-1.773978829E0,6.213861465E0
3.093720052E1,-7.159026146E0,-1.773978829E0,6.213861465E0
3.097720052E1,-7.159026146E0,-1.773978829E0,6.213861465E0
3.101720052E1,-7.159026146E0,-1.773978829E0,6.213861465E0
3.105720052E1,-7.361518860E0,-1.727019787E0,6.179165363E0
3.109720052E1,-7.239185810E0,-1.674377680E0,6.191129684E0
3.113720052E1,-7.278667450E0,-1.695913076E0,6.191129684E0
3.117720052E1,-7.313363075E0,-1.691127419E0,6.210271835E0
3.121720052E1,-7.202096939E0,-1.668395638E0,6.148058891E0
3.125720052E1,-7.216454029E0,-1.691127419E0,6.218647003E0
3.129720052E1,-7.252346516E0,-1.695913076E0,6.236593246E0
3.133720052E1,-7.249953270E0,-1.713859200E0,6.167201042E0
3.137720052E1,-7.307381153E0,-1.688734531E0,6.186343670E0
3.141720052E1,-7.360322475E0,-1.710269928E0,6.116951942E0
3.145720052E1,-7.276274681E0,-1.691127419E0,6.108577251E0
3.149720052E1,-7.282256603E0,-1.636092424E0,6.240182400E0
3.153720052E1,-7.186543941E0,-1.669592023E0,6.194718838E0
3.157720052E1,-7.283452988E0,-1.713859200E0,6.181558132E0
3.161720052E1,-7.339684486E0,-1.813460469E0,6.171987057E0
3.165720052E1,-7.245167732E0,-1.688734531E0,6.158826351E0
3.169720052E1,-7.255935669E0,-1.675574064E0,6.209075451E0
3.173720052E1,-7.269095898E0,-1.651645780E0,6.161219120E0
3.177720052E1,-7.290631294E0,-1.724626899E0,6.145665646E0
3.181720052E1,-7.299006462E0,-1.692323804E0,6.169594288E0
3.185720052E1,-7.271489143E0,-1.705484390E0,6.176772594E0
3.189720052E1,-7.253542900E0,-1.731805444E0,6.176772594E0
3.193720052E1,-7.350451946E0,-1.846959949E0,6.278467655E0
3.197720052E1,-7.350451946E0,-1.846959949E0,6.278467655E0
3.201720052E1,-7.350451946E0,-1.846959949E0,6.278467655E0
3.205720052E1,-7.350451946E0,-1.846959949E0,6.278467655E0
3.209720052E1,-7.350451946E0,-1.846959949E0,6.278467655E0
3.213720052E1,-7.350451946E0,-1.846959949E0,6.278467655E0
3.217720052E1,-7.350451946E0,-1.846959949E0,6.278467655E0
3.221720052E1,-7.350451946E0,-1.846959949E0,6.278467655E0
3.225720052E1,-7.350451946E0,-1.846959949E0,6.278467655E0
3.229720052E1,-7.350451946E0,-1.846959949E0,6.278467655E0
3.233720052E1,-7.350451946E0,-1.846959949E0,6.278467655E0
3.237720052E1,-7.350451946E0,-1.846959949E0,6.278467655E0
3.241720052E1,-7.350451946E0,-1.846959949E0,6.278467655E0
3.245720052E1,-7.350451946E0,-1.846959949E0,6.278467655E0
3.249720052E1,-7.350451946E0,-1.846959949E0,6.278467655E0
3.253720052E1,-7.350451946E0,-1.846959949E0,6.278467655E0
3.257720052E1,-7.350451946E0,-1.846959949E0,6.278467655E0
3.261720052E1,-7.350451946E0,-1.846959949E0,6.278467655E0
3.265720052E1,-7.350451946E0,-1.846959949E0,6.278467655E0
3.269720052E1,-7.762615681E0,-5.700899959E-1,5.671288967E0
3.273720052E1,-7.713562965E0,-3.903291821E-1,5.406582832E0
3.277720052E1,-7.882256985E0,-7.007979155E-1,5.606682777E0
3.281720052E1,-7.962715626E0,-5.353940725E-1,5.431707382E0
3.285720052E1,-7.782954693E0,-7.378866673E-1,5.863013744E0
3.289720052E1,-7.782954693E0,-8.036893010E-1,5.845067501E0
3.293720052E1,-7.978269100E0,-6.768696904E-1,5.658128262E0
3.297720052E1,-7.639385223E0,-4.564309120E-1,5.481956482E0
3.301720052E1,-7.707581043E0,-8.706883192E-1,5.859424591E0
3.305720052E1,-7.344470024E0,-6.035895348E-1,5.935994625E0
3.309720052E1,-7.151847839E0,-8.036893010E-1,6.192326069E0
3.313720052E1,-7.629814148E0,-1.061216831E0,6.150451660E0
3.317720052E1,-7.864310741E0,-1.160519004E0,6.234200478E0
3.321720052E1,-7.361518860E0,-8.934201598E-1,5.947958946E0
3.325720052E1,-7.346862793E0,-1.075573802E0,6.149255276E0
3.329720052E1,-7.518248558E0,-1.229013562E0,6.289534092E0
3.333720052E1,-7.445267677E0,-1.306780219E0,6.236593246E0
3.337720052E1,-7.222435951E0,-1.248156071E0,6.334998131E0
3.341720052E1,-7.260721207E0,-1.252941728E0,6.264110565E0
3.345720052E1,-7.243971348E0,-1.280459166E0,6.156433582E0
3.349720052E1,-7.098009109E0,-1.131805062E0,5.924030781E0
3.353720052E1,-6.706184387E0,-9.846464992E-1,6.138487339E0
3.357720052E1,-7.161418915E0,-1.451546073E0,6.183950901E0
3.361720052E1,-6.997211456E0,-1.509272933E0,6.345765591E0
3.365720052E1,-6.997211456E0,-1.509272933E0,6.345765591E0
3.369720052E1,-6.997211456E0,-1.509272933E0,6.345765591E0
3.373720052E1,-6.997211456E0,-1.509272933E0,6.345765591E0
3.377720052E1,-6.997211456E0,-1.509272933E0,6.345765591E0
3.381720052E1,-6.997211456E0,-1.509272933E0,6.345765591E0
3.385720052E1,-6.839285374E0,-1.905584097E0,6.466603279E0
3.389720052E1,-6.839285374E0,-1.905584097E0,6.466603279E0
3.393720052E1,-6.839285374E0,-1.905584097E0,6.466603279E0
3.397720052E1,-6.839285374E0,-1.905584097E0,6.466603279E0
3.401720052E1,-6.839285374E0,-1.905584097E0,6.466603279E0
3.405720052E1,-6.839285374E0,-1.905584097E0,6.466603279E0
3.409720052E1,-6.839285374E0,-1.905584097E0,6.466603279E0
3.413720052E1,-6.839285374E0,-1.905584097E0,6.466603279E0
3.417720052E1,-6.839285374E0,-1.905584097E0,6.466603279E0
3.421720052E1,-6.839285374E0,-1.905584097E0,6.466603279E0
3.425720052E1,-6.839285374E0,-1.905584097E0,6.466603279E0
3.429720052E1,-6.839285374E0,-1.905584097E0,6.466603279E0
3.433720052E1,-6.839285374E0,-1.905584097E0,6.466603279E0
3.437720052E1,-6.945765972E0,-2.199003935E0,6.399604321E0
3.441720052E1,-7.046264648E0,-2.184647083E0,6.246164322E0
3.445720052E1,-7.154240608E0,-2.082952023E0,6.197111607E0
3.449720052E1,-7.174579620E0,-2.036292076E0,6.114559174E0
3.453720052E1,-7.208079338E0,-2.044667006E0,6.107380867E0
3.457720052E1,-7.161418915E0,-2.086541414E0,6.180361748E0
3.461720052E1,-7.102795124E0,-2.115255117E0,6.267699718E0
3.465720052E1,-6.994818687E0,-2.172683001E0,6.331408501E0
3.469720052E1,-6.968497753E0,-2.201396942E0,6.406782627E0
3.473720052E1,-6.951747894E0,-2.189432621E0,6.397211552E0
3.477720052E1,-6.956533432E0,-2.140379906E0,6.388836384E0
3.481720052E1,-7.028318405E0,-2.134397745E0,6.346961975E0
3.485720052E1,-7.070192814E0,-2.110469580E0,6.277271271E0
3.489720052E1,-7.070192814E0,-2.123630047E0,6.229414463E0
3.493720052E1,-7.086942673E0,-2.103291035E0,6.266503334E0
3.497720052E1,-7.057032108E0,-2.128415823E0,6.272485256E0
3.501720052E1,-7.037889481E0,-2.149951220E0,6.303891182E0
3.505720052E1,-7.022336483E0,-2.149951220E0,6.370890141E0
3.509720052E1,-7.000801086E0,-2.147558212E0,6.332605362E0
3.513720052E1,-7.021139622E0,-2.139183521E0,6.325426579E0
3.517720052E1,-7.055835724E0,-2.155933142E0,6.270092487E0
3.521720052E1,-7.068996429E0,-2.118844509E0,6.280860424E0
3.525720052E1,-7.029514790E0,-2.100898266E0,6.318248272E0
3.529720052E1,-7.029514790E0,-2.100898266E0,6.318248272E0
3.533720052E1,-7.029514790E0,-2.100898266E0,6.318248272E0
3.537720052E1,-7.029514790E0,-2.100898266E0,6.318248272E0
3.541720052E1,-7.029514790E0,-2.100898266E0,6.318248272E0
3.545720052E1,-7.029514790E0,-2.100898266E0,6.318248272E0
3.549720052E1,-7.029514790E0,-2.100898266E0,6.318248272E0
3.553720052E1,-7.029514790E0,-2.100898266E0,6.318248272E0
3.557720052E1,-7.029514790E0,-2.100898266E0,6.318248272E0
3.561720052E1,-7.029514790E0,-2.100898266E0,6.318248272E0
3.565720052E1,-7.029514790E0,-2.100898266E0,6.318248272E0
3.569720052E1,-7.029514790E0,-2.100898266E0,6.318248272E0
3.573720052E1,-7.029514790E0,-2.100898266E0,6.318248272E0
3.577720052E1,-7.029514790E0,-2.100898266E0,6.318248272E0
3.581720052E1,-7.029514790E0,-2.100898266E0,6.318248272E0
3.585720052E1,-7.029514790E0,-2.100898266E0,6.318248272E0
3.589720052E1,-7.029514790E0,-2.100898266E0,6.318248272E0
3.593720052E1,-7.029514790E0,-2.100898266E0,6.318248272E0
3.597720052E1,-7.029514790E0,-2.100898266E0,6.318248272E0
3.601720052E1,-7.010372162E0,-2.134397745E0,6.339783669E0
3.605720052E1,-6.986443996E0,-2.154736757E0,6.378068924E0
3.609720052E1,-7.001997471E0,-2.112862349E0,6.388836384E0
3.613720052E1,-7.009175777E0,-2.147558212E0,6.309873104E0
3.617720052E1,-7.057032108E0,-2.120040894E0,6.306283951E0
3.621720052E1,-7.073781967E0,-2.139183521E0,6.234200478E0
3.625720052E1,-7.076174736E0,-2.134397745E0,6.272485256E0
3.629720052E1,-7.109973431E0,-2.151147604E0,6.256932259E0
3.633720052E1,-7.035496712E0,-2.120040894E0,6.282056808E0
3.637720052E1,-7.013961315E0,-2.123630047E0,6.362515450E0
3.641720052E1,-6.993622303E0,-2.182254314E0,6.330212116E0
3.645720052E1,-7.004390240E0,-2.139183521E0,6.311069489E0
3.649720052E1,-7.040282249E0,-2.143969059E0,6.295516491E0
3.653720052E1,-7.058228493E0,-2.114058733E0,6.291927338E0
3.657720052E1,-7.080960274E0,-2.111665964E0,6.274878502E0
3.661720052E1,-7.078567505E0,-2.139183521E0,6.254539490E0
3.665720052E1,-7.057032108E0,-2.133201361E0,6.297909260E0
3.669720052E1,-7.007979393E0,-2.137987137E0,6.305087566E0
3.673720052E1,-7.080960274E0,-2.102094650E0,6.296712875E0
3.677720052E1,-7.041478634E0,-2.120040894E0,6.291927338E0
3.681720052E1,-6.988836765E0,-2.137987137E0,6.343372822E0
3.685720052E1,-6.986443996E0,-2.148754835E0,6.346961975E0
3.689720052E1,-7.047461033E0,-2.167897224E0,6.313462734E0
3.693720052E1,-7.047461033E0,-2.167897224E0,6.313462734E0
3.697720052E1,-7.047461033E0,-2.167897224E0,6.313462734E0
3.701720052E1,-7.047461033E0,-2.167897224E0,6.313462734E0
3.705720052E1,-7.047461033E0,-2.167897224E0,6.313462734E0
3.709720052E1,-7.047461033E0,-2.167897224E0,6.313462734E0
3.713720052E1,-7.047461033E0,-2.167897224E0,6.313462734E0
3.717720052E1,-7.047461033E0,-2.167897224E0,6.313462734E0
3.721720052E1,-7.047461033E0,-2.167897224E0,6.313462734E0
3.725720052E1,-7.047461033E0,-2.167897224E0,6.313462734E0
3.729720052E1,-7.047461033E0,-2.167897224E0,6.313462734E0
3.733720052E1,-7.047461033E0,-2.167897224E0,6.313462734E0
3.737720052E1,-7.047461033E0,-2.167897224E0,6.313462734E0
3.741720052E1,-7.047461033E0,-2.167897224E0,6.313462734E0
3.745720052E1,-7.047461033E0,-2.167897224E0,6.313462734E0
3.749720052E1,-7.047461033E0,-2.167897224E0,6.313462734E0
3.753720052E1,-7.047461033E0,-2.167897224E0,6.313462734E0
3.757720052E1,-7.047461033E0,-2.167897224E0,6.313462734E0
3.761720052E1,-7.047461033E0,-2.167897224E0,6.313462734E0
3.765720052E1,-7.052246571E0,-2.159522533E0,6.289534092E0
3.769720052E1,-7.042675018E0,-2.134397745E0,6.319444656E0
3.773720052E1,-7.028318405E0,-2.111665964E0,6.309873104E0
3.777720052E1,-7.015157700E0,-2.105684042E0,6.334998131E0
3.781720052E1,-7.066603661E0,-2.164308071E0,6.311069489E0
3.785720052E1,-7.016354084E0,-2.137987137E0,6.260521412E0
3.789720052E1,-7.114758968E0,-2.163111687E0,6.288038731E0
3.793720052E1,-7.052246571E0,-2.142772675E0,6.277271271E0
3.797720052E1,-7.030711174E0,-2.145165443E0,6.302694798E0
3.801720052E1,-7.006783009E0,-2.103291035E0,6.338587284E0
3.805720052E1,-6.999604225E0,-2.073380709E0,6.318248272E0
3.809720052E1,-7.065407276E0,-2.126022816E0,6.274878502E0
3.813720052E1,-7.089335442E0,-2.166700840E0,6.273681641E0
3.817720052E1,-7.066603661E0,-2.164308071E0,6.266503334E0
3.821720052E1,-7.027122021E0,-2.139183521E0,6.312266350E0
3.825720052E1,-7.011568546E0,-2.123630047E0,6.336194515E0
3.829720052E1,-7.031907558E0,-2.127219439E0,6.320641041E0
3.833720052E1,-7.046264648E0,-2.134397745E0,6.306283951E0
3.837720052E1,-7.031907558E0,-2.112862349E0,6.307480335E0
3.841720052E1,-7.058228493E0,-2.141576290E0,6.277271271E0
3.845720052E1,-7.067800045E0,-2.139183521E0,6.276074886E0
3.849720052E1,-7.049853802E0,-2.130808592E0,6.311069489E0
3.853720052E1,-7.024729252E0,-2.122433662E0,6.314659119E0
3.857720052E1,-7.024729252E0,-2.122433662E0,6.314659119E0
3.861720052E1,-7.024729252E0,-2.122433662E0,6.314659119E0
3.865720052E1,-7.024729252E0,-2.122433662E0,6.314659119E0
3.869720052E1,-7.024729252E0,-2.122433662E0,6.314659119E0
3.873720052E1,-7.024729252E0,-2.122433662E0,6.314659119E0
3.877720052E1,-7.024729252E0,-2.122433662E0,6.314659119E0
3.881720052E1,-7.024729252E0,-2.122433662E0,6.314659119E0
3.885720052E1,-7.024729252E0,-2.122433662E0,6.314659119E0
3.889720052E1,-7.024729252E0,-2.122433662E0,6.314659119E0
3.893720052E1,-7.024729252E0,-2.122433662E0,6.314659119E0
3.897720052E1,-7.024729252E0,-2.122433662E0,6.314659119E0
3.901720052E1,-7.024729252E0,-2.122433662E0,6.314659119E0
3.905720052E1,-7.024729252E0,-2.122433662E0,6.314659119E0
3.909720052E1,-7.024729252E0,-2.122433662E0,6.314659119E0
3.913720052E1,-7.024729252E0,-2.122433662E0,6.314659119E0
3.917720052E1,-7.024729252E0,-2.122433662E0,6.314659119E0
3.921720052E1,-7.024729252E0,-2.122433662E0,6.314659119E0
3.925720052E1,-7.024729252E0,-2.122433662E0,6.314659119E0
3.929720052E1,-7.024729252E0,-2.122433662E0,6.314659119E0
3.933720052E1,-7.036693096E0,-2.108076811E0,6.321837425E0
3.937720052E1,-7.070192814E0,-2.158325911E0,6.258128643E0
3.941720052E1,-7.071389198E0,-2.106880426E0,6.295516491E0
3.945720052E1,-7.055835724E0,-2.157129526E0,6.277271271E0
3.949720052E1,-7.060621262E0,-2.122433662E0,6.317051888E0
3.953720052E1,-7.009175777E0,-2.149951220E0,6.338587284E0
3.957720052E1,-6.997211456E0,-2.105684042E0,6.348158360E0
3.961720052E1,-6.998407841E0,-2.075773716E0,6.350551128E0
3.965720052E1,-7.016354084E0,-2.093719721E0,6.337390900E0
3.969720052E1,-7.022336483E0,-2.094916344E0,6.318248272E0
3.973720052E1,-7.033103943E0,-2.140379906E0,6.301498413E0
3.977720052E1,-7.051050186E0,-2.139183521E0,6.323033810E0
3.981720052E1,-7.018746853E0,-2.140379906E0,6.318248272E0
3.985720052E1,-7.024729252E0,-2.120040894E0,6.346961975E0
3.989720052E1,-7.006783009E0,-2.100898266E0,6.348158360E0
3.993720052E1,-7.030711174E0,-2.084148407E0,6.326622963E0
3.997720052E1,-7.040282249E0,-2.122433662E0,6.307480335E0
4.001720052E1,-7.019943237E0,-2.124826431E0,6.302694798E0
4.005720052E1,-7.004390240E0,-2.142772675E0,6.314659119E0
4.009720052E1,-7.016354084E0,-2.117648125E0,6.351747513E0
4.013720052E1,-7.030711174E0,-2.100898266E0,6.337390900E0
4.017720052E1,-7.022336483E0,-2.093719721E0,6.352943897E0
4.021720052E1,-6.987640381E0,-2.126022816E0,6.346961975E0
4.025720052E1,-6.987640381E0,-2.126022816E0,6.346961975E0
4.029720052E1,-6.987640381E0,-2.126022816E0,6.346961975E0
4.033720052E1,-6.987640381E0,-2.126022816E0,6.346961975E0
4.037720052E1,-6.987640381E0,-2.126022816E0,6.346961975E0
4.041720052E1,-6.987640381E0,-2.126022816E0,6.346961975E0
4.045720052E1,-6.987640381E0,-2.126022816E0,6.346961975E0
4.049720052E1,-6.987640381E0,-2.126022816E0,6.346961975E0
4.053720052E1,-6.987640381E0,-2.126022816E0,6.346961975E0
4.057720052E1,-6.987640381E0,-2.126022816E0,6.346961975E0
4.061720052E1,-6.987640381E0,-2.126022816E0,6.346961975E0
4.065720052E1,-6.987640381E0,-2.126022816E0,6.346961975E0
4.069720052E1,-6.987640381E0,-2.126022816E0,6.346961975E0
4.073720052E1,-6.987640381E0,-2.126022816E0,6.346961975E0
4.077720052E1,-6.987640381E0,-2.126022816E0,6.346961975E0
4.081720052E1,-6.987640381E0,-2.126022816E0,6.346961975E0
4.085720052E1,-7.070192814E0,-2.093719721E0,6.314659119E0
4.089720052E1,-7.070192814E0,-2.093719721E0,6.314659119E0
4.093720052E1,-7.070192814E0,-2.093719721E0,6.314659119E0
4.097720052E1,-6.997211456E0,-2.176272154E0,6.311069489E0
4.101720052E1,-7.012764931E0,-2.177468538E0,6.344569206E0
4.105720052E1,-7.003193855E0,-2.108076811E0,6.355337143E0
4.109720052E1,-7.061817646E0,-2.116451740E0,6.311069489E0
4.113720052E1,-7.160222530E0,-2.111665964E0,6.268896103E0
4.117720052E1,-7.095616341E0,-2.073380709E0,6.183950901E0
4.121720052E1,-7.065407276E0,-2.108076811E0,6.243771553E0
4.125720052E1,-6.975676060E0,-2.140379906E0,6.351747513E0
4.129720052E1,-6.908677101E0,-2.160718918E0,6.401997089E0
4.133720052E1,-7.028318405E0,-2.146361828E0,6.428318024E0
4.137720052E1,-7.010372162E0,-2.116451740E0,6.326622963E0
4.141720052E1,-7.059424877E0,-2.103291035E0,6.279664040E0
4.145720052E1,-7.105187893E0,-2.117648125E0,6.222236156E0
4.149720052E1,-7.095616341E0,-2.154736757E0,6.198307991E0
4.153720052E1,-7.058228493E0,-2.132004976E0,6.250949860E0
4.157720052E1,-6.998407841E0,-2.127219439E0,6.349354744E0
4.161720052E1,-6.990033150E0,-2.120040894E0,6.400800705E0
4.165720052E1,-6.978068829E0,-2.122433662E0,6.361319065E0
4.169720052E1,-7.036693096E0,-2.129612207E0,6.345765591E0
4.173720052E1,-7.035496712E0,-2.117648125E0,6.280860424E0
4.177720052E1,-7.083353043E0,-2.132004976E0,6.255735874E0
4.181720052E1,-7.094419956E0,-2.100898266E0,6.254539490E0
4.185720052E1,-7.072585583E0,-2.098505497E0,6.283253193E0
4.189720052E1,-7.072585583E0,-2.098505497E0,6.283253193E0
4.193720052E1,-7.072585583E0,-2.098505497E0,6.283253193E0
4.197720052E1,-7.072585583E0,-2.098505497E0,6.283253193E0
4.201720052E1,-7.072585583E0,-2.098505497E0,6.283253193E0
4.205720052E1,-7.072585583E0,-2.098505497E0,6.283253193E0
4.209720052E1,-7.072585583E0,-2.098505497E0,6.283253193E0
4.213720052E1,-7.072585583E0,-2.098505497E0,6.283253193E0
4.217720052E1,-7.072585583E0,-2.098505497E0,6.283253193E0
4.221720052E1,-7.072585583E0,-2.098505497E0,6.283253193E0
4.225720052E1,-7.072585583E0,-2.098505497E0,6.283253193E0
4.229720052E1,-7.072585583E0,-2.098505497E0,6.283253193E0
4.233720052E1,-7.072585583E0,-2.098505497E0,6.283253193E0
4.237720052E1,-7.072585583E0,-2.098505497E0,6.283253193E0
4.241720052E1,-7.072585583E0,-2.098505497E0,6.283253193E0
4.245720052E1,-7.072585583E0,-2.098505497E0,6.283253193E0
4.249720052E1,-7.072585583E0,-2.098505497E0,6.283253193E0
4.253720052E1,-7.072585583E0,-2.098505497E0,6.283253193E0
4.257720052E1,-7.072585583E0,-2.098505497E0,6.283253193E0
4.261720052E1,-7.046264648E0,-2.141576290E0,6.317051888E0
4.265720052E1,-7.027122021E0,-2.130808592E0,6.291927338E0
4.269720052E1,-7.053442955E0,-2.130808592E0,6.320641041E0
4.273720052E1,-7.013961315E0,-2.123630047E0,6.315855503E0
4.277720052E1,-7.046264648E0,-2.145165443E0,6.321837425E0
4.281720052E1,-7.071389198E0,-2.096112728E0,6.285645962E0
4.285720052E1,-7.024729252E0,-2.096112728E0,6.307480335E0
4.289720052E1,-7.025925636E0,-2.133201361E0,6.301498413E0
4.293720052E1,-7.046264648E0,-2.105684042E0,6.334998131E0
4.297720052E1,-7.005586624E0,-2.117648125E0,6.307480335E0
4.301720052E1,-7.055835724E0,-2.143969059E0,6.320641041E0
4.305720052E1,-7.001997471E0,-2.137987137E0,6.307480335E0
4.309720052E1,-7.045068264E0,-2.124826431E0,6.325426579E0
4.313720052E1,-7.079763889E0,-2.103291035E0,6.293123722E0
4.317720052E1,-7.048657417E0,-2.092523336E0,6.255735874E0
4.321720052E1,-7.088139057E0,-2.112862349E0,6.313462734E0
4.325720052E1,-7.012764931E0,-2.167897224E0,6.318248272E0
4.329720052E1,-6.976872444E0,-2.172683001E0,6.343372822E0
4.333720052E1,-7.036693096E0,-2.159522533E0,6.345765591E0
4.337720052E1,-7.025925636E0,-2.099701881E0,6.317051888E0
4.341720052E1,-7.043871880E0,-2.108076811E0,6.295516491E0
4.345720052E1,-7.071389198E0,-2.123630047E0,6.267699718E0
4.349720052E1,-7.095616341E0,-2.137987137E0,6.240182400E0
4.353720052E1,-7.095616341E0,-2.137987137E0,6.240182400E0
4.357720052E1,-7.095616341E0,-2.137987137E0,6.240182400E0
4.361720052E1,-7.003193855E0,-2.128415823E0,6.334998131E0
4.365720052E1,-7.003193855E0,-2.128415823E0,6.334998131E0
4.369720052E1,-7.003193855E0,-2.128415823E0,6.334998131E0
4.373720052E1,-7.003193855E0,-2.128415823E0,6.334998131E0
4.377720052E1,-7.003193855E0,-2.128415823E0,6.334998131E0
4.381720052E1,-7.003193855E0,-2.128415823E0,6.334998131E0
4.385720052E1,-7.023532867E0,-2.132004976E0,6.317051888E0
4.389720052E1,-7.023532867E0,-2.132004976E0,6.317051888E0
4.393720052E1,-7.023532867E0,-2.132004976E0,6.317051888E0
4.397720052E1,-7.023532867E0,-2.132004976E0,6.317051888E0
4.401720052E1,-7.023532867E0,-2.132004976E0,6.317051888E0
4.405720052E1,-7.023532867E0,-2.132004976E0,6.317051888E0
4.409720052E1,-7.023532867E0,-2.132004976E0,6.317051888E0
4.413720052E1,-7.023532867E0,-2.132004976E0,6.317051888E0
4.417720052E1,-7.023532867E0,-2.132004976E0,6.317051888E0
4.421720052E1,-7.023532867E0,-2.132004976E0,6.317051888E0
4.425720052E1,-7.023532867E0,-2.132004976E0,6.317051888E0
4.429720052E1,-6.993622303E0,-2.127219439E0,6.351747513E0
4.433720052E1,-7.045068264E0,-2.151147604E0,6.333801746E0
4.437720052E1,-7.001997471E0,-2.090130568E0,6.306283951E0
4.441720052E1,-7.053442955E0,-2.128415823E0,6.319444656E0
4.445720052E1,-7.046264648E0,-2.121237278E0,6.284449577E0
4.449720052E1,-7.048657417E0,-2.132004976E0,6.273681641E0
4.453720052E1,-7.035496712E0,-2.165504456E0,6.321837425E0
4.457720052E1,-7.025925636E0,-2.135594130E0,6.331408501E0
4.461720052E1,-7.042675018E0,-2.109273195E0,6.331408501E0
4.465720052E1,-7.036693096E0,-2.110469580E0,6.314659119E0
4.469720052E1,-7.025925636E0,-2.112862349E0,6.349354744E0
4.473720052E1,-7.016354084E0,-2.121237278E0,6.303891182E0
4.477720052E1,-7.015157700E0,-2.066202402E0,6.334998131E0
4.481720052E1,-7.006783009E0,-2.127219439E0,6.319444656E0
4.485720052E1,-7.003193855E0,-2.096112728E0,6.345765591E0
4.489720052E1,-7.052246571E0,-2.151147604E0,6.313462734E0
4.493720052E1,-7.051050186E0,-2.140379906E0,6.291927338E0
4.497720052E1,-7.057032108E0,-2.171486616E0,6.301498413E0
4.501720052E1,-7.033103943E0,-2.100898266E0,6.323033810E0
4.505720052E1,-7.022336483E0,-2.112862349E0,6.320641041E0
4.509720052E1,-7.010372162E0,-2.171486616E0,6.307480335E0
4.513720052E1,-7.037889481E0,-2.137987137E0,6.346961975E0
4.517720052E1,-7.010372162E0,-2.063809633E0,6.343372822E0
4.521720052E1,-7.010372162E0,-2.063809633E0,6.343372822E0
4.525720052E1,-7.010372162E0,-2.063809633E0,6.343372822E0
4.529720052E1,-7.010372162E0,-2.063809633E0,6.343372822E0
4.533720052E1,-7.010372162E0,-2.063809633E0,6.343372822E0
4.537720052E1,-7.010372162E0,-2.063809633E0,6.343372822E0
4.541720052E1,-7.010372162E0,-2.063809633E0,6.343372822E0
4.545720052E1,-7.010372162E0,-2.063809633E0,6.343372822E0
4.549720052E1,-7.010372162E0,-2.063809633E0,6.343372822E0
4.553720052E1,-7.010372162E0,-2.063809633E0,6.343372822E0
4.557720052E1,-7.010372162E0,-2.063809633E0,6.343372822E0
4.561720052E1,-7.010372162E0,-2.063809633E0,6.343372822E0
4.565720052E1,-7.010372162E0,-2.063809633E0,6.343372822E0
4.569720052E1,-7.010372162E0,-2.063809633E0,6.343372822E0
4.573720052E1,-7.010372162E0,-2.063809633E0,6.343372822E0
4.577720052E1,-7.010372162E0,-2.063809633E0,6.343372822E0
4.581720052E1,-7.010372162E0,-2.063809633E0,6.343372822E0
4.585720052E1,-7.010372162E0,-2.063809633E0,6.343372822E0
4.589720052E1,-7.010372162E0,-2.063809633E0,6.343372822E0
4.593720052E1,-7.029514790E0,-2.121237278E0,6.326622963E0
4.597720052E1,-7.013961315E0,-2.147558212E0,6.319444656E0
4.601720052E1,-7.033103943E0,-2.132004976E0,6.330212116E0
4.605720052E1,-7.034300327E0,-2.123630047E0,6.338587284E0
4.609720052E1,-7.052246571E0,-2.152343988E0,6.283253193E0
4.613720052E1,-7.029514790E0,-2.092523336E0,6.318248272E0
4.617720052E1,-7.011568546E0,-2.051845312E0,6.338587284E0
4.621720052E1,-7.030711174E0,-2.112862349E0,6.323033810E0
4.625720052E1,-6.998407841E0,-2.170290232E0,6.329015732E0
4.629720052E1,-7.049853802E0,-2.214557409E0,6.296712875E0
4.633720052E1,-7.024729252E0,-2.142772675E0,6.337390900E0
4.637720052E1,-7.045068264E0,-2.184647083E0,6.338587284E0
4.641720052E1,-7.042675018E0,-2.097309113E0,6.295516491E0
4.645720052E1,-7.112366199E0,-2.109273195E0,6.229414463E0
4.649720052E1,-7.088139057E0,-2.018345833E0,6.299105644E0
4.653720052E1,-7.031907558E0,-2.079362869E0,6.283253193E0
4.657720052E1,-7.006783009E0,-2.079362869E0,6.366104603E0
4.661720052E1,-7.042675018E0,-2.153540373E0,6.373282909E0
4.665720052E1,-7.024729252E0,-2.268395901E0,6.301498413E0
4.669720052E1,-6.987640381E0,-2.204986095E0,6.299105644E0
4.673720052E1,-7.030711174E0,-2.143969059E0,6.338587284E0
4.677720052E1,-7.059424877E0,-2.048256159E0,6.306283951E0
4.681720052E1,-7.095616341E0,-2.039881229E0,6.237789631E0
4.685720052E1,-7.064210415E0,-2.114058733E0,6.253343105E0
4.689720052E1,-7.064210415E0,-2.114058733E0,6.253343105E0
4.693720052E1,-7.064210415E0,-2.114058733E0,6.253343105E0
4.697720052E1,-7.064210415E0,-2.114058733E0,6.253343105E0
4.701720052E1,-7.064210415E0,-2.114058733E0,6.253343105E0
4.705720052E1,-7.064210415E0,-2.114058733E0,6.253343105E0
4.709720052E1,-7.064210415E0,-2.114058733E0,6.253343105E0
4.713720052E1,-7.064210415E0,-2.114058733E0,6.253343105E0
4.717720052E1,-7.064210415E0,-2.114058733E0,6.253343105E0
4.721720052E1,-7.064210415E0,-2.114058733E0,6.253343105E0
4.725720052E1,-7.064210415E0,-2.114058733E0,6.253343105E0
4.729720052E1,-7.064210415E0,-2.114058733E0,6.253343105E0
4.733720052E1,-7.064210415E0,-2.114058733E0,6.253343105E0
4.737720052E1,-7.064210415E0,-2.114058733E0,6.253343105E0
4.741720052E1,-7.064210415E0,-2.114058733E0,6.253343105E0
4.745720052E1,-7.064210415E0,-2.114058733E0,6.253343105E0
4.749720052E1,-7.064210415E0,-2.114058733E0,6.253343105E0
4.753720052E1,-7.064210415E0,-2.114058733E0,6.253343105E0
4.757720052E1,-7.047461033E0,-2.130808592E0,6.284449577E0
4.761720052E1,-7.049853802E0,-2.110469580E0,6.288038731E0
4.765720052E1,-7.061817646E0,-2.149951220E0,6.294320107E0
4.769720052E1,-7.046264648E0,-2.121237278E0,6.295516491E0
4.773720052E1,-7.028318405E0,-2.123630047E0,6.340980053E0
4.777720052E1,-7.004390240E0,-2.134397745E0,6.342176437E0
4.781720052E1,-7.035496712E0,-2.132004976E0,6.320641041E0
4.785720052E1,-7.043871880E0,-2.094916344E0,6.290730953E0
4.789720052E1,-7.066603661E0,-2.147558212E0,6.293123722E0
4.793720052E1,-7.021139622E0,-2.116451740E0,6.301498413E0
4.797720052E1,-7.047461033E0,-2.132004976E0,6.299105644E0
4.801720052E1,-7.053442955E0,-2.112862349E0,6.317051888E0
4.805720052E1,-7.045068264E0,-2.114058733E0,6.311069489E0
4.809720052E1,-7.018746853E0,-2.124826431E0,6.323033810E0
4.813720052E1,-7.027122021E0,-2.149951220E0,6.314659119E0
4.817720052E1,-7.021139622E0,-2.122433662E0,6.305087566E0
4.821720052E1,-7.029514790E0,-2.115255117E0,6.313462734E0
4.825720052E1,-7.082156658E0,-2.104487419E0,6.324230194E0
4.829720052E1,-7.025925636E0,-2.130808592E0,6.285645962E0
4.833720052E1,-7.080960274E0,-2.122433662E0,6.294320107E0
4.837720052E1,-7.015157700E0,-2.126022816E0,6.247360706E0
4.841720052E1,-7.089335442E0,-2.151147604E0,6.317051888E0
4.845720052E1,-7.058228493E0,-2.165504456E0,6.286842346E0
4.849720052E1,-7.011568546E0,-2.127219439E0,6.340980053E0
4.853720052E1,-7.011568546E0,-2.127219439E0,6.340980053E0
4.857720052E1,-7.011568546E0,-2.127219439E0,6.340980053E0
4.861720052E1,-7.011568546E0,-2.127219439E0,6.340980053E0
4.865720052E1,-7.011568546E0,-2.127219439E0,6.340980053E0
4.869720052E1,-7.011568546E0,-2.127219439E0,6.340980053E0
4.873720052E1,-7.011568546E0,-2.127219439E0,6.340980053E0
4.877720052E1,-7.011568546E0,-2.127219439E0,6.340980053E0
4.881720052E1,-7.011568546E0,-2.127219439E0,6.340980053E0
4.885720052E1,-7.011568546E0,-2.127219439E0,6.340980053E0
4.889720052E1,-7.011568546E0,-2.127219439E0,6.340980053E0
4.893720052E1,-7.011568546E0,-2.127219439E0,6.340980053E0
4.897720052E1,-7.011568546E0,-2.127219439E0,6.340980053E0
4.901720052E1,-7.011568546E0,-2.127219439E0,6.340980053E0
4.905720052E1,-7.011568546E0,-2.127219439E0,6.340980053E0
4.909720052E1,-7.011568546E0,-2.127219439E0,6.340980053E0
4.913720052E1,-7.011568546E0,-2.127219439E0,6.340980053E0
4.917720052E1,-7.011568546E0,-2.127219439E0,6.340980053E0
4.921720052E1,-7.011568546E0,-2.127219439E0,6.340980053E0
4.925720052E1,-7.016354084E0,-2.133201361E0,6.305087566E0
4.929720052E1,-7.092027187E0,-2.118844509E0,6.236593246E0
4.933720052E1,-7.111169815E0,-2.109273195E0,6.261717796E0
4.937720052E1,-7.037889481E0,-2.116451740E0,6.289534092E0
4.941720052E1,-7.017550468E0,-2.145165443E0,6.324230194E0
4.945720052E1,-7.003193855E0,-2.171486616E0,6.345765591E0
4.949720052E1,-7.040282249E0,-2.149951220E0,6.326622963E0
4.953720052E1,-7.053442955E0,-2.133201361E0,6.313462734E0
4.957720052E1,-7.052246571E0,-2.124826431E0,6.301498413E0
4.961720052E1,-7.061817646E0,-2.109273195E0,6.261717796E0
4.965720052E1,-7.065407276E0,-2.124826431E0,6.236593246E0
4.969720052E1,-7.048657417E0,-2.154736757E0,6.301498413E0
4.973720052E1,-7.006783009E0,-2.133201361E0,6.340980053E0
4.977720052E1,-7.007979393E0,-2.134397745E0,6.355337143E0
4.981720052E1,-7.027122021E0,-2.133201361E0,6.336194515E0
4.985720052E1,-7.041478634E0,-2.136790514E0,6.301498413E0
4.989720052E1,-7.059424877E0,-2.142772675E0,6.273681641E0
4.993720052E1,-7.068996429E0,-2.135594130E0,6.283253193E0
4.997720052E1,-7.041478634E0,-2.120040894E0,6.327819347E0
5.001720052E1,-7.024729252E0,-2.134397745E0,6.331408501E0
5.005720052E1,-7.027122021E0,-2.137987137E0,6.321837425E0
5.009720052E1,-7.028318405E0,-2.152343988E0,6.305087566E0
5.013720052E1,-7.048657417E0,-2.136790514E0,6.299105644E0
5.017720052E1,-7.048657417E0,-2.136790514E0,6.299105644E0
5.021720052E1,-7.048657417E0,-2.136790514E0,6.299105644E0
5.025720052E1,-7.048657417E0,-2.136790514E0,6.299105644E0
5.029720052E1,-7.048657417E0,-2.136790514E0,6.299105644E0
5.033720052E1,-7.048657417E0,-2.136790514E0,6.299105644E0
5.037720052E1,-7.048657417E0,-2.136790514E0,6.299105644E0
5.041720052E1,-7.048657417E0,-2.136790514E0,6.299105644E0
5.045720052E1,-7.048657417E0,-2.136790514E0,6.299105644E0
5.049720052E1,-7.048657417E0,-2.136790514E0,6.299105644E0
5.053720052E1,-7.048657417E0,-2.136790514E0,6.299105644E0
5.057720052E1,-7.048657417E0,-2.136790514E0,6.299105644E0
5.061720052E1,-7.048657417E0,-2.136790514E0,6.299105644E0
5.065720052E1,-7.048657417E0,-2.136790514E0,6.299105644E0
5.069720052E1,-7.048657417E0,-2.136790514E0,6.299105644E0
5.073720052E1,-7.048657417E0,-2.136790514E0,6.299105644E0
5.077720052E1,-7.048657417E0,-2.136790514E0,6.299105644E0
5.081720052E1,-7.048657417E0,-2.136790514E0,6.299105644E0
5.085720052E1,-7.027122021E0,-2.121237278E0,6.327819347E0
5.089720052E1,-7.023532867E0,-2.136790514E0,6.329015732E0
5.093720052E1,-7.072585583E0,-2.193022013E0,6.256932259E0
5.097720052E1,-7.099205494E0,-2.121237278E0,6.276074886E0
5.101720052E1,-7.019943237E0,-2.082952023E0,6.295516491E0
5.105720052E1,-7.012764931E0,-2.094916344E0,6.301498413E0
5.109720052E1,-7.036693096E0,-2.171486616E0,6.329015732E0
5.113720052E1,-7.007979393E0,-2.177468538E0,6.331408501E0
5.117720052E1,-7.034300327E0,-2.149951220E0,6.311069489E0
5.121720052E1,-7.049853802E0,-2.127219439E0,6.290730953E0
5.125720052E1,-7.084549427E0,-2.048256159E0,6.282056808E0
5.129720052E1,-7.079763889E0,-2.099701881E0,6.258128643E0
5.133720052E1,-7.064210415E0,-2.135594130E0,6.295516491E0
5.137720052E1,-7.027122021E0,-2.145165443E0,6.308676720E0
5.141720052E1,-7.007979393E0,-2.132004976E0,6.336194515E0
5.145720052E1,-7.005586624E0,-2.111665964E0,6.356533527E0
5.149720052E1,-7.017550468E0,-2.129612207E0,6.336194515E0
5.153720052E1,-7.040282249E0,-2.118844509E0,6.299105644E0
5.157720052E1,-7.058228493E0,-2.130808592E0,6.255735874E0
5.161720052E1,-7.092027187E0,-2.139183521E0,6.291927338E0
5.165720052E1,-7.041478634E0,-2.143969059E0,6.294320107E0
5.169720052E1,-7.012764931E0,-2.097309113E0,6.348158360E0
5.173720052E1,-7.027122021E0,-2.126022816E0,6.318248272E0
5.177720052E1,-7.029514790E0,-2.143969059E0,6.325426579E0
5.181720052E1,-7.024729252E0,-2.136790514E0,6.280860424E0
5.185720052E1,-7.028318405E0,-2.108076811E0,6.305087566E0
5.189720052E1,-7.079763889E0,-2.155933142E0,6.268896103E0
5.193720052E1,-6.949355125E0,-2.039881229E0,6.409175396E0
5.197720052E1,-6.949355125E0,-2.039881229E0,6.409175396E0
5.201720052E1,-6.949355125E0,-2.039881229E0,6.409175396E0
5.205720052E1,-6.949355125E0,-2.039881229E0,6.409175396E0
5.209720052E1,-6.949355125E0,-2.039881229E0,6.409175396E0
5.213720052E1,-6.949355125E0,-2.039881229E0,6.409175396E0
5.217720052E1,-7.015157700E0,-2.231307030E0,6.370890141E0
5.221720052E1,-7.015157700E0,-2.231307030E0,6.370890141E0
5.225720052E1,-7.015157700E0,-2.231307030E0,6.370890141E0
5.229720052E1,-7.015157700E0,-2.231307030E0,6.370890141E0
5.233720052E1,-7.015157700E0,-2.231307030E0,6.370890141E0
5.237720052E1,-7.015157700E0,-2.231307030E0,6.370890141E0
5.241720052E1,-7.015157700E0,-2.231307030E0,6.370890141E0
5.245720052E1,-7.015157700E0,-2.231307030E0,6.370890141E0
5.249720052E1,-7.015157700E0,-2.231307030E0,6.370890141E0
5.253720052E1,-7.043871880E0,-2.196611166E0,6.293123722E0
5.257720052E1,-7.033103943E0,-2.166700840E0,6.315855503E0
5.261720052E1,-6.970890522E0,-2.191825628E0,6.338587284E0
5.265720052E1,-7.018746853E0,-2.145165443E0,6.350551128E0
5.269720052E1,-7.030711174E0,-2.164308071E0,6.276074886E0
5.273720052E1,-7.067800045E0,-2.146361828E0,6.291927338E0
5.277720052E1,-7.033103943E0,-2.177468538E0,6.278467655E0
5.281720052E1,-7.043871880E0,-2.170290232E0,6.234200478E0
5.285720052E1,-7.092027187E0,-2.160718918E0,6.291927338E0
5.289720052E1,-6.993622303E0,-2.194218397E0,6.295516491E0
5.293720052E1,-6.944569588E0,-2.155933142E0,6.396014690E0
5.297720052E1,-6.972086906E0,-2.187039852E0,6.337390900E0
5.301720052E1,-7.025925636E0,-2.175075769E0,6.326622963E0
5.305720052E1,-7.054639339E0,-2.185843468E0,6.291927338E0
5.309720052E1,-7.054639339E0,-2.185843468E0,6.291927338E0
5.313720052E1,-7.060621262E0,-2.143969059E0,6.279664040E0
5.317720052E1,-7.065407276E0,-2.118844509E0,6.282056808E0
5.321720052E1,-7.028318405E0,-2.163111687E0,6.285645962E0
5.325720052E1,-7.039085865E0,-2.176272154E0,6.284449577E0
5.329720052E1,-7.037889481E0,-2.177468538E0,6.315855503E0
5.333720052E1,-7.015157700E0,-2.173879385E0,6.336194515E0
5.337720052E1,-7.027122021E0,-2.158325911E0,6.336194515E0
5.341720052E1,-7.006783009E0,-2.132004976E0,6.323033810E0
5.345720052E1,-7.023532867E0,-2.139183521E0,6.324230194E0
5.349720052E1,-7.041478634E0,-2.173879385E0,6.294320107E0
5.353720052E1,-7.048657417E0,-2.171486616E0,6.282056808E0
5.357720052E1,-7.041478634E0,-2.158325911E0,6.276074886E0
5.361720052E1,-7.019943237E0,-2.161915302E0,6.306283951E0
5.365720052E1,-7.019943237E0,-2.161915302E0,6.306283951E0
5.369720052E1,-7.019943237E0,-2.161915302E0,6.306283951E0
5.373720052E1,-7.019943237E0,-2.161915302E0,6.306283951E0
5.377720052E1,-7.019943237E0,-2.161915302E0,6.306283951E0
5.381720052E1,-7.019943237E0,-2.161915302E0,6.306283951E0
5.385720052E1,-7.040282249E0,-2.159522533E0,6.297909260E0
5.385720052E1,-7.040282249E0,-2.159522533E0,6.297909260E0
5.393720052E1,-7.040282249E0,-2.159522533E0,6.297909260E0
5.397720052E1,-7.040282249E0,-2.159522533E0,6.297909260E0
5.401720052E1,-7.040282249E0,-2.159522533E0,6.297909260E0
5.405720052E1,-7.040282249E0,-2.159522533E0,6.297909260E0
5.409720052E1,-7.040282249E0,-2.159522533E0,6.297909260E0
5.413720052E1,-7.040282249E0,-2.159522533E0,6.297909260E0
5.417720052E1,-7.040282249E0,-2.159522533E0,6.297909260E0
5.421720052E1,-7.043871880E0,-2.170290232E0,6.317051888E0
5.425720052E1,-7.001997471E0,-2.171486616E0,6.317051888E0
5.429720052E1,-7.017550468E0,-2.126022816E0,6.313462734E0
5.433720052E1,-7.055835724E0,-2.165504456E0,6.282056808E0
5.437720052E1,-7.054639339E0,-2.166700840E0,6.262914181E0
5.441720052E1,-7.012764931E0,-2.137987137E0,6.337390900E0
5.445720052E1,-6.982854843E0,-2.182254314E0,6.352943897E0
5.449720052E1,-7.036693096E0,-2.280659199E0,6.320641041E0
5.453720052E1,-7.034300327E0,-2.166700840E0,6.344569206E0
5.457720052E1,-7.003193855E0,-2.087737799E0,6.271288872E0
5.461720052E1,-7.042675018E0,-2.073380709E0,6.300302029E0
5.465720052E1,-7.054639339E0,-2.056631088E0,6.283253193E0
5.469720052E1,-7.053442955E0,-2.116451740E0,6.260521412E0
5.473720052E1,-7.063014030E0,-2.140379906E0,6.337390900E0
5.477720052E1,-6.942176819E0,-2.159522533E0,6.393621922E0
5.481720052E1,-6.851249218E0,-2.224128723E0,6.465406895E0
5.485720052E1,-6.902695179E0,-2.194218397E0,6.480959892E0
5.489720052E1,-7.007979393E0,-2.163111687E0,6.401997089E0
5.493720052E1,-7.071389198E0,-2.012363911E0,6.343372822E0
5.497720052E1,-7.065407276E0,-2.080559254E0,6.227021694E0
5.501720052E1,-7.111169815E0,-2.114058733E0,6.243771553E0
5.505720052E1,-6.998407841E0,-2.164308071E0,6.293123722E0
5.509720052E1,-6.884748936E0,-2.249253273E0,6.433103561E0
5.513720052E1,-6.912266254E0,-2.207378864E0,6.484549522E0
5.517720052E1,-6.962515831E0,-2.175075769E0,6.400800705E0
5.521720052E1,-7.041478634E0,-2.164308071E0,6.297909260E0
5.525720052E1,-7.078567505E0,-2.137987137E0,6.242575169E0
5.529720052E1,-7.078567505E0,-2.137987137E0,6.242575169E0
5.533720052E1,-7.078567505E0,-2.137987137E0,6.242575169E0
5.537720052E1,-7.078567505E0,-2.137987137E0,6.242575169E0
5.541720052E1,-7.078567505E0,-2.137987137E0,6.242575169E0
5.545720052E1,-7.078567505E0,-2.137987137E0,6.242575169E0
5.549720052E1,-7.078567505E0,-2.137987137E0,6.242575169E0
5.553720052E1,-7.078567505E0,-2.137987137E0,6.242575169E0
5.557720052E1,-7.078567505E0,-2.137987137E0,6.242575169E0
5.561720052E1,-7.078567505E0,-2.137987137E0,6.242575169E0
5.565720052E1,-7.078567505E0,-2.137987137E0,6.242575169E0
5.569720052E1,-7.078567505E0,-2.137987137E0,6.242575169E0
5.573720052E1,-7.078567505E0,-2.137987137E0,6.242575169E0
5.577720052E1,-7.078567505E0,-2.137987137E0,6.242575169E0
5.581720052E1,-7.078567505E0,-2.137987137E0,6.242575169E0
5.585720052E1,-7.018746853E0,-2.120040894E0,6.355337143E0
5.589720052E1,-7.030711174E0,-2.086541414E0,6.325426579E0
5.593720052E1,-7.016354084E0,-2.070987940E0,6.276074886E0
5.597720052E1,-7.052246571E0,-2.135594130E0,6.272485256E0
5.601720052E1,-7.031907558E0,-2.148754835E0,6.276074886E0
5.605720052E1,-7.040282249E0,-2.147558212E0,6.327819347E0
5.609720052E1,-7.007979393E0,-2.143969059E0,6.329015732E0
5.613720052E1,-6.980462074E0,-2.154736757E0,6.350551128E0
5.617720052E1,-7.025925636E0,-2.139183521E0,6.330212116E0
5.621720052E1,-6.997211456E0,-2.175075769E0,6.302694798E0
5.625720052E1,-6.997211456E0,-2.175075769E0,6.302694798E0
5.625720052E1,-7.017550468E0,-2.178664923E0,6.334998131E0
5.633720052E1,-6.980462074E0,-2.208575249E0,6.351747513E0
5.637720052E1,-6.982854843E0,-2.149951220E0,6.412764549E0
5.641720052E1,-6.955337048E0,-2.082952023E0,6.357729912E0
5.645720052E1,-7.071389198E0,-2.091326952E0,6.345765591E0
5.649720052E1,-7.030711174E0,-2.134397745E0,6.267699718E0
5.653720052E1,-7.051050186E0,-2.081755638E0,6.300302029E0
5.657720052E1,-7.073781967E0,-2.145165443E0,6.311069489E0
5.661720052E1,-6.945765972E0,-2.159522533E0,6.305087566E0
5.665720052E1,-7.028318405E0,-2.224128723E0,6.356533527E0
5.669720052E1,-6.964908600E0,-2.145165443E0,6.352943897E0
5.673720052E1,-7.006783009E0,-2.126022816E0,6.360122681E0
5.677720052E1,-7.040282249E0,-2.122433662E0,6.315855503E0
5.681720052E1,-7.007979393E0,-2.143969059E0,6.311069489E0
5.685720052E1,-7.003193855E0,-2.142772675E0,6.309873104E0
5.689720052E1,-7.040282249E0,-2.149951220E0,6.314659119E0
5.693720052E1,-7.040282249E0,-2.149951220E0,6.314659119E0
5.697720052E1,-7.040282249E0,-2.149951220E0,6.314659119E0
5.701720052E1,-7.040282249E0,-2.149951220E0,6.314659119E0
5.705720052E1,-7.040282249E0,-2.149951220E0,6.314659119E0
5.709720052E1,-7.040282249E0,-2.149951220E0,6.314659119E0
5.713720052E1,-7.040282249E0,-2.149951220E0,6.314659119E0
5.717720052E1,-7.040282249E0,-2.149951220E0,6.314659119E0
5.721720052E1,-7.040282249E0,-2.149951220E0,6.314659119E0
5.725720052E1,-7.040282249E0,-2.149951220E0,6.314659119E0
5.729720052E1,-7.040282249E0,-2.149951220E0,6.314659119E0
5.733720052E1,-7.040282249E0,-2.149951220E0,6.314659119E0
5.737720052E1,-7.040282249E0,-2.149951220E0,6.314659119E0
5.741720052E1,-7.040282249E0,-2.149951220E0,6.314659119E0
5.745720052E1,-7.040282249E0,-2.149951220E0,6.314659119E0
5.749720052E1,-7.015157700E0,-2.163111687E0,6.331408501E0
5.753720052E1,-7.012764931E0,-2.133201361E0,6.337390900E0
5.757720052E1,-7.010372162E0,-2.169093609E0,6.323033810E0
5.761720052E1,-6.997211456E0,-2.151147604E0,6.329015732E0
5.765720052E1,-7.028318405E0,-2.136790514E0,6.329015732E0
5.769720052E1,-7.024729252E0,-2.132004976E0,6.314659119E0
5.773720052E1,-7.027122021E0,-2.158325911E0,6.293123722E0
5.777720052E1,-7.031907558E0,-2.147558212E0,6.320641041E0
5.781720052E1,-7.024729252E0,-2.154736757E0,6.331408501E0
5.785720052E1,-7.011568546E0,-2.149951220E0,6.339783669E0
5.789720052E1,-7.006783009E0,-2.122433662E0,6.329015732E0
5.793720052E1,-7.022336483E0,-2.154736757E0,6.330212116E0
5.797720052E1,-7.046264648E0,-2.151147604E0,6.318248272E0
5.801720052E1,-7.001997471E0,-2.136790514E0,6.315855503E0
5.805720052E1,-7.004390240E0,-2.132004976E0,6.349354744E0
5.809720052E1,-7.019943237E0,-2.141576290E0,6.346961975E0
5.813720052E1,-6.999604225E0,-2.117648125E0,6.326622963E0
5.817720052E1,-7.040282249E0,-2.149951220E0,6.307480335E0
5.821720052E1,-7.009175777E0,-2.152343988E0,6.312266350E0
5.825720052E1,-7.013961315E0,-2.145165443E0,6.343372822E0
5.829720052E1,-7.029514790E0,-2.122433662E0,6.336194515E0
5.833720052E1,-7.021139622E0,-2.136790514E0,6.331408501E0
5.837720052E1,-7.003193855E0,-2.145165443E0,6.344569206E0
5.841720052E1,-7.015157700E0,-2.155933142E0,6.336194515E0
5.845720052E1,-7.028318405E0,-2.130808592E0,6.344569206E0
5.849720052E1,-7.016354084E0,-2.120040894E0,6.340980053E0
5.853720052E1,-7.021139622E0,-2.148754835E0,6.318248272E0
5.857720052E1,-7.017550468E0,-2.146361828E0,6.334998131E0
5.861720052E1,-7.017550468E0,-2.146361828E0,6.334998131E0
5.865720052E1,-7.017550468E0,-2.146361828E0,6.334998131E0
5.869720052E1,-7.017550468E0,-2.146361828E0,6.334998131E0
5.873720052E1,-7.017550468E0,-2.146361828E0,6.334998131E0
5.877720052E1,-7.017550468E0,-2.146361828E0,6.334998131E0
5.881720052E1,-7.017550468E0,-2.146361828E0,6.334998131E0
5.885720052E1,-7.024729252E0,-2.127219439E0,6.332605362E0
5.889720052E1,-7.024729252E0,-2.127219439E0,6.332605362E0
5.893720052E1,-7.024729252E0,-2.127219439E0,6.332605362E0
5.897720052E1,-7.024729252E0,-2.127219439E0,6.332605362E0
5.901720052E1,-7.024729252E0,-2.127219439E0,6.332605362E0
5.905720052E1,-7.024729252E0,-2.127219439E0,6.332605362E0
5.909720052E1,-7.024729252E0,-2.127219439E0,6.332605362E0
5.913720052E1,-7.024729252E0,-2.127219439E0,6.332605362E0
5.917720052E1,-7.024729252E0,-2.136790514E0,6.319444656E0
5.921720052E1,-7.029514790E0,-2.148754835E0,6.342176437E0
5.925720052E1,-7.000801086E0,-2.135594130E0,6.336194515E0
5.929720052E1,-7.006783009E0,-2.132004976E0,6.349354744E0
5.933720052E1,-7.013961315E0,-2.141576290E0,6.324230194E0
5.937720052E1,-7.010372162E0,-2.139183521E0,6.334998131E0
5.941720052E1,-7.010372162E0,-2.145165443E0,6.339783669E0
5.945720052E1,-7.022336483E0,-2.135594130E0,6.329015732E0
5.949720052E1,-7.010372162E0,-2.140379906E0,6.339783669E0
5.953720052E1,-7.023532867E0,-2.145165443E0,6.348158360E0
5.957720052E1,-7.004390240E0,-2.126022816E0,6.325426579E0
5.961720052E1,-7.015157700E0,-2.136790514E0,6.337390900E0
5.965720052E1,-7.028318405E0,-2.135594130E0,6.349354744E0
5.969720052E1,-6.996015072E0,-2.133201361E0,6.314659119E0
5.973720052E1,-7.012764931E0,-2.133201361E0,6.360122681E0
5.977720052E1,-7.016354084E0,-2.124826431E0,6.334998131E0
5.981720052E1,-7.015157700E0,-2.143969059E0,6.330212116E0
5.985720052E1,-7.013961315E0,-2.136790514E0,6.346961975E0
5.989720052E1,-7.024729252E0,-2.143969059E0,6.331408501E0
5.993720052E1,-7.004390240E0,-2.142772675E0,6.323033810E0
5.997720052E1,-7.023532867E0,-2.134397745E0,6.339783669E0
6.001720052E1,-7.010372162E0,-2.132004976E0,6.343372822E0
6.005720052E1,-6.996015072E0,-2.142772675E0,6.337390900E0
6.009720052E1,-7.016354084E0,-2.122433662E0,6.339783669E0
6.013720052E1,-7.007979393E0,-2.153540373E0,6.329015732E0
6.017720052E1,-7.001997471E0,-2.134397745E0,6.338587284E0
6.021720052E1,-6.998407841E0,-2.129612207E0,6.339783669E0
6.025720052E1,-6.998407841E0,-2.129612207E0,6.339783669E0
6.029720052E1,-6.998407841E0,-2.129612207E0,6.339783669E0
6.033720052E1,-6.998407841E0,-2.129612207E0,6.339783669E0
6.037720052E1,-6.998407841E0,-2.129612207E0,6.339783669E0
6.041720052E1,-6.998407841E0,-2.129612207E0,6.339783669E0
6.045720052E1,-6.998407841E0,-2.129612207E0,6.339783669E0
6.049720052E1,-6.998407841E0,-2.129612207E0,6.339783669E0
6.053720052E1,-6.998407841E0,-2.129612207E0,6.339783669E0
6.057720052E1,-6.998407841E0,-2.129612207E0,6.339783669E0
6.061720052E1,-6.998407841E0,-2.129612207E0,6.339783669E0
6.065720052E1,-6.998407841E0,-2.129612207E0,6.339783669E0
6.069720052E1,-6.998407841E0,-2.129612207E0,6.339783669E0
6.073720052E1,-6.998407841E0,-2.129612207E0,6.339783669E0
6.077720052E1,-6.998407841E0,-2.129612207E0,6.339783669E0
6.081720052E1,-6.986443996E0,-2.140379906E0,6.342176437E0
6.085720052E1,-7.025925636E0,-2.139183521E0,6.361319065E0
6.089720052E1,-7.035496712E0,-2.142772675E0,6.345765591E0
6.093720052E1,-6.996015072E0,-2.140379906E0,6.293123722E0
6.097720052E1,-6.972086906E0,-2.124826431E0,6.349354744E0
6.101720052E1,-7.041478634E0,-2.149951220E0,6.315855503E0
6.105720052E1,-6.968497753E0,-2.152343988E0,6.308676720E0
6.109720052E1,-7.003193855E0,-2.122433662E0,6.364908218E0
6.113720052E1,-7.063014030E0,-2.102094650E0,6.382854462E0
6.117720052E1,-7.036693096E0,-2.094916344E0,6.300302029E0
6.121720052E1,-7.029514790E0,-2.159522533E0,6.235396862E0
6.125720052E1,-7.007979393E0,-2.201396942E0,6.323033810E0
6.129720052E1,-6.992425919E0,-2.143969059E0,6.386443615E0
6.133720052E1,-7.024729252E0,-2.157129526E0,6.366104603E0
6.137720052E1,-6.964908600E0,-2.137987137E0,6.334998131E0
6.141720052E1,-7.021139622E0,-2.133201361E0,6.327819347E0
6.145720052E1,-7.003193855E0,-2.115255117E0,6.279664040E0
6.149720052E1,-7.068996429E0,-2.137987137E0,6.285645962E0
6.153720052E1,-7.030711174E0,-2.124826431E0,6.302694798E0
6.157720052E1,-7.048657417E0,-2.163111687E0,6.351747513E0
6.161720052E1,-7.001997471E0,-2.170290232E0,6.349354744E0
6.165720052E1,-6.942176819E0,-2.157129526E0,6.354140759E0
6.169720052E1,-7.019943237E0,-2.118844509E0,6.370890141E0
6.173720052E1,-6.996015072E0,-2.137987137E0,6.317051888E0
6.177720052E1,-7.010372162E0,-2.145165443E0,6.342176437E0
6.181720052E1,-7.068996429E0,-2.102094650E0,6.308676720E0
6.185720052E1,-7.046264648E0,-2.139183521E0,6.274878502E0
6.189720052E1,-7.046264648E0,-2.139183521E0,6.274878502E0
6.193720052E1,-7.046264648E0,-2.139183521E0,6.274878502E0
6.197720052E1,-7.046264648E0,-2.139183521E0,6.274878502E0
6.201720052E1,-7.046264648E0,-2.139183521E0,6.274878502E0
6.205720052E1,-7.046264648E0,-2.139183521E0,6.274878502E0
6.209720052E1,-7.046264648E0,-2.139183521E0,6.274878502E0
6.213720052E1,-7.046264648E0,-2.139183521E0,6.274878502E0
6.217720052E1,-7.046264648E0,-2.139183521E0,6.274878502E0
6.221720052E1,-7.046264648E0,-2.139183521E0,6.274878502E0
6.225720052E1,-7.046264648E0,-2.139183521E0,6.274878502E0
6.229720052E1,-7.046264648E0,-2.139183521E0,6.274878502E0
6.233720052E1,-7.046264648E0,-2.139183521E0,6.274878502E0
6.237720052E1,-7.046264648E0,-2.139183521E0,6.274878502E0
6.241720052E1,-7.046264648E0,-2.139183521E0,6.274878502E0
6.245720052E1,-6.950551510E0,-2.196611166E0,6.244967937E0
6.249720052E1,-7.131508827E0,-2.106880426E0,6.324230194E0
6.253720052E1,-7.010372162E0,-2.147558212E0,6.294320107E0
6.257720052E1,-7.016354084E0,-2.122433662E0,6.390032768E0
6.261720052E1,-6.976872444E0,-2.149951220E0,6.317051888E0
6.265720052E1,-7.003193855E0,-2.137987137E0,6.331408501E0
6.269720052E1,-7.012764931E0,-2.122433662E0,6.331408501E0
6.273720052E1,-6.937391281E0,-2.146361828E0,6.333801746E0
6.277720052E1,-7.067800045E0,-2.130808592E0,6.348158360E0
6.281720052E1,-6.978068829E0,-2.140379906E0,6.342176437E0
6.285720052E1,-7.057032108E0,-2.135594130E0,6.351747513E0
6.289720052E1,-7.049853802E0,-2.173879385E0,6.280860424E0
6.293720052E1,-7.055835724E0,-2.110469580E0,6.238986015E0
6.297720052E1,-7.068996429E0,-2.124826431E0,6.312266350E0
6.301720052E1,-6.930212498E0,-2.151147604E0,6.352943897E0
6.305720052E1,-6.962515831E0,-2.120040894E0,6.406782627E0
6.309720052E1,-6.938587666E0,-2.059023857E0,6.433103561E0
6.313720052E1,-7.000801086E0,-2.151147604E0,6.348158360E0
6.317720052E1,-7.089335442E0,-2.166700840E0,6.277271271E0
6.321720052E1,-7.083353043E0,-2.167897224E0,6.253343105E0
6.325720052E1,-7.066603661E0,-2.151147604E0,6.293123722E0
6.329720052E1,-6.992425919E0,-2.132004976E0,6.300302029E0
6.333720052E1,-7.037889481E0,-2.140379906E0,6.349354744E0
6.337720052E1,-6.968497753E0,-2.133201361E0,6.376872540E0
6.341720052E1,-7.004390240E0,-2.160718918E0,6.342176437E0
6.345720052E1,-7.028318405E0,-2.139183521E0,6.309873104E0
6.349720052E1,-7.023532867E0,-2.124826431E0,6.334998131E0
6.353720052E1,-7.023532867E0,-2.124826431E0,6.334998131E0
6.357720052E1,-7.023532867E0,-2.124826431E0,6.334998131E0
6.361720052E1,-7.023532867E0,-2.124826431E0,6.334998131E0
6.365720052E1,-7.023532867E0,-2.124826431E0,6.334998131E0
6.369720052E1,-7.023532867E0,-2.124826431E0,6.334998131E0
6.373720052E1,-7.023532867E0,-2.124826431E0,6.334998131E0
6.377720052E1,-7.023532867E0,-2.124826431E0,6.334998131E0
6.381720052E1,-7.023532867E0,-2.124826431E0,6.334998131E0
6.385720052E1,-7.023532867E0,-2.124826431E0,6.334998131E0
6.389720052E1,-7.023532867E0,-2.124826431E0,6.334998131E0
6.393720052E1,-7.023532867E0,-2.124826431E0,6.334998131E0
6.397720052E1,-7.023532867E0,-2.124826431E0,6.334998131E0
6.401720052E1,-7.023532867E0,-2.124826431E0,6.334998131E0
6.405720052E1,-7.023532867E0,-2.124826431E0,6.334998131E0
6.409720052E1,-7.079763889E0,-2.126022816E0,6.358926296E0
6.413720052E1,-7.047461033E0,-2.090130568E0,6.356533527E0
6.417720052E1,-6.972086906E0,-2.066202402E0,6.278467655E0
6.421720052E1,-7.107580662E0,-2.120040894E0,6.307480335E0
6.425720052E1,-7.048657417E0,-2.181057930E0,6.267699718E0
6.429720052E1,-7.006783009E0,-2.169093609E0,6.373282909E0
6.433720052E1,-6.972086906E0,-2.207378864E0,6.381658077E0
6.437720052E1,-6.974479675E0,-2.166700840E0,6.409175396E0
6.441720052E1,-6.932605267E0,-2.124826431E0,6.396014690E0
6.445720052E1,-7.051050186E0,-2.049452543E0,6.397211552E0
6.449720052E1,-7.017550468E0,-2.100898266E0,6.271288872E0
6.453720052E1,-6.998407841E0,-2.122433662E0,6.271288872E0
6.457720052E1,-6.998407841E0,-2.122433662E0,6.271288872E0
6.461720052E1,-7.067800045E0,-2.234896421E0,6.345765591E0
6.465720052E1,-7.067800045E0,-2.234896421E0,6.345765591E0
6.469720052E1,-7.067800045E0,-2.234896421E0,6.345765591E0
6.473720052E1,-7.067800045E0,-2.234896421E0,6.345765591E0
6.477720052E1,-7.067800045E0,-2.234896421E0,6.345765591E0
6.481720052E1,-7.067800045E0,-2.234896421E0,6.345765591E0
6.485720052E1,-7.067800045E0,-2.234896421E0,6.345765591E0
6.489720052E1,-7.067800045E0,-2.234896421E0,6.345765591E0
6.493720052E1,-7.067800045E0,-2.234896421E0,6.345765591E0
6.497720052E1,-7.067800045E0,-2.234896421E0,6.345765591E0
6.501720052E1,-7.067800045E0,-2.234896421E0,6.345765591E0
6.505720052E1,-7.067800045E0,-2.234896421E0,6.345765591E0
6.509720052E1,-7.067800045E0,-2.234896421E0,6.345765591E0
6.513720052E1,-7.067800045E0,-2.234896421E0,6.345765591E0
6.517720052E1,-7.067800045E0,-2.234896421E0,6.345765591E0
6.521720052E1,-7.067800045E0,-2.234896421E0,6.345765591E0
6.525720052E1,-7.067800045E0,-2.234896421E0,6.345765591E0
6.529720052E1,-7.067800045E0,-2.234896421E0,6.345765591E0
6.533720052E1,-7.067800045E0,-2.234896421E0,6.345765591E0
6.537720052E1,-7.067800045E0,-2.234896421E0,6.345765591E0
6.541720052E1,-7.067800045E0,-2.234896421E0,6.345765591E0
6.545720052E1,-7.067800045E0,-2.234896421E0,6.345765591E0
6.549720052E1,-7.067800045E0,-2.234896421E0,6.345765591E0
6.553720052E1,-7.067800045E0,-2.234896421E0,6.345765591E0
6.557720052E1,-7.067800045E0,-2.234896421E0,6.345765591E0
6.561720052E1,-7.067800045E0,-2.234896421E0,6.345765591E0
6.565720052E1,-7.067800045E0,-2.234896421E0,6.345765591E0
6.569720052E1,-7.067800045E0,-2.234896421E0,6.345765591E0
6.573720052E1,-7.067800045E0,-2.234896421E0,6.345765591E0
6.577720052E1,-7.067800045E0,-2.234896421E0,6.345765591E0
6.581720052E1,-7.067800045E0,-2.234896421E0,6.345765591E0
6.585720052E1,-7.046264648E0,-2.121237278E0,6.311069489E0
6.589720052E1,-7.046264648E0,-2.121237278E0,6.311069489E0
6.593720052E1,-7.046264648E0,-2.121237278E0,6.311069489E0
6.597720052E1,-7.046264648E0,-2.121237278E0,6.311069489E0
6.601720052E1,-7.046264648E0,-2.121237278E0,6.311069489E0
6.605720052E1,-7.046264648E0,-2.121237278E0,6.311069489E0
6.609720052E1,-7.046264648E0,-2.121237278E0,6.311069489E0
6.613720052E1,-7.046264648E0,-2.121237278E0,6.311069489E0
6.617720052E1,-7.046264648E0,-2.121237278E0,6.311069489E0
6.621720052E1,-7.046264648E0,-2.121237278E0,6.311069489E0
6.625720052E1,-7.046264648E0,-2.121237278E0,6.311069489E0
6.629720052E1,-7.046264648E0,-2.121237278E0,6.311069489E0
6.633720052E1,-7.046264648E0,-2.121237278E0,6.311069489E0
6.637720052E1,-7.046264648E0,-2.121237278E0,6.311069489E0
6.641720052E1,-7.046264648E0,-2.121237278E0,6.311069489E0
6.645720052E1,-7.046264648E0,-2.121237278E0,6.311069489E0
6.649720052E1,-7.046264648E0,-2.121237278E0,6.311069489E0
6.653720052E1,-7.046264648E0,-2.121237278E0,6.311069489E0
6.657720052E1,-7.046264648E0,-2.121237278E0,6.311069489E0
6.661720052E1,-7.035496712E0,-2.111665964E0,6.323033810E0
6.665720052E1,-7.035496712E0,-2.111665964E0,6.323033810E0
6.669720052E1,-7.035496712E0,-2.111665964E0,6.323033810E0
6.673720052E1,-7.035496712E0,-2.111665964E0,6.323033810E0
6.677720052E1,-7.035496712E0,-2.111665964E0,6.323033810E0
6.681720052E1,-7.035496712E0,-2.111665964E0,6.323033810E0
6.685720052E1,-6.993622303E0,-2.172683001E0,6.325426579E0
6.689720052E1,-6.993622303E0,-2.172683001E0,6.325426579E0
6.693720052E1,-6.993622303E0,-2.172683001E0,6.325426579E0
6.697720052E1,-6.993622303E0,-2.172683001E0,6.325426579E0
6.701720052E1,-6.993622303E0,-2.172683001E0,6.325426579E0
6.705720052E1,-6.993622303E0,-2.172683001E0,6.325426579E0
6.709720052E1,-6.993622303E0,-2.172683001E0,6.325426579E0
6.713720052E1,-6.993622303E0,-2.172683001E0,6.325426579E0
6.717720052E1,-6.993622303E0,-2.172683001E0,6.325426579E0
6.721720052E1,-6.993622303E0,-2.172683001E0,6.325426579E0
6.725720052E1,-6.993622303E0,-2.172683001E0,6.325426579E0
6.729720052E1,-6.993622303E0,-2.172683001E0,6.325426579E0
6.733720052E1,-6.993622303E0,-2.172683001E0,6.325426579E0
6.737720052E1,-6.993622303E0,-2.172683001E0,6.325426579E0
6.741720052E1,-6.993622303E0,-2.172683001E0,6.325426579E0
6.745720052E1,-6.993622303E0,-2.172683001E0,6.325426579E0
6.749720052E1,-6.993622303E0,-2.172683001E0,6.325426579E0
6.753720052E1,-6.993622303E0,-2.172683001E0,6.325426579E0
6.757720052E1,-6.993622303E0,-2.172683001E0,6.325426579E0
6.761720052E1,-7.022336483E0,-2.123630047E0,6.325426579E0
6.765720052E1,-7.022336483E0,-2.123630047E0,6.325426579E0
6.769720052E1,-7.022336483E0,-2.123630047E0,6.325426579E0
6.773720052E1,-7.022336483E0,-2.123630047E0,6.325426579E0
6.777720052E1,-7.022336483E0,-2.123630047E0,6.325426579E0
6.781720052E1,-7.022336483E0,-2.123630047E0,6.325426579E0
6.785720052E1,-7.034300327E0,-2.060220242E0,6.411568165E0
6.789720052E1,-7.034300327E0,-2.060220242E0,6.411568165E0
6.793720052E1,-7.034300327E0,-2.060220242E0,6.411568165E0
6.797720052E1,-7.034300327E0,-2.060220242E0,6.411568165E0
6.801720052E1,-7.034300327E0,-2.060220242E0,6.411568165E0
6.805720052E1,-7.034300327E0,-2.060220242E0,6.411568165E0
6.809720052E1,-6.950551510E0,-2.298605204E0,6.512066841E0
6.813720052E1,-6.950551510E0,-2.298605204E0,6.512066841E0
6.817720052E1,-6.950551510E0,-2.298605204E0,6.512066841E0
6.821720052E1,-6.950551510E0,-2.298605204E0,6.512066841E0
6.825720052E1,-7.352844715E0,-2.039881229E0,6.155237198E0
6.829720052E1,-7.352844715E0,-2.039881229E0,6.155237198E0
6.833720052E1,-7.352844715E0,-2.039881229E0,6.155237198E0
6.837720052E1,-7.352844715E0,-2.039881229E0,6.155237198E0
6.841720052E1,-7.352844715E0,-2.039881229E0,6.155237198E0
6.845720052E1,-7.352844715E0,-2.039881229E0,6.155237198E0
6.849720052E1,-7.352844715E0,-2.039881229E0,6.155237198E0
6.853720052E1,-7.352844715E0,-2.039881229E0,6.155237198E0
6.857720052E1,-7.352844715E0,-2.039881229E0,6.155237198E0
6.861720052E1,-7.352844715E0,-2.039881229E0,6.155237198E0
6.865720052E1,-7.352844715E0,-2.039881229E0,6.155237198E0
6.869720052E1,-7.352844715E0,-2.039881229E0,6.155237198E0
6.873720052E1,-7.352844715E0,-2.039881229E0,6.155237198E0
6.877720052E1,-7.352844715E0,-2.039881229E0,6.155237198E0
6.881720052E1,-7.352844715E0,-2.039881229E0,6.155237198E0
6.885720052E1,-7.034300327E0,-2.199003935E0,6.267699718E0
6.889720052E1,-7.034300327E0,-2.199003935E0,6.267699718E0
6.893720052E1,-7.034300327E0,-2.199003935E0,6.267699718E0
6.897720052E1,-7.034300327E0,-2.199003935E0,6.267699718E0
6.901720052E1,-7.034300327E0,-2.199003935E0,6.267699718E0
6.905720052E1,-7.034300327E0,-2.199003935E0,6.267699718E0
6.909720052E1,-7.034300327E0,-2.199003935E0,6.267699718E0
6.913720052E1,-7.034300327E0,-2.199003935E0,6.267699718E0
6.917720052E1,-7.034300327E0,-2.199003935E0,6.267699718E0
6.921720052E1,-7.034300327E0,-2.199003935E0,6.267699718E0
6.925720052E1,-7.034300327E0,-2.199003935E0,6.267699718E0
6.929720052E1,-7.034300327E0,-2.199003935E0,6.267699718E0
6.933720052E1,-7.034300327E0,-2.199003935E0,6.267699718E0
6.937720052E1,-7.034300327E0,-2.199003935E0,6.267699718E0
6.941720052E1,-7.034300327E0,-2.199003935E0,6.267699718E0
6.945720052E1,-7.034300327E0,-2.199003935E0,6.267699718E0
6.949720052E1,-7.034300327E0,-2.199003935E0,6.267699718E0
6.953720052E1,-7.034300327E0,-2.199003935E0,6.267699718E0
6.957720052E1,-7.034300327E0,-2.199003935E0,6.267699718E0
6.961720052E1,-7.004390240E0,-2.137987137E0,6.349354744E0
6.965720052E1,-7.004390240E0,-2.137987137E0,6.349354744E0
6.969720052E1,-7.007979393E0,-2.120040894E0,6.355337143E0
6.973720052E1,-7.007979393E0,-2.120040894E0,6.355337143E0
6.977720052E1,-7.007979393E0,-2.120040894E0,6.355337143E0
6.981720052E1,-7.007979393E0,-2.120040894E0,6.355337143E0
6.985720052E1,-7.015157700E0,-2.134397745E0,6.321837425E0
6.989720052E1,-7.015157700E0,-2.134397745E0,6.321837425E0
6.993720052E1,-7.015157700E0,-2.134397745E0,6.321837425E0
6.997720052E1,-7.015157700E0,-2.134397745E0,6.321837425E0
7.001720052E1,-7.015157700E0,-2.134397745E0,6.321837425E0
7.005720052E1,-7.015157700E0,-2.134397745E0,6.321837425E0
7.009720052E1,-7.015157700E0,-2.134397745E0,6.321837425E0
7.013720052E1,-7.015157700E0,-2.134397745E0,6.321837425E0
7.017720052E1,-7.015157700E0,-2.134397745E0,6.321837425E0
7.021720052E1,-7.015157700E0,-2.134397745E0,6.321837425E0
7.025720052E1,-7.015157700E0,-2.134397745E0,6.321837425E0
7.029720052E1,-7.015157700E0,-2.134397745E0,6.321837425E0
7.033720052E1,-7.015157700E0,-2.134397745E0,6.321837425E0
7.037720052E1,-7.015157700E0,-2.134397745E0,6.321837425E0
7.041720052E1,-7.015157700E0,-2.134397745E0,6.321837425E0
7.045720052E1,-7.015157700E0,-2.134397745E0,6.321837425E0
7.049720052E1,-7.015157700E0,-2.134397745E0,6.321837425E0
7.053720052E1,-7.015157700E0,-2.134397745E0,6.321837425E0
7.057720052E1,-7.015157700E0,-2.134397745E0,6.321837425E0
7.061720052E1,-7.015157700E0,-2.134397745E0,6.321837425E0
7.065720052E1,-7.015157700E0,-2.134397745E0,6.321837425E0
7.069720052E1,-7.015157700E0,-2.134397745E0,6.321837425E0
7.073720052E1,-7.015157700E0,-2.134397745E0,6.321837425E0
7.077720052E1,-7.015157700E0,-2.134397745E0,6.321837425E0
7.081720052E1,-7.015157700E0,-2.134397745E0,6.321837425E0
7.085720052E1,-6.996015072E0,-2.165504456E0,6.314659119E0
7.089720052E1,-6.996015072E0,-2.165504456E0,6.314659119E0
7.093720052E1,-6.996015072E0,-2.165504456E0,6.314659119E0
7.097720052E1,-6.996015072E0,-2.165504456E0,6.314659119E0
7.101720052E1,-6.996015072E0,-2.165504456E0,6.314659119E0
7.105720052E1,-6.996015072E0,-2.165504456E0,6.314659119E0
7.109720052E1,-6.996015072E0,-2.165504456E0,6.314659119E0
7.113720052E1,-6.996015072E0,-2.165504456E0,6.314659119E0
7.117720052E1,-6.996015072E0,-2.165504456E0,6.314659119E0
7.121720052E1,-6.996015072E0,-2.165504456E0,6.314659119E0
7.125720052E1,-6.996015072E0,-2.165504456E0,6.314659119E0
7.129720052E1,-6.996015072E0,-2.165504456E0,6.314659119E0
7.133720052E1,-6.996015072E0,-2.165504456E0,6.314659119E0
7.137720052E1,-6.996015072E0,-2.165504456E0,6.314659119E0
7.141720052E1,-6.996015072E0,-2.165504456E0,6.314659119E0
7.145720052E1,-6.996015072E0,-2.165504456E0,6.314659119E0
7.149720052E1,-6.996015072E0,-2.165504456E0,6.314659119E0
7.153720052E1,-6.996015072E0,-2.165504456E0,6.314659119E0
7.157720052E1,-6.996015072E0,-2.165504456E0,6.314659119E0
7.161720052E1,-7.004390240E0,-2.147558212E0,6.381658077E0
7.165720052E1,-7.004390240E0,-2.147558212E0,6.381658077E0
7.169720052E1,-7.004390240E0,-2.147558212E0,6.381658077E0
7.173720052E1,-7.004390240E0,-2.147558212E0,6.381658077E0
7.177720052E1,-7.004390240E0,-2.147558212E0,6.381658077E0
7.181720052E1,-7.004390240E0,-2.147558212E0,6.381658077E0
7.185720052E1,-7.004390240E0,-2.147558212E0,6.381658077E0
7.189720052E1,-7.004390240E0,-2.147558212E0,6.381658077E0
7.193720052E1,-7.004390240E0,-2.147558212E0,6.381658077E0
7.197720052E1,-7.004390240E0,-2.147558212E0,6.381658077E0
7.201720052E1,-7.004390240E0,-2.147558212E0,6.381658077E0
7.205720052E1,-7.004390240E0,-2.147558212E0,6.381658077E0
7.209720052E1,-7.004390240E0,-2.147558212E0,6.381658077E0
7.213720052E1,-7.004390240E0,-2.147558212E0,6.381658077E0
7.217720052E1,-7.004390240E0,-2.147558212E0,6.381658077E0
7.221720052E1,-7.004390240E0,-2.147558212E0,6.381658077E0
7.225720052E1,-7.004390240E0,-2.147558212E0,6.381658077E0
7.229720052E1,-7.004390240E0,-2.147558212E0,6.381658077E0
7.233720052E1,-7.004390240E0,-2.147558212E0,6.381658077E0
7.237720052E1,-7.037889481E0,-2.137987137E0,6.345765591E0
7.241720052E1,-7.037889481E0,-2.137987137E0,6.345765591E0
7.245720052E1,-7.037889481E0,-2.137987137E0,6.345765591E0
7.249720052E1,-7.037889481E0,-2.137987137E0,6.345765591E0
7.253720052E1,-7.037889481E0,-2.137987137E0,6.345765591E0
7.257720052E1,-7.037889481E0,-2.137987137E0,6.345765591E0
7.261720052E1,-7.009175777E0,-2.128415823E0,6.380461693E0
7.265720052E1,-7.009175777E0,-2.128415823E0,6.380461693E0
7.269720052E1,-7.009175777E0,-2.128415823E0,6.380461693E0
7.273720052E1,-7.009175777E0,-2.128415823E0,6.380461693E0
7.277720052E1,-7.009175777E0,-2.128415823E0,6.380461693E0
7.281720052E1,-7.009175777E0,-2.128415823E0,6.380461693E0
7.285720052E1,-7.010372162E0,-2.140379906E0,6.355337143E0
7.289720052E1,-7.010372162E0,-2.140379906E0,6.355337143E0
7.293720052E1,-7.010372162E0,-2.140379906E0,6.355337143E0
7.297720052E1,-7.010372162E0,-2.140379906E0,6.355337143E0
7.301720052E1,-7.010372162E0,-2.140379906E0,6.355337143E0
7.305720052E1,-7.010372162E0,-2.140379906E0,6.355337143E0
7.309720052E1,-7.027122021E0,-2.134397745E0,6.311069489E0
7.313720052E1,-7.027122021E0,-2.134397745E0,6.311069489E0
7.317720052E1,-7.027122021E0,-2.134397745E0,6.311069489E0
7.321720052E1,-7.027122021E0,-2.134397745E0,6.311069489E0
7.325720052E1,-7.027122021E0,-2.134397745E0,6.311069489E0
7.329720052E1,-7.027122021E0,-2.134397745E0,6.311069489E0
7.333720052E1,-7.027122021E0,-2.134397745E0,6.311069489E0
7.337720052E1,-7.027122021E0,-2.134397745E0,6.311069489E0
7.341720052E1,-7.027122021E0,-2.134397745E0,6.311069489E0
7.345720052E1,-7.027122021E0,-2.134397745E0,6.311069489E0
7.349720052E1,-7.027122021E0,-2.134397745E0,6.311069489E0
7.353720052E1,-7.027122021E0,-2.134397745E0,6.311069489E0
7.357720052E1,-7.027122021E0,-2.134397745E0,6.311069489E0
7.361720052E1,-7.027122021E0,-2.134397745E0,6.311069489E0
7.365720052E1,-7.027122021E0,-2.134397745E0,6.311069489E0
7.369720052E1,-7.027122021E0,-2.134397745E0,6.311069489E0
7.373720052E1,-7.027122021E0,-2.134397745E0,6.311069489E0
7.377720052E1,-7.027122021E0,-2.134397745E0,6.311069489E0
7.381720052E1,-7.027122021E0,-2.134397745E0,6.311069489E0
7.385720052E1,-6.944569588E0,-2.067398787E0,6.367300987E0
7.389720052E1,-6.944569588E0,-2.067398787E0,6.367300987E0
7.393720052E1,-6.944569588E0,-2.067398787E0,6.367300987E0
7.397720052E1,-6.944569588E0,-2.067398787E0,6.367300987E0
7.401720052E1,-6.944569588E0,-2.067398787E0,6.367300987E0
7.405720052E1,-6.944569588E0,-2.067398787E0,6.367300987E0
7.409720052E1,-6.944569588E0,-2.067398787E0,6.367300987E0
7.413720052E1,-6.944569588E0,-2.067398787E0,6.367300987E0
7.417720052E1,-6.944569588E0,-2.067398787E0,6.367300987E0
7.421720052E1,-6.944569588E0,-2.067398787E0,6.367300987E0
7.425720052E1,-6.944569588E0,-2.067398787E0,6.367300987E0
7.429720052E1,-6.944569588E0,-2.067398787E0,6.367300987E0
7.433720052E1,-6.944569588E0,-2.067398787E0,6.367300987E0
7.437720052E1,-6.944569588E0,-2.067398787E0,6.367300987E0
7.441720052E1,-6.944569588E0,-2.067398787E0,6.367300987E0
7.445720052E1,-6.944569588E0,-2.067398787E0,6.367300987E0
7.449720052E1,-6.944569588E0,-2.067398787E0,6.367300987E0
7.453720052E1,-6.944569588E0,-2.067398787E0,6.367300987E0
7.457720052E1,-6.944569588E0,-2.067398787E0,6.367300987E0
7.461720052E1,-7.057032108E0,-2.117648125E0,6.330212116E0
7.465720052E1,-7.057032108E0,-2.117648125E0,6.330212116E0
7.469720052E1,-7.057032108E0,-2.117648125E0,6.330212116E0
7.473720052E1,-7.057032108E0,-2.117648125E0,6.330212116E0
7.477720052E1,-7.057032108E0,-2.117648125E0,6.330212116E0
7.481720052E1,-7.057032108E0,-2.117648125E0,6.330212116E0
7.485720052E1,-7.057032108E0,-2.117648125E0,6.330212116E0
7.489720052E1,-7.057032108E0,-2.117648125E0,6.330212116E0
7.493720052E1,-7.057032108E0,-2.117648125E0,6.330212116E0
7.497720052E1,-7.057032108E0,-2.117648125E0,6.330212116E0
7.501720052E1,-7.057032108E0,-2.117648125E0,6.330212116E0
7.505720052E1,-7.057032108E0,-2.117648125E0,6.330212116E0
7.509720052E1,-7.057032108E0,-2.117648125E0,6.330212116E0
7.513720052E1,-7.057032108E0,-2.117648125E0,6.330212116E0
7.517720052E1,-7.057032108E0,-2.117648125E0,6.330212116E0
7.521720052E1,-7.057032108E0,-2.117648125E0,6.330212116E0
7.525720052E1,-7.057032108E0,-2.117648125E0,6.330212116E0
7.529720052E1,-7.057032108E0,-2.117648125E0,6.330212116E0
7.533720052E1,-7.057032108E0,-2.117648125E0,6.330212116E0
7.537720052E1,-7.057032108E0,-2.117648125E0,6.330212116E0
7.541720052E1,-7.057032108E0,-2.117648125E0,6.330212116E0
7.545720052E1,-7.057032108E0,-2.117648125E0,6.330212116E0
7.549720052E1,-7.057032108E0,-2.117648125E0,6.330212116E0
7.553720052E1,-7.057032108E0,-2.117648125E0,6.330212116E0
7.557720052E1,-7.057032108E0,-2.117648125E0,6.330212116E0
7.561720052E1,-7.057032108E0,-2.117648125E0,6.330212116E0
7.565720052E1,-7.057032108E0,-2.117648125E0,6.330212116E0
7.569720052E1,-7.057032108E0,-2.117648125E0,6.330212116E0
7.573720052E1,-7.057032108E0,-2.117648125E0,6.330212116E0
7.577720052E1,-7.057032108E0,-2.117648125E0,6.330212116E0
7.581720052E1,-7.057032108E0,-2.117648125E0,6.330212116E0
7.585720052E1,-7.057032108E0,-2.117648125E0,6.330212116E0
7.589720052E1,-7.057032108E0,-2.117648125E0,6.330212116E0
7.593720052E1,-7.057032108E0,-2.117648125E0,6.330212116E0
7.597720052E1,-7.057032108E0,-2.117648125E0,6.330212116E0
7.601720052E1,-7.057032108E0,-2.117648125E0,6.330212116E0
7.605720052E1,-7.057032108E0,-2.117648125E0,6.330212116E0
7.609720052E1,-7.057032108E0,-2.117648125E0,6.330212116E0
7.613720052E1,-7.057032108E0,-2.117648125E0,6.330212116E0
7.617720052E1,-7.057032108E0,-2.117648125E0,6.330212116E0
7.621720052E1,-7.057032108E0,-2.117648125E0,6.330212116E0
7.625720052E1,-7.057032108E0,-2.117648125E0,6.330212116E0
7.629720052E1,-7.057032108E0,-2.117648125E0,6.330212116E0
7.633720052E1,-7.057032108E0,-2.117648125E0,6.330212116E0
7.637720052E1,-7.057032108E0,-2.117648125E0,6.330212116E0
7.641720052E1,-7.057032108E0,-2.117648125E0,6.330212116E0
7.645720052E1,-7.057032108E0,-2.117648125E0,6.330212116E0
7.649720052E1,-7.057032108E0,-2.117648125E0,6.330212116E0
7.653720052E1,-7.057032108E0,-2.117648125E0,6.330212116E0
7.657720052E1,-7.057032108E0,-2.117648125E0,6.330212116E0
7.661720052E1,-6.998407841E0,-2.179861546E0,6.308676720E0
7.665720052E1,-6.998407841E0,-2.179861546E0,6.308676720E0
7.669720052E1,-6.998407841E0,-2.179861546E0,6.308676720E0
7.673720052E1,-6.998407841E0,-2.179861546E0,6.308676720E0
7.677720052E1,-6.998407841E0,-2.179861546E0,6.308676720E0
7.681720052E1,-6.998407841E0,-2.179861546E0,6.308676720E0
7.685720052E1,-6.981658459E0,-2.133201361E0,6.352943897E0
7.689720052E1,-6.981658459E0,-2.133201361E0,6.352943897E0
7.693720052E1,-6.981658459E0,-2.133201361E0,6.352943897E0
7.697720052E1,-6.981658459E0,-2.133201361E0,6.352943897E0
7.701720052E1,-6.981658459E0,-2.133201361E0,6.352943897E0
7.705720052E1,-6.981658459E0,-2.133201361E0,6.352943897E0
7.709720052E1,-6.981658459E0,-2.133201361E0,6.352943897E0
7.713720052E1,-6.981658459E0,-2.133201361E0,6.352943897E0
7.717720052E1,-6.981658459E0,-2.133201361E0,6.352943897E0
7.721720052E1,-6.981658459E0,-2.133201361E0,6.352943897E0
7.725720052E1,-6.981658459E0,-2.133201361E0,6.352943897E0
7.729720052E1,-6.981658459E0,-2.133201361E0,6.352943897E0
7.733720052E1,-6.981658459E0,-2.133201361E0,6.352943897E0
7.737720052E1,-6.905087948E0,-2.184647083E0,6.429514408E0
7.741720052E1,-6.905087948E0,-2.184647083E0,6.429514408E0
7.745720052E1,-7.033103943E0,-2.080559254E0,6.352943897E0
7.749720052E1,-7.033103943E0,-2.080559254E0,6.352943897E0
7.753720052E1,-7.033103943E0,-2.080559254E0,6.352943897E0
7.757720052E1,-7.033103943E0,-2.080559254E0,6.352943897E0
7.761720052E1,-6.997211456E0,-2.177468538E0,6.360122681E0
7.765720052E1,-6.997211456E0,-2.177468538E0,6.360122681E0
7.769720052E1,-6.997211456E0,-2.177468538E0,6.360122681E0
7.773720052E1,-6.997211456E0,-2.177468538E0,6.360122681E0
7.777720052E1,-6.997211456E0,-2.177468538E0,6.360122681E0
7.781720052E1,-6.997211456E0,-2.177468538E0,6.360122681E0
7.785720052E1,-7.048657417E0,-2.128415823E0,6.297909260E0
7.789720052E1,-7.048657417E0,-2.128415823E0,6.297909260E0
7.793720052E1,-7.048657417E0,-2.128415823E0,6.297909260E0
7.797720052E1,-7.048657417E0,-2.128415823E0,6.297909260E0
7.801720052E1,-7.048657417E0,-2.128415823E0,6.297909260E0
7.805720052E1,-7.048657417E0,-2.128415823E0,6.297909260E0
7.809720052E1,-7.048657417E0,-2.128415823E0,6.297909260E0
7.813720052E1,-7.048657417E0,-2.128415823E0,6.297909260E0
7.817720052E1,-7.048657417E0,-2.128415823E0,6.297909260E0
7.821720052E1,-7.048657417E0,-2.128415823E0,6.297909260E0
7.825720052E1,-7.048657417E0,-2.128415823E0,6.297909260E0
7.829720052E1,-7.048657417E0,-2.128415823E0,6.297909260E0
7.833720052E1,-7.048657417E0,-2.128415823E0,6.297909260E0
7.837720052E1,-7.048657417E0,-2.128415823E0,6.297909260E0
7.841720052E1,-7.048657417E0,-2.128415823E0,6.297909260E0
7.845720052E1,-7.048657417E0,-2.128415823E0,6.297909260E0
7.849720052E1,-7.048657417E0,-2.128415823E0,6.297909260E0
7.853720052E1,-7.048657417E0,-2.128415823E0,6.297909260E0
7.857720052E1,-7.048657417E0,-2.128415823E0,6.297909260E0
7.861720052E1,-7.048657417E0,-2.128415823E0,6.297909260E0
7.865720052E1,-7.048657417E0,-2.128415823E0,6.297909260E0
7.869720052E1,-7.048657417E0,-2.128415823E0,6.297909260E0
7.873720052E1,-7.048657417E0,-2.128415823E0,6.297909260E0
7.877720052E1,-7.048657417E0,-2.128415823E0,6.297909260E0
7.881720052E1,-6.961319447E0,-2.129612207E0,6.367300987E0
7.885720052E1,-6.961319447E0,-2.129612207E0,6.367300987E0
7.889720052E1,-6.961319447E0,-2.129612207E0,6.367300987E0
7.893720052E1,-6.961319447E0,-2.129612207E0,6.367300987E0
7.897720052E1,-6.961319447E0,-2.129612207E0,6.367300987E0
7.901720052E1,-6.961319447E0,-2.129612207E0,6.367300987E0
7.905720052E1,-6.961319447E0,-2.129612207E0,6.367300987E0
7.909720052E1,-6.961319447E0,-2.129612207E0,6.367300987E0
7.913720052E1,-6.961319447E0,-2.129612207E0,6.367300987E0
7.917720052E1,-6.961319447E0,-2.129612207E0,6.367300987E0
7.921720052E1,-6.961319447E0,-2.129612207E0,6.367300987E0
7.925720052E1,-6.961319447E0,-2.129612207E0,6.367300987E0
7.929720052E1,-6.961319447E0,-2.129612207E0,6.367300987E0
7.933720052E1,-6.961319447E0,-2.129612207E0,6.367300987E0
7.937720052E1,-6.961319447E0,-2.129612207E0,6.367300987E0
7.941720052E1,-6.961319447E0,-2.129612207E0,6.367300987E0
7.945720052E1,-6.961319447E0,-2.129612207E0,6.367300987E0
7.949720052E1,-6.961319447E0,-2.129612207E0,6.367300987E0
7.953720052E1,-6.961319447E0,-2.129612207E0,6.367300987E0
7.957720052E1,-6.961319447E0,-2.129612207E0,6.367300987E0
7.961720052E1,-7.033103943E0,-2.151147604E0,6.320641041E0
7.965720052E1,-7.033103943E0,-2.151147604E0,6.320641041E0
7.969720052E1,-7.033103943E0,-2.151147604E0,6.320641041E0
7.973720052E1,-7.033103943E0,-2.151147604E0,6.320641041E0
7.977720052E1,-7.033103943E0,-2.151147604E0,6.320641041E0
7.981720052E1,-7.033103943E0,-2.151147604E0,6.320641041E0
7.985720052E1,-7.027122021E0,-2.139183521E0,6.321837425E0
7.989720052E1,-7.027122021E0,-2.139183521E0,6.321837425E0
7.993720052E1,-7.027122021E0,-2.139183521E0,6.321837425E0
7.997720052E1,-7.027122021E0,-2.139183521E0,6.321837425E0
8.001720052E1,-7.027122021E0,-2.139183521E0,6.321837425E0
8.005720052E1,-7.027122021E0,-2.139183521E0,6.321837425E0
8.009720052E1,-7.027122021E0,-2.139183521E0,6.321837425E0
8.013720052E1,-7.027122021E0,-2.139183521E0,6.321837425E0
8.017720052E1,-7.027122021E0,-2.139183521E0,6.321837425E0
8.021720052E1,-7.027122021E0,-2.139183521E0,6.321837425E0
8.025720052E1,-7.027122021E0,-2.139183521E0,6.321837425E0
8.029720052E1,-7.027122021E0,-2.139183521E0,6.321837425E0
8.033720052E1,-7.027122021E0,-2.139183521E0,6.321837425E0
8.037720052E1,-7.027122021E0,-2.139183521E0,6.321837425E0
8.041720052E1,-7.027122021E0,-2.139183521E0,6.321837425E0
8.045720052E1,-7.027122021E0,-2.139183521E0,6.321837425E0
8.049720052E1,-7.027122021E0,-2.139183521E0,6.321837425E0
8.053720052E1,-7.027122021E0,-2.139183521E0,6.321837425E0
8.057720052E1,-7.027122021E0,-2.139183521E0,6.321837425E0
8.061720052E1,-7.015157700E0,-2.177468538E0,6.311069489E0
8.065720052E1,-7.015157700E0,-2.177468538E0,6.311069489E0
8.069720052E1,-7.015157700E0,-2.177468538E0,6.311069489E0
8.073720052E1,-7.015157700E0,-2.177468538E0,6.311069489E0
8.077720052E1,-7.015157700E0,-2.177468538E0,6.311069489E0
8.081720052E1,-7.015157700E0,-2.177468538E0,6.311069489E0
8.085720052E1,-7.015157700E0,-2.177468538E0,6.311069489E0
8.089720052E1,-7.015157700E0,-2.177468538E0,6.311069489E0
8.093720052E1,-7.015157700E0,-2.177468538E0,6.311069489E0
8.097720052E1,-7.015157700E0,-2.177468538E0,6.311069489E0
8.101720052E1,-7.015157700E0,-2.177468538E0,6.311069489E0
8.105720052E1,-7.015157700E0,-2.177468538E0,6.311069489E0
8.109720052E1,-7.015157700E0,-2.177468538E0,6.311069489E0
8.113720052E1,-7.015157700E0,-2.177468538E0,6.311069489E0
8.117720052E1,-7.015157700E0,-2.177468538E0,6.311069489E0
8.121720052E1,-7.015157700E0,-2.177468538E0,6.311069489E0
8.125720052E1,-7.015157700E0,-2.177468538E0,6.311069489E0
8.129720052E1,-7.015157700E0,-2.177468538E0,6.311069489E0
8.133720052E1,-7.015157700E0,-2.177468538E0,6.311069489E0
8.137720052E1,-7.015157700E0,-2.177468538E0,6.311069489E0
8.141720052E1,-7.015157700E0,-2.177468538E0,6.311069489E0
8.145720052E1,-7.015157700E0,-2.177468538E0,6.311069489E0
8.149720052E1,-7.015157700E0,-2.177468538E0,6.311069489E0
8.153720052E1,-7.015157700E0,-2.177468538E0,6.311069489E0
8.157720052E1,-7.015157700E0,-2.177468538E0,6.311069489E0
8.161720052E1,-6.993622303E0,-2.191825628E0,6.354140759E0
8.165720052E1,-6.993622303E0,-2.191825628E0,6.354140759E0
8.169720052E1,-6.993622303E0,-2.191825628E0,6.354140759E0
8.173720052E1,-6.993622303E0,-2.191825628E0,6.354140759E0
8.177720052E1,-6.993622303E0,-2.191825628E0,6.354140759E0
8.181720052E1,-6.993622303E0,-2.191825628E0,6.354140759E0
8.185720052E1,-6.993622303E0,-2.191825628E0,6.354140759E0
8.189720052E1,-6.993622303E0,-2.191825628E0,6.354140759E0
8.193720052E1,-6.993622303E0,-2.191825628E0,6.354140759E0
8.197720052E1,-6.993622303E0,-2.191825628E0,6.354140759E0
8.201720052E1,-6.993622303E0,-2.191825628E0,6.354140759E0
8.205720052E1,-6.993622303E0,-2.191825628E0,6.354140759E0
8.209720052E1,-6.993622303E0,-2.191825628E0,6.354140759E0
8.213720052E1,-6.993622303E0,-2.191825628E0,6.354140759E0
8.217720052E1,-6.993622303E0,-2.191825628E0,6.354140759E0
8.221720052E1,-6.993622303E0,-2.191825628E0,6.354140759E0
8.225720052E1,-6.993622303E0,-2.191825628E0,6.354140759E0
8.229720052E1,-6.993622303E0,-2.191825628E0,6.354140759E0
8.233720052E1,-6.993622303E0,-2.191825628E0,6.354140759E0
8.237720052E1,-6.672685146E0,-1.995314956E0,6.102594852E0
8.241720052E1,-6.672685146E0,-1.995314956E0,6.102594852E0
8.245720052E1,-6.672685146E0,-1.995314956E0,6.102594852E0
8.249720052E1,-6.672685146E0,-1.995314956E0,6.102594852E0
8.253720052E1,-6.672685146E0,-1.995314956E0,6.102594852E0
8.257720052E1,-6.672685146E0,-1.995314956E0,6.102594852E0
8.261720052E1,-7.526623726E0,-2.275873423E0,6.441478729E0
