"Time (s)","Gyroscope x (rad/s)","Gyroscope y (rad/s)","Gyroscope z (rad/s)"
4.769635500E-2,-2.231663167E-1,3.171731234E-1,1.789591461E-1
8.818375100E-2,-3.797555864E-1,5.609783530E-1,1.901440918E-1
1.287077620E-1,-8.057156205E-1,1.029680848E0,2.918738425E-1
1.691942720E-1,-1.094393730E0,1.280942708E-1,5.085155964E-1
2.446866160E-1,-8.453955650E-1,5.785546899E-1,-1.337533236E0
2.851939600E-1,-1.614360690E0,2.500634491E-1,-1.082276702E0
3.257294800E-1,-8.845428824E-1,2.143648386E0,-1.186403260E-1
3.662244800E-1,3.029256463E-1,1.587197185E-1,2.956021577E-2
4.066781260E-1,6.612433791E-1,-6.163704395E-1,3.621792197E-1
4.471124490E-1,-1.999974996E-1,4.085168540E-1,4.617785215E-1
4.876699490E-1,-5.304860473E-1,3.382114768E-1,5.955983996E-1
5.281242720E-1,1.908098608E-1,1.233007237E-1,1.267627329E-1
5.686038030E-1,5.111786723E-1,4.873441160E-2,-7.563154399E-2
6.090947930E-1,4.706998467E-1,-3.308880031E-1,1.126483902E-1
6.496157300E-1,1.276948154E-1,-3.210346103E-1,2.010627389E-1
6.900738030E-1,-2.170412242E-2,-1.213034093E-1,2.079867423E-1
7.305703660E-1,2.336854935E-1,1.163767055E-1,4.585828185E-1
7.710914080E-1,5.706986189E-1,7.031869292E-1,1.994648874E-1
8.115778140E-1,9.033176303E-1,2.003570080E0,3.371462524E-1
8.520321370E-1,9.757534266E-1,1.404243469E0,1.204512239E0
8.925422410E-1,8.553821445E-1,1.183207631E0,1.416493654E0
9.330917200E-1,-3.374125659E-1,1.508103609E0,1.307573557E0
9.735813030E-1,-8.382052183E-1,7.998568416E-1,4.796211720E-1
1.014021772E0,-2.711018026E-1,6.142399907E-1,2.607157826E-1
1.054477137E0,-1.380808353E0,6.659038067E-1,4.604469836E-1
1.094989168E0,-6.806839108E-1,1.624480449E-2,2.929390781E-2
1.135481564E0,4.019923210E-1,-1.237001866E-1,2.055899799E-1
1.176032137E0,5.304860473E-1,-1.910761744E-1,9.613727778E-2
1.216512553E0,-4.434032366E-2,3.435376585E-1,1.738992929E-1
1.257018543E0,4.571181238E-1,-8.628387749E-2,1.941387206E-1
1.297437397E0,1.128081799E0,-1.083874583E0,4.977301359E-1
1.337897397E0,1.268825650E0,-1.142196059E0,3.557878435E-1
1.378468074E0,7.081136703E-1,5.953320861E-1,2.210358530E-2
1.418876928E0,9.371387362E-1,-3.860138059E-1,6.089138389E-1
1.459358126E0,3.372794092E-1,-2.312887162E-1,2.340849638E-1
1.499866460E0,-2.103835195E-1,3.667064607E-1,-6.258244067E-2
1.540350001E0,-6.884068251E-2,3.592498302E-1,-3.766930401E-1
1.580859897E0,-2.117150649E-2,3.480648994E-1,-1.796249151E-1
1.621335470E0,-1.171756312E-1,3.153089881E-1,1.264964193E-1
1.661896303E0,-4.399412274E-1,-8.231588006E-1,4.790885448E-1
1.702277970E0,-8.738905191E-1,-1.282274246E0,5.346138477E-1
1.742796460E0,-1.422086120E0,-6.701647043E-1,5.619104207E-2
1.783300887E0,-1.213433623E0,-1.958697289E-1,-2.343512699E-2
1.823856043E0,-1.084274054E0,2.849498391E-1,-2.334191799E-1
1.864335158E0,-1.092263341E0,1.222354889E0,-1.029015064E0
1.904821199E0,-1.209705234E0,2.216616869E0,-1.815556526E0
1.945257033E0,-1.620485783E0,2.307161570E0,-2.125406265E0
1.985789637E0,-1.812227726E0,1.826208830E0,-2.138189077E0
2.026247033E0,-1.509701490E0,1.838192701E0,-2.381328344E0
2.066705522E0,-1.223020673E0,2.927926064E0,-2.509422779E0
2.107163595E0,-1.132209539E0,2.631391764E0,-2.403165817E0
2.147690574E0,-1.373618007E0,1.418890357E0,-1.772148252E0
2.188173387E0,-2.343645811E0,2.860150635E-1,-8.809477091E-1
2.228672762E0,-1.348585010E0,1.234338760E0,-9.198287129E-1
2.269180574E0,-2.451766968E0,9.681636691E-1,5.991935730E-2
2.309705314E0,-1.465760589E0,2.884118557E-1,6.579145193E-1
2.350175783E0,-1.386134505E0,7.844109535E-1,3.778914213E-1
2.390680574E0,-1.454841971E0,-1.655105799E-1,6.933335662E-1
2.431126824E0,-1.712894678E0,-1.222887516E0,1.778539658E0
2.471598543E0,-2.305830002E0,1.072290182E0,4.788222313E-1
2.512113178E0,2.286256403E-1,1.348585010E0,-2.525933683E-1
2.552650470E0,2.089188248E-1,-1.078548431E-1,2.993304729E-1
2.593125626E0,2.294245660E-1,8.216941357E-1,6.379414201E-1
2.633574949E0,8.918663263E-1,4.569849670E-1,1.699046731E0
2.674064272E0,1.002650619E0,4.965317547E-1,1.523283243E0
2.714537501E0,9.275516272E-1,8.536511064E-1,1.666290760E0
2.755053803E0,3.236976862E-1,-1.784265228E-2,1.091464400E0
2.795581564E0,3.250292242E-1,-3.884105980E-1,-3.820191920E-1
2.836031928E0,1.229012609E-1,-3.902747631E-1,-1.175750971E0
2.876531876E0,1.362166703E-1,-2.689713426E-2,-1.012770295E0
2.917012605E0,6.524552125E-3,-5.199668407E-1,-2.332593918E0
2.957499533E0,-8.921326697E-2,-1.060705781E0,-2.371741295E0
2.998004741E0,-5.179695413E-2,-4.022586346E-1,-1.131011128E0
3.038536980E0,-6.671021879E-2,5.912043154E-2,-1.035939083E-1
3.078975366E0,1.238333434E-2,4.655068219E-1,4.692351520E-1
3.119454168E0,7.395380139E-1,-6.003919840E-1,4.146419466E-1
3.159931095E0,6.071828008E-1,-3.994623665E-3,-6.933335662E-1
3.200396460E0,6.487269402E-1,-2.587184608E-1,-7.480598688E-1
3.240907501E0,7.541849613E-1,-1.721682847E-1,-5.193011090E-2
3.281442605E0,6.045197248E-1,-2.845503688E-1,2.564548552E-1
3.321955105E0,7.126408815E-1,-2.166417688E-1,-6.897383928E-2
3.362445626E0,1.744319126E-2,-4.047885537E-2,-7.323476672E-2
3.402914949E0,-8.508548886E-2,-1.171756350E-2,-4.118457139E-1
3.443384116E0,-7.559159994E-1,-2.583190054E-2,-8.300828338E-1
3.483845730E0,1.205044836E-1,1.991985738E-1,1.067896113E-1
3.524359168E0,2.331528813E-1,1.805569977E-1,-2.896102369E-1
3.564880730E0,-9.214265645E-2,3.621792197E-1,-1.548582464E-1
3.605335991E0,-1.054580659E-1,4.933360517E-1,5.183690190E-1
3.645835835E0,6.854774356E-1,1.113701105E0,8.947957307E-2
3.686265574E0,3.157084286E-1,1.599979997E0,-1.099853039E0
3.726754741E0,8.820129633E-1,-4.234301299E-2,9.239565134E-1
3.767263855E0,9.730903506E-1,-7.110430300E-2,1.127016544E0
3.807761668E0,8.378057480E-1,-2.169080675E-1,7.814815640E-1
3.848304845E0,4.706998467E-1,-2.467346042E-1,-3.834838793E-2
3.888754428E0,1.316894293E-1,-3.396761715E-1,-2.648435533E-1
3.929237501E0,-1.302247345E-1,-1.529940963E-1,-1.679073572E-1
3.969765470E0,-3.323526978E-1,1.736329794E-1,-3.556546867E-1
4.010230210E0,-3.153089881E-1,-2.187722325E-1,-7.021217346E-1
4.050697658E0,-3.009283245E-1,-4.206338823E-1,-4.360797703E-1
4.091189324E0,-3.350157738E-1,-3.740299344E-1,-2.003969699E-1
4.131666147E0,-2.623136342E-1,-2.398105860E-1,-4.687025398E-2
4.172229793E0,-8.814803511E-2,1.531272531E-1,-2.262288630E-1
4.212711460E0,-5.685681105E-2,-5.166380107E-2,-2.403431982E-1
4.253153439E0,-1.296921223E-1,1.145125460E-2,-5.790873170E-1
4.293673074E0,7.736254483E-2,-2.778926790E-1,-3.673722446E-1
4.334180574E0,6.378082931E-2,-2.086525112E-1,-3.348826170E-1
4.374607085E0,8.109086752E-2,-6.924014539E-2,-1.777607650E-1
4.415098491E0,-2.516612969E-2,-1.011971384E-2,-1.450048387E-1
4.455597710E0,-4.394086078E-3,-1.631138027E-1,-1.817553788E-1
4.496129897E0,-2.889444493E-2,-1.311568171E-1,-1.298252791E-1
4.536597293E0,4.194355011E-2,-6.870753318E-2,-7.935985923E-2
4.577135939E0,8.508548886E-2,-8.468602598E-2,-1.022623703E-1
4.617589480E0,7.150376588E-2,-3.994623944E-2,-6.311506033E-2
4.658063022E0,9.227581322E-2,1.496652365E-1,-5.805519968E-2
4.698530574E0,2.596505545E-2,5.459319428E-2,-6.977276504E-2
4.739069480E0,-1.342193633E-1,1.315562725E-1,1.145125460E-2
4.779517241E0,-2.599168718E-1,1.754971445E-1,1.611164957E-1
4.820018543E0,-4.292888939E-1,2.402100414E-1,2.481992990E-1
4.860490158E0,-5.975957513E-1,3.536573648E-1,2.769605815E-1
4.900969845E0,-5.110455155E-1,3.163742125E-1,2.202369273E-1
4.941475105E0,-3.195699155E-1,-1.091863867E-2,4.873441160E-2
4.982017970E0,-3.994623839E-4,-1.316894293E-1,1.864157803E-2
5.022462814E0,3.223661482E-1,1.728340536E-1,1.683068126E-1
5.062946824E0,6.745588183E-1,4.740287066E-1,4.442021847E-1
5.103493283E0,1.034341216E0,4.314193726E-1,9.407339096E-1
5.143974689E0,8.212946653E-1,2.205032408E-1,7.660356760E-1
5.184453439E0,5.936011076E-1,-2.938711643E-1,2.466014475E-1
5.224895053E0,3.926715255E-1,-2.808220685E-1,-6.764229387E-2
5.265385939E0,2.528596818E-1,-3.541899845E-2,-2.659088075E-1
5.305902866E0,4.544550478E-1,-3.804213405E-1,-3.471328020E-1
5.346393074E0,7.246247530E-1,-1.105179265E-1,-3.655080795E-1
5.386829116E0,5.456656218E-1,1.326215118E-1,-3.716331720E-1
5.427389272E0,5.882749557E-1,2.809551954E-1,-4.794880152E-1
5.467805626E0,5.938674212E-1,2.580527067E-1,-4.499278069E-1
5.508294012E0,5.754921436E-1,2.796236612E-2,-3.348826170E-1
5.548811512E0,5.680354834E-1,-8.761541545E-2,-3.468665183E-1
5.589331720E0,4.256937504E-1,-1.225017942E-2,-3.889431953E-1
5.629796980E0,3.287575543E-1,-3.222329915E-2,-3.473991156E-1
5.670281408E0,1.995980442E-1,1.145125460E-2,-2.443378270E-1
5.710771668E0,-1.424749196E-2,-6.577813625E-2,-6.684337556E-2
5.751279845E0,-2.133129090E-1,-5.379426852E-2,7.989247888E-2
5.791781408E0,-2.857487500E-1,-9.587096982E-3,2.093182951E-1
5.832230887E0,-2.375469655E-1,-6.018566713E-2,2.881455421E-1
5.872714949E0,-2.399437428E-1,-1.181077138E-1,2.854824364E-1
5.913201928E0,-2.173075378E-1,-7.403369248E-2,2.319544852E-1
5.953710574E0,-1.621817350E-1,-7.722939365E-3,1.723014414E-1
5.994220783E0,-8.588441461E-2,2.370143496E-2,9.347419441E-2
6.034689480E0,1.344856713E-2,-9.853405878E-3,-1.278279629E-2
6.075161199E0,7.869409025E-2,-8.255556226E-3,-7.483261824E-2
6.115631668E0,1.106510833E-1,2.263620123E-2,-1.006645188E-1
6.156138074E0,1.151783243E-1,3.222329915E-2,-1.082543060E-1
6.196651720E0,9.254211932E-2,3.488638252E-2,-9.107742459E-2
6.237136303E0,5.579157919E-2,2.370143496E-2,-5.725627393E-2
6.277645314E0,7.323476952E-3,2.583190054E-2,-2.023942769E-2
6.318063387E0,-3.022598661E-2,1.304910425E-2,1.970681176E-2
6.358598126E0,-4.700340703E-2,-7.989247330E-3,3.621792421E-2
6.399098074E0,-3.901416063E-2,-3.408745676E-2,4.367455468E-2
6.439577814E0,-2.223674022E-2,-3.435376659E-2,3.248960897E-2
6.480063699E0,-3.328853287E-3,-2.316881903E-2,1.517957076E-2
6.520572033E0,1.557903271E-2,2.157096937E-2,3.994623665E-3
6.561054845E0,1.026618332E-1,2.964010835E-1,9.507204592E-2
6.601526564E0,1.344856713E-2,5.700328350E-1,2.471340597E-1
6.642050053E0,-1.408770680E-1,1.989322603E-1,3.009283245E-1
6.682523387E0,-2.862813771E-1,1.624480449E-2,2.809551954E-1
6.722993803E0,-3.485974967E-1,-7.722939365E-3,3.240971565E-1
6.763526303E0,-4.396749437E-1,7.030537724E-2,3.595161438E-1
6.803988960E0,-4.585828185E-1,1.099853069E-1,3.699021637E-1
6.844465730E0,-4.138430357E-1,7.083799690E-2,3.358147144E-1
6.884958178E0,-4.228975177E-1,4.527240247E-2,2.958684862E-1
6.925437658E0,-4.772244096E-1,-6.657706574E-3,2.127802968E-1
6.965928387E0,-4.639089704E-1,-3.062544949E-2,8.228924870E-2
7.006437605E0,-3.275591433E-1,-6.977276504E-2,3.728315700E-3
7.046932762E0,-1.507304758E-1,-1.011971384E-1,-5.778888986E-2
7.087403908E0,-2.516612969E-2,-7.616416365E-2,-1.753639877E-1
7.127882658E0,3.075860441E-2,-5.379426852E-2,-1.948044896E-1
7.168368960E0,6.511236727E-2,-1.358172111E-2,-1.535267085E-1
7.208876355E0,2.463351376E-2,-5.379426852E-2,-1.372819096E-1
7.249360262E0,-5.286218971E-2,-6.364767253E-2,-1.505973190E-1
7.289851251E0,-8.668334037E-2,-7.296846062E-2,-1.247654185E-1
7.330385626E0,-7.549838722E-2,-6.844121963E-2,-1.098521575E-1
7.370816408E0,-4.380770773E-2,-6.844121963E-2,-8.974587917E-2
7.411323387E0,1.198387123E-3,-5.698996782E-2,-5.086487532E-2
7.451858855E0,4.327509180E-2,-5.086487532E-2,-1.837527007E-2
7.492292501E0,5.712312087E-2,-8.868064731E-2,-4.979964346E-2
7.532812605E0,6.963960826E-2,-1.588528752E-1,-1.287600398E-1
7.573259533E0,1.354177445E-1,-1.644453406E-1,-1.681736708E-1
7.613752241E0,1.785596907E-1,-9.959928691E-2,-1.705704331E-1
7.654247033E0,1.620485783E-1,-2.183727734E-2,-1.535267085E-1
7.694792605E0,1.306242049E-1,-1.304910425E-2,-1.388797611E-1
7.735281199E0,1.039933711E-1,-2.476666868E-2,-1.252980381E-1
7.775773178E0,8.188978583E-2,-4.287562892E-2,-8.868064731E-2
7.816239012E0,1.637795754E-2,-2.130465955E-2,-4.820179567E-2
7.856751980E0,-2.063889056E-2,1.544587873E-2,1.438064594E-2
7.897238960E0,-5.552527308E-2,4.420717061E-2,5.406057462E-2
7.937725991E0,-9.587097168E-2,4.793548584E-2,5.459319428E-2
7.978163960E0,-9.081111848E-2,7.509893179E-2,4.527240247E-2
8.018652501E0,-3.528584540E-2,4.553871229E-2,1.118494663E-2
8.059153126E0,1.930734888E-2,-3.355484083E-2,-1.970681176E-2
8.099620366E0,2.330197208E-2,-5.326165259E-2,-3.834838793E-2
8.140107501E0,1.264964230E-2,-1.091863867E-2,-3.941362351E-2
8.180605783E0,-9.986559860E-3,-5.592473317E-3,-3.861469775E-2
8.221105210E0,-1.850842312E-2,1.171756350E-2,-3.728315607E-2
8.261593335E0,-2.170412242E-2,5.539211631E-2,-3.408745676E-2
8.302079533E0,9.320789250E-4,3.621792421E-2,-3.728315607E-2
8.342585366E0,1.398118306E-2,-1.091863867E-2,-2.689713426E-2
8.383048022E0,1.344856713E-2,-2.316881903E-2,-2.450035885E-2
8.423572918E0,-9.986559860E-3,-3.568530455E-2,-1.171756350E-2
8.464058751E0,-4.087831825E-2,6.391398143E-3,-1.065233024E-3
8.504523595E0,-5.232957378E-2,4.047885537E-2,-5.326165119E-4
8.545058439E0,-3.741630912E-2,3.115806542E-2,-9.054481052E-3
8.585492762E0,-1.637795754E-2,1.917419396E-2,-2.476666868E-2
8.626049741E0,7.057168987E-3,1.997311972E-2,-3.621792421E-2
8.666539324E0,1.371487509E-2,2.450035885E-2,-3.781577200E-2
8.706934793E0,2.010627277E-2,8.521864191E-3,-5.512581021E-2
8.747421980E0,2.489982173E-2,-2.023942769E-2,-5.006595328E-2
8.787925210E0,1.398118306E-2,-6.950645149E-2,-4.607132822E-2
8.828432345E0,1.344856713E-2,-5.698996782E-2,-2.663082629E-2
8.868959376E0,-6.657706108E-4,7.722939365E-3,-2.663082560E-4
8.909434168E0,-2.197043039E-2,1.677742042E-2,2.396774245E-3
8.949906303E0,-1.904104091E-2,1.597849466E-2,1.225017942E-2
8.990429480E0,-2.489982173E-2,2.476666868E-2,2.316881903E-2
9.030935783E0,-4.700340703E-2,5.219641700E-2,3.515268862E-2
9.071395262E0,-5.845466256E-2,8.575125784E-2,4.900071770E-2
9.111883230E0,-4.247616604E-2,9.134373069E-2,2.290250920E-2
9.152377814E0,-4.660394508E-3,2.583190054E-2,-5.326165119E-4
9.192875887E0,4.141093418E-2,2.716344222E-2,-3.302222490E-2
9.233347553E0,7.762885839E-2,-2.450035885E-2,-4.420717061E-2
9.273828491E0,6.804175675E-2,-6.151720881E-2,-4.420717061E-2
9.314340678E0,4.567186534E-2,-4.473978654E-2,-3.009283356E-2
9.354808855E0,8.655018173E-3,-4.234301299E-2,-1.118494663E-2
9.395284480E0,-1.078548469E-2,-4.287562892E-2,-4.260932095E-3
9.435797605E0,-1.185071748E-2,-4.633763805E-2,2.396774245E-3
9.476321668E0,-2.676397935E-2,-5.778888986E-2,1.278279629E-2
9.516769272E0,-3.901416063E-2,-1.917419396E-2,2.343512699E-2
9.557220887E0,-4.007939249E-2,5.592473317E-3,2.796236612E-2
9.597720470E0,-4.726971686E-2,7.270215452E-2,9.054481052E-3
9.638231668E0,3.994623839E-4,6.684337556E-2,2.663082560E-4
9.678743283E0,3.395430371E-2,7.989247679E-4,-2.583190054E-2
9.719241720E0,4.620448127E-2,-2.663082443E-3,-3.488638252E-2
9.759733022E0,3.715000302E-2,-1.118494663E-2,-2.796236612E-2
9.800210835E0,1.371487509E-2,-5.059856921E-3,-6.391398143E-3
9.840700991E0,-1.531272475E-2,7.989247330E-3,2.130466048E-3
9.881193283E0,-4.127778113E-3,7.190322969E-3,-3.462007269E-3
9.921667241E0,4.167724028E-2,-3.089175746E-2,-1.118494663E-2
9.962162553E0,6.165036187E-2,-7.190322876E-2,-2.929390781E-2
1.000265557E1,6.564498693E-2,-8.282186836E-2,-3.462007269E-2
1.004312339E1,1.504641678E-2,-9.507204592E-2,-1.944050193E-2
1.008361630E1,-3.075860441E-2,7.190322969E-3,1.571218669E-2
1.012411167E1,-3.501953557E-2,3.994623944E-2,1.890788600E-2
1.016461318E1,6.524552125E-3,-3.009283356E-2,-1.304910425E-2
1.020508646E1,5.978620425E-2,-5.991935730E-2,-3.994623944E-2
1.024557604E1,7.123745978E-2,-5.193011090E-2,-3.808208182E-2
1.028611235E1,4.540555924E-2,-3.169068322E-2,-2.556559257E-2
1.032662479E1,2.862813696E-2,-5.326165119E-4,-1.145125460E-2
1.036700917E1,3.062544856E-3,1.198387146E-2,5.326165119E-4
1.040749740E1,-1.185071748E-2,5.592473224E-2,1.145125460E-2
1.044798563E1,-3.741630912E-2,7.323476672E-2,1.757634431E-2
1.048847391E1,-2.796236658E-3,3.222329915E-2,-1.651111245E-2
1.052905813E1,1.291595027E-2,-6.604444981E-2,1.065233024E-3
1.056948740E1,-2.117150649E-2,-5.991935730E-2,4.394086078E-2
1.060999495E1,-8.055824786E-2,3.488638252E-2,6.151720881E-2
1.065048391E1,-1.038602218E-1,1.350182891E-1,3.994623944E-2
1.069096740E1,-2.543243766E-2,1.073222235E-1,-1.331541315E-2
1.073145828E1,4.460663348E-2,-3.355484083E-2,-4.154408723E-2
1.077192172E1,6.005251035E-2,-1.166430190E-1,-2.263620123E-2
1.081243167E1,2.995967865E-2,-1.278279629E-2,-9.320789017E-3
1.085293495E1,1.105179265E-2,2.822867595E-2,-7.722939365E-3
1.089342386E1,-1.318225823E-2,5.619104207E-2,-7.989247679E-4
1.093396651E1,-7.603100687E-2,9.400681406E-2,3.675054014E-2
1.097438849E1,-1.741656065E-1,1.451379955E-1,1.294258088E-1
1.101489677E1,-3.270265460E-1,1.653774232E-1,2.133129090E-1
1.105536396E1,-5.054530501E-1,1.083874628E-1,2.825530469E-1
1.109589261E1,-6.383408904E-1,2.503297664E-2,3.347494900E-1
1.113638209E1,-6.567161679E-1,4.420717061E-2,3.651086092E-1
1.117682334E1,-6.383408904E-1,8.495233208E-2,2.905423045E-1
1.121731281E1,-4.742949903E-1,3.888100386E-2,1.792254597E-1
1.125780224E1,-2.471340597E-1,6.391398143E-3,9.773512930E-2
1.129829172E1,3.049229458E-2,-7.989247679E-4,-4.101147130E-2
1.133878115E1,2.810883522E-1,-1.343525201E-1,-1.599181145E-1
1.137933005E1,4.784227908E-1,-2.331528813E-1,-3.002625704E-1
1.141978318E1,5.794867873E-1,-2.909417748E-1,-4.078511000E-1
1.146027834E1,6.284874678E-1,-2.949363887E-1,-4.446016252E-1
1.150074688E1,6.005251408E-1,-1.790923029E-1,-3.881442845E-1
1.154126479E1,4.805532396E-1,-6.231613085E-2,-2.944037914E-1
1.158177052E1,3.348826170E-1,-2.370143496E-2,-2.115819156E-1
1.162220813E1,1.982664913E-1,-7.190322969E-3,-1.189066395E-1
1.166275979E1,8.481918275E-2,1.225017942E-2,-5.832150951E-2
1.170318802E1,1.731003635E-3,2.609820850E-2,-1.358172111E-2
1.174367823E1,-3.821523488E-2,-7.989247679E-4,3.195699072E-3
1.178423052E1,-4.620448127E-2,-6.311506033E-2,1.677742042E-2
1.182466511E1,-5.312849581E-2,-1.075885370E-1,4.713656008E-2
1.186514979E1,-3.768261895E-2,2.716344222E-2,2.343512699E-2
1.190561599E1,-3.794892505E-2,-2.822867595E-2,1.118494663E-2
1.194617229E1,-5.459319334E-3,4.154408723E-2,-1.970681176E-2
1.198663177E1,2.197043039E-2,2.077204362E-2,-3.222329915E-2
1.202712052E1,5.765573680E-2,2.023942769E-2,-5.139749497E-2
1.206760922E1,9.121058136E-2,-2.689713426E-2,-6.977276504E-2
1.210804594E1,1.125152409E-1,-7.909355313E-2,-8.362079412E-2
1.214854500E1,1.151783243E-1,-1.197055578E-1,-9.880036116E-2
1.218905516E1,8.481918275E-2,-1.343525201E-1,-7.270215452E-2
1.222954813E1,5.499265343E-2,-1.391460598E-1,-3.541899845E-2
1.227004797E1,-1.185071748E-2,-9.294158220E-2,1.864157850E-3
1.231053797E1,-4.114462435E-2,-6.950645149E-2,-6.391398143E-3
1.235101959E1,-9.720250964E-3,-5.991935730E-2,-1.970681176E-2
1.239151438E1,-2.410089783E-2,-7.296846062E-2,-1.651111245E-2
1.243201594E1,-5.659050494E-2,-5.166380107E-2,3.142437339E-2
1.247250052E1,-6.031882018E-2,-3.648423031E-2,3.035914153E-2
1.251299797E1,-3.794892505E-2,-4.394086078E-2,1.011971384E-2
1.255349047E1,-3.555215150E-2,-2.769605815E-2,3.648423031E-2
1.259395750E1,-5.792204663E-2,2.556559257E-2,3.035914153E-2
1.263444828E1,-3.635107726E-2,4.260931909E-2,2.742975019E-2
1.267493906E1,-6.790860556E-3,3.462007269E-2,1.118494663E-2
1.271542334E1,7.589785382E-3,4.820179567E-2,-1.597849536E-3
1.275594417E1,1.611164957E-2,6.418029219E-2,-1.784265228E-2
1.279647516E1,3.661738336E-2,4.340824485E-2,-2.902759984E-2
1.283696292E1,3.821523488E-2,1.864157803E-2,-1.997311972E-2
1.287745203E1,2.037258074E-2,1.011971384E-2,-1.171756350E-2
1.291794104E1,1.198387123E-3,1.358172111E-2,-4.793548491E-3
1.295840214E1,-5.725627299E-3,2.396774245E-3,-1.331541222E-3
1.299886594E1,-8.388710208E-3,-2.130465955E-2,6.657706574E-3
1.303935375E1,-2.090519853E-2,-1.225017942E-2,7.722939365E-3
1.307985276E1,-2.223674022E-2,-1.171756350E-2,4.527240526E-3
1.312034787E1,-9.453942999E-3,-1.464695390E-2,-2.663082560E-4
1.316081323E1,-3.861469682E-3,-1.651111245E-2,-2.929390874E-3
1.320131865E1,4.926702939E-3,-4.260932095E-3,4.793548491E-3
1.324181719E1,-5.991935730E-3,4.394086078E-2,0.000000000E0
1.328229745E1,-1.957365684E-2,9.107742459E-2,4.793548491E-3
1.332279365E1,2.529928461E-3,7.616416365E-2,-9.320789017E-3
1.336323875E1,4.327509180E-2,-1.491326280E-2,-1.864157803E-2
1.340374698E1,3.581846133E-2,-3.488638252E-2,-1.411433797E-2
1.344425464E1,-1.424749196E-2,2.130465955E-2,2.023942769E-2
1.348474188E1,-1.584534161E-2,4.660394415E-2,1.251648832E-2
1.352524516E1,4.127778113E-3,2.663082629E-2,-2.130466048E-3
1.356575432E1,1.717688330E-2,3.648423031E-2,-1.491326280E-2
1.360624630E1,1.691057347E-2,3.248960897E-2,-1.304910425E-2
1.364669406E1,9.986559860E-3,1.944050193E-2,-1.597849466E-2
1.368716380E1,1.185071748E-2,-1.597849536E-3,-8.788172156E-3
1.372765375E1,1.105179265E-2,-1.731003635E-2,-8.255556226E-3
1.376814375E1,-2.263620263E-3,2.663082443E-3,-2.929390874E-3
1.380863370E1,-1.105179265E-2,2.236989327E-2,-2.130466048E-3
1.384913078E1,9.320789250E-4,2.130466048E-3,-1.278279629E-2
1.388962073E1,1.930734888E-2,-3.009283356E-2,-2.210358530E-2
1.393010943E1,1.850842312E-2,-9.320789017E-3,-1.757634431E-2
1.397064063E1,-5.459319334E-3,3.275591508E-2,-2.663082560E-4
1.401109818E1,-1.185071748E-2,4.181039706E-2,1.038602181E-2
1.405160292E1,6.524552125E-3,1.677742042E-2,7.989247679E-4
1.409208115E1,-4.127778113E-3,5.406057462E-2,1.065233024E-3
1.413257042E1,-3.555215150E-2,1.233007237E-1,1.651111245E-2
1.417305625E1,-1.185071748E-2,9.081111848E-2,-5.059856921E-3
1.421355651E1,3.555215150E-2,1.331541222E-3,-2.450035885E-2
1.425402932E1,5.339480564E-2,-3.994623944E-2,-2.929390781E-2
1.429453453E1,3.874785081E-2,-3.648423031E-2,-1.624480449E-2
1.433498724E1,3.595161485E-3,-1.757634431E-2,-5.858781748E-3
1.437546193E1,-2.756290510E-2,2.130465955E-2,1.464695390E-2
1.441604302E1,-4.913387448E-2,3.861469775E-2,1.810896210E-2
1.445654917E1,-2.836182900E-2,3.408745676E-2,1.917419396E-2
1.449699172E1,4.394086078E-3,-1.651111245E-2,7.989247679E-4
1.453748094E1,3.049229458E-2,-2.716344222E-2,-1.091863867E-2
1.457791042E1,1.584534161E-2,-5.326165119E-4,-6.924014539E-3
1.461842526E1,-1.158440951E-2,4.633763805E-2,-2.929390874E-3
1.465891375E1,-3.342168778E-2,7.989247888E-2,2.929390874E-3
1.469940229E1,-1.797580719E-2,4.287562892E-2,-4.793548491E-3
1.473991198E1,2.623136342E-2,-2.210358530E-2,-2.130465955E-2
1.478040203E1,4.087831825E-2,-7.243584841E-2,-2.183727734E-2
1.482090537E1,1.504641678E-2,-5.352795869E-2,2.663082560E-4
1.486144547E1,-2.383458801E-2,-3.009283356E-2,2.183727734E-2
1.490193401E1,-4.913387448E-2,2.130466048E-3,3.089175746E-2
1.494235328E1,-5.099803209E-2,3.062544949E-2,3.994623944E-2
1.498284891E1,-2.756290510E-2,7.243584841E-2,1.944050193E-2
1.502334948E1,7.856093347E-3,7.882724702E-2,-1.517957076E-2
1.506382130E1,3.981308267E-2,3.967992961E-2,-2.769605815E-2
1.510429136E1,3.715000302E-2,-1.091863867E-2,-2.849498391E-2
1.514478005E1,2.676397935E-2,-1.145125460E-2,-8.788172156E-3
1.518528740E1,-1.717688330E-2,-7.722939365E-3,1.251648832E-2
1.522576516E1,-3.715000302E-2,1.704372838E-2,2.956021577E-2
1.526630990E1,-3.848154470E-2,-9.587096982E-3,3.515268862E-2
1.530679958E1,-1.691057347E-2,-5.645735189E-2,2.556559257E-2
1.534726349E1,-1.051917579E-2,-4.713656008E-2,1.065232977E-2
1.538771969E1,-7.589785382E-3,-2.556559257E-2,3.462007269E-3
1.542821547E1,8.122402243E-3,-2.609820850E-2,-1.065232977E-2
1.546871209E1,5.991935730E-3,-2.077204362E-2,-7.456631400E-3
1.550923667E1,-7.323476952E-3,-8.521864191E-3,1.038602181E-2
1.554974380E1,-9.720250964E-3,-8.788172156E-3,2.556559257E-2
1.559018896E1,-1.611164957E-2,2.929390874E-3,7.722939365E-3
1.563067943E1,9.320789250E-4,1.251648832E-2,-3.195699072E-3
1.567118313E1,2.303566411E-2,-3.115806542E-2,-2.023942769E-2
1.571168068E1,3.528584540E-2,-5.166380107E-2,-3.142437339E-2
1.575215010E1,3.475322574E-2,-5.432688445E-2,-1.624480449E-2
1.579266271E1,-1.478010789E-2,-3.861469775E-2,5.326164886E-3
1.583311656E1,-5.712312087E-2,1.118494663E-2,2.902759984E-2
1.587360604E1,-5.206326395E-2,1.544587873E-2,2.023942769E-2
1.591411396E1,5.725627299E-3,-4.953333735E-2,-1.331541315E-2
1.595462323E1,2.809552103E-2,-3.035914153E-2,-2.423405088E-2
1.599508313E1,1.731003635E-3,6.258244067E-2,-7.190322969E-3
1.603559459E1,-1.185071748E-2,8.468602598E-2,-1.065233024E-3
1.607610891E1,-7.323476952E-3,7.296846062E-2,-8.521864191E-3
1.611659854E1,-9.453942999E-3,4.127778113E-2,1.358172111E-2
1.615708912E1,-4.966649041E-2,1.049254537E-1,2.210358530E-2
1.619757938E1,-1.398118306E-2,7.376738638E-2,-7.456631400E-3
1.623806964E1,6.404713541E-2,-5.326165259E-2,-4.660394415E-2
1.627855511E1,5.818835273E-2,-5.033225939E-2,-4.420717061E-2
1.631900854E1,1.105179265E-2,1.704372838E-2,-1.358172111E-2
1.635948208E1,-7.589785382E-3,5.938674137E-2,-5.326164886E-3
1.639998802E1,-7.057168987E-3,-2.663082443E-3,4.527240526E-3
1.644046505E1,-6.258244161E-3,-1.890788600E-2,1.384802908E-2
1.648095401E1,-1.611164957E-2,1.438064594E-2,1.038602181E-2
1.652143688E1,-6.258244161E-3,3.701684624E-2,-3.728315700E-3
1.656193339E1,1.584534161E-2,-4.260932095E-3,-1.651111245E-2
1.660243141E1,1.664426550E-2,-5.858781748E-3,-5.326164886E-3
1.664291912E1,8.122402243E-3,1.304910425E-2,-2.929390874E-3
1.668341214E1,8.388710208E-3,1.704372838E-2,-1.464695390E-2
1.672389938E1,1.611164957E-2,-4.260932095E-3,-1.464695390E-2
1.676437927E1,7.057168987E-3,-2.663082443E-3,-7.190322969E-3
1.680487328E1,-4.660394508E-3,1.597849536E-3,2.130466048E-3
1.684535443E1,-3.861469682E-3,1.065233024E-3,2.929390874E-3
1.688584042E1,-5.193010904E-3,-1.331541315E-2,1.331541222E-3
1.692637438E1,-4.127778113E-3,-1.251648832E-2,7.989247679E-4
1.696682177E1,-6.258244161E-3,0.000000000E0,4.793548491E-3
1.700727969E1,-6.790860556E-3,1.225017942E-2,-1.331541222E-3
1.704776026E1,3.595161485E-3,1.065233024E-3,-2.929390874E-3
1.708829849E1,1.850842312E-2,5.592473317E-3,-1.011971384E-2
1.712878781E1,6.258244161E-3,1.464695390E-2,-1.225017942E-2
1.716929979E1,1.291595027E-2,9.587096982E-3,-1.677742042E-2
1.720978328E1,3.049229458E-2,-1.358172111E-2,-3.169068322E-2
1.725027318E1,4.061200842E-2,-4.500609636E-2,-3.595161438E-2
1.729074589E1,1.983996481E-2,-2.157096937E-2,-2.236989327E-2
1.733123151E1,-1.344856713E-2,2.663082560E-4,2.130466048E-3
1.737169193E1,-2.623136342E-2,1.597849536E-3,1.304910425E-2
1.741222474E1,-2.383458801E-2,2.103835158E-2,7.722939365E-3
1.745270057E1,-2.529928461E-3,1.810896210E-2,-1.198387146E-2
1.749321151E1,4.114462435E-2,1.038602181E-2,-4.181039706E-2
1.753370625E1,6.457975507E-2,-3.302222490E-2,-5.006595328E-2
1.757416974E1,6.404713541E-2,-1.890788600E-2,-4.260931909E-2
1.761466245E1,2.516612969E-2,-1.358172111E-2,-1.677742042E-2
1.765512932E1,-6.790860556E-3,8.788172156E-3,5.858781748E-3
1.769562834E1,-2.889444493E-2,3.222329915E-2,1.091863867E-2
1.773616656E1,-1.797580719E-2,2.876129188E-2,5.059856921E-3
1.777665261E1,-4.926702939E-3,1.651111245E-2,-5.059856921E-3
1.781706787E1,7.856093347E-3,-5.858781748E-3,-5.326164886E-3
1.785755719E1,9.453942999E-3,2.929390874E-3,-3.728315700E-3
1.789804656E1,4.660394508E-3,5.326165119E-4,-3.994623665E-3
1.793853599E1,-8.122402243E-3,1.118494663E-2,5.326164886E-3
1.797907464E1,-2.197043039E-2,2.849498391E-2,1.171756350E-2
1.801960203E1,-2.649767138E-2,4.500609636E-2,8.521864191E-3
1.806006724E1,-1.131810062E-2,3.568530455E-2,-1.331541222E-3
1.810051818E1,1.105179265E-2,9.853405878E-3,-1.358172111E-2
1.814098125E1,2.489982173E-2,-4.793548491E-3,-1.757634431E-2
1.818149974E1,3.129122034E-2,-1.757634431E-2,-1.757634431E-2
1.822201875E1,2.809552103E-2,-3.541899845E-2,-1.890788600E-2
1.826248219E1,1.611164957E-2,-4.873441160E-2,-8.255556226E-3
1.830300349E1,-1.824211515E-2,-1.278279629E-2,1.384802908E-2
1.834349010E1,-5.552527308E-2,2.876129188E-2,2.529928461E-2
1.838393037E1,-3.981308267E-2,4.234301299E-2,2.503297664E-2
1.842444094E1,-7.323476952E-3,8.788172156E-3,1.118494663E-2
1.846495662E1,1.797580719E-2,-1.065232977E-2,-5.326165119E-4
1.850543266E1,2.436720580E-2,-1.198387146E-2,-6.125089712E-3
1.854593479E1,1.584534161E-2,-1.065232977E-2,-1.278279629E-2
1.858645229E1,1.904104091E-2,-1.677742042E-2,-1.198387146E-2
1.862688771E1,7.856093347E-3,-6.924014539E-3,-7.989247679E-4
1.866736417E1,-1.291595027E-2,1.065232977E-2,7.456631400E-3
1.870784630E1,-1.664426550E-2,2.236989327E-2,8.788172156E-3
1.874834401E1,-3.994623839E-4,2.130466048E-3,2.929390874E-3
1.878886063E1,2.796236658E-3,-6.391398143E-3,1.864157850E-3
1.882936474E1,1.731003635E-3,1.544587873E-2,-1.864157850E-3
1.886984292E1,4.660394508E-3,1.225017942E-2,-1.225017942E-2
1.891033349E1,8.921326138E-3,1.810896210E-2,-2.503297664E-2
1.895082781E1,1.744319126E-2,-5.592473317E-3,-2.609820850E-2
1.899131537E1,2.170412242E-2,-1.464695390E-2,-2.636451647E-2
1.903183073E1,-3.595161485E-3,-2.982652560E-2,-1.597849536E-3
1.907227703E1,-2.862813696E-2,-5.059856921E-3,1.251648832E-2
1.911275078E1,-3.155753016E-2,4.527240526E-3,1.571218669E-2
1.915324604E1,-2.436720580E-2,1.384802908E-2,5.059856921E-3
1.919375703E1,2.263620263E-3,1.651111245E-2,-1.011971384E-2
1.923425516E1,2.330197208E-2,1.065233024E-3,-2.130465955E-2
1.927472677E1,3.182383627E-2,-2.130466048E-3,-2.077204362E-2
1.931522198E1,1.211702544E-2,1.411433797E-2,-1.331541315E-2
1.935569651E1,-6.258244161E-3,1.677742042E-2,-2.929390874E-3
1.939620162E1,-1.131810062E-2,4.260932095E-3,2.663082443E-3
1.943671729E1,-1.331541280E-4,-1.917419396E-2,7.989247679E-4
1.947714516E1,-1.464695437E-3,-1.731003635E-2,1.597849536E-3
1.951763099E1,-7.323476952E-3,-1.065232977E-2,1.065232977E-2
1.955811307E1,-1.744319126E-2,2.343512699E-2,2.077204362E-2
1.959862974E1,-2.330197208E-2,4.021254554E-2,2.476666868E-2
1.963913292E1,-9.187635034E-3,3.541899845E-2,1.810896210E-2
1.967963026E1,3.062544856E-3,8.788172156E-3,1.065232977E-2
1.972011703E1,1.611164957E-2,2.157096937E-2,-3.195699072E-3
1.976061099E1,1.584534161E-2,1.970681176E-2,-2.023942769E-2
1.980108505E1,1.478010789E-2,1.278279629E-2,-3.462007269E-2
1.984158766E1,4.127778113E-3,-1.118494663E-2,-4.260931909E-2
1.988206953E1,1.398118306E-2,1.384802908E-2,-8.255556226E-3
1.992254964E1,2.263620263E-3,3.462007269E-2,1.464695390E-2
1.996304938E1,-6.657706108E-4,-1.065232977E-2,6.391398143E-3
2.000357349E1,6.790860556E-3,-4.740286991E-2,-2.663082560E-4
2.004404594E1,-1.504641678E-2,-3.435376659E-2,1.917419396E-2
2.008452073E1,-3.209014609E-2,3.728315700E-3,2.396774292E-2
2.012501125E1,-1.904104091E-2,1.411433797E-2,6.391398143E-3
2.016548875E1,1.264964230E-2,-8.521864191E-3,-7.456631400E-3
2.020602104E1,2.223674022E-2,7.456631400E-3,-1.597849466E-2
2.024651505E1,1.717688330E-2,9.853405878E-3,-1.304910425E-2
2.028695703E1,1.264964230E-2,7.190322969E-3,-1.065232977E-2
2.032742834E1,-3.994623839E-4,-5.059856921E-3,-3.195699072E-3
2.036794615E1,-1.131810062E-2,-5.059856921E-3,7.456631400E-3
2.040843656E1,-1.398118306E-2,-2.929390874E-3,5.858781748E-3
2.044894849E1,-8.921326138E-3,5.326164886E-3,0.000000000E0
2.048940412E1,-2.796236658E-3,-2.929390874E-3,-5.326165119E-4
2.052989031E1,-2.263620263E-3,1.065232977E-2,-9.587096982E-3
2.057042167E1,1.997311832E-3,1.038602181E-2,-3.728315700E-3
2.061089875E1,4.660394508E-3,3.462007269E-3,-6.657706574E-3
2.065139266E1,1.211702544E-2,7.190322969E-3,-9.853405878E-3
2.069187641E1,2.276935615E-2,-2.529928461E-2,-6.657706574E-3
2.073236531E1,1.344856713E-2,-1.704372838E-2,-1.864157850E-3
2.077283234E1,-1.051917579E-2,1.757634431E-2,1.331541315E-2
2.081335563E1,-1.930734888E-2,3.328853101E-2,1.198387146E-2
2.085382761E1,-1.504641678E-2,1.837527007E-2,8.521864191E-3
2.089428417E1,-5.991935730E-3,3.435376659E-2,-1.597849536E-3
2.093486625E1,-2.529928461E-3,1.544587873E-2,-6.924014539E-3
2.097528198E1,1.584534161E-2,-2.210358530E-2,-8.255556226E-3
2.101579917E1,1.584534161E-2,-4.633763805E-2,-6.657706574E-3
2.105631542E1,-6.657706108E-4,-1.890788600E-2,5.592473317E-3
2.109674052E1,-1.637795754E-2,1.464695390E-2,3.195699072E-3
2.113723010E1,-1.824211515E-2,3.621792421E-2,-9.587096982E-3
2.117769000E1,-1.824211515E-2,2.236989327E-2,-1.944050193E-2
2.121817922E1,6.657706108E-4,1.225017942E-2,-2.503297664E-2
2.125866688E1,8.655018173E-3,-3.754946589E-2,-2.423405088E-2
2.129919010E1,4.127778113E-3,-3.009283356E-2,1.065233024E-3
2.133969401E1,-2.010627277E-2,2.636451647E-2,1.091863867E-2
2.138018459E1,-7.057168987E-3,3.728315607E-2,-8.255556226E-3
2.142067813E1,2.250304818E-2,1.677742042E-2,-2.396774292E-2
2.146117526E1,1.717688330E-2,9.853405878E-3,-1.571218669E-2
2.150170110E1,1.797580719E-2,1.438064594E-2,-1.704372838E-2
2.154215344E1,1.957365684E-2,-6.657706574E-3,1.864157850E-3
2.158268115E1,3.328853287E-3,3.195699072E-3,1.544587873E-2
2.162312485E1,-2.543243766E-2,4.127778113E-2,3.701684624E-2
2.166366266E1,-4.300878197E-2,7.935985923E-2,4.314193875E-2
2.170414464E1,-5.179695413E-2,1.001319066E-1,4.633763805E-2
2.174464318E1,-4.300878197E-2,1.051917598E-1,5.033225939E-2
2.178506896E1,3.994623839E-4,5.885412544E-2,3.515268862E-2
2.182558193E1,2.223674022E-2,-5.326165119E-4,3.568530455E-2
2.186610667E1,-1.997311832E-3,3.195699072E-3,1.864157803E-2
2.190654031E1,-1.025286783E-2,2.929390781E-2,1.331541315E-2
2.194703052E1,3.595161485E-3,-5.326164886E-3,6.125089712E-3
2.198752052E1,-1.731003635E-3,-2.769605815E-2,6.924014539E-3
2.202798323E1,-1.264964230E-2,1.065233024E-3,1.491326280E-2
2.206847573E1,-2.489982173E-2,6.391398143E-3,2.023942769E-2
2.210895844E1,-9.453942999E-3,3.408745676E-2,-3.195699072E-3
2.214945354E1,1.717688330E-2,-1.731003635E-2,-1.011971384E-2
2.218997417E1,7.057168987E-3,-1.438064594E-2,-7.190322969E-3
2.223046250E1,-5.459319334E-3,1.944050193E-2,8.521864191E-3
2.227097037E1,-4.127778113E-3,2.157096937E-2,7.989247679E-4
2.231146042E1,-3.861469682E-3,-8.521864191E-3,7.190322969E-3
2.235191755E1,-3.595161485E-3,2.263620123E-2,2.663082443E-3
2.239240755E1,-1.531272475E-2,1.091863867E-2,9.320789017E-3
2.243292334E1,-9.320789250E-4,1.011971384E-2,-7.190322969E-3
2.247340615E1,1.185071748E-2,-3.089175746E-2,-1.597849536E-3
2.251390760E1,-1.464695437E-3,-1.997311972E-2,3.462007269E-3
2.255440302E1,-6.790860556E-3,9.587096982E-3,5.592473317E-3
2.259486781E1,-1.731003635E-3,-8.255556226E-3,2.929390874E-3
2.263536365E1,-2.796236658E-3,8.255556226E-3,5.059856921E-3
2.267587511E1,-1.478010789E-2,1.438064594E-2,1.464695390E-2
2.271639344E1,-1.344856713E-2,2.183727734E-2,9.853405878E-3
2.275686906E1,-4.394086078E-3,5.592473317E-3,4.527240526E-3
2.279729990E1,-3.328853287E-3,-7.989247679E-4,1.597849536E-3
2.283778865E1,-5.193010904E-3,1.970681176E-2,4.527240526E-3
2.287827568E1,-2.356828004E-2,3.568530455E-2,1.890788600E-2
2.291878521E1,-3.129122034E-2,7.323476672E-2,5.059856921E-3
2.295928521E1,1.731003635E-3,4.447348043E-2,-1.384802908E-2
2.299980776E1,4.620448127E-2,-2.583190054E-2,-3.754946589E-2
2.304031594E1,5.232957378E-2,-7.430000603E-2,-2.982652560E-2
2.308075016E1,3.528584540E-2,-7.856093347E-2,-3.701684624E-2
2.312118698E1,5.991935730E-3,-3.435376659E-2,-9.587096982E-3
2.316173985E1,-2.010627277E-2,-1.411433797E-2,-7.989247679E-4
2.320224104E1,-2.516612969E-2,5.059856921E-3,1.251648832E-2
2.324271089E1,-1.105179265E-2,5.326164886E-3,3.994623665E-3
2.328320115E1,1.318225823E-2,-4.260932095E-3,-4.260932095E-3
2.332369604E1,2.410089783E-2,-3.462007269E-2,-3.728315700E-3
2.336415917E1,1.850842312E-2,-1.438064594E-2,1.864157850E-3
2.340466125E1,7.856093347E-3,-1.544587873E-2,-3.728315700E-3
2.344514880E1,-2.796236658E-3,-1.065232977E-2,8.255556226E-3
2.348567578E1,-1.797580719E-2,1.251648832E-2,1.011971384E-2
2.352618781E1,-2.197043039E-2,1.171756350E-2,5.592473317E-3
2.356663401E1,-2.529928461E-3,-1.171756350E-2,-3.728315700E-3
2.360709610E1,1.105179265E-2,-3.808208182E-2,-1.091863867E-2
2.364756610E1,1.850842312E-2,-6.844121963E-2,-1.065233024E-3
2.368806807E1,1.025286783E-2,-6.897383928E-2,9.054481052E-3
2.372856854E1,3.994623839E-4,-8.015878499E-2,2.849498391E-2
2.376905490E1,-4.127778113E-3,-8.761541545E-2,3.595161438E-2
2.380958005E1,3.861469682E-3,-1.327546686E-1,4.047885537E-2
2.385005328E1,-9.320789250E-4,-1.202381775E-1,4.047885537E-2
2.389052563E1,-1.051917579E-2,-2.423405088E-2,7.989247330E-3
2.393102177E1,4.660394508E-3,-6.284874678E-2,-3.195699072E-3
2.397153214E1,2.596505545E-2,-6.551183015E-2,-1.198387146E-2
2.401203823E1,2.782921307E-2,-7.989247888E-2,-8.255556226E-3
2.405251396E1,1.211702544E-2,-5.086487532E-2,-9.054481052E-3
2.409300896E1,9.720250964E-3,-1.411433797E-2,-8.255556226E-3
2.413349844E1,8.921326138E-3,-8.521864191E-3,-2.050573565E-2
2.417397708E1,1.331541280E-4,3.462007269E-3,-2.636451647E-2
2.421445412E1,-2.117150649E-2,3.169068322E-2,-1.864157803E-2
2.425494307E1,-1.797580719E-2,4.926702753E-2,-4.074516147E-2
2.429545031E1,1.824211515E-2,2.343512699E-2,-5.832150951E-2
2.433599141E1,5.978620425E-2,-3.648423031E-2,-4.473978654E-2
2.437641125E1,7.469946891E-2,-7.935985923E-2,-4.793548584E-2
2.441687469E1,4.700340703E-2,-5.672365800E-2,-4.154408723E-2
2.445736412E1,2.356828004E-2,-4.473978654E-2,-3.435376659E-2
2.449785557E1,1.664426550E-2,-4.979964346E-2,-1.890788600E-2
2.453834630E1,1.424749196E-2,-7.749570161E-2,1.331541222E-3
2.457887427E1,-1.424749196E-2,-5.299534276E-2,1.837527007E-2
2.461934844E1,-2.010627277E-2,-4.447348043E-2,1.704372838E-2
2.465983787E1,-9.986559860E-3,-5.592473224E-2,1.011971384E-2
2.470035469E1,-1.611164957E-2,-4.873441160E-2,1.864157850E-3
2.474083974E1,-1.770949923E-2,-1.304910425E-2,-1.810896210E-2
2.478132193E1,7.323476952E-3,-3.994623665E-3,-4.287562892E-2
2.482179182E1,2.463351376E-2,-1.757634431E-2,-6.418029219E-2
2.486229026E1,2.250304818E-2,-5.326164886E-3,-7.456631213E-2
2.490277969E1,3.102491237E-2,-3.595161438E-2,-7.296846062E-2
2.494333229E1,3.315537795E-2,-7.403369248E-2,-6.924014539E-2
2.498381010E1,2.330197208E-2,-8.708280325E-2,-5.832150951E-2
2.502426214E1,-3.062544856E-3,-7.110430300E-2,-4.181039706E-2
2.506474406E1,-2.569874749E-2,-3.035914153E-2,-1.890788600E-2
2.510522526E1,-5.472634733E-2,5.326165119E-4,-1.278279629E-2
2.514571453E1,-3.528584540E-2,-6.924014539E-3,2.609820850E-2
2.518625219E1,-3.342168778E-2,2.663082629E-2,2.583190054E-2
2.522673724E1,-5.446003750E-2,7.483261824E-2,6.657706574E-3
2.526713510E1,-3.262276202E-2,8.708280325E-2,1.970681176E-2
2.530768787E1,-2.543243766E-2,7.776200771E-2,2.423405088E-2
2.534811526E1,-2.063889056E-2,1.275616586E-1,2.236989327E-2
2.538863334E1,-1.291595027E-2,1.400781423E-1,7.190322969E-3
2.542915099E1,2.836182900E-2,1.083874628E-1,-7.722939365E-3
2.546963714E1,3.661738336E-2,8.868064731E-2,1.864157850E-3
2.551012250E1,2.263620263E-3,9.533835202E-2,1.997311972E-2
2.555062073E1,-1.691057347E-2,6.471290439E-2,3.808208182E-2
2.559111031E1,-3.901416063E-2,7.350108027E-2,6.444659829E-2
2.563159620E1,-3.635107726E-2,7.190322876E-2,5.326165259E-2
2.567210240E1,1.211702544E-2,4.900071770E-2,2.689713426E-2
2.571262068E1,2.090519853E-2,1.784265228E-2,2.370143496E-2
2.575308823E1,2.796236658E-3,3.621792421E-2,4.553871229E-2
2.579354948E1,-2.836182900E-2,8.069140464E-2,3.914731368E-2
2.583404646E1,-1.318225823E-2,6.684337556E-2,2.583190054E-2
2.587454422E1,1.051917579E-2,1.571218669E-2,2.663082443E-3
2.591501360E1,1.291595027E-2,2.210358530E-2,-5.592473317E-3
2.595550849E1,8.122402243E-3,2.130465955E-2,-6.657706574E-3
2.599600412E1,1.291595027E-2,1.757634431E-2,-1.358172111E-2
2.603651542E1,1.478010789E-2,-1.944050193E-2,-1.571218669E-2
2.607702328E1,1.824211515E-2,-4.101147130E-2,3.195699072E-3
2.611743505E1,-1.331541280E-4,-5.432688445E-2,2.157096937E-2
2.615792391E1,-1.557903271E-2,-2.689713426E-2,1.464695390E-2
2.619841505E1,-1.691057347E-2,9.587096982E-3,2.023942769E-2
2.623892964E1,-9.720250964E-3,7.456631400E-3,1.358172111E-2
2.627942646E1,1.331541280E-4,-1.651111245E-2,3.994623665E-3
2.631990912E1,1.198387123E-3,8.255556226E-3,6.125089712E-3
2.636039193E1,-2.263620263E-3,4.793548491E-3,-1.331541222E-3
2.640089214E1,1.424749196E-2,1.597849536E-3,-4.260932095E-3
2.644138182E1,1.464695437E-3,-4.260932095E-3,9.587096982E-3
2.648190151E1,-4.660394508E-3,3.355484083E-2,1.864157850E-3
2.652238880E1,5.991935730E-3,1.571218669E-2,-1.065233024E-3
2.656285865E1,4.394086078E-3,7.989247330E-3,-9.054481052E-3
2.660333307E1,-8.655018173E-3,1.198387146E-2,9.587096982E-3
2.664383245E1,-1.158440951E-2,-1.331541222E-3,5.059856921E-3
2.668431516E1,-7.323476952E-3,-9.054481052E-3,4.527240526E-3
2.672485073E1,-1.158440951E-2,-1.624480449E-2,5.858781748E-3
2.676532792E1,-1.531272475E-2,-2.929390874E-3,8.788172156E-3
2.680581813E1,-9.986559860E-3,2.849498391E-2,3.195699072E-3
2.684631875E1,-2.529928461E-3,1.358172111E-2,-5.059856921E-3
2.688678391E1,9.187635034E-3,-2.929390874E-3,-3.994623665E-3
2.692722172E1,-2.796236658E-3,6.125089712E-3,7.722939365E-3
2.696769787E1,-2.090519853E-2,1.784265228E-2,2.263620123E-2
2.700818750E1,-1.185071748E-2,-4.793548491E-3,1.970681176E-2
2.704873500E1,1.637795754E-2,-1.358172111E-2,-4.527240526E-3
2.708920052E1,2.010627277E-2,-3.355484083E-2,-1.011971384E-2
2.712967391E1,-5.725627299E-3,-7.190322969E-3,6.125089712E-3
2.717019896E1,-4.114462435E-2,2.290250920E-2,1.917419396E-2
2.721070495E1,-3.155753016E-2,2.716344222E-2,1.011971384E-2
2.725118078E1,-8.122402243E-3,6.924014539E-3,-3.728315700E-3
2.729166938E1,3.062544856E-3,-9.587096982E-3,5.059856921E-3
2.733218115E1,-1.158440951E-2,2.769605815E-2,1.597849466E-2
2.737262000E1,-1.158440951E-2,5.059856921E-2,2.423405088E-2
2.741312396E1,-8.388710208E-3,3.888100386E-2,1.784265228E-2
2.745360776E1,1.211702544E-2,6.391398143E-3,1.597849466E-2
2.749413901E1,1.744319126E-2,-3.195698932E-2,2.796236612E-2
2.753464500E1,8.921326138E-3,-5.539211631E-2,4.154408723E-2
2.757508979E1,-5.193010904E-3,-3.728315607E-2,4.580501840E-2
2.761557917E1,-3.635107726E-2,-3.062544949E-2,6.444659829E-2
2.765612787E1,-5.392742157E-2,-1.731003635E-2,6.631075591E-2
2.769661688E1,-4.513924941E-2,-5.326165119E-4,5.912043154E-2
2.773702219E1,-1.877473295E-2,7.989247679E-4,4.127778113E-2
2.777751250E1,6.524552125E-3,-6.391398143E-3,1.384802908E-2
2.781801724E1,2.729659714E-2,-1.544587873E-2,5.326165119E-4
2.785850761E1,1.930734888E-2,-3.888100386E-2,-5.326165119E-4
2.789899797E1,5.991935730E-3,-1.384802908E-2,-3.994623665E-3
2.793950120E1,9.453942999E-3,2.663082629E-2,-9.587096982E-3
2.797998469E1,9.187635034E-3,1.651111245E-2,-4.793548491E-3
2.802051860E1,9.187635034E-3,7.989247679E-4,1.331541222E-3
2.806098328E1,1.078548469E-2,-5.858781748E-3,1.597849536E-3
2.810144818E1,9.453942999E-3,-2.396774245E-3,0.000000000E0
2.814193860E1,9.187635034E-3,5.326164886E-3,-4.260932095E-3
2.818244599E1,9.720250964E-3,3.462007269E-3,-9.587096982E-3
2.822293766E1,1.731003635E-3,7.190322969E-3,-6.391398143E-3
2.826342182E1,-1.331541280E-4,1.011971384E-2,-4.260932095E-3
2.830391823E1,2.529928461E-3,-5.592473317E-3,-1.065233024E-3
2.834440172E1,6.258244161E-3,-1.571218669E-2,3.728315700E-3
2.838485167E1,-6.790860556E-3,-1.464695390E-2,1.331541222E-3
2.842536438E1,-1.371487509E-2,-2.663082560E-4,2.663082560E-4
2.846587834E1,-1.331541280E-4,1.145125460E-2,8.255556226E-3
2.850644214E1,1.451379992E-2,-2.103835158E-2,5.592473317E-3
2.854690037E1,2.969337068E-2,-4.127778113E-2,-3.994623665E-3
2.858728787E1,3.715000302E-2,-3.408745676E-2,-8.521864191E-3
2.862777172E1,1.983996481E-2,-2.050573565E-2,-1.011971384E-2
2.866826125E1,-6.790860556E-3,1.810896210E-2,-1.331541222E-3
2.870876641E1,-1.158440951E-2,2.902759984E-2,-2.929390874E-3
2.874929834E1,5.193010904E-3,2.929390874E-3,-1.038602181E-2
2.878980365E1,2.303566411E-2,-1.411433797E-2,-1.731003635E-2
2.883028422E1,2.223674022E-2,-1.198387146E-2,-1.997311972E-2
2.887078125E1,5.991935730E-3,1.225017942E-2,-1.890788600E-2
2.891126719E1,-7.323476952E-3,2.876129188E-2,-8.788172156E-3
2.895176292E1,-9.187635034E-3,2.583190054E-2,1.597849536E-3
2.899224234E1,-3.994623839E-4,2.663082443E-3,3.462007269E-3
2.903275927E1,8.655018173E-3,-9.853405878E-3,-4.260932095E-3
2.907321500E1,5.459319334E-3,-4.527240526E-3,-3.994623665E-3
2.911368813E1,-1.731003635E-3,2.663082560E-4,-2.663082560E-4
2.915419068E1,-2.263620263E-3,-1.065233024E-3,3.462007269E-3
2.919469490E1,3.994623839E-4,-3.728315700E-3,2.929390874E-3
2.923515667E1,3.062544856E-3,-3.462007269E-3,2.663082560E-4
2.927566500E1,4.127778113E-3,-5.858781748E-3,-2.663082560E-4
2.931621297E1,5.991935730E-3,-6.924014539E-3,-1.864157850E-3
2.935667016E1,1.331541280E-4,-5.858781748E-3,-1.065233024E-3
2.939712219E1,-4.394086078E-3,7.722939365E-3,-2.663082560E-4
2.943760834E1,-3.328853287E-3,6.657706574E-3,2.929390874E-3
2.947809146E1,-6.657706108E-4,-2.130466048E-3,1.065233024E-3
2.951860167E1,9.320789250E-4,-2.663082443E-3,5.326165119E-4
2.955910042E1,5.193010904E-3,1.597849536E-3,-1.597849536E-3
2.959959396E1,7.856093347E-3,-1.704372838E-2,0.000000000E0
2.964004260E1,1.997311832E-3,-2.343512699E-2,4.527240526E-3
2.968056740E1,-8.921326138E-3,-1.011971384E-2,8.521864191E-3
2.972104886E1,-1.078548469E-2,5.326165119E-4,7.722939365E-3
2.976152667E1,-3.595161485E-3,5.326164886E-3,5.059856921E-3
2.980203927E1,1.331541280E-4,6.125089712E-3,7.722939365E-3
2.984252745E1,8.921326138E-3,1.198387146E-2,4.527240526E-3
2.988301047E1,-3.595161485E-3,6.391398143E-3,2.663082443E-3
2.992352802E1,-6.258244161E-3,3.275591508E-2,1.198387146E-2
2.996402886E1,-9.986559860E-3,3.675054014E-2,4.260932095E-3
3.000452255E1,-1.371487509E-2,1.331541315E-2,-1.837527007E-2
3.004497386E1,-4.394086078E-3,2.236989327E-2,-2.023942769E-2
3.008545714E1,-1.464695437E-3,4.473978654E-2,-3.728315607E-2
3.012595354E1,3.235645220E-2,1.091863867E-2,-4.953333735E-2
3.016641182E1,5.472634733E-2,-4.287562892E-2,-4.553871229E-2
3.020690604E1,6.031882018E-2,-7.376738638E-2,-4.900071770E-2
3.024739391E1,3.715000302E-2,-5.645735189E-2,-4.074516147E-2
3.028788334E1,3.861469682E-3,-2.210358530E-2,-1.651111245E-2
3.032838943E1,-2.623136342E-2,-2.157096937E-2,1.011971384E-2
3.036885443E1,-4.726971686E-2,-1.864157803E-2,3.648423031E-2
3.040935891E1,-5.419373140E-2,7.989247679E-4,4.873441160E-2
3.044985209E1,-4.833494872E-2,2.689713426E-2,3.222329915E-2
3.049035912E1,-3.794892505E-2,6.418029219E-2,2.822867595E-2
3.053083271E1,-1.930734888E-2,5.858781561E-2,1.810896210E-2
3.057138026E1,-8.921326138E-3,3.595161438E-2,6.657706574E-3
3.061182969E1,3.861469682E-3,1.331541315E-2,1.704372838E-2
3.065233208E1,-9.320789250E-4,-2.450035885E-2,1.624480449E-2
3.069281427E1,-6.790860556E-3,-2.663082629E-2,1.970681176E-2
3.073330490E1,-2.529928461E-3,-1.597849466E-2,1.597849466E-2
3.077378360E1,1.291595027E-2,-1.411433797E-2,-7.989247330E-3
3.081427698E1,1.051917579E-2,-1.704372838E-2,-2.263620123E-2
3.085477854E1,-1.464695437E-3,2.157096937E-2,-1.171756350E-2
3.089523172E1,-2.250304818E-2,3.275591508E-2,2.130466048E-3
3.093574271E1,-1.691057347E-2,3.515268862E-2,6.391398143E-3
3.097624172E1,3.595161485E-3,7.456631400E-3,-2.663082560E-4
3.101677224E1,1.957365684E-2,-2.689713426E-2,-1.384802908E-2
3.105726188E1,1.770949923E-2,-1.358172111E-2,-7.722939365E-3
3.109767057E1,7.323476952E-3,-7.456631400E-3,-3.728315700E-3
3.113816016E1,1.331541280E-4,-8.521864191E-3,-2.663082560E-4
3.117864979E1,-3.994623839E-4,1.864157850E-3,1.864157850E-3
3.121917932E1,-1.198387123E-3,-5.326164886E-3,-2.663082560E-4
3.125968000E1,-1.464695437E-3,-2.663082560E-4,-2.396774245E-3
3.130015031E1,-4.127778113E-3,1.145125460E-2,-1.331541222E-3
3.134062828E1,-3.861469682E-3,8.788172156E-3,2.663082560E-4
3.138110485E1,-3.994623839E-4,3.994623665E-3,-5.059856921E-3
3.142161089E1,8.921326138E-3,-6.391398143E-3,-5.858781748E-3
3.146215240E1,3.861469682E-3,-2.583190054E-2,-5.326165119E-4
3.150260505E1,-9.720250964E-3,1.304910425E-2,1.864157850E-3
3.154311292E1,-1.185071748E-2,1.438064594E-2,-4.527240526E-3
3.158357646E1,-6.657706108E-4,9.054481052E-3,-1.331541315E-2
3.162407698E1,1.078548469E-2,-4.260932095E-3,-7.989247330E-3
3.166455156E1,6.524552125E-3,-9.320789017E-3,-4.527240526E-3
3.170504396E1,2.263620263E-3,5.592473317E-3,-5.858781748E-3
3.174554005E1,-4.660394508E-3,1.038602181E-2,-2.396774245E-3
3.178605750E1,-4.394086078E-3,3.462007269E-3,7.989247679E-4
3.182656391E1,-2.263620263E-3,5.326165119E-4,5.326165119E-4
3.186695813E1,-1.198387123E-3,-2.396774245E-3,0.000000000E0
3.190744787E1,1.198387123E-3,-2.396774245E-3,2.663082443E-3
3.194793625E1,4.127778113E-3,-3.462007269E-3,2.663082443E-3
3.198846662E1,-2.489982173E-2,-5.752258375E-2,-5.272903293E-2
3.202895417E1,6.790860556E-3,1.438064594E-2,1.651111245E-2
3.206944188E1,9.320789250E-4,5.272903293E-2,2.316881903E-2
3.210992818E1,9.320789250E-4,-4.660394415E-2,-2.130465955E-2
3.215044094E1,-8.921326138E-3,2.849498391E-2,-2.050573565E-2
3.219092125E1,5.659050494E-2,2.782921195E-1,9.587096982E-3
3.223139891E1,1.497983932E-1,6.222292185E-1,2.300903350E-1
3.227189510E1,-7.842778414E-2,4.287562966E-1,2.591179311E-1
3.231241307E1,-1.057243794E-1,3.262276053E-1,4.684362113E-1
3.235288703E1,6.271559745E-2,9.374050796E-2,4.708330035E-1
3.239336078E1,9.280842543E-2,8.734910935E-2,5.511249304E-1
3.243385011E1,-4.660394508E-3,1.920082569E-1,4.505935609E-1
3.247435182E1,-3.608476743E-2,-9.320789017E-3,3.363473415E-1
3.251486167E1,-4.407401755E-2,-1.864157803E-2,1.991985738E-1
3.255536297E1,8.122402243E-3,1.517957076E-2,7.776200771E-2
3.259583953E1,8.748225868E-2,-1.075885370E-1,-1.677742042E-2
3.263635354E1,1.615159512E-1,-1.070559174E-1,-4.154408723E-2
3.267684719E1,2.006632686E-1,-5.752258375E-2,-5.885412544E-2
3.271733729E1,1.692388952E-1,-6.844121963E-2,-1.043928340E-1
3.275779979E1,8.615072072E-2,-9.853405505E-2,-9.906667471E-2
3.279823474E1,3.715000302E-2,-1.129147038E-1,-7.057169080E-2
3.283875516E1,1.318225823E-2,-8.947957307E-2,-8.708280325E-2
3.287926047E1,8.561810106E-2,-1.458037645E-1,-1.082543060E-1
3.291973646E1,1.231675670E-1,-1.644453406E-1,-1.154446304E-1
3.296023990E1,7.549838722E-2,-2.017285079E-1,-1.391460598E-1
3.300075162E1,2.796236658E-3,-1.934729517E-1,-1.189066395E-1
3.304120813E1,-1.115831584E-1,-1.110505462E-1,-8.441971987E-2
3.308169974E1,-1.515294015E-1,-8.921326697E-2,-9.906667471E-2
3.312220031E1,-9.267527610E-2,-1.910761744E-1,-1.149120107E-1
3.316267693E1,-7.097115368E-2,-1.282274276E-1,-7.216953486E-2
3.320316537E1,-9.773512930E-2,-3.275591508E-2,-4.420717061E-2
3.324366167E1,-1.126483902E-1,-3.248960897E-2,-4.154408723E-2
3.328416719E1,-1.035939083E-1,-5.379426852E-2,-5.805519968E-2
3.332468417E1,-6.671021879E-2,-5.352795869E-2,-4.394086078E-2
3.336511495E1,-1.717688330E-2,-7.323476672E-2,-6.284874678E-2
3.340561495E1,-1.478010789E-2,-8.441971987E-2,-8.655018359E-2
3.344614172E1,-2.782921307E-2,-5.086487532E-2,-8.202294260E-2
3.348662334E1,-3.794892505E-2,-1.051917598E-1,-1.127815470E-1
3.352705703E1,-1.227681041E-1,-1.609833390E-1,-1.817553788E-1
3.356752531E1,-1.818885356E-1,-1.519288570E-1,-2.075872868E-1
3.360801448E1,-1.949376464E-1,-1.263632625E-1,-2.326202542E-1
3.364856010E1,-1.888125539E-1,-9.453943372E-2,-2.715012729E-1
3.368905604E1,-1.310236603E-1,-9.533835202E-2,-2.536586225E-1
3.372954146E1,-5.099803209E-2,-5.086487532E-2,-1.974675655E-1
3.377003443E1,3.395430371E-2,-1.171756350E-2,-1.591191888E-1
3.381053375E1,1.679073572E-1,6.737598777E-2,-1.322220564E-1
3.385099115E1,2.214353085E-1,9.294158220E-2,-9.613727778E-2
3.389148177E1,1.663095057E-1,1.054580659E-1,-7.776200771E-2
3.393197443E1,2.703028731E-2,1.736329794E-1,-5.752258375E-2
3.397245964E1,-6.457975507E-2,9.959928691E-2,-1.091863867E-2
3.401297464E1,-1.318225861E-1,-5.485950038E-2,1.757634431E-2
3.405345875E1,-1.816222370E-1,-9.134373069E-2,3.781577200E-2
3.409394318E1,-2.346175760E-1,-3.462007269E-2,4.979964346E-2
3.413443276E1,-2.460688353E-1,-4.500609636E-2,4.074516147E-2
3.417491823E1,-2.135792226E-1,-5.219641700E-2,5.672365800E-2
3.421539427E1,-1.523283273E-1,-2.822867595E-2,6.071828306E-2
3.425591234E1,-8.694964647E-2,-2.343512699E-2,3.195698932E-2
3.429642849E1,-2.037258074E-2,7.989247330E-3,2.663082560E-4
3.433685860E1,3.448691964E-2,2.290250920E-2,-1.651111245E-2
3.437732990E1,6.484606117E-2,2.157096937E-2,-2.583190054E-2
3.441783828E1,6.697652489E-2,9.853405878E-3,-2.609820850E-2
3.445832781E1,4.726971686E-2,1.198387146E-2,-1.917419396E-2
3.449885459E1,1.478010789E-2,9.853405878E-3,-6.657706574E-3
3.453935943E1,-1.584534161E-2,1.065233024E-3,1.597849536E-3
3.457982901E1,-3.049229458E-2,-1.038602181E-2,7.722939365E-3
3.462030000E1,-3.235645220E-2,-1.464695390E-2,8.788172156E-3
3.466078943E1,-2.463351376E-2,-1.970681176E-2,6.657706574E-3
3.470129906E1,-1.105179265E-2,-1.651111245E-2,5.858781748E-3
3.474177386E1,6.524552125E-3,-1.251648832E-2,2.396774245E-3
3.478226229E1,1.424749196E-2,-2.663082560E-4,-1.065233024E-3
3.482276599E1,1.504641678E-2,1.065232977E-2,-3.462007269E-3
3.486325932E1,9.986559860E-3,8.521864191E-3,-5.326165119E-4
3.490374875E1,-1.198387123E-3,1.864157850E-3,2.130466048E-3
3.494423162E1,-8.388710208E-3,1.597849536E-3,2.130466048E-3
3.498473172E1,-9.453942999E-3,-1.331541222E-3,1.597849536E-3
3.502525209E1,-5.991935730E-3,-6.924014539E-3,3.195699072E-3
3.506568422E1,6.657706108E-4,0.000000000E0,-7.989247679E-4
3.510623068E1,3.861469682E-3,2.929390874E-3,-1.331541222E-3
3.514672136E1,4.660394508E-3,6.391398143E-3,-4.793548491E-3
3.518711078E1,3.328853287E-3,-3.195699072E-3,-5.326165119E-4
3.522760115E1,-6.657706108E-4,-3.994623665E-3,2.663082443E-3
3.526812453E1,-2.263620263E-3,2.396774245E-3,5.326165119E-4
3.530861610E1,-3.062544856E-3,3.462007269E-3,5.326165119E-4
3.534912719E1,-1.731003635E-3,2.130466048E-3,-1.864157850E-3
3.538963438E1,9.320789250E-4,-4.260932095E-3,0.000000000E0
3.543009047E1,1.997311832E-3,-3.462007269E-3,2.663082560E-4
3.547059068E1,3.595161485E-3,7.989247679E-4,-1.065233024E-3
3.551108380E1,1.464695437E-3,-2.396774245E-3,0.000000000E0
3.555157682E1,-1.464695437E-3,0.000000000E0,-1.331541222E-3
3.559205615E1,1.464695437E-3,-6.924014539E-3,1.065233024E-3
3.563256948E1,3.062544856E-3,-1.331541315E-2,-1.864157850E-3
3.567309271E1,3.062544856E-3,-8.255556226E-3,-3.728315700E-3
3.571358234E1,-1.731003635E-3,3.195699072E-3,-2.130466048E-3
3.575400844E1,-4.660394508E-3,1.145125460E-2,2.929390874E-3
3.579450557E1,-2.263620263E-3,1.544587873E-2,5.592473317E-3
3.583500552E1,2.529928461E-3,9.054481052E-3,1.065233024E-3
3.587548599E1,8.388710208E-3,-2.130466048E-3,-3.462007269E-3
3.591598500E1,5.459319334E-3,-1.278279629E-2,-2.396774245E-3
3.595648000E1,-4.660394508E-3,-1.677742042E-2,2.663082560E-4
3.599694287E1,-1.078548469E-2,-8.788172156E-3,1.864157850E-3
3.603742505E1,-7.323476952E-3,-2.663082443E-3,1.065233024E-3
3.607790594E1,9.320789250E-4,4.793548491E-3,-1.597849536E-3
3.611840146E1,8.388710208E-3,1.038602181E-2,-2.396774245E-3
3.615888938E1,6.524552125E-3,1.171756350E-2,-1.597849536E-3
3.619940901E1,1.464695437E-3,1.304910425E-2,1.597849536E-3
3.623989834E1,-5.193010904E-3,2.130466048E-3,1.597849536E-3
3.628037948E1,-4.394086078E-3,-4.793548491E-3,1.864157850E-3
3.632086959E1,2.263620263E-3,-1.597849466E-2,-2.663082560E-4
3.636135521E1,3.861469682E-3,-1.145125460E-2,-5.592473317E-3
3.640185834E1,9.320789250E-4,3.462007269E-3,-1.864157850E-3
3.644238510E1,3.994623839E-4,5.326164886E-3,1.864157850E-3
3.648289328E1,-1.464695437E-3,5.858781748E-3,3.728315700E-3
3.652335578E1,-6.657706108E-4,4.793548491E-3,2.396774245E-3
3.656382318E1,2.263620263E-3,1.065233024E-3,0.000000000E0
3.660430901E1,3.861469682E-3,-7.190322969E-3,-2.929390874E-3
3.664479677E1,-3.994623839E-4,-8.788172156E-3,-2.663082560E-4
3.668527172E1,-3.328853287E-3,-6.924014539E-3,2.663082560E-4
3.672581537E1,9.320789250E-4,-1.065232977E-2,-2.396774245E-3
3.676631771E1,2.263620263E-3,-1.278279629E-2,-3.195699072E-3
3.680679807E1,-7.589785382E-3,-5.059856921E-3,1.864157850E-3
3.684728709E1,-1.344856713E-2,1.810896210E-2,3.462007269E-3
3.688777604E1,-6.524552125E-3,1.038602181E-2,1.597849536E-3
3.692826500E1,3.062544856E-3,2.663082560E-4,0.000000000E0
3.696871531E1,8.388710208E-3,1.864157850E-3,-1.597849536E-3
3.700925818E1,1.131810062E-2,-1.864157850E-3,-6.125089712E-3
3.704969047E1,5.725627299E-3,-1.145125460E-2,5.326165119E-4
3.709017844E1,-3.994623839E-4,-6.391398143E-3,0.000000000E0
3.713061802E1,-3.861469682E-3,-3.195699072E-3,-7.989247679E-4
3.717117938E1,-3.062544856E-3,5.059856921E-3,2.130466048E-3
3.721164078E1,-4.394086078E-3,5.326164886E-3,3.195699072E-3
3.725212380E1,-1.331541280E-4,8.788172156E-3,1.864157850E-3
3.729264193E1,8.655018173E-3,0.000000000E0,-7.989247679E-4
3.733311104E1,1.131810062E-2,-8.521864191E-3,-4.793548491E-3
3.737360636E1,1.731003635E-3,-4.260932095E-3,-2.130466048E-3
3.741412052E1,-5.725627299E-3,-2.663082560E-4,7.989247679E-4
3.745459563E1,-4.394086078E-3,3.462007269E-3,4.793548491E-3
3.749507281E1,3.994623839E-4,-2.663082560E-4,2.396774245E-3
3.753561990E1,4.394086078E-3,-1.864157850E-3,2.663082560E-4
3.757611078E1,5.193010904E-3,-2.663082560E-4,-1.331541222E-3
3.761663334E1,1.198387123E-3,-2.396774245E-3,2.663082560E-4
3.765699557E1,-1.464695437E-3,-3.728315700E-3,1.331541222E-3
3.769748422E1,-6.657706108E-4,-1.864157850E-3,-7.989247679E-4
3.773797292E1,-1.331541280E-4,-5.326165119E-4,-5.326165119E-4
3.777846162E1,-1.731003635E-3,9.054481052E-3,2.663082560E-4
3.781903104E1,-2.263620263E-3,1.358172111E-2,2.396774245E-3
3.785950344E1,-5.991935730E-3,4.793548491E-3,1.597849536E-3
3.789999214E1,-1.198387123E-3,7.989247679E-4,2.663082443E-3
3.794049000E1,5.459319334E-3,-1.225017942E-2,0.000000000E0
3.798097052E1,6.524552125E-3,-1.331541315E-2,7.989247679E-4
3.802143391E1,-1.331541280E-4,-2.396774245E-3,2.396774245E-3
3.806194349E1,-4.394086078E-3,1.438064594E-2,-1.331541222E-3
3.810242136E1,-1.731003635E-3,9.587096982E-3,2.663082560E-4
3.814291021E1,3.994623839E-4,-1.864157850E-3,1.065233024E-3
3.818341115E1,-6.657706108E-4,-1.011971384E-2,2.929390874E-3
3.822389604E1,9.320789250E-4,-9.320789017E-3,2.929390874E-3
3.826440578E1,1.997311832E-3,-1.597849536E-3,-5.326165119E-4
3.830488490E1,4.926702939E-3,7.989247679E-4,-1.331541222E-3
3.834536787E1,3.062544856E-3,-2.663082560E-4,2.663082560E-4
3.838583125E1,-9.320789250E-4,5.592473317E-3,7.989247679E-4
3.842641625E1,-1.997311832E-3,5.858781748E-3,2.663082560E-4
3.846684068E1,-1.198387123E-3,-3.728315700E-3,1.597849536E-3
3.850732068E1,3.062544856E-3,-3.728315700E-3,0.000000000E0
3.854781026E1,9.320789250E-4,0.000000000E0,-2.663082560E-4
3.858829995E1,3.994623839E-4,3.994623665E-3,-1.597849536E-3
3.862878958E1,1.997311832E-3,-4.527240526E-3,0.000000000E0
3.866929224E1,1.997311832E-3,-2.929390874E-3,2.663082560E-4
3.870980557E1,1.997311832E-3,-2.663082443E-3,1.597849536E-3
3.875028386E1,1.198387123E-3,1.864157850E-3,5.326165119E-4
3.879076104E1,3.994623839E-4,-1.864157850E-3,2.929390874E-3
3.883126755E1,-9.320789250E-4,-1.597849536E-3,2.396774245E-3
3.887178042E1,-6.657706108E-4,-2.663082443E-3,2.130466048E-3
3.891225734E1,1.331541280E-4,-3.728315700E-3,1.065233024E-3
3.895271443E1,3.994623839E-4,-2.663082560E-4,-2.663082560E-4
3.899321313E1,3.994623839E-4,-1.065233024E-3,5.326165119E-4
3.903372948E1,3.994623839E-4,-1.065233024E-3,0.000000000E0
3.907419000E1,3.994623839E-4,-1.597849536E-3,1.597849536E-3
3.911469026E1,9.320789250E-4,-1.864157850E-3,1.065233024E-3
3.915517729E1,1.331541280E-4,5.326165119E-4,1.331541222E-3
3.919567484E1,6.657706108E-4,-1.597849536E-3,1.065233024E-3
3.923619292E1,-9.320789250E-4,1.065233024E-3,2.663082443E-3
3.927666005E1,-6.657706108E-4,2.929390874E-3,2.130466048E-3
3.931710089E1,-1.331541280E-4,1.065233024E-3,1.864157850E-3
3.935759958E1,1.198387123E-3,2.663082560E-4,5.326165119E-4
3.939809823E1,4.127778113E-3,-9.054481052E-3,5.326165119E-4
3.943860219E1,5.193010904E-3,-1.384802908E-2,2.130466048E-3
3.947909641E1,5.991935730E-3,-2.130465955E-2,7.989247679E-4
3.951962162E1,1.731003635E-3,-1.810896210E-2,2.663082443E-3
3.956010255E1,-3.328853287E-3,-1.597849466E-2,5.059856921E-3
3.960055203E1,-1.464695437E-3,-3.994623665E-3,6.391398143E-3
3.964104682E1,2.796236658E-3,-1.065233024E-3,1.331541222E-3
3.968154406E1,2.529928461E-3,3.462007269E-3,-1.597849536E-3
3.972202896E1,-1.464695437E-3,3.462007269E-3,0.000000000E0
3.976251057E1,-3.328853287E-3,1.864157850E-3,1.331541222E-3
3.980300641E1,-3.062544856E-3,-4.527240526E-3,2.929390874E-3
3.984351162E1,-2.796236658E-3,-5.326164886E-3,2.929390874E-3
3.988398313E1,-6.657706108E-4,-2.396774245E-3,2.130466048E-3
3.992447521E1,3.062544856E-3,1.597849536E-3,-2.929390874E-3
3.996496141E1,6.258244161E-3,-2.130466048E-3,-6.125089712E-3
4.000548334E1,3.062544856E-3,-1.065233024E-3,-5.059856921E-3
4.004599219E1,-9.320789250E-4,-5.326164886E-3,5.326165119E-4
4.008648906E1,-6.258244161E-3,-2.663082443E-3,2.396774245E-3
4.012698255E1,-2.796236658E-3,-1.331541222E-3,-5.326165119E-4
4.016747214E1,2.796236658E-3,-3.728315700E-3,-2.130466048E-3
4.020791172E1,2.796236658E-3,4.793548491E-3,-5.059856921E-3
4.024837604E1,-1.731003635E-3,9.853405878E-3,-1.331541222E-3
4.028890078E1,-3.861469682E-3,1.304910425E-2,5.326165119E-4
4.032936984E1,-1.997311832E-3,5.059856921E-3,0.000000000E0
4.036982787E1,1.997311832E-3,3.195699072E-3,-2.130466048E-3
4.041035360E1,5.193010904E-3,-5.326165119E-4,-2.663082443E-3
4.045087052E1,2.796236658E-3,-1.331541222E-3,-3.195699072E-3
4.049135094E1,-2.529928461E-3,1.065233024E-3,-1.065233024E-3
4.053184615E1,-3.595161485E-3,1.864157850E-3,-2.663082560E-4
4.057232068E1,-2.263620263E-3,2.130466048E-3,-2.663082560E-4
4.061281063E1,-6.657706108E-4,2.929390874E-3,0.000000000E0
4.065330047E1,3.328853287E-3,2.929390874E-3,7.989247679E-4
4.069378281E1,5.991935730E-3,1.597849536E-3,-1.331541222E-3
4.073428375E1,3.595161485E-3,4.793548491E-3,-2.663082560E-4
4.077475307E1,-3.328853287E-3,6.657706574E-3,2.663082560E-4
4.081524610E1,-4.127778113E-3,5.858781748E-3,5.326165119E-4
4.085576188E1,9.320789250E-4,-7.722939365E-3,0.000000000E0
4.089624104E1,5.991935730E-3,-5.858781748E-3,-3.728315700E-3
4.093672750E1,4.127778113E-3,0.000000000E0,-1.597849536E-3
4.097721740E1,-3.062544856E-3,6.924014539E-3,1.597849536E-3
4.101770729E1,-7.323476952E-3,7.456631400E-3,8.255556226E-3
4.105819714E1,-3.328853287E-3,1.491326280E-2,4.793548491E-3
4.109866432E1,6.524552125E-3,7.190322969E-3,0.000000000E0
4.113912958E1,1.904104091E-2,-5.326164886E-3,-6.924014539E-3
4.117967886E1,1.637795754E-2,-2.157096937E-2,-8.521864191E-3
4.122019417E1,-3.994623839E-4,-2.396774292E-2,-4.793548491E-3
4.126065224E1,-1.957365684E-2,-2.130466048E-3,5.059856921E-3
4.130116578E1,-2.223674022E-2,1.331541315E-2,8.255556226E-3
4.134161412E1,-3.595161485E-3,2.023942769E-2,4.527240526E-3
4.138207625E1,1.557903271E-2,1.251648832E-2,-3.462007269E-3
4.142262610E1,1.930734888E-2,7.456631400E-3,-8.255556226E-3
4.146309318E1,9.187635034E-3,1.597849536E-3,-6.125089712E-3
4.150359901E1,-3.328853287E-3,-1.011971384E-2,-7.989247679E-4
4.154412021E1,-9.453942999E-3,-1.784265228E-2,5.858781748E-3
4.158458276E1,-6.790860556E-3,-1.491326280E-2,4.793548491E-3
4.162506584E1,1.997311832E-3,-7.989247679E-4,1.331541222E-3
4.166554313E1,5.991935730E-3,7.989247330E-3,-5.326165119E-4
4.170607016E1,5.725627299E-3,1.464695390E-2,-7.989247679E-4
4.174658172E1,1.997311832E-3,1.091863867E-2,-5.326165119E-4
4.178697490E1,-1.997311832E-3,3.195699072E-3,1.597849536E-3
4.182746469E1,-9.320789250E-4,-6.391398143E-3,2.396774245E-3
4.186796787E1,1.331541280E-4,-1.251648832E-2,5.326165119E-4
4.190847615E1,1.464695437E-3,-1.225017942E-2,-1.065233024E-3
4.194897162E1,-1.731003635E-3,-5.326164886E-3,0.000000000E0
4.198946974E1,-3.861469682E-3,-1.331541222E-3,2.130466048E-3
4.202999620E1,1.331541280E-4,4.527240526E-3,2.929390874E-3
4.207046401E1,2.529928461E-3,1.597849536E-3,2.663082560E-4
4.211088266E1,3.328853287E-3,-7.989247679E-4,7.989247679E-4
4.215139104E1,-3.994623839E-4,-2.929390874E-3,-5.326165119E-4
4.219192266E1,-4.127778113E-3,-2.663082443E-3,1.864157850E-3
4.223241188E1,-2.263620263E-3,-8.255556226E-3,3.728315700E-3
4.227288443E1,-1.331541280E-4,-1.331541222E-3,2.130466048E-3
4.231338641E1,4.926702939E-3,2.663082443E-3,-1.331541222E-3
4.235388484E1,6.524552125E-3,3.195699072E-3,-5.326164886E-3
4.239435432E1,3.994623839E-4,2.396774245E-3,-1.597849536E-3
4.243484037E1,-4.127778113E-3,1.065233024E-3,2.130466048E-3
4.247534886E1,-3.595161485E-3,-1.597849536E-3,3.994623665E-3
4.251587714E1,1.997311832E-3,-2.929390874E-3,-1.864157850E-3
4.255637323E1,3.328853287E-3,-2.929390874E-3,-3.728315700E-3
4.259683485E1,1.731003635E-3,1.065233024E-3,-2.663082443E-3
4.263726380E1,-9.320789250E-4,0.000000000E0,-1.331541222E-3
4.267775745E1,-1.731003635E-3,-1.331541222E-3,2.663082560E-4
4.271825474E1,-1.331541280E-4,1.065233024E-3,2.130466048E-3
4.275875115E1,-1.331541280E-4,1.065233024E-3,1.331541222E-3
4.279925922E1,3.861469682E-3,-4.527240526E-3,-5.326165119E-4
4.283975214E1,3.062544856E-3,-4.260932095E-3,-3.728315700E-3
4.288024000E1,-1.331541280E-4,2.663082560E-4,-2.396774245E-3
4.292073854E1,-1.198387123E-3,2.663082443E-3,-2.396774245E-3
4.296122360E1,-6.657706108E-4,4.527240526E-3,-2.663082443E-3
4.300173880E1,2.263620263E-3,3.462007269E-3,-4.260932095E-3
4.304221854E1,3.861469682E-3,5.592473317E-3,-1.597849536E-3
4.308269938E1,-9.320789250E-4,4.260932095E-3,-2.663082560E-4
4.312319110E1,3.994623839E-4,4.793548491E-3,-7.989247679E-4
4.316367568E1,4.660394508E-3,-6.924014539E-3,-6.657706574E-3
4.320416453E1,2.796236658E-3,-8.521864191E-3,-8.788172156E-3
4.324466141E1,-4.660394508E-3,-1.597849536E-3,-2.396774245E-3
4.328514537E1,-9.453942999E-3,2.396774245E-3,2.396774245E-3
4.332561656E1,-1.731003635E-3,1.331541222E-3,1.864157850E-3
4.336609703E1,6.258244161E-3,5.326165119E-4,-5.326165119E-4
4.340662120E1,8.122402243E-3,3.994623665E-3,-1.331541222E-3
4.344712865E1,1.997311832E-3,5.059856921E-3,1.331541222E-3
4.348761917E1,-3.062544856E-3,-2.663082560E-4,1.597849536E-3
4.352805682E1,-5.459319334E-3,-1.145125460E-2,3.728315700E-3
4.356854724E1,-4.394086078E-3,-5.858781748E-3,2.130466048E-3
4.360907646E1,1.464695437E-3,2.663082560E-4,7.989247679E-4
4.364956693E1,5.725627299E-3,-1.864157850E-3,-1.065233024E-3
4.369003302E1,5.725627299E-3,1.331541222E-3,1.065233024E-3
4.373051484E1,1.731003635E-3,2.663082443E-3,7.989247679E-4
4.377104724E1,-3.062544856E-3,-3.994623665E-3,1.597849536E-3
4.381152766E1,-3.062544856E-3,-3.728315700E-3,5.326165119E-4
4.385199255E1,-1.198387123E-3,-3.195699072E-3,-2.663082560E-4
4.389249271E1,3.328853287E-3,-1.331541222E-3,-7.989247679E-4
4.393299474E1,3.861469682E-3,1.331541222E-3,-1.331541222E-3
4.397350896E1,-1.331541280E-4,2.396774245E-3,2.663082443E-3
4.401397745E1,-1.731003635E-3,7.989247679E-4,4.527240526E-3
4.405446537E1,9.320789250E-4,2.396774245E-3,-2.663082443E-3
4.409492610E1,2.796236658E-3,-3.728315700E-3,-2.663082443E-3
4.413541630E1,1.464695437E-3,-2.929390874E-3,-1.065233024E-3
4.417599240E1,-2.263620263E-3,1.597849536E-3,3.195699072E-3
4.421646667E1,3.994623839E-4,-5.059856921E-3,7.989247679E-4
4.425695682E1,1.731003635E-3,-9.054481052E-3,2.130466048E-3
4.429744698E1,-1.731003635E-3,-5.326165119E-4,-7.989247679E-4
4.433787610E1,-1.331541280E-4,2.929390874E-3,5.326165119E-4
4.437835750E1,9.320789250E-4,2.663082560E-4,5.326165119E-4
4.441887245E1,4.394086078E-3,4.793548491E-3,-3.462007269E-3
4.445934281E1,6.524552125E-3,-3.994623665E-3,-1.597849536E-3
4.449983990E1,1.464695437E-3,-6.391398143E-3,2.130466048E-3
4.454034771E1,-4.660394508E-3,-5.326164886E-3,6.125089712E-3
4.458081917E1,-1.997311832E-3,-7.190322969E-3,5.592473317E-3
4.462133448E1,4.926702939E-3,-7.722939365E-3,7.989247679E-4
4.466182104E1,8.122402243E-3,-9.320789017E-3,-2.130466048E-3
4.470229682E1,5.725627299E-3,-7.722939365E-3,-3.994623665E-3
4.474277797E1,2.263620263E-3,-5.059856921E-3,-1.065233024E-3
4.478329693E1,-3.994623839E-4,7.989247679E-4,-2.396774245E-3
4.482377834E1,-3.062544856E-3,4.260932095E-3,-2.929390874E-3
4.486426693E1,-3.328853287E-3,1.091863867E-2,-1.597849536E-3
4.490473016E1,-3.328853287E-3,1.011971384E-2,-1.065233024E-3
4.494530526E1,-1.997311832E-3,1.597849536E-3,0.000000000E0
4.498576880E1,1.331541280E-4,-5.592473317E-3,2.663082443E-3
4.502622766E1,1.198387123E-3,-7.456631400E-3,-5.326165119E-4
4.506676771E1,1.464695437E-3,2.663082560E-4,-2.663082443E-3
4.510716854E1,6.657706108E-4,-3.994623665E-3,1.597849536E-3
4.514765922E1,2.529928461E-3,-5.326165119E-4,3.728315700E-3
4.518813969E1,4.660394508E-3,-5.326165119E-4,-1.331541222E-3
4.522864990E1,9.320789250E-4,2.929390874E-3,-7.989247679E-4
4.526917156E1,-3.062544856E-3,2.130466048E-3,7.989247679E-4
4.530964729E1,-5.459319334E-3,0.000000000E0,3.195699072E-3
4.535012823E1,-3.062544856E-3,-2.396774245E-3,-1.065233024E-3
4.539059927E1,-1.997311832E-3,-2.929390874E-3,2.396774245E-3
4.543109860E1,4.127778113E-3,5.326164886E-3,0.000000000E0
4.547158719E1,9.453942999E-3,1.331541222E-3,-2.396774245E-3
4.551208162E1,7.856093347E-3,-3.994623665E-3,-3.994623665E-3
4.555258047E1,-6.657706108E-4,-5.059856921E-3,5.326165119E-4
4.559308052E1,-4.127778113E-3,-1.597849536E-3,1.065233024E-3
4.563355927E1,-4.127778113E-3,-1.331541222E-3,2.663082443E-3
4.567404776E1,-3.062544856E-3,4.527240526E-3,2.396774245E-3
4.571453807E1,1.997311832E-3,3.462007269E-3,-1.597849536E-3
4.575503990E1,5.725627299E-3,-2.130466048E-3,-1.864157850E-3
4.579554063E1,3.062544856E-3,-2.663082443E-3,-1.864157850E-3
4.583607281E1,1.731003635E-3,-3.462007269E-3,0.000000000E0
4.587654401E1,-6.657706108E-4,-3.462007269E-3,5.326165119E-4
4.591703360E1,-6.657706108E-4,1.331541222E-3,-5.326165119E-4
4.595752328E1,-1.997311832E-3,4.260932095E-3,7.989247679E-4
4.599801542E1,-3.994623839E-4,7.989247679E-4,1.331541222E-3
4.603849578E1,6.657706108E-4,1.065233024E-3,2.663082560E-4
4.607894927E1,2.796236658E-3,-1.065233024E-3,-3.994623665E-3
4.611941063E1,5.725627299E-3,-7.989247330E-3,-3.728315700E-3
4.615992740E1,6.790860556E-3,-2.663082560E-4,-7.989247330E-3
4.620044250E1,1.464695437E-3,1.038602181E-2,-8.521864191E-3
4.624093334E1,-1.025286783E-2,1.810896210E-2,-1.065233024E-3
4.628140891E1,-1.424749196E-2,1.571218669E-2,4.793548491E-3
4.632194302E1,-7.323476952E-3,3.195699072E-3,1.038602181E-2
4.636234932E1,4.394086078E-3,1.331541222E-3,4.793548491E-3
4.640285526E1,1.797580719E-2,-5.326164886E-3,2.929390874E-3
4.644337156E1,2.516612969E-2,-1.917419396E-2,1.597849536E-3
4.648386313E1,1.105179265E-2,-2.663082629E-2,-6.391398143E-3
4.652437448E1,-1.264964230E-2,2.130466048E-3,-1.065232977E-2
4.656484412E1,-2.596505545E-2,9.054481052E-3,7.989247679E-4
4.660532943E1,-1.291595027E-2,2.556559257E-2,-2.663082443E-3
4.664585990E1,1.464695437E-3,1.944050193E-2,-3.994623665E-3
4.668636453E1,5.725627299E-3,-1.597849536E-3,0.000000000E0
4.672681000E1,5.991935730E-3,-6.125089712E-3,2.663082443E-3
4.676727807E1,6.524552125E-3,2.396774245E-3,5.326165119E-4
4.680775688E1,5.459319334E-3,4.527240526E-3,-2.130466048E-3
4.684824099E1,-1.331541280E-4,-7.989247679E-4,-7.989247679E-4
4.688873052E1,-7.856093347E-3,-2.663082560E-4,3.195699072E-3
4.692923490E1,-8.388710208E-3,-1.864157850E-3,4.260932095E-3
4.696973594E1,-2.796236658E-3,-6.657706574E-3,-5.326165119E-4
4.701020432E1,4.660394508E-3,-6.924014539E-3,1.597849536E-3
4.705072276E1,8.655018173E-3,1.864157850E-3,-2.929390874E-3
4.709119823E1,7.057168987E-3,6.657706574E-3,-3.994623665E-3
4.713168776E1,6.657706108E-4,1.065233024E-3,-5.326165119E-4
4.717218479E1,-5.459319334E-3,0.000000000E0,3.195699072E-3
4.721266490E1,-8.388710208E-3,2.663082560E-4,2.929390874E-3
4.725316063E1,-1.464695437E-3,-5.326165119E-4,2.396774245E-3
4.729371834E1,6.258244161E-3,-1.597849536E-3,-7.989247679E-4
4.733415584E1,7.856093347E-3,1.065233024E-3,-7.190322969E-3
4.737463229E1,4.926702939E-3,3.195699072E-3,-3.462007269E-3
4.741511292E1,-2.263620263E-3,-2.130466048E-3,5.326165119E-4
4.745560401E1,-5.725627299E-3,-5.326165119E-4,9.054481052E-3
4.749615141E1,-3.861469682E-3,-3.195699072E-3,5.858781748E-3
4.753663943E1,2.796236658E-3,-2.396774245E-3,-1.331541222E-3
4.757712964E1,5.193010904E-3,-4.527240526E-3,0.000000000E0
4.761761979E1,-3.994623839E-4,-2.929390874E-3,0.000000000E0
4.765802005E1,-1.997311832E-3,-5.059856921E-3,1.331541222E-3
4.769852870E1,-6.657706108E-4,-1.065232977E-2,0.000000000E0
4.773907281E1,2.529928461E-3,-6.391398143E-3,7.989247679E-4
4.777952927E1,9.320789250E-4,2.396774245E-3,-2.663082560E-4
4.782005047E1,6.657706108E-4,4.527240526E-3,2.663082560E-4
4.786050755E1,1.198387123E-3,4.527240526E-3,-1.597849536E-3
4.790099438E1,-3.994623839E-4,1.331541222E-3,-2.663082560E-4
4.794152188E1,-2.263620263E-3,-1.597849536E-3,1.597849536E-3
4.798197443E1,-1.198387123E-3,-5.326165119E-4,1.065233024E-3
4.802251151E1,2.529928461E-3,-5.858781748E-3,5.326165119E-4
4.806295865E1,3.595161485E-3,-3.195699072E-3,-2.663082443E-3
4.810348729E1,1.198387123E-3,7.989247679E-4,-1.065233024E-3
4.814397662E1,-2.796236658E-3,0.000000000E0,2.663082443E-3
4.818443412E1,-3.328853287E-3,-1.065233024E-3,1.864157850E-3
4.822493005E1,-1.198387123E-3,2.929390874E-3,-2.130466048E-3
4.826542755E1,1.464695437E-3,6.924014539E-3,-2.929390874E-3
4.830590604E1,3.595161485E-3,2.929390874E-3,-2.663082443E-3
4.834644344E1,3.062544856E-3,-7.989247679E-4,-1.331541222E-3
4.838686334E1,6.657706108E-4,-1.171756350E-2,-2.663082443E-3
4.842740063E1,3.328853287E-3,-1.225017942E-2,-5.592473317E-3
4.846782537E1,4.660394508E-3,-1.944050193E-2,-5.592473317E-3
4.850831464E1,5.193010904E-3,-1.704372838E-2,-3.462007269E-3
4.854882698E1,4.660394508E-3,2.130466048E-3,-2.929390874E-3
4.858933240E1,3.861469682E-3,1.331541315E-2,-4.260932095E-3
4.862981641E1,-3.595161485E-3,1.544587873E-2,-3.195699072E-3
4.867031235E1,-1.078548469E-2,1.198387146E-2,-7.989247679E-4
4.871081844E1,-1.344856713E-2,2.663082560E-4,1.065233024E-3
4.875131761E1,-1.078548469E-2,-7.190322969E-3,1.864157850E-3
4.879180458E1,-6.524552125E-3,-1.331541315E-2,2.396774245E-3
4.883228005E1,3.595161485E-3,-2.929390874E-3,-1.331541222E-3
4.887276823E1,1.611164957E-2,5.592473317E-3,-7.190322969E-3
4.891325641E1,1.983996481E-2,6.125089712E-3,-6.657706574E-3
4.895376240E1,8.921326138E-3,1.225017942E-2,-5.326164886E-3
4.899425844E1,-4.926702939E-3,1.624480449E-2,-3.728315700E-3
4.903472823E1,-1.557903271E-2,3.728315700E-3,5.059856921E-3
4.907521651E1,-1.770949923E-2,-3.195699072E-3,6.924014539E-3
4.911570964E1,-7.856093347E-3,-7.722939365E-3,1.864157850E-3
4.915621672E1,1.211702544E-2,-1.038602181E-2,-4.793548491E-3
4.919671750E1,1.877473295E-2,-1.864157850E-3,-5.858781748E-3
4.923718438E1,5.193010904E-3,1.251648832E-2,-7.989247679E-4
4.927770208E1,-1.464695437E-3,1.038602181E-2,3.462007269E-3
4.931814880E1,1.464695437E-3,-3.195699072E-3,1.864157850E-3
4.935867198E1,6.657706108E-4,-1.011971384E-2,-1.065233024E-3
4.939915745E1,-2.263620263E-3,-8.521864191E-3,2.663082560E-4
4.943963922E1,-4.660394508E-3,2.663082560E-4,1.864157850E-3
4.948012750E1,1.331541280E-4,2.396774245E-3,7.989247679E-4
4.952061672E1,7.856093347E-3,-1.331541222E-3,0.000000000E0
4.956110584E1,9.986559860E-3,-1.864157850E-3,-1.331541222E-3
4.960159005E1,4.926702939E-3,1.864157850E-3,-1.864157850E-3
4.964209250E1,-6.657706108E-4,-4.260932095E-3,-2.663082560E-4
4.968257646E1,-4.127778113E-3,-1.118494663E-2,2.396774245E-3
4.972305297E1,-2.796236658E-3,-7.989247330E-3,1.065233024E-3
4.976354386E1,-1.331541280E-4,-2.929390874E-3,-2.663082560E-4
4.980404240E1,4.127778113E-3,1.597849536E-3,-1.065233024E-3
4.984453828E1,5.459319334E-3,2.663082443E-3,-1.864157850E-3
4.988501760E1,1.997311832E-3,1.597849536E-3,-2.396774245E-3
4.992551693E1,-9.320789250E-4,-5.326165119E-4,-7.989247679E-4
4.996601667E1,-2.263620263E-3,-5.059856921E-3,2.396774245E-3
5.000652615E1,-9.320789250E-4,-1.331541222E-3,-2.663082560E-4
5.004701849E1,3.994623839E-4,1.331541222E-3,7.989247679E-4
5.008749005E1,3.994623839E-4,3.462007269E-3,-1.597849536E-3
5.012797255E1,2.796236658E-3,-2.663082443E-3,-1.864157850E-3
5.016846234E1,9.320789250E-4,-1.065233024E-3,-1.331541222E-3
5.020892511E1,6.657706108E-4,1.331541222E-3,1.065233024E-3
5.024945063E1,-9.320789250E-4,-1.331541222E-3,1.864157850E-3
5.028992870E1,-1.464695437E-3,2.663082560E-4,2.663082560E-4
5.033041443E1,-1.331541280E-4,-7.989247679E-4,-1.331541222E-3
5.037086396E1,1.464695437E-3,-3.195699072E-3,-2.663082560E-4
5.041139563E1,-1.331541280E-4,-3.195699072E-3,1.331541222E-3
5.045187839E1,-6.657706108E-4,2.663082443E-3,5.326165119E-4
5.049236542E1,-9.320789250E-4,1.065233024E-3,-5.326165119E-4
5.053290271E1,6.657706108E-4,-1.331541222E-3,-5.326165119E-4
5.057334703E1,6.657706108E-4,-5.326164886E-3,7.989247679E-4
5.061383974E1,-1.464695437E-3,-3.994623665E-3,7.989247679E-4
5.065433844E1,-9.320789250E-4,2.130466048E-3,-2.663082560E-4
5.069481406E1,1.464695437E-3,1.331541222E-3,-1.331541222E-3
5.073530719E1,3.861469682E-3,-5.326165119E-4,-2.663082560E-4
5.077585240E1,3.062544856E-3,2.663082560E-4,1.065233024E-3
5.081632485E1,-1.731003635E-3,6.391398143E-3,7.989247679E-4
5.085678057E1,-3.595161485E-3,1.091863867E-2,1.597849536E-3
5.089727464E1,-1.464695437E-3,1.278279629E-2,-2.396774245E-3
5.093773599E1,3.861469682E-3,-6.657706574E-3,-7.989247679E-4
5.097824203E1,5.459319334E-3,-1.517957076E-2,2.130466048E-3
5.101872828E1,2.263620263E-3,-5.858781748E-3,-2.663082560E-4
5.105924141E1,1.331541280E-4,-7.989247679E-4,-7.989247679E-4
5.109973047E1,-2.529928461E-3,1.864157850E-3,2.396774245E-3
5.114017297E1,-2.796236658E-3,2.929390874E-3,3.195699072E-3
5.118069714E1,2.263620263E-3,2.929390874E-3,4.260932095E-3
5.122120094E1,5.459319334E-3,-3.195699072E-3,2.663082443E-3
5.126170537E1,6.258244161E-3,-5.326165119E-4,-1.864157850E-3
5.130219005E1,1.464695437E-3,-6.391398143E-3,-2.929390874E-3
5.134266990E1,-4.127778113E-3,-4.260932095E-3,2.663082560E-4
5.138314906E1,-6.258244161E-3,-4.260932095E-3,1.864157850E-3
5.142363604E1,-1.997311832E-3,-3.728315700E-3,7.989247679E-4
5.146416896E1,5.459319334E-3,-2.663082560E-4,-2.396774245E-3
5.150467667E1,5.193010904E-3,3.994623665E-3,-7.989247679E-4
5.154516870E1,1.464695437E-3,1.091863867E-2,-1.065233024E-3
5.158560964E1,3.994623839E-4,-7.989247679E-4,-1.331541222E-3
5.162609573E1,-1.997311832E-3,-4.527240526E-3,7.989247679E-4
5.166663844E1,-1.997311832E-3,-8.788172156E-3,1.864157850E-3
5.170708245E1,-2.263620263E-3,2.663082560E-4,2.663082560E-4
5.174755719E1,1.464695437E-3,1.597849536E-3,-1.065233024E-3
5.178809604E1,2.796236658E-3,4.527240526E-3,-2.663082560E-4
5.182859084E1,1.997311832E-3,-7.989247679E-4,2.663082560E-4
5.186901354E1,-2.796236658E-3,-3.195699072E-3,-2.396774245E-3
5.190950417E1,-8.122402243E-3,0.000000000E0,-4.527240526E-3
5.194999485E1,-2.995967865E-2,2.476666868E-2,-3.009283356E-2
5.199049880E1,-2.969337068E-2,3.568530455E-2,-2.210358530E-2
5.203098198E1,-4.660394508E-3,-4.633763805E-2,-1.384802908E-2
5.207147703E1,9.187635034E-3,-5.619104207E-2,-3.994623665E-3
5.211197110E1,-1.531272475E-2,-1.384802908E-2,6.924014539E-3
5.215246969E1,-3.209014609E-2,2.742975019E-2,8.255556226E-3
5.219298630E1,-9.986559860E-3,2.876129188E-2,2.663082443E-3
5.223346224E1,1.584534161E-2,-6.391398143E-3,-4.527240526E-3
5.227393151E1,2.436720580E-2,-1.571218669E-2,-4.260932095E-3
5.231442901E1,1.770949923E-2,-3.195699072E-3,-2.396774245E-3
5.235490703E1,1.131810062E-2,8.521864191E-3,-3.195699072E-3
5.239540276E1,5.459319334E-3,1.864157850E-3,-2.929390874E-3
5.243590828E1,-2.796236658E-3,-1.597849536E-3,1.864157850E-3
5.247639203E1,-8.122402243E-3,7.989247330E-3,-1.065233024E-3
5.251687078E1,-5.193010904E-3,-1.065233024E-3,1.065233024E-3
5.255738078E1,-1.997311832E-3,-5.326164886E-3,-5.326165119E-4
5.259786891E1,9.320789250E-4,-3.195699072E-3,0.000000000E0
5.263838901E1,1.997311832E-3,4.260932095E-3,-1.864157850E-3
5.267884078E1,6.258244161E-3,6.391398143E-3,-1.331541222E-3
5.271930729E1,7.589785382E-3,1.597849536E-3,-5.326164886E-3
5.275984276E1,5.991935730E-3,3.462007269E-3,-2.929390874E-3
5.280027479E1,1.731003635E-3,-2.663082560E-4,-7.989247330E-3
5.284079391E1,-2.263620263E-3,-9.054481052E-3,-8.521864191E-3
5.288128099E1,-2.796236658E-3,-1.091863867E-2,-2.130466048E-3
5.292175349E1,-4.394086078E-3,-6.391398143E-3,6.125089712E-3
5.296226386E1,-4.394086078E-3,1.038602181E-2,5.326164886E-3
5.300278432E1,9.320789250E-4,7.989247330E-3,3.195699072E-3
5.304325734E1,6.790860556E-3,7.722939365E-3,1.065233024E-3
5.308375000E1,9.187635034E-3,2.130466048E-3,1.065233024E-3
5.312424698E1,6.790860556E-3,-4.260932095E-3,3.994623665E-3
5.316471625E1,1.464695437E-3,-1.331541222E-3,1.597849536E-3
5.320519917E1,-1.464695437E-3,-3.994623665E-3,1.065233024E-3
5.324569360E1,-3.994623839E-4,-6.391398143E-3,-1.331541222E-3
5.328618724E1,-2.263620263E-3,-8.788172156E-3,1.864157850E-3
5.332667844E1,-1.731003635E-3,-7.456631400E-3,7.989247679E-4
5.336716735E1,2.529928461E-3,-2.130466048E-3,1.065233024E-3
5.340767188E1,3.062544856E-3,-1.065233024E-3,-7.989247679E-4
5.344816787E1,6.657706108E-4,5.592473317E-3,2.663082560E-4
5.348867557E1,-9.320789250E-4,6.924014539E-3,-7.989247679E-4
5.352912016E1,-9.320789250E-4,2.130466048E-3,-1.065233024E-3
5.356961990E1,1.331541280E-4,-3.195699072E-3,1.065233024E-3
5.361009610E1,-6.657706108E-4,-5.059856921E-3,1.065233024E-3
5.365059391E1,6.657706108E-4,-2.396774245E-3,0.000000000E0
5.369108667E1,1.997311832E-3,-4.260932095E-3,-1.065233024E-3
5.373156912E1,3.994623839E-4,2.663082560E-4,-5.326165119E-4
5.377205344E1,-9.320789250E-4,-2.130466048E-3,7.989247679E-4
5.381254573E1,9.320789250E-4,-5.326165119E-4,1.864157850E-3
5.385303250E1,1.997311832E-3,-1.864157850E-3,-2.663082560E-4
5.389352037E1,2.263620263E-3,0.000000000E0,5.326165119E-4
5.393406708E1,2.263620263E-3,-5.592473317E-3,2.663082560E-4
5.397453922E1,-6.657706108E-4,-1.864157850E-3,2.663082443E-3
5.401506682E1,-1.731003635E-3,4.260932095E-3,2.663082560E-4
5.405550412E1,3.994623839E-4,-3.462007269E-3,-1.065233024E-3
5.409599760E1,4.127778113E-3,-4.527240526E-3,1.331541222E-3
5.413648651E1,-3.994623839E-4,5.326165119E-4,7.989247679E-4
5.417697818E1,-1.997311832E-3,0.000000000E0,-2.663082560E-4
5.421744745E1,1.198387123E-3,-1.065233024E-3,3.994623665E-3
5.425791904E1,6.657706108E-4,-1.331541222E-3,4.260932095E-3
5.429847701E1,1.331541280E-4,3.462007269E-3,1.597849536E-3
5.433891409E1,2.263620263E-3,-3.462007269E-3,-2.663082443E-3
5.437941363E1,4.127778113E-3,-1.384802908E-2,1.864157850E-3
5.441990456E1,-1.198387123E-3,-2.663082443E-3,1.331541222E-3
5.446039342E1,-4.394086078E-3,-2.130466048E-3,4.260932095E-3
5.450087274E1,4.127778113E-3,-1.198387146E-2,5.592473317E-3
5.454136738E1,1.424749196E-2,-1.864157803E-2,0.000000000E0
5.458186644E1,1.557903271E-2,-2.183727734E-2,2.663082560E-4
5.462234795E1,5.991935730E-3,-2.210358530E-2,-4.260932095E-3
5.466286607E1,-4.926702939E-3,-8.255556226E-3,3.728315700E-3
5.470332925E1,-7.856093347E-3,-2.396774292E-2,-3.462007269E-3
5.474381993E1,-4.926702939E-3,-2.583190054E-2,-5.592473317E-3
5.478433670E1,-3.861469682E-3,-1.331541315E-2,-9.320789017E-3
5.482479894E1,-1.731003635E-3,-2.663082560E-4,-7.190322969E-3
5.486528962E1,5.991935730E-3,1.278279629E-2,-3.462007269E-3
5.490577842E1,7.589785382E-3,1.198387146E-2,3.994623665E-3
5.494628847E1,9.320789250E-4,2.476666868E-2,3.994623665E-3
5.498673847E1,-1.997311832E-3,1.411433797E-2,-3.462007269E-3
5.502730623E1,-2.263620263E-3,3.728315700E-3,-1.225017942E-2
5.506774930E1,-8.655018173E-3,-6.125089712E-3,-1.198387146E-2
5.510827659E1,-1.051917579E-2,5.059856921E-3,-1.278279629E-2
5.514870279E1,9.320789250E-4,2.796236612E-2,-9.587096982E-3
5.518924633E1,1.318225823E-2,3.062544949E-2,-8.255556226E-3
5.522969003E1,1.611164957E-2,2.423405088E-2,-2.663082443E-3
5.527018748E1,1.131810062E-2,1.704372838E-2,-2.663082560E-4
5.531068238E1,3.994623839E-4,-5.326165119E-4,7.989247679E-4
5.535118342E1,-9.187635034E-3,-8.255556226E-3,3.994623665E-3
5.539167774E1,-1.211702544E-2,-1.304910425E-2,6.657706574E-3
5.543216779E1,-3.861469682E-3,-7.722939365E-3,2.396774245E-3
5.547264498E1,4.926702939E-3,-1.331541222E-3,-1.597849536E-3
5.551316534E1,8.122402243E-3,7.989247330E-3,-3.994623665E-3
5.555366524E1,7.589785382E-3,6.125089712E-3,1.065233024E-3
5.559410873E1,1.464695437E-3,7.989247679E-4,3.994623665E-3
5.563460399E1,-3.328853287E-3,5.592473317E-3,3.462007269E-3
5.567510659E1,-1.464695437E-3,5.326165119E-4,7.989247679E-4
5.571557321E1,1.997311832E-3,-7.190322969E-3,1.597849536E-3
5.575607670E1,1.731003635E-3,-8.521864191E-3,1.065233024E-3
5.579658300E1,3.861469682E-3,-1.544587873E-2,5.592473317E-3
5.583707003E1,1.051917579E-2,-1.251648832E-2,3.195699072E-3
5.587755639E1,1.637795754E-2,-5.059856921E-3,2.130466048E-3
5.591804826E1,1.025286783E-2,-1.065233024E-3,-1.065233024E-3
5.595857488E1,-1.731003635E-3,5.059856921E-3,1.065233024E-3
5.599905696E1,-1.131810062E-2,2.130466048E-3,5.326164886E-3
5.603953993E1,-1.078548469E-2,-8.255556226E-3,2.929390874E-3
5.607997290E1,-1.198387123E-3,-8.255556226E-3,-1.331541222E-3
5.612046248E1,2.796236658E-3,-1.011971384E-2,-7.989247679E-4
5.616095852E1,3.595161485E-3,-3.994623665E-3,-1.597849536E-3
5.620147055E1,1.464695437E-3,-3.728315700E-3,7.989247679E-4
5.624196435E1,-1.464695437E-3,-6.391398143E-3,2.929390874E-3
5.628245852E1,-9.320789250E-4,-6.924014539E-3,4.527240526E-3
5.632293300E1,-3.994623839E-4,-1.145125460E-2,7.190322969E-3
5.636341144E1,2.263620263E-3,-5.059856921E-3,9.054481052E-3
5.640391800E1,8.921326138E-3,1.331541222E-3,8.521864191E-3
5.644440232E1,9.986559860E-3,1.065232977E-2,-1.597849536E-3
5.648488201E1,3.861469682E-3,1.304910425E-2,7.989247679E-4
5.652541545E1,-3.328853287E-3,3.994623665E-3,2.663082560E-4
5.656588196E1,-2.796236658E-3,7.989247330E-3,-3.994623665E-3
5.660634842E1,-5.991935730E-3,-7.989247679E-4,-2.396774245E-3
5.664686217E1,-7.589785382E-3,-3.728315700E-3,2.396774245E-3
5.668734055E1,-4.926702939E-3,-3.994623665E-3,5.858781748E-3
5.672784139E1,5.193010904E-3,-2.396774245E-3,-2.130466048E-3
5.676835144E1,1.078548469E-2,-4.793548491E-3,-4.260932095E-3
5.680881133E1,5.991935730E-3,5.326165119E-4,-1.864157850E-3
5.684933529E1,-3.328853287E-3,3.195699072E-3,1.331541222E-3
5.688985092E1,-5.193010904E-3,-5.326165119E-4,2.663082560E-4
5.693034097E1,-9.320789250E-4,-6.657706574E-3,-7.989247679E-4
5.697079206E1,9.320789250E-4,-4.260932095E-3,-6.924014539E-3
5.701125659E1,4.394086078E-3,2.023942769E-2,-1.677742042E-2
5.705177784E1,3.595161485E-3,8.521864191E-3,-6.924014539E-3
5.709223883E1,9.320789250E-4,-3.195699072E-3,-5.326165119E-4
5.713272889E1,-5.193010904E-3,-8.521864191E-3,2.929390874E-3
5.717324248E1,-2.796236658E-3,-3.728315700E-3,1.065233024E-3
5.721372571E1,2.529928461E-3,-1.597849536E-3,2.663082560E-4
5.725418988E1,2.796236658E-3,7.989247679E-4,1.864157850E-3
5.729469962E1,1.331541280E-4,4.260932095E-3,2.663082443E-3
5.733520685E1,1.198387123E-3,-1.597849536E-3,2.396774245E-3
5.737566102E1,1.731003635E-3,-7.722939365E-3,1.597849536E-3
5.741618024E1,-9.320789250E-4,-6.391398143E-3,2.130466048E-3
5.745667373E1,-1.731003635E-3,1.065233024E-3,-5.326165119E-4
5.749719670E1,6.657706108E-4,-1.864157850E-3,7.989247679E-4
5.753766227E1,9.320789250E-4,2.396774245E-3,-2.663082443E-3
5.757815748E1,3.994623839E-4,1.864157850E-3,0.000000000E0
5.761866165E1,3.994623839E-4,-2.663082560E-4,1.065233024E-3
5.765906935E1,3.328853287E-3,7.989247679E-4,7.989247679E-4
5.769960415E1,9.320789250E-4,1.065233024E-3,-5.326165119E-4
5.774005639E1,-3.994623839E-4,-4.260932095E-3,7.989247679E-4
5.778054607E1,9.320789250E-4,-3.994623665E-3,5.326165119E-4
5.782107514E1,1.331541280E-4,-2.929390874E-3,2.396774245E-3
5.786154654E1,-1.331541280E-4,-1.864157850E-3,0.000000000E0
5.790202644E1,1.464695437E-3,7.989247679E-4,-7.989247679E-4
5.794252717E1,9.320789250E-4,7.989247679E-4,-2.130466048E-3
5.798301383E1,2.796236658E-3,-1.864157850E-3,-7.989247679E-4
5.802355967E1,9.320789250E-4,-4.260932095E-3,2.396774245E-3
5.806402170E1,-1.731003635E-3,-2.663082443E-3,3.462007269E-3
5.810449279E1,-1.198387123E-3,2.130466048E-3,4.793548491E-3
5.814498258E1,1.198387123E-3,-7.989247679E-4,5.326165119E-4
5.818549769E1,1.731003635E-3,-5.326165119E-4,0.000000000E0
5.822597805E1,-1.331541280E-4,-6.391398143E-3,2.130466048E-3
5.826646014E1,-1.731003635E-3,-3.728315700E-3,4.793548491E-3
5.830694498E1,-3.994623839E-4,-2.130466048E-3,1.065233024E-3
5.834745399E1,2.529928461E-3,-3.195699072E-3,2.663082560E-4
5.838794399E1,1.198387123E-3,-1.065233024E-3,-1.065233024E-3
5.842845222E1,-1.198387123E-3,7.989247679E-4,0.000000000E0
5.846893321E1,-6.657706108E-4,1.864157850E-3,0.000000000E0
5.850944170E1,1.198387123E-3,2.396774245E-3,-2.663082443E-3
5.854986675E1,1.198387123E-3,-4.793548491E-3,-2.396774245E-3
5.859039519E1,6.657706108E-4,-3.462007269E-3,2.663082560E-4
5.863082081E1,-1.464695437E-3,-2.929390874E-3,7.989247679E-4
5.867133212E1,-1.198387123E-3,-1.864157850E-3,2.130466048E-3
5.871185456E1,2.263620263E-3,1.065233024E-3,-1.065233024E-3
5.875233253E1,6.657706108E-4,5.059856921E-3,0.000000000E0
5.879283935E1,1.331541280E-4,2.130466048E-3,2.663082560E-4
5.883332889E1,6.657706108E-4,0.000000000E0,1.864157850E-3
5.887381607E1,1.731003635E-3,-2.130466048E-3,-1.331541222E-3
5.891430837E1,2.263620263E-3,-2.663082443E-3,-5.326165119E-4
5.895480404E1,-3.994623839E-4,-2.663082560E-4,1.065233024E-3
5.899531092E1,-3.994623839E-4,-2.663082443E-3,1.597849536E-3
5.903581149E1,9.320789250E-4,-2.130466048E-3,-7.989247679E-4
5.907626732E1,9.320789250E-4,-1.864157850E-3,1.065233024E-3
5.911676555E1,-6.657706108E-4,-1.331541222E-3,-5.326165119E-4
5.915725253E1,-1.331541280E-4,5.326165119E-4,7.989247679E-4
5.919773508E1,3.994623839E-4,-5.326165119E-4,5.326165119E-4
5.923824253E1,1.331541280E-4,-3.462007269E-3,1.597849536E-3
5.927875712E1,3.994623839E-4,-7.989247679E-4,5.326165119E-4
5.931919659E1,6.657706108E-4,-1.597849536E-3,-1.065233024E-3
5.935965467E1,9.320789250E-4,-1.597849536E-3,-5.326165119E-4
5.940020821E1,-1.331541280E-4,-1.065233024E-3,-1.065233024E-3
5.944070665E1,6.657706108E-4,-2.663082560E-4,2.663082560E-4
5.948117951E1,1.331541280E-4,-7.989247679E-4,-5.326165119E-4
5.952164831E1,1.997311832E-3,1.065233024E-3,-2.663082443E-3
5.956214409E1,1.731003635E-3,1.597849536E-3,2.663082560E-4
5.960262545E1,3.994623839E-4,1.331541222E-3,5.326165119E-4
5.964312368E1,2.263620263E-3,2.396774245E-3,-5.326165119E-4
5.968363347E1,1.198387123E-3,-3.462007269E-3,2.130466048E-3
5.972412196E1,3.994623839E-4,-3.195699072E-3,1.597849536E-3
5.976460368E1,-3.994623839E-4,5.326165119E-4,0.000000000E0
5.980508430E1,6.657706108E-4,-1.597849536E-3,5.326165119E-4
5.984557503E1,9.320789250E-4,-5.326165119E-4,2.663082560E-4
5.988606717E1,1.331541280E-4,0.000000000E0,-1.864157850E-3
5.992656967E1,-3.994623839E-4,-7.989247679E-4,2.663082560E-4
5.996707998E1,-9.320789250E-4,-1.597849536E-3,2.663082560E-4
6.000758060E1,1.331541280E-4,7.989247679E-4,-2.663082560E-4
6.004808644E1,6.657706108E-4,0.000000000E0,2.663082560E-4
6.008858956E1,1.198387123E-3,-1.065233024E-3,-7.989247679E-4
6.012908264E1,1.464695437E-3,-2.663082560E-4,-1.065233024E-3
6.016950060E1,-3.994623839E-4,-1.065233024E-3,-1.065233024E-3
6.020996925E1,-6.657706108E-4,-7.989247679E-4,-7.989247679E-4
6.025044852E1,-6.657706108E-4,5.326165119E-4,2.663082560E-4
6.029097602E1,1.464695437E-3,-1.065233024E-3,7.989247679E-4
6.033144899E1,1.997311832E-3,-2.396774245E-3,2.929390874E-3
6.037195102E1,1.331541280E-4,-2.396774245E-3,2.130466048E-3
6.041241883E1,2.263620263E-3,2.663082560E-4,-7.989247679E-4
6.045292894E1,6.657706108E-4,-1.331541222E-3,-1.331541222E-3
6.049342128E1,-1.997311832E-3,5.326165119E-4,-5.326165119E-4
6.053393347E1,-1.198387123E-3,1.065233024E-3,-5.326165119E-4
6.057439550E1,1.997311832E-3,0.000000000E0,-2.929390874E-3
6.061490383E1,2.796236658E-3,1.597849536E-3,-3.728315700E-3
6.065538701E1,-1.331541280E-4,1.065233024E-3,-1.331541222E-3
6.069587899E1,3.994623839E-4,1.065233024E-3,-7.989247679E-4
6.073636191E1,1.331541280E-4,-2.130466048E-3,-2.663082560E-4
6.077685571E1,3.994623839E-4,-2.663082443E-3,1.331541222E-3
6.081734133E1,-9.320789250E-4,-2.663082443E-3,2.663082443E-3
6.085785029E1,4.127778113E-3,-1.331541222E-3,-1.864157850E-3
6.089834071E1,5.193010904E-3,5.326164886E-3,-2.130466048E-3
6.093878639E1,3.994623839E-4,3.195699072E-3,-1.065233024E-3
6.097927680E1,-5.193010904E-3,0.000000000E0,2.663082443E-3
6.101977639E1,-5.193010904E-3,1.864157850E-3,-2.663082443E-3
6.106027988E1,-7.589785382E-3,-2.663082443E-3,5.326165119E-4
6.110074284E1,-4.926702939E-3,-3.994623665E-3,3.728315700E-3
6.114123326E1,1.331541280E-4,3.462007269E-3,2.663082443E-3
6.118177055E1,-4.127778113E-3,9.054481052E-3,-5.326165119E-4
6.122224644E1,-1.105179265E-2,-1.065233024E-3,3.728315700E-3
6.126271717E1,-1.025286783E-2,-3.728315700E-3,8.255556226E-3
6.130322784E1,6.657706108E-4,-3.994623665E-3,-2.130466048E-3
6.134368935E1,1.078548469E-2,-1.065233024E-3,-4.527240526E-3
6.138417883E1,9.720250964E-3,1.864157850E-3,-5.858781748E-3
6.142469633E1,4.127778113E-3,9.320789017E-3,-1.597849536E-3
6.146519571E1,-3.328853287E-3,3.462007269E-3,2.396774245E-3
6.150569467E1,-8.921326138E-3,1.597849536E-3,3.462007269E-3
6.154618519E1,-4.926702939E-3,-6.924014539E-3,2.396774245E-3
6.158663868E1,-1.331541280E-4,-7.722939365E-3,-2.396774245E-3
6.162715368E1,3.994623839E-4,-2.929390874E-3,1.864157850E-3
6.166763441E1,4.394086078E-3,-6.657706574E-3,5.326165119E-4
6.170812357E1,7.057168987E-3,3.728315700E-3,-1.065233024E-3
6.174866488E1,1.997311832E-3,4.527240526E-3,5.326165119E-4
6.178913456E1,3.994623839E-4,6.657706574E-3,3.728315700E-3
6.182965363E1,-3.994623839E-4,3.462007269E-3,-2.663082560E-4
6.187006055E1,1.198387123E-3,-6.125089712E-3,-2.663082443E-3
6.191055909E1,1.997311832E-3,-1.411433797E-2,-1.065233024E-3
6.195106060E1,3.861469682E-3,-9.853405878E-3,-2.663082560E-4
6.199153837E1,-6.657706108E-4,1.864157850E-3,-2.130466048E-3
6.203204113E1,2.796236658E-3,1.704372838E-2,-8.255556226E-3
6.207254316E1,5.193010904E-3,1.411433797E-2,-9.853405878E-3
6.211300389E1,2.263620263E-3,1.597849536E-3,3.462007269E-3
6.215350238E1,-4.926702939E-3,-8.788172156E-3,7.989247330E-3
6.219400665E1,6.657706108E-4,1.864157850E-3,-7.722939365E-3
6.223449571E1,1.464695437E-3,8.255556226E-3,-7.456631400E-3
6.227499581E1,4.127778113E-3,4.260932095E-3,-4.793548491E-3
6.231548899E1,-3.062544856E-3,1.065233024E-3,6.657706574E-3
6.235598576E1,-7.057168987E-3,-4.260932095E-3,7.989247330E-3
6.239643993E1,3.328853287E-3,1.065233024E-3,2.929390874E-3
6.243694467E1,8.388710208E-3,-6.125089712E-3,2.663082443E-3
6.247745154E1,1.331541280E-4,-6.391398143E-3,1.065233024E-3
6.251795415E1,-2.796236658E-3,-3.728315700E-3,2.663082443E-3
6.255845347E1,5.725627299E-3,-1.331541315E-2,-1.065233024E-3
6.259893472E1,5.991935730E-3,-2.663082443E-3,0.000000000E0
6.263938123E1,-3.994623839E-4,-1.038602181E-2,3.462007269E-3
6.267988212E1,6.657706108E-4,-2.396774245E-3,-2.130466048E-3
6.272033451E1,-3.595161485E-3,5.326165119E-4,1.065233024E-3
6.276084425E1,-4.127778113E-3,1.065233024E-3,-2.130466048E-3
6.280134665E1,-3.328853287E-3,8.255556226E-3,4.527240526E-3
6.284185258E1,-2.796236658E-3,1.118494663E-2,1.331541222E-3
6.288235014E1,2.796236658E-3,6.657706574E-3,3.994623665E-3
6.292282915E1,6.258244161E-3,-1.358172111E-2,1.065233024E-3
6.296335847E1,5.991935730E-3,-2.183727734E-2,-5.592473317E-3
6.300385378E1,1.198387123E-3,-1.544587873E-2,-3.994623665E-3
6.304429831E1,-2.263620263E-3,-1.278279629E-2,-2.396774245E-3
6.308477222E1,-5.193010904E-3,1.171756350E-2,-1.331541222E-3
6.312526362E1,-3.328853287E-3,2.796236612E-2,-8.521864191E-3
6.316577055E1,3.328853287E-3,2.503297664E-2,-7.989247330E-3
6.320626107E1,2.263620263E-3,3.994623665E-3,-2.130466048E-3
6.324674566E1,-1.464695437E-3,-3.728315700E-3,-7.989247679E-4
6.328723347E1,1.331541280E-4,-1.091863867E-2,-7.989247679E-4
6.332773019E1,3.062544856E-3,-9.853405878E-3,-4.793548491E-3
6.336822404E1,3.062544856E-3,-2.396774245E-3,-1.065233024E-3
6.340869399E1,1.731003635E-3,5.592473317E-3,-2.663082443E-3
6.344921123E1,1.997311832E-3,3.728315700E-3,-1.065233024E-3
6.348966066E1,-1.331541280E-4,3.728315700E-3,-1.864157850E-3
6.353016243E1,2.529928461E-3,7.989247679E-4,-2.130466048E-3
6.357072784E1,1.198387123E-3,-1.597849536E-3,7.989247679E-4
6.361115847E1,-1.731003635E-3,-1.864157850E-3,-1.597849536E-3
6.365166394E1,1.997311832E-3,-6.125089712E-3,-5.326165119E-4
6.369213873E1,4.394086078E-3,-9.320789017E-3,7.989247679E-4
6.373263488E1,4.926702939E-3,-7.456631400E-3,-1.864157850E-3
6.377313024E1,3.595161485E-3,-6.125089712E-3,-2.130466048E-3
6.381360508E1,3.328853287E-3,-3.728315700E-3,-2.663082443E-3
6.385408076E1,-1.331541280E-4,-1.065233024E-3,1.331541222E-3
6.389457050E1,-5.193010904E-3,1.864157850E-3,7.989247330E-3
6.393508430E1,5.193010904E-3,1.065232977E-2,-5.326165119E-4
6.397562310E1,3.328853287E-3,-2.929390874E-3,-1.864157850E-3
6.401611701E1,2.529928461E-3,-7.190322969E-3,2.929390874E-3
6.405654774E1,3.994623839E-4,-9.587096982E-3,4.793548491E-3
6.409710238E1,-1.997311832E-3,-1.864157850E-3,4.260932095E-3
6.413759212E1,-4.926702939E-3,9.587096982E-3,9.320789017E-3
6.417807477E1,-3.328853287E-3,2.130466048E-3,-1.331541222E-3
6.421853435E1,2.529928461E-3,-1.065233024E-3,-6.391398143E-3
6.425897508E1,3.994623839E-4,-1.864157803E-2,-3.728315700E-3
6.429946488E1,2.529928461E-3,-1.038602181E-2,-9.054481052E-3
6.433998805E1,5.725627299E-3,-1.225017942E-2,-8.255556226E-3
6.438043597E1,7.323476952E-3,-4.260932095E-3,-1.864157850E-3
6.442093420E1,5.193010904E-3,1.597849536E-3,-1.331541222E-3
6.446145576E1,1.464695437E-3,1.970681176E-2,1.331541222E-3
6.450193680E1,-7.589785382E-3,2.663082629E-2,1.864157850E-3
6.454245029E1,-1.318225823E-2,2.450035885E-2,-1.864157850E-3
6.458293717E1,-1.997311832E-3,4.260932095E-3,-2.929390874E-3
6.462347243E1,1.131810062E-2,-1.571218669E-2,-3.728315700E-3
6.466394222E1,1.424749196E-2,-1.304910425E-2,-2.396774245E-3
6.470442206E1,4.394086078E-3,-7.989247679E-4,-4.793548491E-3
6.474491316E1,-1.464695437E-3,6.924014539E-3,-2.396774245E-3
6.478542503E1,-3.595161485E-3,5.326165119E-4,-7.989247679E-4
6.482587300E1,-4.394086078E-3,2.130466048E-3,2.396774245E-3
6.486642560E1,9.320789250E-4,4.527240526E-3,7.989247679E-4
6.490690217E1,2.796236658E-3,-5.326165119E-4,0.000000000E0
6.494737899E1,2.529928461E-3,-3.462007269E-3,5.326165119E-4
6.498784139E1,3.994623839E-4,-3.195699072E-3,-1.065233024E-3
6.502829201E1,-1.331541280E-4,-5.326165119E-4,7.989247679E-4
6.506881842E1,-3.861469682E-3,1.331541222E-3,5.326165119E-4
6.510932378E1,-9.320789250E-4,3.994623665E-3,1.597849536E-3
6.514981826E1,1.731003635E-3,2.663082443E-3,5.326165119E-4
6.519029196E1,7.323476952E-3,2.663082443E-3,-3.195699072E-3
6.523079389E1,5.459319334E-3,5.592473317E-3,-4.527240526E-3
6.527126425E1,-3.062544856E-3,-3.728315700E-3,1.331541222E-3
6.531176967E1,-6.258244161E-3,-5.059856921E-3,2.929390874E-3
6.535227555E1,-1.997311832E-3,-8.255556226E-3,0.000000000E0
6.539274284E1,3.328853287E-3,-6.924014539E-3,-2.663082443E-3
6.543322784E1,4.127778113E-3,3.728315700E-3,-3.462007269E-3
6.547369050E1,1.331541280E-4,6.391398143E-3,-1.331541222E-3
6.551421258E1,-1.464695437E-3,5.059856921E-3,3.728315700E-3
6.555470659E1,1.331541280E-4,-5.592473317E-3,7.989247679E-4
6.559515826E1,2.529928461E-3,-6.657706574E-3,2.663082560E-4
6.563563956E1,1.731003635E-3,-4.527240526E-3,-5.326165119E-4
6.567620425E1,-1.198387123E-3,-3.195699072E-3,-5.326165119E-4
6.571666597E1,-3.062544856E-3,-5.326165119E-4,1.864157850E-3
6.575718383E1,-3.994623839E-4,3.462007269E-3,2.396774245E-3
6.579762883E1,4.127778113E-3,-1.864157850E-3,2.130466048E-3
6.583812024E1,2.529928461E-3,2.130466048E-3,-2.663082443E-3
6.587865264E1,-1.198387123E-3,1.597849536E-3,2.663082560E-4
6.591911722E1,1.331541280E-4,3.195699072E-3,0.000000000E0
6.595962123E1,-2.263620263E-3,-4.260932095E-3,1.864157850E-3
6.600008170E1,-2.796236658E-3,-3.462007269E-3,2.396774245E-3
6.604060399E1,2.529928461E-3,5.326165119E-4,-7.989247679E-4
6.608109399E1,2.796236658E-3,5.326165119E-4,-5.326165119E-4
6.612153128E1,-1.198387123E-3,3.195699072E-3,1.597849536E-3
6.616204363E1,-1.198387123E-3,2.130466048E-3,1.597849536E-3
6.620257019E1,-1.198387123E-3,-3.195699072E-3,1.065233024E-3
6.624305305E1,1.331541280E-4,-4.793548491E-3,5.326165119E-4
6.628352467E1,2.263620263E-3,-2.929390874E-3,-1.065233024E-3
6.632399847E1,2.529928461E-3,-1.331541222E-3,-1.597849536E-3
6.636453566E1,1.198387123E-3,-7.989247679E-4,-5.326165119E-4
6.640497581E1,1.331541280E-4,-2.130466048E-3,7.989247679E-4
6.644549040E1,-1.331541280E-4,-2.396774245E-3,1.331541222E-3
6.648599586E1,-1.331541280E-4,0.000000000E0,-2.663082560E-4
6.652650295E1,1.731003635E-3,1.331541222E-3,-1.331541222E-3
6.656696774E1,4.127778113E-3,-3.462007269E-3,-7.989247679E-4
6.660746331E1,6.524552125E-3,-1.597849536E-3,-5.059856921E-3
6.664794852E1,1.731003635E-3,3.195699072E-3,-2.929390874E-3
6.668843613E1,-3.861469682E-3,8.255556226E-3,-3.994623665E-3
6.672893722E1,-1.051917579E-2,-3.462007269E-3,5.326164886E-3
6.676942472E1,-1.264964230E-2,2.663082560E-4,5.326164886E-3
6.680992087E1,-6.524552125E-3,3.728315700E-3,4.260932095E-3
6.685037305E1,8.921326138E-3,2.396774245E-3,-1.065233024E-3
6.689092972E1,1.398118306E-2,-3.994623665E-3,-6.125089712E-3
6.693137362E1,8.122402243E-3,-3.728315700E-3,-7.989247679E-4
6.697187967E1,-6.657706108E-4,-3.994623665E-3,-7.989247679E-4
6.701237279E1,-4.127778113E-3,-2.396774245E-3,2.929390874E-3
6.705286034E1,-5.725627299E-3,-5.858781748E-3,4.793548491E-3
6.709332503E1,-3.861469682E-3,-1.011971384E-2,2.396774245E-3
6.713379087E1,-6.657706108E-4,-8.788172156E-3,1.597849536E-3
6.717433826E1,4.394086078E-3,-6.125089712E-3,1.864157850E-3
6.721481962E1,7.589785382E-3,-3.462007269E-3,7.989247679E-4
6.725528545E1,5.725627299E-3,-3.195699072E-3,-2.130466048E-3
6.729578326E1,3.994623839E-4,-5.326165119E-4,-2.396774245E-3
6.733628493E1,-2.529928461E-3,-3.728315700E-3,2.929390874E-3
6.737676550E1,-2.529928461E-3,2.130466048E-3,1.864157850E-3
6.741725488E1,1.731003635E-3,2.663082560E-4,4.260932095E-3
6.745775618E1,5.459319334E-3,3.728315700E-3,-2.663082560E-4
6.749822826E1,3.994623839E-4,4.793548491E-3,2.663082560E-4
6.753869336E1,-1.331541280E-4,-3.195699072E-3,1.331541222E-3
6.757923029E1,9.320789250E-4,-6.125089712E-3,0.000000000E0
6.761972092E1,-3.994623839E-4,-9.587096982E-3,0.000000000E0
6.766016555E1,-6.657706108E-4,-6.125089712E-3,-2.929390874E-3
6.770068842E1,1.997311832E-3,-1.597849536E-3,-1.331541222E-3
6.774118826E1,3.994623839E-4,-3.462007269E-3,2.663082560E-4
6.778167941E1,1.331541280E-4,4.527240526E-3,5.592473317E-3
6.782217191E1,-9.320789250E-4,1.864157803E-2,6.391398143E-3
6.786265988E1,6.524552125E-3,4.580501840E-2,-5.858781748E-3
6.790311592E1,1.211702544E-2,2.263620123E-2,-3.302222490E-2
6.794359665E1,-1.997311832E-3,-5.885412544E-2,-1.038602181E-2
6.798408310E1,-1.557903271E-2,-5.539211631E-2,1.997311972E-2
6.802459920E1,-2.489982173E-2,-2.742975019E-2,2.290250920E-2
6.806507727E1,-8.921326138E-3,2.423405088E-2,4.527240526E-3
6.810557738E1,1.451379992E-2,4.633763805E-2,-4.793548491E-3
6.814607915E1,3.768261895E-2,3.834838793E-2,-7.989247330E-3
6.818655118E1,3.049229458E-2,2.130466048E-3,-1.171756350E-2
6.822703805E1,-6.524552125E-3,6.391398143E-3,5.858781748E-3
6.826752941E1,-2.410089783E-2,-1.065233024E-3,2.023942769E-2
6.830804336E1,-1.131810062E-2,-2.609820850E-2,2.663082443E-3
6.834854389E1,-1.078548469E-2,-3.994623944E-2,-5.858781748E-3
6.838902857E1,-1.371487509E-2,-2.263620123E-2,-1.065233024E-3
6.842950909E1,9.320789250E-4,-4.527240526E-3,5.326165119E-4
6.847000805E1,1.717688330E-2,1.784265228E-2,-3.994623665E-3
6.851050191E1,1.983996481E-2,3.515268862E-2,-6.924014539E-3
6.855099279E1,1.344856713E-2,2.609820850E-2,-1.225017942E-2
6.859148618E1,6.657706108E-4,-1.597849536E-3,-5.326164886E-3
6.863198243E1,-1.877473295E-2,-2.050573565E-2,9.587096982E-3
6.867246019E1,-2.170412242E-2,-1.651111245E-2,1.118494663E-2
6.871294133E1,-6.790860556E-3,6.391398143E-3,-1.038602181E-2
6.875342482E1,8.122402243E-3,0.000000000E0,-1.171756350E-2
6.879394123E1,9.720250964E-3,1.784265228E-2,-1.198387146E-2
6.883444425E1,2.529928461E-3,1.970681176E-2,-1.597849536E-3
6.887493347E1,-3.994623839E-4,5.059856921E-3,3.462007269E-3
6.891539514E1,9.320789250E-4,-9.853405878E-3,5.326164886E-3
6.895589342E1,2.529928461E-3,-1.517957076E-2,5.326165119E-4
6.899637102E1,-6.657706108E-4,-6.924014539E-3,-5.326165119E-4
6.903686904E1,-1.731003635E-3,5.858781748E-3,7.989247679E-4
6.907737076E1,-1.731003635E-3,2.929390874E-3,2.396774245E-3
6.911785628E1,3.994623839E-4,7.989247679E-4,2.663082560E-4
6.915835357E1,5.193010904E-3,-5.326165119E-4,2.663082560E-4
6.919883904E1,3.328853287E-3,-2.130466048E-3,7.989247679E-4
6.923933347E1,-2.263620263E-3,-2.663082560E-4,1.331541222E-3
6.927981889E1,-3.861469682E-3,-3.728315700E-3,5.326165119E-4
6.932030951E1,-1.198387123E-3,-7.722939365E-3,-2.663082560E-4
6.936079654E1,1.997311832E-3,-5.326164886E-3,1.597849536E-3
6.940125279E1,2.796236658E-3,7.989247679E-4,5.326165119E-4
6.944174555E1,2.263620263E-3,6.125089712E-3,1.065233024E-3
6.948227185E1,1.731003635E-3,1.597849536E-3,1.597849536E-3
6.952276133E1,-2.796236658E-3,-7.989247679E-4,1.331541222E-3
6.956322795E1,-1.198387123E-3,-5.858781748E-3,1.864157850E-3
6.960372701E1,-1.198387123E-3,-5.592473317E-3,7.989247679E-4
6.964420586E1,1.997311832E-3,-1.065233024E-3,-5.326165119E-4
6.968469310E1,3.328853287E-3,-3.728315700E-3,5.326165119E-4
6.972521743E1,1.997311832E-3,2.929390874E-3,-5.326165119E-4
6.976570738E1,9.320789250E-4,2.663082443E-3,0.000000000E0
6.980614956E1,1.464695437E-3,-1.864157850E-3,7.989247679E-4
6.984666862E1,-1.731003635E-3,-4.260932095E-3,1.597849536E-3
6.988720810E1,-1.997311832E-3,-3.728315700E-3,-2.663082560E-4
6.992765727E1,-9.320789250E-4,-1.864157850E-3,-2.663082560E-4
6.996815477E1,3.994623839E-4,-7.989247679E-4,-1.597849536E-3
7.000857467E1,1.731003635E-3,2.130466048E-3,-1.864157850E-3
7.004913394E1,1.198387123E-3,1.864157850E-3,-7.989247679E-4
7.008962034E1,3.994623839E-4,2.663082560E-4,-2.396774245E-3
7.013003685E1,-1.198387123E-3,2.663082560E-4,-5.326165119E-4
7.017060253E1,-1.464695437E-3,-7.989247679E-4,-7.989247679E-4
7.021106123E1,-3.994623839E-4,1.597849536E-3,-1.331541222E-3
7.025158618E1,9.320789250E-4,2.663082443E-3,0.000000000E0
7.029207290E1,1.731003635E-3,3.728315700E-3,-1.331541222E-3
7.033256326E1,2.263620263E-3,0.000000000E0,-2.663082560E-4
7.037304612E1,2.529928461E-3,-3.195699072E-3,-2.663082443E-3
7.041352222E1,1.198387123E-3,-2.396774245E-3,-3.994623665E-3
7.045397383E1,-1.331541280E-4,-1.065233024E-3,-5.326165119E-4
7.049449441E1,3.994623839E-4,1.864157850E-3,-5.326165119E-4
7.053498857E1,-3.994623839E-4,3.195699072E-3,7.989247679E-4
7.057547680E1,1.331541280E-4,2.130466048E-3,2.929390874E-3
7.061595362E1,6.657706108E-4,-1.065233024E-3,2.663082443E-3
7.065649534E1,1.331541280E-4,-2.396774245E-3,4.260932095E-3
7.069696826E1,-1.464695437E-3,-3.195699072E-3,3.728315700E-3
7.073742612E1,3.994623839E-4,-3.195699072E-3,4.260932095E-3
7.077792264E1,2.796236658E-3,-6.657706574E-3,7.989247679E-4
7.081842519E1,6.657706108E-4,-1.864157850E-3,7.989247679E-4
7.085894154E1,-1.198387123E-3,-8.788172156E-3,1.331541222E-3
7.089942586E1,1.331541280E-4,-2.396774245E-3,5.326165119E-4
7.093990472E1,1.997311832E-3,3.728315700E-3,-5.326165119E-4
7.098040717E1,1.997311832E-3,1.864157850E-3,2.663082560E-4
7.102089696E1,-9.320789250E-4,2.929390874E-3,-1.597849536E-3
7.106138493E1,-2.263620263E-3,-3.462007269E-3,1.065233024E-3
7.110183993E1,-1.997311832E-3,-1.864157850E-3,7.989247679E-4
7.114231909E1,2.263620263E-3,-1.597849536E-3,5.326165119E-4
7.118284712E1,2.796236658E-3,7.989247679E-4,-1.597849536E-3
7.122331998E1,3.328853287E-3,-3.462007269E-3,-7.989247679E-4
7.126382337E1,9.320789250E-4,-1.864157850E-3,2.396774245E-3
7.130433321E1,-1.198387123E-3,-6.657706574E-3,6.391398143E-3
7.134482498E1,-2.796236658E-3,-5.326164886E-3,2.663082443E-3
7.138529977E1,-1.331541280E-4,2.663082443E-3,-2.396774245E-3
7.142576738E1,8.388710208E-3,5.059856921E-3,-2.396774245E-3
7.146628967E1,6.258244161E-3,2.663082560E-4,-3.994623665E-3
7.150677962E1,-9.320789250E-4,2.396774245E-3,1.864157850E-3
7.154725816E1,-7.856093347E-3,2.130466048E-3,1.331541222E-3
7.158773378E1,-4.127778113E-3,-5.059856921E-3,1.065233024E-3
7.162821717E1,3.328853287E-3,-3.462007269E-3,1.331541222E-3
7.166873409E1,5.725627299E-3,4.260932095E-3,-2.396774245E-3
7.170922493E1,3.595161485E-3,6.391398143E-3,-2.396774245E-3
7.174971956E1,-1.331541280E-4,3.728315700E-3,-1.331541222E-3
7.179021290E1,-1.198387123E-3,-5.326165119E-4,1.065233024E-3
7.183070488E1,-3.861469682E-3,-2.396774245E-3,5.326165119E-4
7.187122555E1,-6.657706108E-4,1.065233024E-3,7.989247679E-4
7.191168581E1,1.198387123E-3,-5.326165119E-4,2.663082560E-4
7.195216894E1,1.731003635E-3,3.728315700E-3,-7.989247679E-4
7.199264212E1,3.062544856E-3,6.657706574E-3,-3.994623665E-3
7.203312743E1,3.328853287E-3,-2.663082560E-4,-1.864157850E-3
7.207362930E1,-6.657706108E-4,-1.065233024E-3,0.000000000E0
7.211406258E1,-2.796236658E-3,3.994623665E-3,5.326165119E-4
7.215457336E1,-1.731003635E-3,-3.195699072E-3,4.260932095E-3
7.219512696E1,2.796236658E-3,2.663082443E-3,-3.994623665E-3
7.223561743E1,2.263620263E-3,1.597849536E-3,-2.130466048E-3
7.227604800E1,1.731003635E-3,2.929390874E-3,-3.994623665E-3
7.231657920E1,-1.997311832E-3,4.793548491E-3,-5.326165119E-4
7.235708383E1,-1.731003635E-3,1.331541222E-3,2.663082560E-4
7.239755362E1,4.926702939E-3,-2.663082560E-4,-5.326165119E-4
7.243804847E1,7.323476952E-3,7.989247679E-4,-5.059856921E-3
7.247854993E1,2.529928461E-3,2.663082560E-4,-6.657706574E-3
7.251904264E1,-1.464695437E-3,-5.059856921E-3,-1.597849536E-3
7.255952654E1,-7.589785382E-3,-3.462007269E-3,8.255556226E-3
7.259998373E1,-5.725627299E-3,-6.125089712E-3,6.924014539E-3
7.264052149E1,4.926702939E-3,1.864157850E-3,3.994623665E-3
7.268098321E1,9.187635034E-3,3.728315700E-3,-2.396774245E-3
7.272148816E1,4.394086078E-3,1.304910425E-2,-4.793548491E-3
7.276197883E1,-4.660394508E-3,5.059856921E-3,1.597849536E-3
7.280247128E1,-6.790860556E-3,-4.793548491E-3,3.195699072E-3
7.284296685E1,-2.529928461E-3,-9.054481052E-3,2.929390874E-3
7.288344618E1,1.198387123E-3,-2.929390874E-3,1.864157850E-3
7.292388159E1,3.062544856E-3,5.326165119E-4,2.663082560E-4
7.296444493E1,2.529928461E-3,1.331541222E-3,-1.331541222E-3
7.300489170E1,-9.320789250E-4,-5.326165119E-4,-2.663082560E-4
7.304541956E1,-1.198387123E-3,-2.130466048E-3,1.597849536E-3
7.308586925E1,-1.198387123E-3,-3.195699072E-3,1.864157850E-3
7.312639722E1,6.657706108E-4,-1.011971384E-2,-2.663082560E-4
7.316687034E1,-3.994623839E-4,-1.837527007E-2,2.929390874E-3
7.320733279E1,5.193010904E-3,-2.769605815E-2,1.145125460E-2
7.324783102E1,6.524552125E-3,-1.864157803E-2,1.864157850E-3
7.328832279E1,2.796236658E-3,-3.728315700E-3,-1.198387146E-2
7.332884836E1,-4.926702939E-3,1.145125460E-2,-3.195699072E-3
7.336930394E1,-1.797580719E-2,1.438064594E-2,4.527240526E-3
7.340977764E1,-2.223674022E-2,9.853405878E-3,7.722939365E-3
7.345030107E1,-1.478010789E-2,2.130466048E-3,1.011971384E-2
7.349080597E1,1.997311832E-3,-8.521864191E-3,2.929390874E-3
7.353129534E1,1.824211515E-2,-1.491326280E-2,-1.331541222E-3
7.357178482E1,2.303566411E-2,-1.145125460E-2,-6.657706574E-3
7.361227837E1,1.318225823E-2,7.989247679E-4,-8.255556226E-3
7.365277977E1,-6.524552125E-3,1.304910425E-2,-1.597849536E-3
7.369322305E1,-1.691057347E-2,1.358172111E-2,3.462007269E-3
7.373372623E1,-1.371487509E-2,2.663082560E-4,4.793548491E-3
7.377422508E1,3.328853287E-3,-1.384802908E-2,0.000000000E0
7.381467618E1,1.131810062E-2,-4.260932095E-3,-5.326165119E-4
7.385520644E1,3.328853287E-3,1.944050193E-2,-1.864157850E-3
7.389566550E1,-6.790860556E-3,2.796236612E-2,-2.663082443E-3
7.393618758E1,-7.589785382E-3,8.521864191E-3,-2.929390874E-3
7.397667753E1,-4.660394508E-3,-1.677742042E-2,-2.663082560E-4
7.401717389E1,9.320789250E-4,-2.023942769E-2,0.000000000E0
7.405766571E1,4.394086078E-3,-3.994623665E-3,-2.130466048E-3
7.409815092E1,7.057168987E-3,1.784265228E-2,-2.663082443E-3
7.413863071E1,7.856093347E-3,2.476666868E-2,-2.663082560E-4
7.417913550E1,5.459319334E-3,1.890788600E-2,-1.065233024E-3
7.421961878E1,-1.997311832E-3,6.391398143E-3,-5.326165119E-4
7.426012034E1,-7.589785382E-3,-3.195699072E-3,-1.331541222E-3
7.430061180E1,-7.323476952E-3,-7.456631400E-3,1.065233024E-3
7.434110441E1,-1.997311832E-3,-3.728315700E-3,2.130466048E-3
7.438159383E1,4.127778113E-3,-5.326165119E-4,0.000000000E0
7.442208675E1,8.388710208E-3,1.331541222E-3,-2.130466048E-3
7.446257680E1,6.524552125E-3,3.728315700E-3,0.000000000E0
7.450305951E1,3.062544856E-3,3.195699072E-3,3.462007269E-3
7.454353024E1,-3.994623839E-4,7.456631400E-3,3.195699072E-3
7.458402248E1,-1.997311832E-3,1.864157850E-3,3.462007269E-3
7.462452982E1,3.062544856E-3,5.059856921E-3,2.663082443E-3
7.466501191E1,7.057168987E-3,-9.320789017E-3,4.260932095E-3
7.470547842E1,1.105179265E-2,-1.651111245E-2,3.462007269E-3
7.474598284E1,1.557903271E-2,-2.636451647E-2,-7.989247679E-4
7.478648076E1,9.986559860E-3,-1.198387146E-2,-2.663082443E-3
7.482698118E1,-9.986559860E-3,2.103835158E-2,4.260932095E-3
7.486748774E1,-1.824211515E-2,4.314193875E-2,6.657706574E-3
7.490796139E1,-5.193010904E-3,2.343512699E-2,-1.065233024E-3
7.494845331E1,1.797580719E-2,-6.391398143E-3,-1.864157850E-3
7.498892597E1,1.637795754E-2,-1.917419396E-2,-6.125089712E-3
7.502942701E1,5.459319334E-3,-9.853405878E-3,-2.396774245E-3
7.506994717E1,-4.394086078E-3,-5.326165119E-4,0.000000000E0
7.511039878E1,-6.524552125E-3,-7.989247679E-4,2.130466048E-3
7.515088279E1,-6.657706108E-4,8.788172156E-3,-1.597849536E-3
7.519137685E1,3.595161485E-3,9.853405878E-3,-7.190322969E-3
7.523185941E1,1.464695437E-3,1.091863867E-2,-5.059856921E-3
7.527236831E1,-2.529928461E-3,5.059856921E-3,-2.396774245E-3
7.531287258E1,1.331541280E-4,-3.994623665E-3,-2.130466048E-3
7.535334618E1,1.997311832E-3,-5.059856921E-3,-3.195699072E-3
7.539384659E1,1.464695437E-3,1.597849536E-3,0.000000000E0
7.543433863E1,3.994623839E-4,7.722939365E-3,0.000000000E0
7.547481659E1,1.331541280E-4,1.331541222E-3,-2.663082560E-4
7.551533170E1,-2.263620263E-3,-1.864157850E-3,0.000000000E0
7.555581331E1,-2.529928461E-3,-5.326164886E-3,-1.331541222E-3
7.559630060E1,-9.187635034E-3,-8.521864191E-3,-1.225017942E-2
7.563680477E1,-1.531272475E-2,-3.195699072E-3,-6.391398143E-3
7.567729086E1,-8.921326138E-3,1.065233024E-3,4.793548491E-3
7.571774107E1,-1.731003635E-3,-2.663082443E-3,-2.663082443E-3
7.575827034E1,1.464695437E-3,7.456631400E-3,-2.929390874E-3
7.579875805E1,3.994623839E-4,0.000000000E0,-5.326165119E-4
7.583924540E1,3.595161485E-3,3.462007269E-3,-3.195699072E-3
7.587974383E1,6.657706108E-4,-1.864157850E-3,1.065233024E-3
7.592020555E1,-2.796236658E-3,-1.331541222E-3,5.326165119E-4
7.596072180E1,-6.657706108E-4,-1.864157850E-3,2.130466048E-3
7.600117446E1,1.464695437E-3,-2.663082560E-4,-1.597849536E-3
7.604169758E1,1.464695437E-3,4.793548491E-3,-1.065233024E-3
7.608218675E1,1.464695437E-3,3.462007269E-3,-7.989247679E-4
7.612260993E1,3.994623839E-4,1.065233024E-3,0.000000000E0
7.616314644E1,-3.994623839E-4,-7.989247679E-4,1.331541222E-3
7.620362727E1,-1.198387123E-3,-2.663082443E-3,1.065233024E-3
7.624411274E1,-1.331541280E-4,-2.130466048E-3,5.326165119E-4
7.628460795E1,6.657706108E-4,5.326165119E-4,-2.663082560E-4
7.632506310E1,-3.994623839E-4,-5.326165119E-4,2.663082560E-4
7.636564988E1,3.994623839E-4,-1.597849536E-3,-5.326165119E-4
7.640609946E1,1.331541280E-4,-4.260932095E-3,-5.326165119E-4
7.644660019E1,-3.994623839E-4,-1.597849536E-3,7.989247679E-4
7.648708857E1,-2.263620263E-3,0.000000000E0,3.462007269E-3
7.652758446E1,3.994623839E-4,2.663082560E-4,1.065233024E-3
7.656803935E1,1.464695437E-3,1.331541222E-3,-2.663082443E-3
7.660857836E1,-1.997311832E-3,1.065233024E-3,-5.326165119E-4
7.664900555E1,-3.994623839E-4,-5.326164886E-3,1.864157850E-3
7.668953227E1,2.796236658E-3,-5.326164886E-3,-2.130466048E-3
7.673003540E1,4.127778113E-3,-4.527240526E-3,-1.065233024E-3
7.677049368E1,1.464695437E-3,3.994623665E-3,-3.462007269E-3
7.681098191E1,-1.464695437E-3,1.864157850E-3,1.065233024E-3
7.685150847E1,-4.660394508E-3,-1.864157850E-3,7.190322969E-3
7.689200680E1,-2.796236658E-3,6.657706574E-3,-1.597849536E-3
7.693247232E1,3.861469682E-3,-6.391398143E-3,1.065233024E-3
7.697294409E1,9.720250964E-3,-1.651111245E-2,-1.065232977E-2
7.701344909E1,-1.131810062E-2,-1.091863867E-2,-4.793548491E-3
7.705396889E1,-1.318225823E-2,5.858781748E-3,6.125089712E-3
7.709441659E1,3.595161485E-3,1.597849536E-3,-2.663082443E-3
7.713488352E1,1.291595027E-2,9.320789017E-3,-8.788172156E-3
7.717539993E1,1.997311832E-3,1.597849466E-2,-4.527240526E-3
7.721592368E1,-1.371487509E-2,2.929390874E-3,3.195699072E-3
7.725641165E1,-2.197043039E-2,-1.278279629E-2,8.521864191E-3
7.729689571E1,-1.770949923E-2,-1.970681176E-2,7.190322969E-3
7.733737196E1,-4.127778113E-3,-1.278279629E-2,1.065233024E-3
7.737781524E1,7.323476952E-3,-1.331541222E-3,-2.396774245E-3
7.741833149E1,1.371487509E-2,1.278279629E-2,-1.864157850E-3
7.745884144E1,1.824211515E-2,2.236989327E-2,-5.592473317E-3
7.749935659E1,8.655018173E-3,1.358172111E-2,-6.657706574E-3
7.753983279E1,-7.856093347E-3,3.462007269E-3,-7.989247679E-4
7.758029951E1,-1.904104091E-2,-3.994623665E-3,7.190322969E-3
7.762079118E1,-1.584534161E-2,-8.255556226E-3,5.592473317E-3
7.766127784E1,-3.328853287E-3,2.663082443E-3,2.663082560E-4
7.770179555E1,6.790860556E-3,1.464695390E-2,-6.391398143E-3
7.774229675E1,9.986559860E-3,1.810896210E-2,-7.190322969E-3
7.778278748E1,5.193010904E-3,7.190322969E-3,-2.929390874E-3
7.782327139E1,-6.657706108E-4,-1.331541222E-3,2.663082560E-4
7.786374618E1,-3.861469682E-3,-2.663082443E-3,1.864157850E-3
7.790426477E1,-5.193010904E-3,1.065233024E-3,1.065233024E-3
7.794474368E1,-4.394086078E-3,2.929390874E-3,-2.663082560E-4
7.798522790E1,-9.320789250E-4,5.592473317E-3,-1.065233024E-3
7.802569029E1,1.464695437E-3,3.462007269E-3,-2.130466048E-3
7.806619441E1,1.997311832E-3,1.597849536E-3,-2.663082443E-3
7.810670618E1,1.997311832E-3,2.130466048E-3,-2.929390874E-3
7.814720488E1,1.731003635E-3,-4.260932095E-3,-1.597849536E-3
7.818767206E1,6.657706108E-4,-2.929390874E-3,-2.130466048E-3
7.822814753E1,-1.464695437E-3,-2.663082560E-4,-1.065233024E-3
7.826865847E1,3.994623839E-4,2.663082560E-4,-3.195699072E-3
7.830916269E1,3.328853287E-3,-3.994623665E-3,-6.391398143E-3
7.834965165E1,5.193010904E-3,-7.190322969E-3,-6.391398143E-3
7.839012175E1,2.529928461E-3,-1.864157850E-3,-6.657706574E-3
7.843060670E1,-1.731003635E-3,5.858781748E-3,-1.331541222E-3
7.847109352E1,-3.595161485E-3,4.260932095E-3,1.065233024E-3
7.851159998E1,-5.193010904E-3,7.722939365E-3,7.989247679E-4
7.855209821E1,-2.529928461E-3,3.195699072E-3,2.396774245E-3
7.859259566E1,2.263620263E-3,1.065233024E-3,2.663082560E-4
7.863309566E1,5.991935730E-3,-5.326165119E-4,-2.663082443E-3
7.867356774E1,1.198387123E-3,-3.994623665E-3,-2.663082443E-3
7.871404248E1,-3.062544856E-3,-7.456631400E-3,-1.864157850E-3
7.875451394E1,-1.731003635E-3,-9.320789017E-3,-5.326165119E-4
7.879502805E1,1.731003635E-3,-5.592473317E-3,1.065233024E-3
7.883551816E1,-9.320789250E-4,6.391398143E-3,5.326165119E-4
7.887605071E1,-9.320789250E-4,1.571218669E-2,2.130466048E-3
7.891651956E1,1.331541280E-4,1.065232977E-2,3.462007269E-3
7.895701602E1,1.331541280E-4,7.456631400E-3,2.929390874E-3
7.899747962E1,-1.731003635E-3,5.326164886E-3,3.728315700E-3
7.903798826E1,9.320789250E-4,2.396774245E-3,2.396774245E-3
7.907844201E1,2.263620263E-3,-2.130466048E-3,1.065233024E-3
7.911894889E1,1.997311832E-3,-4.260932095E-3,-1.597849536E-3
7.915946102E1,-9.320789250E-4,-5.059856921E-3,1.331541222E-3
7.919995342E1,5.725627299E-3,-3.462007269E-3,2.396774245E-3
7.924044508E1,1.131810062E-2,1.331541222E-3,-2.396774245E-3
7.928093488E1,3.062544856E-3,2.929390874E-3,-1.864157850E-3
7.932142185E1,-9.720250964E-3,9.054481052E-3,2.396774245E-3
7.936191206E1,-1.051917579E-2,5.326165119E-4,5.858781748E-3
7.940240659E1,-3.994623839E-4,-7.722939365E-3,1.864157850E-3
7.944289045E1,7.856093347E-3,-7.190322969E-3,-3.728315700E-3
7.948336112E1,9.986559860E-3,-4.527240526E-3,-5.326164886E-3
7.952380326E1,5.459319334E-3,2.130466048E-3,-2.130466048E-3
7.956439816E1,-4.660394508E-3,5.059856921E-3,2.396774245E-3
7.960482680E1,-9.453942999E-3,4.793548491E-3,5.858781748E-3
7.964527435E1,-2.263620263E-3,2.130466048E-3,1.331541222E-3
7.968580644E1,3.861469682E-3,-5.592473317E-3,5.326165119E-4
7.972634420E1,4.127778113E-3,-3.462007269E-3,0.000000000E0
7.976680675E1,9.320789250E-4,-1.065233024E-3,2.396774245E-3
7.980727555E1,-1.464695437E-3,2.663082560E-4,5.326165119E-4
7.984779868E1,-1.731003635E-3,-5.326164886E-3,3.195699072E-3
7.988830040E1,9.320789250E-4,-2.663082560E-4,-1.065233024E-3
7.992876102E1,2.796236658E-3,2.396774245E-3,-1.331541222E-3
7.996927024E1,2.529928461E-3,-5.326165119E-4,5.326165119E-4
8.000976310E1,1.731003635E-3,-2.130466048E-3,3.462007269E-3
8.005025128E1,-6.657706108E-4,2.396774245E-3,-5.326165119E-4
8.009074086E1,-1.997311832E-3,5.326165119E-4,-5.326165119E-4
8.013116816E1,-9.320789250E-4,-3.728315700E-3,-1.864157850E-3
8.017171967E1,6.657706108E-4,-8.255556226E-3,0.000000000E0
8.021221633E1,3.062544856E-3,1.065233024E-3,-2.663082560E-4
8.025270159E1,3.328853287E-3,7.190322969E-3,-7.989247679E-4
8.029318618E1,9.320789250E-4,5.326164886E-3,-1.065233024E-3
8.033366425E1,-1.997311832E-3,3.728315700E-3,1.331541222E-3
8.037414753E1,-3.062544856E-3,-2.929390874E-3,1.597849536E-3
