"Time (s)","Linear Acceleration x (m/s^2)","Linear Acceleration y (m/s^2)","Linear Acceleration z (m/s^2)"
4.769635500E-2,0.000000000E0,0.000000000E0,0.000000000E0
8.818375100E-2,2.081842422E-1,7.846832275E-2,-6.815476418E-1
1.287077620E-1,-8.027074337E-1,2.763195038E-1,-7.917914391E-1
1.691942720E-1,7.831609249E-1,-2.767801285E-1,9.650802612E-2
2.446866160E-1,1.290793896E0,-1.025724411E-1,-3.272213936E-1
2.851939600E-1,4.966807365E-1,2.531499863E-1,-1.144569874E0
3.257294800E-1,-1.795770407E0,-2.196751356E0,3.049199104E0
3.662244800E-1,-1.861114144E0,-1.324219704E-1,3.221095562E0
4.066781260E-1,-1.855127811E0,2.933588028E-1,1.737685204E0
4.471124490E-1,-3.682265878E-1,6.296348572E-2,-7.015218735E-1
4.876699490E-1,2.548854351E-1,-1.755492449E0,-1.709567070E0
5.281242720E-1,9.934374094E-1,-4.468088150E-1,7.636060715E-1
5.686038030E-1,8.214623928E-1,1.194082737E0,8.459005356E-1
6.090947930E-1,-9.873758554E-1,5.278892517E-1,1.722602844E-1
6.496157300E-1,-3.721606731E-1,2.124757767E-1,-2.048330307E-1
6.900738030E-1,-7.469844818E-2,7.454824448E-2,-4.517312050E-1
7.305703660E-1,-1.040425301E0,-1.108007431E-1,-2.853293419E-1
7.710914080E-1,8.263176680E-1,-5.343723297E-2,1.342697144E-1
8.115778140E-1,9.604296684E-1,7.913632393E-1,8.061122894E-1
8.520321370E-1,-1.795158863E0,-2.650856972E-1,5.213103294E-1
8.925422410E-1,-2.823857069E-1,-3.406167030E-1,5.106639862E-2
9.330917200E-1,1.231427431E0,-6.719088554E-1,-1.824822426E0
9.735813030E-1,1.518751383E0,-5.256795883E-1,-2.012051105E0
1.014021772E0,1.409521341E0,-5.569787025E-1,1.680922031E0
1.054477137E0,7.310411930E-1,-7.858829498E-1,-1.616554737E0
1.094989168E0,-5.457017422E-1,5.580306053E-1,1.629610538E0
1.135481564E0,-9.062294364E-1,8.271212578E-1,3.073565483E0
1.176032137E0,-2.133024633E-1,-1.457595825E-1,1.089899063E0
1.216512553E0,1.994625032E-1,-2.014265060E-1,-8.821525574E-1
1.257018543E0,-5.315757990E-1,-5.570263863E-1,2.515125275E-2
1.297437397E0,-7.148836851E-1,-6.765599251E-1,8.343410492E-1
1.337897397E0,-1.056895256E0,-1.317119598E-1,9.071784019E-1
1.378468074E0,1.567018032E-1,2.156987190E0,5.977406502E-1
1.418876928E0,-1.422726274E0,-5.615620613E-1,1.420029163E0
1.459358126E0,-7.756665945E-1,-3.463134766E-1,-1.047920704E0
1.499866460E0,1.037424564E0,-1.049705982E0,-8.680109978E-1
1.540350001E0,9.805276394E-1,-1.830658436E0,1.438776016E0
1.580859897E0,6.470150948E-1,-1.666468620E0,1.826746464E0
1.621335470E0,1.205412149E-1,-2.233508587E0,1.995043755E0
1.661896303E0,1.299990892E0,-1.560281754E0,-1.989364624E-3
1.702277970E0,1.365709305E-2,-2.357320786E-1,-1.309607983E0
1.742796460E0,1.860677958E0,-1.735873222E-1,-1.266870499E0
1.783300887E0,6.317832470E-1,-1.343141556E0,5.723471642E-1
1.823856043E0,2.637150288E-1,-2.044028759E0,2.935996056E-1
1.864335158E0,2.792933941E0,-1.817731857E0,-9.590754509E-1
1.904821199E0,2.188859940E0,-1.772928715E0,-2.227232456E0
1.945257033E0,2.163179874E0,-7.140610218E-1,-4.842760086E0
1.985789637E0,9.779560566E-1,-7.621812820E-2,-4.635272980E0
2.026247033E0,1.167133331E0,6.183154583E-1,-1.944262981E0
2.066705522E0,-6.646049023E-1,1.355715513E0,-5.645446777E-1
2.107163595E0,-2.149784565E0,1.667997122E0,-1.651055336E0
2.147690574E0,-4.189568520E0,1.668218970E0,-2.370296001E0
2.188173387E0,-6.451913357E0,2.212267399E0,-4.414949417E0
2.228672762E0,-2.998187065E0,1.755081654E0,4.872150898E0
2.269180574E0,-6.976246357E0,1.074494839E0,-1.839324474E0
2.309705314E0,-4.894603252E0,7.847901583E-1,4.378674030E0
2.350175783E0,5.859255791E-1,1.098945737E0,5.073979855E0
2.390680574E0,-7.505960464E-1,2.457146406E0,1.861846924E0
2.431126824E0,-2.380299091E0,1.478489518E0,2.517090797E0
2.471598543E0,4.250531197E-1,-1.888494015E0,-5.760202408E0
2.512113178E0,5.301034927E0,4.232914925E0,1.511898041E1
2.552650470E0,1.716298580E0,1.230859756E0,-1.958515644E0
2.593125626E0,4.566435814E-1,3.318989754E0,1.137669086E0
2.633574949E0,-3.246459007E0,2.444672585E-1,2.387678146E0
2.674064272E0,6.637067795E-1,1.089016199E0,4.444861412E-1
2.714537501E0,-1.880556107E0,-6.740095615E-1,1.014053345E0
2.755053803E0,1.746763706E0,-1.014993668E0,-3.768508673E0
2.795581564E0,6.326072693E0,9.952112436E-1,-2.819671631E-1
2.836031928E0,2.181834698E0,-4.117982388E-1,7.183094025E-1
2.876531876E0,-3.039513588E0,-2.739470720E0,-1.614372253E0
2.917012605E0,3.474666595E0,2.187792063E-1,-1.195378304E0
2.957499533E0,3.377790451E-1,-4.110748768E-1,-1.673946381E0
2.998004741E0,-4.873736858E0,-2.938475847E0,-4.712777138E-1
3.038536980E0,-3.031676292E0,-4.178705692E0,-1.136821747E0
3.078975366E0,3.123288155E-1,-4.529634953E0,-3.489394188E-1
3.119454168E0,-4.252548218E-1,-2.662166834E0,-8.103837967E-1
3.159931095E0,2.156411648E0,6.004176140E-1,-2.933645248E-2
3.200396460E0,-3.264374733E-1,-7.929832935E-1,-5.512404442E-1
3.240907501E0,-3.764247894E-1,-3.580199480E-1,2.721104622E-1
3.281442605E0,3.548145294E-2,9.570289850E-1,-3.594255447E-2
3.321955105E0,2.420372963E-1,1.505423307E0,1.232533455E-1
3.362445626E0,-1.713522911E0,-1.307301641E0,-7.054929733E-1
3.402914949E0,8.771548271E-1,1.014853477E0,-1.662397385E-1
3.443384116E0,5.430650711E-2,2.061640739E0,-1.442597866E0
3.483845730E0,-8.493552208E-1,-1.069385052E0,6.401634216E-1
3.524359168E0,2.720675468E-1,2.347752333E0,-2.531065941E-1
3.564880730E0,-6.261777878E-1,3.922182322E-1,-2.954025269E-1
3.605335991E0,9.804868698E-2,4.219455242E0,-3.292560577E-3
3.645835835E0,2.253197670E0,1.269115925E0,2.665785313E0
3.686265574E0,1.696808338E0,-1.190343618E0,4.047780037E-1
3.726754741E0,-6.723732948E0,-4.444849968E0,1.024688721E0
3.767263855E0,4.940891266E-2,-2.401238918E0,6.857023239E-1
3.807761668E0,1.617970943E0,-3.357957602E0,-6.331219673E-1
3.848304845E0,2.408831120E0,-2.432802439E0,-1.393183708E0
3.888754428E0,1.008880138E0,-4.524938464E-1,-1.328431606E0
3.929237501E0,4.114971161E-1,1.454588890E0,-1.302092075E0
3.969765470E0,-3.104882240E-1,1.466021538E0,-1.086016178E0
4.010230210E0,5.179667473E-1,9.718517065E-1,-8.126206398E-1
4.050697658E0,3.797578812E-1,-6.792980433E-1,-6.617550850E-1
4.091189324E0,-2.540988922E-1,-1.202261567E0,-1.814975739E-1
4.131666147E0,3.702416420E-1,-1.057541370E-1,-1.843419075E-1
4.172229793E0,7.715134621E-1,-5.382881165E-1,5.399065018E-1
4.212711460E0,1.777772903E-1,-2.564333916E0,7.730102539E-1
4.253153439E0,1.888453484E0,7.751783133E-1,9.817552567E-2
4.293673074E0,-2.271797180E0,2.895499706E0,-7.138252258E-3
4.334180574E0,-6.210489273E-1,-8.849725723E-1,3.100948334E-1
4.374607085E0,-5.155668259E-1,2.018877268E-1,-2.444834709E-1
4.415098491E0,-4.590778351E-1,1.496274471E-1,-2.331929207E-1
4.455597710E0,-2.409148216E-1,9.364104271E-2,-8.882398605E-1
4.496129897E0,-2.988362312E-1,-2.059803009E-1,-3.532800674E-1
4.536597293E0,-3.110351562E-1,-3.420467377E-1,2.270193100E-1
4.577135939E0,2.182335854E-1,-2.341823578E-1,3.194904327E-2
4.617589480E0,2.276420593E-3,-4.571294785E-2,-7.410478592E-2
4.658063022E0,-3.683347702E-1,2.004210949E-1,2.435660362E-1
4.698530574E0,4.538860321E-1,3.446089029E-1,-3.688330650E-1
4.739069480E0,-2.080488205E-1,-1.679873466E-1,-6.901473999E-1
4.779517241E0,-6.587796211E-1,-3.086910248E-1,-9.772205353E-2
4.820018543E0,-3.763532639E-2,1.017117500E-2,-4.086871147E-1
4.860490158E0,2.394819260E-1,1.887159348E-1,5.591678619E-2
4.900969845E0,-2.706985474E-1,2.680835724E-1,7.869243622E-2
4.941475105E0,4.096555710E-1,-4.703276157E-1,-3.575148582E-1
4.982017970E0,2.547211647E-1,-5.279140472E-1,8.618898392E-1
5.022462814E0,-5.842995644E-1,-1.082736015E0,1.711542606E0
5.062946824E0,-5.048832893E-1,-1.045614719E0,1.685913086E0
5.103493283E0,-1.481934071E0,-9.132820368E-1,1.723223686E0
5.143974689E0,-7.516522408E-1,-1.057757258E0,-1.039270401E0
5.184453439E0,2.807252407E0,2.085384130E-1,-2.488111973E0
5.224895053E0,3.128808022E0,-1.944637299E-1,-5.295438766E-1
5.265385939E0,9.320702553E-1,-1.466281414E-1,-3.273544312E-1
5.305902866E0,1.168368816E0,5.450093746E-2,-1.787266731E-1
5.346393074E0,-6.198000908E-1,-5.497187376E-2,1.380374432E0
5.386829116E0,-8.404207230E-1,-1.503004432E-1,-1.988301277E-1
5.427389272E0,9.338731766E-1,1.910123229E-1,1.925430298E-1
5.467805626E0,8.341503143E-2,-2.312888503E-1,-5.261611938E-2
5.508294012E0,-1.570033550E0,-7.949153185E-1,-4.889984131E-1
5.548811512E0,-3.986454010E-1,-5.222362876E-1,-4.198203087E-1
5.589331720E0,2.516427040E-1,-4.558259249E-2,-6.467094421E-1
5.629796980E0,1.805539131E-1,2.243424058E-1,-5.591545105E-1
5.670281408E0,-6.632547379E-1,2.659729719E-1,-5.090298653E-1
5.710771668E0,-9.604668617E-1,1.509739757E-1,-7.974886894E-1
5.751279845E0,-2.342171669E-1,2.055031061E-1,-8.807134628E-1
5.791781408E0,-8.502097130E-1,-3.362894058E-4,-3.781695366E-1
5.832230887E0,-8.843479156E-1,-2.871823907E-1,-1.327743530E-1
5.872714949E0,-1.398930550E-1,-1.367752552E-1,-3.133649826E-1
5.913201928E0,5.042686462E-1,1.139609814E-1,5.133724213E-2
5.953710574E0,3.622431755E-1,-5.548101664E-2,4.183287621E-1
5.994220783E0,3.076806068E-1,-2.476912737E-1,3.811922073E-1
6.034689480E0,5.489597321E-1,-1.410971284E-1,2.584400177E-1
6.075161199E0,4.180879593E-1,-7.226371765E-2,2.094421387E-1
6.115631668E0,1.484723091E-1,-1.433325410E-1,1.737837791E-1
6.156138074E0,6.395435333E-2,-1.496802568E-1,6.112241745E-2
6.196651720E0,1.646184921E-2,-5.689811707E-2,-1.064243317E-1
6.237136303E0,-1.206593513E-1,4.849195480E-2,-2.163333893E-1
6.277645314E0,-2.416458130E-1,9.482032061E-2,-2.523918152E-1
6.318063387E0,-2.330136299E-1,2.473479509E-2,-2.567052841E-1
6.358598126E0,-1.338520050E-1,-9.511053562E-3,-1.733150482E-1
6.399098074E0,-5.226707458E-2,-8.851414919E-2,-9.746026993E-2
6.439577814E0,2.292013168E-2,-8.090084791E-2,2.387523651E-3
6.480063699E0,1.337671280E-1,-6.557893753E-2,7.634210587E-2
6.520572033E0,1.692194939E-1,-4.535716772E-2,1.355099678E-1
6.561054845E0,-1.512327194E-1,-3.324426413E-1,7.287082672E-1
6.601526564E0,-7.574410439E-1,-5.187228322E-1,7.228193283E-1
6.642050053E0,3.055095673E-2,8.448374271E-2,-1.331348419E0
6.682523387E0,3.256754875E-1,6.216480136E-1,-1.400808334E0
6.722993803E0,-3.178911209E-1,2.500404716E-1,-5.685153008E-1
6.763526303E0,-2.389373779E-1,9.775340557E-3,-4.260168076E-1
6.803988960E0,-1.637816429E-1,-1.480679512E-1,-4.386997223E-2
6.844465730E0,2.767667770E-1,-6.712454557E-2,1.865215302E-1
6.884958178E0,2.095742226E-1,-3.132973909E-1,1.643362045E-1
6.925437658E0,5.511355400E-1,1.918030977E-1,-3.653998375E-1
6.965928387E0,8.644752502E-1,4.700365067E-1,-1.240458488E-1
7.006437605E0,4.785170555E-1,4.705864191E-2,1.792001724E-1
7.046932762E0,2.736511230E-1,-2.941495776E-1,5.919489861E-1
7.087403908E0,8.844518661E-1,4.660765231E-1,4.860978127E-1
7.127882658E0,3.294253349E-1,3.026473522E-2,2.018709183E-1
7.168368960E0,-2.518711090E-1,-1.472141743E-1,8.273983002E-2
7.208876355E0,-1.606068611E-1,-8.002269268E-2,-3.484115601E-1
7.249360262E0,4.272603989E-2,1.649227738E-1,-4.713377953E-1
7.289851251E0,-6.155967712E-2,2.313797474E-1,-3.682823181E-1
7.330385626E0,-2.095808983E-1,8.890855312E-2,-1.371183395E-1
7.370816408E0,-1.201581955E-2,1.028540134E-1,-3.649616241E-2
7.411323387E0,-1.290488243E-1,-2.049362659E-2,8.038997650E-2
7.451858855E0,-1.653404236E-1,-1.431883574E-1,1.086807251E-1
7.492292501E0,8.288431168E-2,-5.535268784E-2,-6.421661377E-2
7.532812605E0,4.049220085E-1,1.300071478E-1,-1.936855316E-1
7.573259533E0,2.034454346E-1,-5.325162411E-2,9.814786911E-2
7.613752241E0,-1.080398560E-1,-1.074881554E-1,1.419749260E-1
7.654247033E0,-2.093648911E-2,-6.822669506E-2,6.449699402E-3
7.694792605E0,1.156334877E-1,2.417957783E-2,-1.831331253E-1
7.735281199E0,-5.301189423E-2,3.848910332E-2,-2.809453011E-1
7.775773178E0,-3.139977455E-1,-4.429280758E-2,-2.492713928E-1
7.816239012E0,-2.374076843E-1,1.733250618E-1,-3.590335846E-1
7.856751980E0,-2.183132172E-1,1.843832731E-1,-1.385512352E-1
7.897238960E0,-1.900782585E-1,-6.482303143E-2,-4.478693008E-2
7.937725991E0,2.692179680E-1,3.373372555E-2,-9.494638443E-2
7.978163960E0,2.078666687E-1,-2.833628654E-2,1.160097122E-1
8.018652501E0,-5.923032761E-2,2.607631683E-2,1.122932434E-1
8.059153126E0,-2.271652222E-2,1.587736607E-2,-6.884098053E-2
8.099620366E0,5.723619461E-2,-6.425118446E-2,-8.208131790E-2
8.140107501E0,3.206014633E-2,-4.797255993E-2,1.264872551E-1
8.180605783E0,1.311097145E-1,-1.138185263E-1,-2.215099335E-2
8.221105210E0,1.270136833E-1,2.136722803E-1,2.441310883E-2
8.261593335E0,-6.379938126E-2,3.291221857E-1,2.547502518E-2
8.302079533E0,-1.051096916E-1,9.045135975E-2,-2.425193787E-2
8.342585366E0,-5.343580246E-2,-5.159270763E-2,-1.270489693E-1
8.383048022E0,1.016392708E-1,-1.204421520E-1,-8.330488205E-2
8.423572918E0,5.577659607E-2,-1.386970282E-1,-6.427383423E-2
8.464058751E0,3.840065002E-2,-3.530192375E-2,6.926012039E-2
8.504523595E0,1.049962044E-1,8.101594448E-2,1.096105576E-1
8.545058439E0,4.882287979E-2,1.214466095E-1,2.592992783E-2
8.585492762E0,3.408718109E-2,1.251423359E-1,5.327224731E-3
8.626049741E0,-4.775333405E-2,7.913231850E-3,4.204034805E-2
8.666539324E0,-9.733200073E-3,-1.478686333E-1,-2.509450912E-2
8.706934793E0,1.937294006E-2,-1.311669350E-1,-3.167867661E-2
8.747421980E0,-2.803373337E-2,-1.421223879E-1,-1.821470261E-2
8.787925210E0,1.646914482E-1,-1.252595186E-1,-1.205172539E-1
8.828432345E0,1.989603043E-2,-1.481616497E-2,-1.175403595E-2
8.868959376E0,-2.491760254E-2,2.038085461E-1,3.202867508E-2
8.909434168E0,7.356691360E-2,2.779026031E-1,-9.773015976E-2
8.949906303E0,-7.839679718E-2,2.279305458E-2,-4.820871353E-2
8.990429480E0,-8.006525040E-2,-2.585065365E-2,-9.803771973E-3
9.030935783E0,5.728912354E-2,-1.354926825E-1,5.959701538E-2
9.071395262E0,1.162543297E-1,-1.899392605E-1,1.366863251E-1
9.111883230E0,1.805038452E-1,-5.941855907E-2,1.288723946E-1
9.152377814E0,9.386062622E-2,-1.107194424E-1,1.154947281E-2
9.192875887E0,-1.324367523E-2,-2.137982845E-2,7.406282425E-2
9.233347553E0,-1.603178978E-1,1.787078381E-1,-9.439706802E-2
9.273828491E0,-1.489725113E-1,1.887493134E-1,-2.451715469E-1
9.314340678E0,-1.571826935E-1,1.014534235E-1,-1.272044182E-1
9.354808855E0,-1.039366722E-1,2.315437794E-2,-1.115069389E-1
9.395284480E0,-5.900192261E-2,3.084266186E-2,-6.624746323E-2
9.435797605E0,-6.444358826E-2,3.305113316E-2,-3.832626343E-2
9.476321668E0,1.450061798E-2,-2.415883541E-2,-2.297353745E-2
9.516769272E0,7.981014252E-2,-6.204569340E-2,1.532425880E-1
9.557220887E0,9.866762161E-2,-3.021061420E-2,1.530876160E-1
9.597720470E0,1.502056122E-1,-1.601361036E-1,1.732249260E-1
9.638231668E0,1.567325592E-1,-2.469036579E-1,8.140087128E-2
9.678743283E0,4.040193558E-2,-2.204179764E-4,-7.787084579E-2
9.719241720E0,7.063865662E-3,6.594812870E-2,3.671741486E-2
9.759733022E0,-1.591815948E-1,4.847180843E-2,-5.937814713E-2
9.800210835E0,-1.473093033E-1,-1.428747177E-2,-1.079468727E-1
9.840700991E0,1.104259491E-1,8.850204945E-2,-1.104497910E-1
9.881193283E0,5.585670471E-3,9.179115295E-5,7.612705231E-3
9.921667241E0,6.677436829E-2,2.379548550E-2,1.390171051E-2
9.962162553E0,1.893529892E-1,5.749380589E-2,-3.080749512E-2
1.000265557E1,-9.207773209E-2,6.312978268E-2,-5.164146423E-2
1.004312339E1,-5.883979797E-2,5.910325050E-2,-2.078046799E-1
1.008361630E1,-1.361584663E-1,-2.975344658E-3,9.434938431E-2
1.012411167E1,-1.625180244E-1,-7.144594193E-2,4.696130753E-2
1.016461318E1,1.088643074E-1,-1.988720894E-2,-6.047248840E-2
1.020508646E1,4.396772385E-2,-1.019381285E-1,1.392374039E-1
1.024557604E1,-2.407073975E-3,-3.033459187E-2,9.131383896E-2
1.028611235E1,9.612989426E-2,-5.655050278E-2,1.792621613E-2
1.032662479E1,3.695011139E-2,2.862334251E-3,2.552461624E-2
1.036700917E1,4.740047455E-2,1.075267792E-4,-4.237413406E-2
1.040749740E1,-4.201078415E-2,-3.646254539E-3,6.708288193E-2
1.044798563E1,3.262662888E-2,-1.293635368E-2,-3.180456161E-2
1.048847391E1,1.253142357E-1,2.777171135E-2,-5.638599396E-2
1.052905813E1,-2.399234772E-1,-3.890001774E-2,-2.309303284E-1
1.056948740E1,-2.554106712E-1,-3.454792500E-2,-7.259416580E-2
1.060999495E1,1.333551407E-1,2.165735960E-1,1.540236473E-1
1.065048391E1,3.225226402E-1,1.336182356E-1,2.392449379E-1
1.069096740E1,1.990318298E-2,-2.390491962E-2,1.835660934E-1
1.073145828E1,-7.212829590E-2,-5.243003368E-2,-1.966624260E-1
1.077192172E1,-1.398520470E-1,-1.639313698E-1,-1.891865730E-1
1.081243167E1,-9.491395950E-2,2.368593216E-2,1.769657135E-1
1.085293495E1,1.344156265E-1,5.574464798E-2,1.119775772E-1
1.089342386E1,6.862306595E-2,1.061564684E-1,-3.172969818E-2
1.093396651E1,-1.210169792E-1,3.660082817E-2,-1.085462570E-1
1.097438849E1,-5.924067497E-1,-9.725177288E-2,-1.886258125E-1
1.101489677E1,-6.317582130E-1,3.040957451E-2,-4.764161110E-1
1.105536396E1,-4.731855392E-1,1.740349531E-1,-7.294540405E-1
1.109589261E1,-2.247290611E-1,2.140139341E-1,-7.181367874E-1
1.113638209E1,-3.020343781E-1,7.580614090E-2,-2.018861771E-1
1.117682334E1,3.191518784E-1,-1.664161682E-4,1.936173439E-1
1.121731281E1,8.101167679E-1,-7.926428318E-2,6.496982574E-1
1.125780224E1,1.037696838E0,-2.730102539E-1,1.040355206E0
1.129829172E1,1.146843433E0,-2.775352001E-1,1.200575829E0
1.133878115E1,1.042616367E0,-4.097086191E-1,9.443950653E-1
1.137933005E1,9.164614677E-1,-3.284738064E-1,5.866575241E-1
1.141978318E1,5.635638237E-1,-3.468152285E-1,1.647033691E-1
1.146027834E1,1.652393341E-1,-2.374036312E-1,1.432576180E-1
1.150074688E1,-3.385739326E-1,-1.688593626E-1,4.826211929E-2
1.154126479E1,-5.444436073E-1,8.753585815E-2,-4.154906273E-1
1.158177052E1,-5.049414635E-1,2.378870249E-1,-6.416430473E-1
1.162220813E1,-6.229977608E-1,1.170415878E-1,-5.784163475E-1
1.166275979E1,-4.433007240E-1,5.300521851E-3,-3.583922386E-1
1.170318802E1,-3.265061378E-1,5.970954895E-2,-2.572345734E-1
1.174367823E1,-2.799305916E-1,1.128015518E-1,-2.327342033E-1
1.178423052E1,-1.566600800E-1,3.656327724E-2,-2.100305557E-1
1.182466511E1,-3.158783913E-1,-4.532754421E-2,-1.381869316E-1
1.186514979E1,-1.063113213E-1,8.320736885E-2,6.643342972E-2
1.190561599E1,3.894715309E-1,-3.041863441E-3,1.618227959E-1
1.194617229E1,3.380532265E-1,5.244100094E-2,4.013895988E-1
1.198663177E1,9.147405624E-2,-1.795053482E-3,1.424207687E-1
1.202712052E1,1.047930717E-1,-8.705222607E-2,6.539201736E-2
1.206760922E1,2.984905243E-2,-5.290508270E-2,-5.667161942E-2
1.210804594E1,-1.071715355E-1,6.543159485E-3,-1.206140518E-1
1.214854500E1,-1.107106209E-1,2.145080566E-1,-7.289218903E-2
1.218905516E1,-3.971729279E-1,3.699982166E-2,-3.684139252E-2
1.222954813E1,-2.157912254E-1,-1.656253338E-1,-1.662564278E-1
1.227004797E1,1.783909798E-1,-1.013265848E-1,-1.764221191E-1
1.231053797E1,4.039239883E-1,5.414330959E-2,7.442903519E-2
1.235101959E1,-3.363943100E-2,1.058864594E-2,-3.010225296E-2
1.239151438E1,8.200025558E-2,-5.555987358E-3,-9.323406219E-2
1.243201594E1,-5.433130264E-2,-5.256617069E-2,2.555704117E-2
1.247250052E1,2.724218369E-2,6.519985199E-2,-3.649663925E-2
1.251299797E1,4.820203781E-2,1.296219826E-1,1.452112198E-2
1.255349047E1,-4.050779343E-2,-3.738403320E-2,6.990432739E-3
1.259395750E1,3.528656960E-1,-1.005232334E-2,1.936712265E-1
1.263444828E1,1.544895172E-1,-9.530591965E-2,1.495847702E-1
1.267493906E1,2.239565849E-1,-1.203937531E-1,8.874368668E-2
1.271542334E1,2.370777130E-1,2.409338951E-3,1.446461678E-1
1.275594417E1,9.121942520E-2,-2.840876579E-2,9.869813919E-2
1.279647516E1,-2.957868576E-2,-3.639912605E-2,6.551742554E-3
1.283696292E1,-9.698820114E-2,6.183636189E-2,-8.379030228E-2
1.287745203E1,-2.475347519E-1,2.890074253E-2,-6.125545502E-2
1.291794104E1,-1.843924522E-1,9.442842007E-2,-8.050870895E-2
1.295840214E1,-1.486687660E-1,2.111780643E-2,-9.368753433E-2
1.299886594E1,-1.083273888E-1,2.335083485E-2,-8.857202530E-2
1.303935375E1,-4.434394836E-2,2.990770340E-2,2.672958374E-2
1.307985276E1,-2.495336533E-2,-2.093017101E-2,1.328229904E-2
1.312034787E1,3.793764114E-2,-4.863381386E-3,2.314805984E-2
1.316081323E1,9.208583832E-2,5.543351173E-3,1.361513138E-2
1.320131865E1,9.361267090E-2,-6.160402298E-2,7.778215408E-2
1.324181719E1,2.424283028E-1,1.438534260E-2,9.684944153E-2
1.328229745E1,1.780161858E-1,7.486343384E-4,1.480555534E-1
1.332279365E1,2.493953705E-2,-6.992101669E-3,1.111164093E-1
1.336323875E1,-1.163215637E-1,-8.827328682E-2,-2.781524658E-1
1.340374698E1,-6.216096878E-2,-2.096223831E-2,-1.107716560E-1
1.344425464E1,-4.472351074E-2,-2.534317970E-2,7.254981995E-2
1.348474188E1,5.715179443E-2,7.918655872E-2,1.045575142E-1
1.352524516E1,-5.107879639E-3,8.014571667E-2,-5.047178268E-2
1.356575432E1,-3.987073898E-2,7.455945015E-3,4.302120209E-2
1.360624630E1,1.178264618E-2,-3.453648090E-2,2.640581131E-2
1.364669406E1,4.877996445E-2,-8.244025707E-2,-2.162456512E-3
1.368716380E1,-7.001924515E-2,-6.019866467E-2,-5.967807770E-2
1.372765375E1,-1.349473000E-1,8.134722710E-2,-8.561372757E-2
1.376814375E1,-1.109519005E-1,1.118847132E-1,-2.370452881E-2
1.380863370E1,-2.557611465E-2,3.108251095E-2,5.163764954E-2
1.384913078E1,-1.559257507E-4,2.042305470E-2,-5.525732040E-2
1.388962073E1,6.038236618E-2,-2.506077290E-2,-4.855155945E-2
1.393010943E1,4.300594330E-3,-1.095974445E-2,3.371095657E-2
1.397064063E1,1.282548904E-1,-2.450215816E-2,1.176748276E-1
1.401109818E1,1.048660278E-1,-4.232823849E-2,6.806039810E-2
1.405160292E1,4.780626297E-2,-2.847290039E-2,-4.982948303E-2
1.409208115E1,7.570838928E-2,9.503364563E-4,2.515029907E-2
1.413257042E1,1.083021164E-1,-2.568233013E-2,1.364054680E-1
1.417305625E1,9.412527084E-2,-1.195752621E-2,4.617595673E-2
1.421355651E1,-1.812038422E-1,-4.392564297E-2,-1.254997253E-1
1.425402932E1,-3.003044128E-1,6.129395962E-2,-1.314010620E-1
1.429453453E1,-2.454309464E-1,8.909714222E-2,-1.025876999E-1
1.433498724E1,5.554676056E-3,5.253899097E-2,-5.318117142E-2
1.437546193E1,1.129627228E-2,3.327083588E-2,6.548404694E-3
1.441604302E1,1.870713234E-1,4.077994823E-2,4.159545898E-2
1.445654917E1,3.259658813E-2,-6.706595421E-2,6.664896011E-2
1.449699172E1,3.882980347E-2,-3.985083103E-2,-3.993988037E-3
1.453748094E1,-8.670330048E-2,-1.813650131E-2,1.378440857E-2
1.457791042E1,-8.277416229E-3,1.072418690E-2,1.335096359E-2
1.461842526E1,1.206092834E-1,2.082335949E-2,6.258440018E-2
1.465891375E1,1.425433159E-1,-3.596937656E-2,5.474519730E-2
1.469940229E1,2.336406708E-2,-6.042623520E-2,-3.899860382E-2
1.473991198E1,-1.900386810E-1,4.421675205E-2,-5.529260635E-2
1.478040203E1,-2.364072800E-1,9.379410744E-2,-1.688623428E-1
1.482090537E1,-1.110372543E-1,5.589449406E-2,-7.910633087E-2
1.486144547E1,4.879236221E-2,-7.097804546E-2,-2.332305908E-2
1.490193401E1,1.643934250E-1,-2.868962288E-2,6.650447845E-2
1.494235328E1,1.025271416E-1,-7.505118847E-2,6.756067276E-2
1.498284891E1,2.328429222E-1,5.426943302E-2,1.889262199E-1
1.502334948E1,1.216769218E-1,8.302366734E-2,1.344161034E-1
1.506382130E1,-7.947921753E-2,2.008795738E-2,5.633306503E-2
1.510429136E1,-1.267518997E-1,9.153246880E-3,-1.451215744E-1
1.514478005E1,-2.339577675E-1,-7.710182667E-2,-9.112882614E-2
1.518528740E1,-4.155635834E-3,-2.375912666E-2,-1.178421974E-1
1.522576516E1,-7.552194595E-2,1.442706585E-2,3.406286240E-2
1.526630990E1,-1.078467369E-1,-4.802465439E-3,-1.079502106E-1
1.530679958E1,-6.429386139E-2,7.127881050E-3,-1.025962830E-1
1.534726349E1,1.601696014E-3,8.171308041E-2,6.243228912E-3
1.538771969E1,3.365230560E-2,2.904796600E-2,9.222793579E-2
1.542821547E1,7.701110840E-2,1.795756817E-2,5.670642853E-2
1.546871209E1,2.617168427E-2,-2.293443680E-2,-1.096725464E-5
1.550923667E1,3.594493866E-2,-1.012798548E-1,4.737949371E-2
1.554974380E1,4.097461700E-3,-1.533137560E-1,2.239227295E-2
1.559018896E1,2.655282021E-1,1.023740768E-1,-1.243734360E-2
1.563067943E1,-3.331947327E-2,7.324349880E-2,3.417491913E-2
1.567118313E1,-6.116008759E-2,8.556532860E-2,-7.804870605E-2
1.571168068E1,-1.593389511E-1,8.816123009E-2,-1.035656929E-1
1.575215010E1,-2.411060333E-1,2.961862087E-2,-3.915643692E-2
1.579266271E1,-9.201240540E-2,2.081906796E-2,1.445293427E-2
1.583311656E1,7.358121872E-2,-1.093026400E-1,-3.003072739E-2
1.587360604E1,3.308782578E-1,-1.564083099E-1,6.567668915E-2
1.591411396E1,8.525753021E-2,7.304191589E-2,-9.596633911E-2
1.595462323E1,-9.147214890E-2,1.147731543E-1,1.044721603E-1
1.599508313E1,5.949831009E-2,1.208915710E-1,2.443175316E-1
1.603559459E1,3.090105057E-1,7.850551605E-2,9.162044525E-2
1.607610891E1,9.247350693E-2,-1.015712023E-1,-4.033088684E-3
1.611659854E1,-1.538252831E-1,-2.135673761E-1,-1.100172997E-1
1.615708912E1,9.149885178E-2,-6.933856010E-2,5.967760086E-2
1.619757938E1,4.545068741E-2,-3.648114204E-2,1.240410805E-1
1.623806964E1,-2.462105751E-1,-1.889467239E-2,-2.170634270E-1
1.627855511E1,-1.285390854E-1,1.771210432E-1,-1.435303688E-1
1.631900854E1,2.180337906E-2,6.625926495E-2,1.007332802E-1
1.635948208E1,-6.658077240E-3,2.458691597E-3,1.295523643E-1
1.639998802E1,-5.068683624E-2,2.730488777E-3,-2.018318176E-1
1.644046505E1,-9.668779373E-2,-6.400454044E-2,-1.080899239E-1
1.648095401E1,-1.149654388E-3,2.342498302E-2,7.905435562E-2
1.652143688E1,4.436445236E-2,-3.211843967E-2,1.406841278E-1
1.656193339E1,1.220088005E-1,7.035374641E-3,-3.077650070E-2
1.660243141E1,-4.437303543E-2,-1.032918692E-1,2.665996552E-3
1.664291912E1,1.292276382E-2,-3.664195538E-2,2.167987823E-2
1.668341214E1,4.418992996E-2,4.264545441E-2,-2.211332321E-2
1.672389938E1,-2.279567719E-2,4.717981815E-2,-4.523849487E-2
1.676437927E1,-1.062273979E-1,1.029695272E-1,-4.397249222E-2
1.680487328E1,-4.942178726E-2,4.407024384E-2,-5.705404282E-2
1.684535443E1,-4.398679733E-2,3.843712807E-2,-1.269340515E-3
1.688584042E1,-2.622318268E-2,2.067565918E-3,-6.871080399E-2
1.692637438E1,-1.955461502E-2,-5.378377438E-2,1.381111145E-2
1.696682177E1,4.077625275E-2,-4.947566986E-2,3.400278091E-2
1.700727969E1,1.627349854E-1,-1.237010956E-2,9.029579163E-2
1.704776026E1,3.569078445E-2,-5.969941616E-2,3.793478012E-2
1.708829849E1,1.272392273E-2,-3.917217255E-4,1.665973663E-2
1.712878781E1,8.104705811E-2,3.720903397E-2,7.351875305E-3
1.716929979E1,-8.250951767E-2,1.605105400E-2,2.087831497E-2
1.720978328E1,-1.120038033E-1,3.137397766E-2,-9.189367294E-2
1.725027318E1,-1.730031967E-1,6.956803799E-2,-1.219234467E-1
1.729074589E1,-9.879112244E-2,5.282032490E-2,-2.538061142E-2
1.733123151E1,4.831218719E-2,2.450990677E-2,-8.164405823E-3
1.737169193E1,1.486568451E-1,-8.399391174E-2,5.776882172E-3
1.741222474E1,1.554679871E-1,-3.738629818E-2,8.817243576E-2
1.745270057E1,8.487653732E-2,-1.487338543E-2,8.456468582E-2
1.749321151E1,-4.525661469E-2,3.398466110E-2,8.282518387E-2
1.753370625E1,-6.638002396E-2,9.690046310E-3,-5.618858337E-2
1.757416974E1,-4.644203186E-2,-1.601612568E-2,1.579475403E-2
1.761466245E1,-4.436874390E-2,-6.962418556E-3,-1.096825600E-1
1.765512932E1,1.140260696E-2,6.935834885E-3,-3.301858902E-2
1.769562834E1,9.017467499E-3,3.275024891E-2,-2.294349670E-2
1.773616656E1,7.238388062E-3,6.627082825E-3,3.510475159E-2
1.777665261E1,3.046607971E-2,-1.477670670E-2,2.638673782E-2
1.781706787E1,-2.808332443E-2,-2.933394909E-2,-1.772546768E-2
1.785755719E1,-1.737356186E-2,-2.472817898E-2,1.492977142E-3
1.789804656E1,-5.171298981E-3,5.568075180E-2,-1.330757141E-2
1.793853599E1,-4.539060593E-2,1.834011078E-2,-2.728033066E-2
1.797907464E1,5.185461044E-2,2.249193192E-2,3.798723221E-2
1.801960203E1,6.804656982E-2,1.711583138E-2,5.059385300E-2
1.806006724E1,4.950428009E-2,-3.299486637E-2,4.816436768E-2
1.810051818E1,-3.008460999E-2,-2.024745941E-2,9.978294373E-3
1.814098125E1,-8.350944519E-2,-3.457343578E-2,-2.275705338E-2
1.818149974E1,-7.938814163E-2,1.817214489E-2,-2.536296844E-2
1.822201875E1,-5.359458923E-2,5.347490311E-3,-8.327341080E-2
1.826248219E1,-9.621906281E-2,-2.903401852E-2,-1.210703850E-1
1.830300349E1,-2.032709122E-2,2.823460102E-2,-3.415107727E-2
1.834349010E1,2.182021141E-1,5.833911896E-2,7.197046280E-2
1.838393037E1,1.103081703E-1,1.849675179E-2,1.367020607E-1
1.842444094E1,5.495166779E-2,-3.380227089E-2,-7.579326630E-3
1.846495662E1,-3.454065323E-2,-5.133247375E-2,2.123165131E-2
1.850543266E1,-6.901931763E-2,-5.875170231E-2,-4.096031189E-3
1.854593479E1,3.559541702E-2,-1.882147789E-2,-1.673269272E-2
1.858645229E1,-5.038213730E-2,1.355409622E-2,-4.996585846E-2
1.862688771E1,-9.398031235E-2,7.693898678E-2,-1.996994019E-2
1.866736417E1,2.879905701E-2,7.227134705E-2,1.587820053E-2
1.870784630E1,2.552413940E-2,-1.434445381E-3,2.146053314E-2
1.874834401E1,1.336097717E-2,-1.882898808E-2,-1.345348358E-2
1.878886063E1,3.829956055E-3,-4.447567463E-2,-2.956342697E-2
1.882936474E1,1.717710495E-2,-9.578347206E-3,7.541418076E-2
1.886984292E1,4.772806168E-2,5.548477173E-3,3.985452652E-2
1.891033349E1,3.525733948E-3,7.633864880E-2,2.808189392E-2
1.895082781E1,-1.484932899E-1,4.230570793E-2,-7.151603699E-2
1.899131537E1,-1.880140305E-1,4.761958122E-2,-5.654907227E-2
1.903183073E1,-6.470489502E-2,-2.974951267E-2,-1.053361893E-1
1.907227703E1,9.634923935E-2,-3.503262997E-2,-3.807544708E-3
1.911275078E1,1.116552353E-1,-3.007423878E-2,3.562974930E-2
1.915324604E1,1.117620468E-1,3.946173191E-2,5.546903610E-2
1.919375703E1,4.122257233E-3,1.442039013E-2,6.056594849E-2
1.923425516E1,4.120397568E-2,-1.313602924E-2,4.570817947E-2
1.927472677E1,-8.747577667E-3,-2.369749546E-2,7.471084595E-3
1.931522198E1,4.960393906E-2,-9.109616280E-3,-3.810882568E-2
1.935569651E1,1.206398010E-2,-1.799178123E-2,-2.081871033E-3
1.939620162E1,-5.125522614E-2,-1.206588745E-2,-6.203794479E-2
1.943671729E1,-1.294379234E-1,8.271932602E-4,-6.419754028E-2
1.947714516E1,-5.098676682E-2,4.705536366E-2,-4.716300964E-2
1.951763099E1,4.790496826E-2,3.156101704E-2,-5.584716797E-3
1.955811307E1,1.176519394E-1,4.860794544E-2,6.104040146E-2
1.959862974E1,7.742738724E-2,3.885626793E-3,9.241056442E-2
1.963913292E1,-2.040910721E-2,-1.344078779E-1,5.737304688E-2
1.967963026E1,5.570888519E-3,-1.447349787E-1,-5.195140839E-3
1.972011703E1,7.833003998E-3,-1.335620880E-1,3.567171097E-2
1.976061099E1,1.648192406E-1,-5.080449581E-2,-2.133846283E-3
1.980108505E1,1.398901939E-1,2.890503407E-2,-1.687908173E-2
1.984158766E1,4.445743561E-2,3.058285713E-1,-1.263856888E-1
1.988206953E1,-2.883934975E-1,2.072331905E-1,3.238391876E-2
1.992254964E1,-3.041772842E-1,6.535530090E-2,5.233812332E-2
1.996304938E1,-1.568293571E-1,-2.780842781E-2,-1.686401367E-1
2.000357349E1,-2.336168289E-2,-5.432903767E-2,-1.299996376E-1
2.004404594E1,-4.585838318E-2,-1.653310061E-1,-5.003929138E-3
2.008452073E1,1.352562904E-1,-5.272006989E-2,1.181907654E-1
2.012501125E1,1.328058243E-1,2.001941204E-2,1.115746498E-1
2.016548875E1,5.995845795E-2,3.392541409E-2,2.884244919E-2
2.020602104E1,2.923250198E-2,9.335339069E-2,1.623439789E-2
2.024651505E1,-3.277063370E-2,3.742456436E-2,2.224111557E-2
2.028695703E1,1.125812531E-3,1.289963722E-3,-3.907680511E-2
2.032742834E1,-5.959558487E-2,-1.853728294E-2,-7.246685028E-2
2.036794615E1,-9.708833694E-2,-4.016792774E-2,-5.369091034E-2
2.040843656E1,2.458572388E-3,3.861546516E-3,-1.360177994E-2
2.044894849E1,-1.097393036E-2,2.132809162E-2,5.198478699E-2
2.048940412E1,1.308059692E-2,1.285934448E-2,9.713172913E-4
2.052989031E1,1.157875061E-1,5.871975422E-2,4.924726486E-2
2.057042167E1,-2.667808533E-2,-6.149244308E-2,2.127361298E-2
2.061089875E1,3.079986572E-2,-3.601694107E-2,-1.025962830E-2
2.065139266E1,-5.407905579E-2,-9.864068031E-2,1.949453354E-2
2.069187641E1,2.377986908E-3,-5.649924278E-2,-6.852340698E-2
2.073236531E1,8.305454254E-2,1.222217083E-2,9.064674377E-4
2.077283234E1,4.346132278E-2,9.631800652E-2,6.449079514E-2
2.081335563E1,-1.783561707E-2,1.436947584E-1,-2.622127533E-3
2.085382761E1,-1.620817184E-2,7.828915119E-2,-7.912445068E-2
2.089428417E1,-8.097028732E-2,1.675355434E-2,3.542089462E-2
2.093486625E1,-3.106594086E-3,-1.188406944E-1,-1.098632812E-3
2.097528198E1,-2.706670761E-2,-1.889679432E-1,-3.105163574E-3
2.101579917E1,-4.217290878E-2,-4.917490482E-2,-6.303453445E-2
2.105631542E1,-3.668928146E-2,1.084339619E-2,2.158594131E-2
2.109674052E1,9.798192978E-2,1.785147190E-1,2.584123611E-2
2.113723010E1,7.617950439E-3,1.472100019E-1,4.700374603E-2
2.117769000E1,1.380300522E-2,9.328198433E-2,-3.260087967E-2
2.121817922E1,-1.436047554E-1,-2.981245518E-2,-2.265310287E-2
2.125866688E1,6.343555450E-2,-7.355999947E-2,-1.331610680E-1
2.129919010E1,1.312017441E-2,-1.124154329E-1,4.664945602E-2
2.133969401E1,7.453727722E-2,-6.296658516E-2,1.359925270E-1
2.138018459E1,1.531829834E-1,8.832216263E-3,8.281898499E-2
2.142067813E1,-2.023553848E-2,-5.255889893E-2,2.438879013E-2
2.146117526E1,3.541803360E-2,-6.837856770E-2,-3.277492523E-2
2.150170110E1,-1.228857040E-2,1.149785519E-2,-7.258415222E-3
2.154215344E1,-8.330821991E-2,6.187796593E-3,-1.189637184E-1
2.158268115E1,-3.236770630E-3,9.466040134E-2,-5.952453613E-2
2.162312485E1,-2.712821960E-2,1.109820604E-1,1.227378845E-2
2.166366266E1,9.399175644E-2,2.907693386E-2,6.417703629E-2
2.170414464E1,5.712699890E-2,-5.466568470E-2,8.932924271E-2
2.174464318E1,1.000919342E-1,-6.953382492E-2,1.979064941E-2
2.178506896E1,6.352949142E-2,-3.054404259E-2,-2.010011673E-2
2.182558193E1,-9.875869751E-2,-6.752908230E-2,-7.801342010E-2
2.186610667E1,-1.790146828E-1,5.242013931E-2,4.280281067E-2
2.190654031E1,-2.159118652E-1,1.010882854E-2,6.853580475E-3
2.194703052E1,-4.691505432E-2,-7.087230682E-3,-8.866786957E-2
2.198752052E1,7.892608643E-2,6.002485752E-2,-5.511665344E-2
2.202798323E1,-4.990100861E-3,-4.641795158E-2,9.728956223E-2
2.206847573E1,6.080722809E-2,-3.265202045E-2,-1.286029816E-3
2.210895844E1,-2.739906311E-3,4.409706593E-2,8.829927444E-2
2.214945354E1,-2.620220184E-2,2.492797375E-2,-1.091418266E-1
2.218997417E1,7.350254059E-2,-8.424901962E-2,8.802890778E-3
2.223046250E1,-3.490447998E-3,2.363228798E-2,6.989288330E-2
2.227097037E1,9.566783905E-3,7.250237465E-2,-2.908897400E-2
2.231146042E1,-5.926609039E-3,5.758607388E-2,-1.348867416E-1
2.235191755E1,-1.253876686E-1,2.026641369E-2,8.634042740E-2
2.239240755E1,-5.454540253E-3,2.459049225E-3,-4.611492157E-2
2.243292334E1,3.642034531E-2,-2.457571030E-2,1.630640030E-2
2.247340615E1,-5.027723312E-2,-4.813170433E-2,-1.054139137E-1
2.251390760E1,5.608940125E-2,-1.539218426E-2,3.813362122E-2
2.255440302E1,1.077413559E-2,2.249503136E-2,7.282781601E-2
2.259486781E1,5.198383331E-2,4.626441002E-2,-5.269384384E-2
2.263536365E1,-4.538059235E-2,5.077254772E-2,-6.442070007E-3
2.267587511E1,1.112127304E-2,-3.649115562E-3,1.074457169E-2
2.271639344E1,4.566335678E-2,-3.110051155E-3,3.548336029E-2
2.275686906E1,-3.627777100E-2,-3.951799870E-2,-9.734153748E-3
2.279729990E1,-1.994562149E-2,-3.827130795E-2,-2.081060410E-2
2.283778865E1,4.631042480E-3,-8.435487747E-3,3.282594681E-2
2.287827568E1,1.065154076E-1,3.745436668E-2,4.204273224E-3
2.291878521E1,4.928588867E-2,6.688058376E-2,1.556520462E-1
2.295928521E1,-1.254177094E-1,-7.338643074E-3,-3.930568695E-3
2.299980776E1,-1.467018127E-1,-7.051897049E-2,-9.678888321E-2
2.304031594E1,-1.507625580E-1,-5.704689026E-2,-2.198042870E-1
2.308075016E1,-2.968597412E-2,3.847956657E-3,-1.149892807E-2
2.312118698E1,-3.560113907E-2,8.760356903E-2,-7.851123810E-3
2.316173985E1,9.821605682E-2,8.934652805E-2,-2.776575089E-2
2.320224104E1,1.132540703E-1,3.251218796E-2,-2.648830414E-3
2.324271089E1,1.636552811E-1,-7.960557938E-3,8.473443985E-2
2.328320115E1,-8.364677429E-3,-7.690477371E-2,6.694555283E-2
2.332369604E1,7.521152496E-3,-5.502653122E-2,-1.417636871E-2
2.336415917E1,-5.760908127E-2,-2.202963829E-2,2.959012985E-2
2.340466125E1,3.523826599E-2,2.001500130E-2,-4.092025757E-2
2.344514880E1,-6.343460083E-2,4.712224007E-3,-4.318189621E-2
2.348567578E1,-1.427316666E-2,-2.562057972E-2,-1.211166382E-2
2.352618781E1,3.502798080E-2,6.337666512E-2,1.358842850E-2
2.356663401E1,1.506805420E-4,-1.326570511E-1,-1.330232620E-2
2.360709610E1,-4.954910278E-2,-2.496182919E-2,-5.835533142E-3
2.364756610E1,-1.341028214E-1,-4.068350792E-2,-3.068780899E-2
2.368806807E1,-9.121656418E-2,-4.006409645E-2,-7.246303558E-2
2.372856854E1,-4.745054245E-2,8.373641968E-2,-4.117441177E-2
2.376905490E1,-4.534721375E-2,9.432911873E-2,-7.347345352E-2
2.380958005E1,-1.364750862E-1,7.821547985E-2,-1.070671082E-1
2.385005328E1,-1.712331772E-1,-2.453410625E-2,-6.521558762E-2
2.389052563E1,3.364267349E-1,1.260361671E-1,2.199435234E-1
2.393102177E1,3.070497513E-2,-2.231121063E-3,-2.288627625E-2
2.397153214E1,-8.373737335E-2,2.799868584E-2,4.629564285E-2
2.401203823E1,2.197742462E-2,-1.178598404E-2,-8.204793930E-2
2.405251396E1,8.553791046E-2,4.947471619E-2,7.207679749E-2
2.409300896E1,3.290271759E-2,4.047858715E-2,7.568120956E-2
2.413349844E1,1.027994156E-1,8.420372009E-2,3.980970383E-2
2.417397708E1,2.238941193E-2,1.968526840E-2,4.535436630E-2
2.421445412E1,4.456758499E-2,-1.096354723E-1,8.302116394E-2
2.425494307E1,2.529692650E-1,1.354229450E-2,8.416414261E-2
2.429545031E1,-7.915163040E-2,-3.469920158E-2,7.135057449E-2
2.433599141E1,-2.219905853E-1,-1.587036848E-1,-9.261465073E-2
2.437641125E1,-1.091976166E-1,3.807353973E-2,-1.536321640E-1
2.441687469E1,-1.294765472E-1,1.421772242E-1,-3.771305084E-2
2.445736412E1,-8.749723434E-2,1.669853926E-1,1.772069931E-2
2.449785557E1,-7.311010361E-2,2.666103840E-2,-8.512544632E-2
2.453834630E1,-7.733154297E-2,9.330153465E-3,-1.168026924E-1
2.457887427E1,7.386732101E-2,-9.060072899E-2,-2.107286453E-2
2.461934844E1,1.169056892E-1,-1.306561232E-1,6.987619400E-2
2.465983787E1,7.666444778E-2,-1.077046394E-1,-2.611589432E-2
2.470035469E1,1.269044876E-1,-6.358373165E-2,9.010648727E-2
2.474083974E1,6.485509872E-2,5.202865601E-2,1.472563744E-1
2.478132193E1,1.527738571E-2,5.304861069E-2,8.893823624E-2
2.482179182E1,-4.361438751E-2,8.555555344E-2,5.936193466E-2
2.486229026E1,-6.837463379E-2,5.933630466E-2,3.512907028E-2
2.490277969E1,-8.158969879E-2,-1.462411880E-2,-4.478645325E-2
2.494333229E1,-1.416883469E-1,1.485407352E-2,-1.329240799E-1
2.498381010E1,-1.851639748E-1,1.033344269E-1,-6.357717514E-2
2.502426214E1,-1.301393509E-1,1.634633541E-1,-3.949165344E-3
2.506474406E1,-4.365873337E-2,1.247314215E-1,8.799648285E-2
2.510522526E1,1.507754326E-1,9.921109676E-2,-5.807590485E-2
2.514571453E1,7.099628448E-2,-1.777135134E-1,-8.369731903E-2
2.518625219E1,4.710049629E-1,-1.274794340E-1,-1.119136810E-2
2.522673724E1,2.394366264E-1,-4.079234600E-2,2.058029175E-1
2.526713510E1,1.495971680E-1,-2.151910067E-1,5.444192886E-2
2.530768787E1,3.863296509E-1,-1.048196554E-1,2.383375168E-2
2.534811526E1,2.703628540E-1,1.201772690E-2,1.973352432E-1
2.538863334E1,7.011508942E-2,-8.224010468E-3,9.608507156E-2
2.542915099E1,-1.832747459E-1,-5.557632446E-2,2.726650238E-2
2.546963714E1,-2.038240433E-2,1.590919495E-2,-1.108293533E-1
2.551012250E1,7.017183304E-2,-6.592190266E-2,-3.469991684E-2
2.555062073E1,-1.107654572E-1,-1.509258747E-1,-1.840353012E-2
2.559111031E1,3.784656525E-3,-5.378890038E-2,-6.065750122E-2
2.563159620E1,1.104545593E-2,1.330486536E-1,-1.513767242E-2
2.567210240E1,-3.076081276E-1,8.834886551E-2,4.890918732E-3
2.571262068E1,-1.643643379E-1,3.028798103E-2,-9.102773666E-2
2.575308823E1,6.795215607E-2,-1.436078548E-2,-2.126216888E-3
2.579354948E1,7.842445374E-2,8.826649189E-2,1.426162720E-1
2.583404646E1,-1.200308800E-1,-1.715064049E-2,2.700567245E-2
2.587454422E1,-5.784463882E-2,2.046632767E-2,-8.023071289E-2
2.591501360E1,-2.107357979E-1,5.112361908E-2,2.248430252E-2
2.595550849E1,-1.418523788E-1,7.444620132E-2,-9.511947632E-3
2.599600412E1,-2.022409439E-2,8.693826199E-2,-6.642675400E-2
2.603651542E1,2.470207214E-2,-2.310121059E-2,-6.778526306E-2
2.607702328E1,-1.042313576E-1,-1.496890783E-1,-3.550767899E-2
2.611743505E1,-2.742004395E-2,-4.330515862E-2,-1.133623123E-1
2.615792391E1,1.547074318E-1,6.372511387E-2,5.616807938E-2
2.619841505E1,8.308410645E-3,2.882564068E-2,8.024883270E-2
2.623892964E1,3.616237640E-2,2.097737789E-2,3.122043610E-2
2.627942646E1,-1.231384277E-2,-8.954763412E-3,-5.585908890E-2
2.631990912E1,1.211094856E-1,-1.243591309E-1,1.991224289E-2
2.636039193E1,5.427217484E-2,1.056587696E-2,-3.192663193E-2
2.640089214E1,-1.482386589E-1,9.897947311E-3,5.071210861E-2
2.644138182E1,4.018115997E-2,3.643786907E-2,-7.130479813E-2
2.648190151E1,7.400846481E-2,1.139390469E-1,8.044719696E-2
2.652238880E1,-6.816434860E-2,3.645849228E-2,-9.899139404E-3
2.656285865E1,-9.757089615E-2,5.389738083E-2,-6.403923035E-4
2.660333307E1,-9.430837631E-2,-5.148983002E-2,-3.361272812E-2
2.664383245E1,4.449701309E-2,-5.626308918E-2,-2.367210388E-2
2.668431516E1,-2.733612061E-2,-1.517426968E-2,-2.630090714E-2
2.672485073E1,2.532005310E-2,-3.264629841E-2,-4.049730301E-2
2.676532792E1,5.710077286E-2,2.042412758E-2,3.903532028E-2
2.680581813E1,1.322603226E-2,1.171956062E-1,1.203846931E-1
2.684631875E1,2.971696854E-2,5.097031593E-2,-4.471731186E-2
2.688678391E1,3.964853287E-2,7.373690605E-3,-3.030014038E-2
2.692722172E1,-9.099006653E-3,-6.446969509E-2,7.688045502E-3
2.696769787E1,4.137992859E-2,-5.928564072E-2,-2.713680267E-3
2.700818750E1,1.315164566E-2,-1.551365852E-2,-6.618928909E-2
2.704873500E1,-2.472734451E-2,8.352923393E-2,1.387596130E-2
2.708920052E1,-6.231975555E-2,-6.204247475E-2,-3.279876709E-2
2.712967391E1,6.355571747E-2,-1.393157244E-1,2.986192703E-2
2.717019896E1,2.018203735E-1,-9.382998943E-2,3.026580811E-2
2.721070495E1,6.685161591E-2,-7.797503471E-2,3.841972351E-2
2.725118078E1,-7.262325287E-2,3.333091736E-3,-3.601074219E-3
2.729166938E1,-5.064725876E-2,1.228419542E-1,-4.587268829E-2
2.733218115E1,4.022312164E-2,2.118848562E-1,4.550790787E-2
2.737262000E1,-2.283334732E-2,1.082725525E-1,3.420448303E-2
2.741312396E1,-1.833486557E-2,-3.774833679E-2,-3.171825409E-2
2.745360776E1,-1.302409172E-1,-4.133439064E-2,-6.443119049E-2
2.749413901E1,-1.270675659E-1,-5.090761185E-2,-1.360659599E-1
2.753464500E1,-6.324243546E-2,-6.160223484E-2,-1.411604881E-1
2.757508979E1,-1.121087074E-1,4.624354839E-2,5.231475830E-2
2.761557917E1,-9.573650360E-2,-3.266561031E-2,-2.090883255E-2
2.765612787E1,9.099006653E-2,6.380593777E-2,3.573417664E-2
2.769661688E1,6.409502029E-2,4.033780098E-2,7.977151871E-2
2.773702219E1,8.450460434E-2,5.971300602E-2,6.528282166E-2
2.777751250E1,5.070209503E-3,-1.150683165E-1,1.851463318E-2
2.781801724E1,-9.831476212E-2,-9.157228470E-2,-1.164722443E-2
2.785850761E1,-4.384374619E-2,1.538530588E-1,-4.516315460E-2
2.789899797E1,5.453348160E-2,1.477428675E-1,4.589128494E-2
2.793950120E1,2.577924728E-2,1.058759689E-1,1.009764671E-1
2.797998469E1,3.880453110E-2,1.468145847E-2,-4.376840591E-2
2.802051860E1,-1.436281204E-2,-1.129212379E-1,-3.338193893E-2
2.806098328E1,-7.781982422E-2,-1.469391584E-1,1.574325562E-2
2.810144818E1,4.867219925E-2,-5.553066730E-2,3.244161606E-2
2.814193860E1,4.473400116E-2,3.604543209E-2,1.327562332E-2
2.818244599E1,-3.874301910E-3,4.460239410E-2,-5.158424377E-3
2.822293766E1,3.256797791E-3,7.258236408E-2,-2.753496170E-2
2.826342182E1,-3.901433945E-2,-2.063870430E-3,-2.779006958E-3
2.830391823E1,-2.156543732E-2,-8.395433426E-3,-4.788303375E-2
2.834440172E1,-1.571989059E-2,-1.928758621E-2,-2.368927002E-2
2.838485167E1,1.889801025E-2,4.434347153E-3,-3.332614899E-3
2.842536438E1,1.198935509E-1,7.320427895E-2,9.997844696E-3
2.846587834E1,-2.741765976E-2,-3.622293472E-2,4.938411713E-2
2.850644214E1,-8.436584473E-2,-3.597331047E-2,-4.836750031E-2
2.854690037E1,-2.603244781E-2,3.321754932E-2,-8.069801331E-2
2.858728787E1,-2.663946152E-2,6.095945835E-2,-1.263380051E-2
2.862777172E1,3.286409378E-2,4.045712948E-2,1.880216599E-2
2.866826125E1,5.832862854E-2,-8.439195156E-2,6.374502182E-2
2.870876641E1,7.449483871E-2,-6.464695930E-2,9.669542313E-2
2.874929834E1,-1.650857925E-2,-3.637468815E-2,-5.409717560E-3
2.878980365E1,-6.732130051E-2,-3.898978233E-3,-2.490282059E-2
2.883028422E1,-4.858970642E-3,3.067910671E-2,-1.171684265E-2
2.887078125E1,6.311082840E-2,4.747164249E-2,2.278900146E-2
2.891126719E1,3.492546082E-2,4.809617996E-3,3.408765793E-2
2.895176292E1,-1.936101913E-2,-9.467601776E-3,-4.672527313E-3
2.899224234E1,-6.751966476E-2,2.582192421E-3,-5.222606659E-2
2.903275927E1,-5.273103714E-2,2.779853344E-2,-4.025363922E-2
2.907321500E1,-1.328945160E-3,1.567852497E-2,-6.730079651E-3
2.911368813E1,1.726293564E-2,-2.124297619E-2,5.817413330E-5
2.915419068E1,-2.909183502E-3,-1.244401932E-2,6.621360779E-3
2.919469490E1,-5.067348480E-3,-9.739875793E-3,-1.945447922E-2
2.923515667E1,-8.864402771E-3,9.101033211E-3,-1.406192780E-3
2.927566500E1,-9.650707245E-3,-1.366615295E-3,-2.614498138E-3
2.931621297E1,-2.913951874E-3,1.457524300E-2,-1.198005676E-2
2.935667016E1,-5.823612213E-3,1.384127140E-2,5.658149719E-3
2.939712219E1,6.429672241E-3,-2.770781517E-3,2.948141098E-2
2.943760834E1,3.458976746E-2,-1.269280910E-2,-2.858161926E-3
2.947809146E1,2.571630478E-2,2.991580963E-2,-2.164602280E-2
2.951860167E1,-2.967691422E-2,4.057884216E-3,1.981878281E-2
2.955910042E1,-4.082727432E-2,-2.160894871E-2,8.554458618E-3
2.959959396E1,-1.702308655E-4,-3.544890881E-2,-8.605146408E-2
2.964004260E1,3.601074219E-2,-7.985711098E-3,-2.927494049E-2
2.968056740E1,-3.249359131E-2,1.352477074E-2,4.873085022E-2
2.972104886E1,-1.293325424E-2,-7.103800774E-3,4.799556732E-2
2.976152667E1,7.399082184E-3,1.236903667E-2,1.854228973E-2
2.980203927E1,-1.407098770E-2,1.384496689E-2,6.687641144E-3
2.984252745E1,-2.455377579E-2,-5.192065239E-2,3.382205963E-3
2.988301047E1,6.316423416E-2,8.577930927E-2,-3.565883636E-2
2.992352802E1,-2.929544449E-2,-1.297127008E-1,3.144645691E-2
2.996402886E1,-3.466558456E-2,2.931892872E-2,-1.357221603E-2
3.000452255E1,5.177211761E-2,2.623319626E-3,-5.843448639E-2
3.004497386E1,-5.673360825E-2,6.434631348E-2,6.144809723E-2
3.008545714E1,3.783655167E-2,2.511814833E-1,1.021904945E-1
3.012595354E1,-7.873916626E-2,-3.951764107E-2,-1.656818390E-2
3.016641182E1,-6.289911270E-2,-5.054903030E-2,-1.028389931E-1
3.020690604E1,1.650476456E-2,8.239579201E-2,-1.038908958E-1
3.024739391E1,-3.394842148E-2,9.386992455E-2,9.853363037E-3
3.028788334E1,-7.171630859E-3,-6.306838989E-2,4.594898224E-2
3.032838943E1,1.034703255E-1,-1.046673059E-1,-3.399801254E-2
3.036885443E1,9.006738663E-2,-2.144900560E-1,9.257793427E-3
3.040935891E1,7.679939270E-2,-4.257524014E-2,4.926824570E-2
3.044985209E1,1.790437698E-1,1.126142740E-1,8.833026886E-2
3.049035912E1,6.887865067E-2,3.362882137E-2,1.259078979E-1
3.053083271E1,6.130933762E-2,6.894814968E-2,2.858209610E-2
3.057138026E1,-5.241250992E-2,-4.048907757E-2,-2.772235870E-2
3.061182969E1,-2.123870850E-1,-7.580089569E-2,-6.662416458E-2
3.065233208E1,-5.476856232E-2,-2.582955360E-2,-1.515722275E-1
3.069281427E1,-5.046081543E-2,-1.677918434E-2,-5.890464783E-2
3.073330490E1,-9.170818329E-2,-1.780486107E-2,1.849937439E-2
3.077378360E1,-3.964424133E-2,2.860467434E-1,3.213167191E-2
3.081427698E1,1.085038185E-1,1.717776060E-1,-1.336050034E-2
3.085477854E1,8.826160431E-2,9.566855431E-2,1.086950302E-1
3.089523172E1,1.326565742E-1,-1.033697128E-1,5.539989471E-2
3.093574271E1,-8.970260620E-3,-1.613782644E-1,6.355571747E-2
3.097624172E1,-8.209419250E-2,-5.806410313E-2,-5.288076401E-2
3.101677224E1,-7.651567459E-2,-1.361942291E-2,-1.004781723E-1
3.105726188E1,-9.854316711E-2,-3.263354301E-2,-1.535320282E-2
3.109767057E1,1.673364639E-2,8.520364761E-3,6.640911102E-3
3.113816016E1,1.585817337E-2,1.356101036E-2,-7.321834564E-3
3.117864979E1,-3.605604172E-2,3.272175789E-3,1.998281479E-2
3.121917932E1,3.887844086E-2,2.686059475E-2,-3.024053574E-2
3.125968000E1,6.067800522E-2,9.279370308E-3,1.484298706E-2
3.130015031E1,8.928775787E-3,-4.006624222E-3,4.409694672E-2
3.134062828E1,1.879978180E-2,-1.299476624E-2,-2.568721771E-3
3.138110485E1,-1.425218582E-2,-2.284884453E-3,-9.651660919E-3
3.142161089E1,-9.061717987E-2,9.106993675E-3,-3.424358368E-2
3.146215240E1,-3.139305115E-2,-7.371425629E-3,-9.352254868E-2
3.150260505E1,-4.325389862E-3,5.298411846E-2,5.610227585E-2
3.154311292E1,7.003068924E-2,3.667318821E-2,2.354669571E-2
3.158357646E1,2.862405777E-2,7.748603821E-6,9.421348572E-3
3.162407698E1,-6.085824966E-2,-8.697593212E-2,-1.374244690E-2
3.166455156E1,-6.198883057E-6,-2.558469772E-2,-1.188516617E-2
3.170504396E1,2.496910095E-2,3.866326809E-2,2.719640732E-2
3.174554005E1,4.346847534E-3,3.780925274E-2,-5.202293396E-4
3.178605750E1,-1.798772812E-2,1.259624958E-2,-2.439498901E-2
3.182656391E1,-1.997137070E-2,-1.858472824E-3,-1.017093658E-2
3.186695813E1,-6.330013275E-3,9.141564369E-3,-2.239704132E-3
3.190744787E1,1.942825317E-2,-2.827501297E-2,-5.826950073E-4
3.194793625E1,-4.173946381E-2,-7.226455212E-2,7.985401154E-2
3.198846662E1,2.923903465E-1,1.512757540E-1,-2.677540779E-1
3.202895417E1,-1.524968147E-1,-2.255570889E-2,2.007565498E-1
3.206944188E1,-4.655566216E-1,-1.154018641E-1,1.525945663E-1
3.210992818E1,6.001243591E-1,1.002610922E-1,-2.404961586E-1
3.215044094E1,-1.695709229E-1,-8.823037148E-2,1.366286278E-1
3.219092125E1,2.486228943E-2,6.898379326E-2,3.704743385E-1
3.223139891E1,-9.111018181E-1,-5.735253096E-1,1.382999897E0
3.227189510E1,3.451013565E-2,3.804745674E-1,-9.990677834E-1
3.231241307E1,-7.933735847E-1,3.445230722E-1,-9.173216820E-1
3.235288703E1,-7.061882019E-1,-8.548665047E-1,3.930120468E-1
3.239336078E1,-6.315822601E-1,-1.217876554E0,2.787122726E-1
3.243385011E1,7.969298363E-1,-2.844042778E-1,3.384666443E-1
3.247435182E1,1.112519264E0,2.542820573E-1,-6.839871407E-1
3.251486167E1,3.963851929E-1,2.228289843E-1,-3.169884682E-1
3.255536297E1,4.794650078E-1,2.528324127E-1,3.120989799E-1
3.259583953E1,8.780455589E-1,2.074377537E-1,1.057963371E-1
3.263635354E1,4.234414101E-1,-1.863952875E-1,3.746576309E-1
3.267684719E1,-2.005577087E-2,-2.397322059E-1,1.314330101E-1
3.271733729E1,1.181349754E-1,2.385645211E-1,-6.075620651E-2
3.275779979E1,-4.004526138E-2,1.837978363E-1,-3.380827904E-1
3.279823474E1,-1.773891449E-1,6.187158823E-2,-2.362008095E-1
3.283875516E1,-1.930084229E-1,1.598751545E-1,-2.637391090E-1
3.287926047E1,-5.353307724E-2,-4.235047102E-2,9.683132172E-3
3.291973646E1,-2.043781281E-1,-3.435158730E-2,-8.612155914E-2
3.296023990E1,-2.557935715E-1,2.045772076E-1,-3.877220154E-1
3.300075162E1,-7.362365723E-2,2.093484402E-1,-3.666000366E-1
3.304120813E1,-1.176753044E-1,1.617127657E-2,-1.384420395E-1
3.308169974E1,2.126436234E-1,2.443430424E-1,-4.791927338E-2
3.312220031E1,2.491388321E-1,6.267088652E-2,1.123423576E-1
3.316267693E1,-3.658881187E-1,-1.497485042E-1,8.374357224E-2
3.320316537E1,-2.663474083E-1,-3.650307655E-2,1.567554474E-2
3.324366167E1,6.252145767E-2,9.318649769E-2,-1.694631577E-1
3.328416719E1,4.127979279E-2,-3.507375717E-3,5.457115173E-2
3.332468417E1,-1.037683487E-1,-8.168709278E-2,1.494574547E-1
3.336511495E1,2.812528610E-2,-4.636585712E-2,6.450080872E-2
3.340561495E1,1.401033401E-1,-5.432391167E-2,8.489608765E-2
3.344614172E1,5.521821976E-2,-5.105507374E-2,2.002954483E-2
3.348662334E1,7.220840454E-2,2.038407326E-2,-1.443362236E-1
3.352705703E1,1.588220596E-1,2.449259758E-1,-3.336801529E-1
3.356752531E1,2.856307030E-1,2.813204527E-1,-1.184530258E-1
3.360801448E1,2.828502655E-2,9.114849567E-2,-1.079487801E-1
3.364856010E1,9.691238403E-3,9.626424313E-2,7.763957977E-2
3.368905604E1,-6.095695496E-2,-3.146469593E-2,2.282996178E-1
3.372954146E1,-3.195705414E-1,-2.431725264E-1,3.713231087E-1
3.377003443E1,-1.189498901E-1,-2.008937597E-1,3.097620010E-1
3.381053375E1,1.050710678E-2,-3.194961548E-1,6.311903000E-1
3.385099115E1,-1.709079742E-1,-3.647587299E-1,3.781895638E-1
3.389148177E1,1.723451614E-1,1.993966103E-2,-8.904600143E-2
3.393197443E1,-3.636264801E-2,3.604863882E-1,-3.889565468E-1
3.397245964E1,-3.215322495E-1,2.987127304E-1,-5.896172523E-1
3.401297464E1,-4.553985596E-1,7.693004608E-2,-7.796978951E-1
3.405345875E1,-4.793949127E-1,3.914690018E-2,-4.121832848E-1
3.409394318E1,-2.784738541E-1,1.635657549E-1,-1.237845421E-1
3.413443276E1,6.363010406E-2,1.444922686E-1,-4.440212250E-2
3.417491823E1,6.438732147E-3,-9.707021713E-2,6.668758392E-2
3.421539427E1,9.146595001E-2,-2.289397717E-1,3.292279243E-1
3.425591234E1,4.294180870E-1,-1.668953896E-1,3.610010147E-1
3.429642849E1,4.354825020E-1,-1.429738998E-1,4.046673775E-1
3.433685860E1,2.742667198E-1,-1.651754379E-1,3.336372375E-1
3.437732990E1,1.443791389E-1,-1.097881794E-1,1.512989998E-1
3.441783828E1,5.668735504E-2,-1.046435833E-1,-3.684282303E-2
3.445832781E1,-5.805110931E-2,-2.478313446E-2,-1.010646820E-1
3.449885459E1,-9.482002258E-2,3.937506676E-2,-1.671919823E-1
3.453935943E1,-1.110224724E-1,4.566383362E-2,-1.785402298E-1
3.457982901E1,-7.863616943E-2,1.032233238E-2,-1.211729050E-1
3.462030000E1,-3.312301636E-2,-1.357173920E-2,-2.110958099E-2
3.466078943E1,6.667709351E-2,-5.781316757E-2,2.281379700E-2
3.470129906E1,1.023845673E-1,-9.428548813E-2,1.032795906E-1
3.474177386E1,9.669828415E-2,-8.686137199E-2,9.477567673E-2
3.478226229E1,1.035308838E-1,-2.942848206E-2,7.887077332E-2
3.482276599E1,4.133605957E-2,-2.345013618E-2,4.731130600E-2
3.486325932E1,-1.251506805E-2,-2.352237701E-3,-2.143478394E-2
3.490374875E1,-1.049423218E-2,-1.367902756E-2,-7.138872147E-2
3.494423162E1,-2.544069290E-2,-7.393360138E-4,-3.869724274E-2
3.498473172E1,-6.593704224E-3,2.789974213E-3,-2.956247330E-2
3.502525209E1,1.202774048E-2,-2.926301956E-2,1.115798950E-4
3.506568422E1,4.024076462E-2,-2.616262436E-2,4.589223862E-2
3.510623068E1,3.872203827E-2,-2.444815636E-2,3.995800018E-2
3.514672136E1,3.896951675E-2,-1.429057121E-2,2.689313889E-2
3.518711078E1,2.603530884E-3,-3.077912331E-2,-3.246164322E-2
3.522760115E1,-1.506328583E-2,-8.619308472E-3,-2.627134323E-2
3.526812453E1,8.926868439E-3,1.915979385E-2,-4.687309265E-3
3.530861610E1,6.976127625E-3,-6.146430969E-3,-5.435943604E-3
3.534912719E1,2.029752731E-2,-4.291057587E-3,2.906799316E-3
3.538963438E1,2.851009369E-3,-3.778696060E-2,-1.302242279E-2
3.543009047E1,1.955032349E-4,-1.571464539E-2,4.657268524E-3
3.547059068E1,1.650953293E-2,-1.847982407E-3,1.601552963E-2
3.551108380E1,-1.421499252E-2,-7.127285004E-3,-1.207113266E-2
3.555157682E1,1.235103607E-2,1.974058151E-2,-2.757549286E-3
3.559205615E1,-3.697490692E-2,-2.750563622E-2,-3.247404099E-2
3.563256948E1,7.448196411E-4,-7.758140564E-4,-1.956176758E-2
3.567309271E1,-9.944915771E-3,6.222486496E-3,-9.516239166E-3
3.571358234E1,2.374124527E-2,-2.509570122E-2,1.503133774E-2
3.575400844E1,8.717536926E-2,-1.920175552E-2,5.210781097E-2
3.579450557E1,3.520393372E-2,-2.448201180E-2,4.566526413E-2
3.583500552E1,1.577854156E-3,8.347034454E-4,1.168251038E-4
3.587548599E1,-4.457473755E-2,3.153824806E-2,-4.975461960E-2
3.591598500E1,-8.227920532E-2,1.142239571E-2,-7.206964493E-2
3.595648000E1,-3.156900406E-2,-2.465391159E-2,-5.793476105E-2
3.599694287E1,1.108646393E-2,-6.428480148E-3,-1.993179321E-4
3.603742505E1,4.614496231E-2,-1.238679886E-2,4.553699493E-2
3.607790594E1,5.583238602E-2,-6.350278854E-3,6.941890717E-2
3.611840146E1,2.198839188E-2,5.121231079E-4,5.011463165E-2
3.615888938E1,2.599668503E-2,-4.588842392E-3,5.212306976E-3
3.619940901E1,-1.999187469E-2,-3.962516785E-3,-1.245450974E-2
3.623989834E1,-2.527570724E-2,-6.262779236E-3,-6.932163239E-2
3.628037948E1,-5.028009415E-2,-6.435632706E-3,-4.325628281E-2
3.632086959E1,-3.508996964E-2,1.886606216E-3,-4.032945633E-2
3.636135521E1,7.124423981E-3,1.683926582E-2,5.959510803E-3
3.640185834E1,2.242898941E-2,2.552986145E-3,4.721879959E-2
3.644238510E1,4.696083069E-2,-3.847599030E-2,2.478313446E-2
3.648289328E1,1.871156693E-2,-1.142382622E-2,2.212524414E-4
3.652335578E1,-1.310825348E-3,-7.251024246E-3,-1.253128052E-3
3.656382318E1,-1.940202713E-2,9.439468384E-3,-1.447725296E-2
3.660430901E1,-3.401708603E-2,1.647233963E-2,-3.026151657E-2
3.664479677E1,-2.882051468E-2,-6.281614304E-3,-3.892660141E-2
3.668527172E1,-5.037307739E-3,-1.250743866E-3,2.905368805E-3
3.672581537E1,2.220058441E-2,3.696918488E-3,3.657341003E-4
3.676631771E1,-4.629278183E-2,3.559780121E-2,-1.608848572E-2
3.680679807E1,8.851051331E-3,4.891395569E-3,-1.462411880E-2
3.684728709E1,5.311298370E-2,1.237869263E-3,4.759263992E-2
3.688777604E1,2.815294266E-2,-1.786041260E-2,2.479743958E-2
3.692826500E1,-8.301734924E-3,-3.698515892E-2,1.291370392E-2
3.696871531E1,1.523017883E-3,-1.599287987E-2,1.746702194E-2
3.700925818E1,-1.183032990E-3,-9.313106537E-3,5.396366119E-3
3.704969047E1,-6.525993347E-2,-1.860380173E-2,-4.820394516E-2
3.709017844E1,-1.323223114E-2,3.748607635E-2,-3.938341141E-2
3.713061802E1,-4.778385162E-3,1.876831055E-2,-3.981590271E-4
3.717117938E1,6.436824799E-3,8.895397186E-4,3.476762772E-2
3.721164078E1,7.238578796E-2,-2.135276794E-2,2.081155777E-2
3.725212380E1,1.895380020E-2,-3.327131271E-2,2.904415131E-2
3.729264193E1,-1.422119141E-2,-1.168823242E-2,-1.215267181E-2
3.733311104E1,-4.641962051E-2,1.617670059E-3,-3.687047958E-2
3.737360636E1,-2.493715286E-2,1.840949059E-2,-2.505826950E-2
3.741412052E1,2.451419830E-3,1.495862007E-2,-1.795864105E-2
3.745459563E1,1.587867737E-4,-1.032352448E-2,2.644062042E-2
3.749507281E1,7.557868958E-3,-1.150846481E-2,1.563882828E-2
3.753561990E1,1.335048676E-2,-6.294250488E-3,1.319265366E-2
3.757611078E1,-6.142616272E-3,-1.751184464E-3,-7.173538208E-3
3.761663334E1,-7.388114929E-3,3.575325012E-3,-1.748418808E-2
3.765699557E1,-9.339332581E-3,-2.407884598E-2,-2.165317535E-2
3.769748422E1,-1.088905334E-2,-4.238843918E-3,-5.226135254E-4
3.773797292E1,7.566928864E-3,1.911139488E-2,-2.847194672E-3
3.777846162E1,1.987552643E-2,2.654075623E-2,3.119802475E-2
3.781903104E1,-9.859085083E-3,-7.209539413E-3,1.112890244E-2
3.785950344E1,1.835298538E-2,-1.301622391E-2,-4.597902298E-2
3.789999214E1,-5.343866348E-2,-2.153754234E-2,-5.706310272E-3
3.794049000E1,-2.259778976E-2,-2.366065979E-2,-2.690696716E-2
3.798097052E1,8.793354034E-3,-1.269364357E-2,-3.463268280E-3
3.802143391E1,2.069807053E-2,5.969762802E-3,1.347541809E-2
3.806194349E1,5.227661133E-2,6.340479851E-2,2.515029907E-2
3.810242136E1,-1.149272919E-2,8.632183075E-3,-1.016283035E-2
3.814291021E1,-3.845977783E-2,-2.699947357E-2,-3.515863419E-2
3.818341115E1,-3.246736526E-2,-3.814029694E-2,-3.880214691E-2
3.822389604E1,1.020765305E-2,-1.966714859E-3,-4.108905792E-3
3.826440578E1,2.476644516E-2,8.427143097E-3,2.800464630E-2
3.830488490E1,6.443977356E-3,4.787445068E-3,1.757526398E-2
3.834536787E1,3.749370575E-3,-1.944780350E-3,1.561164856E-3
3.838583125E1,-6.804466248E-4,2.643585205E-3,-4.240989685E-3
3.842641625E1,-4.790782928E-3,8.998870850E-3,-1.061201096E-2
3.846684068E1,-2.142572403E-2,-1.468014717E-2,-2.923679352E-2
3.850732068E1,-5.780220032E-3,6.382465363E-4,6.695270538E-3
3.854781026E1,7.452964783E-4,8.247375488E-3,3.386020660E-3
3.858829995E1,6.003856659E-3,-1.497268677E-3,1.537752151E-2
3.862878958E1,-9.435176849E-3,-5.249738693E-3,-3.004550934E-2
3.866929224E1,-1.282310486E-2,1.797199249E-3,-1.276588440E-2
3.870980557E1,3.952980042E-4,-5.395412445E-3,-4.811286926E-4
3.875028386E1,2.099084854E-2,2.898931503E-3,6.665229797E-3
3.879076104E1,-6.316184998E-3,1.250028610E-3,-4.919528961E-3
3.883126755E1,1.461172104E-2,-4.302263260E-3,-8.847713470E-3
3.887178042E1,-1.345157623E-3,-2.210855484E-3,2.831935883E-3
3.891225734E1,2.985954285E-3,-1.190328598E-2,1.089096069E-3
3.895271443E1,-4.550933838E-3,1.008343697E-2,-1.969337463E-4
3.899321313E1,-8.917331696E-3,-2.027511597E-3,2.861022949E-3
3.903372948E1,9.881973267E-3,-9.276866913E-3,1.263618469E-4
3.907419000E1,-2.194881439E-3,-1.934528351E-3,-1.877737045E-2
3.911469026E1,4.872322083E-3,1.019716263E-3,-9.704589844E-3
3.915517729E1,-5.825519562E-3,-3.369331360E-3,1.623296738E-2
3.919567484E1,9.931087494E-3,1.420974731E-3,-4.324913025E-3
3.923619292E1,-5.900382996E-3,-7.567167282E-3,-8.769035339E-4
3.927666005E1,9.907722473E-3,-1.308274269E-2,2.815246582E-3
3.931710089E1,-4.309654236E-3,-8.224964142E-3,-3.778934479E-3
3.935759958E1,-1.172924042E-2,8.641958237E-3,9.260177612E-4
3.939809823E1,-3.205347061E-2,-1.823520660E-2,-2.813863754E-2
3.943860219E1,-3.638887405E-2,1.077675819E-2,-2.141332626E-2
3.947909641E1,-1.772737503E-2,-2.737951279E-2,-2.500534058E-2
3.951962162E1,-2.344036102E-2,-1.216578484E-2,2.212524414E-4
3.956010255E1,2.614784241E-2,-2.198719978E-2,9.092330933E-3
3.960055203E1,2.565240860E-2,1.667761803E-2,3.326272964E-2
3.964104682E1,1.430559158E-2,3.687882423E-2,1.209974289E-2
3.968154406E1,2.327442169E-3,2.191972733E-2,5.309581757E-3
3.972202896E1,9.720325470E-3,7.929801941E-3,-9.093761444E-3
3.976251057E1,-4.894733429E-3,-1.789093018E-2,-2.616548538E-2
3.980300641E1,-1.658201218E-2,-2.291512489E-2,-7.484912872E-3
3.984351162E1,8.249282837E-4,-2.431416512E-2,-3.139495850E-3
3.988398313E1,-4.649639130E-3,-4.676580429E-3,2.108812332E-2
3.992447521E1,5.882740021E-3,2.695870399E-2,8.688926697E-3
3.996496141E1,-8.351325989E-3,2.135467529E-2,-8.040428162E-3
4.000548334E1,-1.235389709E-2,-7.428646088E-3,-1.920413971E-2
4.004599219E1,-6.041526794E-3,-1.973032951E-2,-2.875804901E-2
4.008648906E1,1.405143738E-2,-1.422357559E-2,5.379676819E-3
4.012698255E1,2.146720886E-3,1.485824585E-3,3.780841827E-3
4.016747214E1,-1.301908493E-2,1.523399353E-2,7.353305817E-3
4.020791172E1,2.017021179E-3,2.101683617E-2,2.412557602E-2
4.024837604E1,3.600502014E-2,-1.485395432E-2,1.297855377E-2
4.028890078E1,2.448654175E-2,-1.589894295E-2,1.365995407E-2
4.032936984E1,-2.194404602E-3,-1.438450813E-2,-1.312971115E-2
4.036982787E1,-2.560615540E-3,-3.298997879E-3,-1.499176025E-3
4.041035360E1,-3.346014023E-2,1.425027847E-2,-1.089334488E-2
4.045087052E1,-2.843713760E-2,1.401710510E-2,-2.918338776E-2
4.049135094E1,-9.590625763E-3,1.003408432E-2,-1.388931274E-2
4.053184615E1,1.547336578E-3,-6.496906281E-3,1.242160797E-3
4.057232068E1,1.927137375E-2,-1.162409782E-2,1.253366470E-2
4.061281063E1,2.820158005E-2,-3.195309639E-2,1.533126831E-2
4.065330047E1,1.647853851E-2,-2.470397949E-2,1.426744461E-2
4.069378281E1,2.252578735E-3,2.672433853E-3,5.440711975E-3
4.073428375E1,-1.800107956E-2,2.907204628E-2,-3.432750702E-3
4.077475307E1,-3.998756409E-3,1.665568352E-2,-2.519702911E-2
4.081524610E1,-1.569318771E-2,-8.228063583E-3,-2.218055725E-2
4.085576188E1,-3.156805038E-2,-1.239633560E-2,-3.009033203E-2
4.089624104E1,-2.108573914E-2,2.709531784E-2,7.335186005E-3
4.093672750E1,2.995157242E-2,9.614706039E-3,3.168582916E-3
4.097721740E1,4.036808014E-2,-4.328417778E-2,9.521484375E-3
4.101770729E1,2.503919601E-2,-5.148839951E-2,2.096509933E-2
4.105819714E1,2.620601654E-2,-3.842830658E-3,4.448699951E-2
4.109866432E1,-2.880573273E-3,1.495814323E-2,1.664400101E-2
4.113912958E1,-8.442974091E-2,1.291632652E-2,-2.652645111E-2
4.117967886E1,-8.239030838E-2,3.777694702E-2,-1.167697906E-1
4.122019417E1,-3.212547302E-2,2.095603943E-2,-9.240531921E-2
4.126065224E1,2.414560318E-2,-1.291680336E-2,2.096176147E-2
4.130116578E1,1.191725731E-1,-2.685713768E-2,7.799768448E-2
4.134161412E1,3.649282455E-2,-2.878856659E-2,1.120028496E-1
4.138207625E1,1.609706879E-2,-1.737356186E-3,4.177904129E-2
4.142262610E1,-5.084991455E-3,1.382708549E-2,-2.316808701E-2
4.146309318E1,-6.800413132E-2,5.612850189E-3,-6.999778748E-2
4.150359901E1,-6.090354919E-2,-2.340197563E-2,-1.018462181E-1
4.154412021E1,-3.657865524E-2,-8.314847946E-3,-6.214952469E-2
4.158458276E1,2.363300323E-2,-5.205392838E-3,2.521848679E-2
4.162506584E1,3.372526169E-2,3.232479095E-3,7.962512970E-2
4.166554313E1,5.850458145E-2,-3.882646561E-3,5.640316010E-2
4.170607016E1,1.165819168E-2,-5.360126495E-3,4.043531418E-2
4.174658172E1,2.837657928E-3,1.346588135E-3,-2.546501160E-2
4.178697490E1,-2.998733521E-2,-4.304170609E-3,-4.902362823E-2
4.182746469E1,-5.166387558E-2,1.399016380E-2,-5.240345001E-2
4.186796787E1,-3.884983063E-2,2.180457115E-2,-1.758956909E-2
4.190847615E1,-1.577758789E-2,2.935171127E-3,-5.813598633E-3
4.194897162E1,1.923227310E-2,-8.608579636E-3,3.922462463E-3
4.198946974E1,3.626108170E-2,-2.111744881E-2,2.933502197E-2
4.202999620E1,1.169729233E-2,-1.998496056E-2,2.354955673E-2
4.207046401E1,1.077413559E-2,1.362895966E-2,1.158761978E-2
4.211088266E1,-3.421497345E-2,6.103277206E-3,-1.648521423E-2
4.215139104E1,-2.371883392E-2,5.351781845E-3,-3.345394135E-2
4.219192266E1,-1.869869232E-2,-1.186561584E-2,-1.985692978E-2
4.223241188E1,-6.253242493E-3,-2.664065361E-2,-7.684230804E-3
4.227288443E1,8.004188538E-3,1.258659363E-2,2.882337570E-2
4.231338641E1,3.092908859E-2,6.990432739E-3,3.784275055E-2
4.235388484E1,2.946853638E-3,5.801200867E-3,3.793716431E-3
4.239435432E1,-2.026844025E-2,-1.216530800E-2,-2.603006363E-2
4.243484037E1,1.058673859E-2,-8.164167404E-3,-2.702808380E-2
4.247534886E1,8.893013000E-4,-5.812644958E-4,-2.439022064E-3
4.251587714E1,-2.459907532E-2,1.734042168E-2,5.175113678E-3
4.255637323E1,-4.379749298E-3,1.524090767E-2,-2.136135101E-2
4.259683485E1,-1.239299774E-3,-6.184101105E-3,7.044315338E-3
4.263726380E1,-4.602909088E-3,-1.975178719E-2,-3.404617310E-3
4.267775745E1,-1.225471497E-3,-8.054494858E-3,-9.535312653E-3
4.271825474E1,-1.412057877E-2,-5.280494690E-3,3.139972687E-3
4.275875115E1,2.352666855E-2,3.159046173E-4,-1.225471497E-4
4.279925922E1,-1.101112366E-2,-2.621936798E-2,-1.621246338E-3
4.283975214E1,-2.667093277E-2,4.284024239E-2,-2.077150345E-2
4.288024000E1,1.579523087E-2,5.975484848E-3,-2.529621124E-3
4.292073854E1,-3.804683685E-3,-4.701375961E-3,7.953166962E-3
4.296122360E1,-2.112865448E-3,5.399227142E-3,1.483488083E-2
4.300173880E1,1.920700073E-2,5.610227585E-3,2.295970917E-3
4.304221854E1,2.376556396E-3,-2.546572685E-2,1.003503799E-2
4.308269938E1,2.614307404E-2,-3.934621811E-3,-1.121854782E-2
4.312319110E1,-1.419353485E-2,8.938312531E-4,5.311965942E-3
4.316367568E1,-2.827453613E-2,1.991605759E-2,-3.022813797E-2
4.320416453E1,-2.240514755E-2,2.358961105E-2,-3.125524521E-2
4.324466141E1,-2.929687500E-2,-6.999731064E-3,1.526832581E-3
4.328514537E1,3.994846344E-2,-4.294872284E-2,1.568412781E-2
4.332561656E1,3.664779663E-2,-3.739643097E-2,3.526067734E-2
4.336609703E1,-3.148078918E-3,-1.615428925E-2,3.255462646E-2
4.340662120E1,8.541584015E-3,2.970814705E-2,2.293586731E-3
4.344712865E1,-1.305818558E-2,1.345896721E-2,-2.237892151E-2
4.348761917E1,-4.173374176E-2,1.106500626E-3,-4.529857635E-2
4.352805682E1,-4.471921921E-2,-5.947589874E-3,-6.388044357E-2
4.356854724E1,2.412462234E-2,-6.270408630E-5,1.855087280E-2
4.360907646E1,2.712869644E-2,-1.908874512E-2,4.745674133E-2
4.364956693E1,1.641893387E-2,9.026288986E-3,1.148462296E-2
4.369003302E1,-1.667881012E-2,6.055831909E-4,2.794742584E-3
4.373051484E1,1.914024353E-3,-1.200675964E-3,-2.867555618E-2
4.377104724E1,-7.968902588E-3,5.310773849E-3,-2.925109863E-2
4.381152766E1,-2.056646347E-2,8.316755295E-3,-1.574277878E-2
4.385199255E1,7.162094116E-4,-3.642082214E-3,1.083135605E-2
4.389249271E1,5.330562592E-3,-6.798505783E-3,1.340770721E-2
4.393299474E1,-9.333610535E-3,8.156538010E-3,8.093357086E-3
4.397350896E1,-1.204967499E-3,-1.041436195E-2,-8.559226990E-3
4.401397745E1,2.012300491E-2,-8.297681808E-3,-5.952835083E-3
4.405446537E1,-1.494359970E-2,2.220869064E-3,1.162052155E-3
4.409492610E1,-2.230215073E-2,1.215267181E-2,-1.130247116E-2
4.413541630E1,8.597373962E-3,-4.396677017E-3,-9.202480316E-3
4.417599240E1,9.235382080E-3,-2.455925941E-2,9.352684021E-3
4.421646667E1,8.608341217E-3,-5.925178528E-3,-8.850097656E-3
4.425695682E1,-3.809833527E-2,-5.973100662E-3,-1.750612259E-2
4.429744698E1,2.854299545E-2,2.852916718E-3,1.832056046E-2
4.433787610E1,-5.536079407E-4,-1.535606384E-2,1.621770859E-2
4.437835750E1,1.525354385E-2,3.726482391E-3,-2.746582031E-3
4.441887245E1,3.378391266E-3,1.562404633E-2,2.278327942E-3
4.445934281E1,-1.021099091E-2,-1.396036148E-2,-2.460336685E-2
4.449983990E1,-1.366615295E-2,1.682281494E-3,-3.427457809E-2
4.454034771E1,-7.373809814E-3,-3.474187851E-2,-1.010799408E-2
4.458081917E1,3.602027893E-3,-2.004265785E-2,1.397562027E-2
4.462133448E1,-1.237916946E-2,4.475355148E-3,5.571842194E-3
4.466182104E1,-1.393699646E-2,1.395916939E-2,4.316329956E-3
4.470229682E1,9.434700012E-3,-1.575946808E-4,9.911060333E-3
4.474277797E1,-7.008075714E-3,-3.222942352E-3,-1.406574249E-2
4.478329693E1,1.079845428E-2,3.626918793E-2,5.568981171E-3
4.482377834E1,1.143407822E-2,-3.229618073E-3,9.934425354E-3
4.486426693E1,3.217077255E-2,2.109980583E-2,1.579809189E-2
4.490473016E1,-1.122856140E-2,-1.390695572E-2,-4.095554352E-3
4.494530526E1,-1.679134369E-2,-2.034997940E-2,-2.279281616E-2
4.498576880E1,-2.181100845E-2,-3.372836113E-2,-2.387952805E-2
4.502622766E1,-1.434040070E-2,2.129077911E-4,-1.094150543E-2
4.506676771E1,6.600856781E-3,2.233290672E-2,1.657819748E-2
4.510716854E1,8.144378662E-3,-3.956866264E-2,-1.134395599E-2
4.514765922E1,-2.833366394E-3,-1.730775833E-2,1.646375656E-2
4.518813969E1,7.195472717E-3,3.616404533E-2,5.355358124E-3
4.522864990E1,1.127815247E-2,2.813005447E-2,1.192092896E-4
4.526917156E1,-6.772994995E-3,-1.181554794E-2,-1.136636734E-2
4.530964729E1,-1.443624496E-2,-1.283168793E-2,-1.966667175E-2
4.535012823E1,4.143714905E-4,3.547906876E-3,-7.001876831E-3
4.539059927E1,1.051330566E-2,-2.873110771E-2,1.912546158E-2
4.543109860E1,1.333379745E-2,-7.702112198E-3,5.359554291E-2
4.547158719E1,8.463859558E-4,2.903938293E-3,-9.065151215E-3
4.551208162E1,-1.332807541E-2,1.137304306E-2,-4.088592529E-2
4.555258047E1,-1.582813263E-2,-1.049041748E-5,-4.056167603E-2
4.559308052E1,-1.114368439E-2,2.347707748E-3,-9.996891022E-3
4.563355927E1,2.364158630E-3,5.241870880E-3,4.627227783E-3
4.567404776E1,9.641170502E-3,6.640911102E-3,2.030611038E-2
4.571453807E1,1.977205276E-2,-1.623487473E-2,1.748275757E-2
4.575503990E1,-1.908254623E-2,-8.781909943E-3,-8.175849915E-3
4.579554063E1,-1.523017883E-2,-5.101919174E-3,-1.584291458E-2
4.583607281E1,-1.950073242E-2,-4.639625549E-3,-2.086973190E-2
4.587654401E1,-6.114959717E-3,1.914024353E-2,-5.245208740E-3
4.591703360E1,4.642486572E-3,1.981878281E-2,1.675844193E-2
4.595752328E1,1.213502884E-2,-1.144385338E-2,1.288890839E-3
4.599801542E1,1.778554916E-2,-2.996611595E-2,8.959770203E-4
4.603849578E1,6.794929504E-4,-4.744768143E-3,3.867149353E-3
4.607894927E1,-1.446008682E-2,4.326105118E-3,5.904674530E-3
4.611941063E1,-1.512956619E-2,-1.313138008E-2,-3.115653992E-2
4.615992740E1,-5.310535431E-3,3.740811348E-2,1.054286957E-3
4.620044250E1,1.027059555E-2,6.587100029E-2,1.090002060E-2
4.624093334E1,1.719093323E-2,-1.294779778E-2,1.637125015E-2
4.628140891E1,2.186632156E-2,-6.420183182E-2,3.275871277E-3
4.632194302E1,-9.281158447E-3,-6.207871437E-2,-1.897144318E-2
4.636234932E1,3.789901733E-3,-2.394843102E-2,2.086830139E-2
4.640285526E1,3.633499146E-3,-2.632403374E-2,1.438665390E-2
4.644337156E1,-3.737926483E-2,2.319002151E-2,-3.504753113E-2
4.648386313E1,-6.298828125E-2,2.850461006E-2,-7.084608078E-2
4.652437448E1,-3.899765015E-2,8.721303940E-2,-1.982069016E-2
4.656484412E1,1.111507416E-2,3.034472466E-2,-1.177358627E-2
4.660532943E1,2.632808685E-2,4.326534271E-2,7.175064087E-2
4.664585990E1,1.514911652E-3,-6.512737274E-2,3.682136536E-2
4.668636453E1,4.464387894E-2,-1.247754097E-1,-2.128887177E-2
4.672681000E1,3.428840637E-2,-5.880665779E-2,9.446144104E-4
4.676727807E1,-2.584457397E-3,1.549935341E-2,2.671194077E-2
4.680775688E1,-3.111600876E-2,8.469486237E-2,-1.454257965E-2
4.684824099E1,-4.884576797E-2,6.194257736E-2,-6.575012207E-2
4.688873052E1,-1.184606552E-2,-8.821964264E-3,-3.005838394E-2
4.692923490E1,1.177215576E-2,-5.266833305E-2,5.106925964E-3
4.696973594E1,7.695198059E-3,-2.657318115E-2,8.815765381E-3
4.701020432E1,-1.591205597E-3,-3.362512589E-2,3.620243073E-2
4.705072276E1,2.165365219E-2,1.761436462E-2,3.303623199E-2
4.709119823E1,-1.372432709E-2,2.250456810E-2,4.655838013E-3
4.713168776E1,-2.488183975E-2,1.202130318E-2,-4.572296143E-2
4.717218479E1,-2.015781403E-2,-1.909470558E-2,-3.440380096E-2
4.721266490E1,1.950693130E-2,3.495931625E-3,-8.441448212E-3
4.725316063E1,-4.072666168E-3,-2.164316177E-2,1.613855362E-2
4.729371834E1,-1.094102859E-2,-1.940488815E-3,1.637554169E-2
4.733415584E1,2.333164215E-3,1.329970360E-2,7.118701935E-3
4.737463229E1,-2.024221420E-2,-4.071712494E-3,-7.426738739E-3
4.741511292E1,7.485389709E-3,-1.748561859E-3,-2.072477341E-2
4.745560401E1,-5.255699158E-3,-3.176689148E-2,-1.175165176E-2
4.749615141E1,3.059005737E-2,-1.801609993E-2,1.644563675E-2
4.753663943E1,-9.563922882E-3,2.421259880E-2,7.785797119E-3
4.757712964E1,-1.669931412E-2,6.568431854E-4,-2.229595184E-2
4.761761979E1,-3.973484039E-3,1.633620262E-2,-1.707887650E-2
4.765802005E1,-1.541185379E-2,-1.483750343E-2,-1.264524460E-2
4.769852870E1,-1.523542404E-2,-1.974105835E-3,-1.737213135E-2
4.773907281E1,9.484767914E-3,6.261110306E-3,1.430559158E-2
4.777952927E1,2.674245834E-2,-3.832578659E-3,2.565956116E-2
4.782005047E1,1.601362228E-2,-3.270626068E-3,1.336860657E-2
4.786050755E1,-9.242534637E-3,1.047849655E-2,-4.295349121E-3
4.790099438E1,-1.558351517E-2,-1.299357414E-2,-2.038383484E-2
4.794152188E1,7.573604584E-3,-5.328178406E-3,-2.485084534E-2
4.798197443E1,-5.256652832E-3,-8.905887604E-3,4.155635834E-3
4.802251151E1,-1.854562759E-2,7.687568665E-3,-7.380008698E-3
4.806295865E1,-8.208751678E-3,1.538825035E-2,-4.664897919E-3
4.810348729E1,1.481485367E-2,3.158092499E-3,1.253795624E-2
4.814397662E1,1.349496841E-2,-1.947474480E-2,4.667758942E-3
4.818443412E1,1.138687134E-2,-1.398897171E-2,-1.353931427E-2
4.822493005E1,1.340341568E-2,9.013891220E-3,3.337860107E-3
4.826542755E1,-2.295255661E-2,2.279376984E-2,1.546621323E-2
4.830590604E1,7.023334503E-3,-2.372741699E-3,-1.469087601E-2
4.834644344E1,-3.956365585E-2,-4.849433899E-3,-1.807594299E-2
4.838686334E1,1.262712479E-2,-1.204967499E-3,-4.350519180E-2
4.842740063E1,-2.455234528E-2,-7.719278336E-3,-3.882884979E-3
4.846782537E1,-4.139614105E-2,-3.480076790E-2,-1.306200027E-2
4.850831464E1,1.236629486E-2,-1.214218140E-2,-3.158092499E-3
4.854882698E1,3.250932693E-2,4.476332664E-2,5.090999603E-2
4.858933240E1,5.164003372E-2,4.699611664E-2,4.292535782E-2
4.862981641E1,5.250453949E-3,2.766084671E-2,-2.540779114E-2
4.867031235E1,-4.706716537E-2,1.963686943E-2,-5.263471603E-2
4.871081844E1,-3.929615021E-2,-1.342678070E-2,-4.125976562E-2
4.875131761E1,-1.754522324E-2,-5.296039581E-2,-2.222013474E-2
4.879180458E1,-1.454830170E-3,-6.195068359E-2,8.673667908E-3
4.883228005E1,5.206823349E-2,-2.592682838E-2,7.410717010E-2
4.887276823E1,6.165981293E-2,-1.050400734E-2,7.885837555E-2
4.891325641E1,1.544857025E-2,6.208419800E-3,1.717853546E-2
4.895376240E1,4.072189331E-3,5.927371979E-2,-2.781820297E-2
4.899425844E1,-3.900384903E-2,6.193685532E-2,-7.043027878E-2
4.903472823E1,-5.465841293E-2,-5.806684494E-3,-9.031295776E-2
4.907521651E1,-3.890657425E-2,-3.660821915E-2,-4.346323013E-2
4.911570964E1,1.455593109E-2,-4.511547089E-2,1.950454712E-2
4.915621672E1,2.582931519E-2,-2.641224861E-2,6.030035019E-2
4.919671750E1,3.773450851E-2,-4.115104675E-3,5.706739426E-2
4.923718438E1,3.870868683E-2,2.936601639E-3,1.313638687E-2
4.927770208E1,2.007484436E-3,1.028299332E-3,-2.006435394E-2
4.931814880E1,-6.803274155E-2,1.350808144E-2,-6.328535080E-2
4.935867198E1,-5.144929886E-2,2.500677109E-2,-3.944873810E-2
4.939915745E1,3.087043762E-3,5.898714066E-3,-8.712768555E-3
4.943963922E1,3.664493561E-2,-1.290774345E-2,3.703689575E-2
4.948012750E1,1.528739929E-2,-3.187704086E-2,3.128910065E-2
4.952061672E1,-2.245426178E-3,-6.494283676E-3,1.145362854E-2
4.956110584E1,-1.437187195E-2,1.033496857E-2,-4.018783569E-3
4.960159005E1,-1.142978668E-2,1.229834557E-2,-2.097225189E-2
4.964209250E1,-1.784086227E-2,2.565908432E-2,-5.697917938E-2
4.968257646E1,-2.805328369E-2,-3.116369247E-3,-5.916881561E-2
4.972305297E1,3.873825073E-3,-1.764059067E-2,1.331233978E-2
4.976354386E1,2.918004990E-2,-5.205392838E-3,3.625726700E-2
4.980404240E1,1.748180389E-2,-6.141185760E-3,3.617525101E-2
4.984453828E1,-5.130767822E-4,4.058837891E-3,1.279878616E-2
4.988501760E1,-6.425857544E-3,-5.017280579E-3,-1.237773895E-2
4.992551693E1,-2.406263351E-2,-6.506681442E-3,-3.173494339E-2
4.996601667E1,-2.513551712E-2,-7.311105728E-3,-2.294921875E-2
5.000652615E1,-2.545833588E-3,1.021504402E-2,1.911211014E-2
5.004701849E1,1.031541824E-2,-8.682727814E-3,1.816701889E-2
5.008749005E1,1.257371902E-2,-8.356332779E-3,2.758979797E-3
5.012797255E1,-6.922721863E-3,-2.308487892E-2,-9.529590607E-3
5.016846234E1,4.572868347E-4,9.305000305E-3,7.523059845E-3
5.020892511E1,-1.392364502E-3,-5.753278732E-3,-1.055717468E-3
5.024945063E1,-7.601737976E-3,3.277063370E-3,-1.187801361E-2
5.028992870E1,-9.791851044E-3,1.449346542E-2,-8.654594421E-3
5.033041443E1,-3.274440765E-3,-6.790876389E-3,-4.359245300E-3
5.037086396E1,3.441333771E-3,-1.334667206E-2,2.797126770E-3
5.041139563E1,4.805564880E-3,-8.330583572E-3,6.599426270E-4
5.045187839E1,1.076555252E-2,1.162767410E-3,2.933120728E-2
5.049236542E1,1.138973236E-2,8.692741394E-3,-5.795955658E-3
5.053290271E1,-1.487016678E-2,1.142692566E-2,-1.810741425E-2
5.057334703E1,-2.960252762E-2,-1.711678505E-2,-2.339124680E-2
5.061383974E1,3.355979919E-3,-8.594989777E-3,2.383708954E-3
5.065433844E1,1.704692841E-2,-4.956722260E-3,2.131891251E-2
5.069481406E1,1.948785782E-2,-7.998228073E-3,-5.407333374E-4
5.073530719E1,7.252693176E-4,-3.866910934E-3,-4.863262177E-3
5.077585240E1,-4.190444946E-3,-1.752376556E-4,-7.503032684E-3
5.081632485E1,9.986877441E-3,2.516722679E-2,3.784179688E-3
5.085678057E1,-7.915496826E-4,-5.166530609E-3,1.399374008E-2
5.089727464E1,1.274824142E-2,5.084753036E-3,2.105712891E-2
5.093773599E1,-1.992273331E-2,-4.461288452E-2,-3.160715103E-2
5.097824203E1,-6.562709808E-2,-1.670050621E-2,-4.962110519E-2
5.101872828E1,5.040168762E-4,4.764175415E-2,-9.478092194E-3
5.105924141E1,2.929401398E-2,3.959321976E-2,-3.473281860E-3
5.109973047E1,-7.781028748E-3,-1.284956932E-2,1.870393753E-2
5.114017297E1,2.500677109E-2,-3.902816772E-2,1.790761948E-2
5.118069714E1,1.042127609E-2,-1.073408127E-2,1.899480820E-2
5.122120094E1,-3.663539886E-3,-1.596450806E-2,-2.212095261E-2
5.126170537E1,-4.113292694E-2,6.456851959E-2,-2.072572708E-2
5.130219005E1,-4.684352875E-2,3.495907784E-2,-4.686498642E-2
5.134266990E1,-2.290201187E-2,-1.119685173E-2,-2.329540253E-2
5.138314906E1,2.366542816E-3,-1.450848579E-2,-1.685142517E-3
5.142363604E1,2.599143982E-2,-1.609539986E-2,1.660776138E-2
5.146416896E1,2.625131607E-2,5.529642105E-3,4.126787186E-2
5.150467667E1,1.310682297E-2,7.579326630E-4,1.625156403E-2
5.154516870E1,-8.854866028E-4,6.767034531E-3,2.868175507E-3
5.158560964E1,-1.508378983E-2,-5.186319351E-3,-4.674720764E-2
5.162609573E1,-4.638099670E-2,-1.804590225E-3,-2.789831161E-2
5.166663844E1,-2.118825912E-2,-1.905417442E-2,-1.256036758E-2
5.170708245E1,3.230428696E-2,2.402400970E-2,2.486801147E-2
5.174755719E1,8.101940155E-3,2.211332321E-3,2.520179749E-2
5.178809604E1,5.839824677E-3,-1.420617104E-2,1.332902908E-2
5.182859084E1,5.294799805E-3,-1.941871643E-2,-8.605957031E-3
5.186901354E1,9.032249451E-3,7.189989090E-3,-1.926946640E-2
5.190950417E1,-3.216600418E-2,-7.499456406E-3,-2.347278595E-2
5.194999485E1,7.909965515E-2,6.792521477E-2,5.026912689E-2
5.199049880E1,-1.139788628E-1,1.980543137E-3,3.496170044E-3
5.203098198E1,-8.404731750E-3,-7.834124565E-2,-1.601562500E-1
5.207147703E1,-1.433858871E-1,2.187204361E-2,-2.541637421E-2
5.211197110E1,-1.635551453E-4,6.132864952E-2,5.211114883E-2
5.215246969E1,1.876149178E-1,5.261135101E-2,1.055135727E-1
5.219298630E1,5.922460556E-2,-3.588247299E-2,8.291339874E-2
5.223346224E1,-6.970405579E-3,-9.365797043E-2,-1.447439194E-2
5.227393151E1,-3.070974350E-2,-6.863856316E-2,-7.929325104E-3
5.231442901E1,-3.896236420E-3,-1.960635185E-2,-1.310825348E-3
5.235490703E1,7.650375366E-3,4.522299767E-2,-5.471229553E-3
5.239540276E1,-5.356597900E-2,2.824544907E-2,-5.312156677E-2
5.243590828E1,-2.841186523E-2,1.477360725E-2,-4.753351212E-2
5.247639203E1,1.499700546E-2,2.157354355E-2,4.262447357E-3
5.251687078E1,1.719713211E-2,-1.973676682E-2,-2.382087708E-2
5.255738078E1,-1.990365982E-2,-2.173876762E-2,-2.238273621E-3
5.259786891E1,-1.997470856E-3,-1.550388336E-2,1.320219040E-2
5.263838901E1,5.434894562E-2,-1.335573196E-2,4.515838623E-2
5.267884078E1,7.276535034E-4,1.152753830E-2,2.601099014E-2
5.271930729E1,-1.221847534E-2,9.782552719E-3,-2.845478058E-2
5.275984276E1,-3.260278702E-2,3.985166550E-3,-2.556133270E-2
5.280027479E1,7.434844971E-3,7.640600204E-3,-3.300571442E-2
5.284079391E1,-3.726577759E-2,-6.296396255E-3,-5.258226395E-2
5.288128099E1,-4.201459885E-2,6.511449814E-3,-6.465435028E-3
5.292175349E1,5.535984039E-2,-1.297092438E-2,9.403705597E-3
5.296226386E1,7.248163223E-2,-1.317739487E-3,8.568477631E-2
5.300278432E1,3.796958923E-2,-1.797437668E-2,2.110004425E-2
5.304325734E1,-1.795768738E-2,-5.843400955E-3,3.306388855E-3
5.308375000E1,-2.285957336E-2,-1.912784576E-2,-2.336406708E-2
5.312424698E1,-9.714126587E-3,-1.328873634E-2,-5.087566376E-2
5.316471625E1,-3.942298889E-2,2.369213104E-2,-1.609039307E-2
5.320519917E1,-1.193380356E-2,2.495074272E-2,-3.216171265E-2
5.324569360E1,-6.607532501E-3,-1.038241386E-2,-1.881980896E-2
5.328618724E1,-5.858421326E-3,-1.358175278E-2,-1.411819458E-2
5.332667844E1,3.454208374E-3,-1.585268974E-2,3.995418549E-3
5.336716735E1,5.053043365E-3,-6.760835648E-3,3.985404968E-2
5.340767188E1,8.322238922E-3,9.741783142E-4,1.095914841E-2
5.344816787E1,9.135723114E-3,3.084015846E-2,1.054763794E-2
5.348867557E1,1.182556152E-3,1.186823845E-2,4.500389099E-3
5.352912016E1,-1.243686676E-2,-1.638865471E-2,-2.142238617E-2
5.356961990E1,-1.785802841E-2,-1.451539993E-2,-2.475976944E-2
5.361009610E1,-4.916667938E-3,6.427526474E-3,-1.880216599E-2
5.365059391E1,3.796577454E-3,3.022670746E-3,2.448081970E-3
5.369108667E1,-8.724689484E-3,-7.455587387E-3,-4.033088684E-3
5.373156912E1,2.741813660E-4,5.920648575E-3,6.901264191E-3
5.377205344E1,9.887695312E-3,-2.187561989E-2,-5.220413208E-3
5.381254573E1,-1.476764679E-2,-4.947423935E-3,5.537033081E-3
5.385303250E1,-8.646488190E-3,1.563549042E-2,4.517078400E-3
5.389352037E1,-1.080799103E-2,7.740736008E-3,-4.905223846E-3
5.393406708E1,3.145217896E-3,8.267879486E-3,-1.574516296E-2
5.397453922E1,-6.313323975E-4,-1.465344429E-2,-8.980751038E-3
5.401506682E1,7.728576660E-3,1.011872292E-2,1.078462601E-2
5.405550412E1,1.358222961E-2,-2.129077911E-3,-2.217960358E-2
5.409599760E1,-3.131961823E-2,-1.843905449E-2,2.921104431E-3
5.413648651E1,-8.904457092E-3,1.059794426E-2,5.143642426E-3
5.417697818E1,9.567260742E-3,4.266977310E-3,-2.854824066E-3
5.421744745E1,-1.278543472E-2,-1.135945320E-2,1.433849335E-3
5.425791935E1,1.214551926E-2,-1.191449165E-2,-4.093647003E-3
5.429847732E1,1.677799225E-2,2.305531502E-2,1.567840576E-3
5.433891409E1,-1.555109024E-2,4.222393036E-4,-1.695919037E-2
5.437941363E1,-4.560041428E-2,-1.508188248E-2,-6.063699722E-2
5.441990456E1,4.996299744E-3,1.378035545E-2,1.043558121E-2
5.446039342E1,4.252386093E-2,-2.022242546E-2,2.407169342E-2
5.450087274E1,-1.269340515E-3,-1.029715538E-1,1.784181595E-2
5.454136738E1,-1.344919205E-2,-6.152415276E-2,2.676439285E-2
5.458186644E1,-9.357929230E-3,8.408379555E-2,-3.852510452E-2
5.462234795E1,-1.267862320E-2,5.411505699E-2,-5.961513519E-2
5.466286607E1,-7.386207581E-2,9.259843826E-2,-3.003215790E-2
5.470332925E1,-2.798748016E-2,2.827215195E-2,-8.906459808E-2
5.474381993E1,-6.181097031E-2,4.988431931E-3,-1.912736893E-2
5.478433670E1,3.507328033E-2,-2.035617828E-3,5.160665512E-2
5.482479894E1,1.153850555E-1,-5.550360680E-2,8.792924881E-2
5.486528962E1,9.987163544E-2,-5.570363998E-2,1.313548088E-1
5.490577842E1,-4.179477692E-3,-2.247118950E-2,5.695724487E-2
5.494628847E1,-5.294799805E-2,9.789896011E-2,2.622604370E-3
5.498673847E1,-6.642484665E-2,7.485651970E-2,-9.873819351E-2
5.502730623E1,-9.114742279E-2,4.401135445E-2,-1.088624001E-1
5.506774930E1,-3.159618378E-2,-7.924795151E-3,-6.339025497E-2
5.510827659E1,1.042828560E-1,-7.305788994E-2,6.209659576E-2
5.514870279E1,1.021184921E-1,-5.527830124E-2,1.569466591E-1
5.518924633E1,5.950212479E-2,-1.960682869E-2,9.539747238E-2
5.522969003E1,-8.747577667E-3,-1.345634460E-3,-1.206302643E-2
5.527018748E1,-5.719900131E-2,2.012133598E-2,-7.920408249E-2
5.531068238E1,-6.070137024E-2,-1.173353195E-2,-1.311035156E-1
5.535118342E1,-7.169866562E-2,-1.599192619E-2,-6.622648239E-2
5.539167774E1,-2.643251419E-2,-2.724361420E-2,-1.956319809E-2
5.543216779E1,3.238821030E-2,-2.684283257E-2,5.379581451E-2
5.547264498E1,6.277275085E-2,-1.153945923E-4,6.734609604E-2
5.551316534E1,5.068016052E-2,1.128625870E-2,5.928754807E-2
5.555366524E1,-7.030963898E-3,-1.506042480E-2,-1.184654236E-2
5.559410873E1,-3.237724304E-3,-4.866600037E-3,-3.555154800E-2
5.563460399E1,-8.098125458E-3,2.884769440E-2,-2.023887634E-2
5.567510659E1,-2.971076965E-2,1.194787025E-2,-1.303243637E-2
5.571557321E1,-2.762365341E-2,-1.548266411E-2,-2.484655380E-2
5.575607670E1,-1.094675064E-2,-3.585028648E-2,5.155563354E-3
5.579658300E1,2.401351929E-2,-8.060574532E-2,3.199100494E-3
5.583707003E1,1.746225357E-2,-1.713013649E-2,2.285051346E-2
5.587755639E1,-1.546621323E-2,4.546523094E-2,3.430747986E-2
5.591804826E1,-8.056163788E-3,7.321834564E-2,-2.330827713E-2
5.595857488E1,-9.002685547E-3,5.559039116E-2,-4.541826248E-2
5.599905696E1,-2.142238617E-2,6.129741669E-4,-4.872703552E-2
5.603953993E1,-1.836109161E-2,-4.359245300E-3,-3.504848480E-2
5.607997290E1,-1.975965500E-2,-5.129814148E-3,1.439428329E-2
5.612046248E1,1.709556580E-2,-4.148721695E-3,-5.117893219E-3
5.616095852E1,1.879787445E-2,-2.095222473E-3,3.132963181E-2
5.620147055E1,-7.304668427E-3,-7.571220398E-3,-1.322126389E-2
5.624196435E1,8.113861084E-3,-2.316522598E-2,-1.111173630E-2
5.628245852E1,-1.270723343E-2,-3.771090508E-2,1.292705536E-3
5.632293300E1,1.506280899E-2,-3.479146957E-2,3.246307373E-3
5.636341144E1,1.806783676E-2,-4.717016220E-2,3.449201584E-2
5.640391800E1,2.794837952E-2,1.919054985E-2,4.803657532E-2
5.644440232E1,2.628612518E-2,6.566452980E-2,2.896451950E-2
5.648488201E1,-6.393051147E-2,2.547287941E-2,-1.676988602E-2
5.652541545E1,-1.619529724E-2,1.665425301E-2,-6.350374222E-2
5.656588196E1,-5.878973007E-2,3.233933449E-2,-2.282667160E-2
5.660634842E1,-1.164293289E-2,-1.081156731E-2,-2.102613449E-2
5.664686217E1,4.322576523E-2,-3.017401695E-2,-1.160907745E-2
5.668734055E1,2.425670624E-3,-6.768679619E-2,2.819681168E-2
5.672784139E1,3.618621826E-2,9.347915649E-3,2.862167358E-2
5.676835144E1,-9.627342224E-3,1.451492310E-2,1.842832565E-2
5.680881133E1,-2.241039276E-2,1.873254776E-2,-1.555585861E-2
5.684933529E1,6.240367889E-3,-1.060104370E-2,-2.401494980E-2
5.688985092E1,-9.360313416E-3,-8.185386658E-3,-2.268743515E-2
5.693034097E1,-1.373434067E-2,-1.561212540E-2,-1.335477829E-2
5.697079206E1,2.921438217E-2,2.558302879E-2,-2.455711365E-4
5.701125659E1,1.343202591E-2,9.599637985E-2,7.241296768E-2
5.705177784E1,-1.838874817E-2,-3.353786469E-2,-3.216791153E-2
5.709223883E1,-1.572084427E-2,-5.991292000E-2,-3.764581680E-2
5.713272889E1,-1.645898819E-2,-2.249813080E-2,-3.081798553E-2
5.717324248E1,8.439540863E-3,1.164197922E-3,1.631593704E-2
5.721372571E1,2.636909485E-4,1.548004150E-2,2.466821671E-2
5.725418988E1,-2.751827240E-3,8.791685104E-3,2.334117889E-3
5.729469962E1,-2.021789551E-4,-2.057313919E-3,1.224756241E-2
5.733520685E1,5.784988403E-3,-2.131056786E-2,-3.044509888E-2
5.737566102E1,-2.201509476E-2,-1.683640480E-2,-2.053165436E-2
5.741618024E1,-2.328395844E-3,9.074211121E-3,-7.359981537E-3
5.745667373E1,1.090812683E-2,2.185750008E-2,1.871299744E-2
5.749719670E1,-4.161357880E-3,-8.499860764E-3,2.391815186E-3
5.753766227E1,3.753185272E-3,9.294986725E-3,1.121520996E-3
5.757815748E1,-3.862857819E-3,-1.994943619E-2,9.560585022E-4
5.761866165E1,1.711177826E-2,-1.063609123E-2,-4.234313965E-3
5.765906935E1,-6.677627563E-3,1.028466225E-2,-5.121231079E-3
5.769960415E1,-1.886272430E-2,1.117086411E-2,-1.015567780E-2
5.774005639E1,-9.603023529E-3,-2.009391785E-3,-2.957057953E-2
5.778054607E1,-1.601028442E-2,-6.733894348E-3,-1.251649857E-2
5.782107514E1,-6.493568420E-3,-4.180669785E-3,1.511096954E-3
5.786154654E1,5.244255066E-3,-7.246494293E-3,-2.978801727E-3
5.790202644E1,5.034446716E-3,8.725881577E-3,1.688337326E-2
5.794252717E1,5.290508270E-3,6.786346436E-3,8.075714111E-3
5.798301383E1,-2.127122879E-2,-1.426839828E-2,-1.665163040E-2
5.802355967E1,-3.339290619E-3,4.246473312E-3,-1.674032211E-2
5.806402170E1,3.806114197E-3,3.437995911E-3,1.144886017E-3
5.810449279E1,-2.803802490E-3,-5.622148514E-3,1.794624329E-2
5.814498258E1,1.345777512E-2,7.157802582E-3,1.914978027E-3
5.818549769E1,-2.220869064E-2,-4.642009735E-4,-1.190137863E-2
5.822597805E1,-3.627300262E-3,-1.999258995E-2,-1.949024200E-2
5.826646014E1,-5.230903625E-4,-1.059460640E-2,5.003452301E-3
5.830694498E1,-1.096010208E-2,1.058363914E-2,-3.271102905E-4
5.834745399E1,-1.040124893E-2,6.383657455E-3,-7.910728455E-4
5.838794399E1,3.379344940E-3,-3.012418747E-3,8.391380310E-3
5.842845222E1,-2.789974213E-3,-1.149034500E-2,-1.913070679E-3
5.846893321E1,-4.938602448E-3,3.944873810E-3,2.681732178E-3
5.850944170E1,-8.150100708E-3,1.749277115E-2,7.520198822E-3
5.854986675E1,-3.901958466E-3,-7.942438126E-3,-1.893281937E-2
5.859039519E1,-1.393890381E-2,-9.901762009E-3,-1.025104523E-2
5.863082081E1,1.599168777E-2,-1.247906685E-2,-2.392292023E-3
5.867133212E1,-9.856224060E-4,-2.095699310E-4,9.114742279E-3
5.871185456E1,-1.296520233E-3,2.635121346E-2,4.701137543E-3
5.875233253E1,-1.451826096E-2,-1.080155373E-2,4.562854767E-3
5.879283935E1,1.438331604E-2,-6.293773651E-3,3.490447998E-4
5.883332889E1,-8.769989014E-3,2.393007278E-3,-5.310535431E-3
5.887381607E1,-1.158428192E-2,2.707958221E-3,-1.012516022E-2
5.891430837E1,-5.331039429E-3,4.898309708E-3,-4.183292389E-3
5.895480404E1,2.326488495E-3,-1.089572906E-4,-5.053520203E-3
5.899531092E1,-1.678466797E-3,-1.386713982E-2,6.913185120E-3
5.903581149E1,-2.686977386E-3,7.145166397E-3,3.024578094E-3
5.907626732E1,-7.885932922E-3,-5.038261414E-3,-3.327846527E-3
5.911676555E1,1.792907715E-3,1.724004745E-3,1.001691818E-2
5.915725253E1,6.350994110E-3,-3.065109253E-3,-1.670837402E-3
5.919773508E1,-1.370763779E-2,-2.561330795E-3,-1.234674454E-2
5.923824253E1,-3.419876099E-3,-4.545688629E-3,-1.824855804E-3
5.927875712E1,4.497528076E-3,-5.893707275E-4,1.413822174E-3
5.931919659E1,-5.199909210E-3,-1.009464264E-3,4.203319550E-3
5.935965467E1,-5.265712738E-3,-4.400968552E-3,-1.221942902E-2
5.940020821E1,3.461837769E-4,-5.492925644E-3,-3.284931183E-3
5.944070665E1,-6.412982941E-3,-9.850978851E-3,-3.183364868E-3
5.948117951E1,-5.817413330E-5,1.548600197E-2,-1.380729675E-2
5.952164831E1,6.706714630E-3,-3.228902817E-3,-8.287429810E-3
5.956214409E1,-1.009178162E-2,-1.022887230E-2,9.324073792E-3
5.960262545E1,5.488872528E-3,3.608465195E-3,-1.165151596E-2
5.964312368E1,-9.423732758E-3,3.503084183E-3,5.794048309E-3
5.968363347E1,-8.881092072E-3,-2.635717392E-3,-6.219387054E-3
5.972412196E1,7.855415344E-3,2.587795258E-3,-1.338386536E-2
5.976460368E1,3.001213074E-3,-4.219293594E-3,1.060533524E-2
5.980508430E1,-3.115177155E-3,2.102851868E-4,-1.750469208E-3
5.984557503E1,-1.323223114E-3,-3.473997116E-3,-5.197048187E-3
5.988606717E1,-5.844116211E-3,5.581140518E-3,1.852989197E-3
5.992656967E1,-6.170749664E-3,-1.211619377E-2,-1.074028015E-2
5.996707998E1,4.148483276E-5,-5.030155182E-3,-1.427793503E-2
6.000758060E1,-1.039791107E-2,-1.325130463E-3,-1.379966736E-3
6.004808644E1,4.303455353E-3,5.776643753E-3,1.459598541E-3
6.008858956E1,1.265335083E-2,-4.208803177E-3,-6.834983826E-3
6.012908264E1,-6.212711334E-3,8.836269379E-3,-6.001949310E-3
6.016950060E1,7.289409637E-3,-1.487421989E-2,-1.087522507E-2
6.020996925E1,-6.854057312E-3,5.469560623E-3,-4.152297974E-3
6.025044852E1,1.500511169E-2,6.289005280E-3,2.474784851E-3
6.029097602E1,-9.649276733E-3,-1.986861229E-2,-1.038122177E-2
6.033144899E1,-7.093906403E-3,-1.534891129E-2,-3.770351410E-3
6.037195102E1,4.168987274E-3,-4.324436188E-3,-8.070468903E-3
6.041241883E1,-1.230573654E-2,5.112648010E-3,-3.165721893E-3
6.045292894E1,-2.955436707E-3,4.383563995E-3,-7.826328278E-3
6.049342128E1,5.164146423E-3,-7.049798965E-3,-5.877494812E-3
6.053393347E1,2.809047699E-3,2.209901810E-3,2.725601196E-3
6.057439550E1,2.399444580E-3,1.015663147E-4,-4.043579102E-4
6.061490383E1,-2.058219910E-2,7.097721100E-3,3.739833832E-3
6.065538701E1,1.728248596E-2,-3.633499146E-3,-7.388591766E-3
6.069587899E1,-3.229141235E-3,2.291440964E-3,3.422260284E-3
6.073636191E1,-9.121894836E-3,3.272771835E-3,-1.526117325E-2
6.077685571E1,-5.677223206E-3,-1.865696907E-2,-4.410743713E-4
6.081734133E1,1.944398880E-2,-1.512336731E-2,3.995418549E-3
6.085785029E1,-4.107475281E-3,-4.012823105E-3,6.962299347E-3
6.089834071E1,-2.004384995E-2,5.054712296E-3,1.196861267E-2
6.093878639E1,9.931564331E-3,-5.179405212E-3,-3.160667419E-2
6.097927680E1,2.458953857E-2,-4.065036774E-4,-1.062822342E-2
6.101977639E1,-1.145982742E-2,9.875297546E-4,-1.173973083E-3
6.106027988E1,1.275873184E-2,-2.369594574E-2,-3.192281723E-2
6.110074284E1,2.021074295E-2,5.999565125E-3,1.930046082E-2
6.114123326E1,-3.429698944E-2,2.384400368E-2,4.799175262E-2
6.118177055E1,-2.595853806E-2,4.180741310E-2,-1.786231995E-2
6.122224644E1,-1.243066788E-2,-9.094476700E-3,-7.418394089E-2
6.126271717E1,-9.016990662E-3,-4.681634903E-2,-1.740837097E-2
6.130322784E1,3.294944763E-2,-1.704144478E-2,2.848052979E-2
6.134368935E1,-1.792383194E-2,-3.891706467E-3,4.890918732E-2
6.138417883E1,3.747415543E-2,-5.156993866E-4,1.014852524E-2
6.142469633E1,1.193857193E-2,1.402306557E-2,1.049757004E-2
6.146519571E1,-1.795291901E-3,8.755207062E-3,-4.546260834E-2
6.150569467E1,-2.894735336E-2,1.271772385E-2,-4.072046280E-2
6.154618519E1,-2.678823471E-2,1.183009148E-2,-2.098989487E-2
6.158663868E1,-2.423143387E-2,-1.626229286E-2,1.135969162E-2
6.162715368E1,-7.501125336E-3,-2.026247978E-2,1.650667191E-2
6.166763441E1,6.244993210E-2,-2.459764481E-2,1.497030258E-2
6.170812357E1,-1.260757446E-3,1.473975182E-2,3.507661819E-2
6.174866488E1,8.348464966E-3,8.083820343E-3,-4.224777222E-3
6.178913456E1,1.959800720E-4,-2.684593201E-4,5.898475647E-4
6.182965363E1,-4.259490967E-2,2.784061432E-2,-1.134824753E-2
6.187006055E1,-3.023910522E-2,1.687812805E-2,-4.416131973E-2
6.191055909E1,-2.776002884E-2,-1.576638222E-2,-3.505325317E-2
6.195106060E1,-1.318359375E-2,-2.509331703E-2,2.305603027E-2
6.199153837E1,5.561542511E-2,1.193547249E-2,4.275465012E-2
6.203204113E1,5.197954178E-2,4.952645302E-2,5.594158173E-2
6.207254316E1,-3.440856934E-2,1.626896858E-2,-1.768207550E-2
6.211300389E1,-4.988574982E-2,-4.219174385E-2,-4.420328140E-2
6.215350238E1,1.292181015E-2,-3.978395462E-2,-4.541873932E-2
6.219400665E1,2.951145172E-3,1.336336136E-2,-1.698493958E-3
6.223449571E1,-3.554916382E-2,6.494116783E-2,2.899837494E-2
6.227499581E1,3.398036957E-2,1.336359978E-2,1.277732849E-2
6.231548899E1,2.469491959E-2,-9.981560707E-2,-9.527206421E-4
6.235598576E1,1.374769211E-2,-9.773731232E-3,-4.559803009E-2
6.239643993E1,-1.908302307E-2,7.815766335E-2,3.683280945E-2
6.243694467E1,7.223129272E-3,-4.493188858E-2,4.693984985E-3
6.247745154E1,2.096223831E-2,-2.326917648E-2,-3.588533401E-2
6.251795415E1,-9.344720840E-2,2.126121521E-2,-2.474594116E-2
6.255845347E1,1.460838318E-2,-8.292198181E-4,-7.520198822E-3
6.259893472E1,-4.875659943E-3,1.682996750E-3,2.980756760E-2
6.263938123E1,3.462028503E-2,-7.098197937E-3,-1.792907715E-2
6.267988212E1,-3.074169159E-3,-7.360696793E-3,7.736682892E-3
6.272033451E1,1.803827286E-2,1.660251617E-2,-5.197048187E-3
6.276084425E1,4.264402390E-2,-3.015995026E-4,1.361370087E-3
6.280134665E1,-4.727602005E-2,-2.383470535E-3,1.491117477E-2
6.284185258E1,3.524875641E-2,3.099441528E-3,2.382230759E-2
6.288235014E1,-5.069208145E-2,-1.730275154E-2,6.453514099E-3
6.292282915E1,-3.481149673E-2,-2.577662468E-2,-7.409095764E-2
6.296335847E1,-5.604553223E-2,2.739071846E-2,-6.591987610E-2
6.300385378E1,-2.110004425E-2,5.074024200E-3,-1.484394073E-2
6.304429831E1,7.041501999E-2,-2.317667007E-2,1.704835892E-2
6.308477222E1,5.166244507E-2,4.198455811E-2,8.260011673E-2
6.312526362E1,6.430053711E-2,5.451297760E-2,6.632661819E-2
6.316577055E1,-1.623153687E-2,-1.881074905E-2,7.349014282E-3
6.320626107E1,-7.639598846E-2,-3.656077385E-2,-7.051134109E-2
6.324674566E1,-5.715370178E-2,-1.513886452E-2,-5.828952789E-2
6.328723347E1,-2.302551270E-2,-7.823705673E-3,-3.103303909E-2
6.332773019E1,9.316444397E-3,1.501369476E-2,-1.001930237E-2
6.336822404E1,1.901149750E-3,-4.904985428E-3,2.722167969E-2
6.340869399E1,4.315233231E-2,-9.551048279E-4,4.017114639E-2
6.344921123E1,8.675575256E-3,-2.179098129E-2,9.820938110E-3
6.348966066E1,-1.183032990E-2,9.788751602E-3,-1.609992981E-2
6.353016243E1,-1.827669144E-2,1.466274261E-2,-2.157211304E-3
6.357072784E1,-3.133678436E-2,-3.605127335E-3,-1.091146469E-2
6.361115847E1,-1.840591431E-4,-4.787206650E-3,-1.388454437E-2
6.365166394E1,-2.290725708E-2,-2.159571648E-2,1.471519470E-3
6.369213873E1,-1.235103607E-2,-2.703046799E-2,-8.869171143E-4
6.373263488E1,1.226139069E-2,6.483078003E-3,1.568794250E-4
6.377313024E1,8.754730225E-4,9.644746780E-3,-1.964759827E-2
6.381360508E1,-1.816368103E-2,-6.203651428E-3,-9.526252747E-3
6.385408076E1,2.412796021E-4,8.399248123E-3,1.464366913E-3
6.389457050E1,7.958364487E-2,-1.094388962E-2,1.728534698E-3
6.393508430E1,-8.161544800E-3,4.869937897E-3,4.426813126E-2
6.397562310E1,-1.013422012E-2,3.066062927E-4,-3.238630295E-2
6.401611701E1,-1.260662079E-2,-4.918813705E-2,-3.568315506E-2
6.405654774E1,1.037740707E-2,-2.717256546E-2,1.025676727E-3
6.409710238E1,-3.511810303E-2,9.179115295E-3,1.181030273E-2
6.413759212E1,-5.878114700E-2,2.514076233E-2,2.514696121E-2
6.417807477E1,5.343103409E-2,5.924677849E-2,-4.332113266E-2
6.421853435E1,-5.652952194E-2,3.344464302E-2,-6.258010864E-3
6.425897508E1,-6.477117538E-2,-5.008172989E-2,-7.899236679E-2
6.429946488E1,9.006500244E-3,-1.702404022E-2,2.058124542E-2
6.433998805E1,3.723382950E-2,-6.204724312E-2,2.500677109E-2
6.438043597E1,2.241468430E-2,-3.236484528E-2,5.907678604E-2
6.442093420E1,5.865859985E-2,4.649400711E-3,3.837776184E-2
6.446145576E1,-9.709358215E-3,7.348132133E-2,5.434036255E-2
6.450193680E1,-1.313447952E-2,4.361438751E-2,-4.166269302E-2
6.454245029E1,2.309513092E-2,2.756690979E-2,-6.205463409E-2
6.458293717E1,-4.248762131E-2,-3.005242348E-2,-4.096937180E-2
6.462347243E1,-4.817438126E-2,-9.183263779E-2,8.373260498E-4
6.466394222E1,-1.870155334E-3,-2.478337288E-2,2.579975128E-2
6.470442206E1,4.072713852E-2,3.463697433E-2,-4.429340363E-3
6.474491316E1,-2.432823181E-3,3.329086304E-2,2.298831940E-3
6.478542503E1,-1.728677750E-2,-5.328416824E-3,-2.368640900E-2
6.482587300E1,-1.318168640E-2,-1.240611076E-2,9.003162384E-3
6.486642560E1,1.792526245E-2,-1.371407509E-2,2.630567551E-2
6.490690217E1,1.326227188E-2,-5.665779114E-3,-7.669448853E-3
6.494737899E1,-9.074211121E-3,-6.057024002E-3,-1.777601242E-2
6.498784139E1,-1.936721802E-2,1.016163826E-2,-1.634550095E-2
6.502829201E1,-2.483320236E-2,4.809856415E-3,-1.314306259E-2
6.506881842E1,1.967811584E-2,1.336812973E-3,-3.209114075E-3
6.510932378E1,5.490779877E-3,-2.915906906E-2,1.603317261E-2
6.514981826E1,8.054256439E-3,-4.317283630E-3,2.168607712E-2
6.519029196E1,-5.506992340E-3,1.516652107E-2,-3.116130829E-3
6.523079389E1,-3.098535538E-2,3.359127045E-2,-1.415634155E-2
6.527126425E1,-1.627492905E-2,-4.064798355E-3,-4.971933365E-2
6.531176967E1,-1.056671143E-3,-1.371836662E-2,-2.711248398E-2
6.535227555E1,-2.946376801E-3,-7.877588272E-3,-3.850936890E-3
6.539274284E1,8.248806000E-3,7.068157196E-3,2.728509903E-2
6.543322784E1,6.087779999E-3,1.991987228E-2,2.389144897E-2
6.547369050E1,3.114938736E-2,-1.352906227E-2,2.189636230E-3
6.551421258E1,-1.244020462E-2,-2.726244926E-2,-7.666587830E-3
6.555470659E1,-1.691341400E-3,-1.676797867E-3,-2.708816528E-2
6.559515826E1,-4.561376572E-2,1.953625679E-2,-8.240222931E-3
6.563563956E1,-5.676269531E-3,7.877826691E-3,-1.199245453E-3
6.567620425E1,2.856206894E-2,2.168655396E-3,-1.471948624E-2
6.571666597E1,8.249759674E-3,-8.380651474E-3,1.040983200E-2
6.575718383E1,1.264715195E-2,-5.031585693E-3,2.744197845E-2
6.579762883E1,5.954742432E-3,-3.533434868E-2,6.905555725E-3
6.583812024E1,-6.990909576E-3,2.411222458E-2,-6.044387817E-3
6.587865264E1,-2.175807953E-2,1.822638512E-2,-2.020406723E-2
6.591911722E1,-8.351802826E-3,-9.295940399E-4,-1.913118362E-2
6.595962123E1,5.883693695E-3,-1.873040199E-2,-1.991462708E-2
6.600008170E1,9.589195251E-4,-2.585577965E-2,2.527236938E-3
6.604060399E1,1.717996597E-2,9.547710419E-3,2.577781677E-2
6.608109399E1,1.054239273E-2,6.684064865E-3,-2.289772034E-3
6.612153128E1,-1.161241531E-2,3.283739090E-3,-1.745700836E-3
6.616204363E1,-6.832122803E-3,-1.566886902E-3,-8.225917816E-3
6.620257019E1,3.578186035E-3,-1.210141182E-2,-1.457023621E-2
6.624305305E1,-1.284122467E-2,-2.547264099E-3,-7.607936859E-3
6.628352467E1,-1.019954681E-3,7.401943207E-3,-1.346111298E-3
6.632399847E1,2.903938293E-4,6.704807281E-3,2.665042877E-3
6.636453566E1,-9.452342987E-3,-2.853870392E-3,-1.168727875E-3
6.640497581E1,1.086950302E-2,-7.960081100E-3,-6.689071655E-3
6.644549040E1,6.896972656E-3,-6.096839905E-3,5.435943604E-3
6.648599586E1,7.546901703E-3,2.065992355E-2,6.055831909E-5
6.652650295E1,-1.117706299E-2,2.430200577E-3,-6.431579590E-3
6.656696774E1,-9.075164795E-3,-3.653788567E-2,-1.786661148E-2
6.660746331E1,-2.378129959E-2,2.043294907E-2,2.374219894E-2
6.664794852E1,-6.003856659E-3,3.338384628E-2,-2.837657928E-3
6.668843613E1,-6.733417511E-3,3.088259697E-2,6.566524506E-3
6.672893722E1,-1.638412476E-3,-4.779028893E-2,-5.653476715E-2
6.676942472E1,6.245136261E-3,-1.730537415E-2,7.026195526E-3
6.680992087E1,1.825714111E-2,-1.965832710E-2,5.894708633E-2
6.685037305E1,3.710269928E-2,-1.239347458E-2,3.816843033E-2
6.689092972E1,8.594512939E-3,-2.784585953E-2,-1.016330719E-2
6.693137362E1,-4.155015945E-2,-9.121894836E-4,-4.074764252E-2
6.697187967E1,-6.608963013E-4,4.924368858E-2,-5.076789856E-2
6.701237279E1,-3.447675705E-2,4.055905342E-2,-1.134586334E-2
6.705286034E1,-4.044485092E-2,-1.852440834E-2,-1.782226562E-2
6.709332503E1,1.928949356E-2,-1.423001289E-2,-2.787113190E-3
6.713379087E1,1.716327667E-2,-2.866005898E-2,1.693010330E-2
6.717433826E1,1.192045212E-2,-1.881766319E-2,2.835988998E-2
6.721481962E1,-1.310110092E-2,3.861188889E-3,1.208972931E-2
6.725528545E1,-1.259279251E-2,1.842451096E-2,-1.349401474E-2
6.729578326E1,-2.827072144E-2,8.769750595E-3,-2.170372009E-2
6.733628493E1,-1.640892029E-2,-3.281116486E-2,-1.823949814E-2
6.737676550E1,1.442384720E-2,1.362228394E-2,2.846860886E-2
6.741725488E1,2.506256104E-2,-1.065111160E-2,1.644706726E-2
6.745775618E1,4.155158997E-3,-2.241134644E-5,1.814079285E-2
6.749822826E1,-1.338481903E-2,7.615327835E-3,-2.877616882E-2
6.753869336E1,-8.664131165E-3,-5.532503128E-3,-3.551149368E-2
6.757923029E1,-3.916692734E-2,6.886720657E-3,-2.142286301E-2
6.761972092E1,-2.039241791E-2,1.320815086E-2,-1.187658310E-2
6.766016555E1,1.561117172E-2,9.885549545E-3,7.691383362E-4
6.770068842E1,1.017999649E-2,-7.131338120E-3,3.311777115E-2
6.774118826E1,2.771043777E-2,-2.361369133E-2,-1.333713531E-3
6.778167941E1,-7.242679596E-3,-1.407289505E-2,1.504135132E-2
6.782217191E1,-2.882480621E-3,-2.133536339E-2,3.694725037E-2
6.786265988E1,-1.957559586E-2,5.383849144E-2,7.853507996E-2
6.790311592E1,6.553936005E-2,9.298658371E-2,-4.798507690E-2
6.794359665E1,-4.540157318E-2,-9.445524216E-2,-2.832417488E-1
6.798408310E1,-2.417979240E-1,-8.582901955E-2,-7.318162918E-2
6.802459920E1,8.431386948E-2,9.415078163E-2,6.506824493E-2
6.806507727E1,1.994566917E-1,8.990693092E-2,2.350020409E-1
6.810557738E1,8.845996857E-2,-1.145110130E-1,1.628088951E-1
6.814607915E1,4.585313797E-2,-1.562998295E-1,8.809280396E-2
6.818655118E1,8.317613602E-2,1.254367828E-2,-1.102757454E-1
6.822703805E1,-7.014942169E-2,9.833407402E-2,-1.426196098E-1
6.826752941E1,-3.116993904E-1,8.433103561E-2,-1.443023682E-1
6.830804336E1,-1.734013557E-1,8.403563499E-2,-1.256127357E-1
6.834854389E1,-1.253986359E-2,1.379370689E-2,-4.370546341E-2
6.838902857E1,1.259064674E-1,-1.423299313E-1,9.739732742E-2
6.842950909E1,1.997694969E-1,-1.175775528E-1,1.790680885E-1
6.847000805E1,1.093726158E-1,2.635359764E-2,1.486678123E-1
6.851050191E1,4.172325134E-4,9.822010994E-2,3.970098495E-2
6.855099279E1,-6.251621246E-2,7.657647133E-2,-8.846282959E-2
6.859148618E1,-1.150403023E-1,-3.349900246E-2,-1.607294083E-1
6.863198243E1,-9.807586670E-2,-6.064295769E-2,-1.304602623E-1
6.867246019E1,2.001953125E-2,-2.422332764E-2,-5.887508392E-3
6.871294133E1,2.776813507E-2,9.074139595E-2,1.124591827E-1
6.875342482E1,3.560352325E-2,-4.719567299E-2,3.500270844E-2
6.879394123E1,4.772233963E-2,1.044011116E-2,7.351398468E-2
6.883444425E1,2.678251266E-2,-2.287936211E-2,2.110242844E-2
6.887493347E1,2.370595932E-2,-5.573678017E-2,-4.823303223E-2
6.891539514E1,-8.989763260E-2,-1.734614372E-2,-7.173299789E-2
6.895589342E1,-4.890918732E-2,5.123305321E-2,-5.440855026E-2
6.899637102E1,1.806449890E-2,4.138779640E-2,8.368015289E-3
6.903686904E1,1.777982712E-2,-2.554416656E-3,3.969573975E-2
6.907737076E1,4.544973373E-2,-4.007911682E-2,2.064609528E-2
6.911785628E1,3.202581406E-2,-4.653930664E-2,1.107168198E-2
6.915835357E1,-9.328842163E-3,-3.968477249E-3,1.089620590E-2
6.919883904E1,-3.205537796E-2,2.768468857E-2,-1.469278336E-2
6.923933347E1,-3.377389908E-2,2.768111229E-2,-3.315687180E-2
6.927981889E1,-3.850936890E-3,-4.706621170E-3,-1.820135117E-2
6.932030951E1,-4.330635071E-3,-1.803207397E-2,-4.399299622E-3
6.936079654E1,1.383161545E-2,-3.899431229E-2,2.395153046E-2
6.940125279E1,2.433586121E-2,7.488965988E-3,1.787519455E-2
6.944174555E1,-1.432895660E-3,1.005554199E-2,4.716396332E-3
6.948227185E1,-1.254940033E-2,-3.773450851E-3,-2.381372452E-2
6.952276133E1,-2.966928482E-2,1.186275482E-2,-2.947092056E-2
6.956322795E1,-1.718950272E-2,-7.603883743E-3,-2.280712128E-2
6.960372701E1,-1.652717590E-3,4.133939743E-3,-3.662586212E-3
6.964420586E1,1.326465607E-2,-3.767251968E-3,1.626634598E-2
6.968469310E1,4.279136658E-3,-1.453733444E-2,-2.278804779E-3
6.972521743E1,6.901264191E-3,1.625537872E-2,1.805925369E-2
6.976570738E1,3.179073334E-3,2.070426941E-3,-8.777618408E-3
6.980614956E1,-1.584577560E-2,1.029133797E-2,-2.165269852E-2
6.984666862E1,-2.964115143E-2,3.983259201E-3,-2.231121063E-2
6.988720810E1,4.970550537E-3,5.921125412E-3,-1.523494720E-3
6.992765727E1,4.185676575E-3,-4.264116287E-3,1.102256775E-2
6.996815477E1,1.198387146E-2,-4.233598709E-3,1.116895676E-2
7.000857467E1,-1.247835159E-2,8.961677551E-3,1.253175735E-2
7.004913394E1,-2.866744995E-3,-1.241493225E-2,-8.580207825E-3
7.008962034E1,-3.350734711E-3,4.021883011E-3,-1.970005035E-2
7.013003685E1,-2.489233017E-2,5.834817886E-3,-1.877212524E-2
7.017060253E1,-8.384227753E-3,-1.245903969E-2,8.378028870E-4
7.021106123E1,1.034927368E-2,-4.495143890E-3,2.639770508E-2
7.025158618E1,-7.018089294E-3,-2.205371857E-3,1.409721375E-2
7.029207290E1,1.660585403E-2,1.211643219E-3,-1.636981964E-3
7.033256326E1,-1.133918762E-2,-1.221847534E-2,-1.958990097E-2
7.037304612E1,-2.831792831E-2,1.606345177E-2,-2.156543732E-2
7.041352222E1,-5.513191223E-3,1.294827461E-2,-2.253055573E-2
7.045397383E1,6.307125092E-3,-3.415107727E-3,1.056718826E-2
7.049449441E1,5.744457245E-3,-7.636308670E-3,1.480340958E-2
7.053498857E1,9.557247162E-3,-7.825374603E-3,9.114265442E-3
7.057547680E1,4.089832306E-3,-1.540207863E-2,2.360820770E-3
7.061595362E1,4.909515381E-3,-1.190972328E-2,-1.601219177E-2
7.065649534E1,-7.929801941E-3,-1.342034340E-2,-1.223134995E-2
7.069696826E1,5.005359650E-3,9.729623795E-3,-1.269721985E-2
7.073742612E1,-2.144575119E-2,1.789450645E-2,6.914138794E-4
7.077792264E1,-5.879402161E-3,5.736589432E-3,-1.587247849E-2
7.081842519E1,-4.179000854E-3,2.724647522E-3,4.207611084E-3
7.085894154E1,1.256179810E-2,-2.437639236E-2,-1.451110840E-2
7.089942586E1,1.512002945E-2,5.559206009E-3,1.823616028E-2
7.093990472E1,1.050233841E-2,1.768541336E-2,1.450061798E-2
7.098040717E1,4.135131836E-3,-3.069639206E-3,-8.483886719E-3
7.102089696E1,5.316734314E-4,-5.595207214E-3,-1.208925247E-2
7.106138493E1,-1.811933517E-2,-4.426956177E-3,-3.381109238E-2
7.110183993E1,3.961563110E-3,-1.506805420E-2,-3.376483917E-3
7.114231909E1,7.284164429E-3,-1.253294945E-2,9.664058685E-3
7.118284712E1,-3.746032715E-3,1.206946373E-2,1.068973541E-2
7.122331998E1,-1.219987869E-2,-5.211830139E-4,-1.188278198E-2
7.126382337E1,-1.330280304E-2,-4.162788391E-3,-1.165294647E-2
7.130433321E1,-1.742362976E-3,-2.879261971E-2,-1.477432251E-2
7.134482498E1,1.633214951E-2,-2.022552490E-2,-4.908561707E-3
7.138529977E1,2.967357635E-2,8.037567139E-3,2.353048325E-2
7.142576738E1,-1.263713837E-2,1.057863235E-2,4.107761383E-2
7.146628967E1,5.846023560E-3,5.468583107E-2,4.620552063E-4
7.150677962E1,-1.672315598E-2,-2.359390259E-2,-3.630113602E-2
7.154725816E1,-2.615737915E-2,2.399206161E-3,-1.590824127E-2
7.158773378E1,-2.607345581E-3,-2.949786186E-2,-2.087974548E-2
7.162821717E1,5.243778229E-3,-2.087783813E-2,2.796125412E-2
7.166873409E1,3.256416321E-2,1.720547676E-2,4.354143143E-2
7.170922493E1,2.056455612E-2,1.357460022E-2,-3.783702850E-3
7.174971956E1,-1.633977890E-2,4.647493362E-3,-1.258659363E-2
7.179021290E1,-3.484201431E-2,-4.624128342E-3,-2.408170700E-2
7.183070488E1,1.059532166E-3,4.828214645E-3,-9.379863739E-3
7.187122555E1,4.675865173E-3,-4.512310028E-3,6.680965424E-3
7.191168581E1,7.625579834E-3,-2.914428711E-3,6.004810333E-3
7.195216894E1,1.354742050E-2,3.203392029E-3,1.037311554E-2
7.199264212E1,1.630306244E-3,3.294229507E-3,1.400089264E-2
7.203312743E1,-1.656579971E-2,-7.870197296E-3,-1.856517792E-2
7.207362930E1,-1.458501816E-2,2.852201462E-3,-2.705192566E-2
7.211406258E1,1.646232605E-2,2.606630325E-3,1.013708115E-2
7.215457336E1,1.160430908E-2,-3.296160698E-2,3.728866577E-3
7.219512696E1,6.686687469E-3,1.935124397E-2,2.912187576E-2
7.223561743E1,-2.595376968E-2,8.559942245E-3,5.630016327E-3
7.227604800E1,1.320362091E-3,6.934881210E-3,-1.590108871E-2
7.231657920E1,-6.034374237E-3,-1.081728935E-2,1.133441925E-3
7.235708383E1,2.602243423E-2,-2.509355545E-3,-6.775856018E-4
7.239755362E1,-1.157903671E-2,-5.636453629E-3,1.735162735E-2
7.243804847E1,1.078844070E-2,1.275372505E-2,2.308988571E-2
7.247854993E1,4.019737244E-3,3.428196907E-2,-2.329206467E-2
7.251904264E1,-4.732036591E-2,4.241466522E-3,-3.022289276E-2
7.255952654E1,3.195285797E-3,-6.966257095E-2,-1.509284973E-2
7.259998373E1,5.910348892E-2,-3.029584885E-2,9.351730347E-3
7.264052149E1,-3.861427307E-3,5.234003067E-3,5.354785919E-2
7.268098321E1,2.226018906E-2,2.174615860E-2,2.060842514E-2
7.272148816E1,2.844810486E-3,3.446722031E-2,8.375644684E-3
7.276197883E1,-1.723289490E-2,-2.026295662E-2,-5.026578903E-2
7.280247128E1,-2.646112442E-2,-5.303859711E-3,-4.874992371E-2
7.284296685E1,-1.458168030E-3,-1.408934593E-2,-5.212306976E-3
7.288344618E1,1.822471619E-2,-3.892660141E-3,3.674888611E-2
7.292388159E1,2.946901321E-2,1.690626144E-3,3.364181519E-2
7.296444493E1,1.458644867E-3,-3.727674484E-3,2.490520477E-3
7.300489170E1,-4.922389984E-3,5.734682083E-3,-2.121067047E-2
7.304541956E1,-1.725959778E-2,4.633426666E-3,-2.372264862E-3
7.308586925E1,-4.997253418E-4,-1.211524010E-2,3.749847412E-3
7.312639722E1,1.574039459E-3,7.026433945E-3,-2.494430542E-2
7.316687034E1,1.235008240E-3,-4.277372360E-2,-1.972579956E-2
7.320733279E1,-5.540513992E-2,-1.101746559E-1,-2.615165710E-2
7.324783102E1,-1.689195633E-2,5.830264091E-2,1.205635071E-2
7.328832279E1,3.828239441E-2,2.072516680E-1,6.134510040E-3
7.332884836E1,-6.479263306E-3,1.098775864E-2,4.046154022E-2
7.336930394E1,1.286554337E-2,-2.690291405E-2,3.888607025E-3
7.340977764E1,4.071378708E-2,-5.371117592E-2,-4.823684692E-3
7.345030107E1,3.008365631E-3,-7.724070549E-2,2.353286743E-2
7.349080597E1,1.163530350E-2,-5.380558968E-2,3.128957748E-2
7.353129534E1,-2.312660217E-3,-3.861260414E-2,1.652240753E-2
7.357178482E1,-1.772880554E-2,1.774191856E-2,1.724481583E-2
7.361227837E1,1.876544952E-2,6.641793251E-2,2.394199371E-3
7.365277977E1,1.047277451E-2,7.737183571E-2,-1.725625992E-2
7.369322305E1,-1.462650299E-2,1.831555367E-2,-4.412984848E-2
7.373372623E1,-2.436780930E-2,-4.742503166E-2,-3.944778442E-2
7.377422508E1,4.134178162E-3,-6.520652771E-2,6.764888763E-3
7.381467618E1,2.237176895E-2,-8.499622345E-4,7.359123230E-2
7.385520644E1,6.900978088E-2,4.974246025E-2,6.463098526E-2
7.389566550E1,3.625345230E-2,6.326770782E-2,1.197338104E-3
7.393618758E1,-9.290075302E-2,2.374410629E-3,-8.935117722E-2
7.397667753E1,-1.058239937E-1,-7.319664955E-2,-9.640073776E-2
7.401717389E1,2.042293549E-3,-6.465005875E-2,3.526687622E-3
7.405766571E1,9.748888016E-2,-2.161026001E-3,8.460855484E-2
7.409815092E1,1.051239967E-1,1.150655746E-2,1.093978882E-1
7.413863071E1,3.082084656E-2,1.505255699E-2,5.045890808E-2
7.417913550E1,-3.272914886E-2,3.088593483E-2,-3.888082504E-2
7.421961878E1,-6.314325333E-2,-1.318931580E-3,-8.585071564E-2
7.426012034E1,-4.470014572E-2,9.858131409E-3,-7.756090164E-2
7.430061180E1,-2.719402313E-2,-7.240772247E-3,-1.675796509E-2
7.434110441E1,6.892204285E-3,-1.916551590E-2,2.937269211E-2
7.438159383E1,3.873777390E-2,-2.169227600E-2,5.377626419E-2
7.442208675E1,3.072500229E-2,-1.220917702E-2,2.695655823E-2
7.446257680E1,8.341789246E-3,-1.074385643E-2,1.033782959E-3
7.450305951E1,7.166862488E-3,-6.669998169E-3,-1.184368134E-2
7.454353024E1,-2.255868912E-2,1.424074173E-2,1.276016235E-2
7.458402248E1,6.513118744E-3,5.002737045E-3,-2.320051193E-2
7.462452982E1,-2.490186691E-2,1.885747910E-2,9.631633759E-3
7.466501191E1,-4.076480865E-2,-2.660250664E-2,-3.037548065E-2
7.470547842E1,-1.263856888E-2,-1.555633545E-2,-1.572370529E-2
7.474598284E1,-7.542610168E-3,-1.191401482E-2,-3.017902374E-2
7.478648076E1,-1.514387131E-2,1.679372787E-2,2.516746521E-3
7.482698118E1,9.019708633E-2,4.262638092E-2,8.586978912E-2
7.486748774E1,1.107158661E-1,1.329994202E-2,7.126045227E-2
7.490796139E1,3.452634811E-2,1.059532166E-3,-1.628684998E-2
7.494845331E1,-1.365671158E-1,-6.767630577E-2,-4.292345047E-2
7.498892597E1,-4.980039597E-2,-6.229162216E-3,-6.322240829E-2
7.502942701E1,-9.460449219E-4,-6.506681442E-3,-1.789712906E-2
7.506994717E1,2.356052399E-3,1.955032349E-2,9.784698486E-3
7.511039878E1,4.187726974E-2,1.586508751E-2,6.655693054E-3
7.515088279E1,8.653640747E-3,6.983518600E-3,5.387783051E-2
7.519137685E1,1.546049118E-2,2.710604668E-2,2.634859085E-2
7.523185941E1,-5.149841309E-3,3.351449966E-3,-1.686096191E-3
7.527236831E1,1.255512238E-3,-3.478288651E-3,-4.585409164E-2
7.531287258E1,-5.583620071E-2,-3.347754478E-2,-3.212356567E-2
7.535334618E1,-2.170515060E-2,1.661348343E-2,-4.649639130E-3
7.539384659E1,2.429389954E-2,2.277612686E-3,1.889133453E-2
7.543433863E1,5.359888077E-2,-3.582000732E-3,3.363132477E-2
7.547481659E1,1.344490051E-2,5.855560303E-4,-1.409482956E-2
7.551533170E1,-1.024198532E-2,2.183198929E-3,-1.960992813E-2
7.555581331E1,-1.981735229E-3,1.854658127E-3,-8.327007294E-3
7.559630060E1,1.414585114E-2,3.733706474E-2,-2.773284912E-2
7.563680477E1,1.417398453E-2,3.011965752E-2,-2.996301651E-2
7.567729086E1,-8.337497711E-2,-6.886768341E-2,4.347085953E-2
7.571774107E1,4.487371445E-2,1.563215256E-2,1.877307892E-2
7.575827034E1,-2.083730698E-2,9.964227676E-3,2.442073822E-2
7.579875805E1,7.351875305E-3,-1.582980156E-2,-1.747703552E-2
7.583924540E1,1.023864746E-2,8.423328400E-4,7.239818573E-3
7.587974383E1,-3.550624847E-2,-2.315425873E-2,-1.446533203E-2
7.592020555E1,3.490447998E-3,2.640366554E-2,-1.362180710E-2
7.596072180E1,-7.621765137E-3,-2.385544777E-2,6.974220276E-3
7.600117446E1,2.680301666E-2,1.261949539E-3,2.030086517E-2
7.604169758E1,-9.124279022E-3,1.226687431E-2,1.843166351E-2
7.608218675E1,1.853084564E-2,-1.051068306E-2,-6.024360657E-3
7.612260993E1,3.588676453E-3,-1.439952850E-2,-8.719921112E-3
7.616314644E1,-1.404809952E-2,-5.895376205E-3,2.308368683E-3
7.620362727E1,4.238128662E-3,6.818771362E-5,1.551628113E-3
7.624411274E1,-5.439758301E-3,2.166986465E-3,1.040363312E-2
7.628460795E1,6.308555603E-4,1.141357422E-2,9.245395660E-3
7.632506310E1,3.291130066E-3,-8.349657059E-3,-1.533985138E-3
7.636564988E1,7.689952850E-3,-2.180337906E-3,-2.055168152E-4
7.640609946E1,1.658916473E-3,-6.420135498E-3,-1.641654968E-2
7.644660019E1,6.273746490E-3,-5.572557449E-3,1.620769501E-3
7.648708857E1,1.900482178E-2,-1.129627228E-3,1.455879211E-2
7.652758446E1,1.342916489E-2,3.016710281E-3,1.251554489E-2
7.656803935E1,-2.144575119E-2,1.656317711E-2,-5.404949188E-3
7.660857836E1,-1.140689850E-2,-2.389431000E-3,2.673149109E-3
7.664900555E1,9.486675262E-3,-3.507018089E-2,-9.496688843E-3
7.668953227E1,-1.102542877E-2,1.185727119E-2,7.948875427E-3
7.673003540E1,3.086566925E-3,1.201558113E-2,6.450176239E-3
7.677049368E1,3.207588196E-2,1.511240005E-2,1.702785492E-2
7.681098191E1,5.330562592E-3,-1.044321060E-2,8.128643036E-3
7.685150847E1,1.630210876E-2,-2.565336227E-2,-2.382564545E-2
7.689200680E1,2.507591248E-2,2.855038643E-2,1.776933670E-2
7.693247232E1,-1.156187057E-2,-4.205465317E-3,-1.615476608E-2
7.697294409E1,-3.012037277E-2,3.511476517E-2,-3.476047516E-2
7.701344909E1,-3.948593140E-2,-4.040336609E-2,-2.323484421E-2
7.705396889E1,2.822160721E-2,-6.805920601E-2,5.472469330E-2
7.709441659E1,3.210878372E-2,5.423855782E-2,4.786109924E-2
7.713488352E1,-1.265573502E-2,8.896064758E-2,3.994941711E-2
7.717539993E1,-6.100654602E-3,4.292511940E-2,-2.123403549E-2
7.721592368E1,-3.043222427E-2,-1.174092293E-2,-8.779478073E-2
7.725641165E1,-7.211875916E-2,-7.338476181E-2,-7.571983337E-2
7.729689571E1,-2.055788040E-2,-3.321266174E-2,-6.818771362E-3
7.733737196E1,5.331563950E-2,-3.311181068E-2,7.722759247E-2
7.737781524E1,9.062385559E-2,-3.260326385E-2,8.678865433E-2
7.741833149E1,8.136034012E-2,4.202604294E-3,9.892797470E-2
7.745884144E1,-9.130954742E-3,4.683876038E-2,3.529405594E-2
7.749935659E1,-3.262233734E-2,8.530282974E-2,-9.383201599E-2
7.753983279E1,-5.817604065E-2,8.461713791E-3,-1.117281914E-1
7.758029951E1,-5.353832245E-2,-5.040788651E-2,-6.522178650E-2
7.762079118E1,8.893966675E-3,-3.582620621E-2,1.033592224E-2
7.766127784E1,5.201101303E-2,2.707147598E-2,8.329391479E-2
7.770179555E1,7.222127914E-2,1.972603798E-2,8.275842667E-2
7.774229675E1,2.421379089E-2,-2.774238586E-3,2.198886871E-2
7.778278748E1,-3.012561798E-2,-3.046536446E-2,-5.567932129E-2
7.782327139E1,-5.411195755E-2,-1.663088799E-2,-4.499292374E-2
7.786374618E1,-2.749872208E-2,9.476184845E-3,-3.008222580E-2
7.790426477E1,6.549358368E-3,1.928114891E-2,1.008605957E-2
7.794474368E1,6.802558899E-3,1.182532310E-2,2.955961227E-2
7.798522790E1,1.767206192E-2,-2.186298370E-4,1.853561401E-2
7.802569029E1,1.156949997E-2,-2.795886993E-2,1.978302002E-2
7.806619441E1,-6.910324097E-3,-9.677886963E-3,3.081798553E-3
7.810670618E1,-6.725788116E-3,7.455110550E-3,-7.333755493E-3
7.814720488E1,-1.747274399E-2,-2.555608749E-3,-2.991008759E-2
7.818767206E1,-2.107906342E-2,4.705905914E-3,-6.941318512E-3
7.822814753E1,5.341529846E-3,1.059079170E-2,1.369905472E-2
7.826865847E1,1.374483109E-2,1.113176346E-3,1.003599167E-2
7.830916269E1,-7.079124451E-3,-4.230260849E-3,-2.578258514E-3
7.834965165E1,-3.801822662E-3,-1.357626915E-2,-9.762287140E-3
7.839012175E1,1.064777374E-3,1.585602760E-2,8.080959320E-3
7.843060670E1,-4.409313202E-3,6.040334702E-3,1.259851456E-2
7.847109352E1,4.115915298E-2,-4.429340363E-3,7.600307465E-3
7.851159998E1,1.211643219E-3,-3.337860107E-4,1.069259644E-2
7.855209821E1,3.779888153E-3,-2.272439003E-2,-1.243400574E-2
7.859259566E1,-5.684852600E-3,-2.838850021E-3,1.477003098E-2
7.863309566E1,-2.017021179E-2,7.224321365E-3,-1.199197769E-2
7.867356774E1,-1.551151276E-2,1.049447060E-2,-3.246593475E-2
7.871404248E1,-1.360082626E-2,-5.212068558E-3,-2.755069733E-2
7.875451394E1,1.261711121E-3,-2.836775780E-2,4.382133484E-3
7.879502805E1,1.391553879E-2,-1.098656654E-2,3.768396378E-2
7.883551816E1,3.804779053E-2,3.060793877E-2,3.415584564E-2
7.887605071E1,3.777885437E-2,9.197473526E-3,3.389835358E-2
7.891651956E1,6.796836853E-3,-8.597850800E-3,5.393505096E-3
7.895701602E1,-1.733493805E-2,-3.826379776E-3,-2.205657959E-2
7.899747962E1,-1.123857498E-2,4.214048386E-3,-1.567125320E-2
7.903798826E1,-3.000736237E-3,7.523059845E-3,-4.556655884E-3
7.907844201E1,-1.662302017E-2,-5.002260208E-3,-1.785135269E-2
7.911894889E1,-4.910469055E-3,-1.368689537E-2,-1.012468338E-2
7.915946102E1,1.054096222E-2,-3.360962868E-2,2.170801163E-2
7.919995342E1,1.537036896E-2,-3.171777725E-2,2.558898926E-2
7.924044508E1,-1.011323929E-2,7.283210754E-2,1.772880554E-2
7.928093488E1,3.419399261E-3,4.256486893E-2,-2.428007126E-2
7.932142185E1,5.297660828E-4,6.732225418E-3,-2.728462219E-2
7.936191206E1,-1.509809494E-2,-3.247261047E-2,-2.390241623E-2
7.940240659E1,-2.359294891E-2,-3.240752220E-2,4.185676575E-3
7.944289045E1,1.845455170E-2,-1.214885712E-2,2.819299698E-2
7.948336112E1,2.913808823E-2,3.319740295E-3,2.821826935E-2
7.952380326E1,6.303787231E-3,1.631188393E-2,2.255201340E-2
7.956439816E1,1.009941101E-2,2.965354919E-2,-1.578521729E-2
7.960482680E1,-8.505344391E-3,-1.021337509E-2,-2.330684662E-2
7.964527435E1,-7.308959961E-3,-2.661228180E-3,3.037929535E-3
7.968580644E1,-1.480817795E-2,-3.207683563E-2,-1.194477081E-3
7.972634420E1,7.164001465E-3,-3.559112549E-3,1.775741577E-2
7.976680675E1,-1.743793488E-3,8.277893066E-4,1.688957214E-3
7.980727555E1,8.553981781E-3,9.901285172E-3,-1.667261124E-2
7.984779868E1,2.512931824E-3,1.213669777E-2,-3.639125824E-2
7.988830040E1,-2.765655518E-5,1.136469841E-2,1.787710190E-2
7.992876102E1,1.274824142E-2,-1.655888557E-2,5.287408829E-2
7.996927024E1,8.473873138E-3,-2.572584152E-2,1.155900955E-2
8.000976310E1,-9.073257446E-3,4.817485809E-3,-1.618099213E-2
8.005025128E1,-7.366657257E-3,4.222369194E-2,-2.223110199E-2
8.009074086E1,-1.747131348E-3,8.144140244E-3,-1.764345169E-2
8.013116816E1,-1.774883270E-2,-2.971410751E-2,-7.871150970E-3
8.017171967E1,1.668643951E-2,-3.238654137E-2,1.053428650E-2
8.021221633E1,3.314828873E-2,6.538152695E-3,4.676198959E-2
8.025270159E1,2.254295349E-2,1.779294014E-2,1.845884323E-2
8.029318618E1,2.676010132E-3,1.440787315E-2,-2.334880829E-2
