Time (s),Acceleration x (m/s^2),Acceleration y (m/s^2),Acceleration z (m/s^2),Datetime
0.001310524,-5.392225742,6.728916168,2.982354403,2024-06-04 14:55:53.001311
0.021270211,-3.959822416,6.91106987,7.291827679,2024-06-04 14:55:53.021270
0.061270211,-2.551347256,6.721737862,10.49222851,2024-06-04 14:55:53.061270
0.101270211,-2.551347256,6.721737862,10.49222851,2024-06-04 14:55:53.101270
0.141270211,-4.435395718,5.985047817,6.109773636,2024-06-04 14:55:53.141270
0.181270211,-3.690330744,6.336194515,6.527620316,2024-06-04 14:55:53.181270
0.221270211,-3.690330744,6.336194515,6.527620316,2024-06-04 14:55:53.221270
0.261270211,-3.690330744,6.336194515,6.527620316,2024-06-04 14:55:53.261270
0.301270211,-3.690330744,6.336194515,6.527620316,2024-06-04 14:55:53.301270
0.341270211,-3.690330744,6.336194515,6.527620316,2024-06-04 14:55:53.341270
0.381270211,-3.690330744,6.336194515,6.527620316,2024-06-04 14:55:53.381270
0.421270211,-3.690330744,6.336194515,6.527620316,2024-06-04 14:55:53.421270
0.461270211,-3.690330744,6.336194515,6.527620316,2024-06-04 14:55:53.461270
0.501270211,-3.690330744,6.336194515,6.527620316,2024-06-04 14:55:53.501270
0.541270211,-3.690330744,6.336194515,6.527620316,2024-06-04 14:55:53.541270
0.581270211,-3.690330744,6.336194515,6.527620316,2024-06-04 14:55:53.581270
0.621270211,-3.690330744,6.336194515,6.527620316,2024-06-04 14:55:53.621270
0.661270211,-3.690330744,6.336194515,6.527620316,2024-06-04 14:55:53.661270
0.701270211,-2.130808592,1.564307809,5.601896763,2024-06-04 14:55:53.701270
0.741270211,1.93190515,3.099901676,7.623532772,2024-06-04 14:55:53.741270
0.781270211,2.451745987,5.082056046,5.073681355,2024-06-04 14:55:53.781270
0.821270211,2.194218397,5.024628639,6.750451565,2024-06-04 14:55:53.821270
0.861270211,0.01914258115,3.692723513,6.151648045,2024-06-04 14:55:53.861270
0.901270211,0.01914258115,3.692723513,6.151648045,2024-06-04 14:55:53.901270
0.941270211,0.01914258115,3.692723513,6.151648045,2024-06-04 14:55:53.941270
0.981270211,0.01914258115,3.692723513,6.151648045,2024-06-04 14:55:53.981270
1.021270211,0.01914258115,3.692723513,6.151648045,2024-06-04 14:55:54.021270
1.061270211,-1.15094769,0.8742775917,8.559126854,2024-06-04 14:55:54.061270
1.101270211,-2.060220242,-2.678166628,9.238389015,2024-06-04 14:55:54.101270
1.141270211,-2.060220242,-2.678166628,9.238389015,2024-06-04 14:55:54.141270
1.181270211,-2.060220242,-2.678166628,9.238389015,2024-06-04 14:55:54.181270
1.221270211,-2.060220242,-2.678166628,9.238389015,2024-06-04 14:55:54.221270
1.261270211,-2.060220242,-2.678166628,9.238389015,2024-06-04 14:55:54.261270
1.301270211,-2.060220242,-2.678166628,9.238389015,2024-06-04 14:55:54.301270
1.341270211,-2.060220242,-2.678166628,9.238389015,2024-06-04 14:55:54.341270
1.381270211,-2.060220242,-2.678166628,9.238389015,2024-06-04 14:55:54.381270
1.421270211,-2.060220242,-2.678166628,9.238389015,2024-06-04 14:55:54.421270
1.461270211,-2.060220242,-2.678166628,9.238389015,2024-06-04 14:55:54.461270
1.501270211,-2.060220242,-2.678166628,9.238389015,2024-06-04 14:55:54.501270
1.541270211,3.170490026,-0.4576273263,9.53898716,2024-06-04 14:55:54.541270
1.581270211,3.937090635,1.240977645,7.47398138,2024-06-04 14:55:54.581270
1.621270211,3.937090635,1.240977645,7.47398138,2024-06-04 14:55:54.621270
1.661270211,3.937090635,1.240977645,7.47398138,2024-06-04 14:55:54.661270
1.701270211,3.937090635,1.240977645,7.47398138,2024-06-04 14:55:54.701270
1.741270211,2.686541557,1.361815214,8.221439362,2024-06-04 14:55:54.741270
1.781270211,4.442574501,1.409671664,13.73450279,2024-06-04 14:55:54.781270
1.821270211,3.710669756,-0.4241278172,8.80708313,2024-06-04 14:55:54.821270
1.861270211,3.710669756,-0.4241278172,8.80708313,2024-06-04 14:55:54.861270
1.901270211,3.710669756,-0.4241278172,8.80708313,2024-06-04 14:55:54.901270
1.941270211,3.710669756,-0.4241278172,8.80708313,2024-06-04 14:55:54.941270
1.981270211,3.710669756,-0.4241278172,8.80708313,2024-06-04 14:55:54.981270
2.021270211,3.710669756,-0.4241278172,8.80708313,2024-06-04 14:55:55.021270
2.061270211,3.710669756,-0.4241278172,8.80708313,2024-06-04 14:55:55.061270
2.101270211,-5.437689304,-0.280259341,10.46112156,2024-06-04 14:55:55.101270
2.141270211,-5.437689304,-0.280259341,10.46112156,2024-06-04 14:55:55.141270
2.181270211,-5.437689304,-0.280259341,10.46112156,2024-06-04 14:55:55.181270
2.221270211,-5.437689304,-0.280259341,10.46112156,2024-06-04 14:55:55.221270
2.261270211,-5.437689304,-0.280259341,10.46112156,2024-06-04 14:55:55.261270
2.301270211,-5.437689304,-0.280259341,10.46112156,2024-06-04 14:55:55.301270
2.341270211,3.595515013,-5.297709465,9.69452095,2024-06-04 14:55:55.341270
2.381270211,3.595515013,-5.297709465,9.69452095,2024-06-04 14:55:55.381270
2.421270211,-1.67437768,-1.549950838,9.138788223,2024-06-04 14:55:55.421270
2.461270211,-1.67437768,-1.549950838,9.138788223,2024-06-04 14:55:55.461270
2.501270211,-1.67437768,-1.549950838,9.138788223,2024-06-04 14:55:55.501270
2.541270211,-1.67437768,-1.549950838,9.138788223,2024-06-04 14:55:55.541270
2.581270211,-1.67437768,-1.549950838,9.138788223,2024-06-04 14:55:55.581270
2.621270211,-1.67437768,-1.549950838,9.138788223,2024-06-04 14:55:55.621270
2.661270211,-8.321938515,-0.5066801906,13.17877007,2024-06-04 14:55:55.661270
2.701270211,-8.321938515,-0.5066801906,13.17877007,2024-06-04 14:55:55.701270
2.741270211,-8.321938515,-0.5066801906,13.17877007,2024-06-04 14:55:55.741270
2.781270211,-8.321938515,-0.5066801906,13.17877007,2024-06-04 14:55:55.781270
2.821270211,-8.321938515,-0.5066801906,13.17877007,2024-06-04 14:55:55.821270
2.861270211,-4.025625229,-4.747958183,6.632007122,2024-06-04 14:55:55.861270
2.901270211,-2.527119875,-0.8419744968,9.414261818,2024-06-04 14:55:55.901270
2.941270211,-2.527119875,-0.8419744968,9.414261818,2024-06-04 14:55:55.941270
2.981270211,-2.527119875,-0.8419744968,9.414261818,2024-06-04 14:55:55.981270
3.021270211,-2.527119875,-0.8419744968,9.414261818,2024-06-04 14:55:56.021270
3.061270211,-2.527119875,-0.8419744968,9.414261818,2024-06-04 14:55:56.061270
3.101270211,-4.004089355,-3.922733545,8.070392609,2024-06-04 14:55:56.101270
3.141270211,-1.40847528,-2.496013165,8.997611046,2024-06-04 14:55:56.141270
3.181270211,-4.595715046,-6.555137634,8.388936996,2024-06-04 14:55:56.181270
3.221270211,-5.146662235,-4.667499542,5.683252811,2024-06-04 14:55:56.221270
3.261270211,-4.256831646,-3.221935749,0.2994019389,2024-06-04 14:55:56.261270
3.301270211,-4.256831646,-3.221935749,0.2994019389,2024-06-04 14:55:56.301270
3.341270211,-4.256831646,-3.221935749,0.2994019389,2024-06-04 14:55:56.341270
3.381270211,-4.256831646,-3.221935749,0.2994019389,2024-06-04 14:55:56.381270
3.421270211,-4.256831646,-3.221935749,0.2994019389,2024-06-04 14:55:56.421270
3.461270211,-4.256831646,-3.221935749,0.2994019389,2024-06-04 14:55:56.461270
3.501270211,-4.256831646,-3.221935749,0.2994019389,2024-06-04 14:55:56.501270
3.501270211,-7.682456017,-4.926223755,8.78195858,2024-06-04 14:55:56.501270
3.581270211,-7.682456017,-4.926223755,8.78195858,2024-06-04 14:55:56.581270
3.621270211,-7.682456017,-4.926223755,8.78195858,2024-06-04 14:55:56.621270
3.661270211,-7.682456017,-4.926223755,8.78195858,2024-06-04 14:55:56.661270
3.701270211,-7.682456017,-4.926223755,8.78195858,2024-06-04 14:55:56.701270
3.741270211,-7.682456017,-4.926223755,8.78195858,2024-06-04 14:55:56.741270
3.781270211,-7.682456017,-4.926223755,8.78195858,2024-06-04 14:55:56.781270
3.821270211,-7.682456017,-4.926223755,8.78195858,2024-06-04 14:55:56.821270
3.861270211,-11.01805115,-3.489034414,0.8694919348,2024-06-04 14:55:56.861270
3.901270211,-1.735394597,0.2192423791,-0.3508476317,2024-06-04 14:55:56.901270
3.941270211,-5.962316036,-6.850052834,10.3594265,2024-06-04 14:55:56.941270
3.981270211,-12.24945736,-9.656235695,-0.9451649189,2024-06-04 14:55:56.981270
4.021270211,-12.24945736,-9.656235695,-0.9451649189,2024-06-04 14:55:57.021270
4.061270211,-12.24945736,-9.656235695,-0.9451649189,2024-06-04 14:55:57.061270
4.101270211,-12.24945736,-9.656235695,-0.9451649189,2024-06-04 14:55:57.101270
4.141270211,-12.24945736,-9.656235695,-0.9451649189,2024-06-04 14:55:57.141270
4.181270211,-12.24945736,-9.656235695,-0.9451649189,2024-06-04 14:55:57.181270
4.221270211,-20.90070724,-0.2886342406,-0.2216351926,2024-06-04 14:55:57.221270
4.261270211,-6.466603279,1.777568102,14.88814259,2024-06-04 14:55:57.261270
4.301270211,-12.85783291,-0.08973085135,-0.6299105883,2024-06-04 14:55:57.301270
4.341270211,-12.85783291,-0.08973085135,-0.6299105883,2024-06-04 14:55:57.341270
4.381270211,-12.85783291,-0.08973085135,-0.6299105883,2024-06-04 14:55:57.381270
4.421270211,-12.85783291,-0.08973085135,-0.6299105883,2024-06-04 14:55:57.421270
4.461270211,-12.85783291,-0.08973085135,-0.6299105883,2024-06-04 14:55:57.461270
4.501270211,-12.85783291,-0.08973085135,-0.6299105883,2024-06-04 14:55:57.501270
4.541270211,-12.85783291,-0.08973085135,-0.6299105883,2024-06-04 14:55:57.541270
4.581270211,-12.85783291,-0.08973085135,-0.6299105883,2024-06-04 14:55:57.581270
4.621270211,-12.85783291,-0.08973085135,-0.6299105883,2024-06-04 14:55:57.621270
4.661270211,-12.85783291,-0.08973085135,-0.6299105883,2024-06-04 14:55:57.661270
4.701270211,-12.85783291,-0.08973085135,-0.6299105883,2024-06-04 14:55:57.701270
4.741270211,-12.85783291,-0.08973085135,-0.6299105883,2024-06-04 14:55:57.741270
4.781270211,-12.85783291,-0.08973085135,-0.6299105883,2024-06-04 14:55:57.781270
4.821270211,-12.85783291,-0.08973085135,-0.6299105883,2024-06-04 14:55:57.821270
4.861270211,-5.03300333,-2.456531525,2.260020971,2024-06-04 14:55:57.861270
4.901270211,-5.815157413,-7.096812725,2.751147747,2024-06-04 14:55:57.901270
4.941270211,-5.815157413,-7.096812725,2.751147747,2024-06-04 14:55:57.941270
4.981270211,-5.815157413,-7.096812725,2.751147747,2024-06-04 14:55:57.981270
5.021270211,-5.659324646,-3.503391504,4.902295589,2024-06-04 14:55:58.021270
5.061270211,-5.659324646,-3.503391504,4.902295589,2024-06-04 14:55:58.061270
5.101270211,-5.659324646,-3.503391504,4.902295589,2024-06-04 14:55:58.101270
5.141270211,-5.659324646,-3.503391504,4.902295589,2024-06-04 14:55:58.141270
5.181270211,-5.659324646,-3.503391504,4.902295589,2024-06-04 14:55:58.181270
5.221270211,-5.659324646,-3.503391504,4.902295589,2024-06-04 14:55:58.221270
5.261270211,-5.659324646,-3.503391504,4.902295589,2024-06-04 14:55:58.261270
5.301270211,-5.659324646,-3.503391504,4.902295589,2024-06-04 14:55:58.301270
5.341270211,-5.659324646,-3.503391504,4.902295589,2024-06-04 14:55:58.341270
5.381270211,-5.659324646,-3.503391504,4.902295589,2024-06-04 14:55:58.381270
5.421270211,-5.659324646,-3.503391504,4.902295589,2024-06-04 14:55:58.421270
5.461270211,-5.659324646,-3.503391504,4.902295589,2024-06-04 14:55:58.461270
5.501270211,-5.659324646,-3.503391504,4.902295589,2024-06-04 14:55:58.501270
5.541270211,-5.659324646,-3.503391504,4.902295589,2024-06-04 14:55:58.541270
5.581270211,-5.659324646,-3.503391504,4.902295589,2024-06-04 14:55:58.581270
5.621270211,-5.423332691,-4.626821518,1.49132669,2024-06-04 14:55:58.621270
5.661270211,-4.039981842,-8.953044891,4.570590496,2024-06-04 14:55:58.661270
5.701270211,-7.157829762,-9.441779137,3.885644913,2024-06-04 14:55:58.701270
5.741270211,-6.92542696,-8.864510536,5.155037403,2024-06-04 14:55:58.741270
5.781270211,-6.590132713,-8.240582466,5.243870735,2024-06-04 14:55:58.781270
5.821270211,-5.53370142,-10.74497032,4.490430832,2024-06-04 14:55:58.821270
5.861270211,-8.640482903,-4.382454872,2.991925716,2024-06-04 14:55:58.861270
5.901270211,-8.640482903,-4.382454872,2.991925716,2024-06-04 14:55:58.901270
5.941270211,-8.640482903,-4.382454872,2.991925716,2024-06-04 14:55:58.941270
5.981270211,-8.640482903,-4.382454872,2.991925716,2024-06-04 14:55:58.981270
6.021270211,-8.640482903,-4.382454872,2.991925716,2024-06-04 14:55:59.021270
6.061270211,-8.640482903,-4.382454872,2.991925716,2024-06-04 14:55:59.061270
6.101270211,-5.462814331,-7.805686474,4.28315258,2024-06-04 14:55:59.101270
6.141270211,-5.462814331,-7.805686474,4.28315258,2024-06-04 14:55:59.141270
6.181270211,-5.462814331,-7.805686474,4.28315258,2024-06-04 14:55:59.181270
6.221270211,-5.462814331,-7.805686474,4.28315258,2024-06-04 14:55:59.221270
6.261270211,-5.462814331,-7.805686474,4.28315258,2024-06-04 14:55:59.261270
6.301270211,-5.462814331,-7.805686474,4.28315258,2024-06-04 14:55:59.301270
6.341270211,-5.462814331,-7.805686474,4.28315258,2024-06-04 14:55:59.341270
6.381270211,-5.462814331,-7.805686474,4.28315258,2024-06-04 14:55:59.381270
6.421270211,-7.767401218,-5.121537685,4.802993298,2024-06-04 14:55:59.421270
6.461270211,-7.200900555,-4.326223373,4.977968216,2024-06-04 14:55:59.461270
6.501270211,-6.844070911,-5.319244862,5.562415123,2024-06-04 14:55:59.501270
6.541270211,-6.588936329,-4.00887537,6.01376152,2024-06-04 14:55:59.541270
6.581270211,-6.244967937,-2.765504837,5.976672649,2024-06-04 14:55:59.581270
6.621270211,-6.244967937,-2.765504837,5.976672649,2024-06-04 14:55:59.621270
6.661270211,-6.244967937,-2.765504837,5.976672649,2024-06-04 14:55:59.661270
6.701270211,-6.244967937,-2.765504837,5.976672649,2024-06-04 14:55:59.701270
6.741270211,-3.786043644,-1.373779297,4.750350952,2024-06-04 14:55:59.741270
6.781270211,-3.786043644,-1.373779297,4.750350952,2024-06-04 14:55:59.781270
6.821270211,-4.335794449,-1.16769743,5.754140377,2024-06-04 14:55:59.821270
6.861270211,-4.335794449,-1.16769743,5.754140377,2024-06-04 14:55:59.861270
6.901270211,-4.335794449,-1.16769743,5.754140377,2024-06-04 14:55:59.901270
6.941270211,-4.335794449,-1.16769743,5.754140377,2024-06-04 14:55:59.941270
6.981270211,-4.335794449,-1.16769743,5.754140377,2024-06-04 14:55:59.981270
7.021270211,-4.335794449,-1.16769743,5.754140377,2024-06-04 14:56:00.021270
7.061270211,-4.335794449,-1.16769743,5.754140377,2024-06-04 14:56:00.061270
7.101270211,-5.975476265,-4.087838173,5.231906891,2024-06-04 14:56:00.101270
7.141270211,-5.975476265,-4.087838173,5.231906891,2024-06-04 14:56:00.141270
7.181270211,-5.975476265,-4.087838173,5.231906891,2024-06-04 14:56:00.181270
7.221270211,-7.051050186,-6.112166405,5.790032387,2024-06-04 14:56:00.221270
7.261270211,-6.355337143,-7.79372263,5.021039009,2024-06-04 14:56:00.261270
7.301270211,-6.61166811,-8.611768723,6.116951942,2024-06-04 14:56:00.301270
7.341270211,-6.463014126,-8.325527191,5.921638012,2024-06-04 14:56:00.341270
7.381270211,-6.463014126,-8.325527191,5.921638012,2024-06-04 14:56:00.381270
7.421270211,-6.463014126,-8.325527191,5.921638012,2024-06-04 14:56:00.421270
7.461270211,-6.463014126,-8.325527191,5.921638012,2024-06-04 14:56:00.461270
7.501270211,-6.463014126,-8.325527191,5.921638012,2024-06-04 14:56:00.501270
7.541270211,-6.463014126,-8.325527191,5.921638012,2024-06-04 14:56:00.541270
7.581270211,-6.037988663,-8.581858635,5.904888153,2024-06-04 14:56:00.581270
7.621270211,-5.864210129,-6.811468601,3.863810301,2024-06-04 14:56:00.621270
7.661270211,-6.832107067,-5.291727066,3.546462297,2024-06-04 14:56:00.661270
7.701270211,-6.832107067,-5.291727066,3.546462297,2024-06-04 14:56:00.701270
7.741270211,-6.832107067,-5.291727066,3.546462297,2024-06-04 14:56:00.741270
7.781270211,-6.832107067,-5.291727066,3.546462297,2024-06-04 14:56:00.781270
7.821270211,-6.832107067,-5.291727066,3.546462297,2024-06-04 14:56:00.821270
7.861270211,-7.967501163,-6.795915604,5.340780258,2024-06-04 14:56:00.861270
7.901270211,-7.967501163,-6.795915604,5.340780258,2024-06-04 14:56:00.901270
7.941270211,-7.967501163,-6.795915604,5.340780258,2024-06-04 14:56:00.941270
7.981270211,-7.967501163,-6.795915604,5.340780258,2024-06-04 14:56:00.981270
8.021270211,-7.967501163,-6.795915604,5.340780258,2024-06-04 14:56:01.021270
8.061270211,-7.967501163,-6.795915604,5.340780258,2024-06-04 14:56:01.061270
8.101270211,-4.211368084,-2.976372242,5.545665741,2024-06-04 14:56:01.101270
8.141270211,-3.830310822,-2.560918331,4.832903385,2024-06-04 14:56:01.141270
8.181270211,-3.454338551,-0.7067800164,4.714458942,2024-06-04 14:56:01.181270
8.221270211,-4.075874329,-0.6323033571,4.454538345,2024-06-04 14:56:01.221270
8.261270211,-4.075874329,-0.6323033571,4.454538345,2024-06-04 14:56:01.261270
8.301270211,-4.075874329,-0.6323033571,4.454538345,2024-06-04 14:56:01.301270
8.341270211,-4.075874329,-0.6323033571,4.454538345,2024-06-04 14:56:01.341270
8.381270211,-4.075874329,-0.6323033571,4.454538345,2024-06-04 14:56:01.381270
8.421270211,-4.075874329,-0.6323033571,4.454538345,2024-06-04 14:56:01.421270
8.461270211,-4.075874329,-0.6323033571,4.454538345,2024-06-04 14:56:01.461270
8.501270211,-4.075874329,-0.6323033571,4.454538345,2024-06-04 14:56:01.501270
8.541270211,-6.319444656,-7.312166691,6.58654356,2024-06-04 14:56:01.541270
8.581270211,-6.319444656,-7.312166691,6.58654356,2024-06-04 14:56:01.581270
8.621270211,-6.319444656,-7.312166691,6.58654356,2024-06-04 14:56:01.621270
8.661270211,-6.319444656,-7.312166691,6.58654356,2024-06-04 14:56:01.661270
8.701270211,-6.319444656,-7.312166691,6.58654356,2024-06-04 14:56:01.701270
8.741270211,-6.319444656,-7.312166691,6.58654356,2024-06-04 14:56:01.741270
8.781270211,-6.319444656,-7.312166691,6.58654356,2024-06-04 14:56:01.781270
8.821270211,-6.319444656,-7.312166691,6.58654356,2024-06-04 14:56:01.821270
8.861270211,-5.880959988,-6.999604225,4.153940201,2024-06-04 14:56:01.861270
8.901270211,-5.880959988,-6.999604225,4.153940201,2024-06-04 14:56:01.901270
8.941270211,-6.201897144,-8.750851631,7.545766354,2024-06-04 14:56:01.941270
8.981270211,-6.708577156,-9.25753212,6.255735874,2024-06-04 14:56:01.981270
9.021270211,-3.232703447,-6.978068829,1.957029819,2024-06-04 14:56:02.021270
9.061270211,-3.371786118,-7.588837147,3.635295868,2024-06-04 14:56:02.061270
9.101270211,-3.371786118,-7.588837147,3.635295868,2024-06-04 14:56:02.101270
9.141270211,-3.371786118,-7.588837147,3.635295868,2024-06-04 14:56:02.141270
9.181270211,-3.371786118,-7.588837147,3.635295868,2024-06-04 14:56:02.181270
9.221270211,-3.371786118,-7.588837147,3.635295868,2024-06-04 14:56:02.221270
9.261270211,-3.371786118,-7.588837147,3.635295868,2024-06-04 14:56:02.261270
9.301270211,-6.271288872,-4.794618607,4.418646336,2024-06-04 14:56:02.301270
9.341270211,-6.271288872,-4.794618607,4.418646336,2024-06-04 14:56:02.341270
9.381270211,-6.271288872,-4.794618607,4.418646336,2024-06-04 14:56:02.381270
9.421270211,-6.271288872,-4.794618607,4.418646336,2024-06-04 14:56:02.421270
9.461270211,-6.271288872,-4.794618607,4.418646336,2024-06-04 14:56:02.461270
9.501270211,-6.271288872,-4.794618607,4.418646336,2024-06-04 14:56:02.501270
9.541270211,-6.271288872,-4.794618607,4.418646336,2024-06-04 14:56:02.541270
9.581270211,-6.271288872,-4.794618607,4.418646336,2024-06-04 14:56:02.581270
9.621270211,-6.271288872,-4.794618607,4.418646336,2024-06-04 14:56:02.621270
9.661270211,-6.271288872,-4.794618607,4.418646336,2024-06-04 14:56:02.661270
9.701270211,-5.956333637,-2.472084999,6.294320107,2024-06-04 14:56:02.701270
9.741270211,-3.172882795,-1.831406593,5.171787262,2024-06-04 14:56:02.741270
9.781270211,-2.69850564,-1.608574986,5.207679272,2024-06-04 14:56:02.781270
9.821270211,-7.324131012,-3.023032188,6.143272877,2024-06-04 14:56:02.821270
9.861270211,-6.973283291,-3.939483404,5.631807327,2024-06-04 14:56:02.861270
9.901270211,-6.973283291,-3.939483404,5.631807327,2024-06-04 14:56:02.901270
9.941270211,-6.973283291,-3.939483404,5.631807327,2024-06-04 14:56:02.941270
9.981270211,-6.973283291,-3.939483404,5.631807327,2024-06-04 14:56:02.981270
10.02127021,-6.16121912,-6.13609457,4.606482506,2024-06-04 14:56:03.021270
10.06127021,-6.488138676,-5.467599869,4.174279213,2024-06-04 14:56:03.061270
10.10127021,-6.488138676,-5.467599869,4.174279213,2024-06-04 14:56:03.101270
10.14127021,-6.488138676,-5.467599869,4.174279213,2024-06-04 14:56:03.141270
10.18127021,-6.488138676,-5.467599869,4.174279213,2024-06-04 14:56:03.181270
10.22127021,-6.488138676,-5.467599869,4.174279213,2024-06-04 14:56:03.221270
10.26127021,-6.488138676,-5.467599869,4.174279213,2024-06-04 14:56:03.261270
10.30127021,-6.488138676,-5.467599869,4.174279213,2024-06-04 14:56:03.301270
10.34127021,-6.488138676,-5.467599869,4.174279213,2024-06-04 14:56:03.341270
10.38127021,-6.488138676,-5.467599869,4.174279213,2024-06-04 14:56:03.381270
10.42127021,-6.488138676,-5.467599869,4.174279213,2024-06-04 14:56:03.421270
10.46127021,-6.488138676,-5.467599869,4.174279213,2024-06-04 14:56:03.461270
10.50127021,-6.488138676,-5.467599869,4.174279213,2024-06-04 14:56:03.501270
10.54127021,-6.488138676,-5.467599869,4.174279213,2024-06-04 14:56:03.541270
10.58127021,-7.471588612,-6.766005039,5.274977684,2024-06-04 14:56:03.581270
10.62127021,-8.526823044,-6.776772976,4.891527653,2024-06-04 14:56:03.621270
10.66127021,-8.526823044,-6.776772976,4.891527653,2024-06-04 14:56:03.661270
10.70127021,-8.526823044,-6.776772976,4.891527653,2024-06-04 14:56:03.701270
10.74127021,-8.526823044,-6.776772976,4.891527653,2024-06-04 14:56:03.741270
10.78127021,-5.138287544,-2.991925716,4.135694981,2024-06-04 14:56:03.781270
10.82127021,-7.045068264,-3.781257868,6.158826351,2024-06-04 14:56:03.821270
10.86127021,-7.251150131,-3.971786499,5.503791332,2024-06-04 14:56:03.861270
10.90127021,-7.251150131,-3.971786499,5.503791332,2024-06-04 14:56:03.901270
10.94127021,-7.251150131,-3.971786499,5.503791332,2024-06-04 14:56:03.941270
10.98127021,-7.251150131,-3.971786499,5.503791332,2024-06-04 14:56:03.981270
11.02127021,-7.251150131,-3.971786499,5.503791332,2024-06-04 14:56:04.021270
11.06127021,-7.251150131,-3.971786499,5.503791332,2024-06-04 14:56:04.061270
11.10127021,-7.251150131,-3.971786499,5.503791332,2024-06-04 14:56:04.101270
11.14127021,-7.251150131,-3.971786499,5.503791332,2024-06-04 14:56:04.141270
11.18127021,-7.251150131,-3.971786499,5.503791332,2024-06-04 14:56:04.181270
11.22127021,-7.251150131,-3.971786499,5.503791332,2024-06-04 14:56:04.221270
11.26127021,-7.251150131,-3.971786499,5.503791332,2024-06-04 14:56:04.261270
11.30127021,-7.251150131,-3.971786499,5.503791332,2024-06-04 14:56:04.301270
11.34127021,-7.251150131,-3.971786499,5.503791332,2024-06-04 14:56:04.341270
11.38127021,-7.251150131,-3.971786499,5.503791332,2024-06-04 14:56:04.381270
11.38127021,-6.69063139,-8.157731056,3.759722471,2024-06-04 14:56:04.381270
11.46127021,-7.479963779,-8.041678429,5.446064472,2024-06-04 14:56:04.461270
11.46127021,-6.69063139,-8.157731056,3.759722471,2024-06-04 14:56:04.461270
11.54127021,-5.341976643,-8.603393555,5.952744484,2024-06-04 14:56:04.541270
11.58127021,-5.341976643,-8.603393555,5.952744484,2024-06-04 14:56:04.581270
11.62127021,-5.341976643,-8.603393555,5.952744484,2024-06-04 14:56:04.621270
11.66127021,-5.341976643,-8.603393555,5.952744484,2024-06-04 14:56:04.661270
11.70127021,-5.341976643,-8.603393555,5.952744484,2024-06-04 14:56:04.701270
11.74127021,-5.341976643,-8.603393555,5.952744484,2024-06-04 14:56:04.741270
11.78127021,-7.530212879,-8.417651176,5.068895817,2024-06-04 14:56:04.781270
11.82127021,-8.138587952,-8.023732185,4.272384644,2024-06-04 14:56:04.821270
11.86127021,-7.180561543,-7.695616722,4.948955536,2024-06-04 14:56:04.861270
11.90127021,-7.180561543,-7.695616722,4.948955536,2024-06-04 14:56:04.901270
11.94127021,-7.180561543,-7.695616722,4.948955536,2024-06-04 14:56:04.941270
11.98127021,-7.180561543,-7.695616722,4.948955536,2024-06-04 14:56:04.981270
12.02127021,-7.180561543,-7.695616722,4.948955536,2024-06-04 14:56:05.021270
12.06127021,-7.180561543,-7.695616722,4.948955536,2024-06-04 14:56:05.061270
12.10127021,-7.180561543,-7.695616722,4.948955536,2024-06-04 14:56:05.101270
12.14127021,-7.180561543,-7.695616722,4.948955536,2024-06-04 14:56:05.141270
12.18127021,-4.626821518,-2.854338408,5.271388054,2024-06-04 14:56:05.181270
12.22127021,-3.503391504,-2.497209549,4.461717129,2024-06-04 14:56:05.221270
12.26127021,-3.42323184,-0.3364906907,4.207778454,2024-06-04 14:56:05.261270
12.26127021,-3.42323184,-0.3364906907,4.207778454,2024-06-04 14:56:05.261270
12.34127021,-3.42323184,-0.3364906907,4.207778454,2024-06-04 14:56:05.341270
12.38127021,-3.42323184,-0.3364906907,4.207778454,2024-06-04 14:56:05.381270
12.42127021,-3.42323184,-0.3364906907,4.207778454,2024-06-04 14:56:05.421270
12.46127021,-3.42323184,-0.3364906907,4.207778454,2024-06-04 14:56:05.461270
12.50127021,-3.42323184,-0.3364906907,4.207778454,2024-06-04 14:56:05.501270
12.54127021,-3.42323184,-0.3364906907,4.207778454,2024-06-04 14:56:05.541270
12.58127021,-3.42323184,-0.3364906907,4.207778454,2024-06-04 14:56:05.581270
12.62127021,-6.064310074,-5.404190063,4.595715046,2024-06-04 14:56:05.621270
12.66127021,-6.064310074,-5.404190063,4.595715046,2024-06-04 14:56:05.661270
12.70127021,-6.064310074,-5.404190063,4.595715046,2024-06-04 14:56:05.701270
12.74127021,-6.064310074,-5.404190063,4.595715046,2024-06-04 14:56:05.741270
12.78127021,-6.064310074,-5.404190063,4.595715046,2024-06-04 14:56:05.781270
12.82127021,-6.064310074,-5.404190063,4.595715046,2024-06-04 14:56:05.821270
12.86127021,-5.076074123,-6.592525482,3.529712439,2024-06-04 14:56:05.861270
12.90127021,-5.076074123,-6.592525482,3.529712439,2024-06-04 14:56:05.901270
12.94127021,-5.076074123,-6.592525482,3.529712439,2024-06-04 14:56:05.941270
12.98127021,-5.076074123,-6.592525482,3.529712439,2024-06-04 14:56:05.981270
13.02127021,-6.610471725,-6.719345093,4.855635166,2024-06-04 14:56:06.021270
13.06127021,-7.901698589,-7.8810606,5.420939922,2024-06-04 14:56:06.061270
13.10127021,-6.267699718,-9.027522087,4.679463863,2024-06-04 14:56:06.101270
13.14127021,-6.267699718,-9.027522087,4.679463863,2024-06-04 14:56:06.141270
13.18127021,-6.267699718,-9.027522087,4.679463863,2024-06-04 14:56:06.181270
13.22127021,-5.570790291,-5.846263885,5.085645199,2024-06-04 14:56:06.221270
13.26127021,-5.570790291,-5.846263885,5.085645199,2024-06-04 14:56:06.261270
13.30127021,-5.628218174,-4.128516197,4.98275423,2024-06-04 14:56:06.301270
13.34127021,-7.5924263,-4.897509575,5.593522072,2024-06-04 14:56:06.341270
13.38127021,-6.065506458,-5.074877739,5.062913418,2024-06-04 14:56:06.381270
13.38127021,-6.065506458,-5.074877739,5.062913418,2024-06-04 14:56:06.381270
13.46127021,-6.065506458,-5.074877739,5.062913418,2024-06-04 14:56:06.461270
13.50127021,-6.065506458,-5.074877739,5.062913418,2024-06-04 14:56:06.501270
13.54127021,-6.065506458,-5.074877739,5.062913418,2024-06-04 14:56:06.541270
13.58127021,-6.065506458,-5.074877739,5.062913418,2024-06-04 14:56:06.581270
13.62127021,-6.065506458,-5.074877739,5.062913418,2024-06-04 14:56:06.621270
13.66127021,-6.065506458,-5.074877739,5.062913418,2024-06-04 14:56:06.661270
13.70127021,-6.065506458,-5.074877739,5.062913418,2024-06-04 14:56:06.701270
13.74127021,-6.065506458,-5.074877739,5.062913418,2024-06-04 14:56:06.741270
13.78127021,-6.065506458,-5.074877739,5.062913418,2024-06-04 14:56:06.781270
13.82127021,-6.065506458,-5.074877739,5.062913418,2024-06-04 14:56:06.821270
13.86127021,-5.673681736,-6.130112648,4.069892406,2024-06-04 14:56:06.861270
13.90127021,-7.800900936,-11.16431236,3.626920938,2024-06-04 14:56:06.901270
13.94127021,-7.800900936,-11.16431236,3.626920938,2024-06-04 14:56:06.941270
13.98127021,-8.864510536,-9.731609344,5.796014786,2024-06-04 14:56:06.981270
14.02127021,-8.864510536,-9.731609344,5.796014786,2024-06-04 14:56:07.021270
14.06127021,-8.864510536,-9.731609344,5.796014786,2024-06-04 14:56:07.061270
14.10127021,-8.864510536,-9.731609344,5.796014786,2024-06-04 14:56:07.101270
14.14127021,-8.864510536,-9.731609344,5.796014786,2024-06-04 14:56:07.141270
14.18127021,-8.864510536,-9.731609344,5.796014786,2024-06-04 14:56:07.181270
14.22127021,-8.864510536,-9.731609344,5.796014786,2024-06-04 14:56:07.221270
14.26127021,-8.864510536,-9.731609344,5.796014786,2024-06-04 14:56:07.261270
14.30127021,-8.864510536,-9.731609344,5.796014786,2024-06-04 14:56:07.301270
14.34127021,-8.864510536,-9.731609344,5.796014786,2024-06-04 14:56:07.341270
14.38127021,-8.864510536,-9.731609344,5.796014786,2024-06-04 14:56:07.381270
14.42127021,-8.864510536,-9.731609344,5.796014786,2024-06-04 14:56:07.421270
14.46127021,-8.864510536,-9.731609344,5.796014786,2024-06-04 14:56:07.461270
14.50127021,-8.864510536,-9.731609344,5.796014786,2024-06-04 14:56:07.501270
14.54127021,-8.864510536,-9.731609344,5.796014786,2024-06-04 14:56:07.541270
14.58127021,-8.864510536,-9.731609344,5.796014786,2024-06-04 14:56:07.581270
14.62127021,-8.864510536,-9.731609344,5.796014786,2024-06-04 14:56:07.621270
14.66127021,-8.864510536,-9.731609344,5.796014786,2024-06-04 14:56:07.661270
14.70127021,-6.063113689,-3.377768278,5.752644539,2024-06-04 14:56:07.701270
14.74127021,-6.063113689,-3.377768278,5.752644539,2024-06-04 14:56:07.741270
14.78127021,-6.063113689,-3.377768278,5.752644539,2024-06-04 14:56:07.781270
14.82127021,-6.063113689,-3.377768278,5.752644539,2024-06-04 14:56:07.821270
14.86127021,-5.149055004,-2.726023197,3.752544165,2024-06-04 14:56:07.861270
14.90127021,-5.692824364,-4.17069006,4.120141506,2024-06-04 14:56:07.901270
14.94127021,-7.873881817,-6.719345093,5.971887112,2024-06-04 14:56:07.941270
14.98127021,-8.156534195,-7.806882858,6.32303381,2024-06-04 14:56:07.981270
15.02127021,-8.156534195,-7.806882858,6.32303381,2024-06-04 14:56:08.021270
15.06127021,-8.156534195,-7.806882858,6.32303381,2024-06-04 14:56:08.061270
15.10127021,-8.156534195,-7.806882858,6.32303381,2024-06-04 14:56:08.101270
15.14127021,-8.156534195,-7.806882858,6.32303381,2024-06-04 14:56:08.141270
15.18127021,-8.156534195,-7.806882858,6.32303381,2024-06-04 14:56:08.181270
15.22127021,-8.156534195,-7.806882858,6.32303381,2024-06-04 14:56:08.221270
15.26127021,-8.156534195,-7.806882858,6.32303381,2024-06-04 14:56:08.261270
15.30127021,-8.156534195,-7.806882858,6.32303381,2024-06-04 14:56:08.301270
15.34127021,-8.156534195,-7.806882858,6.32303381,2024-06-04 14:56:08.341270
15.38127021,-3.626920938,-6.344569206,4.437788486,2024-06-04 14:56:08.381270
15.42127021,-3.626920938,-6.344569206,4.437788486,2024-06-04 14:56:08.421270
15.46127021,-3.626920938,-6.344569206,4.437788486,2024-06-04 14:56:08.461270
15.50127021,-3.626920938,-6.344569206,4.437788486,2024-06-04 14:56:08.501270
15.54127021,-6.122933865,-7.358827114,3.824328899,2024-06-04 14:56:08.541270
15.58127021,-7.644171238,-7.753044605,4.000500202,2024-06-04 14:56:08.581270
15.62127021,-5.720341682,-5.764907837,4.523930073,2024-06-04 14:56:08.621270
15.66127021,-5.720341682,-5.764907837,4.523930073,2024-06-04 14:56:08.661270
15.70127021,-5.720341682,-5.764907837,4.523930073,2024-06-04 14:56:08.701270
15.74127021,-5.720341682,-5.764907837,4.523930073,2024-06-04 14:56:08.741270
15.78127021,-8.983254433,-6.733702183,6.993622303,2024-06-04 14:56:08.781270
15.82127021,-3.481856108,-2.734398127,2.704487801,2024-06-04 14:56:08.821270
15.86127021,-3.27577424,-1.188036442,5.567201138,2024-06-04 14:56:08.861270
15.90127021,-3.27577424,-1.188036442,5.567201138,2024-06-04 14:56:08.901270
15.94127021,-3.27577424,-1.188036442,5.567201138,2024-06-04 14:56:08.941270
15.98127021,-3.27577424,-1.188036442,5.567201138,2024-06-04 14:56:08.981270
16.02127021,-3.27577424,-1.188036442,5.567201138,2024-06-04 14:56:09.021270
16.06127021,-3.27577424,-1.188036442,5.567201138,2024-06-04 14:56:09.061270
16.10127021,-3.27577424,-1.188036442,5.567201138,2024-06-04 14:56:09.101270
16.14127021,-3.27577424,-1.188036442,5.567201138,2024-06-04 14:56:09.141270
16.18127021,-3.27577424,-1.188036442,5.567201138,2024-06-04 14:56:09.181270
16.22127021,-3.27577424,-1.188036442,5.567201138,2024-06-04 14:56:09.221270
16.26127021,-3.27577424,-1.188036442,5.567201138,2024-06-04 14:56:09.261270
16.30127021,-3.27577424,-1.188036442,5.567201138,2024-06-04 14:56:09.301270
16.34127021,-3.27577424,-1.188036442,5.567201138,2024-06-04 14:56:09.341270
16.38127021,-3.27577424,-1.188036442,5.567201138,2024-06-04 14:56:09.381270
16.42127021,-3.27577424,-1.188036442,5.567201138,2024-06-04 14:56:09.421270
16.46127021,-3.27577424,-1.188036442,5.567201138,2024-06-04 14:56:09.461270
16.50127021,-5.528915882,-7.344470024,4.718048096,2024-06-04 14:56:09.501270
16.54127021,-6.782754898,-8.488538742,5.834300041,2024-06-04 14:56:09.541270
16.58127021,-4.510769844,-9.129216194,4.994718075,2024-06-04 14:56:09.581270
16.62127021,-4.510769844,-9.129216194,4.994718075,2024-06-04 14:56:09.621270
16.66127021,-4.510769844,-9.129216194,4.994718075,2024-06-04 14:56:09.661270
16.70127021,-4.510769844,-9.129216194,4.994718075,2024-06-04 14:56:09.701270
16.74127021,-4.510769844,-9.129216194,4.994718075,2024-06-04 14:56:09.741270
16.78127021,-7.471588612,-8.605786324,4.584947109,2024-06-04 14:56:09.781270
16.82127021,-7.471588612,-8.605786324,4.584947109,2024-06-04 14:56:09.821270
16.86127021,-7.00439024,-5.071288586,4.427021027,2024-06-04 14:56:09.861270
16.90127021,-7.00439024,-5.071288586,4.427021027,2024-06-04 14:56:09.901270
16.94127021,-7.00439024,-5.071288586,4.427021027,2024-06-04 14:56:09.941270
16.98127021,-7.00439024,-5.071288586,4.427021027,2024-06-04 14:56:09.981270
17.02127021,-7.00439024,-5.071288586,4.427021027,2024-06-04 14:56:10.021270
17.06127021,-7.00439024,-5.071288586,4.427021027,2024-06-04 14:56:10.061270
17.06127021,-5.365904808,-4.406383038,4.962415218,2024-06-04 14:56:10.061270
17.14127021,-5.365904808,-4.406383038,4.962415218,2024-06-04 14:56:10.141270
17.18127021,-5.365904808,-4.406383038,4.962415218,2024-06-04 14:56:10.181270
17.22127021,-1.463510156,0.3077768087,3.681955814,2024-06-04 14:56:10.221270
17.26127021,-1.463510156,0.3077768087,3.681955814,2024-06-04 14:56:10.261270
17.30127021,-1.463510156,0.3077768087,3.681955814,2024-06-04 14:56:10.301270
17.34127021,-1.463510156,0.3077768087,3.681955814,2024-06-04 14:56:10.341270
17.38127021,-1.463510156,0.3077768087,3.681955814,2024-06-04 14:56:10.381270
17.42127021,-1.463510156,0.3077768087,3.681955814,2024-06-04 14:56:10.421270
17.46127021,-1.463510156,0.3077768087,3.681955814,2024-06-04 14:56:10.461270
17.50127021,-7.067800045,-5.676074505,4.648356915,2024-06-04 14:56:10.501270
17.54127021,-5.271388054,-5.858228207,5.918048382,2024-06-04 14:56:10.541270
17.58127021,-8.834600449,-8.178368568,5.992226124,2024-06-04 14:56:10.581270
17.62127021,-13.44586849,-10.13659477,5.044967651,2024-06-04 14:56:10.621270
17.66127021,-13.44586849,-10.13659477,5.044967651,2024-06-04 14:56:10.661270
17.70127021,-13.44586849,-10.13659477,5.044967651,2024-06-04 14:56:10.701270
17.74127021,-13.44586849,-10.13659477,5.044967651,2024-06-04 14:56:10.741270
17.78127021,-13.44586849,-10.13659477,5.044967651,2024-06-04 14:56:10.781270
17.82127021,-13.44586849,-10.13659477,5.044967651,2024-06-04 14:56:10.821270
17.86127021,-13.44586849,-10.13659477,5.044967651,2024-06-04 14:56:10.861270
17.90127021,-13.44586849,-10.13659477,5.044967651,2024-06-04 14:56:10.901270
17.94127021,-13.44586849,-10.13659477,5.044967651,2024-06-04 14:56:10.941270
17.98127021,-13.44586849,-10.13659477,5.044967651,2024-06-04 14:56:10.981270
18.02127021,-8.907581329,-7.412964344,4.951647282,2024-06-04 14:56:11.021270
18.06127021,-8.907581329,-7.412964344,4.951647282,2024-06-04 14:56:11.061270
18.10127021,-8.907581329,-7.412964344,4.951647282,2024-06-04 14:56:11.101270
18.14127021,-8.907581329,-7.412964344,4.951647282,2024-06-04 14:56:11.141270
18.14127021,-5.504987717,-5.760122299,4.737190723,2024-06-04 14:56:11.141270
18.22127021,-5.025825024,-2.853141785,3.884448528,2024-06-04 14:56:11.221270
18.26127021,-4.431806564,-2.298605204,4.877170563,2024-06-04 14:56:11.261270
18.30127021,-3.198007345,-3.230310678,4.002892971,2024-06-04 14:56:11.301270
18.34127021,-3.198007345,-3.230310678,4.002892971,2024-06-04 14:56:11.341270
18.38127021,-3.198007345,-3.230310678,4.002892971,2024-06-04 14:56:11.381270
18.42127021,-3.198007345,-3.230310678,4.002892971,2024-06-04 14:56:11.421270
18.46127021,-3.198007345,-3.230310678,4.002892971,2024-06-04 14:56:11.461270
18.50127021,-3.198007345,-3.230310678,4.002892971,2024-06-04 14:56:11.501270
18.54127021,-3.198007345,-3.230310678,4.002892971,2024-06-04 14:56:11.541270
18.58127021,-3.198007345,-3.230310678,4.002892971,2024-06-04 14:56:11.581270
18.62127021,-3.198007345,-3.230310678,4.002892971,2024-06-04 14:56:11.621270
18.66127021,-3.198007345,-3.230310678,4.002892971,2024-06-04 14:56:11.661270
18.70127021,-3.198007345,-3.230310678,4.002892971,2024-06-04 14:56:11.701270
18.74127021,-3.198007345,-3.230310678,4.002892971,2024-06-04 14:56:11.741270
18.78127021,-3.198007345,-3.230310678,4.002892971,2024-06-04 14:56:11.781270
18.82127021,-3.198007345,-3.230310678,4.002892971,2024-06-04 14:56:11.821270
18.86127021,-5.242674351,-5.784050465,3.719044685,2024-06-04 14:56:11.861270
18.90127021,-8.472985268,-7.366304398,5.743073463,2024-06-04 14:56:11.901270
18.94127021,-8.472985268,-7.366304398,5.743073463,2024-06-04 14:56:11.941270
18.98127021,-5.502594948,-8.169993401,5.784050465,2024-06-04 14:56:11.981270
19.02127021,-5.502594948,-8.169993401,5.784050465,2024-06-04 14:56:12.021270
19.06127021,-5.502594948,-8.169993401,5.784050465,2024-06-04 14:56:12.061270
19.10127021,-5.502594948,-8.169993401,5.784050465,2024-06-04 14:56:12.101270
19.14127021,-5.502594948,-8.169993401,5.784050465,2024-06-04 14:56:12.141270
19.18127021,-5.502594948,-8.169993401,5.784050465,2024-06-04 14:56:12.181270
19.22127021,-5.502594948,-8.169993401,5.784050465,2024-06-04 14:56:12.221270
19.26127021,-5.502594948,-8.169993401,5.784050465,2024-06-04 14:56:12.261270
19.30127021,-5.502594948,-8.169993401,5.784050465,2024-06-04 14:56:12.301270
19.34127021,-5.502594948,-8.169993401,5.784050465,2024-06-04 14:56:12.341270
19.38127021,-5.569593906,-5.339583874,4.441378117,2024-06-04 14:56:12.381270
19.42127021,-9.122037888,-6.870391846,6.138487339,2024-06-04 14:56:12.421270
19.46127021,-9.122037888,-6.870391846,6.138487339,2024-06-04 14:56:12.461270
19.50127021,-9.122037888,-6.870391846,6.138487339,2024-06-04 14:56:12.501270
19.54127021,-9.122037888,-6.870391846,6.138487339,2024-06-04 14:56:12.541270
19.58127021,-9.122037888,-6.870391846,6.138487339,2024-06-04 14:56:12.581270
19.62127021,-9.122037888,-6.870391846,6.138487339,2024-06-04 14:56:12.621270
19.66127021,-8.344670296,-3.335594654,7.273881912,2024-06-04 14:56:12.661270
19.70127021,-8.344670296,-3.335594654,7.273881912,2024-06-04 14:56:12.701270
19.74127021,-5.291727066,-3.766901016,4.764708042,2024-06-04 14:56:12.741270
19.78127021,-4.502394676,-3.65563488,4.325026989,2024-06-04 14:56:12.781270
19.82127021,-5.270191669,-3.807579041,4.205385685,2024-06-04 14:56:12.821270
19.86127021,-5.206482887,-3.975375652,4.761118889,2024-06-04 14:56:12.861270
19.90127021,-5.627021313,-5.127519608,4.164707661,2024-06-04 14:56:12.901270
19.94127021,-7.261917591,-8.785547256,4.708476543,2024-06-04 14:56:12.941270
19.98127021,-7.261917591,-8.785547256,4.708476543,2024-06-04 14:56:12.981270
20.02127021,-9.51386261,-9.69452095,4.375276089,2024-06-04 14:56:13.021270
20.06127021,-9.51386261,-9.69452095,4.375276089,2024-06-04 14:56:13.061270
20.10127021,-9.51386261,-9.69452095,4.375276089,2024-06-04 14:56:13.101270
20.14127021,-9.51386261,-9.69452095,4.375276089,2024-06-04 14:56:13.141270
20.18127021,-9.51386261,-9.69452095,4.375276089,2024-06-04 14:56:13.181270
20.22127021,-9.51386261,-9.69452095,4.375276089,2024-06-04 14:56:13.221270
20.26127021,-9.51386261,-9.69452095,4.375276089,2024-06-04 14:56:13.261270
20.30127021,-9.51386261,-9.69452095,4.375276089,2024-06-04 14:56:13.301270
20.34127021,-9.51386261,-9.69452095,4.375276089,2024-06-04 14:56:13.341270
20.38127021,-9.51386261,-9.69452095,4.375276089,2024-06-04 14:56:13.381270
20.42127021,-6.104988098,-7.849953651,4.885545731,2024-06-04 14:56:13.421270
20.46127021,-6.442675114,-6.451049805,4.600500584,2024-06-04 14:56:13.461270
20.50127021,-6.442675114,-6.451049805,4.600500584,2024-06-04 14:56:13.501270
20.54127021,-6.442675114,-6.451049805,4.600500584,2024-06-04 14:56:13.541270
20.58127021,-7.334898949,-7.17457962,4.727619171,2024-06-04 14:56:13.581270
20.62127021,-7.757830143,-5.840281963,5.017449856,2024-06-04 14:56:13.621270
20.66127021,-6.593721867,-3.117847919,5.14785862,2024-06-04 14:56:13.661270
20.70127021,-5.40060091,-4.613661289,4.296313286,2024-06-04 14:56:13.701270
20.74127021,-3.227917671,-2.981158018,3.988536358,2024-06-04 14:56:13.741270
20.78127021,-2.540280342,-1.532004714,3.727419376,2024-06-04 14:56:13.781270
20.82127021,-6.853642464,-2.498405933,5.761318684,2024-06-04 14:56:13.821270
20.86127021,-6.853642464,-2.498405933,5.761318684,2024-06-04 14:56:13.861270
20.90127021,-6.853642464,-2.498405933,5.761318684,2024-06-04 14:56:13.901270
20.94127021,-6.853642464,-2.498405933,5.761318684,2024-06-04 14:56:13.941270
20.98127021,-6.853642464,-2.498405933,5.761318684,2024-06-04 14:56:13.981270
21.02127021,-6.853642464,-2.498405933,5.761318684,2024-06-04 14:56:14.021270
21.06127021,-6.853642464,-2.498405933,5.761318684,2024-06-04 14:56:14.061270
21.10127021,-6.853642464,-2.498405933,5.761318684,2024-06-04 14:56:14.101270
21.14127021,-6.853642464,-2.498405933,5.761318684,2024-06-04 14:56:14.141270
21.18127021,-6.853642464,-2.498405933,5.761318684,2024-06-04 14:56:14.181270
21.22127021,-6.853642464,-2.498405933,5.761318684,2024-06-04 14:56:14.221270
21.26127021,-6.853642464,-2.498405933,5.761318684,2024-06-04 14:56:14.261270
21.30127021,-6.853642464,-2.498405933,5.761318684,2024-06-04 14:56:14.301270
21.34127021,-6.512066841,-7.304988384,4.907081127,2024-06-04 14:56:14.341270
21.38127021,-8.433503151,-9.398708344,6.512066841,2024-06-04 14:56:14.381270
21.42127021,-8.433503151,-9.398708344,6.512066841,2024-06-04 14:56:14.421270
21.46127021,-8.433503151,-9.398708344,6.512066841,2024-06-04 14:56:14.461270
21.50127021,-8.433503151,-9.398708344,6.512066841,2024-06-04 14:56:14.501270
21.54127021,-8.433503151,-9.398708344,6.512066841,2024-06-04 14:56:14.541270
21.58127021,-7.26431036,-8.078767776,4.513162613,2024-06-04 14:56:14.581270
21.62127021,-7.26431036,-8.078767776,4.513162613,2024-06-04 14:56:14.621270
21.66127021,-7.393822193,-6.405586243,3.273381472,2024-06-04 14:56:14.661270
21.70127021,-8.233403206,-7.698009491,3.772883177,2024-06-04 14:56:14.701270
21.74127021,-8.233403206,-7.698009491,3.772883177,2024-06-04 14:56:14.741270
21.78127021,-8.233403206,-7.698009491,3.772883177,2024-06-04 14:56:14.781270
21.82127021,-8.233403206,-7.698009491,3.772883177,2024-06-04 14:56:14.821270
21.86127021,-8.233403206,-7.698009491,3.772883177,2024-06-04 14:56:14.861270
21.90127021,-8.233403206,-7.698009491,3.772883177,2024-06-04 14:56:14.901270
21.94127021,-8.233403206,-7.698009491,3.772883177,2024-06-04 14:56:14.941270
21.98127021,-8.233403206,-7.698009491,3.772883177,2024-06-04 14:56:14.981270
22.02127021,-8.233403206,-7.698009491,3.772883177,2024-06-04 14:56:15.021270
22.06127021,-8.233403206,-7.698009491,3.772883177,2024-06-04 14:56:15.061270
22.10127021,-8.233403206,-7.698009491,3.772883177,2024-06-04 14:56:15.101270
22.14127021,-8.233403206,-7.698009491,3.772883177,2024-06-04 14:56:15.141270
22.18127021,-8.233403206,-7.698009491,3.772883177,2024-06-04 14:56:15.181270
22.22127021,-8.458627701,-4.568197727,4.880760193,2024-06-04 14:56:15.221270
22.26127021,-7.132705212,-6.917052269,4.155136585,2024-06-04 14:56:15.261270
22.30127021,-7.132705212,-6.917052269,4.155136585,2024-06-04 14:56:15.301270
22.34127021,-7.132705212,-6.917052269,4.155136585,2024-06-04 14:56:15.341270
22.38127021,-7.132705212,-6.917052269,4.155136585,2024-06-04 14:56:15.381270
22.42127021,-5.644967556,-6.940980434,3.754936934,2024-06-04 14:56:15.421270
22.46127021,-6.751648426,-6.317051888,4.122534275,2024-06-04 14:56:15.461270
22.50127021,-8.783154488,-10.43958569,5.048556805,2024-06-04 14:56:15.501270
22.54127021,-8.783154488,-10.43958569,5.048556805,2024-06-04 14:56:15.541270
22.58127021,-8.783154488,-10.43958569,5.048556805,2024-06-04 14:56:15.581270
22.62127021,-8.783154488,-10.43958569,5.048556805,2024-06-04 14:56:15.621270
22.66127021,-2.49481678,-5.242674351,1.136590719,2024-06-04 14:56:15.661270
22.70127021,-2.49481678,-5.242674351,1.136590719,2024-06-04 14:56:15.701270
22.74127021,-8.324331284,-10.25145054,6.168397903,2024-06-04 14:56:15.741270
22.78127021,-8.324331284,-10.25145054,6.168397903,2024-06-04 14:56:15.781270
22.82127021,-8.324331284,-10.25145054,6.168397903,2024-06-04 14:56:15.821270
22.86127021,-8.324331284,-10.25145054,6.168397903,2024-06-04 14:56:15.861270
22.90127021,-8.324331284,-10.25145054,6.168397903,2024-06-04 14:56:15.901270
22.94127021,-8.324331284,-10.25145054,6.168397903,2024-06-04 14:56:15.941270
22.98127021,-8.324331284,-10.25145054,6.168397903,2024-06-04 14:56:15.981270
23.02127021,-8.61655426,-5.369493961,5.056931496,2024-06-04 14:56:16.021270
23.02127021,-8.61655426,-5.369493961,5.056931496,2024-06-04 14:56:16.021270
23.10127021,-8.61655426,-5.369493961,5.056931496,2024-06-04 14:56:16.101270
23.14127021,-8.61655426,-5.369493961,5.056931496,2024-06-04 14:56:16.141270
23.18127021,-8.61655426,-5.369493961,5.056931496,2024-06-04 14:56:16.181270
23.22127021,-3.212364435,-0.6792625189,3.461517096,2024-06-04 14:56:16.221270
23.26127021,-2.347658157,-0.02991028316,2.902194738,2024-06-04 14:56:16.261270
23.30127021,-2.347658157,-0.02991028316,2.902194738,2024-06-04 14:56:16.301270
23.34127021,-2.347658157,-0.02991028316,2.902194738,2024-06-04 14:56:16.341270
23.38127021,-2.347658157,-0.02991028316,2.902194738,2024-06-04 14:56:16.381270
23.42127021,-2.347658157,-0.02991028316,2.902194738,2024-06-04 14:56:16.421270
23.46127021,-7.230811119,-5.091627598,5.370690346,2024-06-04 14:56:16.461270
23.50127021,-7.230811119,-5.091627598,5.370690346,2024-06-04 14:56:16.501270
23.54127021,-7.230811119,-5.091627598,5.370690346,2024-06-04 14:56:16.541270
23.58127021,-7.230811119,-5.091627598,5.370690346,2024-06-04 14:56:16.581270
23.62127021,-7.230811119,-5.091627598,5.370690346,2024-06-04 14:56:16.621270
23.66127021,-7.659724236,-10.23589706,4.281956196,2024-06-04 14:56:16.661270
23.70127021,-7.659724236,-10.23589706,4.281956196,2024-06-04 14:56:16.701270
23.74127021,-7.659724236,-10.23589706,4.281956196,2024-06-04 14:56:16.741270
23.78127021,-7.659724236,-10.23589706,4.281956196,2024-06-04 14:56:16.781270
23.82127021,-7.659724236,-10.23589706,4.281956196,2024-06-04 14:56:16.821270
23.86127021,-7.659724236,-10.23589706,4.281956196,2024-06-04 14:56:16.861270
23.90127021,-5.271388054,-7.922037601,3.345465183,2024-06-04 14:56:16.901270
23.94127021,-4.329812527,-5.816353798,3.411267757,2024-06-04 14:56:16.941270
23.98127021,-6.580561161,-5.824728489,3.999304056,2024-06-04 14:56:16.981270
24.02127021,-5.743073463,-5.726323605,3.640081406,2024-06-04 14:56:17.021270
24.06127021,-7.953144073,-8.283653259,2.662613392,2024-06-04 14:56:17.061270
24.10127021,-7.953144073,-8.283653259,2.662613392,2024-06-04 14:56:17.101270
24.14127021,-7.953144073,-8.283653259,2.662613392,2024-06-04 14:56:17.141270
24.18127021,-7.953144073,-8.283653259,2.662613392,2024-06-04 14:56:17.181270
24.22127021,-7.953144073,-8.283653259,2.662613392,2024-06-04 14:56:17.221270
24.26127021,-7.953144073,-8.283653259,2.662613392,2024-06-04 14:56:17.261270
24.30127021,-3.30089879,-3.323630571,1.867298961,2024-06-04 14:56:17.301270
24.34127021,-3.30089879,-3.323630571,1.867298961,2024-06-04 14:56:17.341270
24.38127021,-3.30089879,-3.323630571,1.867298961,2024-06-04 14:56:17.381270
24.42127021,-5.364708424,-2.988336325,4.447360039,2024-06-04 14:56:17.421270
24.46127021,-5.364708424,-2.988336325,4.447360039,2024-06-04 14:56:17.461270
24.50127021,-5.364708424,-2.988336325,4.447360039,2024-06-04 14:56:17.501270
24.54127021,-5.364708424,-2.988336325,4.447360039,2024-06-04 14:56:17.541270
24.58127021,-5.364708424,-2.988336325,4.447360039,2024-06-04 14:56:17.581270
24.62127021,-5.364708424,-2.988336325,4.447360039,2024-06-04 14:56:17.621270
24.66127021,-7.797311783,-7.806882858,4.307080746,2024-06-04 14:56:17.661270
24.70127021,-7.797311783,-7.806882858,4.307080746,2024-06-04 14:56:17.701270
24.74127021,-7.797311783,-7.806882858,4.307080746,2024-06-04 14:56:17.741270
24.78127021,-7.797311783,-7.806882858,4.307080746,2024-06-04 14:56:17.781270
24.82127021,-5.322834015,-6.587739944,3.703491211,2024-06-04 14:56:17.821270
24.86127021,-6.883552551,-6.270092487,3.270988464,2024-06-04 14:56:17.861270
24.90127021,-6.883552551,-6.270092487,3.270988464,2024-06-04 14:56:17.901270
24.94127021,-6.883552551,-6.270092487,3.270988464,2024-06-04 14:56:17.941270
24.98127021,-6.883552551,-6.270092487,3.270988464,2024-06-04 14:56:17.981270
25.02127021,-6.883552551,-6.270092487,3.270988464,2024-06-04 14:56:18.021270
25.06127021,-6.883552551,-6.270092487,3.270988464,2024-06-04 14:56:18.061270
25.10127021,-6.883552551,-6.270092487,3.270988464,2024-06-04 14:56:18.101270
25.14127021,-6.883552551,-6.270092487,3.270988464,2024-06-04 14:56:18.141270
25.18127021,-6.883552551,-6.270092487,3.270988464,2024-06-04 14:56:18.181270
25.22127021,-6.883552551,-6.270092487,3.270988464,2024-06-04 14:56:18.221270
25.26127021,-6.883552551,-6.270092487,3.270988464,2024-06-04 14:56:18.261270
25.30127021,-6.883552551,-6.270092487,3.270988464,2024-06-04 14:56:18.301270
25.34127021,-6.883552551,-6.270092487,3.270988464,2024-06-04 14:56:18.341270
25.38127021,-6.883552551,-6.270092487,3.270988464,2024-06-04 14:56:18.381270
25.42127021,-4.232903481,-2.690130949,3.765704632,2024-06-04 14:56:18.421270
25.46127021,-4.232903481,-2.690130949,3.765704632,2024-06-04 14:56:18.461270
25.50127021,-5.805585861,-2.64825654,3.853042603,2024-06-04 14:56:18.501270
25.54127021,-3.245863914,-3.408874989,4.105784416,2024-06-04 14:56:18.541270
25.58127021,-5.914459229,-1.13419795,4.629214287,2024-06-04 14:56:18.581270
25.62127021,-4.575376034,-1.746461391,2.679363251,2024-06-04 14:56:18.621270
25.66127021,-4.575376034,-1.746461391,2.679363251,2024-06-04 14:56:18.661270
25.70127021,-4.575376034,-1.746461391,2.679363251,2024-06-04 14:56:18.701270
25.74127021,-4.575376034,-1.746461391,2.679363251,2024-06-04 14:56:18.741270
25.78127021,-4.575376034,-1.746461391,2.679363251,2024-06-04 14:56:18.781270
25.82127021,-4.575376034,-1.746461391,2.679363251,2024-06-04 14:56:18.821270
25.86127021,-7.469195843,-8.136195183,2.425424814,2024-06-04 14:56:18.861270
25.90127021,-6.824928284,-6.055934906,2.30339098,2024-06-04 14:56:18.901270
25.94127021,-6.824928284,-6.055934906,2.30339098,2024-06-04 14:56:18.941270
25.98127021,-6.824928284,-6.055934906,2.30339098,2024-06-04 14:56:18.981270
26.02127021,-6.824928284,-6.055934906,2.30339098,2024-06-04 14:56:19.021270
26.06127021,-6.824928284,-6.055934906,2.30339098,2024-06-04 14:56:19.061270
26.10127021,-6.824928284,-6.055934906,2.30339098,2024-06-04 14:56:19.101270
26.14127021,-6.824928284,-6.055934906,2.30339098,2024-06-04 14:56:19.141270
26.18127021,-6.824928284,-6.055934906,2.30339098,2024-06-04 14:56:19.181270
26.22127021,-6.824928284,-6.055934906,2.30339098,2024-06-04 14:56:19.221270
26.26127021,-6.824928284,-6.055934906,2.30339098,2024-06-04 14:56:19.261270
26.30127021,-6.824928284,-6.055934906,2.30339098,2024-06-04 14:56:19.301270
26.34127021,-8.241778374,-6.73848772,2.776272535,2024-06-04 14:56:19.341270
26.38127021,-7.300202847,-5.83669281,4.078267097,2024-06-04 14:56:19.381270
26.42127021,-4.314259052,-2.73798728,1.077966571,2024-06-04 14:56:19.421270
26.46127021,-5.405386448,-2.76909399,5.641378403,2024-06-04 14:56:19.461270
26.50127021,-5.405386448,-2.76909399,5.641378403,2024-06-04 14:56:19.501270
26.54127021,-5.405386448,-2.76909399,5.641378403,2024-06-04 14:56:19.541270
26.58127021,-5.405386448,-2.76909399,5.641378403,2024-06-04 14:56:19.581270
26.62127021,-5.405386448,-2.76909399,5.641378403,2024-06-04 14:56:19.621270
26.66127021,-1.719841242,-0.3891327679,3.634099483,2024-06-04 14:56:19.661270
26.70127021,-4.186243057,-1.966601133,2.702095032,2024-06-04 14:56:19.701270
26.74127021,-4.186243057,-1.966601133,2.702095032,2024-06-04 14:56:19.741270
26.78127021,-4.186243057,-1.966601133,2.702095032,2024-06-04 14:56:19.781270
26.82127021,-4.186243057,-1.966601133,2.702095032,2024-06-04 14:56:19.821270
26.86127021,-4.186243057,-1.966601133,2.702095032,2024-06-04 14:56:19.861270
26.90127021,-4.186243057,-1.966601133,2.702095032,2024-06-04 14:56:19.901270
26.94127021,-4.186243057,-1.966601133,2.702095032,2024-06-04 14:56:19.941270
26.98127021,-6.946962357,-6.895516872,4.788636208,2024-06-04 14:56:19.981270
27.02127021,-6.946962357,-6.895516872,4.788636208,2024-06-04 14:56:20.021270
27.06127021,-6.946962357,-6.895516872,4.788636208,2024-06-04 14:56:20.061270
27.10127021,-6.946962357,-6.895516872,4.788636208,2024-06-04 14:56:20.101270
27.14127021,-6.946962357,-6.895516872,4.788636208,2024-06-04 14:56:20.141270
27.18127021,-4.974379063,-9.981958389,4.091427803,2024-06-04 14:56:20.181270
27.22127021,-7.672884941,-6.133701801,4.59691143,2024-06-04 14:56:20.221270
27.26127021,-6.340980053,-6.623631954,3.725026608,2024-06-04 14:56:20.261270
27.30127021,-6.340980053,-6.623631954,3.725026608,2024-06-04 14:56:20.301270
27.34127021,-6.340980053,-6.623631954,3.725026608,2024-06-04 14:56:20.341270
27.38127021,-6.340980053,-6.623631954,3.725026608,2024-06-04 14:56:20.381270
27.42127021,-6.974479675,-5.195715427,3.006282568,2024-06-04 14:56:20.421270
27.46127021,-7.466803074,-5.970690727,2.783450842,2024-06-04 14:56:20.461270
27.50127021,-9.77737236,-5.426921844,5.011467934,2024-06-04 14:56:20.501270
27.54127021,-9.77737236,-5.426921844,5.011467934,2024-06-04 14:56:20.541270
27.58127021,-9.77737236,-5.426921844,5.011467934,2024-06-04 14:56:20.581270
27.62127021,-9.77737236,-5.426921844,5.011467934,2024-06-04 14:56:20.621270
27.66127021,-4.092624187,-1.249352574,3.454338551,2024-06-04 14:56:20.661270
27.70127021,-4.092624187,-1.249352574,3.454338551,2024-06-04 14:56:20.701270
27.74127021,-4.092624187,-1.249352574,3.454338551,2024-06-04 14:56:20.741270
27.78127021,-4.092624187,-1.249352574,3.454338551,2024-06-04 14:56:20.781270
27.82127021,-4.092624187,-1.249352574,3.454338551,2024-06-04 14:56:20.821270
27.86127021,-4.092624187,-1.249352574,3.454338551,2024-06-04 14:56:20.861270
27.90127021,-4.092624187,-1.249352574,3.454338551,2024-06-04 14:56:20.901270
27.94127021,-5.851049423,-7.356434345,3.854238987,2024-06-04 14:56:20.941270
27.98127021,-5.851049423,-7.356434345,3.854238987,2024-06-04 14:56:20.981270
28.02127021,-5.851049423,-7.356434345,3.854238987,2024-06-04 14:56:21.021270
28.06127021,-5.851049423,-7.356434345,3.854238987,2024-06-04 14:56:21.061270
28.10127021,-5.851049423,-7.356434345,3.854238987,2024-06-04 14:56:21.101270
28.14127021,-5.851049423,-7.356434345,3.854238987,2024-06-04 14:56:21.141270
28.18127021,-5.851049423,-7.356434345,3.854238987,2024-06-04 14:56:21.181270
28.22127021,-5.851049423,-7.356434345,3.854238987,2024-06-04 14:56:21.221270
28.26127021,-5.851049423,-7.356434345,3.854238987,2024-06-04 14:56:21.261270
28.30127021,-5.851049423,-7.356434345,3.854238987,2024-06-04 14:56:21.301270
28.34127021,-5.851049423,-7.356434345,3.854238987,2024-06-04 14:56:21.341270
28.38127021,-5.851049423,-7.356434345,3.854238987,2024-06-04 14:56:21.381270
28.38127021,-8.008178711,-7.822436333,3.540480137,2024-06-04 14:56:21.381270
28.46127021,-8.008178711,-7.822436333,3.540480137,2024-06-04 14:56:21.461270
28.50127021,-8.008178711,-7.822436333,3.540480137,2024-06-04 14:56:21.501270
28.54127021,-8.008178711,-7.822436333,3.540480137,2024-06-04 14:56:21.541270
28.58127021,-8.008178711,-7.822436333,3.540480137,2024-06-04 14:56:21.581270
28.62127021,-8.008178711,-7.822436333,3.540480137,2024-06-04 14:56:21.621270
28.66127021,-8.008178711,-7.822436333,3.540480137,2024-06-04 14:56:21.661270
28.70127021,-8.008178711,-7.822436333,3.540480137,2024-06-04 14:56:21.701270
28.74127021,-8.008178711,-7.822436333,3.540480137,2024-06-04 14:56:21.741270
28.78127021,-8.008178711,-7.822436333,3.540480137,2024-06-04 14:56:21.781270
28.82127021,-5.394618511,-2.565704107,4.93579483,2024-06-04 14:56:21.821270
28.86127021,-6.56141901,-5.858228207,4.970789909,2024-06-04 14:56:21.861270
28.90127021,-6.56141901,-5.858228207,4.970789909,2024-06-04 14:56:21.901270
28.94127021,-6.56141901,-5.858228207,4.970789909,2024-06-04 14:56:21.941270
28.98127021,-7.046264648,-7.153044224,3.389732361,2024-06-04 14:56:21.981270
29.02127021,-9.552147865,-8.98803997,3.116651535,2024-06-04 14:56:22.021270
29.06127021,-9.552147865,-8.98803997,3.116651535,2024-06-04 14:56:22.061270
29.10127021,-9.118449211,-7.895716667,3.378964663,2024-06-04 14:56:22.101270
29.14127021,-6.550352097,-8.635697365,5.278566837,2024-06-04 14:56:22.141270
29.18127021,-8.332705498,-9.59641552,5.821139336,2024-06-04 14:56:22.181270
29.22127021,-8.332705498,-9.59641552,5.821139336,2024-06-04 14:56:22.221270
29.26127021,-8.332705498,-9.59641552,5.821139336,2024-06-04 14:56:22.261270
29.30127021,-8.332705498,-9.59641552,5.821139336,2024-06-04 14:56:22.301270
29.34127021,-8.332705498,-9.59641552,5.821139336,2024-06-04 14:56:22.341270
29.38127021,-8.870492935,-8.387741089,4.667499542,2024-06-04 14:56:22.381270
29.42127021,-8.38175869,-8.354241371,3.628117323,2024-06-04 14:56:22.421270
29.46127021,-8.38175869,-8.354241371,3.628117323,2024-06-04 14:56:22.461270
29.50127021,-8.38175869,-8.354241371,3.628117323,2024-06-04 14:56:22.501270
29.54127021,-8.38175869,-8.354241371,3.628117323,2024-06-04 14:56:22.541270
29.58127021,-8.38175869,-8.354241371,3.628117323,2024-06-04 14:56:22.581270
29.62127021,-8.38175869,-8.354241371,3.628117323,2024-06-04 14:56:22.621270
29.66127021,-6.616453648,-4.145266056,5.177769184,2024-06-04 14:56:22.661270
29.70127021,-6.616453648,-4.145266056,5.177769184,2024-06-04 14:56:22.701270
29.74127021,-6.616453648,-4.145266056,5.177769184,2024-06-04 14:56:22.741270
29.78127021,0.9185447693,0.8347960114,1.92353034,2024-06-04 14:56:22.781270
29.82127021,-5.688038349,-2.967997313,4.946562767,2024-06-04 14:56:22.821270
29.86127021,-5.690431118,-3.122633457,3.927519321,2024-06-04 14:56:22.861270
29.90127021,-5.690431118,-3.122633457,3.927519321,2024-06-04 14:56:22.901270
29.94127021,-5.690431118,-3.122633457,3.927519321,2024-06-04 14:56:22.941270
29.98127021,-5.690431118,-3.122633457,3.927519321,2024-06-04 14:56:22.981270
30.02127021,-5.690431118,-3.122633457,3.927519321,2024-06-04 14:56:23.021270
30.06127021,-12.1980114,-10.86849976,4.037589073,2024-06-04 14:56:23.061270
30.10127021,-1.582253933,-7.798508167,3.33439827,2024-06-04 14:56:23.101270
30.14127021,-1.582253933,-7.798508167,3.33439827,2024-06-04 14:56:23.141270
30.18127021,-1.582253933,-7.798508167,3.33439827,2024-06-04 14:56:23.181270
30.22127021,-1.582253933,-7.798508167,3.33439827,2024-06-04 14:56:23.221270
30.26127021,-1.582253933,-7.798508167,3.33439827,2024-06-04 14:56:23.261270
30.30127021,-1.582253933,-7.798508167,3.33439827,2024-06-04 14:56:23.301270
30.34127021,-1.582253933,-7.798508167,3.33439827,2024-06-04 14:56:23.341270
30.38127021,-1.582253933,-7.798508167,3.33439827,2024-06-04 14:56:23.381270
30.42127021,-5.792425632,-4.879563808,2.434996128,2024-06-04 14:56:23.421270
30.46127021,-5.792425632,-4.879563808,2.434996128,2024-06-04 14:56:23.461270
30.50127021,-17.35304832,-11.33779144,5.161019325,2024-06-04 14:56:23.501270
30.54127021,-7.444071293,-6.818647385,2.80259347,2024-06-04 14:56:23.541270
30.58127021,-4.33340168,-6.547959328,1.897209287,2024-06-04 14:56:23.581270
30.62127021,-4.33340168,-6.547959328,1.897209287,2024-06-04 14:56:23.621270
30.66127021,-4.33340168,-6.547959328,1.897209287,2024-06-04 14:56:23.661270
30.70127021,-4.33340168,-6.547959328,1.897209287,2024-06-04 14:56:23.701270
30.74127021,-3.984946966,-4.302295208,4.494019985,2024-06-04 14:56:23.741270
30.78127021,-5.351547718,-3.708276987,4.740779877,2024-06-04 14:56:23.781270
30.82127021,-3.343969584,-0.02632104978,3.988536358,2024-06-04 14:56:23.821270
30.86127021,-4.299902439,-1.600200176,4.108177185,2024-06-04 14:56:23.861270
30.90127021,-4.689334393,-2.518744946,3.226721287,2024-06-04 14:56:23.901270
30.94127021,-4.689334393,-2.518744946,3.226721287,2024-06-04 14:56:23.941270
30.98127021,-4.689334393,-2.518744946,3.226721287,2024-06-04 14:56:23.981270
31.02127021,-4.689334393,-2.518744946,3.226721287,2024-06-04 14:56:24.021270
31.06127021,-4.689334393,-2.518744946,3.226721287,2024-06-04 14:56:24.061270
31.06127021,-8.254939079,-8.581858635,5.703591824,2024-06-04 14:56:24.061270
31.14127021,-8.254939079,-8.581858635,5.703591824,2024-06-04 14:56:24.141270
31.18127021,-8.254939079,-8.581858635,5.703591824,2024-06-04 14:56:24.181270
31.22127021,-8.254939079,-8.581858635,5.703591824,2024-06-04 14:56:24.221270
31.26127021,-8.254939079,-8.581858635,5.703591824,2024-06-04 14:56:24.261270
31.30127021,-8.254939079,-8.581858635,5.703591824,2024-06-04 14:56:24.301270
31.34127021,-8.254939079,-8.581858635,5.703591824,2024-06-04 14:56:24.341270
31.38127021,-8.254939079,-8.581858635,5.703591824,2024-06-04 14:56:24.381270
31.42127021,-6.921837807,-6.391229153,3.368196964,2024-06-04 14:56:24.421270
31.46127021,-7.531409264,-6.442675114,3.64127779,2024-06-04 14:56:24.461270
31.50127021,-7.618747234,-7.677670479,2.886641502,2024-06-04 14:56:24.501270
31.54127021,-8.967700958,-8.779565811,3.753740549,2024-06-04 14:56:24.541270
31.58127021,-7.596015453,-6.42472887,3.636492252,2024-06-04 14:56:24.581270
31.62127021,-7.596015453,-6.42472887,3.636492252,2024-06-04 14:56:24.621270
31.66127021,-7.596015453,-6.42472887,3.636492252,2024-06-04 14:56:24.661270
31.70127021,-7.596015453,-6.42472887,3.636492252,2024-06-04 14:56:24.701270
31.74127021,-7.596015453,-6.42472887,3.636492252,2024-06-04 14:56:24.741270
31.78127021,-7.596015453,-6.42472887,3.636492252,2024-06-04 14:56:24.781270
31.82127021,-7.596015453,-6.42472887,3.636492252,2024-06-04 14:56:24.821270
31.86127021,-7.596015453,-6.42472887,3.636492252,2024-06-04 14:56:24.861270
31.90127021,-7.596015453,-6.42472887,3.636492252,2024-06-04 14:56:24.901270
31.94127021,-7.596015453,-6.42472887,3.636492252,2024-06-04 14:56:24.941270
31.98127021,-5.634200096,-3.298506021,3.294916868,2024-06-04 14:56:24.981270
32.02127021,-5.634200096,-3.298506021,3.294916868,2024-06-04 14:56:25.021270
32.06127021,-5.634200096,-3.298506021,3.294916868,2024-06-04 14:56:25.061270
32.10127021,-5.634200096,-3.298506021,3.294916868,2024-06-04 14:56:25.101270
32.14127021,-8.706583977,-8.486145973,4.43061018,2024-06-04 14:56:25.141270
32.18127021,-10.16650486,-10.40728283,3.52731967,2024-06-04 14:56:25.181270
32.22127021,-10.16650486,-10.40728283,3.52731967,2024-06-04 14:56:25.221270
32.26127021,-9.753145218,-9.54257679,4.285545349,2024-06-04 14:56:25.261270
32.30127021,-9.134002686,-5.829514027,4.502394676,2024-06-04 14:56:25.301270
32.34127021,-4.570590496,-5.938387394,4.136891365,2024-06-04 14:56:25.341270
32.38127021,-4.650749683,-7.497909546,3.897608995,2024-06-04 14:56:25.381270
32.42127021,-8.231010437,-7.76500845,3.602693558,2024-06-04 14:56:25.421270
32.46127021,-8.231010437,-7.76500845,3.602693558,2024-06-04 14:56:25.461270
32.50127021,-8.231010437,-7.76500845,3.602693558,2024-06-04 14:56:25.501270
32.54127021,-8.231010437,-7.76500845,3.602693558,2024-06-04 14:56:25.541270
32.58127021,-11.05872917,-6.755237579,2.27078867,2024-06-04 14:56:25.581270
32.62127021,-8.496912956,-7.428517818,1.942672849,2024-06-04 14:56:25.621270
32.66127021,-8.496912956,-7.428517818,1.942672849,2024-06-04 14:56:25.661270
32.70127021,-8.496912956,-7.428517818,1.942672849,2024-06-04 14:56:25.701270
32.74127021,-8.496912956,-7.428517818,1.942672849,2024-06-04 14:56:25.741270
32.78127021,-8.496912956,-7.428517818,1.942672849,2024-06-04 14:56:25.781270
32.82127021,-8.496912956,-7.428517818,1.942672849,2024-06-04 14:56:25.821270
32.86127021,-8.496912956,-7.428517818,1.942672849,2024-06-04 14:56:25.861270
32.90127021,-8.496912956,-7.428517818,1.942672849,2024-06-04 14:56:25.901270
32.94127021,-8.496912956,-7.428517818,1.942672849,2024-06-04 14:56:25.941270
32.98127021,-8.496912956,-7.428517818,1.942672849,2024-06-04 14:56:25.981270
33.02127021,-8.496912956,-7.428517818,1.942672849,2024-06-04 14:56:26.021270
33.06127021,-8.496912956,-7.428517818,1.942672849,2024-06-04 14:56:26.061270
33.10127021,-8.496912956,-7.428517818,1.942672849,2024-06-04 14:56:26.101270
33.14127021,-9.452547073,-11.24686432,3.003889799,2024-06-04 14:56:26.141270
33.18127021,-9.452547073,-11.24686432,3.003889799,2024-06-04 14:56:26.181270
33.22127021,-8.707780838,-6.076273918,2.160718918,2024-06-04 14:56:26.221270
33.26127021,-8.707780838,-6.076273918,2.160718918,2024-06-04 14:56:26.261270
33.30127021,-8.707780838,-6.076273918,2.160718918,2024-06-04 14:56:26.301270
33.34127021,-8.707780838,-6.076273918,2.160718918,2024-06-04 14:56:26.341270
33.38127021,-8.707780838,-6.076273918,2.160718918,2024-06-04 14:56:26.381270
33.42127021,-5.595914841,-7.906484127,2.120040894,2024-06-04 14:56:26.421270
33.46127021,-5.595914841,-7.906484127,2.120040894,2024-06-04 14:56:26.461270
33.50127021,-5.595914841,-7.906484127,2.120040894,2024-06-04 14:56:26.501270
33.54127021,-5.595914841,-7.906484127,2.120040894,2024-06-04 14:56:26.541270
33.58127021,-5.595914841,-7.906484127,2.120040894,2024-06-04 14:56:26.581270
33.62127021,-5.595914841,-7.906484127,2.120040894,2024-06-04 14:56:26.621270
33.66127021,-6.694220543,-7.310970306,3.932304859,2024-06-04 14:56:26.661270
33.70127021,-6.694220543,-7.310970306,3.932304859,2024-06-04 14:56:26.701270
33.74127021,-6.694220543,-7.310970306,3.932304859,2024-06-04 14:56:26.741270
33.78127021,-6.694220543,-7.310970306,3.932304859,2024-06-04 14:56:26.781270
33.82127021,-6.694220543,-7.310970306,3.932304859,2024-06-04 14:56:26.821270
33.86127021,-6.694220543,-7.310970306,3.932304859,2024-06-04 14:56:26.861270
33.90127021,-3.68075943,-0.9571290612,2.732005358,2024-06-04 14:56:26.901270
33.94127021,-3.68075943,-0.9571290612,2.732005358,2024-06-04 14:56:26.941270
33.98127021,-3.850649834,-1.69950223,3.141776085,2024-06-04 14:56:26.981270
34.02127021,-3.850649834,-1.69950223,3.141776085,2024-06-04 14:56:27.021270
34.06127021,-3.850649834,-1.69950223,3.141776085,2024-06-04 14:56:27.061270
34.10127021,-3.850649834,-1.69950223,3.141776085,2024-06-04 14:56:27.101270
34.14127021,-3.850649834,-1.69950223,3.141776085,2024-06-04 14:56:27.141270
34.18127021,-8.685946465,-7.893024445,3.863810301,2024-06-04 14:56:27.181270
34.22127021,-8.685946465,-7.893024445,3.863810301,2024-06-04 14:56:27.221270
34.26127021,-8.804690361,-8.505288124,3.565604925,2024-06-04 14:56:27.261270
34.30127021,-8.197511673,-7.720741272,5.175376415,2024-06-04 14:56:27.301270
34.34127021,-8.197511673,-7.720741272,5.175376415,2024-06-04 14:56:27.341270
34.38127021,-8.197511673,-7.720741272,5.175376415,2024-06-04 14:56:27.381270
34.42127021,-5.497808933,-4.545465946,1.060020447,2024-06-04 14:56:27.421270
34.46127021,-5.497808933,-4.545465946,1.060020447,2024-06-04 14:56:27.461270
34.50127021,-5.497808933,-4.545465946,1.060020447,2024-06-04 14:56:27.501270
34.54127021,-5.497808933,-4.545465946,1.060020447,2024-06-04 14:56:27.541270
34.58127021,-5.497808933,-4.545465946,1.060020447,2024-06-04 14:56:27.581270
34.62127021,-5.497808933,-4.545465946,1.060020447,2024-06-04 14:56:27.621270
34.66127021,-5.497808933,-4.545465946,1.060020447,2024-06-04 14:56:27.661270
34.70127021,-6.774380207,-4.629214287,3.838685751,2024-06-04 14:56:27.701270
34.74127021,-9.548559189,-4.649553299,3.169293642,2024-06-04 14:56:27.741270
34.78127021,-5.746662617,-3.921537161,2.694916487,2024-06-04 14:56:27.781270
34.82127021,-4.039981842,-1.801496387,2.69850564,2024-06-04 14:56:27.821270
34.86127021,-4.039981842,-1.801496387,2.69850564,2024-06-04 14:56:27.861270
34.90127021,-4.039981842,-1.801496387,2.69850564,2024-06-04 14:56:27.901270
34.94127021,-4.039981842,-1.801496387,2.69850564,2024-06-04 14:56:27.941270
34.98127021,-4.039981842,-1.801496387,2.69850564,2024-06-04 14:56:27.981270
35.02127021,-4.039981842,-1.801496387,2.69850564,2024-06-04 14:56:28.021270
35.06127021,-5.916851997,-3.111865759,3.812364578,2024-06-04 14:56:28.061270
35.10127021,-10.0707922,-5.089234829,4.964807987,2024-06-04 14:56:28.101270
35.14127021,-10.0707922,-5.089234829,4.964807987,2024-06-04 14:56:28.141270
35.18127021,-10.0707922,-5.089234829,4.964807987,2024-06-04 14:56:28.181270
35.22127021,-10.0707922,-5.089234829,4.964807987,2024-06-04 14:56:28.221270
35.26127021,-10.0707922,-5.089234829,4.964807987,2024-06-04 14:56:28.261270
35.30127021,-10.0707922,-5.089234829,4.964807987,2024-06-04 14:56:28.301270
35.34127021,-9.136395454,-8.187939644,3.84107852,2024-06-04 14:56:28.341270
35.38127021,-9.136395454,-8.187939644,3.84107852,2024-06-04 14:56:28.381270
35.42127021,-7.663313389,-7.84157896,4.586143494,2024-06-04 14:56:28.421270
35.46127021,-7.663313389,-7.84157896,4.586143494,2024-06-04 14:56:28.461270
35.50127021,-5.59830761,-6.419943333,2.69850564,2024-06-04 14:56:28.501270
35.54127021,-9.151947975,-7.775776386,5.21994257,2024-06-04 14:56:28.541270
35.58127021,-8.053643227,-7.471588612,3.402892828,2024-06-04 14:56:28.581270
35.62127021,-8.053643227,-7.471588612,3.402892828,2024-06-04 14:56:28.621270
35.66127021,-8.053643227,-7.471588612,3.402892828,2024-06-04 14:56:28.661270
35.70127021,-8.053643227,-7.471588612,3.402892828,2024-06-04 14:56:28.701270
35.74127021,-8.053643227,-7.471588612,3.402892828,2024-06-04 14:56:28.741270
35.78127021,-6.11097002,-3.150151014,1.221835017,2024-06-04 14:56:28.781270
35.82127021,-4.256831646,-3.43160677,4.386044025,2024-06-04 14:56:28.821270
35.86127021,-6.482156754,-4.218546391,4.691727161,2024-06-04 14:56:28.861270
35.90127021,-6.482156754,-4.218546391,4.691727161,2024-06-04 14:56:28.901270
35.94127021,-6.482156754,-4.218546391,4.691727161,2024-06-04 14:56:28.941270
35.98127021,-6.482156754,-4.218546391,4.691727161,2024-06-04 14:56:28.981270
36.02127021,-6.482156754,-4.218546391,4.691727161,2024-06-04 14:56:29.021270
36.06127021,-6.482156754,-4.218546391,4.691727161,2024-06-04 14:56:29.061270
36.10127021,-6.482156754,-4.218546391,4.691727161,2024-06-04 14:56:29.101270
36.14127021,-6.482156754,-4.218546391,4.691727161,2024-06-04 14:56:29.141270
36.18127021,-6.482156754,-4.218546391,4.691727161,2024-06-04 14:56:29.181270
36.22127021,-6.482156754,-4.218546391,4.691727161,2024-06-04 14:56:29.221270
36.26127021,-6.482156754,-4.218546391,4.691727161,2024-06-04 14:56:29.261270
36.30127021,-10.30169964,-8.829814911,5.271388054,2024-06-04 14:56:29.301270
36.34127021,-9.247960091,-7.3540411,5.098805904,2024-06-04 14:56:29.341270
36.38127021,-9.480064392,-8.251349449,4.782654285,2024-06-04 14:56:29.381270
36.42127021,-6.427121639,-7.042675018,1.924726725,2024-06-04 14:56:29.421270
36.46127021,-6.427121639,-7.042675018,1.924726725,2024-06-04 14:56:29.461270
36.50127021,-6.427121639,-7.042675018,1.924726725,2024-06-04 14:56:29.501270
36.54127021,-6.427121639,-7.042675018,1.924726725,2024-06-04 14:56:29.541270
36.58127021,-6.427121639,-7.042675018,1.924726725,2024-06-04 14:56:29.581270
36.62127021,-6.427121639,-7.042675018,1.924726725,2024-06-04 14:56:29.621270
36.66127021,-6.427121639,-7.042675018,1.924726725,2024-06-04 14:56:29.661270
36.70127021,-8.559126854,-5.221138954,2.776272535,2024-06-04 14:56:29.701270
36.74127021,-8.559126854,-5.221138954,2.776272535,2024-06-04 14:56:29.741270
36.78127021,-8.559126854,-5.221138954,2.776272535,2024-06-04 14:56:29.781270
36.82127021,-8.559126854,-5.221138954,2.776272535,2024-06-04 14:56:29.821270
36.86127021,-8.559126854,-5.221138954,2.776272535,2024-06-04 14:56:29.861270
36.90127021,-8.559126854,-5.221138954,2.776272535,2024-06-04 14:56:29.901270
36.94127021,-8.559126854,-5.221138954,2.776272535,2024-06-04 14:56:29.941270
36.98127021,-1.801496387,-0.7773682475,3.674777269,2024-06-04 14:56:29.981270
37.02127021,-1.801496387,-0.7773682475,3.674777269,2024-06-04 14:56:30.021270
37.06127021,-1.801496387,-0.7773682475,3.674777269,2024-06-04 14:56:30.061270
37.10127021,-1.801496387,-0.7773682475,3.674777269,2024-06-04 14:56:30.101270
37.14127021,-7.508677483,-8.361419678,2.038684845,2024-06-04 14:56:30.141270
37.18127021,-4.76949358,-5.816353798,1.829013824,2024-06-04 14:56:30.181270
37.22127021,-4.76949358,-5.816353798,1.829013824,2024-06-04 14:56:30.221270
37.26127021,-4.76949358,-5.816353798,1.829013824,2024-06-04 14:56:30.261270
37.30127021,-4.76949358,-5.816353798,1.829013824,2024-06-04 14:56:30.301270
37.34127021,-4.76949358,-5.816353798,1.829013824,2024-06-04 14:56:30.341270
37.38127021,-4.76949358,-5.816353798,1.829013824,2024-06-04 14:56:30.381270
37.38127021,-8.809475899,-7.434499741,4.123730659,2024-06-04 14:56:30.381270
37.46127021,-7.505088329,-8.462217331,2.269592285,2024-06-04 14:56:30.461270
37.50127021,-5.813961029,-7.748258591,4.230510235,2024-06-04 14:56:30.501270
37.54127021,-5.813961029,-7.748258591,4.230510235,2024-06-04 14:56:30.541270
37.58127021,-5.813961029,-7.748258591,4.230510235,2024-06-04 14:56:30.581270
37.62127021,-5.813961029,-7.748258591,4.230510235,2024-06-04 14:56:30.621270
37.66127021,-5.813961029,-7.748258591,4.230510235,2024-06-04 14:56:30.661270
37.70127021,-5.813961029,-7.748258591,4.230510235,2024-06-04 14:56:30.701270
37.74127021,-5.813961029,-7.748258591,4.230510235,2024-06-04 14:56:30.741270
37.78127021,-5.813961029,-7.748258591,4.230510235,2024-06-04 14:56:30.781270
37.82127021,-5.813961029,-7.748258591,4.230510235,2024-06-04 14:56:30.821270
37.86127021,-5.813961029,-7.748258591,4.230510235,2024-06-04 14:56:30.861270
37.90127021,-5.813961029,-7.748258591,4.230510235,2024-06-04 14:56:30.901270
37.94127021,-5.813961029,-7.748258591,4.230510235,2024-06-04 14:56:30.941270
37.98127021,-5.813961029,-7.748258591,4.230510235,2024-06-04 14:56:30.981270
38.02127021,-5.813961029,-7.748258591,4.230510235,2024-06-04 14:56:31.021270
38.06127021,-5.813961029,-7.748258591,4.230510235,2024-06-04 14:56:31.061270
38.10127021,-6.6762743,-7.399804115,2.10209465,2024-06-04 14:56:31.101270
38.14127021,-7.381857872,-5.207679272,3.39810729,2024-06-04 14:56:31.141270
38.18127021,-7.381857872,-5.207679272,3.39810729,2024-06-04 14:56:31.181270
38.22127021,-11.802598,-8.319544792,6.367300987,2024-06-04 14:56:31.221270
38.26127021,-11.802598,-8.319544792,6.367300987,2024-06-04 14:56:31.261270
38.30127021,-11.802598,-8.319544792,6.367300987,2024-06-04 14:56:31.301270
38.34127021,-11.802598,-8.319544792,6.367300987,2024-06-04 14:56:31.341270
38.38127021,-11.802598,-8.319544792,6.367300987,2024-06-04 14:56:31.381270
38.42127021,-7.299006462,-8.186743736,5.576772213,2024-06-04 14:56:31.421270
38.46127021,-7.299006462,-8.186743736,5.576772213,2024-06-04 14:56:31.461270
38.50127021,-7.299006462,-8.186743736,5.576772213,2024-06-04 14:56:31.501270
38.54127021,-7.299006462,-8.186743736,5.576772213,2024-06-04 14:56:31.541270
38.58127021,-7.299006462,-8.186743736,5.576772213,2024-06-04 14:56:31.581270
38.62127021,-7.299006462,-8.186743736,5.576772213,2024-06-04 14:56:31.621270
38.66127021,-7.299006462,-8.186743736,5.576772213,2024-06-04 14:56:31.661270
38.70127021,-7.299006462,-8.186743736,5.576772213,2024-06-04 14:56:31.701270
38.74127021,-7.299006462,-8.186743736,5.576772213,2024-06-04 14:56:31.741270
38.78127021,-7.299006462,-8.186743736,5.576772213,2024-06-04 14:56:31.781270
38.82127021,-7.299006462,-8.186743736,5.576772213,2024-06-04 14:56:31.821270
38.86127021,-8.257331848,-5.661717415,4.858027935,2024-06-04 14:56:31.861270
38.90127021,-7.544569969,-7.282256603,4.299902439,2024-06-04 14:56:31.901270
38.94127021,-7.544569969,-7.282256603,4.299902439,2024-06-04 14:56:31.941270
38.98127021,-7.125526905,-6.866802692,2.921337366,2024-06-04 14:56:31.981270
39.02127021,-7.125526905,-6.866802692,2.921337366,2024-06-04 14:56:32.021270
39.06127021,-7.125526905,-6.866802692,2.921337366,2024-06-04 14:56:32.061270
39.10127021,-7.125526905,-6.866802692,2.921337366,2024-06-04 14:56:32.101270
39.14127021,-10.29571724,-8.868100166,5.350351334,2024-06-04 14:56:32.141270
39.18127021,-10.88285637,-9.847960472,7.031907558,2024-06-04 14:56:32.181270
39.22127021,-10.88285637,-9.847960472,7.031907558,2024-06-04 14:56:32.221270
39.26127021,-10.88285637,-9.847960472,7.031907558,2024-06-04 14:56:32.261270
39.30127021,-10.88285637,-9.847960472,7.031907558,2024-06-04 14:56:32.301270
39.34127021,-10.88285637,-9.847960472,7.031907558,2024-06-04 14:56:32.341270
39.38127021,-10.88285637,-9.847960472,7.031907558,2024-06-04 14:56:32.381270
39.42127021,-9.751948357,-8.305188179,4.383651257,2024-06-04 14:56:32.421270
39.46127021,-9.751948357,-8.305188179,4.383651257,2024-06-04 14:56:32.461270
39.50127021,-9.751948357,-8.305188179,4.383651257,2024-06-04 14:56:32.501270
39.54127021,-9.751948357,-8.305188179,4.383651257,2024-06-04 14:56:32.541270
39.58127021,-9.751948357,-8.305188179,4.383651257,2024-06-04 14:56:32.581270
39.62127021,-2.147558212,-1.469492197,2.63389945,2024-06-04 14:56:32.621270
39.66127021,-2.529512644,0.8084749579,2.910569668,2024-06-04 14:56:32.661270
39.70127021,-2.529512644,0.8084749579,2.910569668,2024-06-04 14:56:32.701270
39.74127021,-2.529512644,0.8084749579,2.910569668,2024-06-04 14:56:32.741270
39.78127021,-2.529512644,0.8084749579,2.910569668,2024-06-04 14:56:32.781270
39.82127021,-1.245763302,-1.893620014,2.029113531,2024-06-04 14:56:32.821270
39.86127021,-2.764308453,-4.050749779,1.789532185,2024-06-04 14:56:32.861270
39.90127021,-16.98395538,-11.56899834,7.6896348,2024-06-04 14:56:32.901270
39.94127021,-16.98395538,-11.56899834,7.6896348,2024-06-04 14:56:32.941270
39.98127021,-16.98395538,-11.56899834,7.6896348,2024-06-04 14:56:32.981270
40.02127021,-16.98395538,-11.56899834,7.6896348,2024-06-04 14:56:33.021270
40.06127021,-16.98395538,-11.56899834,7.6896348,2024-06-04 14:56:33.061270
40.10127021,-16.98395538,-11.56899834,7.6896348,2024-06-04 14:56:33.101270
40.14127021,-16.98395538,-11.56899834,7.6896348,2024-06-04 14:56:33.141270
40.18127021,-16.98395538,-11.56899834,7.6896348,2024-06-04 14:56:33.181270
40.22127021,-16.98395538,-11.56899834,7.6896348,2024-06-04 14:56:33.221270
40.26127021,-16.98395538,-11.56899834,7.6896348,2024-06-04 14:56:33.261270
40.30127021,-16.98395538,-11.56899834,7.6896348,2024-06-04 14:56:33.301270
40.34127021,-16.98395538,-11.56899834,7.6896348,2024-06-04 14:56:33.341270
40.38127021,-16.98395538,-11.56899834,7.6896348,2024-06-04 14:56:33.381270
40.42127021,-3.870988846,-7.457231998,1.275673628,2024-06-04 14:56:33.421270
40.46127021,-3.870988846,-7.457231998,1.275673628,2024-06-04 14:56:33.461270
40.50127021,-3.870988846,-7.457231998,1.275673628,2024-06-04 14:56:33.501270
40.54127021,-3.870988846,-7.457231998,1.275673628,2024-06-04 14:56:33.541270
40.58127021,-11.76191998,-5.752644539,2.97039032,2024-06-04 14:56:33.581270
40.62127021,-0.6179464459,-5.605485916,-1.018146038,2024-06-04 14:56:33.621270
40.66127021,-2.190629244,-10.76411247,2.654238462,2024-06-04 14:56:33.661270
40.70127021,-2.190629244,-10.76411247,2.654238462,2024-06-04 14:56:33.701270
40.74127021,-2.190629244,-10.76411247,2.654238462,2024-06-04 14:56:33.741270
40.78127021,-2.190629244,-10.76411247,2.654238462,2024-06-04 14:56:33.781270
40.82127021,-2.190629244,-10.76411247,2.654238462,2024-06-04 14:56:33.821270
40.86127021,-3.632902861,-8.626125336,5.212464809,2024-06-04 14:56:33.861270
40.90127021,-11.37996578,-7.648956776,2.246860504,2024-06-04 14:56:33.901270
40.94127021,-11.37996578,-7.648956776,2.246860504,2024-06-04 14:56:33.941270
40.98127021,-11.37996578,-7.648956776,2.246860504,2024-06-04 14:56:33.981270
41.02127021,-11.37996578,-7.648956776,2.246860504,2024-06-04 14:56:34.021270
41.06127021,-11.37996578,-7.648956776,2.246860504,2024-06-04 14:56:34.061270
41.10127021,-11.37996578,-7.648956776,2.246860504,2024-06-04 14:56:34.101270
41.14127021,-11.37996578,-7.648956776,2.246860504,2024-06-04 14:56:34.141270
41.18127021,-17.32194138,-16.67378616,1.16769743,2024-06-04 14:56:34.181270
41.22127021,-17.32194138,-16.67378616,1.16769743,2024-06-04 14:56:34.221270
41.26127021,-17.32194138,-16.67378616,1.16769743,2024-06-04 14:56:34.261270
41.30127021,-17.32194138,-16.67378616,1.16769743,2024-06-04 14:56:34.301270
41.34127021,-3.809971809,-8.956634521,3.144168854,2024-06-04 14:56:34.341270
41.38127021,-5.545665741,-7.730312824,2.340479612,2024-06-04 14:56:34.381270
41.42127021,-5.545665741,-7.730312824,2.340479612,2024-06-04 14:56:34.421270
41.46127021,-5.545665741,-7.730312824,2.340479612,2024-06-04 14:56:34.461270
41.50127021,-5.545665741,-7.730312824,2.340479612,2024-06-04 14:56:34.501270
41.54127021,-5.545665741,-7.730312824,2.340479612,2024-06-04 14:56:34.541270
41.58127021,-7.345666409,-7.334898949,0.4683950245,2024-06-04 14:56:34.581270
41.62127021,-1.299601793,-3.996911049,0.78095752,2024-06-04 14:56:34.621270
41.66127021,-1.299601793,-3.996911049,0.78095752,2024-06-04 14:56:34.661270
41.70127021,-1.299601793,-3.996911049,0.78095752,2024-06-04 14:56:34.701270
41.74127021,-1.299601793,-3.996911049,0.78095752,2024-06-04 14:56:34.741270
41.78127021,-1.299601793,-3.996911049,0.78095752,2024-06-04 14:56:34.781270
41.82127021,-1.299601793,-3.996911049,0.78095752,2024-06-04 14:56:34.821270
41.86127021,-1.299601793,-3.996911049,0.78095752,2024-06-04 14:56:34.861270
41.90127021,-1.299601793,-3.996911049,0.78095752,2024-06-04 14:56:34.901270
41.94127021,-9.077771187,-6.213861465,1.928315997,2024-06-04 14:56:34.941270
41.98127021,-0.4923232496,-4.249652863,1.453938842,2024-06-04 14:56:34.981270
42.02127021,-0.4923232496,-4.249652863,1.453938842,2024-06-04 14:56:35.021270
42.06127021,-0.4923232496,-4.249652863,1.453938842,2024-06-04 14:56:35.061270
42.10127021,-0.4923232496,-4.249652863,1.453938842,2024-06-04 14:56:35.101270
42.14127021,-7.126723289,-9.919745445,3.238685369,2024-06-04 14:56:35.141270
42.18127021,-2.486441851,-7.111169815,1.763211131,2024-06-04 14:56:35.181270
42.22127021,-2.486441851,-7.111169815,1.763211131,2024-06-04 14:56:35.221270
42.26127021,1.137787223,-2.830410004,1.719841242,2024-06-04 14:56:35.261270
42.30127021,-5.198108196,-11.48764229,2.098505497,2024-06-04 14:56:35.301270
42.34127021,-6.55782938,-5.682056427,0.9571290612,2024-06-04 14:56:35.341270
42.38127021,-4.605286121,-8.40329361,2.20618248,2024-06-04 14:56:35.381270
42.42127021,-4.605286121,-8.40329361,2.20618248,2024-06-04 14:56:35.421270
42.46127021,-4.605286121,-8.40329361,2.20618248,2024-06-04 14:56:35.461270
42.50127021,-4.605286121,-8.40329361,2.20618248,2024-06-04 14:56:35.501270
42.54127021,-4.605286121,-8.40329361,2.20618248,2024-06-04 14:56:35.541270
42.58127021,-4.605286121,-8.40329361,2.20618248,2024-06-04 14:56:35.581270
42.62127021,-4.605286121,-8.40329361,2.20618248,2024-06-04 14:56:35.621270
42.66127021,-4.605286121,-8.40329361,2.20618248,2024-06-04 14:56:35.661270
42.70127021,-4.605286121,-8.40329361,2.20618248,2024-06-04 14:56:35.701270
42.74127021,-4.605286121,-8.40329361,2.20618248,2024-06-04 14:56:35.741270
42.78127021,-4.605286121,-8.40329361,2.20618248,2024-06-04 14:56:35.781270
42.82127021,-4.605286121,-8.40329361,2.20618248,2024-06-04 14:56:35.821270
42.86127021,-4.605286121,-8.40329361,2.20618248,2024-06-04 14:56:35.861270
42.90127021,-4.605286121,-8.40329361,2.20618248,2024-06-04 14:56:35.901270
42.94127021,-4.605286121,-8.40329361,2.20618248,2024-06-04 14:56:35.941270
42.98127021,-4.605286121,-8.40329361,2.20618248,2024-06-04 14:56:35.981270
43.02127021,-4.605286121,-8.40329361,2.20618248,2024-06-04 14:56:36.021270
43.06127021,-4.605286121,-8.40329361,2.20618248,2024-06-04 14:56:36.061270
43.10127021,-7.898109436,-13.62682629,3.631706476,2024-06-04 14:56:36.101270
43.14127021,-3.238685369,-9.693324089,1.576271892,2024-06-04 14:56:36.141270
43.18127021,-3.238685369,-9.693324089,1.576271892,2024-06-04 14:56:36.181270
43.22127021,-2.687737942,-7.196115017,1.717448473,2024-06-04 14:56:36.221270
43.26127021,-2.687737942,-7.196115017,1.717448473,2024-06-04 14:56:36.261270
43.30127021,-2.687737942,-7.196115017,1.717448473,2024-06-04 14:56:36.301270
43.34127021,-2.687737942,-7.196115017,1.717448473,2024-06-04 14:56:36.341270
43.38127021,-2.687737942,-7.196115017,1.717448473,2024-06-04 14:56:36.381270
43.42127021,-5.05812788,-9.288638115,2.613560438,2024-06-04 14:56:36.421270
43.46127021,-5.05812788,-9.288638115,2.613560438,2024-06-04 14:56:36.461270
43.50127021,-5.05812788,-9.288638115,2.613560438,2024-06-04 14:56:36.501270
43.54127021,-5.05812788,-9.288638115,2.613560438,2024-06-04 14:56:36.541270
43.58127021,-5.05812788,-9.288638115,2.613560438,2024-06-04 14:56:36.581270
43.62127021,-5.05812788,-9.288638115,2.613560438,2024-06-04 14:56:36.621270
43.66127021,-5.05812788,-9.288638115,2.613560438,2024-06-04 14:56:36.661270
43.70127021,-5.05812788,-9.288638115,2.613560438,2024-06-04 14:56:36.701270
43.74127021,-5.05812788,-9.288638115,2.613560438,2024-06-04 14:56:36.741270
43.78127021,-5.05812788,-9.288638115,2.613560438,2024-06-04 14:56:36.781270
43.82127021,-5.05812788,-9.288638115,2.613560438,2024-06-04 14:56:36.821270
43.86127021,-5.05812788,-9.288638115,2.613560438,2024-06-04 14:56:36.861270
43.90127021,-4.677071095,-8.360222816,2.105684042,2024-06-04 14:56:36.901270
43.94127021,-4.677071095,-8.360222816,2.105684042,2024-06-04 14:56:36.941270
43.98127021,-4.011268139,-8.446663857,1.916351795,2024-06-04 14:56:36.981270
44.02127021,-4.011268139,-8.446663857,1.916351795,2024-06-04 14:56:37.021270
44.06127021,-4.011268139,-8.446663857,1.916351795,2024-06-04 14:56:37.061270
44.10127021,-4.011268139,-8.446663857,1.916351795,2024-06-04 14:56:37.101270
44.14127021,-4.556233406,-8.560322762,2.362015009,2024-06-04 14:56:37.141270
44.18127021,-4.813760757,-8.418847084,2.173879385,2024-06-04 14:56:37.181270
44.22127021,-4.813760757,-8.418847084,2.173879385,2024-06-04 14:56:37.221270
44.22127021,-5.380261898,-9.025128365,2.595614433,2024-06-04 14:56:37.221270
44.30127021,-5.380261898,-9.025128365,2.595614433,2024-06-04 14:56:37.301270
44.34127021,-5.380261898,-9.025128365,2.595614433,2024-06-04 14:56:37.341270
44.38127021,-5.380261898,-9.025128365,2.595614433,2024-06-04 14:56:37.381270
44.42127021,-4.41984272,-8.016553879,2.106880426,2024-06-04 14:56:37.421270
44.46127021,-4.41984272,-8.016553879,2.106880426,2024-06-04 14:56:37.461270
44.50127021,-4.41984272,-8.016553879,2.106880426,2024-06-04 14:56:37.501270
44.54127021,-4.41984272,-8.016553879,2.106880426,2024-06-04 14:56:37.541270
44.58127021,-4.634000301,-8.233403206,2.375175476,2024-06-04 14:56:37.581270
44.62127021,-4.375276089,-8.394919395,2.068595171,2024-06-04 14:56:37.621270
44.62127021,-4.375276089,-8.394919395,2.068595171,2024-06-04 14:56:37.621270
44.70127021,-4.375276089,-8.394919395,2.068595171,2024-06-04 14:56:37.701270
44.74127021,-4.375276089,-8.394919395,2.068595171,2024-06-04 14:56:37.741270
44.78127021,-4.375276089,-8.394919395,2.068595171,2024-06-04 14:56:37.781270
44.82127021,-4.375276089,-8.394919395,2.068595171,2024-06-04 14:56:37.821270
44.86127021,-4.814957142,-8.01416111,2.129612207,2024-06-04 14:56:37.861270
44.90127021,-4.980361462,-7.884649754,2.100898266,2024-06-04 14:56:37.901270
44.94127021,-4.980361462,-7.884649754,2.100898266,2024-06-04 14:56:37.941270
44.98127021,-4.980361462,-7.884649754,2.100898266,2024-06-04 14:56:37.981270
45.02127021,-4.980361462,-7.884649754,2.100898266,2024-06-04 14:56:38.021270
45.06127021,-4.980361462,-7.884649754,2.100898266,2024-06-04 14:56:38.061270
45.10127021,-4.980361462,-7.884649754,2.100898266,2024-06-04 14:56:38.101270
45.14127021,-4.980361462,-7.884649754,2.100898266,2024-06-04 14:56:38.141270
45.18127021,-4.980361462,-7.884649754,2.100898266,2024-06-04 14:56:38.181270
45.22127021,-4.980361462,-7.884649754,2.100898266,2024-06-04 14:56:38.221270
45.26127021,-4.980361462,-7.884649754,2.100898266,2024-06-04 14:56:38.261270
45.30127021,-4.980361462,-7.884649754,2.100898266,2024-06-04 14:56:38.301270
45.34127021,-4.980361462,-7.884649754,2.100898266,2024-06-04 14:56:38.341270
45.38127021,-4.980361462,-7.884649754,2.100898266,2024-06-04 14:56:38.381270
45.42127021,-8.083553314,-10.0142622,2.669791937,2024-06-04 14:56:38.421270
45.46127021,-8.083553314,-10.0142622,2.669791937,2024-06-04 14:56:38.461270
45.50127021,-8.083553314,-10.0142622,2.669791937,2024-06-04 14:56:38.501270
45.54127021,-8.083553314,-10.0142622,2.669791937,2024-06-04 14:56:38.541270
45.58127021,-3.095116138,-8.842975616,1.388136268,2024-06-04 14:56:38.581270
45.62127021,-3.424428225,-8.207082748,1.765604019,2024-06-04 14:56:38.621270
45.66127021,-3.036192894,-7.366304398,1.596610904,2024-06-04 14:56:38.661270
45.70127021,-3.036192894,-7.366304398,1.596610904,2024-06-04 14:56:38.701270
45.74127021,-3.036192894,-7.366304398,1.596610904,2024-06-04 14:56:38.741270
45.78127021,-3.036192894,-7.366304398,1.596610904,2024-06-04 14:56:38.781270
45.82127021,-3.036192894,-7.366304398,1.596610904,2024-06-04 14:56:38.821270
45.86127021,-3.036192894,-7.366304398,1.596610904,2024-06-04 14:56:38.861270
45.90127021,-3.036192894,-7.366304398,1.596610904,2024-06-04 14:56:38.901270
45.94127021,-3.036192894,-7.366304398,1.596610904,2024-06-04 14:56:38.941270
45.98127021,-3.036192894,-7.366304398,1.596610904,2024-06-04 14:56:38.981270
46.02127021,-3.036192894,-7.366304398,1.596610904,2024-06-04 14:56:39.021270
46.06127021,-3.036192894,-7.366304398,1.596610904,2024-06-04 14:56:39.061270
46.10127021,-3.036192894,-7.366304398,1.596610904,2024-06-04 14:56:39.101270
46.14127021,-3.036192894,-7.366304398,1.596610904,2024-06-04 14:56:39.141270
46.18127021,-7.10159874,-8.559126854,3.029014349,2024-06-04 14:56:39.181270
46.22127021,-7.10159874,-8.559126854,3.029014349,2024-06-04 14:56:39.221270
46.26127021,-5.931209087,-9.35204792,3.113062143,2024-06-04 14:56:39.261270
46.30127021,-5.931209087,-9.35204792,3.113062143,2024-06-04 14:56:39.301270
46.34127021,-5.931209087,-9.35204792,3.113062143,2024-06-04 14:56:39.341270
46.38127021,-6.187540054,-7.63579607,2.400300264,2024-06-04 14:56:39.381270
46.42127021,-5.796014786,-6.629614353,2.513959408,2024-06-04 14:56:39.421270
46.46127021,-5.688038349,-7.521838188,2.025524378,2024-06-04 14:56:39.461270
46.50127021,-5.688038349,-7.521838188,2.025524378,2024-06-04 14:56:39.501270
46.54127021,-5.688038349,-7.521838188,2.025524378,2024-06-04 14:56:39.541270
46.58127021,-5.688038349,-7.521838188,2.025524378,2024-06-04 14:56:39.581270
46.62127021,-5.688038349,-7.521838188,2.025524378,2024-06-04 14:56:39.621270
46.66127021,-5.688038349,-7.521838188,2.025524378,2024-06-04 14:56:39.661270
46.70127021,-5.688038349,-7.521838188,2.025524378,2024-06-04 14:56:39.701270
46.74127021,-5.688038349,-7.521838188,2.025524378,2024-06-04 14:56:39.741270
46.78127021,-5.688038349,-7.521838188,2.025524378,2024-06-04 14:56:39.781270
46.82127021,-5.688038349,-7.521838188,2.025524378,2024-06-04 14:56:39.821270
46.86127021,-5.688038349,-7.521838188,2.025524378,2024-06-04 14:56:39.861270
46.90127021,-5.688038349,-7.521838188,2.025524378,2024-06-04 14:56:39.901270
46.94127021,-7.392625332,-3.709473372,3.968197346,2024-06-04 14:56:39.941270
46.98127021,-5.811567783,-3.314059258,4.606482506,2024-06-04 14:56:39.981270
47.02127021,-5.811567783,-3.314059258,4.606482506,2024-06-04 14:56:40.021270
47.06127021,-6.276074886,-1.673181176,4.201796532,2024-06-04 14:56:40.061270
47.10127021,-6.108577251,-0.3376871049,3.067299604,2024-06-04 14:56:40.101270
47.14127021,-6.108577251,-0.3376871049,3.067299604,2024-06-04 14:56:40.141270
47.18127021,-8.177172661,-4.628017902,5.575575829,2024-06-04 14:56:40.181270
47.22127021,-8.177172661,-4.628017902,5.575575829,2024-06-04 14:56:40.221270
47.26127021,-8.177172661,-4.628017902,5.575575829,2024-06-04 14:56:40.261270
47.30127021,-6.907480717,-5.392225742,8.606983185,2024-06-04 14:56:40.301270
47.34127021,-6.907480717,-5.392225742,8.606983185,2024-06-04 14:56:40.341270
47.38127021,-3.481856108,-4.342973232,7.943572998,2024-06-04 14:56:40.381270
47.42127021,-3.481856108,-4.342973232,7.943572998,2024-06-04 14:56:40.421270
47.46127021,-3.481856108,-4.342973232,7.943572998,2024-06-04 14:56:40.461270
47.50127021,-3.481856108,-4.342973232,7.943572998,2024-06-04 14:56:40.501270
47.54127021,-3.481856108,-4.342973232,7.943572998,2024-06-04 14:56:40.541270
47.58127021,-3.481856108,-4.342973232,7.943572998,2024-06-04 14:56:40.581270
47.62127021,-3.481856108,-4.342973232,7.943572998,2024-06-04 14:56:40.621270
47.66127021,-3.481856108,-4.342973232,7.943572998,2024-06-04 14:56:40.661270
47.70127021,-3.481856108,-4.342973232,7.943572998,2024-06-04 14:56:40.701270
47.74127021,-3.481856108,-4.342973232,7.943572998,2024-06-04 14:56:40.741270
47.78127021,-3.481856108,-4.342973232,7.943572998,2024-06-04 14:56:40.781270
47.82127021,-3.481856108,-4.342973232,7.943572998,2024-06-04 14:56:40.821270
47.86127021,-3.481856108,-4.342973232,7.943572998,2024-06-04 14:56:40.861270
47.90127021,-4.689334393,-4.341776848,8.719744682,2024-06-04 14:56:40.901270
47.94127021,-4.689334393,-4.341776848,8.719744682,2024-06-04 14:56:40.941270
47.98127021,-3.333201885,-2.680559635,8.192725182,2024-06-04 14:56:40.981270
48.02127021,-3.333201885,-2.680559635,8.192725182,2024-06-04 14:56:41.021270
48.06127021,-4.030410767,-3.073281527,9.205786705,2024-06-04 14:56:41.061270
48.10127021,-4.668695927,-3.710669756,8.578269005,2024-06-04 14:56:41.101270
48.14127021,-4.219742775,-3.372982502,7.556533813,2024-06-04 14:56:41.141270
48.18127021,-4.219742775,-3.372982502,7.556533813,2024-06-04 14:56:41.181270
48.22127021,-4.219742775,-3.372982502,7.556533813,2024-06-04 14:56:41.221270
48.26127021,-4.219742775,-3.372982502,7.556533813,2024-06-04 14:56:41.261270
48.30127021,-4.219742775,-3.372982502,7.556533813,2024-06-04 14:56:41.301270
48.34127021,-4.219742775,-3.372982502,7.556533813,2024-06-04 14:56:41.341270
48.38127021,-4.219742775,-3.372982502,7.556533813,2024-06-04 14:56:41.381270
48.42127021,-5.053342342,-3.606282711,6.008975983,2024-06-04 14:56:41.421270
48.46127021,-5.053342342,-3.606282711,6.008975983,2024-06-04 14:56:41.461270
48.50127021,-5.053342342,-3.606282711,6.008975983,2024-06-04 14:56:41.501270
48.54127021,-5.053342342,-3.606282711,6.008975983,2024-06-04 14:56:41.541270
48.58127021,-5.053342342,-3.606282711,6.008975983,2024-06-04 14:56:41.581270
48.62127021,-5.053342342,-3.606282711,6.008975983,2024-06-04 14:56:41.621270
48.66127021,-5.053342342,-3.606282711,6.008975983,2024-06-04 14:56:41.661270
48.70127021,-5.053342342,-3.606282711,6.008975983,2024-06-04 14:56:41.701270
48.74127021,-5.606682777,-4.302295208,5.43649292,2024-06-04 14:56:41.741270
48.78127021,-5.828317642,-3.59790802,5.003093243,2024-06-04 14:56:41.781270
48.82127021,-5.828317642,-3.59790802,5.003093243,2024-06-04 14:56:41.821270
48.86127021,-5.828317642,-3.59790802,5.003093243,2024-06-04 14:56:41.861270
48.90127021,-5.828317642,-3.59790802,5.003093243,2024-06-04 14:56:41.901270
48.94127021,-5.828317642,-3.59790802,5.003093243,2024-06-04 14:56:41.941270
48.98127021,-6.305087566,-4.944169998,6.164808273,2024-06-04 14:56:41.981270
49.02127021,-6.305087566,-4.944169998,6.164808273,2024-06-04 14:56:42.021270
49.06127021,-6.305087566,-4.944169998,6.164808273,2024-06-04 14:56:42.061270
49.10127021,-6.305087566,-4.944169998,6.164808273,2024-06-04 14:56:42.101270
49.14127021,-6.305087566,-4.944169998,6.164808273,2024-06-04 14:56:42.141270
49.18127021,-5.531308651,-4.885545731,6.329015732,2024-06-04 14:56:42.181270
49.22127021,-5.334797859,-4.299902439,6.319444656,2024-06-04 14:56:42.221270
49.26127021,-5.334797859,-4.299902439,6.319444656,2024-06-04 14:56:42.261270
49.30127021,-5.334797859,-4.299902439,6.319444656,2024-06-04 14:56:42.301270
49.34127021,-5.334797859,-4.299902439,6.319444656,2024-06-04 14:56:42.341270
49.38127021,-5.334797859,-4.299902439,6.319444656,2024-06-04 14:56:42.381270
49.42127021,-5.121537685,-4.86281395,6.685845375,2024-06-04 14:56:42.421270
49.46127021,-5.121537685,-4.86281395,6.685845375,2024-06-04 14:56:42.461270
49.50127021,-5.121537685,-4.86281395,6.685845375,2024-06-04 14:56:42.501270
49.54127021,-5.121537685,-4.86281395,6.685845375,2024-06-04 14:56:42.541270
49.58127021,-5.121537685,-4.86281395,6.685845375,2024-06-04 14:56:42.581270
49.62127021,-5.140680313,-4.880760193,6.689435005,2024-06-04 14:56:42.621270
49.66127021,-5.120341301,-4.923830986,6.549155712,2024-06-04 14:56:42.661270
49.70127021,-5.120341301,-4.923830986,6.549155712,2024-06-04 14:56:42.701270
49.74127021,-4.974379063,-4.737190723,6.549155712,2024-06-04 14:56:42.741270
49.78127021,-5.052145958,-4.69411993,6.39601469,2024-06-04 14:56:42.781270
49.82127021,-4.82333231,-4.999503613,6.688238621,2024-06-04 14:56:42.821270
49.86127021,-4.82333231,-4.999503613,6.688238621,2024-06-04 14:56:42.861270
49.90127021,-4.82333231,-4.999503613,6.688238621,2024-06-04 14:56:42.901270
49.94127021,-4.82333231,-4.999503613,6.688238621,2024-06-04 14:56:42.941270
49.98127021,-4.82333231,-4.999503613,6.688238621,2024-06-04 14:56:42.981270
50.02127021,-4.82333231,-4.999503613,6.688238621,2024-06-04 14:56:43.021270
50.06127021,-4.703691006,-5.103591442,6.482156754,2024-06-04 14:56:43.061270
50.06127021,-4.703691006,-5.103591442,6.482156754,2024-06-04 14:56:43.061270
50.10127021,-4.578965187,-5.120341301,6.616453648,2024-06-04 14:56:43.101270
50.14127021,-4.578965187,-5.120341301,6.616453648,2024-06-04 14:56:43.141270
50.18127021,-4.578965187,-5.120341301,6.616453648,2024-06-04 14:56:43.181270
50.22127021,-4.578965187,-5.120341301,6.616453648,2024-06-04 14:56:43.221270
50.26127021,-4.578965187,-5.120341301,6.616453648,2024-06-04 14:56:43.261270
50.30127021,-4.578965187,-5.120341301,6.616453648,2024-06-04 14:56:43.301270
50.34127021,-4.578965187,-5.120341301,6.616453648,2024-06-04 14:56:43.341270
50.38127021,-4.828117847,-5.464010715,6.325426579,2024-06-04 14:56:43.381270
50.42127021,-4.828117847,-5.464010715,6.325426579,2024-06-04 14:56:43.421270
50.46127021,-4.828117847,-5.464010715,6.325426579,2024-06-04 14:56:43.461270
50.50127021,-4.532305241,-5.827121258,6.148058891,2024-06-04 14:56:43.501270
50.54127021,-4.55742979,-5.579164982,6.366104603,2024-06-04 14:56:43.541270
50.58127021,-5.070092201,-5.83669281,6.168397903,2024-06-04 14:56:43.581270
50.62127021,-4.522733688,-5.647360325,5.958726406,2024-06-04 14:56:43.621270
50.66127021,-4.813760757,-5.977869034,5.955137253,2024-06-04 14:56:43.661270
50.70127021,-4.629214287,-5.641378403,5.698806286,2024-06-04 14:56:43.701270
50.74127021,-4.629214287,-5.641378403,5.698806286,2024-06-04 14:56:43.741270
50.78127021,-4.629214287,-5.641378403,5.698806286,2024-06-04 14:56:43.781270
50.82127021,-4.629214287,-5.641378403,5.698806286,2024-06-04 14:56:43.821270
50.86127021,-4.629214287,-5.641378403,5.698806286,2024-06-04 14:56:43.861270
50.90127021,-4.629214287,-5.641378403,5.698806286,2024-06-04 14:56:43.901270
50.94127021,-4.629214287,-5.641378403,5.698806286,2024-06-04 14:56:43.941270
50.98127021,-4.174279213,-6.527620316,5.448457241,2024-06-04 14:56:43.981270
51.02127021,-4.174279213,-6.527620316,5.448457241,2024-06-04 14:56:44.021270
51.06127021,-4.174279213,-6.527620316,5.448457241,2024-06-04 14:56:44.061270
51.10127021,-4.174279213,-6.527620316,5.448457241,2024-06-04 14:56:44.101270
51.14127021,-4.174279213,-6.527620316,5.448457241,2024-06-04 14:56:44.141270
51.18127021,-6.915855408,-6.841678143,4.700101852,2024-06-04 14:56:44.181270
51.22127021,-6.721737862,-7.985447407,4.553840637,2024-06-04 14:56:44.221270
51.26127021,-6.745666027,-8.020143509,4.792225361,2024-06-04 14:56:44.261270
51.30127021,-7.581658363,-7.869096279,5.028217793,2024-06-04 14:56:44.301270
51.34127021,-7.581658363,-7.869096279,5.028217793,2024-06-04 14:56:44.341270
51.38127021,-7.581658363,-7.869096279,5.028217793,2024-06-04 14:56:44.381270
51.42127021,-7.581658363,-7.869096279,5.028217793,2024-06-04 14:56:44.421270
51.46127021,-7.581658363,-7.869096279,5.028217793,2024-06-04 14:56:44.461270
51.50127021,-4.496412754,-4.931009293,3.731008768,2024-06-04 14:56:44.501270
51.54127021,-4.496412754,-4.931009293,3.731008768,2024-06-04 14:56:44.541270
51.58127021,-4.496412754,-4.931009293,3.731008768,2024-06-04 14:56:44.581270
51.62127021,-4.496412754,-4.931009293,3.731008768,2024-06-04 14:56:44.621270
51.66127021,-4.496412754,-4.931009293,3.731008768,2024-06-04 14:56:44.661270
51.70127021,-4.496412754,-4.931009293,3.731008768,2024-06-04 14:56:44.701270
51.74127021,-4.496412754,-4.931009293,3.731008768,2024-06-04 14:56:44.741270
51.78127021,-4.496412754,-4.931009293,3.731008768,2024-06-04 14:56:44.781270
51.82127021,-4.496412754,-4.931009293,3.731008768,2024-06-04 14:56:44.821270
51.86127021,-4.496412754,-4.931009293,3.731008768,2024-06-04 14:56:44.861270
51.90127021,-4.496412754,-4.931009293,3.731008768,2024-06-04 14:56:44.901270
51.94127021,-5.943173409,-6.233004093,5.268995285,2024-06-04 14:56:44.941270
51.98127021,-5.611468315,-7.074978352,5.383851051,2024-06-04 14:56:44.981270
52.02127021,-5.611468315,-7.074978352,5.383851051,2024-06-04 14:56:45.021270
52.06127021,-6.970890522,-6.197111607,5.87258482,2024-06-04 14:56:45.061270
52.10127021,-6.970890522,-6.197111607,5.87258482,2024-06-04 14:56:45.101270
52.14127021,-6.970890522,-6.197111607,5.87258482,2024-06-04 14:56:45.141270
52.18127021,-6.663113594,-4.666303158,5.70000267,2024-06-04 14:56:45.181270
52.22127021,-6.663113594,-4.666303158,5.70000267,2024-06-04 14:56:45.221270
52.26127021,-4.34775877,-2.462513685,5.121537685,2024-06-04 14:56:45.261270
52.30127021,-6.019743443,-4.214957237,5.979065418,2024-06-04 14:56:45.301270
52.34127021,-6.709774017,-2.638685226,5.610271931,2024-06-04 14:56:45.341270
52.38127021,-6.709774017,-2.638685226,5.610271931,2024-06-04 14:56:45.381270
52.42127021,-6.709774017,-2.638685226,5.610271931,2024-06-04 14:56:45.421270
52.46127021,-6.709774017,-2.638685226,5.610271931,2024-06-04 14:56:45.461270
52.50127021,-6.709774017,-2.638685226,5.610271931,2024-06-04 14:56:45.501270
52.54127021,-6.709774017,-2.638685226,5.610271931,2024-06-04 14:56:45.541270
52.58127021,-6.709774017,-2.638685226,5.610271931,2024-06-04 14:56:45.581270
52.62127021,-6.709774017,-2.638685226,5.610271931,2024-06-04 14:56:45.621270
52.66127021,-6.709774017,-2.638685226,5.610271931,2024-06-04 14:56:45.661270
52.70127021,-6.709774017,-2.638685226,5.610271931,2024-06-04 14:56:45.701270
52.74127021,-6.709774017,-2.638685226,5.610271931,2024-06-04 14:56:45.741270
52.78127021,-6.709774017,-2.638685226,5.610271931,2024-06-04 14:56:45.781270
52.82127021,-6.709774017,-2.638685226,5.610271931,2024-06-04 14:56:45.821270
52.86127021,-6.709774017,-2.638685226,5.610271931,2024-06-04 14:56:45.861270
52.90127021,-6.709774017,-2.638685226,5.610271931,2024-06-04 14:56:45.901270
52.94127021,-6.709774017,-2.638685226,5.610271931,2024-06-04 14:56:45.941270
52.98127021,-6.709774017,-2.638685226,5.610271931,2024-06-04 14:56:45.981270
53.02127021,-6.714559555,-2.351247311,6.072684765,2024-06-04 14:56:46.021270
53.06127021,-3.417249918,-0.5210371017,4.987539768,2024-06-04 14:56:46.061270
53.10127021,-4.124927044,-0.536590457,4.749154568,2024-06-04 14:56:46.101270
53.14127021,-3.958626032,-0.8335995674,4.884349346,2024-06-04 14:56:46.141270
53.18127021,-10.34267712,-3.813561201,8.167600632,2024-06-04 14:56:46.181270
53.22127021,-10.34267712,-3.813561201,8.167600632,2024-06-04 14:56:46.221270
53.26127021,-10.34267712,-3.813561201,8.167600632,2024-06-04 14:56:46.261270
53.30127021,-10.34267712,-3.813561201,8.167600632,2024-06-04 14:56:46.301270
53.34127021,-10.34267712,-3.813561201,8.167600632,2024-06-04 14:56:46.341270
53.38127021,-10.34267712,-3.813561201,8.167600632,2024-06-04 14:56:46.381270
53.42127021,-9.143573761,-3.78484726,6.901498795,2024-06-04 14:56:46.421270
53.46127021,-9.143573761,-3.78484726,6.901498795,2024-06-04 14:56:46.461270
53.50127021,-9.143573761,-3.78484726,6.901498795,2024-06-04 14:56:46.501270
53.54127021,-9.143573761,-3.78484726,6.901498795,2024-06-04 14:56:46.541270
53.58127021,-9.143573761,-3.78484726,6.901498795,2024-06-04 14:56:46.581270
53.62127021,-9.143573761,-3.78484726,6.901498795,2024-06-04 14:56:46.621270
53.66127021,-9.143573761,-3.78484726,6.901498795,2024-06-04 14:56:46.661270
53.70127021,-9.143573761,-3.78484726,6.901498795,2024-06-04 14:56:46.701270
53.74127021,-9.143573761,-3.78484726,6.901498795,2024-06-04 14:56:46.741270
53.78127021,-9.143573761,-3.78484726,6.901498795,2024-06-04 14:56:46.781270
53.82127021,-9.143573761,-3.78484726,6.901498795,2024-06-04 14:56:46.821270
53.86127021,-6.881159782,-2.448156595,6.606882572,2024-06-04 14:56:46.861270
53.90127021,-7.023532867,-2.432603359,6.556334019,2024-06-04 14:56:46.901270
53.94127021,-6.978068829,-2.243271112,6.425925255,2024-06-04 14:56:46.941270
53.98127021,-6.774380207,-2.189432621,6.354140759,2024-06-04 14:56:46.981270
54.02127021,-6.774380207,-2.189432621,6.354140759,2024-06-04 14:56:47.021270
54.06127021,-6.774380207,-2.189432621,6.354140759,2024-06-04 14:56:47.061270
54.10127021,-6.774380207,-2.189432621,6.354140759,2024-06-04 14:56:47.101270
54.14127021,-6.93978405,-2.169093609,6.584150791,2024-06-04 14:56:47.141270
54.18127021,-6.854838848,-2.24566412,6.689435005,2024-06-04 14:56:47.181270
54.22127021,-6.854838848,-2.24566412,6.689435005,2024-06-04 14:56:47.221270
54.26127021,-6.854838848,-2.24566412,6.689435005,2024-06-04 14:56:47.261270
54.30127021,-6.854838848,-2.24566412,6.689435005,2024-06-04 14:56:47.301270
54.34127021,-6.854838848,-2.24566412,6.689435005,2024-06-04 14:56:47.341270
54.38127021,-6.854838848,-2.24566412,6.689435005,2024-06-04 14:56:47.381270
54.42127021,-6.921837807,-1.990529299,6.457031727,2024-06-04 14:56:47.421270
54.46127021,-6.921837807,-1.990529299,6.457031727,2024-06-04 14:56:47.461270
54.50127021,-6.921837807,-1.990529299,6.457031727,2024-06-04 14:56:47.501270
54.54127021,-7.031907558,-1.936690807,6.5288167,2024-06-04 14:56:47.541270
54.58127021,-7.126723289,-1.965404749,6.415157318,2024-06-04 14:56:47.581270
54.62127021,-7.001997471,-1.951047778,6.230610847,2024-06-04 14:56:47.621270
54.66127021,-6.703791618,-2.053041935,6.349354744,2024-06-04 14:56:47.661270
54.70127021,-6.703791618,-2.053041935,6.349354744,2024-06-04 14:56:47.701270
54.74127021,-6.703791618,-2.053041935,6.349354744,2024-06-04 14:56:47.741270
54.78127021,-6.703791618,-2.053041935,6.349354744,2024-06-04 14:56:47.781270
54.82127021,-6.703791618,-2.053041935,6.349354744,2024-06-04 14:56:47.821270
54.86127021,-6.938587666,-2.053041935,6.344569206,2024-06-04 14:56:47.861270
54.90127021,-6.938587666,-2.053041935,6.344569206,2024-06-04 14:56:47.901270
54.94127021,-6.996015072,-2.134397745,6.416353703,2024-06-04 14:56:47.941270
54.94127021,-6.996015072,-2.134397745,6.416353703,2024-06-04 14:56:47.941270
55.02127021,-6.996015072,-2.134397745,6.416353703,2024-06-04 14:56:48.021270
55.06127021,-6.996015072,-2.134397745,6.416353703,2024-06-04 14:56:48.061270
55.10127021,-6.996015072,-2.134397745,6.416353703,2024-06-04 14:56:48.101270
55.14127021,-6.996015072,-2.134397745,6.416353703,2024-06-04 14:56:48.141270
55.18127021,-6.996015072,-2.134397745,6.416353703,2024-06-04 14:56:48.181270
55.22127021,-6.996015072,-2.134397745,6.416353703,2024-06-04 14:56:48.221270
55.26127021,-6.996015072,-2.134397745,6.416353703,2024-06-04 14:56:48.261270
55.30127021,-6.996015072,-2.134397745,6.416353703,2024-06-04 14:56:48.301270
55.34127021,-6.996015072,-2.134397745,6.416353703,2024-06-04 14:56:48.341270
55.38127021,-6.908677101,-2.208575249,6.407979012,2024-06-04 14:56:48.381270
55.42127021,-6.844070911,-2.190629244,6.453442574,2024-06-04 14:56:48.421270
55.46127021,-6.844070911,-2.190629244,6.453442574,2024-06-04 14:56:48.461270
55.50127021,-6.844070911,-2.190629244,6.453442574,2024-06-04 14:56:48.501270
55.54127021,-6.844070911,-2.190629244,6.453442574,2024-06-04 14:56:48.541270
55.58127021,-6.844070911,-2.190629244,6.453442574,2024-06-04 14:56:48.581270
55.62127021,-6.789933205,-2.094916344,6.384050846,2024-06-04 14:56:48.621270
55.66127021,-6.92542696,-2.090130568,6.405586243,2024-06-04 14:56:48.661270
55.70127021,-6.92542696,-2.090130568,6.405586243,2024-06-04 14:56:48.701270
55.74127021,-6.92542696,-2.090130568,6.405586243,2024-06-04 14:56:48.741270
55.78127021,-6.92542696,-2.090130568,6.405586243,2024-06-04 14:56:48.781270
55.82127021,-6.92542696,-2.090130568,6.405586243,2024-06-04 14:56:48.821270
55.86127021,-6.92542696,-2.090130568,6.405586243,2024-06-04 14:56:48.861270
55.90127021,-6.92542696,-2.090130568,6.405586243,2024-06-04 14:56:48.901270
55.94127021,-6.92542696,-2.090130568,6.405586243,2024-06-04 14:56:48.941270
55.98127021,-6.948158741,-2.111665964,6.485745907,2024-06-04 14:56:48.981270
56.02127021,-6.948158741,-2.111665964,6.485745907,2024-06-04 14:56:49.021270
56.06127021,-6.948158741,-2.111665964,6.485745907,2024-06-04 14:56:49.061270
56.10127021,-6.948158741,-2.111665964,6.485745907,2024-06-04 14:56:49.101270
56.14127021,-6.948158741,-2.111665964,6.485745907,2024-06-04 14:56:49.141270
56.18127021,-6.926623344,-2.02073884,6.416353703,2024-06-04 14:56:49.181270
56.22127021,-6.926623344,-2.02073884,6.416353703,2024-06-04 14:56:49.221270
56.26127021,-6.926623344,-2.02073884,6.416353703,2024-06-04 14:56:49.261270
56.30127021,-7.00439024,-2.099701881,6.454638958,2024-06-04 14:56:49.301270
56.34127021,-6.93619442,-2.103291035,6.43549633,2024-06-04 14:56:49.341270
56.38127021,-6.93619442,-2.103291035,6.43549633,2024-06-04 14:56:49.381270
56.42127021,-6.93619442,-2.103291035,6.43549633,2024-06-04 14:56:49.421270
56.46127021,-6.93619442,-2.103291035,6.43549633,2024-06-04 14:56:49.461270
56.50127021,-6.93619442,-2.103291035,6.43549633,2024-06-04 14:56:49.501270
56.54127021,-6.93619442,-2.103291035,6.43549633,2024-06-04 14:56:49.541270
56.58127021,-6.93619442,-2.103291035,6.43549633,2024-06-04 14:56:49.581270
56.62127021,-6.95055151,-2.08534503,6.356533527,2024-06-04 14:56:49.621270
56.66127021,-7.030711174,-2.100898266,6.36251545,2024-06-04 14:56:49.661270
56.70127021,-7.030711174,-2.100898266,6.36251545,2024-06-04 14:56:49.701270
56.74127021,-7.030711174,-2.100898266,6.36251545,2024-06-04 14:56:49.741270
56.78127021,-7.030711174,-2.100898266,6.36251545,2024-06-04 14:56:49.781270
56.82127021,-7.030711174,-2.100898266,6.36251545,2024-06-04 14:56:49.821270
56.86127021,-7.030711174,-2.100898266,6.36251545,2024-06-04 14:56:49.861270
56.90127021,-7.030711174,-2.100898266,6.36251545,2024-06-04 14:56:49.901270
56.94127021,-6.954140663,-2.140379906,6.367300987,2024-06-04 14:56:49.941270
56.98127021,-6.954140663,-2.140379906,6.367300987,2024-06-04 14:56:49.981270
57.02127021,-6.954140663,-2.140379906,6.367300987,2024-06-04 14:56:50.021270
57.06127021,-6.954140663,-2.140379906,6.367300987,2024-06-04 14:56:50.061270
57.10127021,-6.954140663,-2.140379906,6.367300987,2024-06-04 14:56:50.101270
57.14127021,-6.954140663,-2.140379906,6.367300987,2024-06-04 14:56:50.141270
57.18127021,-6.996015072,-2.151147604,6.443871498,2024-06-04 14:56:50.181270
57.22127021,-6.996015072,-2.151147604,6.443871498,2024-06-04 14:56:50.221270
57.26127021,-6.996015072,-2.151147604,6.443871498,2024-06-04 14:56:50.261270
57.30127021,-6.996015072,-2.151147604,6.443871498,2024-06-04 14:56:50.301270
57.34127021,-6.996015072,-2.151147604,6.443871498,2024-06-04 14:56:50.341270
57.34127021,-6.944569588,-2.078166485,6.394818306,2024-06-04 14:56:50.341270
57.42127021,-6.992425919,-2.094916344,6.428318024,2024-06-04 14:56:50.421270
57.46127021,-6.992425919,-2.094916344,6.428318024,2024-06-04 14:56:50.461270
57.50127021,-6.992425919,-2.094916344,6.428318024,2024-06-04 14:56:50.501270
57.54127021,-6.992425919,-2.094916344,6.428318024,2024-06-04 14:56:50.541270
57.58127021,-6.992425919,-2.094916344,6.428318024,2024-06-04 14:56:50.581270
57.62127021,-6.992425919,-2.094916344,6.428318024,2024-06-04 14:56:50.621270
57.66127021,-6.992425919,-2.094916344,6.428318024,2024-06-04 14:56:50.661270
57.70127021,-6.992425919,-2.094916344,6.428318024,2024-06-04 14:56:50.701270
57.74127021,-6.992425919,-2.094916344,6.428318024,2024-06-04 14:56:50.741270
57.78127021,-6.992425919,-2.094916344,6.428318024,2024-06-04 14:56:50.781270
57.82127021,-6.992425919,-2.094916344,6.428318024,2024-06-04 14:56:50.821270
57.86127021,-6.992425919,-2.094916344,6.428318024,2024-06-04 14:56:50.861270
57.90127021,-6.992425919,-2.094916344,6.428318024,2024-06-04 14:56:50.901270
57.94127021,-6.992425919,-2.094916344,6.428318024,2024-06-04 14:56:50.941270
57.98127021,-6.992425919,-2.094916344,6.428318024,2024-06-04 14:56:50.981270
58.02127021,-6.992425919,-2.094916344,6.428318024,2024-06-04 14:56:51.021270
58.06127021,-6.992425919,-2.094916344,6.428318024,2024-06-04 14:56:51.061270
58.10127021,-0.1941177398,0.4061816335,3.144168854,2024-06-04 14:56:51.101270
58.14127021,-4.746761799,-1.468295813,5.588736534,2024-06-04 14:56:51.141270
58.18127021,-10.02383327,-4.537090778,7.570890903,2024-06-04 14:56:51.181270
58.22127021,-10.02383327,-4.537090778,7.570890903,2024-06-04 14:56:51.221270
58.26127021,-10.02383327,-4.537090778,7.570890903,2024-06-04 14:56:51.261270
58.30127021,-10.02383327,-4.537090778,7.570890903,2024-06-04 14:56:51.301270
58.34127021,-10.02383327,-4.537090778,7.570890903,2024-06-04 14:56:51.341270
58.38127021,-10.02383327,-4.537090778,7.570890903,2024-06-04 14:56:51.381270
58.42127021,-10.02383327,-4.537090778,7.570890903,2024-06-04 14:56:51.421270
58.46127021,-10.02383327,-4.537090778,7.570890903,2024-06-04 14:56:51.461270
58.50127021,-10.02383327,-4.537090778,7.570890903,2024-06-04 14:56:51.501270
58.54127021,-10.02383327,-4.537090778,7.570890903,2024-06-04 14:56:51.541270
58.58127021,-10.02383327,-4.537090778,7.570890903,2024-06-04 14:56:51.581270
58.62127021,-10.02383327,-4.537090778,7.570890903,2024-06-04 14:56:51.621270
58.66127021,-10.02383327,-4.537090778,7.570890903,2024-06-04 14:56:51.661270
58.70127021,-10.02383327,-4.537090778,7.570890903,2024-06-04 14:56:51.701270
58.74127021,-10.02383327,-4.537090778,7.570890903,2024-06-04 14:56:51.741270
58.78127021,-10.02383327,-4.537090778,7.570890903,2024-06-04 14:56:51.781270
58.82127021,-6.681059837,-1.94865489,6.515655994,2024-06-04 14:56:51.821270
58.86127021,-6.827321053,-1.913959026,6.506084919,2024-06-04 14:56:51.861270
58.90127021,-6.889534473,-2.018345833,6.541976929,2024-06-04 14:56:51.901270
58.94127021,-6.844070911,-2.081755638,6.58654356,2024-06-04 14:56:51.941270
58.98127021,-6.760023117,-2.142772675,6.532405853,2024-06-04 14:56:51.981270
59.02127021,-6.760023117,-2.142772675,6.532405853,2024-06-04 14:56:52.021270
59.06127021,-6.822236538,-2.222932339,6.632007122,2024-06-04 14:56:52.061270
59.10127021,-6.801897526,-2.11645174,6.560222149,2024-06-04 14:56:52.101270
59.14127021,-6.801897526,-2.11645174,6.560222149,2024-06-04 14:56:52.141270
59.18127021,-6.725327015,-2.087737799,6.59731102,2024-06-04 14:56:52.181270
59.22127021,-6.725327015,-2.087737799,6.59731102,2024-06-04 14:56:52.221270
59.26127021,-6.725327015,-2.087737799,6.59731102,2024-06-04 14:56:52.261270
59.30127021,-6.725327015,-2.087737799,6.59731102,2024-06-04 14:56:52.301270
59.34127021,-6.725327015,-2.087737799,6.59731102,2024-06-04 14:56:52.341270
59.38127021,-6.725327015,-2.087737799,6.59731102,2024-06-04 14:56:52.381270
59.42127021,-6.725327015,-2.087737799,6.59731102,2024-06-04 14:56:52.421270
59.46127021,-6.725327015,-2.087737799,6.59731102,2024-06-04 14:56:52.461270
59.50127021,-7.005586624,-2.021935225,6.504888535,2024-06-04 14:56:52.501270
59.54127021,-6.864409924,-2.133201361,6.647560596,2024-06-04 14:56:52.541270
59.58127021,-7.025925636,-2.019542217,6.429514408,2024-06-04 14:56:52.581270
59.62127021,-7.025925636,-2.019542217,6.429514408,2024-06-04 14:56:52.621270
59.66127021,-7.025925636,-2.019542217,6.429514408,2024-06-04 14:56:52.661270
59.70127021,-7.025925636,-2.019542217,6.429514408,2024-06-04 14:56:52.701270
59.74127021,-7.025925636,-2.019542217,6.429514408,2024-06-04 14:56:52.741270
59.78127021,-6.783951283,-2.056631088,6.430710793,2024-06-04 14:56:52.781270
59.82127021,-7.218846798,-2.14157629,6.451049805,2024-06-04 14:56:52.821270
59.86127021,-6.991229534,-2.037488461,6.482156754,2024-06-04 14:56:52.861270
59.90127021,-6.991229534,-2.037488461,6.482156754,2024-06-04 14:56:52.901270
59.94127021,-6.991229534,-2.037488461,6.482156754,2024-06-04 14:56:52.941270
59.98127021,-6.991229534,-2.037488461,6.482156754,2024-06-04 14:56:52.981270
60.02127021,-6.991229534,-2.037488461,6.482156754,2024-06-04 14:56:53.021270
60.06127021,-6.991229534,-2.037488461,6.482156754,2024-06-04 14:56:53.061270
60.10127021,-6.991229534,-2.037488461,6.482156754,2024-06-04 14:56:53.101270
60.14127021,-6.991229534,-2.037488461,6.482156754,2024-06-04 14:56:53.141270
60.18127021,-7.0151577,-2.079362869,6.387639999,2024-06-04 14:56:53.181270
60.22127021,-7.0151577,-2.079362869,6.387639999,2024-06-04 14:56:53.221270
60.26127021,-7.0151577,-2.079362869,6.387639999,2024-06-04 14:56:53.261270
60.30127021,-7.0151577,-2.079362869,6.387639999,2024-06-04 14:56:53.301270
60.34127021,-6.653542519,-2.152343988,6.46421051,2024-06-04 14:56:53.341270
60.38127021,-6.653542519,-2.152343988,6.46421051,2024-06-04 14:56:53.381270
60.42127021,-6.653542519,-2.152343988,6.46421051,2024-06-04 14:56:53.421270
60.46127021,-7.204489708,-2.242074728,6.48933506,2024-06-04 14:56:53.461270
60.50127021,-6.657131672,-1.929512382,6.366104603,2024-06-04 14:56:53.501270
60.54127021,-7.064210415,-2.176272154,6.655935287,2024-06-04 14:56:53.541270
60.58127021,-7.064210415,-2.176272154,6.655935287,2024-06-04 14:56:53.581270
60.62127021,-7.064210415,-2.176272154,6.655935287,2024-06-04 14:56:53.621270
60.66127021,-7.064210415,-2.176272154,6.655935287,2024-06-04 14:56:53.661270
60.70127021,-7.064210415,-2.176272154,6.655935287,2024-06-04 14:56:53.701270
60.74127021,-6.830910206,-2.170290232,6.59731102,2024-06-04 14:56:53.741270
60.74127021,-6.830910206,-2.170290232,6.59731102,2024-06-04 14:56:53.741270
60.82127021,-6.830910206,-2.170290232,6.59731102,2024-06-04 14:56:53.821270
60.86127021,-6.830910206,-2.170290232,6.59731102,2024-06-04 14:56:53.861270
60.90127021,-6.830910206,-2.170290232,6.59731102,2024-06-04 14:56:53.901270
60.94127021,-6.43549633,-2.209771633,7.243971348,2024-06-04 14:56:53.941270
60.98127021,-6.43549633,-2.209771633,7.243971348,2024-06-04 14:56:53.981270
61.02127021,-6.43549633,-2.209771633,7.243971348,2024-06-04 14:56:54.021270
61.06127021,-6.43549633,-2.209771633,7.243971348,2024-06-04 14:56:54.061270
61.10127021,-6.43549633,-2.209771633,7.243971348,2024-06-04 14:56:54.101270
61.14127021,-6.43549633,-2.209771633,7.243971348,2024-06-04 14:56:54.141270
61.18127021,-5.223531723,-2.161915302,7.338488102,2024-06-04 14:56:54.181270
61.22127021,-5.744269848,-2.43021059,7.374679565,2024-06-04 14:56:54.221270
61.26127021,-5.744269848,-2.43021059,7.374679565,2024-06-04 14:56:54.261270
61.30127021,-5.744269848,-2.43021059,7.374679565,2024-06-04 14:56:54.301270
61.34127021,-5.744269848,-2.43021059,7.374679565,2024-06-04 14:56:54.341270
61.38127021,-5.744269848,-2.43021059,7.374679565,2024-06-04 14:56:54.381270
61.42127021,-5.735895157,-2.877070189,6.634399891,2024-06-04 14:56:54.421270
61.46127021,-5.41136837,-3.536890984,6.786344051,2024-06-04 14:56:54.461270
61.50127021,-5.41136837,-3.536890984,6.786344051,2024-06-04 14:56:54.501270
61.54127021,-5.41136837,-3.536890984,6.786344051,2024-06-04 14:56:54.541270
61.58127021,-5.41136837,-3.536890984,6.786344051,2024-06-04 14:56:54.581270
