Time (s),Gyroscope x (rad/s),Gyroscope y (rad/s),Gyroscope z (rad/s),Datetime
0.147616617,-0.079493016,-0.9925308824,0.09693620354,2024-06-04 14:55:53.147617
0.188231045,-0.331553787,-1.222887516,-0.1487331539,2024-06-04 14:55:53.188231
0.228706565,-0.3744294047,-1.083874583,0.02236989327,2024-06-04 14:55:53.228707
0.26920193,-0.234617576,-1.180810809,0.1038602218,2024-06-04 14:55:53.269202
0.309663909,-0.4529903531,-1.623281956,-0.2113156021,2024-06-04 14:55:53.309664
0.350180107,-1.023289442,-0.5383421183,-0.1003982127,2024-06-04 14:55:53.350180
0.390683024,-1.014501333,0.5175700784,0.5955983996,2024-06-04 14:55:53.390683
0.431147138,-0.5347470045,-0.5593804717,1.05284965,2024-06-04 14:55:53.431147
0.471646201,-1.262966871,-1.705837488,1.795583367,2024-06-04 14:55:53.471646
0.512100211,-1.879869938,-2.166683912,2.060560226,2024-06-04 14:55:53.512100
0.552785784,-0.9167661667,-0.342605561,3.069069386,2024-06-04 14:55:53.552786
0.593239117,-0.2964010835,0.8912006021,3.38411212,2024-06-04 14:55:53.593239
0.633618388,1.737794518,-1.009042025,0.3203688264,2024-06-04 14:55:53.633618
0.674136982,2.359091759,-1.260170698,-1.088934422,2024-06-04 14:55:53.674137
0.714602347,1.315962195,-0.2406095117,0.2106498331,2024-06-04 14:55:53.714602
0.755078076,1.040466309,0.02503297664,0.3880111277,2024-06-04 14:55:53.755078
0.795594065,1.099586844,-1.033542395,0.04607132822,2024-06-04 14:55:53.795594
0.836132867,0.2214353085,1.034208059,0.2932053804,2024-06-04 14:55:53.836133
0.876530524,-0.3677717149,1.33526957,0.8861407042,2024-06-04 14:55:53.876531
0.917026409,-0.4497946501,-0.2299571782,0.3635107577,2024-06-04 14:55:53.917026
0.95754469,-0.2362154275,0.08415340632,0.5852124095,2024-06-04 14:55:53.957545
0.998028805,-0.8619066477,1.537663817,1.397053123,2024-06-04 14:55:53.998029
1.03849542,-1.342992544,0.3414071798,1.382406116,2024-06-04 14:55:54.038495
1.078878701,-1.098388433,0.7266221046,2.557890892,2024-06-04 14:55:54.078879
1.119418492,-1.77467823,1.926340818,3.612205267,2024-06-04 14:55:54.119418
1.159984586,-1.771482468,0.5418041348,3.230984926,2024-06-04 14:55:54.159985
1.200494013,-0.5419372916,-1.354310632,4.11925602,2024-06-04 14:55:54.200494
1.241012815,-0.537676394,-0.2347507328,4.144289017,2024-06-04 14:55:54.241013
1.281414534,-0.5730953813,-0.3396761715,3.150826216,2024-06-04 14:55:54.281415
1.321935836,-0.4777570069,0.6688331962,2.179333687,2024-06-04 14:55:54.321936
1.362378076,-0.5246272683,1.086937189,1.340329409,2024-06-04 14:55:54.362378
1.402910159,0.1527277827,-0.2264951766,-1.314763904,2024-06-04 14:55:54.402910
1.44326943,1.427279115,-1.248186827,-1.525280595,2024-06-04 14:55:54.443269
1.483766045,0.736874938,-0.6507242322,-0.5021241903,2024-06-04 14:55:54.483766
1.524281617,0.2254299372,-0.4182371199,-0.2930722237,2024-06-04 14:55:54.524282
1.564762034,0.356187284,-0.056723658,-0.3351489305,2024-06-04 14:55:54.564762
1.605233232,-0.2729659677,0.579886198,-0.511977613,2024-06-04 14:55:54.605233
1.645378336,-0.07629731297,-0.7296846509,-0.7320814133,2024-06-04 14:55:54.645378
1.68628818,0.3306216896,-1.945648074,-0.3655080795,2024-06-04 14:55:54.686288
1.726716461,0.7504566908,0.006924014539,-0.1067896113,2024-06-04 14:55:54.726716
1.767203284,0.9664326906,1.74312067,0.1307573467,2024-06-04 14:55:54.767203
1.807698805,1.728207469,2.706757069,-0.252060771,2024-06-04 14:55:54.807699
1.848201565,1.709832191,2.055233955,-0.6661701202,2024-06-04 14:55:54.848202
1.888324899,0.9725577235,1.166962743,-0.5679023266,2024-06-04 14:55:54.888325
1.929159586,-0.7897371054,1.283073187,-0.4371449947,2024-06-04 14:55:54.929160
1.96968818,-1.769085765,1.295589685,0.5713643432,2024-06-04 14:55:54.969688
2.010163336,-1.710764289,2.393578529,0.09347419441,2024-06-04 14:55:55.010163
2.05064443,-1.602110505,-0.3737636507,0.02742975019,2024-06-04 14:55:55.050644
2.091146722,-0.6434007287,-2.160558939,-0.2390116602,2024-06-04 14:55:55.091147
2.131552659,-1.139932513,-3.107950449,1.198919773,2024-06-04 14:55:55.131553
2.172170888,-1.308106184,-2.674933195,1.737528205,2024-06-04 14:55:55.172171
2.212603024,-0.8768199086,-1.866687775,1.475880384,2024-06-04 14:55:55.212603
2.253153961,-0.8246235251,-0.1022623703,0.0007989247679,2024-06-04 14:55:55.253154
2.293570732,-0.5334154367,2.383458853,-1.107842326,2024-06-04 14:55:55.293571
2.334064742,0.8814803362,2.813812971,-0.8489907384,2024-06-04 14:55:55.334065
2.37446818,0.07177007198,2.550434113,-0.7967942953,2024-06-04 14:55:55.374468
2.415099638,-0.222367391,1.667089701,-0.7557828426,2024-06-04 14:55:55.415100
2.455550524,-0.6021229625,0.3190372884,-0.8266208172,2024-06-04 14:55:55.455551
2.496051774,-0.790536046,0.7346113324,-0.6134410501,2024-06-04 14:55:55.496052
2.536544065,-0.546730876,1.463363886,-0.3047898114,2024-06-04 14:55:55.536544
2.577008857,0.0957378149,2.756556749,0.05832150951,2024-06-04 14:55:55.577009
2.617412659,-0.7894708514,5.902855873,0.6611102223,2024-06-04 14:55:55.617413
2.657840263,-0.8022536039,2.417279959,0.1203713343,2024-06-04 14:55:55.657840
2.698488649,-0.05499265343,0.1991985738,0.02583190054,2024-06-04 14:55:55.698489
2.73897068,-0.4197018147,-0.7077142,0.3049229383,2024-06-04 14:55:55.738971
2.779458232,-0.7657693624,-0.7435326576,0.3864132762,2024-06-04 14:55:55.779458
2.819950211,-0.5507254601,-0.1378145218,0.5292876363,2024-06-04 14:55:55.819950
2.860357295,-0.1217028722,-0.2834851444,0.6792191863,2024-06-04 14:55:55.860357
2.900762503,-0.1374150664,-0.8180989623,-0.1974675655,2024-06-04 14:55:55.900763
2.941407138,-0.1858831644,-0.2326202542,-0.7914681435,2024-06-04 14:55:55.941407
2.981839795,0.3892095089,-0.4914718866,-0.9200950265,2024-06-04 14:55:55.981840
3.022432659,0.834610045,0.3448691964,-0.9406007528,2024-06-04 14:55:56.022433
3.062921513,0.8508548737,1.311834455,-0.9166330099,2024-06-04 14:55:56.062922
3.103389951,0.3223661482,0.5708317757,-0.4262263775,2024-06-04 14:55:56.103390
3.143883701,0.62049824,0.8192973733,-0.9965254664,2024-06-04 14:55:56.143884
3.184370732,1.330076575,1.205044866,-1.573216081,2024-06-04 14:55:56.184371
3.224850888,1.432338953,0.7204970121,-0.9472584724,2024-06-04 14:55:56.224851
3.265342242,-0.46018067,0.8192973733,-0.9749545455,2024-06-04 14:55:56.265342
3.305825888,-0.83314538,0.7125077248,-1.002384305,2024-06-04 14:55:56.305826
3.346309534,-0.5549864173,0.6091801524,-1.038069606,2024-06-04 14:55:56.346310
3.386798545,-0.05392742157,0.8499227762,-1.124087095,2024-06-04 14:55:56.386799
3.427295732,-0.9609733224,1.295323372,-0.9653674364,2024-06-04 14:55:56.427296
3.467768701,-1.559767485,1.073888063,-0.3383446336,2024-06-04 14:55:56.467769
3.508269638,-1.030213475,1.8507092,-0.4102478623,2024-06-04 14:55:56.508270
3.548758128,0.3436708152,2.322207928,-0.4198349714,2024-06-04 14:55:56.548758
3.589242555,1.740058184,1.342992544,0.8786841035,2024-06-04 14:55:56.589243
3.62962818,0.7517881989,1.175750971,2.439383507,2024-06-04 14:55:56.629628
3.670203961,-0.1222354919,0.2402100414,0.573228538,2024-06-04 14:55:56.670204
3.710752867,0.9954602718,-1.231409431,0.1035939083,2024-06-04 14:55:56.710753
3.751184638,0.9429975152,-0.7218285203,0.5655055642,2024-06-04 14:55:56.751185
3.791660055,1.743253827,0.6480611563,0.1150451675,2024-06-04 14:55:56.791660
3.832160992,3.55441618,1.575479627,0.09933298081,2024-06-04 14:55:56.832161
3.872552347,1.891321182,1.44951582,-0.06284874678,2024-06-04 14:55:56.872552
3.913155003,0.3479317427,-0.7149044871,-1.332207084,2024-06-04 14:55:56.913155
3.953631982,0.8183652759,-1.411034346,-1.242594361,2024-06-04 14:55:56.953632
3.994142242,-0.6268896461,0.128626883,-0.05805519968,2024-06-04 14:55:56.994142
4.034630628,-0.4551208019,2.257628202,-1.438197732,2024-06-04 14:55:57.034631
4.075112972,-1.202514887,1.000653267,-1.48932898,2024-06-04 14:55:57.075113
4.115596357,-2.199839354,0.327026546,-0.861507237,2024-06-04 14:55:57.115596
4.156084326,-2.209426403,1.868285537,-2.270277977,2024-06-04 14:55:57.156084
4.196638753,-1.756569266,2.027537823,-2.205564976,2024-06-04 14:55:57.196639
4.23707443,-2.746170759,-0.3167736828,0.3169068098,2024-06-04 14:55:57.237074
4.27754818,-1.061904192,0.7796174288,-0.1335535944,2024-06-04 14:55:57.277548
4.318029117,-0.7599105835,-0.8481917977,1.307307243,2024-06-04 14:55:57.318029
4.35853792,1.067363501,-1.105445623,1.819018483,2024-06-04 14:55:57.358538
4.399003076,1.391061187,-0.7882724404,1.454841971,2024-06-04 14:55:57.399003
4.439494378,0.3993292153,-2.10862875,1.562963128,2024-06-04 14:55:57.439494
4.480001722,0.9872047305,-1.361500978,1.357373238,2024-06-04 14:55:57.480002
4.520539378,1.242993832,-1.409170151,1.436999321,2024-06-04 14:55:57.520539
4.56102917,0.904915452,-0.7053174376,0.5910711884,2024-06-04 14:55:57.561029
4.601425576,0.3162410557,-0.1308905035,-0.9355409145,2024-06-04 14:55:57.601426
4.641816513,0.672162056,0.3906742036,-1.540193796,2024-06-04 14:55:57.641817
4.68237292,0.9150351882,-0.742733717,-2.548170567,2024-06-04 14:55:57.682373
4.722764742,1.447252274,0.3794892728,-1.678407788,2024-06-04 14:55:57.722765
4.763380367,1.294923902,0.137681365,-0.6970618367,2024-06-04 14:55:57.763380
4.803772242,0.3617797792,0.9623048902,-0.7773538232,2024-06-04 14:55:57.803772
4.844357399,0.08748225868,0.3914731443,-0.03355484083,2024-06-04 14:55:57.844357
4.884749274,0.3814865649,-0.9131709933,-0.4949339032,2024-06-04 14:55:57.884749
4.925323961,-0.1509967744,-1.197854519,-0.7299509048,2024-06-04 14:55:57.925324
4.965831982,-0.1336867511,-0.8820129633,0.1834863871,2024-06-04 14:55:57.965832
5.006322763,0.4749607742,0.07030537724,0.6754909158,2024-06-04 14:55:58.006323
5.04678344,0.7435326576,0.9862726331,0.8864070177,2024-06-04 14:55:58.046783
5.087282867,0.5339480639,0.9210271239,0.6547188759,2024-06-04 14:55:58.087283
5.127774899,0.2073209733,0.4718982279,0.3752283454,2024-06-04 14:55:58.127775
5.168273232,0.09760197252,0.03861469775,0.1384802908,2024-06-04 14:55:58.168273
5.208758232,-0.03368799388,0.4394086301,-0.1119826213,2024-06-04 14:55:58.208758
5.249251617,0.08162347972,0.7274209857,-0.4962654412,2024-06-04 14:55:58.249252
5.289743597,0.3167736828,0.8062482476,-0.6744256616,2024-06-04 14:55:58.289744
5.330199638,0.7954627872,0.6318163276,-0.5295539498,2024-06-04 14:55:58.330200
5.370728128,0.7102441192,0.4844147265,-0.6041202545,2024-06-04 14:55:58.370728
5.411226826,0.1239664927,0.327026546,-0.5990604162,2024-06-04 14:55:58.411227
5.451696461,0.6181014776,0.8762873411,-0.8764204979,2024-06-04 14:55:58.451696
5.492151097,0.5973294377,0.2503297627,-1.365495563,2024-06-04 14:55:58.492151
5.532562607,-0.8680317402,-1.119826198,0.3336842358,2024-06-04 14:55:58.532563
5.573048076,-0.1438064575,-0.2334191799,-0.4323514402,2024-06-04 14:55:58.573048
5.613607451,-0.5216978788,-0.570032835,-0.9757534266,2024-06-04 14:55:58.613607
5.654085576,-0.8643034697,-0.4504604042,-1.965088606,2024-06-04 14:55:58.654086
5.694623805,-0.7223611474,-0.7231600881,-2.436454296,2024-06-04 14:55:58.694624
5.735108961,-0.4149082601,-0.391073674,-1.673880577,2024-06-04 14:55:58.735109
5.775578545,-0.1840189993,-0.1572550237,-0.5101134777,2024-06-04 14:55:58.775579
5.816076513,-0.1922745556,-0.07216953486,0.07190322876,2024-06-04 14:55:58.816077
5.85656318,-0.2450035959,0.02902759984,0.01384802908,2024-06-04 14:55:58.856563
5.897021878,-0.3374125659,-0.2509955168,0.2229000032,2024-06-04 14:55:58.897022
5.937546409,-0.2551233172,-0.2089188248,0.199731186,2024-06-04 14:55:58.937546
5.978041201,-0.02303566411,-0.2099840641,0.2474003732,2024-06-04 14:55:58.978041
6.018507295,0.2017285079,0.003994623665,0.3169068098,2024-06-04 14:55:59.018507
6.059008128,0.4113130867,0.02742975019,0.4045222402,2024-06-04 14:55:59.059008
6.099505524,0.5640408993,0.08921326697,0.4314193726,2024-06-04 14:55:59.099506
6.139981774,0.562443018,0.1629806459,0.340608269,2024-06-04 14:55:59.139982
6.180498024,0.5765573978,-0.09187635034,0.296667397,2024-06-04 14:55:59.180498
6.22099667,0.5981283188,0.00798924733,0.3171731234,2024-06-04 14:55:59.220997
6.261439847,0.5997262001,-0.137015596,0.443403244,2024-06-04 14:55:59.261440
6.301914951,0.5483286977,-0.4797543287,0.4990616739,2024-06-04 14:55:59.301915
6.342459795,0.6165035963,-0.7573806643,0.6829475164,2024-06-04 14:55:59.342460
6.382947659,0.6231613159,-0.9672315717,0.9425980449,2024-06-04 14:55:59.382948
6.423414586,0.5832150578,-0.767234087,1.030746102,2024-06-04 14:55:59.423415
6.463898024,0.544334054,-0.7234264016,1.011039257,2024-06-04 14:55:59.463898
6.50438594,0.6426018476,-0.8127728105,1.037403822,2024-06-04 14:55:59.504386
6.544875784,0.5178363919,-0.7765548825,1.035805941,2024-06-04 14:55:59.544876
6.585365992,0.2968005538,-0.5383421183,0.8648360372,2024-06-04 14:55:59.585366
6.625824795,0.2179733068,-0.4222317338,0.6214303374,2024-06-04 14:55:59.625825
6.666317451,0.2789579034,-0.1335535944,0.8224930763,2024-06-04 14:55:59.666317
6.706829378,0.2235657871,-0.1471353173,0.7678998709,2024-06-04 14:55:59.706829
6.747310315,0.0384815447,-0.05459319428,0.6230281591,2024-06-04 14:55:59.747310
6.787800263,-0.2330197245,0.2644441128,0.3776251078,2024-06-04 14:55:59.787800
6.82828068,-0.5235620141,0.336081028,0.03009283356,2024-06-04 14:55:59.828281
6.868736513,-0.6423355341,0.5780220628,-0.3042571843,2024-06-04 14:55:59.868737
6.90924693,-0.7362091541,0.7284862399,-0.6296858788,2024-06-04 14:55:59.909247
6.949784742,-0.6970618367,0.7732260227,-0.9512531161,2024-06-04 14:55:59.949785
6.990264222,-0.8762873411,1.094127417,-1.18240869,2024-06-04 14:55:59.990264
7.030767399,-0.7828131318,1.115831614,-1.140864611,2024-06-04 14:56:00.030767
7.07124792,-0.6029219031,0.7359428406,-1.351647496,2024-06-04 14:56:00.071248
7.111699638,-0.4644415975,0.2335523367,-1.443523884,2024-06-04 14:56:00.111700
7.152160211,-0.478289634,0.139012903,-1.221289635,2024-06-04 14:56:00.152160
7.192618701,-0.5113118291,0.04846810177,-1.107309699,2024-06-04 14:56:00.192619
7.233163076,-0.5978620052,0.2647103965,-0.9856068492,2024-06-04 14:56:00.233163
7.273663024,-0.5177032351,0.1432738453,-0.9214265943,2024-06-04 14:56:00.273663
7.314141461,-0.1368824393,-0.018907886,-0.6584471464,2024-06-04 14:56:00.314141
7.354627399,-0.01025286783,0.04260931909,-0.5117112994,2024-06-04 14:56:00.354627
7.39511844,-0.0685743764,0.1493989378,-0.4589822888,2024-06-04 14:56:00.395118
7.435607867,-0.05019910634,-0.1620485783,-0.2408758104,2024-06-04 14:56:00.435608
7.476118753,-0.03422060981,-0.1862826198,-0.08015878499,2024-06-04 14:56:00.476119
7.516569326,0.1135804728,-0.009587096982,-0.06231613085,2024-06-04 14:56:00.516569
7.557093597,0.1982664913,0.294803232,0.08841434121,2024-06-04 14:56:00.557094
7.597564065,0.511977613,0.4242290556,0.3099828064,2024-06-04 14:56:00.597564
7.638026982,0.6580476761,0.05752258375,0.4378107786,2024-06-04 14:56:00.638027
7.678551722,0.3479317427,-0.1126483902,0.4910724163,2024-06-04 14:56:00.678552
7.71903167,0.4600475132,-0.1721682847,0.5279561281,2024-06-04 14:56:00.719032
7.759520524,0.4262263775,-0.1242327988,0.6296858788,2024-06-04 14:56:00.759521
7.800013961,0.3721657991,-0.167374745,0.7596443295,2024-06-04 14:56:00.800014
7.840559378,0.5616441369,-0.411046803,0.9149020314,2024-06-04 14:56:00.840559
7.880970992,0.6375419497,-0.4177044928,1.188800097,2024-06-04 14:56:00.880971
7.921492711,0.6015903354,-0.2557890713,1.124353409,2024-06-04 14:56:00.921493
7.96192068,0.6085143685,-0.4917382002,0.9247553945,2024-06-04 14:56:00.961921
8.002459795,0.6463301182,-0.575891614,0.918630302,2024-06-04 14:56:01.002460
8.042986774,0.6141068339,-0.6965292692,0.9394024014,2024-06-04 14:56:01.042987
8.083393753,0.7501903772,-0.8266208172,0.9167661667,2024-06-04 14:56:01.083394
8.123887503,0.8814803362,-0.810642302,0.6778876781,2024-06-04 14:56:01.123888
8.164390107,0.9003882408,-0.1969349533,0.5987941027,2024-06-04 14:56:01.164390
8.204896722,0.7083799839,0.154458791,0.3744294047,2024-06-04 14:56:01.204897
8.245365784,0.3114475012,0.2026605755,0.133154124,2024-06-04 14:56:01.245366
8.285865263,-0.2801562846,0.1640458852,-0.1466026902,2024-06-04 14:56:01.285865
8.326335211,-0.7029206157,0.2940043211,-0.3900084496,2024-06-04 14:56:01.326335
8.366854951,-0.9591091871,0.5316844583,-0.6344794035,2024-06-04 14:56:01.366855
8.407300211,-1.085605621,0.5900059342,-0.8505885601,2024-06-04 14:56:01.407300
8.447812242,-1.189732075,0.6507242322,-1.081744194,2024-06-04 14:56:01.447812
8.488292451,-1.188134313,0.7279536128,-1.22395277,2024-06-04 14:56:01.488292
8.528783545,-1.049654007,0.5356790423,-1.268159866,2024-06-04 14:56:01.528784
8.569285732,-0.8366073966,0.2279598713,-1.260170698,2024-06-04 14:56:01.569286
8.609755211,-0.6846785545,0.1600512564,-1.325283051,2024-06-04 14:56:01.609755
8.650228232,-0.586943388,0.142208606,-1.164033413,2024-06-04 14:56:01.650228
8.69078469,-0.4881430268,0.1227681041,-1.011971354,2024-06-04 14:56:01.690785
8.731235784,-0.7335460782,0.02716344222,-0.8700290918,2024-06-04 14:56:01.731236
8.771707972,-0.7756227851,-0.1335535944,-0.4914718866,2024-06-04 14:56:01.771708
8.812146774,-0.5235620141,-0.08255556226,-0.1868152469,2024-06-04 14:56:01.812147
8.852645055,-0.4047885537,0.1595186442,0.04846810177,2024-06-04 14:56:01.852645
8.893148388,-0.2793573737,-0.1258306503,0.3075860441,2024-06-04 14:56:01.893148
8.933695628,-0.008655018173,0.1203713343,0.5391410589,2024-06-04 14:56:01.933696
8.97419292,0.2890776098,0.5705654621,0.7580464482,2024-06-04 14:56:01.974193
9.014656774,0.4571181238,0.1352845877,0.4913387299,2024-06-04 14:56:02.014657
9.055124117,0.2986647189,-0.1213034093,0.107588537,2024-06-04 14:56:02.055124
9.095625315,0.2296908647,0.1560566425,-0.05565842614,2024-06-04 14:56:02.095625
9.136128076,0.4022586346,0.03142437339,0.1123820841,2024-06-04 14:56:02.136128
9.17661068,0.7456631064,0.07749570161,0.8256887197,2024-06-04 14:56:02.176611
9.217095628,0.8740236759,0.1517957002,1.173354149,2024-06-04 14:56:02.217096
9.257570472,1.038602233,-0.1001319066,1.176549911,2024-06-04 14:56:02.257570
9.298063857,0.8726921678,-0.162847504,0.9726908803,2024-06-04 14:56:02.298064
9.33855594,0.9382039905,-0.4137098789,0.9753540158,2024-06-04 14:56:02.338556
9.379045315,1.018096447,-0.6730940938,0.988935709,2024-06-04 14:56:02.379045
9.419541617,1.045526266,-0.84020257,1.137136221,2024-06-04 14:56:02.419542
9.460016149,1.011971354,-0.7318150997,0.8685643673,2024-06-04 14:56:02.460016
9.500512295,0.9520519972,-0.4536561072,0.5053198934,2024-06-04 14:56:02.500512
9.541034065,0.5079829693,0.1496652365,0.3906742036,2024-06-04 14:56:02.541034
9.581460211,0.2997299433,0.2591179311,0.451126188,2024-06-04 14:56:02.581460
9.621908388,-0.01398118306,0.1504641622,0.1017297506,2024-06-04 14:56:02.621908
9.662448128,-0.2271609455,0.1097190008,-0.3111811876,2024-06-04 14:56:02.662448
9.702971149,-0.3773587942,0.2434057444,-0.5476629138,2024-06-04 14:56:02.702971
9.743448649,-0.4940018058,0.4167724252,-0.7208964229,2024-06-04 14:56:02.743449
9.783929222,-0.5664376616,0.93407619,-1.097190022,2024-06-04 14:56:02.783929
9.824420107,-0.4260932207,0.8959941268,-1.215164542,2024-06-04 14:56:02.824420
9.864837295,-0.3757609427,0.5157059431,-1.418224573,2024-06-04 14:56:02.864837
9.905354065,-0.3533910513,0.2484655976,-1.672549009,2024-06-04 14:56:02.905354
9.945847763,-0.3456681073,0.05299534276,-1.513562918,2024-06-04 14:56:02.945848
9.98632344,-0.4255605936,-0.1615159512,-1.41795826,2024-06-04 14:56:02.986323
10.0268324,-0.5768237114,0.07935985923,-1.396387339,2024-06-04 14:56:03.026832
10.06732214,-0.8291507363,-0.2499302924,-1.150185347,2024-06-04 14:56:03.067322
10.10784724,-0.9519188404,-0.363910228,-1.021824837,2024-06-04 14:56:03.107847
10.14832813,-0.769231379,-0.2107829899,-0.6179683208,2024-06-04 14:56:03.148328
10.18881651,-0.6330147386,-0.2318213433,-0.2672403455,2024-06-04 14:56:03.188817
10.22930011,-0.458316505,-0.418769747,-0.09933298081,2024-06-04 14:56:03.229300
10.26977844,-0.1083874628,-0.1532603949,0.2021279633,2024-06-04 14:56:03.269778
10.31026526,0.221701622,-0.1697715074,0.4809527099,2024-06-04 14:56:03.310265
10.35077896,0.4784227908,-0.1982664913,0.5324833393,2024-06-04 14:56:03.350779
10.3912512,0.5485950112,0.195203945,0.4500609636,2024-06-04 14:56:03.391251
10.43175,0.5157059431,0.08362079412,0.4902735054,2024-06-04 14:56:03.431750
10.4721875,0.5432688594,0.001065233024,0.6288869381,2024-06-04 14:56:03.472188
10.51273782,0.5010589957,0.05938674137,0.8738905191,2024-06-04 14:56:03.512738
10.55321328,0.5621767044,0.02423405088,0.9774844646,2024-06-04 14:56:03.553213
10.59366334,0.5754921436,-0.1892120093,1.078415275,2024-06-04 14:56:03.593663
10.63414334,0.4414059222,-0.1332872808,1.178680301,2024-06-04 14:56:03.634143
10.67466995,0.5488613248,-0.2808220685,1.245257378,2024-06-04 14:56:03.674670
10.71513261,0.5464645624,-0.5636414289,1.303312659,2024-06-04 14:56:03.715133
10.75565021,0.6793523431,-0.7608426809,1.228479981,2024-06-04 14:56:03.755650
10.79613943,0.6231613159,-0.6366099119,1.100252509,2024-06-04 14:56:03.796139
10.83661808,0.4560528994,-0.3026593328,1.014767647,2024-06-04 14:56:03.836618
10.87709985,0.4741618633,-0.2672403455,0.8134385943,2024-06-04 14:56:03.877100
10.91763089,0.4059869349,0.1035939083,0.479621172,2024-06-04 14:56:03.917631
10.95810131,0.1053249165,0.2412752807,0.07430000603,2024-06-04 14:56:03.958101
10.99853802,-0.08841434121,0.1973344237,-0.1812227666,2024-06-04 14:56:03.998538
11.03902771,-0.3746957183,0.3901416063,-0.5481955409,2024-06-04 14:56:04.039028
11.07955584,-0.5973294377,0.7069152594,-0.9168993235,2024-06-04 14:56:04.079556
11.11999016,-0.6607108116,0.8043841124,-1.170424819,2024-06-04 14:56:04.119990
11.16056167,-0.5978620052,0.6813496947,-1.279078603,2024-06-04 14:56:04.160562
11.20104464,-0.5776225924,0.5692338943,-1.428876996,2024-06-04 14:56:04.201045
11.24143474,-0.4801537991,0.3232982159,-1.648048639,2024-06-04 14:56:04.241435
11.28194026,-0.5075835586,0.04926702753,-1.75643611,2024-06-04 14:56:04.281940
11.32242381,-0.7007901669,0.1352845877,-1.770816803,2024-06-04 14:56:04.322424
11.36297058,-0.8488575816,0.139012903,-1.462431788,2024-06-04 14:56:04.362971
11.40342365,-0.921826005,-0.00186415785,-0.9200950265,2024-06-04 14:56:04.403424
11.44394006,-0.9287500381,0.03462007269,-0.4643084407,2024-06-04 14:56:04.443940
11.48443542,-0.7332797647,-0.2509955168,-0.1271621883,2024-06-04 14:56:04.484435
11.52491344,-0.2793573737,-0.3023930192,0.1137136221,2024-06-04 14:56:04.524913
11.56542282,0.05632419512,-0.1022623703,0.2276935577,2024-06-04 14:56:04.565423
11.60588037,0.1367492825,0.1659100503,0.2468677461,2024-06-04 14:56:04.605880
11.64636386,0.1074553803,-0.06657706201,0.31024912,2024-06-04 14:56:04.646364
11.68686276,0.151928857,-0.1692388952,0.3549889028,2024-06-04 14:56:04.686863
11.72732776,0.4296883643,0.006657706574,0.441539079,2024-06-04 14:56:04.727328
11.76783933,0.6212971807,0.07989247888,0.6272891164,2024-06-04 14:56:04.767839
11.80832823,0.6338136196,0.2551233172,0.8850755095,2024-06-04 14:56:04.808328
11.8488273,0.6122426987,0.09480573982,1.060306311,2024-06-04 14:56:04.848827
11.88931302,0.5989272594,0.00798924733,0.9330109954,2024-06-04 14:56:04.889313
11.92979667,0.6471290588,-0.3378120363,0.9407339096,2024-06-04 14:56:04.929797
11.97028078,0.8801487684,-0.4920045137,1.047257185,2024-06-04 14:56:04.970281
12.01076417,1.088135481,-0.8082455397,1.17495203,2024-06-04 14:56:05.010764
12.05122266,1.104912996,-0.7390053868,1.199186087,2024-06-04 14:56:05.051223
12.09168636,0.9467258453,-0.7584459186,0.9966586232,2024-06-04 14:56:05.091686
12.13221495,0.7017222643,-0.551923871,0.7162360549,2024-06-04 14:56:05.132215
12.17275037,0.4283568263,-0.2400768995,0.5346138477,2024-06-04 14:56:05.172750
12.21321532,0.1521951705,0.01970681176,0.3975982368,2024-06-04 14:56:05.213215
12.25369474,-0.0464707911,0.2926727831,0.1126483902,2024-06-04 14:56:05.253695
12.29417162,-0.4173050225,0.5410051942,-0.3263607621,2024-06-04 14:56:05.294172
12.33466339,-0.629552722,0.5676360726,-0.6690995097,2024-06-04 14:56:05.334663
12.37514297,-0.7572475076,0.6797518134,-0.9573782086,2024-06-04 14:56:05.375143
12.41562782,-0.8198299408,0.8073135018,-1.205577493,2024-06-04 14:56:05.415628
12.4561123,-0.7508561015,0.8507217169,-1.326081991,2024-06-04 14:56:05.456112
12.49662094,-0.672162056,0.6139736772,-1.311568141,2024-06-04 14:56:05.496621
12.53710146,-0.5491276383,0.2623136342,-1.355375886,2024-06-04 14:56:05.537101
12.57757709,-0.5555190444,0.1424749196,-1.455241442,2024-06-04 14:56:05.577577
12.61807417,-0.5091813803,0.07802832127,-1.351381302,2024-06-04 14:56:05.618074
12.65855735,-0.4500609636,0.07190322876,-1.285470009,2024-06-04 14:56:05.658557
12.69904203,-0.4010602236,0.09453943372,-0.8955946565,2024-06-04 14:56:05.699042
12.73953011,-0.2495308369,-0.2587184608,-0.5015916228,2024-06-04 14:56:05.739530
12.78000761,-0.2085193694,-0.2280930281,-0.2440715134,2024-06-04 14:56:05.780008
12.82051016,-0.05978620425,-0.1601844132,0.04766917601,2024-06-04 14:56:05.820510
12.86103563,0.02809552103,-0.1796249151,0.116643019,2024-06-04 14:56:05.861036
12.9014586,-0.122501798,-0.160983339,0.158986032,2024-06-04 14:56:05.901459
12.94196339,0.1122489274,-0.1086537689,0.3560541272,2024-06-04 14:56:05.941963
12.98241855,0.4541887343,-0.2669740319,0.5228962898,2024-06-04 14:56:05.982419
13.02297938,0.5576494932,-0.3284912407,0.7183665037,2024-06-04 14:56:06.022979
13.06346422,0.4653736651,-0.1665758193,0.9138367772,2024-06-04 14:56:06.063464
13.10393948,0.3444697261,0.08548495173,1.214898229,2024-06-04 14:56:06.103939
13.14441203,0.3977313936,-0.01757634431,0.9918650985,2024-06-04 14:56:06.144412
13.18489584,0.5435351729,-0.1057243794,1.078681588,2024-06-04 14:56:06.184896
13.22539646,0.7661688328,-0.2850829959,1.233007193,2024-06-04 14:56:06.225396
13.265895,0.9019860625,-0.6211640239,1.207974195,2024-06-04 14:56:06.265895
13.30637506,1.042863131,-0.7125077248,1.054447532,2024-06-04 14:56:06.306375
13.34685818,1.038868546,-0.6810833812,0.9532504082,2024-06-04 14:56:06.346858
13.38734224,0.8308817744,-0.4264926612,0.8696296215,2024-06-04 14:56:06.387342
13.42782568,0.4858794212,0.06311506033,0.7375407219,2024-06-04 14:56:06.427826
13.4683136,0.2097177505,0.04314193875,0.3443365693,2024-06-04 14:56:06.468314
13.50879891,-0.2125139832,0.4591154456,-0.1380808353,2024-06-04 14:56:06.508799
13.54928016,-0.4671046734,0.7583127618,-0.5479292274,2024-06-04 14:56:06.549280
13.58977886,-0.6034545302,0.9133041501,-0.9014534354,2024-06-04 14:56:06.589779
13.63027219,-0.826753974,0.9388697743,-1.309171438,2024-06-04 14:56:06.630272
13.67078792,-0.8216941357,0.9569787383,-1.633667946,2024-06-04 14:56:06.670788
13.71124532,-0.8557815552,0.5868102312,-1.576944351,2024-06-04 14:56:06.711245
13.75170464,-0.6828143597,0.2684387267,-1.392392755,2024-06-04 14:56:06.751705
13.7921888,-0.5880086422,0.06977276504,-1.566025734,2024-06-04 14:56:06.792189
13.8326748,-0.427957356,-0.07536523789,-1.600912094,2024-06-04 14:56:06.832675
13.87322099,-0.447930485,-0.1150451675,-1.47814393,2024-06-04 14:56:06.873221
13.91370938,-0.4364792407,-0.1580539495,-0.9041165113,2024-06-04 14:56:06.913709
13.95418714,-0.6854774356,-0.357518822,-0.573228538,2024-06-04 14:56:06.954187
13.99466375,-0.7649704814,-0.1153114736,-0.3207682967,2024-06-04 14:56:06.994664
14.03516276,-0.4932028949,-0.1207707971,-0.1820216924,2024-06-04 14:56:07.035163
14.07562318,-0.2732322812,-0.2853493094,-0.0149132628,2024-06-04 14:56:07.075623
14.11611558,0.2315550297,-0.367105931,0.301194638,2024-06-04 14:56:07.116116
14.15663448,0.6138405204,-0.01970681176,0.5647066832,2024-06-04 14:56:07.156634
14.19711724,0.813039124,0.1400781423,0.6584471464,2024-06-04 14:56:07.197117
14.23758339,0.9517856836,0.1872147024,0.805449307,2024-06-04 14:56:07.237583
14.27809047,0.9235570431,0.02742975019,1.122755647,2024-06-04 14:56:07.278090
14.31857844,0.7850767374,-0.08282186836,1.110771775,2024-06-04 14:56:07.318578
14.35906224,0.8391373158,-0.3631113172,1.09439373,2024-06-04 14:56:07.359062
14.39954078,0.7432663441,-0.1964023411,1.212767839,2024-06-04 14:56:07.399541
14.44002813,0.7243584394,-0.4339492917,1.45990181,2024-06-04 14:56:07.440028
14.48057453,0.6734935641,-0.6635070443,1.529142022,2024-06-04 14:56:07.480575
14.52107735,0.7680330276,-0.9248885512,1.378145218,2024-06-04 14:56:07.521077
14.56145068,0.889469564,-0.484814167,1.204245925,2024-06-04 14:56:07.561451
14.60198495,0.6830806732,-0.2810883522,0.903717041,2024-06-04 14:56:07.601985
14.64247172,0.2645772398,0.1310236603,0.6991923451,2024-06-04 14:56:07.642472
14.68295063,-0.1347519755,0.1597849578,0.03888100386,2024-06-04 14:56:07.682951
14.72342407,-0.3680379987,0.2386122048,-0.2808220685,2024-06-04 14:56:07.723424
14.76393594,-0.5459319353,0.3986634612,-0.6504579186,2024-06-04 14:56:07.763936
14.80442646,-0.6647053957,0.7633726001,-0.9645684958,2024-06-04 14:56:07.804426
14.84494016,-0.6967955232,0.9164998531,-1.309171438,2024-06-04 14:56:07.844940
14.88539214,-0.6894720793,0.7671009302,-1.437665105,2024-06-04 14:56:07.885392
14.92588214,-0.7753564715,0.4247616827,-1.501046538,2024-06-04 14:56:07.925882
14.96635235,-0.8406019807,0.3845491111,-1.505041122,2024-06-04 14:56:07.966352
15.00681256,-0.7327471375,0.1840189993,-1.68373394,2024-06-04 14:56:08.006813
15.04735422,-0.7418016195,-0.008521864191,-1.686663389,2024-06-04 14:56:08.047354
15.08783318,-0.762839973,-0.01251648832,-1.215430856,2024-06-04 14:56:08.087833
15.1283461,-0.638607204,-0.3455349505,-0.8599093556,2024-06-04 14:56:08.128346
15.16880042,-0.6857437491,-0.3319532275,-0.5532553792,2024-06-04 14:56:08.168800
15.20930974,-0.5917369723,-0.5503259897,-0.2549901605,2024-06-04 14:56:08.209310
15.24978193,-0.2340849638,-0.1327546686,0.06418029219,2024-06-04 14:56:08.249782
15.29027693,-0.06457975507,-0.1854836941,0.2679060996,2024-06-04 14:56:08.290277
15.33081719,0.06271559745,-0.123167567,0.2508623898,2024-06-04 14:56:08.330817
15.37124214,0.2147776037,0.276694268,0.3017272651,2024-06-04 14:56:08.371242
15.41172318,0.5659050345,0.09826774895,0.3432713449,2024-06-04 14:56:08.411723
15.45218782,0.7232932448,0.213312909,0.4878767133,2024-06-04 14:56:08.452188
15.49266698,0.6426018476,0.3635107577,0.9599081278,2024-06-04 14:56:08.492667
15.5332224,0.7312824726,0.08015878499,1.050452948,2024-06-04 14:56:08.533222
15.57371344,0.7661688328,-0.1202381775,1.107975483,2024-06-04 14:56:08.573713
15.61422776,0.7627068162,-0.1308905035,1.191196799,2024-06-04 14:56:08.614228
15.65471542,0.9222254753,-0.5252930522,1.436999321,2024-06-04 14:56:08.654715
15.69519141,0.9057143927,-0.7039858699,1.335535884,2024-06-04 14:56:08.695191
15.73565099,0.9368724227,-0.9326115251,1.311301827,2024-06-04 14:56:08.735651
15.77614355,0.8782846332,-0.6547188759,1.465494275,2024-06-04 14:56:08.776144
15.8166325,0.5512580872,-0.3109148741,1.144859195,2024-06-04 14:56:08.816633
15.85712464,0.5204994678,-0.01331541315,0.6424686909,2024-06-04 14:56:08.857125
15.89764667,0.149265781,0.1515294015,0.4223648906,2024-06-04 14:56:08.897647
15.93810953,-0.06431344151,0.143540144,0.03595161438,2024-06-04 14:56:08.938110
15.97857511,-0.3733641803,0.5489944816,-0.5910711884,2024-06-04 14:56:08.978575
16.01903667,-0.8123733401,0.6302185059,-0.9752208591,2024-06-04 14:56:09.019037
16.05953688,-0.9489894509,0.652854681,-1.189332724,2024-06-04 14:56:09.059537
16.10004214,-1.121823549,0.7918676138,-1.542324305,2024-06-04 14:56:09.100042
16.14055344,-1.008642554,0.7671009302,-1.509568334,2024-06-04 14:56:09.140553
16.18103313,-0.7338123918,0.3059881926,-1.44325757,2024-06-04 14:56:09.181033
16.22152334,-0.5864107609,0.2135792226,-1.629939675,2024-06-04 14:56:09.221523
16.26196495,-0.4929365814,0.1230344176,-1.600645781,2024-06-04 14:56:09.261965
16.30247318,-0.4884093404,0.1150451675,-1.264964223,2024-06-04 14:56:09.302473
16.34294589,-0.6029219031,0.09560466558,-0.9030513167,2024-06-04 14:56:09.342946
16.38343756,-0.7255568504,-0.1476679295,-0.625158608,2024-06-04 14:56:09.383438
16.42392698,-0.6668358445,-0.2142449915,-0.3647091687,2024-06-04 14:56:09.423927
16.46441344,-0.3648423254,-0.167374745,-0.07509893179,2024-06-04 14:56:09.464413
16.50489745,0.05978620425,-0.3969324529,0.1573881805,2024-06-04 14:56:09.504897
16.54538844,0.374296248,-0.3215672076,0.231421873,2024-06-04 14:56:09.545388
16.58587568,0.555785358,0.3099828064,0.352858454,2024-06-04 14:56:09.585876
16.62636183,0.8077129126,-0.06524552405,0.3842828274,2024-06-04 14:56:09.626362
16.66686375,0.7517881989,-0.1126483902,0.4372781515,2024-06-04 14:56:09.666864
16.70734964,0.7014559507,0.08095771074,0.6563166976,2024-06-04 14:56:09.707350
16.74783875,0.7232932448,-0.2363485843,0.9359403849,2024-06-04 14:56:09.747839
16.78834188,0.7163692117,-0.07350108027,1.321954131,2024-06-04 14:56:09.788342
16.82882797,0.7778863907,-0.33807832,1.527544141,2024-06-04 14:56:09.828828
16.86925188,0.6612433791,-0.3399424851,1.393324852,2024-06-04 14:56:09.869252
16.90976172,0.6061176062,-0.6696321368,1.298519015,2024-06-04 14:56:09.909762
16.95027854,0.5074504018,-0.8021204472,1.275350213,2024-06-04 14:56:09.950279
16.99076156,0.1737661362,-0.4901403487,1.408238053,2024-06-04 14:56:09.990762
17.03129521,0.1572550237,-0.2408758104,0.976685524,2024-06-04 14:56:10.031295
17.07176344,0.1841521561,-0.1774944514,0.6195661426,2024-06-04 14:56:10.071763
17.11222495,0.2922733128,-0.07456631213,0.34513551,2024-06-04 14:56:10.112225
17.15268084,0.159651801,0.1427412182,0.05778888986,2024-06-04 14:56:10.152681
17.19319552,0.08961272985,0.2814878225,-0.4099815488,2024-06-04 14:56:10.193196
17.23370412,-0.1323551983,0.5796199441,-0.9363398552,2024-06-04 14:56:10.233704
17.27420318,-0.4476641715,0.6416697502,-1.239664912,2024-06-04 14:56:10.274203
17.31468287,-0.6702978611,0.7386059761,-1.211169958,2024-06-04 14:56:10.314683
17.35514724,-0.9505873322,0.762573719,-1.485334277,2024-06-04 14:56:10.355147
17.3956387,-1.146856546,0.7492582798,-1.747914195,2024-06-04 14:56:10.395639
17.43613375,-1.206775904,0.3978645205,-1.756702423,2024-06-04 14:56:10.436134
17.47663209,-0.9420654774,-0.07323476672,-1.553775549,2024-06-04 14:56:10.476632
17.51710339,-0.5856118798,0.07989247888,-1.170957446,2024-06-04 14:56:10.517103
17.55759797,-0.06085143611,-0.001597849536,-0.6600450277,2024-06-04 14:56:10.557598
17.59807636,0.2762948275,0.1509967744,-0.2198374718,2024-06-04 14:56:10.598076
17.6385636,0.009720250964,0.03488638252,0.2972000241,2024-06-04 14:56:10.638564
17.67905417,-0.4055874646,-0.4704335332,0.1155777797,2024-06-04 14:56:10.679054
17.71954349,-0.6141068339,-0.4991948307,-0.1229012609,2024-06-04 14:56:10.719543
17.7600473,-0.3035914004,-0.4278241992,-0.08601756394,2024-06-04 14:56:10.760047
17.80050797,0.03874785081,-0.3149095178,0.09666989744,2024-06-04 14:56:10.800508
17.84105412,0.4227643609,0.07190322876,0.2884118557,2024-06-04 14:56:10.841054
17.88143011,0.7267552018,-0.3577851355,0.6722952127,2024-06-04 14:56:10.881430
17.92194745,0.9043828249,-0.05485950038,0.845395565,2024-06-04 14:56:10.921947
17.96241849,0.8178326488,-0.06524552405,1.001984835,2024-06-04 14:56:10.962418
18.00294802,0.6854774356,-0.06444659829,1.07735002,2024-06-04 14:56:11.002948
18.04348,0.684412241,-0.4256937504,1.250583529,2024-06-04 14:56:11.043480
18.08393026,0.4872109592,-0.3218335211,1.266295791,2024-06-04 14:56:11.083930
18.12443433,0.4805532396,-0.2677729428,1.374416947,2024-06-04 14:56:11.124434
18.16490427,0.6348788738,-0.4240958989,1.476679325,2024-06-04 14:56:11.164904
18.20539802,0.7312824726,-0.3841496706,1.48520112,2024-06-04 14:56:11.205398
18.2458813,0.5773562789,-0.5252930522,1.137402534,2024-06-04 14:56:11.245881
18.28638797,0.4754934013,-0.1399449855,0.6515231729,2024-06-04 14:56:11.286388
18.32684558,0.3093170524,0.1701709777,0.3571193814,2024-06-04 14:56:11.326846
18.36733573,-0.07443315536,0.148067385,-0.03115806542,2024-06-04 14:56:11.367336
18.40780552,-0.2894770801,0.3579182923,-0.4853467941,2024-06-04 14:56:11.407806
18.448305,-0.4551208019,0.5404726267,-0.7880061269,2024-06-04 14:56:11.448305
18.48880162,-0.5432688594,0.5314181447,-1.054580688,2024-06-04 14:56:11.488802
18.52928099,-0.5392742157,0.8062482476,-1.334603786,2024-06-04 14:56:11.529281
18.56978073,-0.581084609,0.918630302,-1.594520688,2024-06-04 14:56:11.569781
18.61033776,-0.6950645447,0.8493902087,-1.803838968,2024-06-04 14:56:11.610338
18.65082646,-0.6165035963,0.5833482146,-1.642988801,2024-06-04 14:56:11.650826
18.69129235,-0.4146419466,0.1584534049,-1.73273468,2024-06-04 14:56:11.691292
18.7317236,-0.5070509315,0.2058562785,-1.648581266,2024-06-04 14:56:11.731724
18.77218662,-0.6740261912,0.2790910602,-1.309171438,2024-06-04 14:56:11.772187
18.81268125,-0.6724283695,0.1928071827,-0.8769530654,2024-06-04 14:56:11.812681
18.85320953,-0.4319519997,0.08495233208,-0.4837489426,2024-06-04 14:56:11.853210
18.89370646,-0.1850842386,-0.4941349626,-0.2954690158,2024-06-04 14:56:11.893706
18.93419282,0.0957378149,-0.02689713426,0.1352845877,2024-06-04 14:56:11.934193
18.97467318,0.4912055731,0.5031894445,0.6384740472,2024-06-04 14:56:11.974673
19.01515745,0.3306216896,0.06178351492,0.3645760119,2024-06-04 14:56:12.015157
19.05564381,0.01318225823,-0.004793548491,-0.01757634431,2024-06-04 14:56:12.055644
19.09613537,0.3753614724,-0.07323476672,0.02876129188,2024-06-04 14:56:12.096135
19.13662823,0.6415365934,-0.2267614752,0.5942668915,2024-06-04 14:56:12.136628
19.17714599,0.7171681523,0.03035914153,1.072290182,2024-06-04 14:56:12.177146
19.21758052,0.8702954054,-0.2512618303,1.221555948,2024-06-04 14:56:12.217581
19.2580711,0.8857412338,-0.4648410678,1.125152349,2024-06-04 14:56:12.258071
19.29860688,0.8758878708,-0.5194342732,1.198120832,2024-06-04 14:56:12.298607
19.3390987,0.8127728105,-0.7031869292,1.332872868,2024-06-04 14:56:12.339099
19.3795862,0.8354089856,-0.6536536217,1.238865972,2024-06-04 14:56:12.379586
19.42007256,0.8918663263,-0.8119738698,1.419422984,2024-06-04 14:56:12.420073
19.46053104,0.6982602477,-0.394269377,1.366161346,2024-06-04 14:56:12.460531
19.50104771,0.5331491232,-0.3412740231,1.126217604,2024-06-04 14:56:12.501048
19.54151318,0.3207682967,0.05565842614,0.5311518312,2024-06-04 14:56:12.541513
19.58195396,-0.002263620263,0.2862813771,0.2958684862,2024-06-04 14:56:12.581954
19.62243224,-0.2758953571,0.3395430148,-0.1729672104,2024-06-04 14:56:12.622432
19.66292995,-0.516371727,0.4244953692,-0.6243597269,2024-06-04 14:56:12.662930
19.7034338,-0.7053174376,0.3704347908,-1.070026517,2024-06-04 14:56:12.703434
19.74395594,-0.7950633168,0.4146419466,-1.344457269,2024-06-04 14:56:12.743956
19.78445448,-0.7300840616,0.4236964285,-1.441393495,2024-06-04 14:56:12.784454
19.82495021,-0.6276885867,0.3142437339,-1.469355822,2024-06-04 14:56:12.824950
19.86542985,-0.5232957006,0.296667397,-1.527410984,2024-06-04 14:56:12.865430
19.9059011,-0.4825505614,0.2023942769,-1.552177668,2024-06-04 14:56:12.905901
19.94640516,-0.5600462556,0.1153114736,-1.550579786,2024-06-04 14:56:12.946405
19.98690401,-0.581084609,-0.1274285018,-1.277747035,2024-06-04 14:56:12.986904
20.02736776,-0.6127753258,-0.2523270845,-0.9155677557,2024-06-04 14:56:13.027368
20.06785792,-0.5448666811,-0.3945356905,-0.4216991365,2024-06-04 14:56:13.067858
20.10834688,-0.5701659918,-0.4232969582,-0.02929390781,2024-06-04 14:56:13.108347
20.14883427,-0.5664376616,-0.5497934222,0.2628462613,2024-06-04 14:56:13.148834
20.18933188,-0.426625818,-0.04420717061,0.4351477027,2024-06-04 14:56:13.189332
20.22982896,0.08188978583,0.3166405261,0.6453980803,2024-06-04 14:56:13.229829
20.27030802,0.03102491237,-0.5593804717,0.5074504018,2024-06-04 14:56:13.270308
20.31079063,0.0003994623839,-0.004793548491,0.5625761747,2024-06-04 14:56:13.310791
20.35127203,0.0126496423,0.06924014539,0.9026518464,2024-06-04 14:56:13.351272
20.39171995,-0.01078548469,-0.01624480449,0.826753974,2024-06-04 14:56:13.391720
20.4321898,0.409715265,0.330222249,1.153114796,2024-06-04 14:56:13.432190
20.47267933,0.5970631242,-0.04127778113,1.363498211,2024-06-04 14:56:13.472679
20.51321339,0.4688356817,-0.01278279629,1.33899796,2024-06-04 14:56:13.513213
20.55366537,0.7312824726,-0.4573844373,1.345123053,2024-06-04 14:56:13.553665
20.59424365,0.8734911084,-0.6967955232,1.450581074,2024-06-04 14:56:13.594244
20.63471511,0.923024416,-0.8327459097,1.372020125,2024-06-04 14:56:13.634715
20.67512427,0.7880061269,-0.7358096838,1.1155653,2024-06-04 14:56:13.675124
20.71569698,0.581084609,-0.4515256584,0.8347432017,2024-06-04 14:56:13.715697
20.7562138,0.3308880031,0.1565892547,0.4958659708,2024-06-04 14:56:13.756214
20.79663297,0.09014534205,0.5199668407,0.155790329,2024-06-04 14:56:13.796633
20.83714651,-0.05792204663,0.3781577349,-0.164179042,2024-06-04 14:56:13.837147
20.87761089,-0.2460688353,0.4223648906,-0.6579145193,2024-06-04 14:56:13.877611
20.91810375,-0.3672390878,0.7125077248,-1.077483177,2024-06-04 14:56:13.918104
20.9585925,-0.4327509105,0.6456643939,-1.316894293,2024-06-04 14:56:13.958593
20.99905797,-0.3898752928,0.6512568593,-1.508236766,2024-06-04 14:56:13.999058
21.03953256,-0.3597824574,0.6339467764,-1.645651817,2024-06-04 14:56:14.039533
21.08005854,-0.3485974967,0.3722989559,-1.734066248,2024-06-04 14:56:14.080059
21.12054068,-0.3078523576,0.1054580659,-1.796648622,2024-06-04 14:56:14.120541
21.1610499,-0.328358084,0.05326165259,-1.626477718,2024-06-04 14:56:14.161050
21.20146896,-0.482816875,-0.04713656008,-1.339663625,2024-06-04 14:56:14.201469
21.24195224,-0.6015903354,-0.1772281379,-0.9283505678,2024-06-04 14:56:14.241952
21.28243787,-0.5994598866,-0.2696371078,-0.5082492828,2024-06-04 14:56:14.282438
21.32292078,-0.6109111309,-0.3924052119,-0.1223686412,2024-06-04 14:56:14.322921
21.36344724,-0.5025236607,-0.2315550297,0.1547250897,2024-06-04 14:56:14.363447
21.40393177,-0.1568555683,0.1877473146,0.5644403696,2024-06-04 14:56:14.403932
21.44442323,-0.08788172156,0.03488638252,0.5774894357,2024-06-04 14:56:14.444423
21.48490948,-0.1246322617,-0.2587184608,0.2143781483,2024-06-04 14:56:14.484909
21.5254237,0.1649779677,-0.1982664913,0.225563094,2024-06-04 14:56:14.525424
21.56591209,0.3889431953,0.1962691844,0.5021241903,2024-06-04 14:56:14.565912
21.6064837,0.4667052329,0.07909355313,0.8350095153,2024-06-04 14:56:14.606484
21.64688084,0.5379426479,0.1624480337,1.208506823,2024-06-04 14:56:14.646881
21.68732875,0.5864107609,-0.2190385461,1.125684977,2024-06-04 14:56:14.687329
21.72780589,0.6266233325,-0.3916063011,1.223686457,2024-06-04 14:56:14.727806
21.76835125,0.7014559507,-0.5846797824,1.500380754,2024-06-04 14:56:14.768351
21.80884042,0.7733591795,-0.7202306986,1.370155931,2024-06-04 14:56:14.808840
21.84932573,0.8873391151,-0.8069140315,1.144859195,2024-06-04 14:56:14.849326
21.88981433,0.7211627364,-0.4347482324,1.090931773,2024-06-04 14:56:14.889814
21.93030162,0.6290200949,-0.3500621915,0.9119726419,2024-06-04 14:56:14.930302
21.9708124,0.4006607831,0.1315562725,0.7090457082,2024-06-04 14:56:14.970812
22.01124927,0.09121058136,0.1717688292,0.2271609455,2024-06-04 14:56:15.011249
22.05171339,-0.04567186534,0.133154124,-0.2041252851,2024-06-04 14:56:15.051713
22.09219,-0.2679060996,0.319303602,-0.5356790423,2024-06-04 14:56:15.092190
22.13265813,-0.5267577171,0.4260932207,-0.8833444715,2024-06-04 14:56:15.132658
22.17315172,-0.7588453889,0.8350095153,-1.27295351,2024-06-04 14:56:15.173152
22.21365386,-0.8600425124,0.8411346078,-1.375349045,2024-06-04 14:56:15.213654
22.25419308,-0.8563141823,0.4878767133,-1.493057251,2024-06-04 14:56:15.254193
22.29470756,-0.7705629468,0.4322183132,-1.824344754,2024-06-04 14:56:15.294708
22.33515068,-0.6647053957,0.4367455542,-2.081465244,2024-06-04 14:56:15.335151
22.37563355,-0.4820179343,0.06444659829,-1.754571915,2024-06-04 14:56:15.375634
22.41611693,-0.4055874646,0.02476666868,-1.375349045,2024-06-04 14:56:15.416117
22.45661693,-0.5890738368,-0.03754946589,-1.124619722,2024-06-04 14:56:15.456617
22.49713292,-0.5789541602,-0.243006289,-0.6203650832,2024-06-04 14:56:15.497133
22.53762391,-0.3986634612,-0.4587159753,-0.05565842614,2024-06-04 14:56:15.537624
22.57811006,-0.1246322617,-0.2898765504,0.458316505,2024-06-04 14:56:15.578110
22.61860922,0.127961114,0.2050573528,0.6696321368,2024-06-04 14:56:15.618609
22.6590662,0.08109086752,0.233286038,0.4633763731,2024-06-04 14:56:15.659066
22.69951677,-0.03395430371,-0.1761629134,0.1054580659,2024-06-04 14:56:15.699517
22.74001172,0.1314231306,-0.2336854935,0.07190322876,2024-06-04 14:56:15.740012
22.7805525,0.265642494,0.4529903531,0.860308826,2024-06-04 14:56:15.780552
22.82105016,0.484814167,-0.0758978501,1.118228316,2024-06-04 14:56:15.821050
22.86152172,0.6268896461,0.08122401685,1.037137508,2024-06-04 14:56:15.861522
22.90198318,0.8641703129,-0.1639127284,1.130212188,2024-06-04 14:56:15.901983
22.94245995,1.034074903,-0.2163754553,1.496652365,2024-06-04 14:56:15.942460
22.98292521,1.094526887,-0.5263582468,1.765490532,2024-06-04 14:56:15.982925
23.02341964,1.179346085,-0.7536523938,1.384536624,2024-06-04 14:56:16.023420
23.06391032,1.236069798,-1.085206151,0.8810808659,2024-06-04 14:56:16.063910
23.10444016,0.9943950176,-0.7565817833,0.5916038156,2024-06-04 14:56:16.104440
23.14496167,0.6119763851,-0.2906754613,0.4993279874,2024-06-04 14:56:16.144962
23.18539995,0.2946700752,-0.05406057462,0.4010602236,2024-06-04 14:56:16.185400
23.22585776,0.02596505545,0.03062544949,0.05299534276,2024-06-04 14:56:16.225858
23.26637365,-0.2383458912,0.2135792226,-0.4350145459,2024-06-04 14:56:16.266374
23.30688381,-0.5102466345,0.314776361,-0.9238233566,2024-06-04 14:56:16.306884
23.34738656,-0.6535204649,0.6208977103,-1.231143117,2024-06-04 14:56:16.347387
23.3878511,-0.716768682,0.5399399996,-1.385202408,2024-06-04 14:56:16.387851
23.42832511,-0.8182321191,0.2913412452,-1.639526725,2024-06-04 14:56:16.428325
23.4688448,-0.8749557734,0.07376738638,-1.767887354,2024-06-04 14:56:16.468845
23.50935256,-0.8091776371,-0.1463363916,-1.60357511,2024-06-04 14:56:16.509353
23.54983552,-0.7133066654,-0.1964023411,-1.381207824,2024-06-04 14:56:16.549836
23.59032068,-0.4932028949,-0.2637783289,-1.228746295,2024-06-04 14:56:16.590321
23.63080933,-0.4138430357,-0.4238295853,-0.7816147208,2024-06-04 14:56:16.630809
23.6712237,-0.2527265251,-0.1942718774,-0.104392834,2024-06-04 14:56:16.671224
23.71171219,-0.2050573528,-0.3423392773,0.3209014535,2024-06-04 14:56:16.711712
23.7521998,-0.1629806459,-0.4579170346,0.5039883852,2024-06-04 14:56:16.752200
23.7926773,-0.07549838722,-0.2917406857,0.6219629049,2024-06-04 14:56:16.792677
23.83316042,-0.1206376404,-0.2323539555,0.4865451753,2024-06-04 14:56:16.833160
23.8736887,-0.1653774232,-0.001065233024,0.6238270998,2024-06-04 14:56:16.873689
23.9142437,-0.235949114,-0.1137136221,0.7271546721,2024-06-04 14:56:16.914244
23.95467407,-0.1014634445,-0.1647116542,0.909309566,2024-06-04 14:56:16.954674
23.99516256,0.09307473898,0.0596530512,1.24845314,2024-06-04 14:56:16.995163
24.03569912,0.4312862158,-0.1423417628,1.397053123,2024-06-04 14:56:17.035699
24.07617625,0.1258306503,-0.1878804713,1.394656301,2024-06-04 14:56:17.076176
24.11660203,0.4131772518,-0.1671084315,1.832600236,2024-06-04 14:56:17.116602
24.15712834,0.7461957335,-0.8292838931,1.643388271,2024-06-04 14:56:17.157128
24.19755797,0.6772218943,-0.4874772727,1.491592526,2024-06-04 14:56:17.197558
24.23806209,0.4882761836,-0.4424711764,1.170957446,2024-06-04 14:56:17.238062
24.27860886,0.1987991184,0.08788172156,0.7934654355,2024-06-04 14:56:17.278609
24.3191011,-0.2388785034,0.5998593569,0.5077167153,2024-06-04 14:56:17.319101
24.35958802,-0.3544562757,0.4194355011,0.04021254554,2024-06-04 14:56:17.359588
24.40006933,-0.4628437459,0.2117150575,-0.4334166944,2024-06-04 14:56:17.400069
24.44055776,-0.4268921316,0.331553787,-0.788538754,2024-06-04 14:56:17.440558
24.48104985,-0.4758928418,0.7961285114,-1.332207084,2024-06-04 14:56:17.481050
24.52154276,-0.4820179343,1.136603594,-1.620885253,2024-06-04 14:56:17.521543
24.5619575,-0.4212996662,0.8698959351,-1.59691751,2024-06-04 14:56:17.561957
24.60241943,-0.1983996481,0.3760272563,-1.675478339,2024-06-04 14:56:17.602419
24.64291021,-0.151263088,0.2420742065,-1.807300925,2024-06-04 14:56:17.642910
24.68343511,-0.2197043151,0.2284924835,-1.778805971,2024-06-04 14:56:17.683435
24.72393115,-0.1933397949,0.01304910425,-1.591324925,2024-06-04 14:56:17.723931
24.76446537,-0.2652430236,-0.1681736708,-1.149919033,2024-06-04 14:56:17.764465
24.80493094,-0.3145100474,0.07296846062,-0.6568493247,2024-06-04 14:56:17.804931
24.84542964,-0.1272953451,-0.4864120185,-0.2264951766,2024-06-04 14:56:17.845430
24.88586506,-0.006524552125,-0.5418041348,0.1547250897,2024-06-04 14:56:17.885865
24.9264886,0.006790860556,-0.1665758193,0.4205007255,2024-06-04 14:56:17.926489
24.96688328,-0.02223674022,0.2668408751,0.4721645415,2024-06-04 14:56:17.966883
25.00737006,0.1274285018,-0.1511299312,0.579087317,2024-06-04 14:56:18.007370
25.04784615,0.1295589656,0.1515294015,0.7609758377,2024-06-04 14:56:18.047846
25.08837016,0.05712312087,0.2737648785,0.9593755007,2024-06-04 14:56:18.088370
25.12884245,0.1695052087,0.01731003635,1.082143545,2024-06-04 14:56:18.128842
25.16934094,0.5216978788,0.1038602218,1.380275726,2024-06-04 14:56:18.169341
25.20974536,0.8993229866,-0.579087317,1.628741264,2024-06-04 14:56:18.209745
25.25023624,0.9374050498,-0.1223686412,1.527810454,2024-06-04 14:56:18.250236
25.29078723,0.8599093556,-0.4435364008,1.234072447,2024-06-04 14:56:18.290787
25.3312828,0.822892487,-0.5804188251,1.123554587,2024-06-04 14:56:18.331283
25.37171233,0.5515244007,-0.2725664973,1.035273314,2024-06-04 14:56:18.371712
25.4121939,0.3532578945,-0.1679073572,0.7204970121,2024-06-04 14:56:18.412194
25.45268207,0.3095833361,-0.07350108027,0.2833519876,2024-06-04 14:56:18.452682
25.49316963,0.2272941023,0.128626883,-0.08282186836,2024-06-04 14:56:18.493170
25.53367838,0.132488355,0.2090519816,-0.3492632806,2024-06-04 14:56:18.533678
25.57421421,-0.211981371,0.6198324561,-0.7310161591,2024-06-04 14:56:18.574214
25.61470978,-0.650857389,0.9436632991,-1.212501526,2024-06-04 14:56:18.614710
25.6551489,-0.7383396626,0.8832113147,-1.54418838,2024-06-04 14:56:18.655149
25.69564275,-0.6804175973,0.7868077159,-1.62434721,2024-06-04 14:56:18.695643
25.73613869,-0.3770924807,0.3685706258,-1.728740096,2024-06-04 14:56:18.736139
25.77663926,-0.1733666807,0.143540144,-1.929802775,2024-06-04 14:56:18.776639
25.81715056,-0.177094996,0.0487344116,-1.757767677,2024-06-04 14:56:18.817151
25.85763468,-0.3017272651,-0.3407414258,-1.465627432,2024-06-04 14:56:18.857635
25.89812228,-0.3893426657,-0.4480636418,-1.040466309,2024-06-04 14:56:18.898122
25.93860103,-0.3342168629,-0.3886769116,-0.3521926701,2024-06-04 14:56:18.938601
25.9790964,-0.1794917583,-0.7651036382,0.1193061024,2024-06-04 14:56:18.979096
26.01955718,-0.03182383627,-0.2408758104,0.4503272474,2024-06-04 14:56:19.019557
26.06002077,0.04513924941,0.07270215452,0.5037220716,2024-06-04 14:56:19.060021
26.10056155,0.1234338731,-0.03888100386,0.4889419675,2024-06-04 14:56:19.100562
26.14104239,0.2805557549,-0.2283593267,0.5204994678,2024-06-04 14:56:19.141042
26.18154036,0.239810586,-0.2400768995,0.5817503929,2024-06-04 14:56:19.181540
26.22193025,0.4363460839,-0.2078536004,0.6802844405,2024-06-04 14:56:19.221930
26.26242603,0.5549864173,-0.1729672104,1.054713845,2024-06-04 14:56:19.262426
26.30292338,0.5800193548,-0.2752295732,1.430075288,2024-06-04 14:56:19.302923
26.34343879,0.5159722567,-0.2225005478,1.77720809,2024-06-04 14:56:19.343439
26.38394202,0.7927996516,-0.6877411008,2.036059856,2024-06-04 14:56:19.383942
26.42439582,0.8452624083,-0.8513875008,1.629273891,2024-06-04 14:56:19.424396
26.46494968,0.84020257,-0.1327546686,1.187734842,2024-06-04 14:56:19.464950
26.50541864,0.3647091687,-0.1147788614,1.036072254,2024-06-04 14:56:19.505419
26.54589369,-0.09826774895,0.07350108027,0.5865439177,2024-06-04 14:56:19.545894
26.5863864,-0.3776251078,0.307053417,-0.08947957307,2024-06-04 14:56:19.586386
26.62688582,-0.5222305059,0.3936035931,-0.4448679388,2024-06-04 14:56:19.626886
26.66734426,-0.4734960794,0.8842765689,-0.9959928989,2024-06-04 14:56:19.667344
26.70781593,-0.4836157858,0.9039833546,-1.456040382,2024-06-04 14:56:19.707816
26.74834853,-0.6202319264,0.7386059761,-1.742854357,2024-06-04 14:56:19.748349
26.7888603,-0.5600462556,0.5378095508,-1.702641845,2024-06-04 14:56:19.788860
26.82934843,-0.7287525535,0.2521939278,-1.846714616,2024-06-04 14:56:19.829348
26.8698352,-0.6609770656,0.3949351311,-1.935528398,2024-06-04 14:56:19.869835
26.91031957,-0.4631100595,0.1195724085,-1.787327886,2024-06-04 14:56:19.910320
26.95081056,-0.3794892728,-0.1126483902,-1.217561364,2024-06-04 14:56:19.950811
26.99130046,-0.1163767055,-0.1006645188,-0.8157021999,2024-06-04 14:56:19.991300
27.03174015,0.1252980381,0.1206376404,-0.01571218669,2024-06-04 14:56:20.031740
27.07219614,0.121836029,-0.01864157803,0.5034557581,2024-06-04 14:56:20.072196
27.11268056,-0.139012903,-0.3780245781,0.6142399907,2024-06-04 14:56:20.112681
27.15317145,-0.06537867337,-0.3990629315,0.6246260405,2024-06-04 14:56:20.153171
27.19366348,-0.02170412242,-0.07563154399,0.449262023,2024-06-04 14:56:20.193663
27.23415614,0.07443315536,0.1549914032,0.4902735054,2024-06-04 14:56:20.234156
27.27464338,0.376160413,-0.09161003679,0.753785491,2024-06-04 14:56:20.274643
27.31518895,0.6370093226,0.148067385,1.107709169,2024-06-04 14:56:20.315189
27.35567593,0.8399362564,-0.1129147038,1.346987128,2024-06-04 14:56:20.355676
27.3961852,0.6015903354,0.02663082629,1.283073187,2024-06-04 14:56:20.396185
27.43667244,0.8034520149,-0.4011933804,1.585865617,2024-06-04 14:56:20.436672
27.47713692,0.9267527461,-1.077483177,1.919683099,2024-06-04 14:56:20.477137
27.51761765,0.8908011317,-0.5924026966,1.286535144,2024-06-04 14:56:20.517618
27.55811067,0.5951989293,-0.1131810099,0.8161016703,2024-06-04 14:56:20.558111
27.59859791,0.4528571963,0.1262301207,0.6890726089,2024-06-04 14:56:20.598598
27.63908332,0.1993317306,0.06178351492,0.3797555864,2024-06-04 14:56:20.639083
27.67951265,-0.09320788831,0.0977351293,-0.07935985923,2024-06-04 14:56:20.679513
27.72004468,-0.2862813771,0.5521901846,-0.7299509048,2024-06-04 14:56:20.720045
27.76054723,-0.4508598745,0.9356740713,-1.359636784,2024-06-04 14:56:20.760547
27.80103286,-0.5283555984,0.9045159817,-1.639260411,2024-06-04 14:56:20.801033
27.84152384,-0.4758928418,0.5615109801,-1.740457654,2024-06-04 14:56:20.841524
27.88196489,-0.3957340717,0.09374050796,-1.888791323,2024-06-04 14:56:20.881965
27.92241827,-0.4732297659,0.1848179251,-2.032198191,2024-06-04 14:56:20.922418
27.96290619,-0.4508598745,0.2588516176,-1.836594939,2024-06-04 14:56:20.962906
28.00339416,-0.294803232,-0.21264714,-1.484535336,2024-06-04 14:56:21.003394
28.04393129,-0.2892107666,-0.1910761744,-1.017031193,2024-06-04 14:56:21.043931
28.0844628,-0.3187709749,-0.3985303044,-0.3109148741,2024-06-04 14:56:21.084463
28.12490478,-0.2513949871,-0.6517894268,0.04740286991,2024-06-04 14:56:21.124905
28.16542494,-0.2508623898,-0.4669715166,0.219171688,2024-06-04 14:56:21.165425
28.20586494,-0.02170412242,0.122501798,0.3720326424,2024-06-04 14:56:21.205865
28.24641494,0.2728328109,-0.02742975019,0.5039883852,2024-06-04 14:56:21.246415
28.28691286,0.4541887343,-0.1697715074,0.6491263509,2024-06-04 14:56:21.286913
28.32741119,0.389742136,0.1187734827,0.9636363983,2024-06-04 14:56:21.327411
28.36786796,0.4070521593,0.1243659556,1.295057058,2024-06-04 14:56:21.367868
28.40830994,0.5499265194,-0.2901428342,1.501179695,2024-06-04 14:56:21.408310
28.44879832,0.5701659918,-0.3234313726,1.560832739,2024-06-04 14:56:21.448798
28.48933457,0.730483532,-0.6738930345,1.462831259,2024-06-04 14:56:21.489335
28.52982082,0.8386046886,-0.9760197401,1.506505847,2024-06-04 14:56:21.529821
28.57030921,0.6734935641,-0.3764267266,1.453510404,2024-06-04 14:56:21.570309
28.61079749,0.577888906,-0.2709686458,1.153114796,2024-06-04 14:56:21.610797
28.65130827,0.4131772518,-0.06950645149,0.7649704814,2024-06-04 14:56:21.651308
28.6916953,0.2419410497,-0.09986559302,0.3006620109,2024-06-04 14:56:21.691695
28.73219108,-0.1459369212,0.1568555683,-0.4043890834,2024-06-04 14:56:21.732191
28.77267806,-0.3571193814,0.473762393,-1.069760323,2024-06-04 14:56:21.772678
28.81317572,-0.469235152,0.8248898387,-1.382539272,2024-06-04 14:56:21.813176
28.85368957,-0.4596480429,0.778285861,-1.612363338,2024-06-04 14:56:21.853690
28.89420348,-0.3073197305,0.5079829693,-1.89012289,2024-06-04 14:56:21.894203
28.93471134,-0.3904078901,0.4774906933,-2.13765645,2024-06-04 14:56:21.934711
28.97512879,-0.472430855,0.479621172,-2.068416119,2024-06-04 14:56:21.975129
29.01562192,-0.4103810191,-0.004260932095,-1.624080896,2024-06-04 14:56:22.015622
29.05612426,-0.4138430357,-0.2888112962,-1.159239888,2024-06-04 14:56:22.056124
29.09662572,-0.5661713481,-0.424628526,-0.7390053868,2024-06-04 14:56:22.096626
29.13713494,-0.4742949903,-0.5399399996,-0.3926715255,2024-06-04 14:56:22.137135
29.17763213,-0.276694268,-0.7119750977,-0.01225017942,2024-06-04 14:56:22.177632
29.21805515,-0.06298190355,-0.1033276021,0.4050548673,2024-06-04 14:56:22.218055
29.2585653,0.08641702682,0.03035914153,0.4987953603,2024-06-04 14:56:22.258565
29.29910124,0.3079854846,-0.04207670316,0.6339467764,2024-06-04 14:56:22.299101
29.33958947,0.3812202811,-0.09453943372,0.8179658055,2024-06-04 14:56:22.339589
29.38007332,0.3343500197,-0.1194392517,1.027284145,2024-06-04 14:56:22.380073
29.42056572,0.1950708032,0.1315562725,1.39838469,2024-06-04 14:56:22.420566
29.46105572,0.388410598,-0.2707023323,1.695052028,2024-06-04 14:56:22.461056
29.50152041,0.3617797792,-0.1886793971,1.780403852,2024-06-04 14:56:22.501520
29.54195838,0.5904054046,-0.6395393014,1.774545074,2024-06-04 14:56:22.541958
29.58245343,0.6612433791,-0.6360772848,1.653507948,2024-06-04 14:56:22.582453
29.62292791,0.5071840882,-0.2041252851,1.308905125,2024-06-04 14:56:22.622928
29.66343228,0.3609808385,-0.1513962448,1.055512786,2024-06-04 14:56:22.663432
29.70392744,0.3346163332,-0.05619104207,0.7324808836,2024-06-04 14:56:22.703927
29.74445228,0.2145113051,-0.07403369248,0.155790329,2024-06-04 14:56:22.744452
29.78497119,-0.1504641622,0.3027924895,-0.8207620382,2024-06-04 14:56:22.784971
29.82543447,-0.3342168629,0.8579120636,-1.190397859,2024-06-04 14:56:22.825434
29.86591937,-0.426625818,0.5753589869,-1.27295351,2024-06-04 14:56:22.865919
29.90637681,-0.7924002409,1.117695808,-1.844850421,2024-06-04 14:56:22.906377
29.94684681,-0.6545857191,0.8994561434,-1.77427876,2024-06-04 14:56:22.946847
29.98732832,-0.5989272594,0.4758928418,-1.65923357,2024-06-04 14:56:22.987328
30.02784254,-0.3547225893,0.5069177747,-1.650179148,2024-06-04 14:56:23.027843
30.06836317,-0.5706986189,0.1936061084,-1.776675582,2024-06-04 14:56:23.068363
30.10885661,-0.5086487532,0.4191691875,-1.101717234,2024-06-04 14:56:23.108857
30.14934681,-0.325695008,-0.08628387749,-0.8548495173,2024-06-04 14:56:23.149347
30.18983739,-0.4034570158,-0.406519562,-0.5412715077,2024-06-04 14:56:23.189837
30.23027145,-0.05898727849,-0.4267589748,-0.2302234918,2024-06-04 14:56:23.230271
30.27078509,0.2525933683,0.1033276021,0.06977276504,2024-06-04 14:56:23.270785
30.3113016,0.4091826379,0.573228538,0.4878767133,2024-06-04 14:56:23.311302
30.35179093,0.3833507299,0.248199299,0.7740249634,2024-06-04 14:56:23.351791
30.39222015,0.4259600639,0.01970681176,0.8709611297,2024-06-04 14:56:23.392220
30.43267884,0.6804175973,0.2079867423,1.086937189,2024-06-04 14:56:23.432679
30.47318483,1.122489333,-0.5263582468,1.172022581,2024-06-04 14:56:23.473185
30.51365395,0.5680354834,0.06844121963,1.353911161,2024-06-04 14:56:23.513654
30.5542277,0.5722964406,-0.3591166735,1.23353982,2024-06-04 14:56:23.554228
30.59471655,0.8449960947,-1.073754907,1.158973575,2024-06-04 14:56:23.594717
30.63516999,1.138600945,-0.9653674364,1.487331629,2024-06-04 14:56:23.635170
30.67562905,0.9134373069,-0.4307536185,1.397053123,2024-06-04 14:56:23.675629
30.71618093,0.4424711764,-0.04021254554,1.09066546,2024-06-04 14:56:23.716181
30.75666155,0.0464707911,-0.008521864191,0.729018867,2024-06-04 14:56:23.756662
30.79715827,-0.263112545,0.08282186836,0.112115778,2024-06-04 14:56:23.797158
30.83761733,-0.5014584661,0.2953358591,-0.6880073547,2024-06-04 14:56:23.837617
30.87811134,-0.4836157858,0.530619204,-1.124886036,2024-06-04 14:56:23.878111
30.91860983,-0.6037208438,0.4841484129,-1.468024254,2024-06-04 14:56:23.918610
30.95908838,-0.6970618367,0.8115743995,-1.751109958,2024-06-04 14:56:23.959088
30.99957671,-0.6609770656,0.5756253004,-1.797713876,2024-06-04 14:56:23.999577
31.04008421,-0.4753602445,0.3022598624,-1.806768417,2024-06-04 14:56:24.040084
31.08055056,-0.2929390669,0.1976007223,-1.752974153,2024-06-04 14:56:24.080551
31.12104062,-0.2234326303,0.09161003679,-1.536199212,2024-06-04 14:56:24.121041
31.1615566,-0.1834863871,-0.1455374658,-0.9832100868,2024-06-04 14:56:24.161557
31.20204499,-0.1874810159,-0.2158428431,-0.411046803,2024-06-04 14:56:24.202045
31.24245088,-0.1936061084,-0.5343475342,-0.02396774292,2024-06-04 14:56:24.242451
31.28294072,-0.143540144,-0.7531197667,0.2298240215,2024-06-04 14:56:24.282941
31.3234264,0.05925358832,-0.02902759984,0.469235152,2024-06-04 14:56:24.323426
31.36395072,0.1143793985,0.3661738634,0.5351464152,2024-06-04 14:56:24.363951
31.40445676,0.09360735118,0.009054481052,0.5846797824,2024-06-04 14:56:24.404457
31.44494384,0.04300878197,-0.1521951705,0.8129059672,2024-06-04 14:56:24.444944
31.48542598,0.1484668553,0.1312899739,1.152582169,2024-06-04 14:56:24.485426
31.52591166,0.3748288751,-0.1633801162,1.489195824,2024-06-04 14:56:24.525912
31.56640348,0.3463338912,-0.07882724702,1.670285344,2024-06-04 14:56:24.566403
31.60691765,0.5251598954,-0.1038602218,1.753240347,2024-06-04 14:56:24.606918
31.64741655,0.889469564,-0.3604482114,1.737261891,2024-06-04 14:56:24.647417
31.6878128,1.117962003,-0.2033263594,1.587996125,2024-06-04 14:56:24.687813
31.72834181,0.8495233655,-0.1123820841,0.985740006,2024-06-04 14:56:24.728342
31.7688427,0.4424711764,-0.1378145218,0.4125114977,2024-06-04 14:56:24.768843
31.80933426,0.1838858575,-0.1463363916,0.07350108027,2024-06-04 14:56:24.809334
31.84982426,-0.09240896255,0.06231613085,-0.4584496617,2024-06-04 14:56:24.849824
31.89031327,-0.3203688264,0.4090494812,-1.039667487,2024-06-04 14:56:24.890313
31.93080197,-0.4639089704,0.6912030578,-1.343125701,2024-06-04 14:56:24.930802
31.97129999,-0.5360785127,0.6299521923,-1.531405568,2024-06-04 14:56:24.971300
32.01173067,-0.5629756451,0.5809514523,-1.850442886,2024-06-04 14:56:25.011731
32.05220207,-0.446598947,0.5833482146,-1.939789295,2024-06-04 14:56:25.052202
32.09268567,-0.2908086181,0.2772268951,-2.105166674,2024-06-04 14:56:25.092686
32.13317858,-0.2039921284,0.09560466558,-2.075073957,2024-06-04 14:56:25.133179
32.17367645,-0.2519276142,-0.3497959077,-1.54046011,2024-06-04 14:56:25.173676
32.21418015,-0.4045222402,-0.2858819067,-1.009574652,2024-06-04 14:56:25.214180
32.2546639,-0.292140156,-0.686409533,-0.343937099,2024-06-04 14:56:25.254664
32.2951752,-0.21784015,-0.7991910577,0.1675078869,2024-06-04 14:56:25.295175
32.3356765,-0.07469946891,-0.2946700752,0.5157059431,2024-06-04 14:56:25.335676
32.37615202,0.158320263,0.1637795717,0.7588453889,2024-06-04 14:56:25.376152
32.41662312,0.3362141848,-0.09880036116,0.7548507452,2024-06-04 14:56:25.416623
32.45711317,0.3790898025,0.148067385,1.057643294,2024-06-04 14:56:25.457113
32.49762645,0.5109124184,-0.2155765295,1.156576753,2024-06-04 14:56:25.497626
32.53811681,0.6362104416,-0.2624467909,1.253512979,2024-06-04 14:56:25.538117
32.57860796,0.3295564651,-0.415574044,1.539528012,2024-06-04 14:56:25.578608
32.61910046,-0.06058513001,-0.2027937323,1.74232173,2024-06-04 14:56:25.619100
32.65955051,0.7248910666,-0.8263545036,1.747914195,2024-06-04 14:56:25.659551
32.7000203,0.7659025192,-0.4493951797,1.325416207,2024-06-04 14:56:25.700020
32.74054874,0.5738942623,-0.3732310236,1.053914905,2024-06-04 14:56:25.740549
32.78104733,0.2512618303,-0.1607170254,1.070692301,2024-06-04 14:56:25.781047
32.8215216,-0.1342193633,-0.1612496525,0.750323534,2024-06-04 14:56:25.821522
32.86197186,-0.4732297659,0.1970681101,0.2162422985,2024-06-04 14:56:25.861972
32.90244556,-0.4793548584,0.3640433848,-0.5021241903,2024-06-04 14:56:25.902446
32.94294937,-0.5145075321,0.6054518223,-1.107309699,2024-06-04 14:56:25.942949
32.98343634,-0.5760247707,0.6728277802,-1.535133958,2024-06-04 14:56:25.983436
33.02393259,-0.568834424,0.7476604581,-1.818219662,2024-06-04 14:56:26.023933
33.06446181,-0.623693943,0.6837464571,-2.069481373,2024-06-04 14:56:26.064462
33.10497598,-0.5850792527,0.4513925016,-2.076139212,2024-06-04 14:56:26.104976
33.14544134,-0.3746957183,0.4178376496,-1.924476624,2024-06-04 14:56:26.145441
33.18591541,-0.2279598713,-0.2121145278,-1.465361238,2024-06-04 14:56:26.185915
33.22638968,-0.3334179223,-0.3585840762,-0.899056673,2024-06-04 14:56:26.226390
33.26690275,-0.4010602236,-0.5620435476,-0.4288894534,2024-06-04 14:56:26.266903
33.30740197,-0.2668408751,-0.3314206302,-0.1388797611,2024-06-04 14:56:26.307402
33.34787999,-0.2567211688,0.48468104,0.3081186414,2024-06-04 14:56:26.347880
33.38835411,0.1844184697,0.5849460959,0.7194317579,2024-06-04 14:56:26.388354
33.42879936,0.1860163212,0.01225017942,0.7308830023,2024-06-04 14:56:26.428799
33.46933338,-0.06351451576,0.1608501822,0.5947995186,2024-06-04 14:56:26.469333
33.50983244,0.1388797611,-0.02503297664,0.452457726,2024-06-04 14:56:26.509832
33.55032957,0.2438052148,-0.2629793882,1.460168123,2024-06-04 14:56:26.550330
33.59082192,0.4267589748,-0.151928857,2.18545866,2024-06-04 14:56:26.590822
33.63131025,0.5802856684,-0.6318163276,1.947112799,2024-06-04 14:56:26.631310
33.67171619,0.8700290918,-0.8929315805,1.82620883,2024-06-04 14:56:26.671716
33.71220421,0.9280842543,-1.017297506,1.491059899,2024-06-04 14:56:26.712204
33.75269166,0.7773538232,-0.917165637,1.252980351,2024-06-04 14:56:26.752692
33.7931764,0.2595174015,-0.1210371032,0.8190310597,2024-06-04 14:56:26.793176
33.83368572,-0.06537867337,0.09134373069,0.5599130988,2024-06-04 14:56:26.833686
33.87422405,-0.3573856652,0.204258427,0.1797580719,2024-06-04 14:56:26.874224
33.91473879,-0.5057193637,0.3059881926,-0.356187284,2024-06-04 14:56:26.914739
33.95520838,-0.4953333437,0.7900034189,-1.087602973,2024-06-04 14:56:26.955208
33.99563218,-0.4122451842,1.089866519,-1.542324305,2024-06-04 14:56:26.995632
34.03617978,-0.5416709781,0.8885374665,-1.79505074,2024-06-04 14:56:27.036180
34.07666119,-0.6809502244,0.601190865,-1.979202986,2024-06-04 14:56:27.076661
34.11716541,-0.5177032351,0.2284924835,-2.064421654,2024-06-04 14:56:27.117165
34.15764806,-0.272167027,0.1776276082,-1.837393761,2024-06-04 14:56:27.157648
34.19807129,-0.1169093251,-0.03808208182,-1.361500978,2024-06-04 14:56:27.198071
34.23857884,-0.05925358832,-0.0817566365,-0.9994548559,2024-06-04 14:56:27.238579
34.2791039,-0.09187635034,-0.37296471,-0.5639077425,2024-06-04 14:56:27.279104
34.31958812,0.1330209672,-0.3077192008,-0.1822880059,2024-06-04 14:56:27.319588
34.36009103,0.3796224296,0.3206351399,0.3480648994,2024-06-04 14:56:27.360091
34.40058103,0.6399387121,0.5146406889,0.6643059254,2024-06-04 14:56:27.400581
34.44106301,0.2501966059,0.1712362021,0.4263595045,2024-06-04 14:56:27.441063
34.48157067,0.08348763734,0.3248960674,0.2266283184,2024-06-04 14:56:27.481571
34.52196551,0.2078536004,-0.1174419373,0.7034532428,2024-06-04 14:56:27.521966
34.56243499,0.1050586104,0.0490007177,1.655105829,2024-06-04 14:56:27.562435
34.60295436,0.5194342732,-0.1316894293,1.754305601,2024-06-04 14:56:27.602954
34.64346525,0.5784215331,-0.3519263566,1.580006838,2024-06-04 14:56:27.643465
34.68395765,0.8268871307,-0.5322170258,1.548848867,2024-06-04 14:56:27.683958
34.72449801,1.022091031,-0.9224917889,1.498250246,2024-06-04 14:56:27.724498
34.76491442,0.657248795,-0.5905385613,1.362965703,2024-06-04 14:56:27.764914
34.80542723,0.5477960706,-0.4555202723,1.074420691,2024-06-04 14:56:27.805427
34.84594343,0.2225005478,-0.1346188188,0.5460650921,2024-06-04 14:56:27.845943
34.88640119,0.003595161485,-0.1577876359,0.1315562725,2024-06-04 14:56:27.886401
34.92691254,-0.33474949,0.09640359133,-0.5495271087,2024-06-04 14:56:27.926913
34.96740062,-0.5310186744,0.6818822622,-1.158973575,2024-06-04 14:56:27.967401
35.00781619,-0.5725627542,0.7362091541,-1.474149346,2024-06-04 14:56:28.007816
35.04831249,-0.7449973226,0.7362091541,-1.891188025,2024-06-04 14:56:28.048312
35.08885765,-0.6503247619,0.7545844316,-1.951506853,2024-06-04 14:56:28.088858
35.12934327,-0.4955996573,0.2772268951,-1.805703163,2024-06-04 14:56:28.129343
35.16984614,-0.4921376705,0.2039921284,-1.919150472,2024-06-04 14:56:28.169846
35.21028176,-0.3110480309,0.2639114857,-1.477877617,2024-06-04 14:56:28.210282
35.25075093,-0.1472684592,0.1264964193,-0.9829437733,2024-06-04 14:56:28.250751
35.29129994,-0.2460688353,0.0221035853,-0.5199668407,2024-06-04 14:56:28.291300
35.33175228,-0.3190372884,-0.3170399666,-0.07296846062,2024-06-04 14:56:28.331752
35.37221989,-0.2937380075,-0.3133116663,0.1659100503,2024-06-04 14:56:28.372220
35.41271291,-0.3113143444,-0.2022611201,0.3158415854,2024-06-04 14:56:28.412713
35.45320395,-0.2282261699,0.4450010955,0.4157072008,2024-06-04 14:56:28.453204
35.49372827,0.03874785081,-0.05033225939,0.5982614756,2024-06-04 14:56:28.493728
35.53424864,0.1039933711,-0.06870753318,0.912771523,2024-06-04 14:56:28.534249
35.57472317,0.2723001838,0.4300878346,1.251648784,2024-06-04 14:56:28.574723
35.61519525,0.7648373246,-0.1295589656,1.413297892,2024-06-04 14:56:28.615195
35.65568718,1.080412626,-0.3186378181,1.404776096,2024-06-04 14:56:28.655687
35.69615062,1.086005092,-0.4914718866,1.786795259,2024-06-04 14:56:28.696151
35.73663983,1.152715325,-0.8125064969,1.678807259,2024-06-04 14:56:28.736640
35.77715957,0.8250229955,-0.5870765448,0.9133041501,2024-06-04 14:56:28.777160
35.81765338,0.5082492828,-0.09214265645,0.7244915962,2024-06-04 14:56:28.817653
35.85813921,0.1503310055,0.05725627393,0.6302185059,2024-06-04 14:56:28.858139
35.898614,-0.008388710208,-0.1027949899,0.3073197305,2024-06-04 14:56:28.898614
35.93910499,-0.1901440918,0.2364817262,-0.4544550478,2024-06-04 14:56:28.939105
35.97950306,-0.204258427,0.6200987697,-1.323285699,2024-06-04 14:56:28.979503
36.02000291,-0.2905423045,1.087469816,-1.989588976,2024-06-04 14:56:29.020003
36.0605402,-0.2820204496,1.106244445,-2.249505758,2024-06-04 14:56:29.060540
36.10107286,-0.3464670479,0.6549851298,-2.164020777,2024-06-04 14:56:29.101073
36.14154655,-0.290275991,0.1360835135,-2.227135897,2024-06-04 14:56:29.141547
36.18194853,-0.3677717149,0.1691057384,-2.167482853,2024-06-04 14:56:29.181949
36.22243676,-0.2865476906,-0.1916087866,-1.529008865,2024-06-04 14:56:29.222437
36.26294233,-0.05951989442,-0.3074528873,-0.8908011317,2024-06-04 14:56:29.262942
36.30346186,0.2001306564,-0.4469984174,-0.04820179567,2024-06-04 14:56:29.303462
36.34395712,0.2672403455,-0.2379464209,0.5702991486,2024-06-04 14:56:29.343957
36.38447884,0.4121120274,-0.4126446545,0.8869396448,2024-06-04 14:56:29.384479
36.42491093,0.2288919389,0.01304910425,0.8307486176,2024-06-04 14:56:29.424911
36.46542973,-0.000133154128,-0.365241766,0.5447335243,2024-06-04 14:56:29.465430
36.50593286,0.2496639937,-0.3604482114,0.7457962632,2024-06-04 14:56:29.505933
36.5463991,0.167374745,-0.5327496529,1.241795421,2024-06-04 14:56:29.546399
36.58691082,0.4906729758,-0.2624467909,1.396254182,2024-06-04 14:56:29.586911
36.62740202,0.7922670841,-0.6959966421,1.721017122,2024-06-04 14:56:29.627402
36.66790244,0.9275516272,-0.9685631394,1.972678423,2024-06-04 14:56:29.667902
36.70838249,0.7858756781,-0.7363423109,1.685464978,2024-06-04 14:56:29.708382
36.74887494,0.5453993082,-0.357518822,1.39758575,2024-06-04 14:56:29.748875
36.78937056,0.2358159572,-0.3958672285,1.186935902,2024-06-04 14:56:29.789371
36.82985713,-0.2569874525,-0.2046578974,0.7340787053,2024-06-04 14:56:29.829857
36.87032999,-0.2910749316,0.0229025092,0.239144817,2024-06-04 14:56:29.870330
36.91082041,-0.4588491321,0.2897433937,-0.4046553969,2024-06-04 14:56:29.910820
36.95131562,-0.756981194,0.630751133,-1.311568141,2024-06-04 14:56:29.951316
36.9918052,-0.6657706499,1.172555208,-2.061758518,2024-06-04 14:56:29.991805
37.03229364,-0.6766892672,1.001452208,-2.001839161,2024-06-04 14:56:30.032294
37.07274004,-0.6503247619,0.3403419554,-2.162955761,2024-06-04 14:56:30.072740
37.11317353,-0.7362091541,0.1496652365,-2.216483593,2024-06-04 14:56:30.113174
37.15369926,-0.9380708337,-0.1942718774,-1.897313118,2024-06-04 14:56:30.153699
37.19418775,-0.8962604403,-0.3687037826,-1.412632108,2024-06-04 14:56:30.194188
37.23469999,-0.7058500051,-0.5529890656,-0.4946675897,2024-06-04 14:56:30.234700
37.27518499,-0.2489982247,-0.1849510819,0.330222249,2024-06-04 14:56:30.275185
37.31573223,0.1828206182,-0.3748288751,0.7865414619,2024-06-04 14:56:30.315732
37.35619275,0.401992321,0.3611139953,0.817699492,2024-06-04 14:56:30.356193
37.39668114,0.389742136,0.2037258148,0.6962629557,2024-06-04 14:56:30.396681
37.43712504,0.232087642,0.02050573565,0.9913324714,2024-06-04 14:56:30.437125
37.47766593,0.1854836941,-0.3143768907,1.076018453,2024-06-04 14:56:30.477666
37.51814801,0.4784227908,0.03994623944,1.161902905,2024-06-04 14:56:30.518148
37.55864077,0.5691007376,-0.261115253,1.379476786,2024-06-04 14:56:30.558641
37.59913671,1.157775164,-0.429155767,1.572283983,2024-06-04 14:56:30.599137
37.63958843,1.054048061,-0.6901378632,1.958830357,2024-06-04 14:56:30.639588
37.68002108,0.8481917977,-0.2187722325,1.478543401,2024-06-04 14:56:30.680021
37.72059244,0.4866783321,-0.8250229955,1.139000416,2024-06-04 14:56:30.720592
37.76108384,0.1194392517,-0.4933360517,0.9082443118,2024-06-04 14:56:30.761084
37.80156874,-0.2298240215,-0.1258306503,0.314776361,2024-06-04 14:56:30.801569
37.84205718,-0.4399412274,0.3214340508,-0.3412740231,2024-06-04 14:56:30.842057
37.88244327,-0.8123733401,0.9665657878,-1.256442308,2024-06-04 14:56:30.882443
37.922939,-0.8374063373,1.094926357,-1.823013186,2024-06-04 14:56:30.922939
37.96342712,-0.7130403519,1.062969446,-2.087590456,2024-06-04 14:56:30.963427
38.0039302,-0.4553871155,0.3770924807,-1.984529138,2024-06-04 14:56:31.003930
38.04444473,-0.4676373005,0.2159759998,-2.182928801,2024-06-04 14:56:31.044445
38.08494838,-0.3699021637,0.2995967865,-1.970947385,2024-06-04 14:56:31.084948
38.12545317,-0.3030588031,-0.1865489334,-1.489861488,2024-06-04 14:56:31.125453
38.16593161,-0.2276935577,-0.3093170524,-0.7898702621,2024-06-04 14:56:31.165932
38.20641869,-0.3781577349,-0.2525933683,-0.06524552405,2024-06-04 14:56:31.206419
38.24685676,-0.2599168718,0.154458791,0.3981308341,2024-06-04 14:56:31.246857
38.28741541,-0.03395430371,0.1595186442,0.5841471553,2024-06-04 14:56:31.287415
38.32791286,-0.1035939083,-0.0713706091,0.5937342644,2024-06-04 14:56:31.327913
38.36839686,0.1833532304,-0.2635120153,0.8752220869,2024-06-04 14:56:31.368397
38.4088916,0.4041227698,0.09613727778,1.275083899,2024-06-04 14:56:31.408892
38.44931312,0.8612409234,-0.5271571875,1.891188025,2024-06-04 14:56:31.449313
38.48986254,0.7560491562,0.1014634445,2.070946217,2024-06-04 14:56:31.489863
38.53035056,1.169759035,-0.652854681,1.920215726,2024-06-04 14:56:31.530351
38.57084036,1.033542395,-0.6882736683,1.738327146,2024-06-04 14:56:31.570840
38.61133015,0.556584239,-0.4288894534,1.369889617,2024-06-04 14:56:31.611330
38.65174827,0.4211665094,-0.5418041348,1.283872128,2024-06-04 14:56:31.651748
38.69225973,0.3497959077,-0.06311506033,0.9303479195,2024-06-04 14:56:31.692260
38.73272129,-0.07283531129,0.1246322617,0.2010627389,2024-06-04 14:56:31.732721
38.77320666,-0.4439358711,0.6925346255,-0.677355051,2024-06-04 14:56:31.773207
38.81372343,-0.6037208438,0.9548482299,-1.395588398,2024-06-04 14:56:31.813723
38.85423494,-0.7005238533,0.9702941179,-1.813426018,2024-06-04 14:56:31.854235
38.89476223,-0.5872097015,0.7828131318,-2.060160637,2024-06-04 14:56:31.894762
38.93524759,-0.5499265194,0.5279561281,-2.170145988,2024-06-04 14:56:31.935248
38.9757364,-0.4780233204,0.3653749228,-2.081997871,2024-06-04 14:56:31.975736
39.01620884,-0.3661738634,-0.006924014539,-1.740723968,2024-06-04 14:56:32.016209
39.05667712,-0.3696358502,-0.2595174015,-1.301182151,2024-06-04 14:56:32.056677
39.09718098,-0.6058512926,-0.3902747631,-0.7637720704,2024-06-04 14:56:32.097181
39.13765791,-0.4878767133,-0.5947995186,-0.2605826259,2024-06-04 14:56:32.137658
39.17816036,-0.2170412242,-0.1282274276,0.4162397981,2024-06-04 14:56:32.178160
39.21862556,0.1617822647,0.1619154215,0.7955959439,2024-06-04 14:56:32.218626
39.25909098,0.04700340703,-0.1631138027,0.4921376705,2024-06-04 14:56:32.259091
39.29962702,0.1958697289,0.02450035885,0.2604494691,2024-06-04 14:56:32.299627
39.34011582,0.5781552196,0.01944050193,0.8286181092,2024-06-04 14:56:32.340116
39.38060301,0.5499265194,-0.3183715343,1.815023899,2024-06-04 14:56:32.380603
39.42103832,0.8090444803,-0.103061296,2.180398941,2024-06-04 14:56:32.421038
39.46151233,0.7011896372,-0.5561847687,1.866953969,2024-06-04 14:56:32.461512
39.50197286,0.8399362564,-0.904915452,1.83366549,2024-06-04 14:56:32.501973
39.54246036,0.5930684805,-0.7061163187,1.55044663,2024-06-04 14:56:32.542460
39.58295614,0.270169735,-0.5111786723,1.194658875,2024-06-04 14:56:32.582956
39.62346478,0.01211702544,-0.01944050193,0.8555153012,2024-06-04 14:56:32.623465
39.66399931,-0.290275991,0.1264964193,0.317972064,2024-06-04 14:56:32.663999
39.70450619,-0.5049204826,0.4833494723,-0.4768249393,2024-06-04 14:56:32.704506
39.74497166,-0.3928046823,0.2825530469,-0.6208977103,2024-06-04 14:56:32.744972
39.78543869,-0.5696333647,0.7588453889,-1.110771775,2024-06-04 14:56:32.785439
39.8259052,-0.6575151086,1.090399146,-1.898378372,2024-06-04 14:56:32.825905
39.86640999,-0.4394086301,1.127282858,-2.433258533,2024-06-04 14:56:32.866410
39.90692119,-0.08894696087,0.5322170258,-2.201570272,2024-06-04 14:56:32.906921
39.94741462,0.01611164957,0.34513551,-2.048176765,2024-06-04 14:56:32.947415
39.98790291,-0.5238283277,-0.1655105799,-1.347652912,2024-06-04 14:56:32.987903
40.02836171,-0.8110417724,0.06231613085,-1.437665105,2024-06-04 14:56:33.028362
40.06886436,-0.7705629468,-0.4323514402,-1.144592881,2024-06-04 14:56:33.068864
40.10936572,-0.6527215242,-0.3231650591,-0.9552477002,2024-06-04 14:56:33.109366
40.14986582,-0.3989297748,0.1659100503,-0.7331466079,2024-06-04 14:56:33.149866
40.19036025,-0.02383458801,0.4894745648,-0.2043915838,2024-06-04 14:56:33.190360
40.2308003,0.1985328048,0.2892107666,0.05352795869,2024-06-04 14:56:33.230800
40.27130931,0.2163754553,0.02396774292,0.2777595222,2024-06-04 14:56:33.271309
40.31177358,0.2067883611,-0.3039908707,0.1661763489,2024-06-04 14:56:33.311774
40.3522464,0.1599181145,-0.1356840581,-0.009587096982,2024-06-04 14:56:33.352246
40.39271286,0.07177007198,-0.146070078,0.05059856921,2024-06-04 14:56:33.392713
40.43325254,-0.1525946259,-0.2981320918,-0.07722939551,2024-06-04 14:56:33.433253
40.47373103,-0.2175738513,0.03169068322,-0.3063876629,2024-06-04 14:56:33.473731
40.51426582,-0.03049229458,0.3003957272,-0.2163754553,2024-06-04 14:56:33.514266
40.55471004,0.1034607589,-0.2328865677,-0.1990654171,2024-06-04 14:56:33.554710
40.59520921,0.1010639817,0.1382139921,0.1778939217,2024-06-04 14:56:33.595209
40.63576619,-0.1432738453,-0.6605776548,-0.2288919389,2024-06-04 14:56:33.635766
40.67620207,-0.1358172148,0.2066552043,-0.160983339,2024-06-04 14:56:33.676202
40.71668374,-0.1320888996,-0.2222342342,0.1129147038,2024-06-04 14:56:33.716684
40.75719916,-0.1983996481,0.2809551954,0.7143719196,2024-06-04 14:56:33.757199
40.79768369,-0.005459319334,-0.4475310147,0.3688369393,2024-06-04 14:56:33.797684
40.83814822,-0.001731003635,0.6118432283,0.1243659556,2024-06-04 14:56:33.838148
40.87865619,-0.1366161406,-0.4326177537,0.0,2024-06-04 14:56:33.878656
40.91914296,-0.02916075476,-0.1442059278,0.1629806459,2024-06-04 14:56:33.919143
40.95963145,-0.3035914004,-0.4105141759,-0.506118834,2024-06-04 14:56:33.959631
41.00011989,-0.268971324,0.2932053804,-0.3055887222,2024-06-04 14:56:34.000120
41.04053447,-0.1720351279,-0.1250317246,-0.0410114713,2024-06-04 14:56:34.040534
41.0810815,0.06404713541,0.481485337,-0.0298265256,2024-06-04 14:56:34.081082
41.12157671,0.244337827,0.04660394415,0.1430075318,2024-06-04 14:56:34.121577
41.16199254,0.3636439145,-0.01944050193,-0.01358172111,2024-06-04 14:56:34.161993
41.20248098,0.2158428431,0.3419398069,0.3366136253,2024-06-04 14:56:34.202481
41.24296161,0.03342168778,-0.6616428494,0.06444659829,2024-06-04 14:56:34.242962
41.28347723,-0.1003982127,0.1797580719,-0.06870753318,2024-06-04 14:56:34.283477
41.32397936,-0.09027849883,-0.2129134536,0.07722939551,2024-06-04 14:56:34.323979
41.36450416,0.03501953557,0.3371462524,0.07350108027,2024-06-04 14:56:34.364504
41.40496155,0.1221023351,0.08149032295,0.05805519968,2024-06-04 14:56:34.404962
41.44541218,0.162847504,-0.02769605815,-0.3236976862,2024-06-04 14:56:34.445412
41.48596582,0.224897325,-0.003195699072,-0.2174406946,2024-06-04 14:56:34.485966
41.52640577,0.1354177445,-0.08761541545,0.003195699072,2024-06-04 14:56:34.526406
41.56694384,0.1761629134,0.1169093251,0.05778888986,2024-06-04 14:56:34.566944
41.60738025,-0.06085143611,-0.1423417628,0.1355509013,2024-06-04 14:56:34.607380
41.64793082,-0.06431344151,0.2114487588,0.03115806542,2024-06-04 14:56:34.647931
41.68842004,0.005725627299,-0.418769747,-0.3263607621,2024-06-04 14:56:34.688420
41.7289065,0.04167724028,0.3416734934,0.3850817382,2024-06-04 14:56:34.728907
41.7693714,-0.02703028731,-0.8721595407,-0.2121145278,2024-06-04 14:56:34.769371
41.80988301,-0.1336867511,0.0758978501,-0.2904091477,2024-06-04 14:56:34.809883
41.85036655,-0.1478010863,-0.3077192008,0.0229025092,2024-06-04 14:56:34.850367
41.89085749,-0.04300878197,0.3991960883,-0.1133141592,2024-06-04 14:56:34.890857
41.93134202,0.03209014609,-0.2438052148,0.1560566425,2024-06-04 14:56:34.931342
41.97178832,-0.0573894307,0.7074478865,0.4181039631,2024-06-04 14:56:34.971788
42.01227687,-0.2085193694,-0.8255556226,-0.05539211631,2024-06-04 14:56:35.012277
42.05274228,-0.3414071798,0.4431369305,0.1406107545,2024-06-04 14:56:35.052742
42.09321962,-0.2521939278,-0.9278179407,-0.2493976802,2024-06-04 14:56:35.093220
42.13372457,-0.3030588031,0.414375633,-0.07989247888,2024-06-04 14:56:35.133725
42.1742265,-0.06324820966,-0.1993317306,0.1054580659,2024-06-04 14:56:35.174227
42.21470983,-0.1233007237,0.05432688445,0.04074516147,2024-06-04 14:56:35.214710
42.25520348,0.00599193573,0.5255593657,0.2290250957,2024-06-04 14:56:35.255203
42.29571452,0.07416684926,-0.4262263775,-0.0713706091,2024-06-04 14:56:35.295715
42.33617801,0.06963960826,0.7063826323,0.08335448056,2024-06-04 14:56:35.336178
42.37667322,0.1178414002,-0.5372769237,-0.04793548584,2024-06-04 14:56:35.376673
42.417179,-0.05685681105,0.05485950038,-0.2579195499,2024-06-04 14:56:35.417179
42.45765431,-0.06750914454,-0.3117138147,-0.253392309,2024-06-04 14:56:35.457654
42.49817036,-0.1046591476,0.2127802968,-0.2797568142,2024-06-04 14:56:35.498170
42.53865098,-0.02782921307,0.009054481052,-0.1402112991,2024-06-04 14:56:35.538651
42.57914369,-0.05153064802,0.2458025217,-0.2129134536,2024-06-04 14:56:35.579144
42.61964395,-0.007589785382,-0.006657706574,-0.2166417688,2024-06-04 14:56:35.619644
42.66012322,0.01504641678,0.2801562846,-0.1929403245,2024-06-04 14:56:35.660123
42.700604,0.09760197252,-0.2022611201,-0.1631138027,2024-06-04 14:56:35.700604
42.74110697,0.0949388966,0.08601756394,-0.1303578913,2024-06-04 14:56:35.741107
42.78159697,0.1934729517,-0.0708379969,0.0596530512,2024-06-04 14:56:35.781597
42.82208468,0.1266295761,-0.03648423031,0.1938724071,2024-06-04 14:56:35.822085
42.86254952,0.1825543046,0.1137136221,0.1786928326,2024-06-04 14:56:35.862550
42.90299145,0.1447385401,0.02663082629,0.1491326243,2024-06-04 14:56:35.902991
42.94350025,0.04300878197,0.4151745737,0.1627143472,2024-06-04 14:56:35.943500
42.98398296,0.2009295821,-0.1679073572,0.07696308941,2024-06-04 14:56:35.983983
43.02448728,0.0957378149,0.4173050225,0.08761541545,2024-06-04 14:56:36.024487
43.06498556,0.0683080703,-0.4406070113,0.2817541361,2024-06-04 14:56:36.064986
43.105479,-0.01744319126,-0.1998643428,0.01384802908,2024-06-04 14:56:36.105479
43.14594879,-0.1326215118,-0.2925396264,-0.0149132628,2024-06-04 14:56:36.145949
43.18642655,-0.1272953451,-0.018907886,-0.07216953486,2024-06-04 14:56:36.186427
43.22691416,-0.09214265645,-0.02902759984,-0.1260969639,2024-06-04 14:56:36.226914
43.26743077,-0.06564498693,0.03408745676,-0.1394123733,2024-06-04 14:56:36.267431
43.30793936,-0.06617759913,-0.04926702753,-0.08521863818,2024-06-04 14:56:36.307939
43.34842869,-0.05579157919,-0.01944050193,-0.02556559257,2024-06-04 14:56:36.348429
43.3888839,-0.04993279651,-0.1107842326,0.0708379969,2024-06-04 14:56:36.388884
43.42934046,-0.004926702939,0.01091863867,0.1608501822,2024-06-04 14:56:36.429340
43.46985254,0.01824211515,-0.1123820841,0.1083874628,2024-06-04 14:56:36.469853
43.51035962,0.01504641678,-0.06231613085,0.005592473317,2024-06-04 14:56:36.510360
43.550864,0.01957365684,0.01278279629,-0.003462007269,2024-06-04 14:56:36.550864
43.5913628,0.04194355011,-0.0713706091,-0.02902759984,2024-06-04 14:56:36.591363
43.63179931,0.04274247587,-0.002663082443,-0.02183727734,2024-06-04 14:56:36.631799
43.67226025,-0.02223674022,-0.002396774245,-0.02316881903,2024-06-04 14:56:36.672260
43.71273286,-0.04833494872,0.002396774245,-0.02343512699,2024-06-04 14:56:36.712733
43.75321062,-0.04513924941,-0.02902759984,-0.01544587873,2024-06-04 14:56:36.753211
43.79377155,-0.02782921307,0.02023942769,0.0,2024-06-04 14:56:36.793772
43.83428744,-0.009453942999,-0.07722939551,0.01065232977,2024-06-04 14:56:36.834287
43.87473572,-0.02569874749,-0.06897383928,0.004793548491,2024-06-04 14:56:36.874736
43.91524489,-0.02303566411,-0.0330222249,0.02077204362,2024-06-04 14:56:36.915245
43.95573343,-0.005725627299,-0.04687025398,-0.01118494663,2024-06-04 14:56:36.955733
43.99622192,0.01105179265,0.0,-0.02929390781,2024-06-04 14:56:36.996222
44.03666499,0.05286218971,-0.04607132822,-0.02316881903,2024-06-04 14:56:37.036665
44.07722989,0.0842865631,0.01091863867,-0.01384802908,2024-06-04 14:56:37.077230
44.11768082,0.1093195379,0.002663082443,-0.0298265256,2024-06-04 14:56:37.117681
44.15817327,0.1271621883,0.01011971384,-0.001597849536,2024-06-04 14:56:37.158173
44.19866176,0.1322220564,-0.06364767253,0.01225017942,2024-06-04 14:56:37.198662
44.23913077,0.1287600398,-0.06284874678,0.0146469539,2024-06-04 14:56:37.239131
44.27964358,0.1314231306,-0.112115778,-0.01784265228,2024-06-04 14:56:37.279644
44.32013619,0.1079879999,-0.1142462417,-0.0596530512,2024-06-04 14:56:37.320136
44.36062572,0.08961272985,-0.09613727778,-0.04926702753,2024-06-04 14:56:37.360626
44.40111202,0.1109173894,-0.1049254537,-0.0221035853,2024-06-04 14:56:37.401112
44.44152723,0.1226349548,-0.1378145218,-0.01571218669,2024-06-04 14:56:37.441527
44.48200567,0.1183740199,-0.1439396143,0.03248960897,2024-06-04 14:56:37.482006
44.5225303,0.1247654185,-0.2211690098,0.06151720881,2024-06-04 14:56:37.522530
44.56300119,0.084020257,-0.2342181057,0.04367455468,2024-06-04 14:56:37.563001
44.60353447,0.06697652489,-0.2730991244,0.03035914153,2024-06-04 14:56:37.603534
44.64399791,0.04087831825,-0.2904091477,0.02103835158,2024-06-04 14:56:37.643998
44.68455603,0.01291595027,-0.3442034125,0.02263620123,2024-06-04 14:56:37.684556
44.72499462,-0.02037258074,-0.3641765416,0.0149132628,2024-06-04 14:56:37.724995
44.76548364,-0.01877473295,-0.3854812086,0.03888100386,2024-06-04 14:56:37.765484
44.80595666,-0.04806863889,-0.3375457227,0.06497921795,2024-06-04 14:56:37.805957
44.84644051,-0.07842778414,-0.4211665094,0.1248985752,2024-06-04 14:56:37.846441
44.88695994,-0.1395455301,-0.3734973371,0.1584534049,2024-06-04 14:56:37.886960
44.92745473,-0.1789591461,-0.4717650712,0.2239652425,2024-06-04 14:56:37.927455
44.96794379,-0.2340849638,-0.4624442756,0.2282261699,2024-06-04 14:56:37.967944
45.00833249,-0.2537917793,-0.4515256584,0.2809551954,2024-06-04 14:56:38.008332
45.04885129,-0.2410089672,-0.5820167065,0.2985315621,2024-06-04 14:56:38.048851
45.08941551,-0.2692376375,-0.3263607621,0.2543243766,2024-06-04 14:56:38.089416
45.12989952,-0.1555240154,-0.4664389193,0.302526176,2024-06-04 14:56:38.129900
45.17039036,-0.1760297567,-0.4081174135,0.3344831765,2024-06-04 14:56:38.170390
45.21087911,-0.1464695334,-0.3676385581,0.4061200917,2024-06-04 14:56:38.210879
45.25129343,-0.1645784974,-0.359382987,0.446598947,2024-06-04 14:56:38.251293
45.29181176,-0.2527265251,-0.3194367588,0.3802881837,2024-06-04 14:56:38.291812
45.33230056,-0.3017272651,-0.2941374779,0.3214340508,2024-06-04 14:56:38.332301
45.37274614,-0.2466014475,-0.2573869228,0.3781577349,2024-06-04 14:56:38.372746
45.41323671,-0.34513551,-0.2587184608,0.3629781604,2024-06-04 14:56:38.413237
45.45377629,-0.2961347699,-0.2834851444,0.4423380196,2024-06-04 14:56:38.453776
45.4942928,-0.2644441128,-0.1857500076,0.321167767,2024-06-04 14:56:38.494293
45.53479718,-0.3091838956,-0.1213034093,0.3469996452,2024-06-04 14:56:38.534797
45.5752828,-0.2897433937,-0.1452711523,0.3512606025,2024-06-04 14:56:38.575283
45.61572661,-0.2860150635,0.03728315607,0.3246297538,2024-06-04 14:56:38.615727
45.65621702,-0.1898777932,-0.1780270636,0.2636451721,2024-06-04 14:56:38.656217
45.69671056,-0.03661738336,-0.1402112991,0.07962616533,2024-06-04 14:56:38.696711
45.7372152,0.003861469682,-0.121836029,-0.04766917601,2024-06-04 14:56:38.737215
45.77771364,-0.02330197208,-0.118640326,0.05698996782,2024-06-04 14:56:38.777714
45.81820536,-0.04247616604,0.01065232977,0.243672058,2024-06-04 14:56:38.818205
45.85869437,-0.08588441461,-0.03062544949,0.2836183012,2024-06-04 14:56:38.858694
45.89917994,-0.2162422985,0.03621792421,0.2258294076,2024-06-04 14:56:38.899180
45.93966286,-0.2258294076,-0.07643046975,0.1552577168,2024-06-04 14:56:38.939663
45.98007546,-0.1826874614,-0.04074516147,0.222367391,2024-06-04 14:56:38.980075
46.02057801,-0.1145125479,-0.02077204362,0.1933397949,2024-06-04 14:56:39.020578
46.06110202,-0.08721595258,0.0980014354,0.09134373069,2024-06-04 14:56:39.061102
46.10157775,-0.002263620263,0.04500609636,0.08575125784,2024-06-04 14:56:39.101578
46.14201603,0.2001306564,-0.002130466048,0.05885412544,2024-06-04 14:56:39.142016
46.18251567,0.2493976802,-0.1202381775,0.01331541315,2024-06-04 14:56:39.182516
46.22299697,0.3473991156,-0.05938674137,0.09107742459,2024-06-04 14:56:39.222997
46.2635078,0.3870790601,0.1070559174,0.1762960702,2024-06-04 14:56:39.263508
46.30401134,0.3431381881,0.1936061084,0.2500634491,2024-06-04 14:56:39.304011
46.344554,0.2440715134,0.09533835202,0.3310211599,2024-06-04 14:56:39.344554
46.38503838,0.1300915778,0.06524552405,0.3824186623,2024-06-04 14:56:39.385038
46.42542473,0.03954677656,-0.07776200771,0.4418053925,2024-06-04 14:56:39.425425
46.46597046,-0.05259587988,-0.204924196,0.5170374513,2024-06-04 14:56:39.465970
46.50650124,-0.05632419512,-0.1631138027,0.6792191863,2024-06-04 14:56:39.506501
46.54698952,-0.1230344176,-0.0820229426,0.8872059584,2024-06-04 14:56:39.546990
46.58746124,-0.07736254483,-0.1070559174,0.9226249456,2024-06-04 14:56:39.587461
46.62793733,0.001464695437,-0.09880036116,0.9322120547,2024-06-04 14:56:39.627937
46.66843692,0.08854749799,-0.2376801223,0.8810808659,2024-06-04 14:56:39.668437
46.70892629,0.2808220685,-0.3971987665,0.921826005,2024-06-04 14:56:39.708926
46.74940957,0.3758940995,-0.5567173958,0.9503210187,2024-06-04 14:56:39.749410
46.78990739,0.377491951,-0.4384765327,0.9617722631,2024-06-04 14:56:39.789907
46.83039921,0.4323514402,-0.5127765536,0.9617722631,2024-06-04 14:56:39.830399
46.87089004,0.4714987576,-0.6153052449,0.8834776282,2024-06-04 14:56:39.870890
46.91138072,0.5573831797,-0.8471265435,0.7812152505,2024-06-04 14:56:39.911381
46.95186978,0.5146406889,-0.6643059254,0.7242252827,2024-06-04 14:56:39.951870
46.99225421,0.3479317427,-0.4403406978,0.5561847687,2024-06-04 14:56:39.992254
47.03277509,0.2568543255,-0.1684399694,0.3227656186,2024-06-04 14:56:40.032775
47.0732916,0.1591191888,-0.4664389193,-0.1548582464,2024-06-04 14:56:40.073292
47.11378567,0.1458037645,-0.9366061091,-0.5721632838,2024-06-04 14:56:40.113786
47.15431036,0.2390116602,-0.68321383,-0.4035901725,2024-06-04 14:56:40.154310
47.19479936,0.2882786989,-0.9400681257,-0.2677729428,2024-06-04 14:56:40.194799
47.23528838,0.4746944606,-1.212501526,-0.4552539587,2024-06-04 14:56:40.235288
47.27574957,-0.000133154128,-1.32115531,-0.343937099,2024-06-04 14:56:40.275750
47.31622483,-0.4306204617,-0.74592942,-0.2214353085,2024-06-04 14:56:40.316225
47.35672447,-0.5193011165,-0.2270277888,-0.2179733068,2024-06-04 14:56:40.356724
47.39722004,-0.263112545,-0.238479048,-0.2736317217,2024-06-04 14:56:40.397220
47.43764671,0.01131810062,-0.6033213735,-0.2898765504,2024-06-04 14:56:40.437647
47.47819692,-0.001464695437,-0.5559184551,-0.3082517982,2024-06-04 14:56:40.478197
47.51869999,0.002796236658,-0.5007926822,-0.2629793882,2024-06-04 14:56:40.518700
47.559189,0.0003994623839,-0.4432700872,-0.1745650619,2024-06-04 14:56:40.559189
47.59967702,-0.0126496423,-0.2893439233,-0.09959928691,2024-06-04 14:56:40.599677
47.64016202,-0.146735847,-0.07882724702,-0.1234338731,2024-06-04 14:56:40.640162
47.68064707,-0.1416759938,-0.0713706091,-0.09240896255,2024-06-04 14:56:40.680647
47.72114676,-0.1451379955,-0.03834838793,-0.07962616533,2024-06-04 14:56:40.721147
47.76159707,-0.1579207927,-0.2336854935,-0.1223686412,2024-06-04 14:56:40.761597
47.8020439,-0.1288931966,-0.1431406885,-0.1258306503,2024-06-04 14:56:40.802044
47.8425314,-0.1523283273,-0.171901986,-0.168706283,2024-06-04 14:56:40.842531
47.88301114,-0.117974557,-0.1897446364,-0.1780270636,2024-06-04 14:56:40.883011
47.92352572,0.005725627299,-0.24753353,-0.1665758193,2024-06-04 14:56:40.923526
47.9640139,0.0952052027,-0.2800231278,-0.1695052087,2024-06-04 14:56:40.964014
48.00449468,0.1255643368,-0.1567224115,-0.1607170254,2024-06-04 14:56:41.004495
48.04496473,0.07097115368,0.2338186502,-0.07909355313,2024-06-04 14:56:41.044965
48.08549822,0.06351451576,0.5929353237,0.07616416365,2024-06-04 14:56:41.085498
48.12599895,0.03475322574,0.6962629557,0.2335523367,2024-06-04 14:56:41.125999
48.16646223,-0.08188978583,0.8131722808,0.3336842358,2024-06-04 14:56:41.166462
48.20690462,-0.1842853129,0.7966611385,0.3869459033,2024-06-04 14:56:41.206905
48.24748374,-0.2324871123,0.6685668826,0.3182383776,2024-06-04 14:56:41.247484
48.28795192,-0.31024912,0.6880073547,0.1704372764,2024-06-04 14:56:41.287952
48.3284453,-0.2860150635,0.5005263686,0.09986559302,2024-06-04 14:56:41.328445
48.36893457,-0.2559222281,0.3145100474,0.1238333359,2024-06-04 14:56:41.368935
48.40940744,-0.2564548552,0.2836183012,0.1107842326,2024-06-04 14:56:41.409407
48.44984286,-0.2545906901,0.3469996452,0.09507204592,2024-06-04 14:56:41.449843
48.4904027,-0.2950695455,0.5204994678,0.07776200771,2024-06-04 14:56:41.490403
48.53088687,-0.2620473206,0.5985277891,0.03435376659,2024-06-04 14:56:41.530887
48.57136968,-0.2098509073,0.4412727654,0.06870753318,2024-06-04 14:56:41.571370
48.61182661,-0.05366111174,-0.1189066395,0.04447348043,2024-06-04 14:56:41.611827
48.65227108,-0.08721595258,-0.2272941023,-0.03861469775,2024-06-04 14:56:41.652271
48.69278306,-0.1853505522,-0.06311506033,-0.09453943372,2024-06-04 14:56:41.692783
48.73328062,-0.1619154215,0.07536523789,-0.1111836955,2024-06-04 14:56:41.733281
48.7738053,-0.1629806459,0.1595186442,-0.1282274276,2024-06-04 14:56:41.773805
48.814324,-0.1304910481,0.06364767253,-0.1189066395,2024-06-04 14:56:41.814324
48.85479478,-0.03262276202,-0.1402112991,-0.0822892487,2024-06-04 14:56:41.854795
48.89526212,0.05366111174,-0.2800231278,-0.06924014539,2024-06-04 14:56:41.895262
48.93575452,0.05951989442,-0.4137098789,-0.09720251709,2024-06-04 14:56:41.935755
48.97624348,0.002796236658,-0.5849460959,-0.06977276504,2024-06-04 14:56:41.976243
49.01673671,-0.2673735023,-0.345801264,-0.01011971384,2024-06-04 14:56:42.016737
49.05723108,-0.2806889117,-0.2581858635,-0.09214265645,2024-06-04 14:56:42.057231
49.09771431,-0.06644391268,-0.1487331539,-0.1862826198,2024-06-04 14:56:42.097714
49.13820796,0.0733679235,-0.1348851323,-0.2291582525,2024-06-04 14:56:42.138208
49.17870036,0.1034607589,-0.1057243794,-0.1924077123,2024-06-04 14:56:42.178700
49.21916327,0.01504641678,0.02157096937,-0.158320263,2024-06-04 14:56:42.219163
49.25962176,-0.1217028722,0.05432688445,-0.08362079412,2024-06-04 14:56:42.259622
49.30015426,-0.1115831584,0.0149132628,-0.06258244067,2024-06-04 14:56:42.300154
49.34064364,-0.05206326395,-0.09533835202,-0.07003907114,2024-06-04 14:56:42.340644
49.38112739,-0.05312849581,-0.1665758193,-0.07509893179,2024-06-04 14:56:42.381127
49.421594,-0.06351451576,-0.1500647068,-0.06577813625,2024-06-04 14:56:42.421594
49.46206114,-0.06431344151,-0.156456098,-0.056723658,2024-06-04 14:56:42.462061
49.50254291,-0.112115778,-0.05539211631,-0.03888100386,2024-06-04 14:56:42.502543
49.54302265,-0.1304910481,-0.03009283356,-0.006125089712,2024-06-04 14:56:42.543023
49.58353791,-0.1126483902,-0.003462007269,0.005326164886,2024-06-04 14:56:42.583538
49.6240603,-0.07256899774,-0.04314193875,-0.007190322969,2024-06-04 14:56:42.624060
49.6645753,-0.03475322574,-0.09161003679,-0.02103835158,2024-06-04 14:56:42.664575
49.70507114,-0.02410089783,-0.1139799356,-0.03195698932,2024-06-04 14:56:42.705071
49.74557291,-0.05259587988,-0.07536523789,-0.03382114694,2024-06-04 14:56:42.745573
49.78607395,-0.103061296,-0.06125089899,-0.03675054014,2024-06-04 14:56:42.786074
49.82653712,-0.1267627329,-0.05166380107,-0.03222329915,2024-06-04 14:56:42.826537
49.86700108,-0.148067385,-0.04234301299,-0.03009283356,2024-06-04 14:56:42.867001
49.90749072,-0.1523283273,-0.07802832127,-0.04953333735,2024-06-04 14:56:42.907491
49.9479827,-0.1515294015,-0.09427312016,-0.07243584841,2024-06-04 14:56:42.947983
49.98837213,-0.09666989744,-0.1617822647,-0.1073222235,2024-06-04 14:56:42.988372
50.02887176,-0.084020257,-0.1434070021,-0.1484668553,2024-06-04 14:56:43.028872
50.06941483,-0.1233007237,-0.1062569916,-0.1559234858,2024-06-04 14:56:43.069415
50.1099252,-0.1451379955,-0.03035914153,-0.1298252791,2024-06-04 14:56:43.109925
50.15041093,-0.1158440933,-0.01757634431,-0.1014634445,2024-06-04 14:56:43.150411
50.190899,-0.07789516449,-0.01331541315,-0.07669677585,2024-06-04 14:56:43.190899
50.23136463,-0.07390054315,0.02876129188,-0.03328853101,2024-06-04 14:56:43.231365
50.27181681,-0.09640359133,0.05166380107,0.002663082443,2024-06-04 14:56:43.271817
50.31229119,-0.1035939083,0.05858781561,0.00798924733,2024-06-04 14:56:43.312291
50.35279181,-0.113447316,0.02529928461,0.06045197323,2024-06-04 14:56:43.352792
50.39332442,-0.1248985752,-0.02023942769,0.116643019,2024-06-04 14:56:43.393324
50.43383374,-0.1579207927,-0.03035914153,0.1099853069,2024-06-04 14:56:43.433834
50.47433431,-0.1970681101,-0.03169068322,0.08015878499,2024-06-04 14:56:43.474334
50.51480702,-0.2029268891,-0.06204982474,0.04740286991,2024-06-04 14:56:43.514807
50.55528223,-0.1991985738,-0.07909355313,0.05086487532,2024-06-04 14:56:43.555282
50.59575687,-0.2047910541,-0.1051917598,0.06684337556,2024-06-04 14:56:43.595757
50.63625546,-0.1850842386,-0.1009308323,0.08255556226,2024-06-04 14:56:43.636255
50.67677525,-0.1696383655,-0.09453943372,0.09480573982,2024-06-04 14:56:43.676775
50.71727739,-0.1933397949,-0.07243584841,0.1115831584,2024-06-04 14:56:43.717277
50.7577477,-0.2591179311,0.001331541222,0.1464695334,2024-06-04 14:56:43.757748
50.7982241,-0.284417212,-0.01731003635,0.1256974936,2024-06-04 14:56:43.798224
50.83870744,-0.3366136253,-0.01358172111,0.1099853069,2024-06-04 14:56:43.838707
50.87921629,-0.3075860441,-0.037815772,0.107588537,2024-06-04 14:56:43.879216
50.91968478,-0.2383458912,-0.009853405878,0.09347419441,2024-06-04 14:56:43.919685
50.96017327,-0.2029268891,0.06790860742,0.08468602598,2024-06-04 14:56:43.960173
51.00066187,-0.1406107545,0.2372806519,0.09054480493,2024-06-04 14:56:44.000662
51.04108239,-0.1789591461,0.423430115,0.1280942708,2024-06-04 14:56:44.041082
51.08160463,-0.177094996,0.5766905546,0.07616416365,2024-06-04 14:56:44.081605
51.12209317,-0.1901440918,0.5671034455,0.195203945,2024-06-04 14:56:44.122093
51.16255968,-0.305721879,0.6565830112,0.2868140042,2024-06-04 14:56:44.162560
51.20304812,-0.2591179311,0.4338161349,0.2716344297,2024-06-04 14:56:44.203048
51.24353822,-0.21784015,0.3477985859,0.3752283454,2024-06-04 14:56:44.243538
51.28403661,-0.1312899739,0.2942706347,0.6424686909,2024-06-04 14:56:44.284037
51.32458728,0.07097115368,0.08575125784,0.7793511152,2024-06-04 14:56:44.324587
51.36503088,0.1860163212,0.02343512699,0.476958096,2024-06-04 14:56:44.365031
51.40551983,0.3407414258,-0.07430000603,0.1762960702,2024-06-04 14:56:44.405520
51.44597905,0.3202356696,0.07749570161,0.1227681041,2024-06-04 14:56:44.445979
51.48648306,0.2635120153,-0.1205044836,-0.1695052087,2024-06-04 14:56:44.486483
51.52702619,0.1721682847,0.008521864191,-0.3804213405,2024-06-04 14:56:44.527026
51.56748661,0.00998655986,0.2700365782,-0.4267589748,2024-06-04 14:56:44.567487
51.60799436,-0.1326215118,0.2764279842,-0.5189016461,2024-06-04 14:56:44.607994
51.64847629,-0.08162347972,0.1427412182,-0.4475310147,2024-06-04 14:56:44.648476
51.68897072,0.006524552125,-0.07323476672,-0.3545894325,2024-06-04 14:56:44.688971
51.72944968,0.09840089828,-0.05778888986,-0.2142449915,2024-06-04 14:56:44.729450
51.76993681,0.09813459218,0.003462007269,-0.06737598777,2024-06-04 14:56:44.769937
51.81044186,0.08615072072,-0.09027849883,0.03595161438,2024-06-04 14:56:44.810442
51.85092796,0.02782921307,-0.07802832127,0.139012903,2024-06-04 14:56:44.850928
51.89142009,0.01105179265,-0.1319557428,0.3715000153,2024-06-04 14:56:44.891420
51.93183806,0.04114462435,-0.06471290439,0.490539819,2024-06-04 14:56:44.931838
51.97232582,0.204924196,-0.2022611201,0.4809527099,2024-06-04 14:56:44.972326
52.01281358,0.4238295853,-0.2238320857,0.6552514434,2024-06-04 14:56:45.012814
52.05328947,0.5117112994,-0.2877460718,0.7370080948,2024-06-04 14:56:45.053289
52.093809,0.6487269402,-0.3031919599,0.7300840616,2024-06-04 14:56:45.093809
52.13431796,0.6388735175,-0.4147751033,0.7183665037,2024-06-04 14:56:45.134318
52.17479994,0.6258243918,-0.3857475221,0.7207632661,2024-06-04 14:56:45.174800
52.2152514,0.555785358,-0.3527252972,0.5697665215,2024-06-04 14:56:45.215251
52.25577374,0.4043890834,-0.2629793882,0.3129121959,2024-06-04 14:56:45.255774
52.29627546,0.4179708064,-0.2736317217,0.1800243855,2024-06-04 14:56:45.296275
52.33676202,0.2693707943,-0.05698996782,0.1568555683,2024-06-04 14:56:45.336762
52.37725525,0.2709686458,-0.08149032295,0.1688394397,2024-06-04 14:56:45.377255
52.41770577,0.2794905007,-0.04713656008,0.3083849549,2024-06-04 14:56:45.417706
52.45821442,0.2589847744,0.0458050184,0.3746957183,2024-06-04 14:56:45.458214
52.49872452,0.3370130956,-0.0868164897,0.467903614,2024-06-04 14:56:45.498725
52.53921239,0.3106485903,-0.018907886,0.4314193726,2024-06-04 14:56:45.539212
52.5796991,0.3567199111,-0.06178351492,0.4580501914,2024-06-04 14:56:45.579699
52.62019322,0.360714525,-0.06258244067,0.3685706258,2024-06-04 14:56:45.620193
52.66068067,0.378823489,-0.1287600398,0.343803972,2024-06-04 14:56:45.660681
52.70116989,0.2190385461,-0.05006595328,0.1962691844,2024-06-04 14:56:45.701170
52.74164473,0.07123745978,0.07643046975,-0.005326164886,2024-06-04 14:56:45.741645
52.78208468,-0.1302247345,0.1350182891,-0.248865068,2024-06-04 14:56:45.782085
52.82255692,-0.3248960674,0.2066552043,-0.4081174135,2024-06-04 14:56:45.822557
52.86305577,-0.3459344208,0.07030537724,-0.4086500108,2024-06-04 14:56:45.863056
52.90356749,-0.3067871034,0.1784265339,-0.1916087866,2024-06-04 14:56:45.903567
52.94406202,-0.003062544856,0.1185071766,0.1267627329,2024-06-04 14:56:45.944062
52.9845502,0.1844184697,-0.04473978654,0.5138418078,2024-06-04 14:56:45.984550
53.02503754,0.2376801223,-0.1479342431,0.5697665215,2024-06-04 14:56:46.025038
53.06560134,0.1252980381,-0.1022623703,0.1723014414,2024-06-04 14:56:46.065601
53.10607942,-0.1123820841,0.02849498391,-0.2571206093,2024-06-04 14:56:46.106079
53.14654879,-0.2665745616,0.1350182891,-0.6187672615,2024-06-04 14:56:46.146549
53.18696931,-0.09214265645,-0.01544587873,-0.239810586,2024-06-04 14:56:46.186969
53.22750681,0.01904104091,-0.1671084315,0.3323526978,2024-06-04 14:56:46.227507
53.26801405,0.1985328048,-0.2557890713,0.6778876781,2024-06-04 14:56:46.268014
53.30849332,0.1018629074,-0.01411433797,0.3675054014,2024-06-04 14:56:46.308493
53.3489866,-0.151263088,0.1193061024,-0.1913424879,2024-06-04 14:56:46.348987
53.38948212,-0.2410089672,0.1584534049,-0.4621779919,2024-06-04 14:56:46.389482
53.42988999,-0.2037258148,0.07989247888,-0.1822880059,2024-06-04 14:56:46.429890
53.47043207,-0.1107842326,-0.1545919478,0.1965354979,2024-06-04 14:56:46.470432
53.51094489,-0.08188978583,-0.1615159512,0.2647103965,2024-06-04 14:56:46.510945
53.5514365,-0.142208606,-0.04500609636,0.1294258088,2024-06-04 14:56:46.551437
53.59185713,-0.2375469655,0.06391397864,0.01198387146,2024-06-04 14:56:46.591857
53.63233259,-0.2380795777,0.1233007237,-0.07909355313,2024-06-04 14:56:46.632333
53.67282853,-0.1379476786,0.1057243794,-0.06577813625,2024-06-04 14:56:46.672829
53.71332098,0.0006657706108,-0.0037283157,0.01837527007,2024-06-04 14:56:46.713321
53.75381619,0.08215609938,-0.08947957307,0.04181039706,2024-06-04 14:56:46.753816
53.79435364,0.09760197252,-0.07749570161,0.000266308256,2024-06-04 14:56:46.794354
53.83482062,0.08242240548,-0.04553871229,-0.04660394415,2024-06-04 14:56:46.834821
53.87530098,0.07017222792,-0.0229025092,-0.04740286991,2024-06-04 14:56:46.875301
53.91581322,0.06697652489,-0.03222329915,-0.0410114713,2024-06-04 14:56:46.915813
53.95630212,0.05339480564,-0.0599193573,-0.04207670316,2024-06-04 14:56:46.956302
53.9967566,0.03209014609,-0.04340824485,-0.04021254554,2024-06-04 14:56:46.996757
54.03723759,0.02383458801,-0.03222329915,-0.01384802908,2024-06-04 14:56:47.037238
54.07778384,-0.000932078925,0.01278279629,0.01091863867,2024-06-04 14:56:47.077784
54.1182664,-0.01211702544,0.0260982085,0.01118494663,2024-06-04 14:56:47.118266
54.15873775,0.001464695437,0.03595161438,0.005326164886,2024-06-04 14:56:47.158738
54.199189,0.03901416063,0.02529928461,-0.005858781748,2024-06-04 14:56:47.199189
54.23966119,0.05525896326,0.008521864191,-0.02050573565,2024-06-04 14:56:47.239661
54.28021723,0.05392742157,-0.006125089712,-0.02929390781,2024-06-04 14:56:47.280217
54.3207128,0.05898727849,-0.002130466048,-0.03062544949,2024-06-04 14:56:47.320713
54.36119489,0.05632419512,-0.00798924733,-0.02822867595,2024-06-04 14:56:47.361195
54.40165233,0.03928046674,0.01065232977,-0.02343512699,2024-06-04 14:56:47.401652
54.44209119,0.0384815447,0.01864157803,-0.02423405088,2024-06-04 14:56:47.442091
54.48259733,0.03342168778,0.009320789017,-0.01411433797,2024-06-04 14:56:47.482597
54.52306254,0.028361829,0.0298265256,0.01677742042,2024-06-04 14:56:47.523063
54.56360405,0.02782921307,0.06977276504,0.03541899845,2024-06-04 14:56:47.563604
54.60410431,0.01904104091,-0.0007989247679,0.04500609636,2024-06-04 14:56:47.604104
54.64463947,-0.028361829,-0.01837527007,0.03754946589,2024-06-04 14:56:47.644639
54.68506749,-0.06244928762,-0.01624480449,0.009853405878,2024-06-04 14:56:47.685067
54.72549436,-0.06351451576,0.009320789017,-0.002396774245,2024-06-04 14:56:47.725494
54.76606437,-0.03342168778,0.0330222249,0.007190322969,2024-06-04 14:56:47.766064
54.8065503,0.004660394508,0.02423405088,0.002929390874,2024-06-04 14:56:47.806550
54.84703577,0.02037258074,0.000266308256,-0.01677742042,2024-06-04 14:56:47.847036
54.88755187,0.02330197208,-0.02236989327,-0.02902759984,2024-06-04 14:56:47.887552
54.92802661,0.02330197208,-0.02077204362,-0.0260982085,2024-06-04 14:56:47.928027
54.96844452,0.007589785382,0.0037283157,-0.01038602181,2024-06-04 14:56:47.968445
55.00893358,-0.0003994623839,0.0487344116,0.01331541315,2024-06-04 14:56:48.008934
55.04940989,0.004394086078,0.05645735189,0.03568530455,2024-06-04 14:56:48.049410
55.08998588,0.007323476952,0.04660394415,0.0298265256,2024-06-04 14:56:48.089986
55.13045759,-0.003861469682,-0.004260932095,0.000266308256,2024-06-04 14:56:48.130458
55.17094322,-0.01424749196,-0.03888100386,-0.01225017942,2024-06-04 14:56:48.170943
55.21143233,-0.01797580719,-0.03675054014,-0.004793548491,2024-06-04 14:56:48.211432
55.25192145,-0.01983996481,-0.01864157803,0.007190322969,2024-06-04 14:56:48.251921
55.29232952,-0.01424749196,0.005059856921,0.01251648832,2024-06-04 14:56:48.292330
55.33281858,-0.01051917579,0.003994623665,0.0114512546,2024-06-04 14:56:48.332819
55.37333832,-0.01078548469,-0.006924014539,0.006657706574,2024-06-04 14:56:48.373338
55.41386254,-0.001731003635,-0.002663082443,-0.002130466048,2024-06-04 14:56:48.413863
55.45435884,0.004926702939,-0.005326164886,-0.01038602181,2024-06-04 14:56:48.454359
55.49489119,0.01158440951,-0.01225017942,-0.005592473317,2024-06-04 14:56:48.494891
55.53535207,0.02143781446,-0.01517957076,-0.004793548491,2024-06-04 14:56:48.535352
55.57579843,0.02090519853,-0.01331541315,-0.01384802908,2024-06-04 14:56:48.575798
55.61626874,0.01504641678,-0.005059856921,-0.005858781748,2024-06-04 14:56:48.616269
55.6567777,0.01238333434,0.007190322969,0.003195699072,2024-06-04 14:56:48.656778
55.69729614,0.003861469682,0.003462007269,0.009054481052,2024-06-04 14:56:48.697296
55.7377264,-0.01158440951,0.004793548491,0.01438064594,2024-06-04 14:56:48.737726
55.77823916,-0.02383458801,0.01118494663,0.01784265228,2024-06-04 14:56:48.778239
55.81877681,-0.02623136342,0.02023942769,0.02370143496,2024-06-04 14:56:48.818777
55.85925843,-0.02782921307,0.01970681176,0.02503297664,2024-06-04 14:56:48.859258
55.8997528,-0.02596505545,0.01917419396,0.02316881903,2024-06-04 14:56:48.899753
55.94024348,-0.01158440951,0.0037283157,0.01118494663,2024-06-04 14:56:48.940243
55.98063895,0.000932078925,-0.01944050193,-0.005326164886,2024-06-04 14:56:48.980639
56.02113239,0.01877473295,-0.02023942769,-0.0114512546,2024-06-04 14:56:49.021132
56.06163025,0.02889444493,-0.01731003635,-0.02103835158,2024-06-04 14:56:49.061630
56.10211775,0.02223674022,-0.008788172156,-0.01198387146,2024-06-04 14:56:49.102118
56.14260681,0.01318225823,-0.01038602181,-0.002929390874,2024-06-04 14:56:49.142607
56.18310223,-0.005725627299,0.002929390874,0.002130466048,2024-06-04 14:56:49.183102
56.22360124,-0.02463351376,0.01358172111,0.008788172156,2024-06-04 14:56:49.223601
56.26412312,-0.0275629051,0.01677742042,0.008788172156,2024-06-04 14:56:49.264123
56.30464562,-0.02489982173,0.01198387146,0.01118494663,2024-06-04 14:56:49.304646
56.34512067,-0.01691057347,0.008521864191,0.01225017942,2024-06-04 14:56:49.345121
56.38559796,-0.01371487509,0.01118494663,0.009054481052,2024-06-04 14:56:49.385598
56.42605129,-0.007589785382,0.01331541315,0.005858781748,2024-06-04 14:56:49.426051
56.46652619,-0.003062544856,0.008788172156,-0.0007989247679,2024-06-04 14:56:49.466526
56.50704895,0.003861469682,0.009587096982,0.0,2024-06-04 14:56:49.507049
56.54755556,0.02090519853,-0.007190322969,-0.008788172156,2024-06-04 14:56:49.547556
56.58804739,0.02942706272,-0.01384802908,-0.0146469539,2024-06-04 14:56:49.588047
56.62852202,0.02170412242,-0.009853405878,-0.005326164886,2024-06-04 14:56:49.628522
56.66901931,-0.003328853287,-0.003462007269,0.007190322969,2024-06-04 14:56:49.669019
56.70947223,-0.02197043039,0.007190322969,0.0114512546,2024-06-04 14:56:49.709472
56.74995327,-0.0275629051,0.009320789017,0.006657706574,2024-06-04 14:56:49.749953
56.79048108,-0.02010627277,0.004260932095,-0.001065233024,2024-06-04 14:56:49.790481
56.83097681,0.002529928461,-0.004260932095,-0.005858781748,2024-06-04 14:56:49.830977
56.87147426,0.01957365684,-0.0074566314,-0.01225017942,2024-06-04 14:56:49.871474
56.91191051,0.02729659714,-0.006657706574,-0.0149132628,2024-06-04 14:56:49.911911
56.95236989,0.02117150649,-0.000266308256,-0.0114512546,2024-06-04 14:56:49.952370
56.99286067,0.008388710208,-0.00186415785,-0.003994623665,2024-06-04 14:56:49.992861
57.03338869,-0.0003994623839,-0.0005326165119,0.009054481052,2024-06-04 14:56:50.033389
57.07386478,-0.008921326138,-0.0007989247679,0.005592473317,2024-06-04 14:56:50.073865
57.11439348,-0.01158440951,0.0005326165119,0.006924014539,2024-06-04 14:56:50.114393
57.15485858,-0.008655018173,0.003462007269,0.008788172156,2024-06-04 14:56:50.154859
57.19529989,-0.002529928461,-0.002130466048,0.006924014539,2024-06-04 14:56:50.195300
57.23581317,-0.000133154128,0.005858781748,0.002663082443,2024-06-04 14:56:50.235813
57.27631884,0.002796236658,0.001065233024,-0.0037283157,2024-06-04 14:56:50.276319
57.3168427,0.006524552125,-0.006924014539,-0.003195699072,2024-06-04 14:56:50.316843
57.3573264,0.004926702939,-0.006924014539,-0.002929390874,2024-06-04 14:56:50.357326
57.39779145,-0.000932078925,-0.001065233024,-0.0037283157,2024-06-04 14:56:50.397791
57.43823921,-0.004926702939,0.0005326165119,-0.002130466048,2024-06-04 14:56:50.438239
57.47879457,-0.00599193573,-0.002396774245,-0.002130466048,2024-06-04 14:56:50.478795
57.51928306,0.004660394508,-0.003195699072,-0.001597849536,2024-06-04 14:56:50.519283
57.5597664,0.01611164957,0.008788172156,-0.01091863867,2024-06-04 14:56:50.559766
57.60025843,0.02117150649,-0.007190322969,-0.0146469539,2024-06-04 14:56:50.600258
57.6407416,0.02649767138,-0.01731003635,-0.008255556226,2024-06-04 14:56:50.640742
57.68123499,0.0323564522,-0.01304910425,-0.01011971384,2024-06-04 14:56:50.681235
57.72165395,0.01824211515,0.01038602181,-0.0229025092,2024-06-04 14:56:50.721654
57.76212259,0.03395430371,0.002929390874,0.08734910935,2024-06-04 14:56:50.762123
57.80261681,0.06298190355,-0.0705716908,0.444734782,2024-06-04 14:56:50.802617
57.84310494,0.09893351793,-0.1410102248,0.496398598,2024-06-04 14:56:50.843105
57.88357176,0.0736342296,-0.05406057462,0.2271609455,2024-06-04 14:56:50.883572
57.92407509,-0.1613828093,0.2159759998,-0.4696346223,2024-06-04 14:56:50.924075
57.96456327,-0.2985315621,0.2822867632,-0.9118394852,2024-06-04 14:56:50.964563
58.00503874,0.06058513001,0.0822892487,-0.1665758193,2024-06-04 14:56:51.005039
58.04559088,0.2880123854,-0.4680367708,0.5796199441,2024-06-04 14:56:51.045591
58.08609608,0.1806901544,-0.1905435622,0.2324871123,2024-06-04 14:56:51.086096
58.12657661,-0.08162347972,0.1217028722,-0.4414059222,2024-06-04 14:56:51.126577
58.16707338,-0.1371487528,0.2569874525,-0.371633172,2024-06-04 14:56:51.167073
58.20750395,-0.04567186534,-0.0596530512,0.07909355313,2024-06-04 14:56:51.207504
58.24799791,0.04460663348,-0.1822880059,0.3113143444,2024-06-04 14:56:51.247998
58.28855478,0.06378082931,-0.1503310055,0.1738992929,2024-06-04 14:56:51.288555
58.32903322,-0.0685743764,0.0114512546,-0.02929390781,2024-06-04 14:56:51.329033
58.36952416,-0.1083874628,0.07802832127,-0.07483261824,2024-06-04 14:56:51.369524
58.41001114,-0.04620448127,0.03035914153,-0.02769605815,2024-06-04 14:56:51.410011
58.4504303,0.01877473295,-0.05059856921,0.02663082629,2024-06-04 14:56:51.450430
58.49099483,0.04700340703,-0.04340824485,-0.009587096982,2024-06-04 14:56:51.490995
58.53148437,0.04274247587,0.009054481052,-0.03515268862,2024-06-04 14:56:51.531484
58.57190202,0.02489982173,-0.01784265228,-0.01571218669,2024-06-04 14:56:51.571902
58.61239129,0.009453942999,0.00798924733,0.0074566314,2024-06-04 14:56:51.612391
58.65287645,0.001731003635,-0.01198387146,-0.0007989247679,2024-06-04 14:56:51.652876
58.6933739,0.004926702939,-0.01757634431,-0.02450035885,2024-06-04 14:56:51.693374
58.73386197,-0.008388710208,0.01251648832,-0.01517957076,2024-06-04 14:56:51.733862
58.77437442,-0.01451379992,0.018907886,0.004527240526,2024-06-04 14:56:51.774374
58.81490921,-0.01291595027,-0.002663082443,-0.0005326165119,2024-06-04 14:56:51.814909
58.85539973,-0.01424749196,-0.02236989327,-0.0146469539,2024-06-04 14:56:51.855400
58.89590978,-0.02010627277,-0.03115806542,-0.00798924733,2024-06-04 14:56:51.895910
58.93644051,-0.0171768833,-0.02796236612,0.006391398143,2024-06-04 14:56:51.936441
58.97675858,-0.009187635034,-0.02503297664,0.00798924733,2024-06-04 14:56:51.976759
59.0172689,-0.005459319334,-0.018907886,0.004527240526,2024-06-04 14:56:52.017269
59.05781416,0.002263620263,-0.01118494663,0.003462007269,2024-06-04 14:56:52.057814
59.09832692,0.01398118306,-0.03035914153,-0.01198387146,2024-06-04 14:56:52.098327
59.13880697,0.009720250964,-0.01118494663,-0.01757634431,2024-06-04 14:56:52.138807
59.17926546,0.01291595027,-0.007190322969,-0.01438064594,2024-06-04 14:56:52.179265
59.21972062,0.01531272475,0.01677742042,-0.01251648832,2024-06-04 14:56:52.219721
59.260219,0.0006657706108,0.06178351492,-0.008521864191,2024-06-04 14:56:52.260219
59.30074791,-0.01078548469,0.03888100386,-0.02396774292,2024-06-04 14:56:52.300748
59.34125431,-0.0166442655,0.03435376659,-0.007190322969,2024-06-04 14:56:52.341254
59.38171041,-0.028361829,0.05938674137,0.01864157803,2024-06-04 14:56:52.381710
59.42214556,-0.02463351376,0.02689713426,0.01198387146,2024-06-04 14:56:52.422146
59.46264457,-0.02623136342,0.02423405088,0.005326164886,2024-06-04 14:56:52.462645
59.50312983,-0.03954677656,0.02689713426,0.0117175635,2024-06-04 14:56:52.503130
59.54364348,-0.02090519853,0.01970681176,0.009054481052,2024-06-04 14:56:52.543643
59.58417051,-0.00998655986,0.052196417,0.01438064594,2024-06-04 14:56:52.584171
59.624649,-0.005193010904,0.02316881903,-0.01118494663,2024-06-04 14:56:52.624649
59.66512827,-0.01451379992,0.02876129188,-0.0146469539,2024-06-04 14:56:52.665128
59.70559921,-0.006258244161,0.006125089712,-0.0114512546,2024-06-04 14:56:52.705599
59.7461515,-0.008921326138,0.0005326165119,-0.02849498391,2024-06-04 14:56:52.746152
59.78662546,-0.0126496423,0.002396774245,-0.05725627393,2024-06-04 14:56:52.786625
59.8270966,-0.008122402243,-0.01065232977,-0.04154408723,2024-06-04 14:56:52.827097
59.86760384,-0.007589785382,-0.02423405088,-0.03222329915,2024-06-04 14:56:52.867604
59.90809062,0.001997311832,-0.04074516147,-0.04633763805,2024-06-04 14:56:52.908091
59.9485753,0.003861469682,-0.03648423031,-0.03861469775,2024-06-04 14:56:52.948575
59.98897525,0.0006657706108,-0.018907886,-0.02050573565,2024-06-04 14:56:52.988975
60.02947228,0.006790860556,-0.02529928461,-0.02236989327,2024-06-04 14:56:53.029472
60.07002233,0.0003994623839,-0.01544587873,-0.02103835158,2024-06-04 14:56:53.070022
60.11052509,-0.006790860556,0.01118494663,-0.01065232977,2024-06-04 14:56:53.110525
60.15100187,-0.02969337068,-0.02050573565,-0.006125089712,2024-06-04 14:56:53.151002
60.19145259,-0.04434032366,-0.02077204362,-0.01624480449,2024-06-04 14:56:53.191453
60.23191556,-0.03262276202,-0.01331541315,-0.02450035885,2024-06-04 14:56:53.231916
60.27240442,-0.02223674022,-0.03195698932,-0.02050573565,2024-06-04 14:56:53.272404
60.3129015,-0.007057168987,-0.03115806542,-0.04127778113,2024-06-04 14:56:53.312902
60.35340056,-0.001997311832,-0.05299534276,-0.05778888986,2024-06-04 14:56:53.353401
