Time (s),Linear Acceleration x (m/s^2),Linear Acceleration y (m/s^2),Linear Acceleration z (m/s^2),Datetime
0.147616617,0.0,0.0,0.0,2024-06-04 14:55:53.147617
0.188231045,-0.5618312359,-0.1889009476,-1.55633688,2024-06-04 14:55:53.188231
0.228706565,-0.60192132,-0.1577377319,-0.5769429207,2024-06-04 14:55:53.228707
0.26920193,-0.7703182697,-0.6676688194,0.6552114487,2024-06-04 14:55:53.269202
0.309663909,0.08980321884,0.5119423866,-0.4212007523,2024-06-04 14:55:53.309664
0.350180107,-0.1892240047,0.7894306183,-0.5657167435,2024-06-04 14:55:53.350180
0.390683024,-0.4931659698,0.1242003441,1.091001511,2024-06-04 14:55:53.390683
0.431147138,-1.053871632,-0.3277688026,1.199754715,2024-06-04 14:55:53.431147
0.471646201,-2.212533712,-0.1553153992,-0.02289485931,2024-06-04 14:55:53.471646
0.512100211,0.6059811115,-1.084814072,-1.70977211,2024-06-04 14:55:53.512100
0.552785784,-0.7944903374,-1.944382429,3.053290367,2024-06-04 14:55:53.552786
0.593239117,1.858960152,-3.415628672,0.1360530853,2024-06-04 14:55:53.593239
0.633618388,0.5810077786,-1.950349808,1.243878365,2024-06-04 14:55:53.633618
0.674136982,6.614402771,-0.1529335976,1.871390343,2024-06-04 14:55:53.674137
0.714602347,-3.060293674,-3.734334469,-2.597387791,2024-06-04 14:55:53.714602
0.755078076,-0.7623984814,-2.237997532,-1.415324211,2024-06-04 14:55:53.755078
0.795594065,0.1870803833,-0.8150205612,-3.337873459,2024-06-04 14:55:53.795594
0.836132867,0.4666286707,-0.5171542168,-2.576757431,2024-06-04 14:55:53.836133
0.876530524,-0.8920074105,-1.338007927,-1.296967506,2024-06-04 14:55:53.876531
0.917026409,0.8720792532,0.4588265419,-4.454702377,2024-06-04 14:55:53.917026
0.95754469,1.292235136,-0.3133907318,-0.3371286392,2024-06-04 14:55:53.957545
0.998028805,-1.726519346,-2.522116899,-0.2766675949,2024-06-04 14:55:53.998029
1.03849542,-0.6981493235,-1.260351419,-2.787713528,2024-06-04 14:55:54.038495
1.078878701,-1.495987892,-1.608803153,-1.474470139,2024-06-04 14:55:54.078879
1.119418492,-4.055620193,-4.660504341,0.5945529938,2024-06-04 14:55:54.119418
1.159984586,1.347669244,-2.79955411,-2.973781109,2024-06-04 14:55:54.159985
1.200494013,-1.963608742,-3.350987196,1.609688759,2024-06-04 14:55:54.200494
1.241012815,0.4639303684,-1.894886017,2.893689156,2024-06-04 14:55:54.241013
1.281414534,2.702541351,0.8648636341,3.595012665,2024-06-04 14:55:54.281415
1.321935836,4.846728325,3.678506851,3.225251198,2024-06-04 14:55:54.321936
1.362378076,4.293932438,2.177230835,2.451069832,2024-06-04 14:55:54.362378
1.402910159,14.60954475,3.346445799,0.7919826508,2024-06-04 14:55:54.402910
1.44326943,4.805010319,1.230506539,3.081305504,2024-06-04 14:55:54.443269
1.483766045,-3.791664839,-3.266134024,-0.2723045349,2024-06-04 14:55:54.483766
1.524281617,-2.988010645,-1.159716845,-3.860482693,2024-06-04 14:55:54.524282
1.564762034,-0.3855569363,-1.007348776,-0.5651302338,2024-06-04 14:55:54.564762
1.605233232,0.6207489967,0.2747981548,-0.8856277466,2024-06-04 14:55:54.605233
1.645378336,-0.05058646202,0.3626410961,-1.325748444,2024-06-04 14:55:54.645378
1.68628818,-1.443066835,0.1795771122,2.661370277,2024-06-04 14:55:54.686288
1.726716461,-1.500157595,-1.476249218,1.829763412,2024-06-04 14:55:54.726716
1.767203284,-0.1231894493,-0.4094914198,0.6361808777,2024-06-04 14:55:54.767203
1.807698805,1.323219538,-0.6096791029,3.35447979,2024-06-04 14:55:54.807699
1.848201565,3.216135502,-2.977487087,-0.05172252655,2024-06-04 14:55:54.848202
1.888324899,2.39690876,-1.015109539,-1.126692772,2024-06-04 14:55:54.888325
1.929159586,2.301771164,-0.2687339783,-5.928358078,2024-06-04 14:55:54.929160
1.96968818,0.6480224729,-1.007736444,-4.908900261,2024-06-04 14:55:54.969688
2.010163336,-0.6866688728,-0.2753210068,0.04318237305,2024-06-04 14:55:55.010163
2.05064443,0.7071759701,1.043886423,-3.729807854,2024-06-04 14:55:55.050644
2.091146722,0.2765079737,-1.308711648,0.3712892532,2024-06-04 14:55:55.091147
2.131552659,-6.913999081,-0.9921578169,-0.4823226929,2024-06-04 14:55:55.131553
2.172170888,-6.879865646,-0.3293666244,-0.347325325,2024-06-04 14:55:55.172171
2.212603024,-1.96357584,1.47276032,1.776787758,2024-06-04 14:55:55.212603
2.253153961,0.8900268078,3.284770727,2.311511993,2024-06-04 14:55:55.253154
2.293570732,6.095663071,3.94644165,2.155722618,2024-06-04 14:55:55.293571
2.334064742,4.702127934,-0.4617683887,4.647416115,2024-06-04 14:55:55.334065
2.37446818,3.245790482,-2.838862896,-0.9654464722,2024-06-04 14:55:55.374468
2.415099638,1.251199245,-0.9782844782,0.5862045288,2024-06-04 14:55:55.415100
2.455550524,-0.8383287191,0.8124816418,-1.136253357,2024-06-04 14:55:55.455551
2.496051774,-1.585210919,0.7716830969,-0.8012466431,2024-06-04 14:55:55.496052
2.536544065,-0.5462733507,0.4821535349,-0.3226165771,2024-06-04 14:55:55.536544
2.577008857,1.522841454,0.6203621626,-0.4992332458,2024-06-04 14:55:55.577009
2.617412659,2.533793211,-1.775619864,2.390630722,2024-06-04 14:55:55.617413
2.657840263,1.152413368,0.7439749241,-1.947022438,2024-06-04 14:55:55.657840
2.698488649,-2.34880209,0.4982634783,3.21562624,2024-06-04 14:55:55.698489
2.73897068,0.3171420097,-1.160061121,-0.6925535202,2024-06-04 14:55:55.738971
2.779458232,0.3653187752,0.1068160534,-0.8952484131,2024-06-04 14:55:55.779458
2.819950211,1.080901623,-0.3795051575,-1.334119797,2024-06-04 14:55:55.819950
2.860357295,0.04115915298,-0.6791234016,0.1414022446,2024-06-04 14:55:55.860357
2.900762503,1.399585009,-1.297323942,-1.059576035,2024-06-04 14:55:55.900763
2.941407138,1.305239916,1.360216856,0.3013963699,2024-06-04 14:55:55.941407
2.981839795,-0.59364748,-0.06657290459,1.012698174,2024-06-04 14:55:55.981840
3.022432659,-2.091172695,-1.211064816,1.946703911,2024-06-04 14:55:56.022433
3.062921513,0.8102200031,0.5627034903,1.97248745,2024-06-04 14:55:56.062922
3.103389951,-2.133774281,-2.061156511,-2.794981003,2024-06-04 14:55:56.103390
3.143883701,1.919658899,-0.7801027298,0.4637155533,2024-06-04 14:55:56.143884
3.184370732,3.503315926,-0.4232642651,1.428889275,2024-06-04 14:55:56.184371
3.224850888,0.4541096687,-4.087327003,-0.5665822029,2024-06-04 14:55:56.224851
3.265342242,1.030834198,-0.358631134,-4.181989193,2024-06-04 14:55:56.265342
3.305825888,-0.007576942444,-1.250670195,-5.28393364,2024-06-04 14:55:56.305826
3.346309534,-0.6719779968,-1.457168818,-1.49605751,2024-06-04 14:55:56.346310
3.386798545,-1.39262104,0.8768765926,-0.51212883,2024-06-04 14:55:56.386799
3.427295732,-1.90449667,-0.2195463181,-1.536849022,2024-06-04 14:55:56.427296
3.467768701,-3.270264149,-0.1773171425,-3.404623032,2024-06-04 14:55:56.467769
3.508269638,-3.874660492,-0.2280421257,0.4880137444,2024-06-04 14:55:56.508270
3.548758128,-1.149573803,1.107179165,5.457380295,2024-06-04 14:55:56.548758
3.589242555,-2.398296833,2.656093836,7.670894146,2024-06-04 14:55:56.589243
3.62962818,-4.413069725,-1.813414335,2.601835728,2024-06-04 14:55:56.629628
3.670203961,2.00987339,-0.09368634224,-4.886933804,2024-06-04 14:55:56.670204
3.710752867,8.46879673,2.795773506,2.389588356,2024-06-04 14:55:56.710753
3.751184638,2.416659355,0.2927482128,-0.6571879387,2024-06-04 14:55:56.751185
3.791660055,-0.8638324738,3.239642382,2.760580063,2024-06-04 14:55:56.791660
3.832160992,-0.2829742432,2.552124977,4.950115681,2024-06-04 14:55:56.832161
3.872552347,-2.34278965,-3.254070997,1.786423683,2024-06-04 14:55:56.872552
3.913155003,6.526667595,0.8638300896,-7.352449417,2024-06-04 14:55:56.913155
3.953631982,4.640261173,-1.741403103,2.768060207,2024-06-04 14:55:56.953632
3.994142242,-3.185422421,-6.652888298,-4.286636353,2024-06-04 14:55:56.994142
4.034630628,-1.535330772,-6.083313942,3.740414619,2024-06-04 14:55:57.034631
4.075112972,1.784101009,-4.998987675,-0.6812491417,2024-06-04 14:55:57.075113
4.115596357,-4.31360054,-8.941871643,-3.289016962,2024-06-04 14:55:57.115596
4.156084326,2.769238472,-2.648159027,1.31252265,2024-06-04 14:55:57.156084
4.196638753,-0.6412410736,-0.5083765984,1.503381848,2024-06-04 14:55:57.196639
4.23707443,-9.951948166,3.2984097,1.063787818,2024-06-04 14:55:57.237074
4.27754818,-5.590125561,6.696388245,3.442370892,2024-06-04 14:55:57.277548
4.318029117,-2.965754509,6.581196785,2.795913219,2024-06-04 14:55:57.318029
4.35853792,0.8828511238,8.615216255,3.810815573,2024-06-04 14:55:57.358538
4.399003076,2.311026573,4.851532459,3.126627922,2024-06-04 14:55:57.399003
4.439494378,7.634818554,-0.9605765343,-4.458629608,2024-06-04 14:55:57.439494
4.480001722,1.693140984,-3.193246603,-5.989214897,2024-06-04 14:55:57.480002
4.520539378,-0.60887146,-4.317954063,2.298121214,2024-06-04 14:55:57.520539
4.56102917,-5.264755249,-10.95763588,-2.087738514,2024-06-04 14:55:57.561029
4.601425576,0.03685283661,-1.345752954,0.1050386429,2024-06-04 14:55:57.601426
4.641816513,0.8059864044,-0.7781105042,0.9621758461,2024-06-04 14:55:57.641817
4.68237292,4.476197243,1.858532667,-2.221600056,2024-06-04 14:55:57.682373
4.722764742,5.531946182,3.514194489,-0.5993113518,2024-06-04 14:55:57.722765
4.763380367,-14.5674963,1.425453663,1.000753403,2024-06-04 14:55:57.763380
4.803772242,-1.655294418,1.549384117,0.4079346657,2024-06-04 14:55:57.803772
4.844357399,-3.614198685,-4.727295876,-0.5607590675,2024-06-04 14:55:57.844357
4.884749274,0.04912376404,-0.245470047,-2.651498079,2024-06-04 14:55:57.884749
4.925323961,0.5480976105,-1.300093174,-1.456687689,2024-06-04 14:55:57.925324
4.965831982,2.836640835,-2.550291538,-2.62801981,2024-06-04 14:55:57.965832
5.006322763,3.034837246,0.4066362381,-1.874051332,2024-06-04 14:55:58.006323
5.04678344,2.552736759,0.2315635681,-0.4376187325,2024-06-04 14:55:58.046783
5.087282867,0.1541395187,0.00316119194,0.5983572006,2024-06-04 14:55:58.087283
5.127774899,0.01801633835,-0.894777298,0.1438565254,2024-06-04 14:55:58.127775
5.168273232,-0.09671020508,-2.5417943,0.01085567474,2024-06-04 14:55:58.168273
5.208758232,1.358036041,0.09240245819,1.013672352,2024-06-04 14:55:58.208758
5.249251617,2.145946503,0.04162168503,0.3671450615,2024-06-04 14:55:58.249252
5.289743597,1.862066746,-0.2593729496,0.4208450317,2024-06-04 14:55:58.289744
5.330199638,1.525714397,3.061513901,1.278196812,2024-06-04 14:55:58.330200
5.370728128,2.24388504,2.031582117,0.9046411514,2024-06-04 14:55:58.370728
5.411226826,0.04418945312,4.261853218,-0.06064367294,2024-06-04 14:55:58.411227
5.451696461,1.393081665,0.9245357513,0.8250484467,2024-06-04 14:55:58.451696
5.492151097,-1.114583015,-1.988697529,2.300057411,2024-06-04 14:55:58.492151
5.532562607,-3.238204479,6.544949532,-3.616706371,2024-06-04 14:55:58.532563
5.573048076,-1.139740467,-2.561937809,0.9322800636,2024-06-04 14:55:58.573048
5.613607451,1.893892765,-1.145478249,-0.3915667534,2024-06-04 14:55:58.613607
5.654085576,1.865703583,-0.2474365234,-1.960706472,2024-06-04 14:55:58.654086
5.694623805,1.106102943,-3.270449162,0.001866817474,2024-06-04 14:55:58.694624
5.735108961,-1.079330921,-2.574542522,0.1352238655,2024-06-04 14:55:58.735109
5.775578545,-1.959835529,-2.101649284,0.6426053047,2024-06-04 14:55:58.775579
5.816076513,-0.7421746254,-1.952080727,1.066343784,2024-06-04 14:55:58.816077
5.85656318,0.2206807137,-2.496835232,0.7007946968,2024-06-04 14:55:58.856563
5.897021878,-2.20892334,1.795860767,-1.17119956,2024-06-04 14:55:58.897022
5.937546409,0.6255407333,0.2952437401,-0.5060300827,2024-06-04 14:55:58.937546
5.978041201,1.028582573,-0.1378655434,-0.6228561401,2024-06-04 14:55:58.978041
6.018507295,0.3162736893,-0.05334711075,0.1497888565,2024-06-04 14:55:59.018507
6.059008128,-0.5348777771,-0.7490739822,0.2298645973,2024-06-04 14:55:59.059008
6.099505524,-0.02032899857,-1.379240036,0.2134037018,2024-06-04 14:55:59.099506
6.139981774,0.8304376602,-1.231003761,-0.1501889229,2024-06-04 14:55:59.139982
6.180498024,0.4198098183,-1.034068108,-0.6500368118,2024-06-04 14:55:59.180498
6.22099667,-0.9682607651,-0.6277236938,-0.3330740929,2024-06-04 14:55:59.220997
6.261439847,-1.369863987,-0.9323911667,0.2455229759,2024-06-04 14:55:59.261440
6.301914951,-1.003983498,-0.3459386826,-1.25206995,2024-06-04 14:55:59.301915
6.342459795,-1.081719875,0.9233903885,-0.8561296463,2024-06-04 14:55:59.342460
6.382947659,-2.249263763,-0.224796772,-1.156446457,2024-06-04 14:55:59.382948
6.423414586,-1.432610512,-0.6967730522,-0.8886885643,2024-06-04 14:55:59.423415
6.463898024,-1.272872925,-0.7370500565,-1.548319817,2024-06-04 14:55:59.463898
6.50438594,-0.7689623833,-1.000880718,-1.525898933,2024-06-04 14:55:59.504386
6.544875784,-0.840968132,-1.936702728,-1.153457642,2024-06-04 14:55:59.544876
6.585365992,-0.3421516418,-0.7819075584,-1.266466141,2024-06-04 14:55:59.585366
6.625824795,0.1545128822,-0.1810433865,-1.525120735,2024-06-04 14:55:59.625825
6.666317451,0.9420590401,-1.162949085,-1.876477242,2024-06-04 14:55:59.666317
6.706829378,0.4996790886,-0.7547461987,-1.098754883,2024-06-04 14:55:59.706829
6.747310315,1.849082947,0.2775082588,-1.755107403,2024-06-04 14:55:59.747310
6.787800263,2.66152668,0.7259488106,-2.195957661,2024-06-04 14:55:59.787800
6.82828068,1.948975563,1.2529881,-1.593971252,2024-06-04 14:55:59.828281
6.868736513,2.029644966,0.6211738586,-0.6468729973,2024-06-04 14:55:59.868737
6.90924693,1.786793709,0.3530888557,0.1812095642,2024-06-04 14:55:59.909247
6.949784742,1.736720085,0.6374666691,0.7572264671,2024-06-04 14:55:59.949785
6.990264222,1.853833675,0.4164009094,0.03306722641,2024-06-04 14:55:59.990264
7.030767399,1.078696728,0.03169965744,0.5603504181,2024-06-04 14:56:00.030767
7.07124792,0.5383214951,-0.2039399147,0.6296935081,2024-06-04 14:56:00.071248
7.111699638,0.6367502213,0.8769488335,0.6131315231,2024-06-04 14:56:00.111700
7.152160211,-0.9827218056,0.8888635635,0.7568545341,2024-06-04 14:56:00.152160
7.192618701,-1.281862259,-0.4457821846,0.4091181755,2024-06-04 14:56:00.192619
7.233163076,-1.324511051,0.2741131783,1.003049374,2024-06-04 14:56:00.233163
7.273663024,-0.957965374,-0.8489084244,0.4726042747,2024-06-04 14:56:00.273663
7.314141461,-0.7767643929,-1.67341423,1.345826149,2024-06-04 14:56:00.314141
7.354627399,-1.65580225,-1.915744305,2.000017166,2024-06-04 14:56:00.354627
7.39511844,0.7978553772,0.1912946701,-0.01349782944,2024-06-04 14:56:00.395118
7.435607867,-0.02878427505,-0.06512022018,-0.5122847557,2024-06-04 14:56:00.435608
7.476118753,-0.7544884682,-0.1317462921,0.212770462,2024-06-04 14:56:00.476119
7.516569326,0.1117420197,0.8905935287,0.5563545227,2024-06-04 14:56:00.516569
7.557093597,-0.01035642624,-0.2819962502,0.9720625877,2024-06-04 14:56:00.557094
7.597564065,-0.7600097656,-1.63657999,1.360138416,2024-06-04 14:56:00.597564
7.638026982,-0.6306114197,-0.6880173683,-0.0877122879,2024-06-04 14:56:00.638027
7.678551722,-0.7682409286,1.04429245,-1.36747241,2024-06-04 14:56:00.678552
7.71903167,-0.6535100937,-1.126876831,-0.4856863022,2024-06-04 14:56:00.719032
7.759520524,-0.4418253899,-1.251708031,-0.3783173561,2024-06-04 14:56:00.759521
7.800013961,-0.6278162003,0.5840606689,-0.3325014114,2024-06-04 14:56:00.800014
7.840559378,-0.05046796799,0.2879738808,-1.3195436,2024-06-04 14:56:00.840559
7.880970992,-1.155541897,-1.366452694,-0.347058773,2024-06-04 14:56:00.880971
7.921492711,-1.921669006,-2.161607742,-0.0332326889,2024-06-04 14:56:00.921493
7.96192068,-1.22649765,-1.363062859,-0.5207061768,2024-06-04 14:56:00.961921
8.002459795,-0.5152521133,-2.258249044,-0.9856982231,2024-06-04 14:56:01.002460
8.042986774,-0.2982449532,-2.718641758,-0.3296031952,2024-06-04 14:56:01.042987
8.083393753,0.06968164444,-1.537751913,-1.143280029,2024-06-04 14:56:01.083394
8.123887503,1.539629459,-0.8460588455,-1.585290432,2024-06-04 14:56:01.123888
8.164390107,1.984385014,-0.2740433216,-1.957543373,2024-06-04 14:56:01.164390
8.204896722,2.56039381,0.7096852064,-2.58966732,2024-06-04 14:56:01.204897
8.245365784,2.786714077,1.250957012,-2.696122646,2024-06-04 14:56:01.245366
8.285865263,0.5996656418,1.015239835,-1.176750183,2024-06-04 14:56:01.285865
8.326335211,-0.7943663597,1.115084767,0.383143425,2024-06-04 14:56:01.326335
8.366854951,0.3288555145,0.6464664936,0.4366512299,2024-06-04 14:56:01.366855
8.407300211,2.104805946,0.5691883564,-0.7350502014,2024-06-04 14:56:01.407300
8.447812242,2.546531677,1.180882454,-1.431724072,2024-06-04 14:56:01.447812
8.488292451,2.635459423,1.669779301,-1.94511795,2024-06-04 14:56:01.488292
8.528783545,1.568722248,0.9383735657,-0.7946000099,2024-06-04 14:56:01.528784
8.569285732,0.1346039772,-1.170998573,0.7834234238,2024-06-04 14:56:01.569286
8.609755211,-1.150182247,-0.9068527222,1.443371773,2024-06-04 14:56:01.609755
8.650228232,-1.711231709,0.2750425339,1.920935154,2024-06-04 14:56:01.650228
8.69078469,-2.481266022,-2.190696716,1.112594604,2024-06-04 14:56:01.690785
8.731235784,-0.8801951408,-0.4938960075,0.2608566284,2024-06-04 14:56:01.731236
8.771707972,-1.079377651,0.4240760803,-1.002254963,2024-06-04 14:56:01.771708
8.812146774,-1.139642715,-0.2256336212,1.147497654,2024-06-04 14:56:01.812147
8.852645055,-0.8412046432,-1.008490562,1.342464685,2024-06-04 14:56:01.852645
8.893148388,-0.5279741287,0.6305394173,0.1863029003,2024-06-04 14:56:01.893148
8.933695628,-0.02441883087,-0.3384943008,1.793883085,2024-06-04 14:56:01.933696
8.97419292,-0.9437675476,-1.624099731,3.604521751,2024-06-04 14:56:01.974193
9.014656774,0.007878780365,-2.069437504,0.9041085243,2024-06-04 14:56:02.014657
9.055124117,2.38422823,-0.07216930389,-1.966920853,2024-06-04 14:56:02.055124
9.095625315,1.830913067,-0.5909323692,-0.3290109634,2024-06-04 14:56:02.095625
9.136128076,0.8246431351,0.5975503922,-0.3590416908,2024-06-04 14:56:02.136128
9.17661068,-2.185225964,-1.219286442,2.108767033,2024-06-04 14:56:02.176611
9.217095628,-2.914690018,-2.142217159,0.8110318184,2024-06-04 14:56:02.217096
9.257570472,0.06445837021,-2.021385193,0.1716918945,2024-06-04 14:56:02.257570
9.298063857,0.4885525703,-1.685292721,-0.9283351898,2024-06-04 14:56:02.298064
9.33855594,0.3183965683,-0.3285608292,-0.433262825,2024-06-04 14:56:02.338556
9.379045315,-0.9694933891,-1.512664318,-0.4751348495,2024-06-04 14:56:02.379045
9.419541617,-0.44572258,-1.962165117,-0.7367210388,2024-06-04 14:56:02.419542
9.460016149,0.2471227646,-1.582254887,-1.295116901,2024-06-04 14:56:02.460016
9.500512295,1.998081207,-0.3985464573,-1.954696655,2024-06-04 14:56:02.500512
9.541034065,2.449917316,-0.0165913105,-1.458036423,2024-06-04 14:56:02.541034
9.581460211,0.8935880661,-1.206342697,-0.0688791275,2024-06-04 14:56:02.581460
9.621908388,1.204093933,-0.7976677418,-0.9919962883,2024-06-04 14:56:02.621908
9.662448128,2.418035507,1.780611515,-1.061621666,2024-06-04 14:56:02.662448
9.702971149,2.682870865,1.336782455,-0.875936985,2024-06-04 14:56:02.702971
9.743448649,1.385882854,0.470682621,-0.00118970871,2024-06-04 14:56:02.743449
9.783929222,4.177527428,1.754777908,-0.9896192551,2024-06-04 14:56:02.783929
9.824420107,3.376141071,1.806702614,-0.2407417297,2024-06-04 14:56:02.824420
9.864837295,-0.7897725105,0.6757485867,1.178693295,2024-06-04 14:56:02.864837
9.905354065,0.7340664864,1.165281296,0.3706488609,2024-06-04 14:56:02.905354
9.945847763,0.6860466003,2.047084808,0.4236965179,2024-06-04 14:56:02.945848
9.98632344,-2.252637863,-1.040132523,1.099895,2024-06-04 14:56:02.986323
10.0268324,-2.555326939,-2.909981728,0.8024272919,2024-06-04 14:56:03.026832
10.06732214,-1.272737503,0.5790295601,-0.3458075523,2024-06-04 14:56:03.067322
10.10784724,-1.310587406,0.9670448303,-0.3397965431,2024-06-04 14:56:03.107847
10.14832813,-0.5507936478,-1.593531609,-0.3549799919,2024-06-04 14:56:03.148328
10.18881651,-0.5023608208,-0.1715288162,0.2596764565,2024-06-04 14:56:03.188817
10.22930011,-0.9488978386,0.2593040466,0.323387146,2024-06-04 14:56:03.229300
10.26977844,-1.784686565,-1.238230705,2.327680111,2024-06-04 14:56:03.269778
10.31026526,-0.8228726387,-0.2110257149,1.445700169,2024-06-04 14:56:03.310265
10.35077896,0.4795608521,-0.628054142,-0.06425142288,2024-06-04 14:56:03.350779
10.3912512,-0.1538915634,-0.9405002594,-0.09071588516,2024-06-04 14:56:03.391251
10.43175,-0.8364758492,-1.112724304,0.5175557137,2024-06-04 14:56:03.431750
10.4721875,-0.7609400749,-0.5363583565,-0.4170899391,2024-06-04 14:56:03.472188
10.51273782,-0.7511715889,-1.446854591,0.09698057175,2024-06-04 14:56:03.512738
10.55321328,-0.4806389809,-1.307810783,-0.6348757744,2024-06-04 14:56:03.553213
10.59366334,-0.4614505768,-1.133304596,-0.255698204,2024-06-04 14:56:03.593663
10.63414334,-2.152690411,-2.0253582,-0.2869606018,2024-06-04 14:56:03.634143
10.67466995,-0.3069429398,-1.566112518,-0.7665996552,2024-06-04 14:56:03.674670
10.71513261,0.8546767235,-2.035013676,-1.59092474,2024-06-04 14:56:03.715133
10.75565021,0.185687542,-1.144668818,-0.8725233078,2024-06-04 14:56:03.755650
10.79613943,1.443436623,0.02151727676,-2.118181229,2024-06-04 14:56:03.796139
10.83661808,0.2834153175,-0.5765171051,-0.8685421944,2024-06-04 14:56:03.836618
10.87709985,-0.7794413567,-1.118284225,-0.7595729828,2024-06-04 14:56:03.877100
10.91763089,2.230873108,-1.131518364,-1.216056347,2024-06-04 14:56:03.917631
10.95810131,3.463727951,0.7426105738,-0.848004818,2024-06-04 14:56:03.958101
10.99853802,2.237919807,0.414403677,-0.901746273,2024-06-04 14:56:03.998538
11.03902771,2.211808205,0.9009456635,-1.333220959,2024-06-04 14:56:04.039028
11.07955584,3.91953969,2.120393753,-1.49907589,2024-06-04 14:56:04.079556
11.11999016,2.325470448,1.995953321,-0.4866094589,2024-06-04 14:56:04.119990
11.16056167,1.212575912,0.8552730083,0.05147743225,2024-06-04 14:56:04.160562
11.20104464,0.280362606,-0.2541761398,0.5214848518,2024-06-04 14:56:04.201045
11.24143474,0.1500411034,0.2522683144,1.11013937,2024-06-04 14:56:04.241435
11.28194026,-0.3754253387,0.4475445747,0.8471426964,2024-06-04 14:56:04.281940
11.32242381,-1.267009735,-0.710337162,0.11729002,2024-06-04 14:56:04.322424
11.36297058,-0.550453186,-0.5119681358,-0.6695451736,2024-06-04 14:56:04.362971
11.40342365,-1.12688446,-0.8051271439,-0.3173246384,2024-06-04 14:56:04.403424
11.44394006,-2.135615349,-0.8123483658,0.3185429573,2024-06-04 14:56:04.443940
11.48443542,-2.937462807,-0.658156395,1.247869968,2024-06-04 14:56:04.484435
11.52491344,-1.447976112,-1.149965286,2.458995581,2024-06-04 14:56:04.524913
11.56542282,-0.9408755302,-1.308675766,2.460384846,2024-06-04 14:56:04.565423
11.60588037,-0.05406236649,-1.178905487,1.24529624,2024-06-04 14:56:04.605880
11.64636386,0.07350826263,-0.003500938416,0.3761811256,2024-06-04 14:56:04.646364
11.68686276,0.1841893196,0.7931685448,-0.6202330589,2024-06-04 14:56:04.686863
11.72732776,0.8442873955,0.6395683289,0.1969399452,2024-06-04 14:56:04.727328
11.76783933,0.3769059181,-1.187104702,0.3570723534,2024-06-04 14:56:04.767839
11.80832823,-1.225931644,-1.987052441,0.5863900185,2024-06-04 14:56:04.808328
11.8488273,-1.766591072,-2.186999798,-0.0215511322,2024-06-04 14:56:04.848827
11.88931302,-0.7579817772,-2.064095497,0.1555104256,2024-06-04 14:56:04.889313
11.92979667,-0.1203360558,-1.437209606,-1.237519979,2024-06-04 14:56:04.929797
11.97028078,0.6181020737,-0.07166051865,-0.7493343353,2024-06-04 14:56:04.970281
12.01076417,0.5281147957,-0.5434055328,-1.411979675,2024-06-04 14:56:05.010764
12.05122266,-0.9429936409,-1.944543362,-0.4124193192,2024-06-04 14:56:05.051223
12.09168636,-0.6060376167,-1.954871655,-1.163971901,2024-06-04 14:56:05.091686
12.13221495,0.454867363,-0.7542867661,-1.517300129,2024-06-04 14:56:05.132215
12.17275037,1.516112328,-0.5688693523,-2.017086506,2024-06-04 14:56:05.172750
12.21321532,1.735068321,-0.5156960487,-2.098355293,2024-06-04 14:56:05.213215
12.25369474,3.523169041,0.562707901,-1.576057911,2024-06-04 14:56:05.253695
12.29417162,3.299242973,2.397766113,-1.972129345,2024-06-04 14:56:05.294172
12.33466339,2.742072582,1.841252804,-1.070985794,2024-06-04 14:56:05.334663
12.37514297,2.410257816,1.456082582,-0.7265405655,2024-06-04 14:56:05.375143
12.41562782,1.599915504,1.501812458,0.4054293633,2024-06-04 14:56:05.415628
12.4561123,1.088057041,1.033741951,1.324027538,2024-06-04 14:56:05.456112
12.49662094,-0.3474154472,0.6389508247,1.21942234,2024-06-04 14:56:05.496621
12.53710146,-2.035549164,-1.06379652,1.578053474,2024-06-04 14:56:05.537101
12.57757709,-0.01182937622,-1.170029163,0.4461979866,2024-06-04 14:56:05.577577
12.61807417,0.364795208,0.9157204628,0.1297283173,2024-06-04 14:56:05.618074
12.65855735,-0.4359297752,0.8841114044,0.4169993401,2024-06-04 14:56:05.658557
12.69904203,-1.316087723,-0.9529776573,0.6259155273,2024-06-04 14:56:05.699042
12.73953011,-2.124979019,-2.566616535,0.4833850861,2024-06-04 14:56:05.739530
12.78000761,-2.980746269,-1.724937439,1.706951141,2024-06-04 14:56:05.780008
12.82051016,-3.106470585,-2.136556625,2.083802223,2024-06-04 14:56:05.820510
12.86103563,-1.211184025,-1.473910809,0.8401708603,2024-06-04 14:56:05.861036
12.9014586,0.3778338432,0.9935626984,-0.7315888405,2024-06-04 14:56:05.901459
12.94196339,1.268939495,1.664253235,-0.1968336105,2024-06-04 14:56:05.941963
12.98241855,0.07348585129,-0.07228803635,-0.2579436302,2024-06-04 14:56:05.982419
13.02297938,-1.196238518,-0.4661569595,-0.2672591209,2024-06-04 14:56:06.022979
13.06346422,-1.432340622,-0.5440402031,0.1628780365,2024-06-04 14:56:06.063464
13.10393948,-1.889169216,-2.346315384,0.4897222519,2024-06-04 14:56:06.103939
13.14441203,0.7131857872,-2.772500992,-0.6002383232,2024-06-04 14:56:06.144412
13.18489584,0.7850103378,-1.522181034,-0.5116691589,2024-06-04 14:56:06.184896
13.22539646,-1.639068127,-1.682973385,-0.4108066559,2024-06-04 14:56:06.225396
13.265895,1.082227707,-1.558991909,-0.8794131279,2024-06-04 14:56:06.265895
13.30637506,1.517418861,-1.149527073,-1.546725273,2024-06-04 14:56:06.306375
13.34685818,0.6708726883,-1.076550722,-1.070665359,2024-06-04 14:56:06.346858
13.38734224,-0.8132271767,-2.23630476,-0.6800885201,2024-06-04 14:56:06.387342
13.42782568,0.4019880295,-1.06227231,-0.9935703278,2024-06-04 14:56:06.427826
13.4683136,2.175915718,0.7454521656,-2.318034649,2024-06-04 14:56:06.468314
13.50879891,5.202874184,2.433508635,-3.271017551,2024-06-04 14:56:06.508799
13.54928016,5.391399384,2.923404694,-2.931524515,2024-06-04 14:56:06.549280
13.58977886,3.113404989,2.582262993,-0.5278930664,2024-06-04 14:56:06.589779
13.63027219,-0.6516375542,0.9132523537,1.512552261,2024-06-04 14:56:06.630272
13.67078792,-0.2958817482,-1.009129047,1.517514229,2024-06-04 14:56:06.670788
13.71124532,-0.7449951172,-1.719643593,1.316823483,2024-06-04 14:56:06.711245
13.75170464,-1.053297043,-1.382519722,1.577588558,2024-06-04 14:56:06.751705
13.7921888,1.73570919,1.613036633,-0.5613236427,2024-06-04 14:56:06.792189
13.8326748,1.668207645,3.267100811,-0.01482629776,2024-06-04 14:56:06.832675
13.87322099,-0.2424879074,1.858098507,-0.05220222473,2024-06-04 14:56:06.873221
13.91370938,-2.591207504,-3.307154655,-0.1681365967,2024-06-04 14:56:06.913709
13.95418714,-2.959639549,-1.613715649,0.3126733303,2024-06-04 14:56:06.954187
13.99466375,-4.342770576,-1.554587364,1.776479721,2024-06-04 14:56:06.994664
14.03516276,-0.5548763275,-2.106807232,2.215815544,2024-06-04 14:56:07.035163
14.07562318,0.6177325249,0.289794445,0.6898396015,2024-06-04 14:56:07.075623
14.11611558,0.5867948532,1.033925533,-0.03223848343,2024-06-04 14:56:07.116116
14.15663448,-0.890443325,-1.249859333,1.030050039,2024-06-04 14:56:07.156634
14.19711724,-0.4825015068,-0.398993969,0.7595434189,2024-06-04 14:56:07.197117
14.23758339,-0.2390351295,-0.8124880791,0.2615885735,2024-06-04 14:56:07.237583
14.27809047,-0.5675554276,-1.650333405,0.2752466202,2024-06-04 14:56:07.278090
14.31857844,-1.895030022,-1.547037601,-0.8733539581,2024-06-04 14:56:07.318578
14.35906224,-1.063259125,-1.354421616,-0.1315689087,2024-06-04 14:56:07.359062
14.39954078,-1.624347687,-3.353456497,-0.385011673,2024-06-04 14:56:07.399541
14.44002813,-0.9231562614,-3.408685207,0.4434108734,2024-06-04 14:56:07.440028
14.48057453,-2.046466827,-2.61941433,-1.889840603,2024-06-04 14:56:07.480575
14.52107735,0.2812666893,-0.8364138603,-1.935211658,2024-06-04 14:56:07.521077
14.56145068,3.457994461,-0.7910130024,-4.13462162,2024-06-04 14:56:07.561451
14.60198495,3.056519032,0.002614021301,-1.245149612,2024-06-04 14:56:07.601985
14.64247172,2.141705513,0.9891959429,-0.8688035011,2024-06-04 14:56:07.642472
14.68295063,0.8886909485,-0.7727310658,-0.8315024376,2024-06-04 14:56:07.682951
14.72342407,0.9374318123,-0.370036602,-0.2403254509,2024-06-04 14:56:07.723424
14.76393594,2.717305183,0.174767971,-1.062011242,2024-06-04 14:56:07.763936
14.80442646,3.963682413,1.826680183,-1.424903393,2024-06-04 14:56:07.804426
14.84494016,4.126933098,2.583851576,-1.914396286,2024-06-04 14:56:07.844940
14.88539214,2.679807663,1.963166952,-1.529264212,2024-06-04 14:56:07.885392
14.92588214,0.7575583458,0.8100504875,-0.912396431,2024-06-04 14:56:07.925882
14.96635235,-0.4318752289,-0.6122684479,0.4174408913,2024-06-04 14:56:07.966352
15.00681256,-2.420979977,-1.619068623,1.396342754,2024-06-04 14:56:08.006813
15.04735422,-2.041752815,-1.168114185,1.071615219,2024-06-04 14:56:08.047354
15.08783318,-1.996709347,-0.5221815109,0.6911411285,2024-06-04 14:56:08.087833
15.1283461,-0.6307401657,-0.5685863495,-0.2298586369,2024-06-04 14:56:08.128346
15.16880042,-0.9958500862,1.041245461,-0.4853246212,2024-06-04 14:56:08.168800
15.20930974,-1.701550007,-0.4843931198,0.7282428741,2024-06-04 14:56:08.209310
15.24978193,-3.022629261,-2.889389515,2.927788258,2024-06-04 14:56:08.249782
15.29027693,-2.22103405,-1.351285934,2.028362513,2024-06-04 14:56:08.290277
15.33081719,0.3198871613,0.3080048561,0.2657623291,2024-06-04 14:56:08.330817
15.37124214,1.04821682,-0.3132367134,0.2445995808,2024-06-04 14:56:08.371242
15.41172318,1.482506275,1.072780609,0.01469802856,2024-06-04 14:56:08.411723
15.45218782,0.3916835785,-0.4912605286,0.1229257584,2024-06-04 14:56:08.452188
15.49266698,-2.867532253,-2.181283474,1.259725571,2024-06-04 14:56:08.492667
15.5332224,-1.598323822,-1.832472324,0.0009469985962,2024-06-04 14:56:08.533222
15.57371344,-0.3269820213,-1.798110962,-0.2706055641,2024-06-04 14:56:08.573713
15.61422776,-0.989385128,-1.957843304,-0.9674568176,2024-06-04 14:56:08.614228
15.65471542,0.5313858986,-0.9689860344,-0.4631671906,2024-06-04 14:56:08.654715
15.69519141,-1.068063259,-1.717033386,-1.627006054,2024-06-04 14:56:08.695191
15.73565099,0.1173019409,-0.5160770416,-1.73303175,2024-06-04 14:56:08.735651
15.77614355,-0.6026697159,-3.525963068,-0.2568759918,2024-06-04 14:56:08.776144
15.8166325,-1.709486961,-2.620455027,0.08139610291,2024-06-04 14:56:08.816633
15.85712464,4.157840729,0.8774433136,-3.04144454,2024-06-04 14:56:08.857125
15.89764667,3.195987701,0.4935071468,-1.401109219,2024-06-04 14:56:08.897647
15.93810953,3.576447487,0.3865134716,-2.437958956,2024-06-04 14:56:08.938110
15.97857511,4.897577286,2.691663027,-1.727249146,2024-06-04 14:56:08.978575
16.01903667,0.3695502281,2.621602774,0.1174678802,2024-06-04 14:56:09.019037
16.05953688,0.4172239304,-0.8900671005,-0.2955508232,2024-06-04 14:56:09.059537
16.10004214,2.376229286,0.2541298866,-0.2719445229,2024-06-04 14:56:09.100042
16.14055344,1.991053104,1.333114624,-0.5259718895,2024-06-04 14:56:09.140553
16.18103313,-0.3480882645,0.1436195374,0.2651467323,2024-06-04 14:56:09.181033
16.22152334,1.002114296,0.1506767273,-0.3388662338,2024-06-04 14:56:09.221523
16.26196495,-0.1046152115,1.527795315,0.778819561,2024-06-04 14:56:09.261965
16.30247318,-1.963792801,-0.4671669006,1.331558704,2024-06-04 14:56:09.302473
16.34294589,-3.489964008,-3.968062878,0.1140675545,2024-06-04 14:56:09.342946
16.38343756,-2.028189659,-1.248442173,0.2464847565,2024-06-04 14:56:09.383438
16.42392698,-2.894230366,-1.495170593,1.053932667,2024-06-04 14:56:09.423927
16.46441344,-0.4886026382,-0.239385128,1.465883732,2024-06-04 14:56:09.464413
16.50489745,0.3611803055,1.081500053,0.7767095566,2024-06-04 14:56:09.504897
16.54538844,-0.9501776695,-0.1572327614,1.313566685,2024-06-04 14:56:09.545388
16.58587568,-1.015561104,-1.360267639,2.020902872,2024-06-04 14:56:09.585876
16.62636183,0.8608045578,-1.871061325,0.2255921364,2024-06-04 14:56:09.626362
16.66686375,-0.1435523033,-0.6490716934,-0.3719162941,2024-06-04 14:56:09.666864
16.70734964,-1.800236225,-0.2416658401,0.2344918251,2024-06-04 14:56:09.707350
16.74783875,-1.060298443,-1.127908707,-0.06006669998,2024-06-04 14:56:09.747839
16.78834188,-1.215990067,-2.280068398,-0.9987969398,2024-06-04 14:56:09.788342
16.82882797,-1.111828327,-2.869761944,-0.6703829765,2024-06-04 14:56:09.828828
16.86925188,-0.8035268784,-0.981564045,-1.28046751,2024-06-04 14:56:09.869252
16.90976172,0.3044576645,-0.4246120453,-1.592061996,2024-06-04 14:56:09.909762
16.95027854,2.184122086,-0.5456075668,-2.678967476,2024-06-04 14:56:09.950279
16.99076156,0.04270172119,-1.820706606,-1.36710453,2024-06-04 14:56:09.990762
17.03129521,-1.021980762,-2.142330408,0.3735647202,2024-06-04 14:56:10.031295
17.07176344,0.5909590721,-1.433330536,-0.3587975502,2024-06-04 14:56:10.071763
17.11222495,2.437088013,-0.8597662449,-0.8691735268,2024-06-04 14:56:10.112225
17.15268084,3.93639946,0.4741454124,-2.478273869,2024-06-04 14:56:10.152681
17.19319552,5.631719112,1.951803684,-2.985813618,2024-06-04 14:56:10.193196
17.23370412,5.546487808,3.470917702,-2.695145845,2024-06-04 14:56:10.233704
17.27420318,2.603245258,3.0893538,-1.168446541,2024-06-04 14:56:10.274203
17.31468287,-0.405269146,1.529210091,-0.2130413055,2024-06-04 14:56:10.314683
17.35514724,-2.034923077,-0.2842903137,1.543272972,2024-06-04 14:56:10.355147
17.3956387,-1.292201519,0.07363367081,0.9060254097,2024-06-04 14:56:10.395639
17.43613375,-0.267621994,-1.362035275,-0.3202772141,2024-06-04 14:56:10.436134
17.47663209,0.6605653763,0.7186336517,-0.9775104523,2024-06-04 14:56:10.476632
17.51710339,-1.289424419,1.371404648,1.197351456,2024-06-04 14:56:10.517103
17.55759797,-0.01936864853,1.177464962,1.428278208,2024-06-04 14:56:10.557598
17.59807636,-2.370527744,-0.6781105995,1.832462549,2024-06-04 14:56:10.598076
17.6385636,-7.952266216,-2.576367855,1.647301197,2024-06-04 14:56:10.638564
17.67905417,-4.343147755,-3.031306744,0.369862318,2024-06-04 14:56:10.679054
17.71954349,0.7545933723,-3.257090092,-1.51196146,2024-06-04 14:56:10.719543
17.7600473,1.422613144,-1.787540913,-0.6687071323,2024-06-04 14:56:10.760047
17.80050797,0.3018741608,0.5024113655,1.602609158,2024-06-04 14:56:10.800508
17.84105412,-0.1849431992,0.0007719993591,1.550155163,2024-06-04 14:56:10.841054
17.88143011,-0.7220396996,0.1718769073,-0.1673955917,2024-06-04 14:56:10.881430
17.92194745,-0.06064510345,-0.06882190704,-0.3459639549,2024-06-04 14:56:10.921947
17.96241849,-0.2130246162,-1.626879215,-0.1810259819,2024-06-04 14:56:10.962418
18.00294802,-1.530741215,-1.487609386,-0.9149641991,2024-06-04 14:56:11.002948
18.04348,-2.69278717,-1.804708004,-0.0676651001,2024-06-04 14:56:11.043480
18.08393026,-1.381066799,-1.934799194,-1.645018816,2024-06-04 14:56:11.083930
18.12443433,-0.1931791306,-1.958773613,-1.094234467,2024-06-04 14:56:11.124434
18.16490427,1.321939468,-2.391719103,-1.52921772,2024-06-04 14:56:11.164904
18.20539802,0.7377114296,-1.076658964,-0.3668646812,2024-06-04 14:56:11.205398
18.2458813,0.9923291206,-0.3168542385,-1.755878925,2024-06-04 14:56:11.245881
18.28638797,2.490737438,0.5161275864,-1.942208767,2024-06-04 14:56:11.286388
18.32684558,3.449276924,-0.8051490784,-1.794699669,2024-06-04 14:56:11.326846
18.36733573,2.164841652,-0.1580305099,-0.3153963089,2024-06-04 14:56:11.367336
18.40780552,2.023899555,1.273587227,0.05991363525,2024-06-04 14:56:11.407806
18.448305,2.508787632,0.6211016178,-0.1278128624,2024-06-04 14:56:11.448305
18.48880162,2.568679333,1.385251641,-0.5480041504,2024-06-04 14:56:11.488802
18.52928099,3.712440252,2.03421092,-0.7990274429,2024-06-04 14:56:11.529281
18.56978073,3.458697319,2.319748163,-0.3531541824,2024-06-04 14:56:11.569781
18.61033776,1.809574127,1.731421947,-0.5002522469,2024-06-04 14:56:11.610338
18.65082646,-0.4406785965,0.4810795784,1.511216164,2024-06-04 14:56:11.650826
18.69129235,-2.407259941,-2.845591545,1.838233948,2024-06-04 14:56:11.691292
18.7317236,-2.664202213,-2.975658894,0.9676206112,2024-06-04 14:56:11.731724
18.77218662,-1.601297379,-0.04146575928,0.6185598373,2024-06-04 14:56:11.772187
18.81268125,-0.8630933762,-0.7876706123,0.7019305229,2024-06-04 14:56:11.812681
18.85320953,-1.020151138,-0.01719903946,0.4435539246,2024-06-04 14:56:11.853210
18.89370646,-0.7327055931,1.759346485,0.6100070477,2024-06-04 14:56:11.893706
18.93419282,-4.151998997,-1.71087122,2.96869874,2024-06-04 14:56:11.934193
18.97467318,-3.24298811,-3.107672215,4.445789337,2024-06-04 14:56:11.974673
19.01515745,0.3454375267,-0.09766864777,0.6252024174,2024-06-04 14:56:12.015157
19.05564381,2.769437551,1.616836548,-2.192612648,2024-06-04 14:56:12.055644
19.09613537,2.799033165,0.1473302841,-0.4448561668,2024-06-04 14:56:12.096135
19.13662823,-1.439129829,-0.6085729599,1.349465847,2024-06-04 14:56:12.136628
19.17714599,-5.001337528,-1.369829655,1.723074436,2024-06-04 14:56:12.177146
19.21758052,-2.029958248,-2.26840353,0.2626051903,2024-06-04 14:56:12.217581
19.2580711,0.8207449913,-1.935319424,-1.1035676,2024-06-04 14:56:12.258071
19.29860688,0.05220794678,-0.8522133827,-1.57425499,2024-06-04 14:56:12.298607
19.3390987,-1.177023411,-1.757306099,-1.015726566,2024-06-04 14:56:12.339099
19.3795862,-0.4985079765,-1.561932087,-1.357514381,2024-06-04 14:56:12.379586
19.42007256,0.4744858742,-1.831901789,-2.031188965,2024-06-04 14:56:12.420073
19.46053104,-1.744368553,-3.091040134,-0.2055153847,2024-06-04 14:56:12.460531
19.50104771,-0.4509387016,-0.9021129608,-1.720158577,2024-06-04 14:56:12.501048
19.54151318,5.562873363,1.448960423,-3.879386425,2024-06-04 14:56:12.541513
19.58195396,4.084750175,1.31945467,-2.232800007,2024-06-04 14:56:12.581954
19.62243224,3.407700062,0.5836738348,-1.05211544,2024-06-04 14:56:12.622432
19.66292995,1.237642288,2.036180973,0.1792502403,2024-06-04 14:56:12.662930
19.7034338,-0.4412302971,-0.4186937809,1.129017353,2024-06-04 14:56:12.703434
19.74395594,0.8558087349,0.4246265888,-0.2577409744,2024-06-04 14:56:12.743956
19.78445448,1.812552929,0.4660952091,-0.8933825493,2024-06-04 14:56:12.784454
19.82495021,1.758095264,1.24712801,-0.8095126152,2024-06-04 14:56:12.824950
19.86542985,0.7681603432,1.425543308,-0.7534656525,2024-06-04 14:56:12.865430
19.9059011,0.3397612572,1.662953854,-0.07044553757,2024-06-04 14:56:12.905901
19.94640516,-0.3975849152,0.2025961876,-0.6443901062,2024-06-04 14:56:12.946405
19.98690401,-2.319991589,-2.634073257,0.2528204918,2024-06-04 14:56:12.986904
20.02736776,-4.639416218,-2.309993744,1.344156742,2024-06-04 14:56:13.027368
20.06785792,-4.335845947,-3.598213196,0.8002481461,2024-06-04 14:56:13.067858
20.10834688,-2.530021191,-2.258701324,0.6186709404,2024-06-04 14:56:13.108347
20.14883427,-1.517110348,1.62297678,-0.02537965775,2024-06-04 14:56:13.148834
20.18933188,0.438434124,1.842356682,-0.287586689,2024-06-04 14:56:13.189332
20.22982896,1.814526081,1.289022923,0.9126520157,2024-06-04 14:56:13.229829
20.27030802,0.3895463943,1.23711586,-1.915899515,2024-06-04 14:56:13.270308
20.31079063,-3.230851173,0.5242509842,-0.7835450172,2024-06-04 14:56:13.310791
20.35127203,-3.973014355,-3.694030762,3.190603256,2024-06-04 14:56:13.351272
20.39171995,0.5072512627,-3.097891331,-0.5697350502,2024-06-04 14:56:13.391720
20.4321898,0.7860941887,-2.399456501,0.1423316002,2024-06-04 14:56:13.432190
20.47267933,0.4986381531,-0.8298387527,0.9643974304,2024-06-04 14:56:13.472679
20.51321339,-0.5201129913,-0.6996340752,-1.485428333,2024-06-04 14:56:13.513213
20.55366537,-0.4713068008,-0.6701622009,-0.7015266418,2024-06-04 14:56:13.553665
20.59424365,-0.03798151016,-2.572715759,-0.5642280579,2024-06-04 14:56:13.594244
20.63471511,-0.5346894264,-2.489908934,-0.3353266716,2024-06-04 14:56:13.634715
20.67512427,0.2437062263,-0.3823287487,-0.7234334946,2024-06-04 14:56:13.675124
20.71569698,1.29055357,-1.470018864,-1.221711159,2024-06-04 14:56:13.715697
20.7562138,3.376561165,-0.8953590393,-1.973495007,2024-06-04 14:56:13.756214
20.79663297,5.261808395,0.6121659279,-2.422566891,2024-06-04 14:56:13.796633
20.83714651,1.5093894,0.4009561539,-0.4447207451,2024-06-04 14:56:13.837147
20.87761089,1.15841198,1.326492667,-0.3476681709,2024-06-04 14:56:13.877611
20.91810375,4.423250675,1.990721345,-1.406779289,2024-06-04 14:56:13.918104
20.9585925,2.160598755,1.599059105,0.06747150421,2024-06-04 14:56:13.958593
20.99905797,0.7585897446,0.6470651627,0.1540355682,2024-06-04 14:56:13.999058
21.03953256,1.021738052,0.7517166138,0.982465744,2024-06-04 14:56:14.039533
21.08005854,-0.8854284286,0.7603635788,0.8906745911,2024-06-04 14:56:14.080059
21.12054068,-0.9527959824,-0.8013477325,0.6624932289,2024-06-04 14:56:14.120541
21.1610499,-0.5778098106,-1.34496212,0.3704023361,2024-06-04 14:56:14.161050
21.20146896,-2.438210011,0.2719244957,0.1334395409,2024-06-04 14:56:14.201469
21.24195224,-2.128875732,0.2542381287,-0.07133865356,2024-06-04 14:56:14.241952
21.28243787,-2.481557846,-0.8001437187,-0.1473376751,2024-06-04 14:56:14.282438
21.32292078,-1.247674465,-0.1756896973,0.551122427,2024-06-04 14:56:14.322921
21.36344724,-1.553208351,0.1881012917,1.168997765,2024-06-04 14:56:14.363447
21.40393177,-2.370406151,-1.49040556,2.599266052,2024-06-04 14:56:14.403932
21.44442323,-2.038033485,-1.429141045,1.73524785,2024-06-04 14:56:14.444423
21.48490948,2.125819683,1.066003799,-1.824020386,2024-06-04 14:56:14.484909
21.5254237,2.014575481,-0.1901197433,-0.1399986744,2024-06-04 14:56:14.525424
21.56591209,0.1505298615,-0.3318996429,0.8734488487,2024-06-04 14:56:14.565912
21.6064837,-1.130198002,-1.118769169,0.3754630089,2024-06-04 14:56:14.606484
21.64688084,-2.948932171,-1.885763168,0.4066038132,2024-06-04 14:56:14.646881
21.68732875,-1.285868168,-0.8685612679,-0.5425980091,2024-06-04 14:56:14.687329
21.72780589,-1.198518276,-2.072559834,-0.6338837147,2024-06-04 14:56:14.727806
21.76835125,-1.363280296,-3.2045784,-0.3284139633,2024-06-04 14:56:14.768351
21.80884042,-0.1614685059,-1.97836113,-1.021019459,2024-06-04 14:56:14.808840
21.84932573,0.9575018883,-0.2036836147,-0.8496732712,2024-06-04 14:56:14.849326
21.88981433,1.106971264,-1.316357374,-2.102859974,2024-06-04 14:56:14.889814
21.93030162,2.381529331,-0.6132860184,-2.280794382,2024-06-04 14:56:14.930302
21.9708124,3.962120056,0.07477641106,-1.121324539,2024-06-04 14:56:14.970812
22.01124927,1.00459528,0.7203329802,-0.7029738426,2024-06-04 14:56:15.011249
22.05171339,1.843792439,0.640339613,-1.303904533,2024-06-04 14:56:15.051713
22.09219,2.609767914,1.214102745,-1.031390667,2024-06-04 14:56:15.092190
22.13265813,2.859089851,1.939110875,-1.000831127,2024-06-04 14:56:15.132658
22.17315172,3.708600283,3.062723875,-1.464827061,2024-06-04 14:56:15.173152
22.21365386,2.870330334,2.486917973,-0.5328803062,2024-06-04 14:56:15.213654
22.25419308,-1.453807354,-0.6039013863,0.5491132736,2024-06-04 14:56:15.254193
22.29470756,0.09639167786,-1.042486668,0.5867314339,2024-06-04 14:56:15.294708
22.33515068,0.4643778801,0.9263772964,1.011275768,2024-06-04 14:56:15.335151
22.37563355,-1.922197342,-1.942724228,1.998464108,2024-06-04 14:56:15.375634
22.41611693,-2.574790001,-2.605443478,0.6314539909,2024-06-04 14:56:15.416117
22.45661693,-0.4623126984,0.9065103531,0.3007090092,2024-06-04 14:56:15.456617
22.49713292,-2.84448576,0.4817647934,0.5022220612,2024-06-04 14:56:15.497133
22.53762391,-4.20500803,-3.444385529,1.718183756,2024-06-04 14:56:15.537624
22.57811006,-3.994050503,-0.4481782913,1.974941254,2024-06-04 14:56:15.578110
22.61860922,-0.7120604515,0.7264323235,2.133038759,2024-06-04 14:56:15.618609
22.6590662,1.616449833,0.3855667114,0.5418372154,2024-06-04 14:56:15.659066
22.69951677,3.17961359,2.046863079,-2.22832036,2024-06-04 14:56:15.699517
22.74001172,1.517921925,-0.5214529037,-0.8816637993,2024-06-04 14:56:15.740012
22.7805525,-4.20323658,-2.967817307,3.418169737,2024-06-04 14:56:15.780552
22.82105016,-2.687973499,-2.038039207,1.412369013,2024-06-04 14:56:15.821050
22.86152172,-1.109811306,-1.970304012,-0.1867992878,2024-06-04 14:56:15.861522
22.90198318,1.08558321,-1.579829216,-0.05281639099,2024-06-04 14:56:15.901983
22.94245995,1.203130245,-0.7514753342,-1.101020336,2024-06-04 14:56:15.942460
22.98292521,-0.6665143967,-1.732003689,-0.407599926,2024-06-04 14:56:15.982925
23.02341964,-0.7793564796,-1.709993362,-0.7570524216,2024-06-04 14:56:16.023420
23.06391032,-1.607767582,-2.208882093,-1.728899956,2024-06-04 14:56:16.063910
23.10444016,0.5654220581,-0.9246647358,-1.240418434,2024-06-04 14:56:16.104440
23.14496167,2.322553158,-0.332691431,-1.642092705,2024-06-04 14:56:16.144962
23.18539995,2.585718632,-0.8279421329,-1.753954887,2024-06-04 14:56:16.185400
23.22585776,2.212056637,0.640005827,-1.567524433,2024-06-04 14:56:16.225858
23.26637365,3.986088276,2.554388523,-2.817786217,2024-06-04 14:56:16.266374
23.30688381,4.683966637,3.244872808,-2.776812553,2024-06-04 14:56:16.306884
23.34738656,3.284872293,2.949883223,-1.601367474,2024-06-04 14:56:16.347387
23.3878511,0.261326313,1.392595768,0.1140475273,2024-06-04 14:56:16.387851
23.42832511,-1.007798195,0.341003418,0.4493055344,2024-06-04 14:56:16.428325
23.4688448,-0.6625094414,1.043644905,0.1282587051,2024-06-04 14:56:16.468845
23.50935256,-1.673108578,0.1249704361,0.817697525,2024-06-04 14:56:16.509353
23.54983552,-2.240184307,-2.350165844,-0.1494188309,2024-06-04 14:56:16.549836
23.59032068,-0.7117648125,0.4125289917,-0.8243260384,2024-06-04 14:56:16.590321
23.63080933,-1.30261755,0.3634681702,0.09125852585,2024-06-04 14:56:16.630809
23.6712237,-3.470763206,-3.300216198,-0.3302223682,2024-06-04 14:56:16.671224
23.71171219,-1.605442047,0.1542868614,-0.1566348076,2024-06-04 14:56:16.711712
23.7521998,-3.496498108,0.7671480179,0.6024065018,2024-06-04 14:56:16.752200
23.7926773,-3.539892673,-0.5685586929,0.9381151199,2024-06-04 14:56:16.792677
23.83316042,-1.990583897,-2.213790417,-0.03797960281,2024-06-04 14:56:16.833160
23.8736887,-2.795252323,-4.110715866,0.9983944893,2024-06-04 14:56:16.873689
23.9142437,-0.4640107155,-1.953648567,-0.5723011494,2024-06-04 14:56:16.914244
23.95467407,1.537016869,0.4411048889,-1.073420763,2024-06-04 14:56:16.954674
23.99516256,0.05433273315,0.3369832039,-0.4196197987,2024-06-04 14:56:16.995163
24.03569912,1.043780327,0.1840882301,-0.8228816986,2024-06-04 14:56:17.035699
24.07617625,-0.8631219864,-2.364585876,-1.215236187,2024-06-04 14:56:17.076176
24.11660203,-3.68488121,-4.551568031,-0.6823346615,2024-06-04 14:56:17.116602
24.15712834,-2.399692535,-3.183028221,1.65042305,2024-06-04 14:56:17.157128
24.19755797,1.050846577,-1.873833179,-0.5556945801,2024-06-04 14:56:17.197558
24.23806209,3.770282745,0.05928039551,-4.072733879,2024-06-04 14:56:17.238062
24.27860886,4.419020653,0.6770253181,-3.254204273,2024-06-04 14:56:17.278609
24.3191011,4.618853569,0.8313398361,-2.249400139,2024-06-04 14:56:17.319101
24.35958802,2.072087288,-0.1110463142,0.2985863686,2024-06-04 14:56:17.359588
24.40006933,-2.21857214,-0.744353056,1.150822639,2024-06-04 14:56:17.400069
24.44055776,1.67769289,-0.3726119995,0.3517866135,2024-06-04 14:56:17.440558
24.48104985,5.295927525,2.088343143,-1.268105745,2024-06-04 14:56:17.481050
24.52154276,5.685357571,3.382259369,-1.174282312,2024-06-04 14:56:17.521543
24.5619575,2.132165909,1.811745405,-0.6679596901,2024-06-04 14:56:17.561957
24.60241943,-0.9588971138,-0.6207847595,0.6606626511,2024-06-04 14:56:17.602419
24.64291021,-2.464624405,0.718392849,1.751852512,2024-06-04 14:56:17.642910
24.68343511,-1.880887508,-0.0806722641,1.483425379,2024-06-04 14:56:17.683435
24.72393115,-1.906347752,-3.540155411,0.535810709,2024-06-04 14:56:17.723931
24.76446537,-2.793036461,-1.901908875,0.09641361237,2024-06-04 14:56:17.764465
24.80493094,-2.145244122,0.8207068443,-0.00488781929,2024-06-04 14:56:17.804931
24.84542964,-1.004128933,0.7641072273,0.4588887691,2024-06-04 14:56:17.845430
24.88586506,-1.164604664,1.33861351,-0.07156658173,2024-06-04 14:56:17.885865
24.9264886,-1.838012218,0.522974968,1.427578211,2024-06-04 14:56:17.926489
24.96688328,-2.633157253,-0.5191988945,1.829711914,2024-06-04 14:56:17.966883
25.00737006,-0.2523517609,-1.375423431,0.7603442669,2024-06-04 14:56:18.007370
25.04784615,-1.100931168,-2.634293079,1.088452101,2024-06-04 14:56:18.047846
25.08837016,-1.350554466,-1.643127918,1.080365419,2024-06-04 14:56:18.088370
25.12884245,1.280238152,-0.7333307266,-0.3726158142,2024-06-04 14:56:18.128842
25.16934094,0.1571002007,-0.45378685,-0.09546709061,2024-06-04 14:56:18.169341
25.20974536,-0.8933639526,-1.937079906,0.2915244102,2024-06-04 14:56:18.209745
25.25023624,-2.057762623,-1.95095253,0.04584932327,2024-06-04 14:56:18.250236
25.29078723,0.5434393883,-2.324726582,-0.4106266499,2024-06-04 14:56:18.290787
25.3312828,1.050400257,-0.971572876,-0.55570364,2024-06-04 14:56:18.331283
25.37171233,0.7244467735,-1.868817091,-2.189190149,2024-06-04 14:56:18.371712
25.4121939,1.1979146,-0.796942234,-1.088080645,2024-06-04 14:56:18.412194
25.45268207,4.363962173,0.7989990711,-1.516891956,2024-06-04 14:56:18.452682
25.49316963,4.641169548,0.7594001293,-0.9245371819,2024-06-04 14:56:18.493170
25.53367838,2.254309177,-0.09777998924,-1.133259296,2024-06-04 14:56:18.533678
25.57421421,2.978293896,1.313294172,-0.6856849194,2024-06-04 14:56:18.574214
25.61470978,2.366961956,2.533380747,-0.5671451092,2024-06-04 14:56:18.614710
25.6551489,2.631569862,2.397681952,-0.782607317,2024-06-04 14:56:18.655149
25.69564275,1.276603699,1.184490204,0.2228031158,2024-06-04 14:56:18.695643
25.73613869,-0.9338870049,0.4843716621,2.469737053,2024-06-04 14:56:18.736139
25.77663926,-2.950621128,-0.181974411,2.994666338,2024-06-04 14:56:18.776639
25.81715056,-3.533308029,-2.859620094,1.687659502,2024-06-04 14:56:18.817151
25.85763468,-1.865147591,-3.180714607,-0.185280323,2024-06-04 14:56:18.857635
25.89812228,-1.651218891,0.1270208359,-0.691573143,2024-06-04 14:56:18.898122
25.93860103,-1.611227036,1.188772202,-0.6552786827,2024-06-04 14:56:18.938601
25.9790964,-1.364876747,0.764550209,-0.1766214371,2024-06-04 14:56:18.979096
26.01955718,-1.635958195,-0.3003945351,0.6687719822,2024-06-04 14:56:19.019557
26.06002077,-0.2098455429,0.6898684502,1.512296915,2024-06-04 14:56:19.060021
26.10056155,-1.175649643,-0.1842150688,1.147256613,2024-06-04 14:56:19.100562
26.14104239,-1.761049271,-1.15692997,0.4742093086,2024-06-04 14:56:19.141042
26.18154036,-1.195225239,-1.885065079,0.06866431236,2024-06-04 14:56:19.181540
26.22193025,0.06469726562,-1.375185013,-0.6419758797,2024-06-04 14:56:19.221930
26.26242603,-0.3917827606,-1.413571358,-0.4495158195,2024-06-04 14:56:19.262426
26.30292338,-0.9612007141,-2.224205494,-0.9358778,2024-06-04 14:56:19.302923
26.34343879,-2.661982536,-1.963819504,-0.6528441906,2024-06-04 14:56:19.343439
26.38394202,-0.9090924263,-1.750069618,-1.315172672,2024-06-04 14:56:19.383942
26.42439582,1.498968601,-1.437229872,-1.84324789,2024-06-04 14:56:19.424396
26.46494968,3.550536871,1.108700991,-3.277243137,2024-06-04 14:56:19.464950
26.50541864,1.03111887,-0.8147208691,-0.3577342033,2024-06-04 14:56:19.505419
26.54589369,-1.866693497,-1.767761946,-0.02737951279,2024-06-04 14:56:19.545894
26.5863864,3.855869293,-1.483004332,-0.8384137154,2024-06-04 14:56:19.586386
26.62688582,4.212599277,0.3633422852,-0.9740111828,2024-06-04 14:56:19.626886
26.66734426,6.148779392,2.04439044,-1.133281708,2024-06-04 14:56:19.667344
26.70781593,4.708012581,3.29235363,-0.3414511681,2024-06-04 14:56:19.707816
26.74834853,3.148860931,2.417069674,-1.339625597,2024-06-04 14:56:19.748349
26.7888603,-1.71891737,0.9243016243,0.8002719879,2024-06-04 14:56:19.788860
26.82934843,-0.6987833977,-0.456132412,0.01761317253,2024-06-04 14:56:19.829348
26.8698352,-2.67544508,0.1148262024,2.370952606,2024-06-04 14:56:19.869835
26.91031957,-2.341152668,-1.945463657,1.466738701,2024-06-04 14:56:19.910320
26.95081056,-2.659696579,-1.665296078,1.03209734,2024-06-04 14:56:19.950811
26.99130046,-1.831773281,-0.1257457733,1.485203743,2024-06-04 14:56:19.991300
27.03174015,-1.858024597,0.74640131,1.734345436,2024-06-04 14:56:20.031740
27.07219614,-3.656103611,-0.1685686111,1.347221613,2024-06-04 14:56:20.072196
27.11268056,-2.869746208,0.6689457893,0.05900001526,2024-06-04 14:56:20.112681
27.15317145,0.5267300606,-0.6467132568,-0.9522540569,2024-06-04 14:56:20.153171
27.19366348,0.4091525078,-3.822656155,1.401722431,2024-06-04 14:56:20.193663
27.23415614,-0.2429299355,0.4252066612,1.266560555,2024-06-04 14:56:20.234156
27.27464338,-0.2907848358,-0.006463527679,1.037102699,2024-06-04 14:56:20.274643
27.31518895,-0.3487911224,-1.774246693,-0.2970414162,2024-06-04 14:56:20.315189
27.35567593,-0.154861927,-2.127614021,-0.2811999321,2024-06-04 14:56:20.355676
27.3961852,-2.409986973,-2.48647213,-0.0877892971,2024-06-04 14:56:20.396185
27.43667244,0.2422809601,-0.819188118,-1.194057941,2024-06-04 14:56:20.436672
27.47713692,0.3876509666,-1.696829319,-1.633204937,2024-06-04 14:56:20.477137
27.51761765,-1.359582901,-2.472938061,-0.5311946869,2024-06-04 14:56:20.517618
27.55811067,1.200826168,0.4089281559,-1.19221735,2024-06-04 14:56:20.558111
27.59859791,3.831463337,-1.026630402,-1.576785088,2024-06-04 14:56:20.598598
27.63908332,2.957948208,-1.369660616,-1.443954945,2024-06-04 14:56:20.639083
27.67951265,3.33265543,0.5556321144,-1.46734643,2024-06-04 14:56:20.679513
27.72004468,4.954719543,2.335973978,-1.499006271,2024-06-04 14:56:20.720045
27.76054723,6.387704372,3.348408937,-1.224653482,2024-06-04 14:56:20.760547
27.80103286,2.398050308,1.94685483,0.4911437035,2024-06-04 14:56:20.801033
27.84152384,-0.5387477875,-0.4891767502,1.281429529,2024-06-04 14:56:20.841524
27.88196489,-2.398221493,-0.2925181389,1.90825963,2024-06-04 14:56:20.881965
27.92241827,-1.043848991,0.9678587914,1.327322483,2024-06-04 14:56:20.922418
27.96290619,-0.04229784012,-0.1917748451,0.4063353539,2024-06-04 14:56:20.962906
28.00339416,-1.058745384,-1.128162861,0.187456131,2024-06-04 14:56:21.003394
28.04393129,-2.978194237,0.7300243378,0.4771959782,2024-06-04 14:56:21.043931
28.0844628,-3.346319199,-0.8573646545,0.04580545425,2024-06-04 14:56:21.084463
28.12490478,-2.695081234,-1.641393661,1.514274597,2024-06-04 14:56:21.124905
28.16542494,-3.459675789,-0.6999931335,1.339362621,2024-06-04 14:56:21.165425
28.20586494,-1.078808784,-1.18810463,1.433161974,2024-06-04 14:56:21.205865
28.24641494,1.344689846,-0.5474238396,-0.09587430954,2024-06-04 14:56:21.246415
28.28691286,0.5417933464,0.2059679031,-0.05912566185,2024-06-04 14:56:21.286913
28.32741119,-1.617837429,-0.5628256798,0.326079607,2024-06-04 14:56:21.327411
28.36786796,-1.855436325,-2.098775864,0.2315306664,2024-06-04 14:56:21.367868
28.40830994,-1.076184273,-2.135842323,-0.5965929031,2024-06-04 14:56:21.408310
28.44879832,-2.486846924,-2.761348248,-0.6035280228,2024-06-04 14:56:21.448798
28.48933457,-0.4833650589,-1.779402256,-0.9412593842,2024-06-04 14:56:21.489335
28.52982082,2.213605881,-0.8521981239,-1.461561441,2024-06-04 14:56:21.529821
28.57030921,0.3219747543,-2.512631893,-1.935121059,2024-06-04 14:56:21.570309
28.61079749,0.9347486496,-1.638701677,-0.8031554222,2024-06-04 14:56:21.610797
28.65130827,2.396652699,-1.096434116,-1.351247072,2024-06-04 14:56:21.651308
28.6916953,2.989786148,-1.02849865,-1.630541563,2024-06-04 14:56:21.691695
28.73219108,4.623256683,1.959986687,-1.834910393,2024-06-04 14:56:21.732191
28.77267806,5.085541248,3.369898319,-1.886307478,2024-06-04 14:56:21.772678
28.81317572,4.562791824,2.723519802,-0.519425869,2024-06-04 14:56:21.813176
28.85368957,1.679526806,0.6190493107,0.3704924583,2024-06-04 14:56:21.853690
28.89420348,0.2277908325,-1.520246029,0.5820231438,2024-06-04 14:56:21.894203
28.93471134,-0.5137605667,-0.4379119873,0.5012154579,2024-06-04 14:56:21.934711
28.97512879,-0.8001194,0.9832687378,0.1981098652,2024-06-04 14:56:21.975129
29.01562192,-1.324243069,-1.306711197,-0.4373497963,2024-06-04 14:56:22.015622
29.05612426,-3.907544136,-1.523445129,-0.08184504509,2024-06-04 14:56:22.056124
29.09662572,-3.636936665,-0.228302002,-0.0427877903,2024-06-04 14:56:22.096626
29.13713494,-3.402191639,-0.5906119347,0.5312092304,2024-06-04 14:56:22.137135
29.17763213,-1.532381058,-1.959159851,1.549884796,2024-06-04 14:56:22.177632
29.21805515,-3.385606766,-1.557603359,2.07350564,2024-06-04 14:56:22.218055
29.2585653,0.2831506729,0.8394284248,0.6423211098,2024-06-04 14:56:22.258565
29.29910124,0.4955673218,-0.1491975784,-0.01901197433,2024-06-04 14:56:22.299101
29.33958947,0.04683589935,0.7675180435,-0.6233632565,2024-06-04 14:56:22.339589
29.38007332,-0.2796773911,0.1534342766,-0.9433813095,2024-06-04 14:56:22.380073
29.42056572,-2.859375477,-2.472056389,0.219753027,2024-06-04 14:56:22.420566
29.46105572,-1.237285137,-2.693017006,-0.4109475613,2024-06-04 14:56:22.461056
29.50152041,-1.998542786,-3.506510258,-0.8930392265,2024-06-04 14:56:22.501520
29.54195838,0.6283392906,-1.750853062,-0.5039381981,2024-06-04 14:56:22.541958
29.58245343,1.500514507,-1.276034594,-1.570348263,2024-06-04 14:56:22.582453
29.62292791,1.121655464,-1.040572405,-0.955827713,2024-06-04 14:56:22.622928
29.66343228,1.72023201,-0.8475799561,-0.8506765366,2024-06-04 14:56:22.663432
29.70392744,0.9325423241,-2.33169055,-0.05152893066,2024-06-04 14:56:22.703927
29.74445228,3.187091351,-1.068299294,-0.08144521713,2024-06-04 14:56:22.744452
29.78497119,7.278413773,2.725012064,-2.150847435,2024-06-04 14:56:22.784971
29.82543447,7.4088974,2.65995717,-2.481077909,2024-06-04 14:56:22.825434
29.86591937,-0.1198382378,-0.1617188454,1.127943039,2024-06-04 14:56:22.865919
29.90637681,3.16977787,1.598864079,-0.8924767971,2024-06-04 14:56:22.906377
29.94684681,0.0368270874,2.456429482,1.173151493,2024-06-04 14:56:22.946847
29.98732832,-1.794455528,-1.424252033,0.636677742,2024-06-04 14:56:22.987328
30.02784254,0.8126578331,-1.776803017,0.9608669281,2024-06-04 14:56:23.027843
30.06836317,-3.500811577,1.847678661,3.274292469,2024-06-04 14:56:23.068363
30.10885661,-4.909163952,-5.026818752,0.9170782566,2024-06-04 14:56:23.108857
30.14934681,3.028360844,-0.1187348366,0.2296466827,2024-06-04 14:56:23.149347
30.18983739,-3.215112686,0.2560915947,0.1553845406,2024-06-04 14:56:23.189837
30.23027145,-2.398143291,1.884436131,1.82152462,2024-06-04 14:56:23.230271
30.27078509,0.2839808464,0.3432936668,2.086944818,2024-06-04 14:56:23.270785
30.3113016,-1.841044903,-4.829742908,2.370991468,2024-06-04 14:56:23.311302
30.35179093,-2.043698788,-2.182035446,1.663855076,2024-06-04 14:56:23.351791
30.39222015,-0.8101987839,1.578188419,0.931147337,2024-06-04 14:56:23.392220
30.43267884,0.8167462349,1.740303516,-0.1579060555,2024-06-04 14:56:23.432679
30.47318483,2.8038764,-0.1721763611,-0.5663383007,2024-06-04 14:56:23.473185
30.51365395,-6.560659885,-4.379024982,1.465882301,2024-06-04 14:56:23.513654
30.5542277,-4.301118851,-3.037230968,-0.1813919544,2024-06-04 14:56:23.554228
30.59471655,2.911568165,-2.010626316,-2.018559933,2024-06-04 14:56:23.594717
30.63516999,2.756090164,-1.071633101,-2.031714916,2024-06-04 14:56:23.635170
30.67562905,0.7710242271,-0.7479186058,-2.657449245,2024-06-04 14:56:23.675629
30.71618093,1.052487373,0.9066306353,-1.963013172,2024-06-04 14:56:23.716181
30.75666155,2.850410461,-1.210574627,-1.468853951,2024-06-04 14:56:23.756662
30.79715827,2.613014221,-1.14691329,-1.381315231,2024-06-04 14:56:23.797158
30.83761733,3.88932085,2.350955486,-0.7649841309,2024-06-04 14:56:23.837617
30.87811134,4.159704208,2.426201105,-0.8469986916,2024-06-04 14:56:23.878111
30.91860983,2.411725998,1.214178324,-0.7273139954,2024-06-04 14:56:23.918610
30.95908838,3.648179054,2.871005297,-0.8005096912,2024-06-04 14:56:23.959088
30.99957671,0.4049181938,1.813461304,0.6849393845,2024-06-04 14:56:23.999577
31.04008421,-1.205397129,-0.8041505814,0.6268517971,2024-06-04 14:56:24.040084
31.08055056,-1.865215778,-2.249213219,1.905458927,2024-06-04 14:56:24.080551
31.12104062,-3.554475784,-2.823865414,1.315995693,2024-06-04 14:56:24.121041
31.1615566,-3.359449387,-3.183229446,0.582262516,2024-06-04 14:56:24.161557
31.20204499,-3.399327755,-1.391853333,0.485306263,2024-06-04 14:56:24.202045
31.24245088,-2.531817436,1.161305904,-0.06498742104,2024-06-04 14:56:24.242451
31.28294072,0.6023893356,3.204079151,-0.4298787117,2024-06-04 14:56:24.282941
31.3234264,-0.2790436745,-0.3255815506,1.262731791,2024-06-04 14:56:24.323426
31.36395072,-1.944225788,-2.05877018,1.271892786,2024-06-04 14:56:24.363951
31.40445676,-1.083582878,-0.4670028687,0.6622874737,2024-06-04 14:56:24.404457
31.44494384,-0.9552073479,-0.1901698112,-0.2823369503,2024-06-04 14:56:24.444944
31.48542598,-0.7689614296,-0.001651763916,0.0003547668457,2024-06-04 14:56:24.485426
31.52591166,-0.3759279251,-1.652583599,-0.5352194309,2024-06-04 14:56:24.525912
31.56640348,-2.116569042,-3.626008511,0.1021103859,2024-06-04 14:56:24.566403
31.60691765,-0.5392537117,-2.439018726,-0.5669777393,2024-06-04 14:56:24.606918
31.64741655,1.378349304,-1.835478783,-0.7674424648,2024-06-04 14:56:24.647417
31.6878128,2.021832943,-3.094822884,-0.2230701447,2024-06-04 14:56:24.687813
31.72834181,1.645640373,-0.8835878372,-1.042740583,2024-06-04 14:56:24.728342
31.7688427,2.71832943,0.6195297241,-2.290123224,2024-06-04 14:56:24.768843
31.80933426,3.372959614,-0.8564443588,-2.137988567,2024-06-04 14:56:24.809334
31.84982426,4.054512978,0.9374287128,-1.215749741,2024-06-04 14:56:24.849824
31.89031327,3.617754936,3.138947248,0.01672458649,2024-06-04 14:56:24.890313
31.93080197,3.702678204,1.861991644,-0.447314024,2024-06-04 14:56:24.930802
31.97129999,2.631328583,0.5243968964,-0.06218290329,2024-06-04 14:56:24.971300
32.01173067,1.699369431,1.441869497,-0.03952980042,2024-06-04 14:56:25.011731
32.05220207,0.2429041862,1.85325098,0.3695251942,2024-06-04 14:56:25.052202
32.09268567,-1.121835232,0.521294117,1.091906309,2024-06-04 14:56:25.092686
32.13317858,-1.650779724,-0.9527254105,1.348296881,2024-06-04 14:56:25.133179
32.17367645,-3.499684334,-2.470324039,1.064998865,2024-06-04 14:56:25.173676
32.21418015,-3.80604887,-1.994590282,0.358859539,2024-06-04 14:56:25.214180
32.2546639,-3.570719242,-1.395677567,0.3598177433,2024-06-04 14:56:25.254664
32.2951752,-4.455776215,-1.231812477,1.036847115,2024-06-04 14:56:25.295175
32.3356765,-1.997997761,1.766818523,0.9106411934,2024-06-04 14:56:25.335676
32.37615202,0.7453231812,0.530506134,0.848552227,2024-06-04 14:56:25.376152
32.41662312,0.5296492577,-0.7378106117,0.01952981949,2024-06-04 14:56:25.416623
32.45711317,-2.831513405,-1.384064198,0.1908969879,2024-06-04 14:56:25.457113
32.49762645,-1.872460365,-2.107242584,-1.10121274,2024-06-04 14:56:25.497626
32.53811681,1.05999136,-1.985264778,-1.277770042,2024-06-04 14:56:25.538117
32.57860796,-3.681788445,-2.506292343,-0.04848527908,2024-06-04 14:56:25.578608
32.61910046,-2.95665884,-1.598099232,-3.256700993,2024-06-04 14:56:25.619100
32.65955051,0.1647081375,-2.618076324,-0.02820396423,2024-06-04 14:56:25.659551
32.7000203,3.408713818,-1.292789698,-0.4513382912,2024-06-04 14:56:25.700020
32.74054874,3.982524395,0.09973955154,-2.639102459,2024-06-04 14:56:25.740549
32.78104733,-0.595682621,-2.816887856,-1.127384901,2024-06-04 14:56:25.781047
32.8215216,1.726870537,-2.005435228,-2.580007792,2024-06-04 14:56:25.821522
32.86197186,3.875866652,1.21552527,-1.863991261,2024-06-04 14:56:25.861972
32.90244556,4.823932648,2.341397285,-1.259352684,2024-06-04 14:56:25.902446
32.94294937,5.561122894,3.137848854,-0.9967207909,2024-06-04 14:56:25.942949
32.98343634,3.081166744,2.240387917,-0.2442092896,2024-06-04 14:56:25.983436
33.02393259,1.080884933,0.8652017117,0.2149734497,2024-06-04 14:56:26.023933
33.06446181,0.6710109711,-0.2342848778,0.344984293,2024-06-04 14:56:26.064462
33.10497598,-0.4089550972,-0.9505505562,0.2437102795,2024-06-04 14:56:26.104976
33.14544134,-2.383587837,-3.011212349,0.3316886425,2024-06-04 14:56:26.145441
33.18591541,-3.441114902,-3.282746792,-0.2633938789,2024-06-04 14:56:26.185915
33.22638968,-3.44973278,1.291457653,-0.5392343998,2024-06-04 14:56:26.226390
33.26690275,-2.293177128,1.209705353,-0.6480140686,2024-06-04 14:56:26.266903
33.30740197,-0.5111160278,0.3871183395,1.236389637,2024-06-04 14:56:26.307402
33.34787999,-3.994814396,-1.968275547,3.198893309,2024-06-04 14:56:26.347880
33.38835411,-4.043206692,-2.969083786,3.534058094,2024-06-04 14:56:26.388354
33.42879936,0.5962691307,-1.401707649,-0.1554367542,2024-06-04 14:56:26.428799
33.46933338,0.4804959297,-0.2367682457,-0.8985383511,2024-06-04 14:56:26.469333
33.50983244,2.382625103,1.468399525,-0.8093612194,2024-06-04 14:56:26.509832
33.55032957,-0.6906118393,-0.7337369919,0.7005865574,2024-06-04 14:56:26.550330
33.59082192,-5.903736115,-1.867274761,-0.2995407581,2024-06-04 14:56:26.590822
33.63131025,-2.649554253,-3.138512611,0.06118988991,2024-06-04 14:56:26.631310
33.67171619,0.756960392,-3.267965317,-0.2796065807,2024-06-04 14:56:26.671716
33.71220421,0.853281498,-2.702114105,-1.532097578,2024-06-04 14:56:26.712204
33.75269166,1.124397755,-0.5462803841,-1.41023922,2024-06-04 14:56:26.752692
33.7931764,1.841565609,-2.047149897,-2.77831316,2024-06-04 14:56:26.793176
33.83368572,3.538195133,-0.0593392849,-1.860869408,2024-06-04 14:56:26.833686
33.87422405,3.389646053,-0.1467547417,-1.367856026,2024-06-04 14:56:26.874224
33.91473879,3.53050375,1.868389606,-1.840898275,2024-06-04 14:56:26.914739
33.95520838,7.108520508,2.996553659,-1.13131547,2024-06-04 14:56:26.955208
33.99563218,4.900887966,3.015181541,-0.597376585,2024-06-04 14:56:26.995632
34.03617978,1.83368206,0.9691050053,0.3371682167,2024-06-04 14:56:27.036180
34.07666119,-0.3926801682,-0.5351514816,0.7362623215,2024-06-04 14:56:27.076661
34.11716541,-2.604548454,-2.84736681,0.7242441177,2024-06-04 14:56:27.117165
34.15764806,-2.076189995,-1.396022797,0.8778605461,2024-06-04 14:56:27.157648
34.19807129,-2.813222885,-0.8134951591,0.8636915684,2024-06-04 14:56:27.198071
34.23857884,-1.520619392,-1.6846385,0.4627144337,2024-06-04 14:56:27.238579
34.2791039,-2.728589535,-1.73176384,0.1495931149,2024-06-04 14:56:27.279104
34.31958812,-3.209282875,-0.3340573311,1.595704079,2024-06-04 14:56:27.319588
34.36009103,-2.326291561,-1.713484287,2.578805923,2024-06-04 14:56:27.360091
34.40058103,-2.07256794,-0.3071641922,1.917605162,2024-06-04 14:56:27.400581
34.44106301,0.5913219452,1.776087761,-1.197404027,2024-06-04 14:56:27.441063
34.48157067,2.169482708,1.484682083,-0.9614508152,2024-06-04 14:56:27.481571
34.52196551,1.425774574,-1.01383543,-0.1728596687,2024-06-04 14:56:27.521966
34.56243499,-5.749142647,-2.357604027,1.433811188,2024-06-04 14:56:27.562435
34.60295436,-5.400969028,-2.779854774,1.381184578,2024-06-04 14:56:27.602954
34.64346525,0.978348732,-3.779593468,0.1305038929,2024-06-04 14:56:27.643465
34.68395765,2.383649349,-2.814984322,-1.626419544,2024-06-04 14:56:27.683958
34.72449801,1.691917419,-1.157636642,-0.4610507488,2024-06-04 14:56:27.724498
34.76491442,-1.050600529,-1.506767511,-1.167568922,2024-06-04 14:56:27.764914
34.80542723,1.078881264,-1.048482418,-2.449475765,2024-06-04 14:56:27.805427
34.84594343,3.796023369,0.2786972523,-1.528527737,2024-06-04 14:56:27.845943
34.88640119,4.623959064,0.4863126278,-2.272007227,2024-06-04 14:56:27.886401
34.92691254,3.237275124,1.225777388,-0.9982085228,2024-06-04 14:56:27.926913
34.96740062,5.69778347,2.707923651,-1.598970175,2024-06-04 14:56:27.967401
35.00781619,2.524281502,1.397314548,0.1348319054,2024-06-04 14:56:28.007816
35.04831249,2.354165554,0.4977288246,-0.6484954357,2024-06-04 14:56:28.048312
35.08885765,1.886599064,1.887917519,-0.0004410743713,2024-06-04 14:56:28.088858
35.12934327,-2.074623585,1.386361599,1.61852622,2024-06-04 14:56:28.129343
35.16984614,-1.56665802,-0.215628624,0.8938245773,2024-06-04 14:56:28.169846
35.21028176,-1.212797642,0.565120697,1.359737396,2024-06-04 14:56:28.210282
35.25075093,-3.373120785,-3.863183022,0.8988878727,2024-06-04 14:56:28.250751
35.29129994,-2.585225582,-0.1561312675,0.6661376953,2024-06-04 14:56:28.291300
35.33175228,-4.437957764,-0.7866334915,0.2165668011,2024-06-04 14:56:28.331752
35.37221989,-2.722654343,-0.5489549637,0.9016287327,2024-06-04 14:56:28.372220
35.41271291,-0.8676218987,0.05793190002,1.008987904,2024-06-04 14:56:28.412713
35.45320395,-0.9034867287,-0.2128124237,1.717605829,2024-06-04 14:56:28.453204
35.49372827,1.280772209,0.4594373703,0.3650307655,2024-06-04 14:56:28.493728
35.53424864,-0.2764992714,0.0823969841,0.4508616924,2024-06-04 14:56:28.534249
35.57472317,-2.790211201,-1.485171795,2.021472216,2024-06-04 14:56:28.574723
35.61519525,-0.559053421,-1.4167099,0.6129786968,2024-06-04 14:56:28.615195
35.65568718,1.285690308,-2.065585136,-0.4782574177,2024-06-04 14:56:28.655687
35.69615062,-1.322525501,-2.97658205,-0.3548116684,2024-06-04 14:56:28.696151
35.73663983,-2.44719553,-2.810051203,-0.3931627274,2024-06-04 14:56:28.736640
35.77715957,0.2951874733,-0.8763077259,-0.9804668427,2024-06-04 14:56:28.777160
35.81765338,2.642316818,0.4118921757,-2.116710424,2024-06-04 14:56:28.817653
35.85813921,3.433804035,-0.4131536484,-0.9167132378,2024-06-04 14:56:28.858139
35.898614,1.88725853,-1.366430759,-0.2159047127,2024-06-04 14:56:28.898614
35.93910499,4.931247234,0.820253849,-1.47007966,2024-06-04 14:56:28.939105
35.97950306,8.579577446,3.05422163,-1.844877243,2024-06-04 14:56:28.979503
36.02000291,6.641695976,2.89917016,-1.241439342,2024-06-04 14:56:29.020003
36.0605402,1.493723869,1.798708439,0.4902362823,2024-06-04 14:56:29.060540
36.10107286,-1.43398428,1.296203613,1.982306719,2024-06-04 14:56:29.101073
36.14154655,-5.701427937,-1.598045826,2.026696444,2024-06-04 14:56:29.141547
36.18194853,-1.55719614,-1.637057781,0.4043772221,2024-06-04 14:56:29.181949
36.22243676,-2.676511288,-0.7748560905,0.6022582054,2024-06-04 14:56:29.222437
36.26294233,-3.199506283,0.05709171295,0.9367809296,2024-06-04 14:56:29.262942
36.30346186,-2.630703449,0.0387263298,0.987401247,2024-06-04 14:56:29.303462
36.34395712,-4.92659235,-1.473187447,2.185855627,2024-06-04 14:56:29.343957
36.38447884,-4.067445278,-0.5421013832,1.537263632,2024-06-04 14:56:29.384479
36.42491093,-2.995135784,-1.29308033,0.3937563896,2024-06-04 14:56:29.424911
36.46542973,0.4760966301,-0.2616567612,-1.683777332,2024-06-04 14:56:29.465430
36.50593286,0.2844057083,-1.556169033,-0.9191195965,2024-06-04 14:56:29.505933
36.5463991,-1.552609444,-2.204338074,-0.5125086308,2024-06-04 14:56:29.546399
36.58691082,-1.498682976,-0.9737477303,-0.9363977909,2024-06-04 14:56:29.586911
36.62740202,0.440841198,-1.104846001,-0.5883460045,2024-06-04 14:56:29.627402
36.66790244,-0.7315535545,-3.351511955,-2.002504349,2024-06-04 14:56:29.667902
36.70838249,-0.8509964943,-1.956837416,-2.587412596,2024-06-04 14:56:29.708382
36.74887494,-0.2687182426,-1.652184963,-2.559020758,2024-06-04 14:56:29.748875
36.78937056,2.398936272,-0.5590546131,-3.038868666,2024-06-04 14:56:29.789371
36.82985713,1.128983498,0.3298711777,-2.05130887,2024-06-04 14:56:29.829857
36.87032999,4.403247833,-1.40124011,-2.601814985,2024-06-04 14:56:29.870330
36.91082041,4.289343834,0.731678009,-0.5863699913,2024-06-04 14:56:29.910820
36.95131562,4.210410118,2.099265099,-1.676642418,2024-06-04 14:56:29.951316
36.9918052,6.355393887,3.137209892,-1.432499886,2024-06-04 14:56:29.991805
37.03229364,1.215439796,2.50413847,0.1820631027,2024-06-04 14:56:30.032294
37.07274004,-5.083891869,-2.067880154,2.20374608,2024-06-04 14:56:30.072740
37.11317353,-5.564929962,-3.335999012,1.069796324,2024-06-04 14:56:30.113174
37.15369926,-2.587511539,-1.588264942,-0.769200325,2024-06-04 14:56:30.153699
37.19418775,0.0895113945,0.6283946037,-1.916375995,2024-06-04 14:56:30.194188
37.23469999,-1.610604763,0.439687252,0.3786308765,2024-06-04 14:56:30.234700
37.27518499,-3.219682693,-0.4040102959,0.4756913185,2024-06-04 14:56:30.275185
37.31573223,-0.6443834305,1.009211063,1.250604868,2024-06-04 14:56:30.315732
37.35619275,-1.056766033,0.620698452,1.614632845,2024-06-04 14:56:30.356193
37.39668114,-1.632825851,-0.05876588821,0.5927114487,2024-06-04 14:56:30.396681
37.43712504,-3.81983757,-3.487757683,1.918916464,2024-06-04 14:56:30.437125
37.47766593,-0.935338974,-2.730633736,-1.692518234,2024-06-04 14:56:30.477666
37.51814801,0.1937823296,-1.80836916,0.5328681469,2024-06-04 14:56:30.518148
37.55864077,-0.4444584846,-2.754779339,-1.771584749,2024-06-04 14:56:30.558641
37.59913671,2.082294941,-0.2366628647,-0.8477911949,2024-06-04 14:56:30.599137
37.63958843,0.9162130356,-1.238587379,-1.845022202,2024-06-04 14:56:30.639588
37.68002108,-2.63025713,-3.234381437,-2.201837063,2024-06-04 14:56:30.680021
37.72059244,-0.9111738205,-0.07640504837,-1.220914841,2024-06-04 14:56:30.720592
37.76108384,0.7507300377,-2.198270082,-3.545023203,2024-06-04 14:56:30.761084
37.80156874,7.054476261,1.048361421,-1.971786976,2024-06-04 14:56:30.801569
37.84205718,5.656910896,2.351474285,-1.352823019,2024-06-04 14:56:30.842057
37.88244327,6.691297531,3.42548871,-1.990616083,2024-06-04 14:56:30.882443
37.922939,4.849574089,2.52213335,-1.432304621,2024-06-04 14:56:30.922939
37.96342712,2.801737309,1.61312294,-0.4703240395,2024-06-04 14:56:30.963427
38.0039302,-2.137140274,-1.756710529,1.909975529,2024-06-04 14:56:31.003930
38.04444473,-3.546329021,-2.972968578,1.680025101,2024-06-04 14:56:31.044445
38.08494838,-0.1841807365,-0.8523154259,-0.2937850952,2024-06-04 14:56:31.084948
38.12545317,-1.125538826,-0.5076756477,-0.8888137341,2024-06-04 14:56:31.125453
38.16593161,-1.916810513,1.509672165,-0.2847182751,2024-06-04 14:56:31.165932
38.20641869,-4.514190674,0.1614494324,1.326960087,2024-06-04 14:56:31.206419
38.24685676,-6.626712799,-1.292908192,2.865550995,2024-06-04 14:56:31.246857
38.28741541,-4.720517635,-4.021625996,2.995820522,2024-06-04 14:56:31.287415
38.32791286,-0.5212368965,-2.283323288,0.3982360363,2024-06-04 14:56:31.327913
38.36839686,0.5956020355,0.7174015045,-0.3241882324,2024-06-04 14:56:31.368397
38.4088916,-0.06891345978,-0.0438041687,-0.1103608608,2024-06-04 14:56:31.408892
38.44931312,0.3168888092,-1.110313892,1.066614389,2024-06-04 14:56:31.449313
38.48986254,-4.737377644,-4.810678005,-0.2044816017,2024-06-04 14:56:31.489863
38.53035056,1.226836205,-2.354735851,-0.8203384876,2024-06-04 14:56:31.530351
38.57084036,0.1255741119,-2.548613787,-0.2038035393,2024-06-04 14:56:31.570840
38.61133015,-3.793293476,-3.028047562,-0.9395074844,2024-06-04 14:56:31.611330
38.65174827,-0.7349004745,-3.204314232,-1.63992548,2024-06-04 14:56:31.651748
38.69225973,5.739095688,-1.670080662,-2.451465368,2024-06-04 14:56:31.692260
38.73272129,7.241482735,1.64058125,-2.096223354,2024-06-04 14:56:31.732721
38.77320666,5.92270565,3.176839352,-2.537711382,2024-06-04 14:56:31.773207
38.81372343,6.095360756,2.700074673,-1.19185257,2024-06-04 14:56:31.813723
38.85423494,1.918119907,0.9871287346,0.2735013962,2024-06-04 14:56:31.854235
38.89476223,-0.889901638,-1.75374651,1.112972498,2024-06-04 14:56:31.894762
38.93524759,-0.3045868874,-1.795692921,0.7987928391,2024-06-04 14:56:31.935248
38.9757364,-0.231192112,-0.7790932655,0.3914856911,2024-06-04 14:56:31.975736
39.01620884,-1.16714859,-0.5762672424,-0.2568080425,2024-06-04 14:56:32.016209
39.05667712,-2.246098518,-0.211016655,-0.1529178619,2024-06-04 14:56:32.056677
39.09718098,-2.463567257,-0.489944458,-0.4749736786,2024-06-04 14:56:32.097181
39.13765791,-3.694417477,-0.5773906708,1.748970985,2024-06-04 14:56:32.137658
39.17816036,-4.867474079,-2.167881489,2.967815638,2024-06-04 14:56:32.178160
39.21862556,-3.85982275,-2.395874023,3.662551165,2024-06-04 14:56:32.218626
39.25909098,1.156105518,-0.1282773018,-1.220174193,2024-06-04 14:56:32.259091
39.29962702,4.255466461,0.7115216255,-1.508322477,2024-06-04 14:56:32.299627
39.34011582,2.2945714,-0.2697305679,0.2077176571,2024-06-04 14:56:32.340116
39.38060301,-3.150785923,-0.7532315254,0.1175823212,2024-06-04 14:56:32.380603
39.42103832,-7.532045364,-2.566763401,0.2429487705,2024-06-04 14:56:32.421038
39.46151233,-0.7129683495,-4.176454544,-0.4131724834,2024-06-04 14:56:32.461512
39.50197286,0.887198925,-5.150485039,-0.9284071922,2024-06-04 14:56:32.501973
39.54246036,-1.753920555,-3.062467813,-1.257117748,2024-06-04 14:56:32.542460
39.58295614,1.699371338,-0.3562512398,-3.828529835,2024-06-04 14:56:32.582956
39.62346478,6.339548588,0.49289608,-2.433734894,2024-06-04 14:56:32.623465
39.66399931,5.774146557,1.257912159,-2.026822329,2024-06-04 14:56:32.663999
39.70450619,6.430392265,1.792787671,-2.405664682,2024-06-04 14:56:32.704506
39.74497166,-0.5721149445,-0.6807663441,0.7661089897,2024-06-04 14:56:32.744972
39.78543869,2.305429459,-1.021611691,0.2522821426,2024-06-04 14:56:32.785439
39.8259052,6.117616653,1.633080244,-0.0988304615,2024-06-04 14:56:32.825905
39.86640999,5.348068714,2.950818539,-0.7472188473,2024-06-04 14:56:32.866410
39.90692119,3.208610058,-0.145049572,0.6306917667,2024-06-04 14:56:32.906921
39.94741462,-11.97732353,-6.072414875,3.398608446,2024-06-04 14:56:32.947415
39.98790291,-6.890405178,-2.874050617,0.6338305473,2024-06-04 14:56:32.987903
40.02836171,0.2802095413,-0.8552212715,-1.836714268,2024-06-04 14:56:33.028362
40.06886436,0.4107275009,-0.3277978897,-1.51113832,2024-06-04 14:56:33.068864
40.10936572,1.077316761,1.586231232,0.1756615639,2024-06-04 14:56:33.109366
40.14986582,-0.2666683197,0.3438944817,1.238724947,2024-06-04 14:56:33.149866
40.19036025,0.4341473579,1.264136314,1.055397987,2024-06-04 14:56:33.190360
40.2308003,-1.868218422,1.569174767,1.718561411,2024-06-04 14:56:33.230800
40.27130931,-3.384738922,-0.5710968971,0.9196639061,2024-06-04 14:56:33.271309
40.31177358,-1.755308151,-1.155246735,-0.005393266678,2024-06-04 14:56:33.311774
40.3522464,1.47988987,-2.010677814,-0.1064538956,2024-06-04 14:56:33.352246
40.39271286,0.6840057373,-4.202747822,-1.271854997,2024-06-04 14:56:33.392713
40.43325254,0.7103786469,0.7884340286,-0.9403259754,2024-06-04 14:56:33.433253
40.47373103,2.298595667,2.716246605,-1.115157604,2024-06-04 14:56:33.473731
40.51426582,4.482234955,2.565764904,-0.575145483,2024-06-04 14:56:33.514266
40.55471004,1.980193138,-1.311106682,1.044677734,2024-06-04 14:56:33.554710
40.59520921,-8.762270927,0.6447072029,0.8800623417,2024-06-04 14:56:33.595209
40.63576619,3.655709982,2.533226967,-1.794986248,2024-06-04 14:56:33.635766
40.67620207,1.75408268,-0.6642465591,-0.1529991627,2024-06-04 14:56:33.676202
40.71668374,0.5276837349,-4.666762352,-0.5285474062,2024-06-04 14:56:33.716684
40.75719916,-7.489704609,-1.654054165,1.272761106,2024-06-04 14:56:33.757199
40.79768369,4.868407249,3.766656876,-1.71013701,2024-06-04 14:56:33.797684
40.83814822,4.396492958,0.5367593765,-0.06618213654,2024-06-04 14:56:33.838148
40.87865619,1.939763308,-0.1618919373,1.568971634,2024-06-04 14:56:33.878656
40.91914296,-10.4420433,-3.313510418,-0.06632733345,2024-06-04 14:56:33.919143
40.95963145,6.742008209,4.563096523,-1.359292984,2024-06-04 14:56:33.959631
41.00011989,1.617763996,-8.40260601,-0.6271190643,2024-06-04 14:56:34.000120
41.04053447,1.156812191,2.407822609,-0.111697793,2024-06-04 14:56:34.040534
41.0810815,-1.22375679,-0.05273914337,2.407180786,2024-06-04 14:56:34.081082
41.12157671,1.499167442,1.443948746,-0.1347507238,2024-06-04 14:56:34.121577
41.16199254,1.284345627,2.593167305,-0.4055764675,2024-06-04 14:56:34.161993
41.20248098,-5.301926136,-5.544215202,1.456599951,2024-06-04 14:56:34.202481
41.24296161,-0.1879649162,3.071759701,-1.098593235,2024-06-04 14:56:34.242962
41.28347723,2.155510187,-2.195931435,-0.3016555309,2024-06-04 14:56:34.283477
41.32397936,-0.7731871605,-1.180303574,-0.457275629,2024-06-04 14:56:34.323979
41.36450416,1.727267742,-0.2308955193,0.3760678768,2024-06-04 14:56:34.364504
41.40496155,-0.2489147186,-1.045611858,0.5246417522,2024-06-04 14:56:34.404962
41.44541218,1.772465229,3.656367302,-0.5162463188,2024-06-04 14:56:34.445412
41.48596582,1.904460669,-3.671666145,0.4315581322,2024-06-04 14:56:34.485966
41.52640577,-2.742186546,0.9014844894,-0.394603014,2024-06-04 14:56:34.526406
41.56694384,-0.6597371101,-0.5583510399,0.7592346668,2024-06-04 14:56:34.566944
41.60738025,-0.9861779213,-1.597356319,-0.9289793968,2024-06-04 14:56:34.607380
41.64793082,1.379760504,3.449121475,-1.252387762,2024-06-04 14:56:34.647931
41.68842004,6.591254234,1.293199062,0.2732493877,2024-06-04 14:56:34.688420
41.7289065,-9.947612762,-5.869172096,0.2760009766,2024-06-04 14:56:34.728907
41.7693714,4.050658226,7.603145123,-1.342716575,2024-06-04 14:56:34.769371
41.80988301,1.07753706,-8.374677658,0.7916448116,2024-06-04 14:56:34.809883
41.85036655,-0.3545002937,2.905408859,-1.95646739,2024-06-04 14:56:34.850367
41.89085749,1.31014967,0.6096191406,0.6939489841,2024-06-04 14:56:34.890857
41.93134202,0.2731075287,-2.208972931,0.2409374714,2024-06-04 14:56:34.931342
41.97178832,-2.52292347,3.011586666,-1.210309029,2024-06-04 14:56:34.971788
42.01227687,4.627840042,0.8127560616,0.1884810925,2024-06-04 14:56:35.012277
42.05274228,-8.443302155,-2.36353159,-0.268494606,2024-06-04 14:56:35.052742
42.09321962,7.50392437,3.059151173,-1.612802863,2024-06-04 14:56:35.093220
42.13372457,-0.9492321014,-5.338227272,0.6650886536,2024-06-04 14:56:35.133725
42.1742265,-0.7229094505,-0.639954567,0.2205605507,2024-06-04 14:56:35.174227
42.21470983,1.702717781,-0.1159210205,0.3859224319,2024-06-04 14:56:35.214710
42.25520348,0.278263092,-0.41705513,-1.156213522,2024-06-04 14:56:35.255203
42.29571452,5.954101086,4.383428097,-0.2157149315,2024-06-04 14:56:35.295715
42.33617801,-3.790747643,-3.832821846,1.156485558,2024-06-04 14:56:35.336178
42.37667322,-0.1849255562,2.777625084,-0.7505214214,2024-06-04 14:56:35.376673
42.417179,-0.621216774,-1.669483185,0.4634282589,2024-06-04 14:56:35.417179
42.45765431,0.2248868942,-1.268837929,-0.09119677544,2024-06-04 14:56:35.457654
42.49817036,1.085511923,-0.9706544876,0.1756129265,2024-06-04 14:56:35.498170
42.53865098,1.602272511,0.1540670395,-0.2403341532,2024-06-04 14:56:35.538651
42.57914369,-0.1849327087,0.8127393723,0.1898781061,2024-06-04 14:56:35.579144
42.61964395,1.320502996,2.247653484,-0.5108375549,2024-06-04 14:56:35.619644
42.66012322,1.220580816,1.703872204,-0.165314436,2024-06-04 14:56:35.660123
42.700604,-0.116004467,1.036017418,-0.08158183098,2024-06-04 14:56:35.700604
42.74110697,-1.65881443,2.409549713,0.3652328253,2024-06-04 14:56:35.741107
42.78159697,-0.6053752899,-3.235696793,0.7957880497,2024-06-04 14:56:35.781597
42.82208468,-2.857048512,-1.837387085,0.042542696,2024-06-04 14:56:35.822085
42.86254952,0.651068449,-1.434981346,0.5418272018,2024-06-04 14:56:35.862550
42.90299145,0.9808735847,-0.7446527481,-0.2110886574,2024-06-04 14:56:35.902991
42.94350025,-0.1730289459,1.554510117,-0.3475650549,2024-06-04 14:56:35.943500
42.98398296,3.229183197,3.585674286,-1.181713581,2024-06-04 14:56:35.983983
43.02448728,-1.067183971,-1.159383774,1.237148762,2024-06-04 14:56:36.024487
43.06498556,-5.522828579,-0.2411794662,0.1311657429,2024-06-04 14:56:36.064986
43.105479,0.1535739899,-0.9898004532,0.1630280018,2024-06-04 14:56:36.105479
43.14594879,-2.078830719,-4.001311302,0.4517598152,2024-06-04 14:56:36.145949
43.18642655,1.322727442,-0.9901666641,-0.4035151005,2024-06-04 14:56:36.186427
43.22691416,1.753356934,0.6948542595,-0.207473278,2024-06-04 14:56:36.226914
43.26743077,1.312359333,1.117603779,-0.3405203819,2024-06-04 14:56:36.267431
43.30793936,0.1645083427,1.346212864,-0.3681819439,2024-06-04 14:56:36.307939
43.34842869,0.02760219574,1.130155563,-0.4415438175,2024-06-04 14:56:36.348429
43.3888839,-0.4702949524,0.05624008179,-0.2321834564,2024-06-04 14:56:36.388884
43.42934046,-1.435100555,-0.585899353,0.1478910446,2024-06-04 14:56:36.429340
43.46985254,-0.4780807495,-0.6303386688,0.2487237453,2024-06-04 14:56:36.469853
43.51035962,0.1448278427,-0.2671728134,-0.0312204361,2024-06-04 14:56:36.510360
43.550864,0.2086486816,-0.8395690918,-0.008265733719,2024-06-04 14:56:36.550864
43.5913628,0.3262696266,-0.1987991333,-0.02990627289,2024-06-04 14:56:36.591363
43.63179931,0.1371665001,0.218878746,-0.2356193066,2024-06-04 14:56:36.631799
43.67226025,0.4339232445,0.1222362518,-0.368714571,2024-06-04 14:56:36.672260
43.71273286,-0.2691760063,0.3965792656,-0.3795553446,2024-06-04 14:56:36.712733
43.75321062,0.5078248978,0.5916705132,-0.3046350479,2024-06-04 14:56:36.753211
43.79377155,-0.6378860474,-0.1658763885,0.3610999584,2024-06-04 14:56:36.793772
43.83428744,-0.2514166832,0.1951370239,-0.07579898834,2024-06-04 14:56:36.834287
43.87473572,-0.2073559761,-0.6478567123,-0.09236288071,2024-06-04 14:56:36.874736
43.91524489,-0.1818823814,-0.4332380295,-0.1628863811,2024-06-04 14:56:36.915245
43.95573343,0.6550803185,-0.03562068939,-0.2433245182,2024-06-04 14:56:36.955733
43.99622192,0.5381150246,-0.2532367706,-0.3417720795,2024-06-04 14:56:36.996222
44.03666499,0.7657635212,-0.08294868469,-0.4365115166,2024-06-04 14:56:37.036665
44.07722989,0.5411367416,-0.2368412018,-0.1567754745,2024-06-04 14:56:37.077230
44.11768082,0.5089917183,0.0772819519,-0.2481863499,2024-06-04 14:56:37.117681
44.15817327,0.1480340958,-0.2774343491,-0.1635508537,2024-06-04 14:56:37.158173
44.19866176,-0.429517746,-0.226899147,-0.2465362549,2024-06-04 14:56:37.198662
44.23913077,-0.640083313,-0.7220993042,-0.0765311718,2024-06-04 14:56:37.239131
44.27964358,-0.23234272,-0.6704683304,-0.2506797314,2024-06-04 14:56:37.279644
44.32013619,0.3646612167,-0.1905097961,-0.6249592304,2024-06-04 14:56:37.320136
44.36062572,0.2327423096,-0.2568511963,-0.5188820362,2024-06-04 14:56:37.360626
44.40111202,0.4591326714,0.2991709709,-0.8533325195,2024-06-04 14:56:37.401112
44.44152723,0.03115653992,0.2878923416,-0.6341733932,2024-06-04 14:56:37.441527
44.48200567,-0.5616359711,-0.04230308533,-0.5662424564,2024-06-04 14:56:37.482006
44.5225303,-0.1594061852,-0.09852790833,-0.7886304855,2024-06-04 14:56:37.522530
44.56300119,-0.3810195923,-0.4002981186,-0.737323761,2024-06-04 14:56:37.563001
44.60353447,-0.397778511,-0.1689834595,-0.6640620232,2024-06-04 14:56:37.603534
44.64399791,0.153178215,-0.2856664658,-1.038691044,2024-06-04 14:56:37.643998
44.68455603,-0.5468139648,-0.1727552414,-0.8706784248,2024-06-04 14:56:37.684556
44.72499462,-0.3625588417,-0.279176712,-1.004744768,2024-06-04 14:56:37.724995
44.76548364,-0.3991560936,-0.3065633774,-0.8648180962,2024-06-04 14:56:37.765484
44.80595666,-0.2294278145,-0.3926839828,-0.8694746494,2024-06-04 14:56:37.805957
44.84644051,-0.1253604889,0.06407642365,-1.097673774,2024-06-04 14:56:37.846441
44.88695994,-0.4449706078,0.05983543396,-0.8499982357,2024-06-04 14:56:37.886960
44.92745473,-0.4612588882,0.1335935593,-0.9365746975,2024-06-04 14:56:37.927455
44.96794379,-0.480132103,0.3575396538,-0.7753899097,2024-06-04 14:56:37.967944
45.00833249,-0.4157547951,-0.2465324402,-0.6029169559,2024-06-04 14:56:38.008332
45.04885129,-0.07170438766,-0.5681829453,-0.8426370621,2024-06-04 14:56:38.048851
45.08941551,-0.3700895309,0.3872103691,-0.5605678558,2024-06-04 14:56:38.089416
45.12989952,0.5686454773,-2.533162117,-0.4243972301,2024-06-04 14:56:38.129900
45.17039036,-0.4377150536,-1.123392105,-0.797185421,2024-06-04 14:56:38.170390
45.21087911,-0.4528217316,-1.695107937,0.01213097572,2024-06-04 14:56:38.210879
45.25129343,0.177875042,-0.7303128242,-0.7124917507,2024-06-04 14:56:38.251293
45.29181176,0.5855998993,0.9458575249,-0.7485630512,2024-06-04 14:56:38.291812
45.33230056,1.199290752,0.3688750267,-0.947306633,2024-06-04 14:56:38.332301
45.37274614,1.779788971,0.2553653717,-1.160875082,2024-06-04 14:56:38.372746
45.41323671,0.272043705,-1.397443295,-0.05685400963,2024-06-04 14:56:38.413237
45.45377629,-1.998589993,-1.879652023,-0.1232018471,2024-06-04 14:56:38.453776
45.4942928,1.332277775,-2.790358543,-0.2161071301,2024-06-04 14:56:38.494293
45.53479718,0.3817968369,-2.802745819,-0.3255593777,2024-06-04 14:56:38.534797
45.5752828,1.952409983,-2.409137249,-0.5911009312,2024-06-04 14:56:38.575283
45.61572661,2.405478716,-0.8656077385,-0.6465566158,2024-06-04 14:56:38.615727
45.65621702,2.337418318,-0.7224998474,-0.6764557362,2024-06-04 14:56:38.656217
45.69671056,2.815008402,0.6337394714,-0.622363925,2024-06-04 14:56:38.696711
45.7372152,2.702105999,0.8280806541,-0.02231764793,2024-06-04 14:56:38.737215
45.77771364,1.563109875,-2.458706379,-0.1122515202,2024-06-04 14:56:38.777714
45.81820536,-0.6069397926,-2.239379406,0.3398258686,2024-06-04 14:56:38.818205
45.85869437,0.1325984001,-1.704332352,0.2335548401,2024-06-04 14:56:38.858694
45.89917994,0.4925050735,-0.7206282616,0.09121012688,2024-06-04 14:56:38.899180
45.93966286,0.9856071472,-1.030619621,0.0002601146698,2024-06-04 14:56:38.939663
45.98007546,1.522333622,-1.682683468,-0.2990130186,2024-06-04 14:56:38.980075
46.02057801,1.647303581,-1.217705727,0.04070973396,2024-06-04 14:56:39.020578
46.06110202,1.767787933,-1.583705902,-0.02259850502,2024-06-04 14:56:39.061102
46.10157775,3.200466394,-0.8144311905,-0.1378452778,2024-06-04 14:56:39.101578
46.14201603,3.198652744,0.3569750786,-0.1602911949,2024-06-04 14:56:39.142016
46.18251567,0.9820413589,-0.2230396271,0.415450573,2024-06-04 14:56:39.182516
46.22299697,-0.6058068275,-0.9648714066,0.4784522057,2024-06-04 14:56:39.222997
46.2635078,0.663769722,-1.355958462,0.7363610268,2024-06-04 14:56:39.263508
46.30401134,0.005728244781,-1.750457764,0.6247160435,2024-06-04 14:56:39.304011
46.344554,0.07505989075,-1.090549946,0.4268181324,2024-06-04 14:56:39.344554
46.38503838,0.5235285759,-1.420929432,-6.628036499e-05,2024-06-04 14:56:39.385038
46.42542473,0.3205738068,-0.3871855736,-0.3390603065,2024-06-04 14:56:39.425425
46.46597046,0.6136212349,-0.1697492599,-0.3059530258,2024-06-04 14:56:39.465970
46.50650124,0.7474303246,-1.596333981,-0.4580469131,2024-06-04 14:56:39.506501
46.54698952,0.3137946129,-3.276150703,0.2063014507,2024-06-04 14:56:39.546990
46.58746124,1.080718517,-2.219116211,0.3126149178,2024-06-04 14:56:39.587461
46.62793733,1.077708721,-1.725889206,0.02988982201,2024-06-04 14:56:39.627937
46.66843692,1.635865211,-1.526940346,0.1155159473,2024-06-04 14:56:39.668437
46.70892629,1.345467091,-1.12774992,0.3316814899,2024-06-04 14:56:39.708926
46.74940957,-0.005848407745,-1.870382786,0.4508414268,2024-06-04 14:56:39.749410
46.78990739,0.2120509148,-1.841085911,-0.3214142323,2024-06-04 14:56:39.789907
46.83039921,-0.4860901833,-2.116395473,0.7291059494,2024-06-04 14:56:39.830399
46.87089004,0.2181954384,-1.199600935,-0.2086176872,2024-06-04 14:56:39.870890
46.91138072,1.049657822,-0.2967214584,-0.3831505775,2024-06-04 14:56:39.911381
46.95186978,1.061778069,-0.3065199852,-0.9175834656,2024-06-04 14:56:39.951870
46.99225421,1.573934555,-0.6064562798,-0.3574614525,2024-06-04 14:56:39.992254
47.03277509,2.665881157,-0.176333189,-0.5210828781,2024-06-04 14:56:40.032775
47.0732916,1.62641573,0.5997238159,-0.4552326202,2024-06-04 14:56:40.073292
47.11378567,1.262056828,2.416857481,-2.291302204,2024-06-04 14:56:40.113786
47.15431036,0.5234098434,1.898379803,-1.100276947,2024-06-04 14:56:40.154310
47.19479936,-0.9538955688,-1.259677887,0.4255251884,2024-06-04 14:56:40.194799
47.23528838,-2.252347946,0.3717005253,0.3728804588,2024-06-04 14:56:40.235288
47.27574957,-1.417174339,0.1149287224,-0.3958892822,2024-06-04 14:56:40.275750
47.31622483,-0.1671152115,-1.587767839,1.397428513,2024-06-04 14:56:40.316225
47.35672447,1.226531506,-0.7788169384,2.404477596,2024-06-04 14:56:40.356724
47.39722004,2.266684055,-0.9146339893,1.115027428,2024-06-04 14:56:40.397220
47.43764671,1.734019995,0.3899857998,0.6510577202,2024-06-04 14:56:40.437647
47.47819692,1.98091507,0.8430740833,-1.139611721,2024-06-04 14:56:40.478197
47.51869999,1.292594433,-0.4223284721,-0.04693031311,2024-06-04 14:56:40.518700
47.559189,0.33624506,-0.1476209164,0.04758262634,2024-06-04 14:56:40.559189
47.59967702,-0.08314943314,0.7003669739,1.12075901,2024-06-04 14:56:40.599677
47.64016202,1.601297379,1.191994667,0.1029410362,2024-06-04 14:56:40.640162
47.68064707,1.172922134,0.2520599365,0.8899121284,2024-06-04 14:56:40.680647
47.72114676,0.6738667488,-0.1903553009,1.232914925,2024-06-04 14:56:40.721147
47.76159707,1.417459011,0.5193405151,0.2306046486,2024-06-04 14:56:40.761597
47.8020439,1.16134119,0.2555403709,0.6264472008,2024-06-04 14:56:40.802044
47.8425314,0.4551091194,0.1446456909,0.289835453,2024-06-04 14:56:40.842531
47.88301114,1.389587879,0.4710655212,0.01130390167,2024-06-04 14:56:40.883011
47.92352572,0.03527116776,0.030813694,1.163189411,2024-06-04 14:56:40.923526
47.9640139,0.2689116001,0.77196455,0.7080597878,2024-06-04 14:56:40.964014
48.00449468,0.6902880669,1.549835682,0.4078755379,2024-06-04 14:56:41.004495
48.04496473,0.7862277031,2.019129276,0.2820105553,2024-06-04 14:56:41.044965
48.08549822,0.6295907497,1.526714563,1.392983913,2024-06-04 14:56:41.085498
48.12599895,0.03991699219,0.6775882244,1.125265121,2024-06-04 14:56:41.125999
48.16646223,0.6446156502,0.651818037,0.3784999847,2024-06-04 14:56:41.166462
48.20690462,0.7417545319,0.7179915905,0.4690761566,2024-06-04 14:56:41.206905
48.24748374,0.9403162003,0.724316597,0.3295493126,2024-06-04 14:56:41.247484
48.28795192,0.4952993393,0.6464095116,0.9701533318,2024-06-04 14:56:41.287952
48.3284453,0.7432842255,0.9022641182,0.9386677742,2024-06-04 14:56:41.328445
48.36893457,-0.5617833138,-0.1955966949,1.331304073,2024-06-04 14:56:41.368935
48.40940744,-0.4225325584,-0.3772072792,1.323142052,2024-06-04 14:56:41.409407
48.44984286,0.7802414894,0.5546441078,0.171854496,2024-06-04 14:56:41.449843
48.4904027,0.737452507,0.329167366,0.0342130661,2024-06-04 14:56:41.490403
48.53088687,1.733345985,1.011068344,-0.4556722641,2024-06-04 14:56:41.530887
48.57136968,-0.2454276085,0.1763291359,0.9841113091,2024-06-04 14:56:41.571370
48.61182661,-2.018614769,-0.3756546974,1.287514687,2024-06-04 14:56:41.611827
48.65227108,-1.961692333,0.2898836136,1.015365601,2024-06-04 14:56:41.652271
48.69278306,0.1577363014,0.9193472862,-0.3119354248,2024-06-04 14:56:41.692783
48.73328062,0.3022742271,0.3333878517,-0.3374681473,2024-06-04 14:56:41.733281
48.7738053,0.7476177216,0.5395359993,-0.3577375412,2024-06-04 14:56:41.773805
48.814324,0.1466946602,1.109453201,-0.3713331223,2024-06-04 14:56:41.814324
48.85479478,-1.045799255,1.017407179,-0.1237740517,2024-06-04 14:56:41.854795
48.89526212,-1.452201843,0.4274549484,0.3112587929,2024-06-04 14:56:41.895262
48.93575452,-1.425007343,0.6003780365,0.2299208641,2024-06-04 14:56:41.935755
48.97624348,-1.282149792,0.090239048,-0.1707558632,2024-06-04 14:56:41.976243
49.01673671,0.05351305008,-0.2318105698,0.41121912,2024-06-04 14:56:42.016737
49.05723108,0.733505249,-0.4307408333,0.5519995689,2024-06-04 14:56:42.057231
49.09771431,0.9452824593,0.7267379761,0.4401025772,2024-06-04 14:56:42.097714
49.13820796,0.5467729568,0.641263485,0.5600914955,2024-06-04 14:56:42.138208
49.17870036,0.6103582382,0.3492517471,0.2784695625,2024-06-04 14:56:42.178700
49.21916327,0.1892137527,0.3094568253,0.2976465225,2024-06-04 14:56:42.219163
49.25962176,0.06852054596,0.8265514374,0.3654055595,2024-06-04 14:56:42.259622
49.30015426,-0.2378144264,0.6221551895,0.546312809,2024-06-04 14:56:42.300154
49.34064364,-0.100944519,0.4176154137,0.7176828384,2024-06-04 14:56:42.340644
49.38112739,-0.06223011017,0.4434971809,0.5222158432,2024-06-04 14:56:42.381127
49.421594,0.2824068069,0.4362998009,0.5109806061,2024-06-04 14:56:42.421594
49.46206114,0.3284506798,0.3899788857,0.5345978737,2024-06-04 14:56:42.462061
49.50254291,0.3917012215,0.5749807358,0.3596096039,2024-06-04 14:56:42.502543
49.54302265,0.2992992401,0.5787153244,0.3923277855,2024-06-04 14:56:42.543023
49.58353791,0.2170109749,0.2169733047,0.7522082329,2024-06-04 14:56:42.583538
49.6240603,0.1016402245,0.308611393,0.4948568344,2024-06-04 14:56:42.624060
49.6645753,0.1284646988,0.2774329185,0.5181818008,2024-06-04 14:56:42.664575
49.70507114,0.08719539642,0.317305088,0.2787008286,2024-06-04 14:56:42.705071
49.74557291,0.1065459251,0.2487430573,0.340716362,2024-06-04 14:56:42.745573
49.78607395,0.1759524345,0.5333323479,0.2264356613,2024-06-04 14:56:42.786074
49.82653712,0.1461119652,0.4263763428,0.1448092461,2024-06-04 14:56:42.826537
49.86700108,0.1158761978,0.2115249634,0.3927774429,2024-06-04 14:56:42.867001
49.90749072,0.08359336853,0.2493948936,0.2713904381,2024-06-04 14:56:42.907491
49.9479827,0.07118368149,0.1027002335,0.4475073814,2024-06-04 14:56:42.947983
49.98837213,-0.1839809418,0.2111253738,0.3248100281,2024-06-04 14:56:42.988372
50.02887176,-0.001242637634,0.3297505379,0.2780270576,2024-06-04 14:56:43.028872
50.06941483,0.2217307091,0.3337678909,0.1675348282,2024-06-04 14:56:43.069415
50.1099252,0.01465559006,0.3152976036,-0.001392364502,2024-06-04 14:56:43.109925
50.15041093,0.01974010468,0.3934512138,0.2889976501,2024-06-04 14:56:43.150411
50.190899,-0.3181834221,0.4113607407,0.294719696,2024-06-04 14:56:43.190899
50.23136463,-0.1320366859,0.3120880127,0.03506374359,2024-06-04 14:56:43.231365
50.27181681,-0.1337285042,0.1356668472,-0.045317173,2024-06-04 14:56:43.271817
50.31229119,-0.06329679489,0.2349119186,0.01499223709,2024-06-04 14:56:43.312291
50.35279181,-0.2707080841,-0.09613275528,0.1149215698,2024-06-04 14:56:43.352792
50.39332442,-0.01109361649,0.07013559341,0.04927825928,2024-06-04 14:56:43.393324
50.43383374,0.04915332794,-0.1029014587,0.09929513931,2024-06-04 14:56:43.433834
50.47433431,0.1889314651,-0.03249502182,-0.03922462463,2024-06-04 14:56:43.474334
50.51480702,0.2099289894,-0.2034144402,0.09017753601,2024-06-04 14:56:43.514807
50.55528223,0.2818026543,0.09542608261,0.1074810028,2024-06-04 14:56:43.555282
50.59575687,-0.2047195435,-0.02700138092,0.2048478127,2024-06-04 14:56:43.595757
50.63625546,0.2299752235,0.06253051758,-0.1831798553,2024-06-04 14:56:43.636255
50.67677525,0.01065778732,-0.1046690941,-0.07611513138,2024-06-04 14:56:43.676775
50.71727739,0.1352043152,0.03658533096,-0.3183937073,2024-06-04 14:56:43.717277
50.7577477,0.008932113647,0.2468643188,-0.2370724678,2024-06-04 14:56:43.757748
50.7982241,0.03672599792,0.08604097366,0.3381333351,2024-06-04 14:56:43.798224
50.83870744,-0.4702076912,0.1292133331,0.1097159386,2024-06-04 14:56:43.838707
50.87921629,0.06275367737,-0.1510014534,0.2399425507,2024-06-04 14:56:43.879216
50.91968478,0.1424398422,-0.4568815231,0.3074002266,2024-06-04 14:56:43.919685
50.96017327,0.3246417046,-0.4385461807,0.3633747101,2024-06-04 14:56:43.960173
51.00066187,0.6324481964,-0.365354538,-0.007531642914,2024-06-04 14:56:44.000662
51.04108239,0.7152199745,-0.8769812584,-0.08703136444,2024-06-04 14:56:44.041082
51.08160463,1.612980127,-0.2898545265,-0.3736829758,2024-06-04 14:56:44.081605
51.12209317,1.42078352,-0.672580719,-0.6370949745,2024-06-04 14:56:44.122093
51.16255968,-0.3933491707,-0.6911802292,-0.3944921494,2024-06-04 14:56:44.162560
51.20304812,-1.059287071,-0.5383253098,-0.03885650635,2024-06-04 14:56:44.203048
51.24353822,-0.8878808022,-1.39876318,-0.1447930336,2024-06-04 14:56:44.243538
51.28403661,-0.5248661041,-2.020090103,0.200387001,2024-06-04 14:56:44.284037
51.32458728,-1.201726437,-2.008387566,0.3623180389,2024-06-04 14:56:44.324587
51.36503088,0.6735754013,-0.9507980347,-0.6293225288,2024-06-04 14:56:44.365031
51.40551983,3.393233776,0.3025255203,-1.126849651,2024-06-04 14:56:44.405520
51.44597905,0.7094893456,-0.8943595886,-0.3539643288,2024-06-04 14:56:44.445979
51.48648306,-0.316722393,-0.67222929,-1.170267582,2024-06-04 14:56:44.486483
51.52702619,1.657661915,0.4220128059,-1.034075022,2024-06-04 14:56:44.527026
51.56748661,0.7680401802,-0.1394934654,-0.2719802856,2024-06-04 14:56:44.567487
51.60799436,0.01392412186,-0.1306643486,-0.7605521679,2024-06-04 14:56:44.607994
51.64847629,-0.5142383575,0.9245023727,-0.197991848,2024-06-04 14:56:44.648476
51.68897072,-0.9672484398,0.5983920097,0.4540119171,2024-06-04 14:56:44.688971
51.72944968,-0.5062837601,0.1063728333,0.1602725983,2024-06-04 14:56:44.729450
51.76993681,-0.6734972,0.3752808571,0.6709518433,2024-06-04 14:56:44.769937
51.81044186,-1.22514534,0.1570591927,0.2713479996,2024-06-04 14:56:44.810442
51.85092796,-0.9960227013,0.04816627502,-0.1231741905,2024-06-04 14:56:44.850928
51.89142009,-0.9656805992,0.05426597595,0.2638702393,2024-06-04 14:56:44.891420
51.93183806,-1.239530563,0.2115364075,0.08224058151,2024-06-04 14:56:44.931838
51.97232582,0.7870850563,-0.9884090424,0.3203201294,2024-06-04 14:56:44.972326
52.01281358,0.3599691391,-1.513528347,0.4392814636,2024-06-04 14:56:45.012814
52.05328947,-0.6892342567,-1.34022665,0.1498360634,2024-06-04 14:56:45.053289
52.093809,-0.4606189728,-1.202268124,0.3961119652,2024-06-04 14:56:45.093809
52.13431796,0.005021095276,-0.5006403923,-0.2664608955,2024-06-04 14:56:45.134318
52.17479994,0.2103738785,-0.5387530327,-0.3980984688,2024-06-04 14:56:45.174800
52.2152514,0.1265282631,-0.5670154095,-0.3817343712,2024-06-04 14:56:45.215251
52.25577374,1.45009613,1.20872283,-1.346827984,2024-06-04 14:56:45.255774
52.29627546,2.166039467,0.2750372887,-0.714600563,2024-06-04 14:56:45.296275
52.33676202,-0.009507656097,-0.412166357,-0.4505667686,2024-06-04 14:56:45.336762
52.37725525,-0.214029789,0.4923191071,-0.6102600098,2024-06-04 14:56:45.377255
52.41770577,-0.6121039391,0.06551027298,0.3319606781,2024-06-04 14:56:45.417706
52.45821442,-0.2841658592,-0.4789803028,-0.306725502,2024-06-04 14:56:45.458214
52.49872452,-0.7284855843,-0.3143115044,0.3444924355,2024-06-04 14:56:45.498725
52.53921239,-0.2898044586,-0.6097099781,-0.5108890533,2024-06-04 14:56:45.539212
52.5796991,-0.2448701859,-1.006854057,0.1975183487,2024-06-04 14:56:45.579699
52.62019322,0.04434871674,-0.1277616024,-0.1637625694,2024-06-04 14:56:45.620193
52.66068067,0.5508508682,-0.5667566061,-0.5095787048,2024-06-04 14:56:45.660681
52.70116989,0.465473175,0.2106130123,-0.9282793999,2024-06-04 14:56:45.701170
52.74164473,1.344957352,1.326037526,-1.294825077,2024-06-04 14:56:45.741645
52.78208468,1.267481804,1.260282397,-1.313354969,2024-06-04 14:56:45.782085
52.82255692,0.9723863602,1.43912673,-1.041615486,2024-06-04 14:56:45.822557
52.86305577,0.8055419922,1.474433541,-1.190618038,2024-06-04 14:56:45.863056
52.90356749,-1.499969006,0.4582023621,0.5447616577,2024-06-04 14:56:45.903567
52.94406202,-2.018636227,-2.268322229,1.648619652,2024-06-04 14:56:45.944062
52.9845502,-3.605753422,-1.101201773,1.806302547,2024-06-04 14:56:45.984550
53.02503754,-1.798434258,-1.489269376,0.862839222,2024-06-04 14:56:46.025038
53.06560134,1.269022942,0.3862922192,-0.7830839157,2024-06-04 14:56:46.065601
53.10607942,3.388115168,1.349407792,-1.826895237,2024-06-04 14:56:46.106079
53.14654879,2.70549202,1.67331028,-1.764893532,2024-06-04 14:56:46.146549
53.18696931,1.364944935,1.331963062,-0.5638184547,2024-06-04 14:56:46.186969
53.22750681,-3.87947464,-2.370764017,1.696246624,2024-06-04 14:56:46.227507
53.26801405,-4.726305962,-2.093974352,2.36467886,2024-06-04 14:56:46.268014
53.30849332,-0.5833997726,0.5018814802,0.2950534821,2024-06-04 14:56:46.308493
53.3489866,4.145055771,0.8548948765,-2.066289425,2024-06-04 14:56:46.348987
53.38948212,3.756070614,1.271993637,-1.974514961,2024-06-04 14:56:46.389482
53.42988999,0.2364988327,1.593572855,-0.1707892418,2024-06-04 14:56:46.429890
53.47043207,-2.571472645,-1.602105618,0.8034901619,2024-06-04 14:56:46.470432
53.51094489,-2.967219353,0.2293188572,1.158689022,2024-06-04 14:56:46.510945
53.5514365,0.1626653671,0.5668076277,0.05737638474,2024-06-04 14:56:46.551437
53.59185713,1.152258873,0.06964874268,-0.2825703621,2024-06-04 14:56:46.591857
53.63233259,1.151882648,0.08717560768,-0.4223608971,2024-06-04 14:56:46.632333
53.67282853,0.7025241852,0.06874418259,-0.1028399467,2024-06-04 14:56:46.672829
53.71332098,-0.4420490265,-0.5010330677,0.2273464203,2024-06-04 14:56:46.713321
53.75381619,-1.041279316,-0.4480340481,0.3320932388,2024-06-04 14:56:46.753816
53.79435364,-0.3749804497,-0.1108019352,0.07192802429,2024-06-04 14:56:46.794354
53.83482062,0.1356182098,0.1698155403,-0.07216072083,2024-06-04 14:56:46.834821
53.87530098,-0.00586605072,-0.1016187668,0.07654333115,2024-06-04 14:56:46.875301
53.91581322,-0.1738810539,-0.1691412926,0.06440496445,2024-06-04 14:56:46.915813
53.95630212,-0.1874876022,-0.02529931068,-0.1038823128,2024-06-04 14:56:46.956302
53.9967566,-0.05182361603,0.09721231461,-0.1649899483,2024-06-04 14:56:46.996757
54.03723759,0.1287088394,0.04332232475,-0.2329506874,2024-06-04 14:56:47.037238
54.07778384,0.010846138,0.1237411499,-0.1375317574,2024-06-04 14:56:47.077784
54.1182664,-0.03948640823,0.2014753819,-0.04732847214,2024-06-04 14:56:47.118266
54.15873775,-0.1258845329,0.1147501469,0.02584409714,2024-06-04 14:56:47.158738
54.199189,-0.05808162689,0.02685976028,0.1552972794,2024-06-04 14:56:47.199189
54.23966119,-0.1231408119,0.08597707748,-0.00287437439,2024-06-04 14:56:47.239661
54.28021723,-0.01494598389,0.08447933197,-0.04849863052,2024-06-04 14:56:47.280217
54.3207128,0.0002951622009,0.09614467621,-0.04572677612,2024-06-04 14:56:47.320713
54.36119489,-0.06943893433,0.07464694977,-0.1170539856,2024-06-04 14:56:47.361195
54.40165233,-0.1037898064,0.1240932941,-0.117585659,2024-06-04 14:56:47.401652
54.44209119,-0.0730137825,0.1639623642,-0.0891084671,2024-06-04 14:56:47.442091
54.48259733,-0.1648039818,0.17299366,-0.1019387245,2024-06-04 14:56:47.482597
54.52306254,-0.187579155,0.09645676613,-0.06960439682,2024-06-04 14:56:47.523063
54.56360405,-0.1293306351,0.1488425732,0.01355171204,2024-06-04 14:56:47.563604
54.60410431,-0.1950206757,0.1023683548,-0.03377866745,2024-06-04 14:56:47.604104
54.64463947,-0.1584181786,0.1217429638,-0.2207837105,2024-06-04 14:56:47.644639
54.68506749,0.1530203819,0.0447010994,-0.1668429375,2024-06-04 14:56:47.685067
54.72549436,0.09740591049,-0.02937483788,0.007664203644,2024-06-04 14:56:47.725494
54.76606437,-0.01445531845,-0.1474690437,0.1799898148,2024-06-04 14:56:47.766064
54.8065503,-0.009562969208,-0.1194405556,0.1264457703,2024-06-04 14:56:47.806550
54.84703577,0.0501742363,-0.001980066299,0.03205823898,2024-06-04 14:56:47.847036
54.88755187,-0.01238679886,0.0654053688,-0.08845806122,2024-06-04 14:56:47.887552
54.92802661,-0.01760053635,0.03864979744,-0.1138701439,2024-06-04 14:56:47.928027
54.96844452,-0.07893562317,-0.01340532303,-0.06119251251,2024-06-04 14:56:47.968445
55.00893358,-0.04951715469,-0.04889369011,-0.0175151825,2024-06-04 14:56:48.008934
55.04940989,-0.1067447662,-0.06333780289,0.04224920273,2024-06-04 14:56:48.049410
55.08998588,-0.05960941315,-0.09225440025,0.003619670868,2024-06-04 14:56:48.089986
55.13045759,-0.001858711243,0.04274010658,-0.05555915833,2024-06-04 14:56:48.130458
55.17094322,-0.007672309875,0.08176445961,-0.1481347084,2024-06-04 14:56:48.170943
55.21143233,0.007578372955,-0.005279779434,0.003327846527,2024-06-04 14:56:48.211432
55.25192145,0.01151275635,-0.02828288078,0.07358980179,2024-06-04 14:56:48.251921
55.29232952,-0.006576061249,-0.02791237831,0.006874084473,2024-06-04 14:56:48.292330
55.33281858,0.06395721436,-0.02875566483,-0.0201921463,2024-06-04 14:56:48.332819
55.37333832,0.03787469864,-0.04331088066,-0.01587772369,2024-06-04 14:56:48.373338
55.41386254,0.04404592514,-0.07356214523,-0.0198431015,2024-06-04 14:56:48.413863
55.45435884,0.07755708694,-0.05877447128,0.02273368835,2024-06-04 14:56:48.454359
55.49489119,-0.0232629776,-0.0685338974,0.06067800522,2024-06-04 14:56:48.494891
55.53535207,-0.08782672882,-0.08025407791,0.07050323486,2024-06-04 14:56:48.535352
55.57579843,-0.02372312546,0.03258800507,0.01089334488,2024-06-04 14:56:48.575798
55.61626874,0.06503582001,0.0394282341,-0.02143001556,2024-06-04 14:56:48.616269
55.6567777,0.09235286713,0.03850364685,-0.05935716629,2024-06-04 14:56:48.656778
55.69729614,-0.04580545425,0.04713654518,-0.04921007156,2024-06-04 14:56:48.697296
55.7377264,-0.07339811325,0.06875133514,-0.03144788742,2024-06-04 14:56:48.737726
55.77823916,-0.006206035614,0.06416749954,-0.01891994476,2024-06-04 14:56:48.778239
55.81877681,-0.001748085022,0.02035880089,-0.01863241196,2024-06-04 14:56:48.818777
55.85925843,0.01690578461,-0.0009436607361,0.01962614059,2024-06-04 14:56:48.859258
55.8997528,0.01055765152,0.01608943939,0.05002212524,2024-06-04 14:56:48.899753
55.94024348,0.0239610672,0.01934075356,0.08381032944,2024-06-04 14:56:48.940243
55.98063895,0.04015684128,0.02422761917,0.06635808945,2024-06-04 14:56:48.980639
56.02113239,0.0003514289856,-0.006369829178,0.03613615036,2024-06-04 14:56:49.021132
56.06163025,0.03972005844,0.02100133896,0.05764341354,2024-06-04 14:56:49.061630
56.10211775,-0.01072883606,0.03628635406,-0.02068471909,2024-06-04 14:56:49.102118
56.14260681,-0.04854297638,0.004000902176,-0.05156612396,2024-06-04 14:56:49.142607
56.18310223,-0.04776191711,0.0481505394,-0.06590604782,2024-06-04 14:56:49.183102
56.22360124,0.03713941574,0.0799279213,-0.05935192108,2024-06-04 14:56:49.223601
56.26412312,0.03498983383,0.07843160629,-0.03036308289,2024-06-04 14:56:49.264123
56.30464562,-0.01886320114,0.02376723289,-0.003098964691,2024-06-04 14:56:49.304646
56.34512067,-0.05088567734,-0.01271533966,0.02639627457,2024-06-04 14:56:49.345121
56.38559796,0.02079105377,-0.008699178696,0.008541107178,2024-06-04 14:56:49.385598
56.42605129,0.03988027573,-0.04081559181,-0.0007843971252,2024-06-04 14:56:49.426051
56.46652619,0.02253437042,-0.05505084991,0.02138757706,2024-06-04 14:56:49.466526
56.50704895,-0.02078390121,-0.07078671455,0.04174375534,2024-06-04 14:56:49.507049
56.54755556,-0.01121091843,-0.05488467216,0.04938840866,2024-06-04 14:56:49.547556
56.58804739,-0.02001333237,0.02537250519,-0.03812789917,2024-06-04 14:56:49.588047
56.62852202,-0.01421785355,0.009717702866,-0.02982473373,2024-06-04 14:56:49.628522
56.66901931,-0.02359008789,0.01300024986,-0.07207298279,2024-06-04 14:56:49.669019
56.70947223,-0.07860088348,-0.006240129471,-0.06866693497,2024-06-04 14:56:49.709472
56.74995327,-0.01745796204,-0.02941727638,-0.04491186142,2024-06-04 14:56:49.749953
56.79048108,0.02547121048,-0.02399802208,0.0189447403,2024-06-04 14:56:49.790481
56.83097681,0.004399299622,-0.06509256363,0.03537082672,2024-06-04 14:56:49.830977
56.87147426,0.02480602264,-0.06957101822,0.06079387665,2024-06-04 14:56:49.871474
56.91191051,0.02371025085,-0.05704569817,-0.009225845337,2024-06-04 14:56:49.911911
56.95236989,-0.01237630844,-0.01962947845,-0.04278898239,2024-06-04 14:56:49.952370
56.99286067,-0.04025793076,0.02538275719,-0.004759311676,2024-06-04 14:56:49.992861
57.03338869,-0.1180124283,-0.00264954567,-0.02634239197,2024-06-04 14:56:50.033389
57.07386478,0.003029823303,0.07086372375,-0.06152534485,2024-06-04 14:56:50.073865
57.11439348,0.03035306931,0.04754447937,-0.04740762711,2024-06-04 14:56:50.114393
57.15485858,0.01199579239,-0.00057554245,-0.01133966446,2024-06-04 14:56:50.154859
57.19529989,-0.03011751175,-0.03250789642,0.02986860275,2024-06-04 14:56:50.195300
57.23581317,0.01378154755,-0.03550362587,0.01043224335,2024-06-04 14:56:50.235813
57.27631884,0.02960538864,0.0001213550568,0.03998374939,2024-06-04 14:56:50.276319
57.3168427,-0.03074550629,-0.00400686264,-0.00302696228,2024-06-04 14:56:50.316843
57.3573264,-0.002090454102,0.01705169678,-0.01956367493,2024-06-04 14:56:50.357326
57.39779145,0.01371622086,0.0383374691,-0.02516555786,2024-06-04 14:56:50.397791
57.43823921,-0.02188014984,0.02633333206,-0.001149654388,2024-06-04 14:56:50.438239
57.47879457,-0.003832817078,-0.009201049805,-0.007366657257,2024-06-04 14:56:50.478795
57.51928306,-0.02570724487,-0.04229927063,0.006452083588,2024-06-04 14:56:50.519283
57.5597664,-0.07358455658,-0.02041864395,0.03947162628,2024-06-04 14:56:50.559766
57.60025843,-0.004508495331,0.03496861458,-0.02430772781,2024-06-04 14:56:50.600258
57.6407416,-0.02806091309,-0.004070520401,-0.01872205734,2024-06-04 14:56:50.640742
57.68123499,-0.02847766876,-0.04871559143,-0.06315422058,2024-06-04 14:56:50.681235
57.72165395,0.03506135941,0.001924753189,-0.01294469833,2024-06-04 14:56:50.721654
57.76212259,-0.06362438202,0.02758669853,-0.02684259415,2024-06-04 14:56:50.762123
57.80261681,-1.919081688,-0.867478013,0.8622808456,2024-06-04 14:56:50.802617
57.84310494,-2.154033184,-0.9818128347,1.056308746,2024-06-04 14:56:50.843105
57.88357176,1.253400803,-0.285654068,-0.6133117676,2024-06-04 14:56:50.883572
57.92407509,3.311335087,1.728969812,-1.477443218,2024-06-04 14:56:50.924075
57.96456327,5.719232559,2.424331903,-2.997304916,2024-06-04 14:56:50.964563
58.00503874,-0.9632868767,0.1948080063,0.6857466698,2024-06-04 14:56:51.005039
58.04559088,-7.45331955,-5.728389263,3.538879395,2024-06-04 14:56:51.045591
58.08609608,-3.041965485,0.7794380188,0.8624806404,2024-06-04 14:56:51.086096
58.12657661,5.417621136,2.516933203,-2.834363461,2024-06-04 14:56:51.126577
58.16707338,3.792186737,1.279211044,-1.481099606,2024-06-04 14:56:51.167073
58.20750395,-2.092368603,-1.704018831,0.7611165047,2024-06-04 14:56:51.207504
58.24799791,-3.355182171,-1.125997543,1.209169865,2024-06-04 14:56:51.247998
58.28855478,-0.4866814613,0.3060399294,-0.04573059082,2024-06-04 14:56:51.288555
58.32903322,1.320607185,0.871512413,-0.3591132164,2024-06-04 14:56:51.329033
58.36952416,1.152683735,0.4161388874,-0.4774360657,2024-06-04 14:56:51.369524
58.41001114,0.3309516907,-0.4393324852,0.08028507233,2024-06-04 14:56:51.410011
58.4504303,-0.4777269363,-0.7080516815,0.3710894585,2024-06-04 14:56:51.450430
58.49099483,-0.3664941788,-0.03414368629,0.1172790527,2024-06-04 14:56:51.490995
58.53148437,0.05521392822,0.2967226505,0.004791259766,2024-06-04 14:56:51.531484
58.57190202,0.1892375946,0.06152248383,0.02742767334,2024-06-04 14:56:51.571902
58.61239129,-0.06250572205,-0.06933569908,0.1424160004,2024-06-04 14:56:51.612391
58.65287645,-0.07633066177,0.02596282959,-0.06343460083,2024-06-04 14:56:51.652876
58.6933739,0.2190084457,0.1580166817,-0.09294319153,2024-06-04 14:56:51.693374
58.73386197,0.08308172226,-0.002630233765,0.04968261719,2024-06-04 14:56:51.733862
58.77437442,-0.1685390472,-0.04395246506,0.1392045021,2024-06-04 14:56:51.774374
58.81490921,-0.06501150131,0.007420301437,0.04507637024,2024-06-04 14:56:51.814909
58.85539973,0.2161326408,0.1366231441,-0.01488780975,2024-06-04 14:56:51.855400
58.89590978,-0.01674985886,0.1367644072,-0.01423740387,2024-06-04 14:56:51.895910
58.93644051,0.002564907074,0.04413485527,0.02777242661,2024-06-04 14:56:51.936441
58.97675858,0.003016471863,-0.01675724983,0.03305244446,2024-06-04 14:56:51.976759
59.0172689,0.06725215912,-0.05572676659,-0.009379386902,2024-06-04 14:56:52.017269
59.05781416,0.01556491852,-0.1339800358,0.02730846405,2024-06-04 14:56:52.057814
59.09832692,0.03288841248,-0.08520340919,0.04002857208,2024-06-04 14:56:52.098327
59.13880697,0.01647806168,-0.007564306259,-0.001498699188,2024-06-04 14:56:52.138807
59.17926546,-0.009891033173,-0.01162171364,0.03262424469,2024-06-04 14:56:52.179265
59.21972062,0.02749347687,0.01202178001,0.008403778076,2024-06-04 14:56:52.219721
59.260219,-0.2799406052,-0.06446576118,0.02093172073,2024-06-04 14:56:52.260219
59.30074791,0.1544966698,0.1214128733,-0.02597045898,2024-06-04 14:56:52.300748
59.34125431,0.1795225143,0.09076762199,-0.05928182602,2024-06-04 14:56:52.341254
59.38171041,-0.2137327194,-0.04784989357,0.01371955872,2024-06-04 14:56:52.381710
59.42214556,0.1898574829,0.07451939583,-0.01401376724,2024-06-04 14:56:52.422146
59.46264457,0.05112171173,0.08297419548,0.02773714066,2024-06-04 14:56:52.462645
59.50312983,-0.179497242,0.07457399368,-0.008674144745,2024-06-04 14:56:52.503130
59.54364348,0.03814029694,0.09861326218,0.03672885895,2024-06-04 14:56:52.543643
59.58417051,-0.06281042099,-0.04008698463,0.1152281761,2024-06-04 14:56:52.584171
59.624649,0.02273750305,0.1148779392,-0.08216810226,2024-06-04 14:56:52.624649
59.66512827,0.09471702576,0.0810303688,0.003540992737,2024-06-04 14:56:52.665128
59.70559921,-0.1222872734,-0.008190393448,-0.01135730743,2024-06-04 14:56:52.705599
59.7461515,-0.2068257332,0.01148295403,0.001440048218,2024-06-04 14:56:52.746152
59.78662546,0.1567630768,0.1796987057,-0.1227655411,2024-06-04 14:56:52.786625
59.8270966,0.006234645844,0.02849960327,0.02918195724,2024-06-04 14:56:52.827097
59.86760384,-0.2234725952,0.05864810944,-0.001391887665,2024-06-04 14:56:52.867604
59.90809062,-0.02607822418,0.1239125729,0.02310800552,2024-06-04 14:56:52.908091
59.9485753,-0.009557723999,0.08675289154,-0.08943033218,2024-06-04 14:56:52.948575
59.98897525,-0.04369306564,0.03692913055,-0.04203939438,2024-06-04 14:56:52.988975
60.02947228,-0.05101728439,0.02351903915,-0.03072500229,2024-06-04 14:56:53.029472
60.07002233,-0.02348613739,0.09383010864,-0.04893875122,2024-06-04 14:56:53.070022
60.11052509,-0.001036167145,0.02491283417,-0.05729389191,2024-06-04 14:56:53.110525
60.15100187,-0.08974885941,0.03096008301,-0.06866788864,2024-06-04 14:56:53.151002
60.19145259,-0.1097211838,0.107640028,-0.07198667526,2024-06-04 14:56:53.191453
60.23191556,-0.05009365082,-0.01825499535,0.03992414474,2024-06-04 14:56:53.231916
60.27240442,0.02031946182,-0.04206442833,-0.02452993393,2024-06-04 14:56:53.272404
60.3129015,-0.1446971893,-0.005596160889,-0.02647829056,2024-06-04 14:56:53.312902
60.35340056,0.06397438049,0.04657316208,0.01592636108,2024-06-04 14:56:53.353401
60.39392301,-0.02571725845,0.03211688995,-0.01299905777,2024-06-04 14:56:53.393923
60.43442843,-0.1194348335,0.08023095131,-0.1201643944,2024-06-04 14:56:53.434428
60.47490525,-0.261631012,0.06778335571,-0.07557725906,2024-06-04 14:56:53.474905
60.51537978,0.04887151718,0.2933086157,-0.2029895782,2024-06-04 14:56:53.515380
60.55587525,-0.1185836792,0.1835894585,-0.08370161057,2024-06-04 14:56:53.555875
60.59636114,-0.2306361198,0.1592094898,0.05564594269,2024-06-04 14:56:53.596361
60.63686296,-0.1165733337,0.2461335659,-0.006973743439,2024-06-04 14:56:53.636863
60.67736166,-0.1172299385,0.3491382599,0.0006713867188,2024-06-04 14:56:53.677362
60.71778697,-0.08920049667,0.1642506123,-0.02261209488,2024-06-04 14:56:53.717787
60.75827681,-0.1372580528,0.1576411724,-0.07206869125,2024-06-04 14:56:53.758277
60.79883733,0.08738851547,0.3760614395,0.03203868866,2024-06-04 14:56:53.798837
60.83931822,-0.1987757683,0.4104348421,-0.1005997658,2024-06-04 14:56:53.839318
60.87982312,-0.06672000885,0.3131256104,0.1071047783,2024-06-04 14:56:53.879823
60.92028239,0.07603549957,0.3817090988,0.1607532501,2024-06-04 14:56:53.920282
60.96077093,0.08950138092,0.2836751938,0.2933683395,2024-06-04 14:56:53.960771
61.00125942,0.01007175446,0.0957660675,0.6039562225,2024-06-04 14:56:54.001259
61.04167681,0.08585882187,0.2061135769,0.3508520126,2024-06-04 14:56:54.041677
61.08217692,0.2086100578,0.3096520901,0.1056237221,2024-06-04 14:56:54.082177
61.12266832,0.4612102509,0.1153345108,0.04654550552,2024-06-04 14:56:54.122668
61.16312864,0.6602244377,0.1830012798,0.2878389359,2024-06-04 14:56:54.163129
61.20361707,0.715511322,0.3805935383,0.1118340492,2024-06-04 14:56:54.203617
61.244154,0.2687039375,0.2517642975,0.1246647835,2024-06-04 14:56:54.244154
61.28464249,0.3889961243,0.3720841408,0.1236219406,2024-06-04 14:56:54.284642
61.32513103,0.456990242,0.2933309078,0.110871315,2024-06-04 14:56:54.325131
