Time (s),Acceleration x (m/s^2),Acceleration y (m/s^2),Acceleration z (m/s^2),Datetime
0.0,-4.417449474,6.709774017,0.6514459848,2024-06-04 14:43:38.000000
0.0,-4.759922504,6.406782627,6.931408882,2024-06-04 14:43:38.000000
0.014634073,-5.652146339,4.831707001,6.87517786,2024-06-04 14:43:38.014634
0.055056886,-3.783650875,6.051149368,4.78385067,2024-06-04 14:43:38.055057
0.095545323,-3.681955814,6.562615395,6.264110565,2024-06-04 14:43:38.095545
0.136033813,-3.304488182,6.179165363,7.969893932,2024-06-04 14:43:38.136034
0.222046678,-3.546462297,5.518147945,6.754639149,2024-06-04 14:43:38.222047
0.262529646,-3.236890793,5.833701611,6.476772785,2024-06-04 14:43:38.262530
0.302968396,-3.46809721,5.826523304,7.181757927,2024-06-04 14:43:38.302968
0.343443032,-4.647758961,4.721637249,6.958328247,2024-06-04 14:43:38.343443
0.383986782,-1.44496572,3.887439489,7.457231998,2024-06-04 14:43:38.383987
0.424475271,0.0466600433,2.325524569,10.58704376,2024-06-04 14:43:38.424475
0.464963709,0.752243638,0.132801652,11.33360481,2024-06-04 14:43:38.464964
0.505452198,5.540281773,0.3897309899,13.92024612,2024-06-04 14:43:38.505452
0.545926313,5.294120312,0.4953143001,11.28335476,2024-06-04 14:43:38.545926
0.586392459,5.4652071,2.042872429,5.161019325,2024-06-04 14:43:38.586392
0.626900636,1.441974759,1.867298961,9.620942116,2024-06-04 14:43:38.626901
0.667402875,1.942074656,2.185843468,10.18744278,2024-06-04 14:43:38.667403
0.707865375,2.114656925,2.914158821,7.944170952,2024-06-04 14:43:38.707865
0.748336313,0.9690931439,2.470888376,7.133303165,2024-06-04 14:43:38.748336
0.788850375,1.739881158,2.586641312,8.861519814,2024-06-04 14:43:38.788850
0.829330428,2.558525562,3.207578659,8.917152405,2024-06-04 14:43:38.829330
0.869818657,2.614757061,2.822035313,9.750752449,2024-06-04 14:43:38.869819
0.910360896,2.343470573,2.688336134,9.255737305,2024-06-04 14:43:38.910361
0.950791938,2.344667196,2.547757864,9.680164337,2024-06-04 14:43:38.950792
0.991280219,2.081157446,2.367997169,10.0340023,2024-06-04 14:43:38.991280
1.0317685,2.280659199,2.900998354,9.932906151,2024-06-04 14:43:39.031769
1.072255844,4.322035789,2.754138947,10.0707922,2024-06-04 14:43:39.072256
1.112744125,2.988336325,3.06610322,10.17547798,2024-06-04 14:43:39.112744
1.153246209,1.936690807,3.239881754,8.462217331,2024-06-04 14:43:39.153246
1.193709646,1.776371717,4.291527271,5.362315655,2024-06-04 14:43:39.193710
1.234256521,3.008675337,4.284946918,6.879364967,2024-06-04 14:43:39.234257
1.274739907,4.609473705,4.249054909,9.396913528,2024-06-04 14:43:39.274740
1.315236157,4.562813759,4.261617184,10.92114162,2024-06-04 14:43:39.315236
1.355699438,3.789034605,4.191029072,10.18146038,2024-06-04 14:43:39.355699
1.396187615,4.03100872,4.210769653,9.050253868,2024-06-04 14:43:39.396188
1.436676573,4.185645103,4.222733974,8.47956562,2024-06-04 14:43:39.436677
1.47716548,3.983750582,4.477270126,7.492526054,2024-06-04 14:43:39.477165
1.517632198,3.696312666,4.513761044,7.681259632,2024-06-04 14:43:39.517632
1.558126157,4.035196304,4.666303158,7.122535706,2024-06-04 14:43:39.558126
1.598617563,3.889234066,4.810770035,7.103393078,2024-06-04 14:43:39.598618
1.639097823,3.92991209,5.079065323,6.454041004,2024-06-04 14:43:39.639098
1.679578553,4.515555382,5.131707191,7.321139812,2024-06-04 14:43:39.679579
1.720115688,4.254438877,5.097011566,6.296712875,2024-06-04 14:43:39.720116
1.760586,4.36989212,4.80897522,8.240582466,2024-06-04 14:43:39.760586
1.801066834,4.389633179,4.868795872,8.087740898,2024-06-04 14:43:39.801067
1.841589646,3.70588398,4.947759151,8.078767776,2024-06-04 14:43:39.841590
1.882051053,3.358027458,5.365904808,8.027919769,2024-06-04 14:43:39.882051
1.922514386,2.166102648,5.165804863,7.551748276,2024-06-04 14:43:39.922514
1.962993396,4.587339878,6.180960178,7.013961315,2024-06-04 14:43:39.962993
2.003481625,4.491627216,5.637789249,7.690232754,2024-06-04 14:43:40.003482
2.043969803,3.009273529,5.004289627,6.794120789,2024-06-04 14:43:40.043970
2.084458032,3.669393539,5.211866856,7.012166977,2024-06-04 14:43:40.084458
2.124955063,5.009075165,5.446064472,7.760222912,2024-06-04 14:43:40.124955
2.165460948,4.605884552,5.354538918,6.693024158,2024-06-04 14:43:40.165461
2.20597949,4.262215137,5.618646622,5.913861275,2024-06-04 14:43:40.205979
2.246457615,4.516751766,5.910272121,5.383851051,2024-06-04 14:43:40.246458
2.2869235,4.759324074,5.786443233,5.794818401,2024-06-04 14:43:40.286923
2.327426053,4.078267097,5.410770416,5.294718266,2024-06-04 14:43:40.327426
2.367926469,3.892823458,5.074279308,5.968297958,2024-06-04 14:43:40.367926
2.40842824,3.733999729,4.591527462,7.495516777,2024-06-04 14:43:40.408428
2.448889959,4.857429981,4.952245712,7.352246761,2024-06-04 14:43:40.448890
2.489344959,3.366402388,4.706083775,5.718546867,2024-06-04 14:43:40.489345
2.529833396,5.202893734,5.995217323,5.060520649,2024-06-04 14:43:40.529833
2.570321782,3.792025566,4.216153622,6.801299095,2024-06-04 14:43:40.570322
2.610810167,4.417449474,4.688137531,8.130811691,2024-06-04 14:43:40.610810
2.651298553,3.885644913,3.908376694,7.769794464,2024-06-04 14:43:40.651299
2.691795115,5.453242779,4.701896667,10.54905796,2024-06-04 14:43:40.691795
2.732338761,2.534896374,3.667000771,8.378767967,2024-06-04 14:43:40.732339
2.77284798,4.301696777,4.502993107,7.003193855,2024-06-04 14:43:40.772848
2.813338917,5.135894775,4.118346691,9.382556915,2024-06-04 14:43:40.813339
2.8538285,2.814856768,2.621935368,8.488538742,2024-06-04 14:43:40.853829
2.894314125,4.905884743,3.468695641,8.271090508,2024-06-04 14:43:40.894314
2.934745844,4.437788486,2.668595552,7.826623917,2024-06-04 14:43:40.934746
2.975206365,4.260420799,2.392523527,8.335098267,2024-06-04 14:43:40.975206
3.01569574,4.438984871,2.270190477,6.431309223,2024-06-04 14:43:41.015696
3.056196469,4.880760193,2.102692842,7.306184769,2024-06-04 14:43:41.056196
3.096691469,3.946063757,0.9373882413,9.169296265,2024-06-04 14:43:41.096691
3.137179125,6.32004261,1.7883358,8.465806961,2024-06-04 14:43:41.137179
3.177681521,6.776772976,1.949851394,6.776772976,2024-06-04 14:43:41.177682
3.218186469,4.535894394,0.6346961856,8.731110573,2024-06-04 14:43:41.218186
3.258670584,1.211665511,-0.4857429862,9.809675217,2024-06-04 14:43:41.258671
3.29917449,0.6514459848,0.4067798555,10.53649521,2024-06-04 14:43:41.299174
3.339616625,-1.818246126,0.5300102234,13.52034569,2024-06-04 14:43:41.339617
3.380127875,1.785943031,2.149353027,10.58524895,2024-06-04 14:43:41.380128
3.420662303,-0.9059824944,0.8138588071,11.3943224,2024-06-04 14:43:41.420662
3.461150375,1.289432287,1.145563841,10.62772179,2024-06-04 14:43:41.461150
3.501615219,3.327219963,0.8892326951,10.98036385,2024-06-04 14:43:41.501615
3.542110219,0.3783650696,-1.295414329,11.82174015,2024-06-04 14:43:41.542110
3.582575011,-1.935494423,-0.9661021233,6.748058796,2024-06-04 14:43:41.582575
3.623063084,-0.5306084156,2.415255308,12.50818157,2024-06-04 14:43:41.623063
3.663551157,-0.1136590764,3.623929977,8.408080101,2024-06-04 14:43:41.663551
3.704064594,-6.030212402,-1.794916034,4.530510426,2024-06-04 14:43:41.704065
3.744571521,-4.825126648,-2.252244234,9.975378036,2024-06-04 14:43:41.744572
3.785061573,-5.908477306,-1.950449586,7.536194801,2024-06-04 14:43:41.785062
3.82554725,-3.224328518,-2.269592285,7.351050377,2024-06-04 14:43:41.825547
3.866026625,-9.930513382,-4.793421745,7.615158081,2024-06-04 14:43:41.866027
3.90650574,-6.651747704,-4.510769844,7.745267868,2024-06-04 14:43:41.906506
3.947004438,-6.84646368,-4.870590687,8.172386169,2024-06-04 14:43:41.947004
3.987492459,-6.541378975,0.1333998591,4.985744953,2024-06-04 14:43:41.987492
4.027980532,-6.418746948,-2.399702072,8.0757761,2024-06-04 14:43:42.027981
4.068435844,-5.724529266,-2.071586132,6.618248463,2024-06-04 14:43:42.068436
4.108905323,-4.898108006,-3.384348631,7.433303356,2024-06-04 14:43:42.108905
4.149435063,-5.858228207,-1.300798178,8.642875671,2024-06-04 14:43:42.149435
4.189946417,-7.204489708,0.1468594968,6.303891182,2024-06-04 14:43:42.189946
4.230436053,-5.975476265,3.257827997,5.924030781,2024-06-04 14:43:42.230436
4.270891938,-7.153642178,-1.364806175,7.251150131,2024-06-04 14:43:42.270892
4.311432563,-7.402794838,1.422233939,6.246762753,2024-06-04 14:43:42.311433
4.35189824,-5.604289532,1.175474167,7.736294746,2024-06-04 14:43:42.351898
4.392373084,-4.177868366,-0.9966106415,4.669294357,2024-06-04 14:43:42.392373
4.432861209,-10.33430195,-4.362713814,6.80309391,2024-06-04 14:43:42.432861
4.473329855,-10.38215828,-3.685544968,3.247658491,2024-06-04 14:43:42.473330
4.513809959,-15.31197166,-6.030810356,4.65015173,2024-06-04 14:43:42.513810
4.55429449,-11.18704414,-4.30827713,2.311765671,2024-06-04 14:43:42.554294
4.594780323,-3.742374659,-3.378964663,5.556433201,2024-06-04 14:43:42.594780
4.635271313,-4.090231419,-1.261914849,3.935296059,2024-06-04 14:43:42.635271
4.675773813,-8.139185905,-1.12283206,4.841876507,2024-06-04 14:43:42.675774
4.716287667,-9.052646637,-1.446760416,6.258128643,2024-06-04 14:43:42.716288
4.756769178,-7.420741081,-1.910967946,5.379065514,2024-06-04 14:43:42.756769
4.797244542,-7.586444378,-2.652443886,6.16121912,2024-06-04 14:43:42.797245
4.837727303,-6.927819729,-1.236191988,6.084050655,2024-06-04 14:43:42.837727
4.8782085,-7.5924263,-0.4887340367,5.428118229,2024-06-04 14:43:42.878209
4.91870074,-5.333601475,-1.992323995,3.425624609,2024-06-04 14:43:42.918701
4.959188865,-5.320441246,-0.08015955985,6.932605267,2024-06-04 14:43:42.959189
4.999676938,-6.847062111,2.326720953,3.7256248,2024-06-04 14:43:42.999677
5.040163865,-14.42094421,3.796811342,3.545864105,2024-06-04 14:43:43.040164
5.080650428,-12.30568886,1.065404296,4.590929508,2024-06-04 14:43:43.080650
5.121140323,-8.338089943,0.4516452849,3.375375509,2024-06-04 14:43:43.121140
5.161587094,-9.304191589,0.06939185411,3.610470295,2024-06-04 14:43:43.161587
5.202142407,-9.45613575,0.36161533,3.03499651,2024-06-04 14:43:43.202142
5.242660428,-8.495717049,0.4372883439,2.767299414,2024-06-04 14:43:43.242660
5.283154698,-8.689535141,0.2551347017,2.884248495,2024-06-04 14:43:43.283155
5.323643969,-8.122436523,0.3239283562,3.193221807,2024-06-04 14:43:43.323644
5.36412923,-8.13320446,0.2694916427,3.512364626,2024-06-04 14:43:43.364129
5.404578969,-8.456833839,-0.04007977992,3.211766243,2024-06-04 14:43:43.404579
5.445067303,-8.687142372,-0.6882356405,3.150749207,2024-06-04 14:43:43.445067
5.485555636,-9.974182129,-0.008374879137,4.405186653,2024-06-04 14:43:43.485556
5.526043969,-10.36780167,-0.5341976285,4.305884361,2024-06-04 14:43:43.526044
5.566523292,-9.301200867,-0.6023930907,4.663910389,2024-06-04 14:43:43.566523
5.60701173,-8.516654015,-0.7480561733,3.936492443,2024-06-04 14:43:43.607012
5.647534125,-8.052446365,-1.120439172,3.31465745,2024-06-04 14:43:43.647534
5.688022615,-8.211868286,-1.082154036,3.308675528,2024-06-04 14:43:43.688023
5.72848699,-8.844171524,-2.243271112,3.503391504,2024-06-04 14:43:43.728487
5.768963448,-9.341878891,-2.981158018,4.083651066,2024-06-04 14:43:43.768963
5.809451938,-9.792327881,-2.709273338,4.529314041,2024-06-04 14:43:43.809452
5.849941886,-9.320343018,-2.130808592,4.482056141,2024-06-04 14:43:43.849942
5.890468344,-8.358428955,-1.611566067,4.332205296,2024-06-04 14:43:43.890468
5.930966,-7.845766544,-1.377966762,3.900599957,2024-06-04 14:43:43.930966
5.971419282,-8.29920578,-1.571486235,3.714258909,2024-06-04 14:43:43.971419
6.011905844,-9.061619759,-1.918744683,3.654438496,2024-06-04 14:43:44.011906
6.052401,-9.327521324,-2.005484581,3.568595886,2024-06-04 14:43:44.052401
6.092886105,-9.220742226,-1.945065737,3.447758436,2024-06-04 14:43:44.092886
6.133402615,-8.942875862,-1.80807662,3.214159012,2024-06-04 14:43:44.133403
6.173904334,-8.874081612,-1.588235974,3.136392355,2024-06-04 14:43:44.173904
6.214393761,-8.990432739,-1.452144265,3.059522867,2024-06-04 14:43:44.214394
6.254889646,-8.972486496,-1.493719578,3.069094181,2024-06-04 14:43:44.254890
6.295377928,-8.939884186,-1.541576028,3.184248686,2024-06-04 14:43:44.295378
6.33586824,-9.126225471,-1.955235243,3.656831264,2024-06-04 14:43:44.335868
6.376354282,-8.909376144,-2.132603168,3.4824543,2024-06-04 14:43:44.376354
6.41684074,-8.813064575,-2.138585329,3.962813377,2024-06-04 14:43:44.416841
6.457329438,-8.802895546,-2.458326101,3.876372576,2024-06-04 14:43:44.457329
6.497818136,-9.332905769,-2.233101845,4.289732933,2024-06-04 14:43:44.497818
6.538306834,-8.425427437,-1.888834357,3.730410576,2024-06-04 14:43:44.538307
6.578743084,-8.142177582,-1.344467282,3.637090445,2024-06-04 14:43:44.578743
6.619256678,-8.707780838,-1.111466169,3.4824543,2024-06-04 14:43:44.619257
6.659745688,-8.755039215,-0.8742775917,3.563211918,2024-06-04 14:43:44.659746
6.700255271,-8.599804878,-0.727118969,3.411267757,2024-06-04 14:43:44.700255
6.740690011,-8.499904633,-0.7743772268,3.279961586,2024-06-04 14:43:44.740690
6.781251157,-8.210073471,-1.025324464,3.760919094,2024-06-04 14:43:44.781251
6.821736678,-8.817252159,-1.677368641,4.127918243,2024-06-04 14:43:44.821737
6.862226417,-9.173483849,-2.321336985,4.250849247,2024-06-04 14:43:44.862226
6.902714438,-9.122037888,-2.677568436,4.034597874,2024-06-04 14:43:44.902714
6.943203917,-8.947062492,-2.518146753,3.84107852,2024-06-04 14:43:44.943204
6.98365298,-8.77836895,-2.02073884,3.763311863,2024-06-04 14:43:44.983653
7.024123553,-8.700602531,-1.685145378,3.696911097,2024-06-04 14:43:45.024124
7.06461475,-8.712566376,-1.369591832,3.721437454,2024-06-04 14:43:45.064615
7.105103709,-8.771190643,-1.465304732,3.642474174,2024-06-04 14:43:45.105104
7.145650532,-8.719744682,-1.691725612,3.828516245,2024-06-04 14:43:45.145651
7.186115271,-8.682954788,-1.793121457,3.859024763,2024-06-04 14:43:45.186115
7.226607511,-8.835796356,-1.826620936,3.818346739,2024-06-04 14:43:45.226608
7.267081261,-9.105886459,-1.741077542,3.702294827,2024-06-04 14:43:45.267081
7.307568188,-8.908778191,-1.864906192,3.508775234,2024-06-04 14:43:45.307568
7.348071053,-8.740083694,-1.677966833,3.802793503,2024-06-04 14:43:45.348071
7.388537823,-8.535198212,-1.471286774,4.066302776,2024-06-04 14:43:45.388538
7.429013813,-8.365009308,-1.337288737,4.115355968,2024-06-04 14:43:45.429014
7.469503344,-8.45085144,-1.382154226,4.304687977,2024-06-04 14:43:45.469503
7.51000548,-8.407481194,-1.637288928,4.548456669,2024-06-04 14:43:45.510005
7.550492303,-9.658628464,-2.284248352,4.976173878,2024-06-04 14:43:45.550492
7.590972407,-10.22632599,-2.37936306,4.379463673,2024-06-04 14:43:45.590972
7.631459438,-7.916653633,-1.517049551,3.221337557,2024-06-04 14:43:45.631459
7.671939542,-7.288238525,-0.9155537486,2.890230656,2024-06-04 14:43:45.671940
7.712486261,-7.672884941,-0.7540382147,2.933301449,2024-06-04 14:43:45.712486
7.752987667,-7.711170197,-0.5748756528,3.105883837,2024-06-04 14:43:45.752988
7.79347574,-8.361419678,-0.8958129883,3.674777269,2024-06-04 14:43:45.793476
7.833966834,-10.6295166,-2.236690998,4.134498596,2024-06-04 14:43:45.833967
7.874454021,-11.25823021,-2.666202545,4.25802803,2024-06-04 14:43:45.874454
7.91494074,-9.195617676,-2.122433662,3.854238987,2024-06-04 14:43:45.914941
7.955417928,-7.750651836,-1.627119422,3.517748356,2024-06-04 14:43:45.955418
7.995862823,-7.719544888,-1.283450246,3.405285835,2024-06-04 14:43:45.995863
8.036357198,-8.378767967,-1.400698543,3.659822226,2024-06-04 14:43:46.036357
8.076840896,-9.216554642,-1.750050664,4.029812336,2024-06-04 14:43:46.076841
8.11734298,-9.478269577,-2.027318954,4.261617184,2024-06-04 14:43:46.117343
8.157877667,-8.839385986,-1.906780601,3.996911049,2024-06-04 14:43:46.157878
8.198367407,-8.3201437,-1.643270969,3.708875179,2024-06-04 14:43:46.198367
8.23882475,-8.416454315,-1.555334687,3.599702597,2024-06-04 14:43:46.238825
8.279333188,-8.772386551,-1.600798368,3.663411379,2024-06-04 14:43:46.279333
8.319823657,-9.097511292,-1.709671736,3.779463291,2024-06-04 14:43:46.319824
8.360281573,-9.014959335,-1.776371717,3.799802303,2024-06-04 14:43:46.360282
8.400815532,-8.740083694,-1.709073544,3.716053486,2024-06-04 14:43:46.400816
8.441305271,-8.577073097,-1.668993831,3.704687595,2024-06-04 14:43:46.441305
8.481738865,-8.701200485,-1.680359721,3.806382656,2024-06-04 14:43:46.481739
8.522228553,-8.836993217,-1.710868239,3.887439489,2024-06-04 14:43:46.522229
8.562718292,-8.838788033,-1.693520188,3.863212109,2024-06-04 14:43:46.562718
8.603203553,-8.723334312,-1.68574357,3.780659676,2024-06-04 14:43:46.603204
8.64369324,-8.679366112,-1.666600943,3.72024107,2024-06-04 14:43:46.643693
8.684204855,-8.787342072,-1.688734531,3.729214191,2024-06-04 14:43:46.684205
8.724723969,-8.859724998,-1.719841242,3.748356581,2024-06-04 14:43:46.724724
8.765216521,-8.817850113,-1.721037745,3.738785267,2024-06-04 14:43:46.765217
8.805680375,-8.698807716,-1.60678041,3.79621315,2024-06-04 14:43:46.805680
8.846169178,-8.672187805,-1.612164259,3.82731986,2024-06-04 14:43:46.846169
8.88664798,-8.750851631,-1.693520188,3.799204111,2024-06-04 14:43:46.886648
8.927138813,-8.842975616,-1.76859498,3.741776466,2024-06-04 14:43:46.927139
8.967647928,-8.863314629,-1.755434513,3.716651678,2024-06-04 14:43:46.967648
9.00812199,-8.796315193,-1.703091502,3.722035646,2024-06-04 14:43:47.008122
9.048576417,-8.752646446,-1.668993831,3.741178274,2024-06-04 14:43:47.048576
9.089070844,-8.765208244,-1.679761529,3.786043644,2024-06-04 14:43:47.089071
9.129593761,-8.764610291,-1.689332843,3.780659676,2024-06-04 14:43:47.129594
9.17008548,-8.743074417,-1.704886079,3.799204111,2024-06-04 14:43:47.170085
9.21056824,-8.761619568,-1.686341763,3.800400496,2024-06-04 14:43:47.210568
9.251049386,-8.760422707,-1.687538147,3.775874138,2024-06-04 14:43:47.251049
9.291551521,-8.808876991,-1.695314884,3.753740549,2024-06-04 14:43:47.291552
9.332055792,-8.809475899,-1.691725612,3.746562004,2024-06-04 14:43:47.332056
9.372532823,-8.764610291,-1.704886079,3.752544165,2024-06-04 14:43:47.372533
9.413022667,-8.802895546,-1.694118381,3.73160696,2024-06-04 14:43:47.413023
9.453512042,-8.741280556,-1.667199135,3.755535126,2024-06-04 14:43:47.453512
9.494001417,-8.762217522,-1.675574064,3.767499208,2024-06-04 14:43:47.494001
9.534490792,-8.769993782,-1.692921996,3.778865099,2024-06-04 14:43:47.534491
9.574980115,-8.783154488,-1.714457393,3.760320902,2024-06-04 14:43:47.574980
9.61546949,-8.77836895,-1.710269928,3.754338741,2024-06-04 14:43:47.615469
9.655928969,-8.788538933,-1.695913076,3.778865099,2024-06-04 14:43:47.655929
9.696432094,-8.751449585,-1.691127419,3.72024107,2024-06-04 14:43:47.696432
9.73691449,-8.692526817,-1.657029629,3.722035646,2024-06-04 14:43:47.736914
9.777402511,-8.760422707,-1.67437768,3.760919094,2024-06-04 14:43:47.777403
9.817900636,-8.804091454,-1.710868239,3.774079561,2024-06-04 14:43:47.817901
9.858412146,-8.780761719,-1.751247048,3.783650875,2024-06-04 14:43:47.858412
9.898901261,-8.839385986,-1.793719649,3.824927092,2024-06-04 14:43:47.898901
9.939390428,-8.773583412,-1.756032705,3.789034605,2024-06-04 14:43:47.939390
9.979879594,-8.71675396,-1.718644857,3.77647233,2024-06-04 14:43:47.979880
10.02036876,-8.789136887,-1.721635938,3.785445452,2024-06-04 14:43:48.020369
10.06083991,-8.83998394,-1.727617979,3.786043644,2024-06-04 14:43:48.060840
10.10132907,-8.734101295,-1.686341763,3.740580082,2024-06-04 14:43:48.101329
10.14181824,-8.744271278,-1.665404558,3.735196114,2024-06-04 14:43:48.141818
10.18234501,-8.690732002,-1.736590981,3.720839262,2024-06-04 14:43:48.182345
10.22282084,-8.789136887,-1.754836321,3.790829182,2024-06-04 14:43:48.222821
10.2633173,-8.845368385,-1.737189293,3.772883177,2024-06-04 14:43:48.263317
10.30380673,-8.740083694,-1.679761529,3.757927895,2024-06-04 14:43:48.303807
10.34429298,-8.733503342,-1.65463686,3.750749588,2024-06-04 14:43:48.344293
10.3847698,-8.766405106,-1.697109461,3.761517286,2024-06-04 14:43:48.384770
10.42525329,-8.792725563,-1.73898387,3.768097401,2024-06-04 14:43:48.425253
10.46574236,-8.789136887,-1.728216171,3.764508247,2024-06-04 14:43:48.465742
10.50623142,-8.75683403,-1.701895118,3.748954773,2024-06-04 14:43:48.506231
10.5467084,-8.78195858,-1.692323804,3.759124279,2024-06-04 14:43:48.546708
10.58716777,-8.77477932,-1.724626899,3.77647233,2024-06-04 14:43:48.587168
10.62766412,-8.764610291,-1.715055585,3.786641836,2024-06-04 14:43:48.627664
10.66818975,-8.765806198,-1.716850281,3.760320902,2024-06-04 14:43:48.668190
10.7086822,-8.756235123,-1.690529227,3.773481369,2024-06-04 14:43:48.708682
10.74917308,-8.783752441,-1.700698733,3.765704632,2024-06-04 14:43:48.749173
10.78965569,-8.777172089,-1.723430514,3.762115479,2024-06-04 14:43:48.789656
10.83015225,-8.773583412,-1.715055585,3.75134778,2024-06-04 14:43:48.830152
10.87063381,-8.769993782,-1.700698733,3.758526087,2024-06-04 14:43:48.870634
10.91110605,-8.783154488,-1.691725612,3.754936934,2024-06-04 14:43:48.911106
10.95164584,-8.78195858,-1.696511269,3.75673151,2024-06-04 14:43:48.951646
10.99213532,-8.762815475,-1.697707653,3.769891977,2024-06-04 14:43:48.992135
11.03255803,-8.7532444,-1.710868239,3.77647233,2024-06-04 14:43:49.032558
11.07304647,-8.780163765,-1.709073544,3.780659676,2024-06-04 14:43:49.073046
11.11353595,-8.779565811,-1.715055585,3.761517286,2024-06-04 14:43:49.113536
11.15404329,-8.764610291,-1.697707653,3.773481369,2024-06-04 14:43:49.154043
11.19455777,-8.767003059,-1.706082582,3.769293785,2024-06-04 14:43:49.194558
11.23505704,-8.779565811,-1.694716692,3.769891977,2024-06-04 14:43:49.235057
11.27554324,-8.77059269,-1.710269928,3.754338741,2024-06-04 14:43:49.275543
11.31603412,-8.757431984,-1.710269928,3.783052683,2024-06-04 14:43:49.316034
11.35648876,-8.775976181,-1.717448473,3.769891977,2024-06-04 14:43:49.356489
11.39694725,-8.780163765,-1.695314884,3.777070522,2024-06-04 14:43:49.396947
11.43743548,-8.769993782,-1.707877159,3.762115479,2024-06-04 14:43:49.437435
11.4779234,-8.759824753,-1.710269928,3.77647233,2024-06-04 14:43:49.477923
11.51842001,-8.78973484,-1.7138592,3.741776466,2024-06-04 14:43:49.518420
11.5589235,-8.77836895,-1.698305845,3.741178274,2024-06-04 14:43:49.558924
11.59942402,-8.782556534,-1.684547186,3.735794306,2024-06-04 14:43:49.599424
11.63988959,-8.767601013,-1.686939955,3.757927895,2024-06-04 14:43:49.639890
11.68040329,-8.787342072,-1.70548439,3.771686792,2024-06-04 14:43:49.680403
11.72089866,-8.757431984,-1.714457393,3.774079561,2024-06-04 14:43:49.720899
11.76135767,-8.758627892,-1.708475351,3.785445452,2024-06-04 14:43:49.761358
11.8018823,-8.764610291,-1.709671736,3.769891977,2024-06-04 14:43:49.801882
11.8423947,-8.772386551,-1.692323804,3.760320902,2024-06-04 14:43:49.842395
11.88288423,-8.77836895,-1.708475351,3.774677753,2024-06-04 14:43:49.882884
11.92336928,-8.792725563,-1.709073544,3.757329702,2024-06-04 14:43:49.923369
11.96385001,-8.767601013,-1.716850281,3.749552965,2024-06-04 14:43:49.963850
12.00433907,-8.758029938,-1.700100541,3.767499208,2024-06-04 14:43:50.004339
12.04481548,-8.801698685,-1.655235052,3.785445452,2024-06-04 14:43:50.044815
12.08527918,-8.766405106,-1.680957913,3.769293785,2024-06-04 14:43:50.085279
12.12577428,-8.74187851,-1.752443433,3.786641836,2024-06-04 14:43:50.125774
12.16627543,-8.71316433,-1.770987868,3.829712629,2024-06-04 14:43:50.166275
12.20677907,-8.735298157,-1.734198213,3.812364578,2024-06-04 14:43:50.206779
12.24728366,-8.817252159,-1.710868239,3.718446493,2024-06-04 14:43:50.247284
12.28780798,-8.845966339,-1.649253011,3.696312666,2024-06-04 14:43:50.287808
12.32829704,-8.796913147,-1.624128342,3.695714474,2024-06-04 14:43:50.328297
12.36869543,-8.741280556,-1.616351724,3.750749588,2024-06-04 14:43:50.368695
12.40922032,-8.771190643,-1.658226132,3.812364578,2024-06-04 14:43:50.409220
12.44970933,-8.793922424,-1.70249331,3.840480328,2024-06-04 14:43:50.449709
12.49019808,-8.725727081,-1.716252089,3.800998688,2024-06-04 14:43:50.490198
12.53068699,-8.734700203,-1.703689694,3.789034605,2024-06-04 14:43:50.530687
12.57114147,-8.790931702,-1.694118381,3.75673151,2024-06-04 14:43:50.571141
12.61163355,-8.827422142,-1.665404558,3.763311863,2024-06-04 14:43:50.611634
12.65221845,-8.796913147,-1.661217093,3.729214191,2024-06-04 14:43:50.652218
12.69266032,-8.77836895,-1.667199135,3.73998189,2024-06-04 14:43:50.692660
12.7331223,-8.775378227,-1.696511269,3.759722471,2024-06-04 14:43:50.733122
12.77365084,-8.775976181,-1.70548439,3.778865099,2024-06-04 14:43:50.773651
12.81413736,-8.765208244,-1.718644857,3.792025566,2024-06-04 14:43:50.814137
12.85459163,-8.719146729,-1.725823283,3.785445452,2024-06-04 14:43:50.854592
12.89511782,-8.750253677,-1.712662816,3.809971809,2024-06-04 14:43:50.895118
12.93559814,-8.783752441,-1.710269928,3.763910055,2024-06-04 14:43:50.935598
12.97608288,-8.796315193,-1.686341763,3.750749588,2024-06-04 14:43:50.976083
13.01654017,-8.777172089,-1.664208174,3.761517286,2024-06-04 14:43:51.016540
13.05701553,-8.75683403,-1.689332843,3.763910055,2024-06-04 14:43:51.057016
13.09750574,-8.776574135,-1.704287887,3.775275946,2024-06-04 14:43:51.097506
13.13803329,-8.771788597,-1.709671736,3.766901016,2024-06-04 14:43:51.138033
13.17854168,-8.778966904,-1.693520188,3.762115479,2024-06-04 14:43:51.178542
13.21904079,-8.756235123,-1.686341763,3.766302824,2024-06-04 14:43:51.219041
13.25951673,-8.780761719,-1.67437768,3.778266907,2024-06-04 14:43:51.259517
13.29999522,-8.799904823,-1.677368641,3.754936934,2024-06-04 14:43:51.299995
13.34045376,-8.766405106,-1.706082582,3.760919094,2024-06-04 14:43:51.340454
13.38094475,-8.773583412,-1.708475351,3.748954773,2024-06-04 14:43:51.380945
13.4214423,-8.787342072,-1.706082582,3.750749588,2024-06-04 14:43:51.421442
13.46193111,-8.778966904,-1.709073544,3.767499208,2024-06-04 14:43:51.461931
13.50241678,-8.755637169,-1.719841242,3.760320902,2024-06-04 14:43:51.502417
13.54289991,-8.796913147,-1.722832322,3.74536562,2024-06-04 14:43:51.542900
13.58338329,-8.788538933,-1.70249331,3.726222992,2024-06-04 14:43:51.583383
13.6238634,-8.780761719,-1.687538147,3.73699069,2024-06-04 14:43:51.623863
13.66435626,-8.790332794,-1.678565025,3.736392498,2024-06-04 14:43:51.664356
13.70488522,-8.772985458,-1.685145378,3.743571043,2024-06-04 14:43:51.704885
13.74535402,-8.776574135,-1.70548439,3.748954773,2024-06-04 14:43:51.745354
13.7858435,-8.775378227,-1.728216171,3.760919094,2024-06-04 14:43:51.785844
13.82634657,-8.780163765,-1.716252089,3.754338741,2024-06-04 14:43:51.826347
13.86684694,-8.78195858,-1.721635938,3.761517286,2024-06-04 14:43:51.866847
13.90730767,-8.785547256,-1.697707653,3.743571043,2024-06-04 14:43:51.907308
13.94783475,-8.768797874,-1.676770449,3.741776466,2024-06-04 14:43:51.947835
13.98832355,-8.778966904,-1.700698733,3.739383698,2024-06-04 14:43:51.988324
14.02882423,-8.780761719,-1.7138592,3.754936934,2024-06-04 14:43:52.028824
14.06927949,-8.792127609,-1.718046665,3.760919094,2024-06-04 14:43:52.069279
14.10976855,-8.766405106,-1.694716692,3.765704632,2024-06-04 14:43:52.109769
14.15024194,-8.777172089,-1.697109461,3.762115479,2024-06-04 14:43:52.150242
14.1907472,-8.757431984,-1.70548439,3.762713671,2024-06-04 14:43:52.190747
14.23122834,-8.798110008,-1.701895118,3.745963812,2024-06-04 14:43:52.231228
14.271751,-8.782556534,-1.703091502,3.728615999,2024-06-04 14:43:52.271751
14.31223887,-8.78973484,-1.688136339,3.733401537,2024-06-04 14:43:52.312239
14.35271991,-8.780761719,-1.686341763,3.738187075,2024-06-04 14:43:52.352720
14.39317913,-8.772386551,-1.700698733,3.760320902,2024-06-04 14:43:52.393179
14.43366803,-8.775378227,-1.711466432,3.772284985,2024-06-04 14:43:52.433668
14.47414918,-8.756235123,-1.729412556,3.780659676,2024-06-04 14:43:52.474149
14.51463418,-8.759226799,-1.717448473,3.757329702,2024-06-04 14:43:52.514634
14.55512303,-8.76102066,-1.684547186,3.744767427,2024-06-04 14:43:52.555123
14.59561194,-8.807681084,-1.682154298,3.741776466,2024-06-04 14:43:52.595612
14.63610084,-8.812466621,-1.692921996,3.718446493,2024-06-04 14:43:52.636101
14.67665605,-8.769395828,-1.697109461,3.752544165,2024-06-04 14:43:52.676656
14.71706959,-8.74965477,-1.727019787,3.820141315,2024-06-04 14:43:52.717070
14.75758647,-8.735298157,-1.754238129,3.806382656,2024-06-04 14:43:52.757586
14.79806834,-8.766405106,-1.721635938,3.792623997,2024-06-04 14:43:52.798068
14.83856959,-8.797511101,-1.688136339,3.744169235,2024-06-04 14:43:52.838570
14.87906715,-8.783752441,-1.660618901,3.745963812,2024-06-04 14:43:52.879067
14.91957334,-8.798110008,-1.651047587,3.732803345,2024-06-04 14:43:52.919573
14.96005209,-8.806484222,-1.643270969,3.738187075,2024-06-04 14:43:52.960052
15.00051564,-8.787940025,-1.660618901,3.716053486,2024-06-04 14:43:53.000516
15.04100439,-8.783752441,-1.684547186,3.762115479,2024-06-04 14:43:53.041004
15.08151022,-8.780761719,-1.689931035,3.788436413,2024-06-04 14:43:53.081510
15.12198798,-8.737690926,-1.70249331,3.787838221,2024-06-04 14:43:53.121988
15.16245387,-8.759226799,-1.706680775,3.786641836,2024-06-04 14:43:53.162454
15.20299116,-8.791529655,-1.734198213,3.735794306,2024-06-04 14:43:53.202991
15.24349527,-8.790332794,-1.7138592,3.734597921,2024-06-04 14:43:53.243495
15.283986,-8.78614521,-1.718644857,3.757927895,2024-06-04 14:43:53.283986
15.32443668,-8.760422707,-1.720439434,3.754338741,2024-06-04 14:43:53.324437
15.3649598,-8.746664047,-1.747657895,3.785445452,2024-06-04 14:43:53.364960
15.40542814,-8.772985458,-1.741077542,3.786641836,2024-06-04 14:43:53.405428
15.44589199,-8.748458862,-1.707278967,3.800998688,2024-06-04 14:43:53.445892
15.48636892,-8.750253677,-1.658226132,3.817150354,2024-06-04 14:43:53.486369
15.52685772,-8.746066093,-1.684547186,3.774079561,2024-06-04 14:43:53.526858
15.56734657,-8.783154488,-1.735394597,3.722035646,2024-06-04 14:43:53.567347
15.60790428,-8.83220768,-1.74047935,3.689732552,2024-06-04 14:43:53.607904
15.64836584,-8.81844902,-1.69950223,3.706482172,2024-06-04 14:43:53.648366
15.68880694,-8.766405106,-1.678565025,3.744767427,2024-06-04 14:43:53.688807
15.72936939,-8.737092972,-1.686939955,3.787838221,2024-06-04 14:43:53.729369
15.76983886,-8.744869232,-1.70249331,3.816552162,2024-06-04 14:43:53.769839
15.81033439,-8.744271278,-1.729412556,3.803391695,2024-06-04 14:43:53.810334
15.85080329,-8.768199921,-1.723430514,3.780659676,2024-06-04 14:43:53.850803
15.891291,-8.786744118,-1.70249331,3.725026608,2024-06-04 14:43:53.891291
15.93179907,-8.823832512,-1.697109461,3.715455294,2024-06-04 14:43:53.931799
15.97229808,-8.77477932,-1.692323804,3.720839262,2024-06-04 14:43:53.972298
16.01274991,-8.781359673,-1.694716692,3.762115479,2024-06-04 14:43:54.012750
16.05322058,-8.746066093,-1.701296926,3.790230989,2024-06-04 14:43:54.053221
16.09370944,-8.775976181,-1.701895118,3.787838221,2024-06-04 14:43:54.093709
16.13421621,-8.771788597,-1.707877159,3.76510644,2024-06-04 14:43:54.134216
16.1747209,-8.784351349,-1.677966833,3.762115479,2024-06-04 14:43:54.174721
16.21522725,-8.755039215,-1.688136339,3.765704632,2024-06-04 14:43:54.215227
16.25571715,-8.768797874,-1.707877159,3.766302824,2024-06-04 14:43:54.255717
16.29619058,-8.784351349,-1.715055585,3.747758389,2024-06-04 14:43:54.296191
16.33666569,-8.794520378,-1.689931035,3.732803345,2024-06-04 14:43:54.336666
16.37713126,-8.782556534,-1.697109461,3.756133318,2024-06-04 14:43:54.377131
16.41763126,-8.767601013,-1.690529227,3.762713671,2024-06-04 14:43:54.417631
16.45811975,-8.77477932,-1.709671736,3.774677753,2024-06-04 14:43:54.458120
16.4986085,-8.777172089,-1.709073544,3.756133318,2024-06-04 14:43:54.498608
16.53908548,-8.761619568,-1.714457393,3.759124279,2024-06-04 14:43:54.539085
16.57964772,-8.764610291,-1.692323804,3.773481369,2024-06-04 14:43:54.579648
16.62012777,-8.783752441,-1.684547186,3.760919094,2024-06-04 14:43:54.620128
16.66061803,-8.78973484,-1.697707653,3.763910055,2024-06-04 14:43:54.660618
16.70108209,-8.777770996,-1.706082582,3.753740549,2024-06-04 14:43:54.701082
16.74157386,-8.757431984,-1.712662816,3.762713671,2024-06-04 14:43:54.741574
16.78208861,-8.78973484,-1.703689694,3.762713671,2024-06-04 14:43:54.782089
16.82257657,-8.783752441,-1.701296926,3.760320902,2024-06-04 14:43:54.822577
16.86306709,-8.777770996,-1.694118381,3.764508247,2024-06-04 14:43:54.863067
16.9035547,-8.767601013,-1.684547186,3.766901016,2024-06-04 14:43:54.903555
16.94403043,-8.759226799,-1.703689694,3.761517286,2024-06-04 14:43:54.944030
16.98451986,-8.783154488,-1.706082582,3.73699069,2024-06-04 14:43:54.984520
17.02500923,-8.771788597,-1.698305845,3.743571043,2024-06-04 14:43:55.025009
17.06549866,-8.78195858,-1.693520188,3.752544165,2024-06-04 14:43:55.065499
17.10598808,-8.771788597,-1.700698733,3.767499208,2024-06-04 14:43:55.105988
17.14645845,-8.789136887,-1.709671736,3.766901016,2024-06-04 14:43:55.146458
17.18692694,-8.768797874,-1.695314884,3.754338741,2024-06-04 14:43:55.186927
17.22740824,-8.771788597,-1.689931035,3.7710886,2024-06-04 14:43:55.227408
17.2679722,-8.765208244,-1.695913076,3.763311863,2024-06-04 14:43:55.267972
17.30844407,-8.778966904,-1.709671736,3.765704632,2024-06-04 14:43:55.308444
17.34890642,-8.780761719,-1.690529227,3.75134778,2024-06-04 14:43:55.348906
17.38941022,-8.780761719,-1.701296926,3.759124279,2024-06-04 14:43:55.389410
17.42990689,-8.775976181,-1.715055585,3.760320902,2024-06-04 14:43:55.429907
17.47039637,-8.784949303,-1.711466432,3.763311863,2024-06-04 14:43:55.470396
17.51085126,-8.784351349,-1.707278967,3.772284985,2024-06-04 14:43:55.510851
17.55132215,-8.758029938,-1.688136339,3.750749588,2024-06-04 14:43:55.551322
17.59181058,-8.789136887,-1.689332843,3.774677753,2024-06-04 14:43:55.591811
17.63230527,-8.755637169,-1.736590981,3.759124279,2024-06-04 14:43:55.632305
17.67281121,-8.769993782,-1.728814363,3.765704632,2024-06-04 14:43:55.672811
17.71333199,-8.777770996,-1.710269928,3.757927895,2024-06-04 14:43:55.713332
17.7538284,-8.784949303,-1.685145378,3.771686792,2024-06-04 14:43:55.753828
17.79431704,-8.757431984,-1.687538147,3.759722471,2024-06-04 14:43:55.794317
17.83480678,-8.784949303,-1.689332843,3.764508247,2024-06-04 14:43:55.834807
17.87529574,-8.778966904,-1.714457393,3.741776466,2024-06-04 14:43:55.875296
17.91578538,-8.787940025,-1.714457393,3.75673151,2024-06-04 14:43:55.915785
17.95625881,-8.768199921,-1.713261008,3.760320902,2024-06-04 14:43:55.956259
17.99674814,-8.767003059,-1.710269928,3.780659676,2024-06-04 14:43:55.996748
18.03720553,-8.767003059,-1.709073544,3.769891977,2024-06-04 14:43:56.037206
18.0776948,-8.767601013,-1.696511269,3.769293785,2024-06-04 14:43:56.077695
18.11818407,-8.769993782,-1.712064624,3.754338741,2024-06-04 14:43:56.118184
18.15872147,-8.777770996,-1.698904037,3.763910055,2024-06-04 14:43:56.158721
18.19913689,-8.782556534,-1.691725612,3.740580082,2024-06-04 14:43:56.199137
18.23970647,-8.771190643,-1.684547186,3.77049017,2024-06-04 14:43:56.239706
18.28018392,-8.77836895,-1.703689694,3.765704632,2024-06-04 14:43:56.280184
18.32068439,-8.771788597,-1.723430514,3.775275946,2024-06-04 14:43:56.320684
18.36111246,-8.771190643,-1.710868239,3.759124279,2024-06-04 14:43:56.361112
18.40166262,-8.781359673,-1.68574357,3.759124279,2024-06-04 14:43:56.401663
18.44215189,-8.788538933,-1.689931035,3.744169235,2024-06-04 14:43:56.442152
18.48257834,-8.779565811,-1.707877159,3.752544165,2024-06-04 14:43:56.482578
18.52306855,-8.779565811,-1.707877159,3.759722471,2024-06-04 14:43:56.523069
18.5635635,-8.769993782,-1.708475351,3.766302824,2024-06-04 14:43:56.563564
18.60405215,-8.767601013,-1.706680775,3.77049017,2024-06-04 14:43:56.604052
18.64454084,-8.778966904,-1.698904037,3.777070522,2024-06-04 14:43:56.644541
18.68504136,-8.783752441,-1.704886079,3.757329702,2024-06-04 14:43:56.685041
18.72556829,-8.782556534,-1.703091502,3.75134778,2024-06-04 14:43:56.725568
18.76604689,-8.783752441,-1.700698733,3.750749588,2024-06-04 14:43:56.766047
18.80654017,-8.787342072,-1.697707653,3.743571043,2024-06-04 14:43:56.806540
18.84703803,-8.76102066,-1.712662816,3.769293785,2024-06-04 14:43:56.847038
18.88749262,-8.794520378,-1.70548439,3.769293785,2024-06-04 14:43:56.887493
18.92796345,-8.762815475,-1.700698733,3.757927895,2024-06-04 14:43:56.927963
18.96845225,-8.785547256,-1.686341763,3.780659676,2024-06-04 14:43:56.968452
19.00894105,-8.762217522,-1.701296926,3.765704632,2024-06-04 14:43:57.008941
19.04945996,-8.77059269,-1.703689694,3.759124279,2024-06-04 14:43:57.049460
19.08993892,-8.765806198,-1.701895118,3.73699069,2024-06-04 14:43:57.089939
19.13041527,-8.783154488,-1.695314884,3.751945972,2024-06-04 14:43:57.130415
19.17090173,-8.781359673,-1.692921996,3.756133318,2024-06-04 14:43:57.170902
19.21143704,-8.774181366,-1.694118381,3.761517286,2024-06-04 14:43:57.211437
19.25192949,-8.778966904,-1.698305845,3.750749588,2024-06-04 14:43:57.251929
19.29242105,-8.785547256,-1.685145378,3.756133318,2024-06-04 14:43:57.292421
19.3329109,-8.764012337,-1.691127419,3.752544165,2024-06-04 14:43:57.332911
19.37338402,-8.779565811,-1.725225091,3.746562004,2024-06-04 14:43:57.373384
19.41384017,-8.769993782,-1.714457393,3.763311863,2024-06-04 14:43:57.413840
19.45432907,-8.762217522,-1.711466432,3.77647233,2024-06-04 14:43:57.454329
19.49482444,-8.797511101,-1.695314884,3.765704632,2024-06-04 14:43:57.494824
19.53529897,-8.765208244,-1.704886079,3.764508247,2024-06-04 14:43:57.535299
19.57578975,-8.774181366,-1.69950223,3.778266907,2024-06-04 14:43:57.575790
19.61627881,-8.774181366,-1.698305845,3.759722471,2024-06-04 14:43:57.616279
19.65680199,-8.793324471,-1.68275249,3.751945972,2024-06-04 14:43:57.656802
19.69728204,-8.77059269,-1.700100541,3.762713671,2024-06-04 14:43:57.697282
19.73778319,-8.762217522,-1.722832322,3.748356581,2024-06-04 14:43:57.737783
19.77827355,-8.776574135,-1.715055585,3.754936934,2024-06-04 14:43:57.778274
19.81873022,-8.769993782,-1.710269928,3.754936934,2024-06-04 14:43:57.818730
19.85921933,-8.772985458,-1.684547186,3.755535126,2024-06-04 14:43:57.859219
19.89976423,-8.782556534,-1.683350682,3.75673151,2024-06-04 14:43:57.899764
19.94025334,-8.791529655,-1.667199135,3.754936934,2024-06-04 14:43:57.940253
19.98068829,-8.77059269,-1.691725612,3.754338741,2024-06-04 14:43:57.980688
20.02116751,-8.77059269,-1.707278967,3.759124279,2024-06-04 14:43:58.021168
20.06167423,-8.787342072,-1.703689694,3.742374659,2024-06-04 14:43:58.061674
20.1021509,-8.791529655,-1.704886079,3.745963812,2024-06-04 14:43:58.102151
20.14270725,-8.768199921,-1.718644857,3.751945972,2024-06-04 14:43:58.142707
20.18318412,-8.774181366,-1.721635938,3.764508247,2024-06-04 14:43:58.183184
20.22367215,-8.762815475,-1.710269928,3.785445452,2024-06-04 14:43:58.223672
20.26416262,-8.765806198,-1.697109461,3.783650875,2024-06-04 14:43:58.264163
20.30465496,-8.781359673,-1.683350682,3.777070522,2024-06-04 14:43:58.304655
20.34514308,-8.783752441,-1.678565025,3.753142357,2024-06-04 14:43:58.345143
20.38562725,-8.780761719,-1.688734531,3.744169235,2024-06-04 14:43:58.385627
20.42611449,-8.781359673,-1.706082582,3.728017569,2024-06-04 14:43:58.426114
20.4666034,-8.786744118,-1.709073544,3.738785267,2024-06-04 14:43:58.466603
20.50709386,-8.788538933,-1.707278967,3.769293785,2024-06-04 14:43:58.507094
20.54758595,-8.75683403,-1.706680775,3.772284985,2024-06-04 14:43:58.547586
20.58807069,-8.77059269,-1.686341763,3.791427374,2024-06-04 14:43:58.588071
20.62853543,-8.772386551,-1.694118381,3.762115479,2024-06-04 14:43:58.628535
20.66901527,-8.772386551,-1.700100541,3.754338741,2024-06-04 14:43:58.669015
20.70954673,-8.789136887,-1.691725612,3.736392498,2024-06-04 14:43:58.709547
20.75004084,-8.77836895,-1.696511269,3.734597921,2024-06-04 14:43:58.750041
20.79051376,-8.784351349,-1.701296926,3.762713671,2024-06-04 14:43:58.790514
20.83098652,-8.767601013,-1.712662816,3.769293785,2024-06-04 14:43:58.830987
20.87149001,-8.768797874,-1.718046665,3.767499208,2024-06-04 14:43:58.871490
20.91199491,-8.762815475,-1.70249331,3.780061483,2024-06-04 14:43:58.911995
20.95243829,-8.799305916,-1.697109461,3.757329702,2024-06-04 14:43:58.952438
20.99293496,-8.772985458,-1.688734531,3.744767427,2024-06-04 14:43:58.992935
21.03341673,-8.795118332,-1.682154298,3.745963812,2024-06-04 14:43:59.033417
21.07390611,-8.752047539,-1.709073544,3.76510644,2024-06-04 14:43:59.073906
21.11438662,-8.782556534,-1.715055585,3.751945972,2024-06-04 14:43:59.114387
21.15492902,-8.771788597,-1.701296926,3.777668715,2024-06-04 14:43:59.154929
21.1954135,-8.784351349,-1.70548439,3.756133318,2024-06-04 14:43:59.195414
21.23590308,-8.768797874,-1.715055585,3.753740549,2024-06-04 14:43:59.235903
21.27637782,-8.777172089,-1.688136339,3.774079561,2024-06-04 14:43:59.276378
21.31682423,-8.778966904,-1.700100541,3.750151396,2024-06-04 14:43:59.316824
21.35732402,-8.772985458,-1.700100541,3.762713671,2024-06-04 14:43:59.357324
21.39783855,-8.777172089,-1.704886079,3.742972851,2024-06-04 14:43:59.397839
21.43832887,-8.788538933,-1.698305845,3.769891977,2024-06-04 14:43:59.438329
21.47878892,-8.790931702,-1.714457393,3.763910055,2024-06-04 14:43:59.478789
21.51927819,-8.773583412,-1.720439434,3.754936934,2024-06-04 14:43:59.519278
21.55977428,-8.768199921,-1.714457393,3.778266907,2024-06-04 14:43:59.559774
21.60025928,-8.780163765,-1.698305845,3.774079561,2024-06-04 14:43:59.600259
21.64074407,-8.77836895,-1.680957913,3.754936934,2024-06-04 14:43:59.640744
21.68127558,-8.804690361,-1.704287887,3.73699069,2024-06-04 14:43:59.681276
21.72178428,-8.783752441,-1.73360002,3.7256248,2024-06-04 14:43:59.721784
21.76227215,-8.769993782,-1.712662816,3.754338741,2024-06-04 14:43:59.762272
21.80276199,-8.787342072,-1.701296926,3.766302824,2024-06-04 14:43:59.802762
21.84325236,-8.765806198,-1.692921996,3.760919094,2024-06-04 14:43:59.843252
21.88374142,-8.763413429,-1.70548439,3.758526087,2024-06-04 14:43:59.883741
21.92422631,-8.774181366,-1.716252089,3.769891977,2024-06-04 14:43:59.924226
21.96470788,-8.77477932,-1.714457393,3.752544165,2024-06-04 14:43:59.964708
22.00519793,-8.787940025,-1.68275249,3.769891977,2024-06-04 14:44:00.005198
22.04567548,-8.772386551,-1.688734531,3.738187075,2024-06-04 14:44:00.045675
22.08613616,-8.784949303,-1.694716692,3.749552965,2024-06-04 14:44:00.086136
22.12663788,-8.783154488,-1.717448473,3.755535126,2024-06-04 14:44:00.126638
22.1671684,-8.768797874,-1.697109461,3.777668715,2024-06-04 14:44:00.167168
22.20760662,-8.751449585,-1.706680775,3.774677753,2024-06-04 14:44:00.207607
22.24809668,-8.796315193,-1.706082582,3.761517286,2024-06-04 14:44:00.248097
22.28857256,-8.784949303,-1.713261008,3.735196114,2024-06-04 14:44:00.288573
22.32906267,-8.772386551,-1.675574064,3.78484726,2024-06-04 14:44:00.329063
22.36955272,-8.752646446,-1.695913076,3.760919094,2024-06-04 14:44:00.369553
22.41007788,-8.780761719,-1.701296926,3.762713671,2024-06-04 14:44:00.410078
22.45056782,-8.777172089,-1.679761529,3.73998189,2024-06-04 14:44:00.450568
22.49102939,-8.790931702,-1.682154298,3.736392498,2024-06-04 14:44:00.491029
22.53150928,-8.795118332,-1.70249331,3.753740549,2024-06-04 14:44:00.531509
22.57200053,-8.758627892,-1.714457393,3.772284985,2024-06-04 14:44:00.572001
22.61249834,-8.772985458,-1.735992789,3.782454491,2024-06-04 14:44:00.612498
22.65299699,-8.777172089,-1.74047935,3.763910055,2024-06-04 14:44:00.652997
22.69351079,-8.804091454,-1.715055585,3.762115479,2024-06-04 14:44:00.693511
22.73402022,-8.737690926,-1.697707653,3.835096598,2024-06-04 14:44:00.734020
22.77450642,-8.676374435,-1.660618901,3.864408493,2024-06-04 14:44:00.774506
22.81499631,-8.716156006,-1.655833244,3.778266907,2024-06-04 14:44:00.814996
22.85548668,-8.885447502,-1.622931957,3.671188116,2024-06-04 14:44:00.855487
22.89594512,-8.816056252,-1.665404558,3.643670797,2024-06-04 14:44:00.895945
22.93644506,-8.808876991,-1.731805444,3.711267948,2024-06-04 14:44:00.936445
22.97691272,-8.790931702,-1.739881158,3.792025566,2024-06-04 14:44:00.976913
23.0173885,-8.769993782,-1.712662816,3.814159393,2024-06-04 14:44:01.017388
23.05787777,-8.747262001,-1.672582984,3.826721668,2024-06-04 14:44:01.057878
23.09836709,-8.702396393,-1.661815286,3.817748547,2024-06-04 14:44:01.098367
23.13889564,-8.729315758,-1.673181176,3.81595397,2024-06-04 14:44:01.138896
23.17938189,-8.780761719,-1.701895118,3.752544165,2024-06-04 14:44:01.179382
23.21986522,-8.829216003,-1.721635938,3.733401537,2024-06-04 14:44:01.219865
23.26036392,-8.798110008,-1.694716692,3.716053486,2024-06-04 14:44:01.260364
23.30085142,-8.802297592,-1.667797327,3.738785267,2024-06-04 14:44:01.300851
23.34129933,-8.786744118,-1.668993831,3.74536562,2024-06-04 14:44:01.341299
23.38180834,-8.780163765,-1.700698733,3.777668715,2024-06-04 14:44:01.381808
23.4223372,-8.754440308,-1.735394597,3.766302824,2024-06-04 14:44:01.422337
23.46282647,-8.758029938,-1.715055585,3.793222189,2024-06-04 14:44:01.462826
23.50329808,-8.767601013,-1.712662816,3.806382656,2024-06-04 14:44:01.503298
23.54375204,-8.768199921,-1.706680775,3.766901016,2024-06-04 14:44:01.543752
23.58424131,-8.75683403,-1.697707653,3.737588882,2024-06-04 14:44:01.584241
23.62473189,-8.802895546,-1.666600943,3.732803345,2024-06-04 14:44:01.624732
23.66522355,-8.790332794,-1.652842283,3.758526087,2024-06-04 14:44:01.665224
23.70572871,-8.815457344,-1.686341763,3.759124279,2024-06-04 14:44:01.705729
23.74623058,-8.762815475,-1.717448473,3.758526087,2024-06-04 14:44:01.746231
23.7867186,-8.77836895,-1.729412556,3.775874138,2024-06-04 14:44:01.786719
23.82719803,-8.776574135,-1.711466432,3.757927895,2024-06-04 14:44:01.827198
23.86767819,-8.801100731,-1.680957913,3.742972851,2024-06-04 14:44:01.867678
23.9081673,-8.768199921,-1.673779488,3.730410576,2024-06-04 14:44:01.908167
23.94867074,-8.77059269,-1.672582984,3.761517286,2024-06-04 14:44:01.948671
23.98915996,-8.780761719,-1.686939955,3.762115479,2024-06-04 14:44:01.989160
24.02962017,-8.775976181,-1.698305845,3.772284985,2024-06-04 14:44:02.029620
24.07015657,-8.760422707,-1.716850281,3.76510644,2024-06-04 14:44:02.070157
24.11064574,-8.762815475,-1.72223413,3.756133318,2024-06-04 14:44:02.110646
24.15113496,-8.793324471,-1.700100541,3.767499208,2024-06-04 14:44:02.151135
24.19162517,-8.787342072,-1.697109461,3.75673151,2024-06-04 14:44:02.191625
24.23212694,-8.768797874,-1.706680775,3.740580082,2024-06-04 14:44:02.232127
24.27261564,-8.77059269,-1.7138592,3.772284985,2024-06-04 14:44:02.272616
24.31310491,-8.788538933,-1.706082582,3.754338741,2024-06-04 14:44:02.313105
24.35359397,-8.768797874,-1.680359721,3.768695593,2024-06-04 14:44:02.353594
24.39405121,-8.787940025,-1.678565025,3.758526087,2024-06-04 14:44:02.394051
24.43454064,-8.764012337,-1.715055585,3.751945972,2024-06-04 14:44:02.434541
24.47501256,-8.780163765,-1.727019787,3.757927895,2024-06-04 14:44:02.475013
24.51549319,-8.765806198,-1.72223413,3.749552965,2024-06-04 14:44:02.515493
24.55598256,-8.771788597,-1.707877159,3.760320902,2024-06-04 14:44:02.555983
24.59647199,-8.771190643,-1.6713866,3.758526087,2024-06-04 14:44:02.596472
24.63696136,-8.794520378,-1.65164578,3.758526087,2024-06-04 14:44:02.636961
24.67745152,-8.782556534,-1.689931035,3.738785267,2024-06-04 14:44:02.677452
24.71796074,-8.769993782,-1.725823283,3.764508247,2024-06-04 14:44:02.717961
24.75845298,-8.764610291,-1.739881158,3.760320902,2024-06-04 14:44:02.758453
24.79894236,-8.779565811,-1.731805444,3.775874138,2024-06-04 14:44:02.798942
24.8394259,-8.765806198,-1.691127419,3.777668715,2024-06-04 14:44:02.839426
24.87992064,-8.768199921,-1.680359721,3.772883177,2024-06-04 14:44:02.879921
24.92044298,-8.777770996,-1.680957913,3.741178274,2024-06-04 14:44:02.920443
24.96093032,-8.796913147,-1.695913076,3.748954773,2024-06-04 14:44:02.960930
25.00140256,-8.799305916,-1.70249331,3.73160696,2024-06-04 14:44:03.001403
25.0418572,-8.77477932,-1.688136339,3.777668715,2024-06-04 14:44:03.041857
25.08234959,-8.780163765,-1.712662816,3.766901016,2024-06-04 14:44:03.082350
25.12285834,-8.758029938,-1.7138592,3.772883177,2024-06-04 14:44:03.122858
25.16337548,-8.775976181,-1.704886079,3.763311863,2024-06-04 14:44:03.163375
25.20386204,-8.771190643,-1.695913076,3.758526087,2024-06-04 14:44:03.203862
25.24435991,-8.783752441,-1.687538147,3.764508247,2024-06-04 14:44:03.244360
25.28485491,-8.771788597,-1.677368641,3.745963812,2024-06-04 14:44:03.284855
25.32534444,-8.790332794,-1.691127419,3.746562004,2024-06-04 14:44:03.325344
25.36583088,-8.777770996,-1.710269928,3.759722471,2024-06-04 14:44:03.365831
25.40632332,-8.783154488,-1.712064624,3.778865099,2024-06-04 14:44:03.406323
25.44681327,-8.743673325,-1.713261008,3.777668715,2024-06-04 14:44:03.446813
25.48730317,-8.747262001,-1.712662816,3.765704632,2024-06-04 14:44:03.487303
25.52779312,-8.802895546,-1.703689694,3.73160696,2024-06-04 14:44:03.527793
25.56828301,-8.779565811,-1.675574064,3.739383698,2024-06-04 14:44:03.568283
25.60877254,-8.771788597,-1.683350682,3.735196114,2024-06-04 14:44:03.608773
25.64922353,-8.788538933,-1.69950223,3.743571043,2024-06-04 14:44:03.649224
25.68975713,-8.791529655,-1.707278967,3.757329702,2024-06-04 14:44:03.689757
25.73018754,-8.764610291,-1.701296926,3.775874138,2024-06-04 14:44:03.730188
25.77069171,-8.767003059,-1.698904037,3.787240028,2024-06-04 14:44:03.770692
25.81121713,-8.756235123,-1.711466432,3.780061483,2024-06-04 14:44:03.811217
25.8517053,-8.773583412,-1.715653777,3.757927895,2024-06-04 14:44:03.851705
25.89219239,-8.789136887,-1.707877159,3.728017569,2024-06-04 14:44:03.892192
25.9326778,-8.769993782,-1.670788407,3.717848301,2024-06-04 14:44:03.932678
25.97316536,-8.794520378,-1.671984792,3.747758389,2024-06-04 14:44:03.973165
26.01365504,-8.778966904,-1.689931035,3.77647233,2024-06-04 14:44:04.013655
26.05411666,-8.771788597,-1.711466432,3.766302824,2024-06-04 14:44:04.054117
26.09459223,-8.776574135,-1.72223413,3.774079561,2024-06-04 14:44:04.094592
26.13511697,-8.776574135,-1.711466432,3.765704632,2024-06-04 14:44:04.135117
26.17561973,-8.775378227,-1.701296926,3.754338741,2024-06-04 14:44:04.175620
26.2160964,-8.775976181,-1.697109461,3.754936934,2024-06-04 14:44:04.216096
26.25658968,-8.777172089,-1.688136339,3.762115479,2024-06-04 14:44:04.256590
26.29708103,-8.774181366,-1.70249331,3.757927895,2024-06-04 14:44:04.297081
26.33752843,-8.77477932,-1.700698733,3.754936934,2024-06-04 14:44:04.337528
26.37803791,-8.766405106,-1.707877159,3.763311863,2024-06-04 14:44:04.378038
26.4185602,-8.777770996,-1.711466432,3.764508247,2024-06-04 14:44:04.418560
26.45904999,-8.768797874,-1.716850281,3.762115479,2024-06-04 14:44:04.459050
26.49953994,-8.769395828,-1.680359721,3.762115479,2024-06-04 14:44:04.499540
26.54000911,-8.769395828,-1.696511269,3.759722471,2024-06-04 14:44:04.540009
26.5804576,-8.764012337,-1.704886079,3.777668715,2024-06-04 14:44:04.580458
26.62094733,-8.775976181,-1.703689694,3.748954773,2024-06-04 14:44:04.620947
26.66143713,-8.769993782,-1.689931035,3.755535126,2024-06-04 14:44:04.661437
26.70197114,-8.78195858,-1.688734531,3.759124279,2024-06-04 14:44:04.701971
26.74247634,-8.771788597,-1.698904037,3.754338741,2024-06-04 14:44:04.742476
26.78296166,-8.775378227,-1.712662816,3.75134778,2024-06-04 14:44:04.782962
26.82345775,-8.77836895,-1.700698733,3.762713671,2024-06-04 14:44:04.823458
26.8639451,-8.768797874,-1.688734531,3.762115479,2024-06-04 14:44:04.863945
26.90443374,-8.774181366,-1.695913076,3.766901016,2024-06-04 14:44:04.904434
26.94490718,-8.780163765,-1.698305845,3.759124279,2024-06-04 14:44:04.944907
26.98536921,-8.771788597,-1.706082582,3.754338741,2024-06-04 14:44:04.985369
27.02586046,-8.780163765,-1.704886079,3.768695593,2024-06-04 14:44:05.025860
27.06634989,-8.769993782,-1.701895118,3.773481369,2024-06-04 14:44:05.066350
27.10682567,-8.767601013,-1.707877159,3.758526087,2024-06-04 14:44:05.106826
27.14737171,-8.768797874,-1.712064624,3.767499208,2024-06-04 14:44:05.147372
27.1878227,-8.787940025,-1.692921996,3.769293785,2024-06-04 14:44:05.187823
27.22830306,-8.76102066,-1.68275249,3.758526087,2024-06-04 14:44:05.228303
27.2688164,-8.774181366,-1.700698733,3.750749588,2024-06-04 14:44:05.268816
27.30931525,-8.76102066,-1.711466432,3.76510644,2024-06-04 14:44:05.309315
27.34977384,-8.774181366,-1.707877159,3.76510644,2024-06-04 14:44:05.349774
27.39028817,-8.771788597,-1.690529227,3.757329702,2024-06-04 14:44:05.390288
27.4307978,-8.800502777,-1.686939955,3.747758389,2024-06-04 14:44:05.430798
27.47124765,-8.764610291,-1.701895118,3.752544165,2024-06-04 14:44:05.471248
27.51171874,-8.773583412,-1.698904037,3.762713671,2024-06-04 14:44:05.511719
27.55220983,-8.781359673,-1.694716692,3.763311863,2024-06-04 14:44:05.552210
27.5926966,-8.774181366,-1.698305845,3.767499208,2024-06-04 14:44:05.592697
27.63318827,-8.77059269,-1.695913076,3.761517286,2024-06-04 14:44:05.633188
27.67369379,-8.772985458,-1.7138592,3.766302824,2024-06-04 14:44:05.673694
27.71421765,-8.784351349,-1.706082582,3.763311863,2024-06-04 14:44:05.714218
27.75471666,-8.773583412,-1.698305845,3.75134778,2024-06-04 14:44:05.754717
27.79520254,-8.776574135,-1.697707653,3.750749588,2024-06-04 14:44:05.795203
27.83568041,-8.760422707,-1.701895118,3.769891977,2024-06-04 14:44:05.835680
27.87615312,-8.784351349,-1.7138592,3.765704632,2024-06-04 14:44:05.876153
27.91665108,-8.772386551,-1.710269928,3.769293785,2024-06-04 14:44:05.916651
27.95714838,-8.769993782,-1.692921996,3.783650875,2024-06-04 14:44:05.957148
27.99763817,-8.762815475,-1.684547186,3.765704632,2024-06-04 14:44:05.997638
28.03812801,-8.791529655,-1.697109461,3.748954773,2024-06-04 14:44:06.038128
28.0786178,-8.793922424,-1.693520188,3.714857101,2024-06-04 14:44:06.078618
28.11910114,-8.780761719,-1.69950223,3.717848301,2024-06-04 14:44:06.119101
28.15958848,-8.796315193,-1.689931035,3.753740549,2024-06-04 14:44:06.159588
28.20011426,-8.751449585,-1.674975872,3.792025566,2024-06-04 14:44:06.200114
28.24058942,-8.734700203,-1.6713866,3.821935892,2024-06-04 14:44:06.240589
28.28108254,-8.729315758,-1.710868239,3.831507206,2024-06-04 14:44:06.281083
28.32158312,-8.765806198,-1.731805444,3.811766386,2024-06-04 14:44:06.321583
28.36203082,-8.758029938,-1.73360002,3.79621315,2024-06-04 14:44:06.362031
28.40252322,-8.772985458,-1.707877159,3.769891977,2024-06-04 14:44:06.402523
28.44301306,-8.805886269,-1.706680775,3.753740549,2024-06-04 14:44:06.443013
28.48348577,-8.787342072,-1.697707653,3.748356581,2024-06-04 14:44:06.483486
28.52397504,-8.743673325,-1.707278967,3.766302824,2024-06-04 14:44:06.523975
28.56446442,-8.764610291,-1.698904037,3.777668715,2024-06-04 14:44:06.564464
28.60494312,-8.752646446,-1.701895118,3.805784464,2024-06-04 14:44:06.604943
28.64542577,-8.749056816,-1.689931035,3.81296277,2024-06-04 14:44:06.645426
28.68595832,-8.742476463,-1.703689694,3.805784464,2024-06-04 14:44:06.685958
28.72645525,-8.693722725,-1.736590981,3.799204111,2024-06-04 14:44:06.726455
28.7668989,-8.738887787,-1.716252089,3.794418573,2024-06-04 14:44:06.766899
28.80741598,-8.844171524,-1.718644857,3.782454491,2024-06-04 14:44:06.807416
28.84789384,-8.795118332,-1.750050664,3.753142357,2024-06-04 14:44:06.847894
28.88838499,-8.820841789,-1.746461391,3.696312666,2024-06-04 14:44:06.888385
28.928884,-8.788538933,-1.712064624,3.733999729,2024-06-04 14:44:06.928884
28.96937338,-8.7532444,-1.661217093,3.780061483,2024-06-04 14:44:06.969373
29.00986332,-8.756235123,-1.662413478,3.783052683,2024-06-04 14:44:07.009863
29.05033051,-8.764012337,-1.693520188,3.788436413,2024-06-04 14:44:07.050331
29.09080916,-8.747860909,-1.736590981,3.814159393,2024-06-04 14:44:07.090809
29.1312989,-8.730512619,-1.759621978,3.842873096,2024-06-04 14:44:07.131299
29.17179963,-8.776574135,-1.734198213,3.790230989,2024-06-04 14:44:07.171800
29.21233098,-8.75683403,-1.725823283,3.759722471,2024-06-04 14:44:07.212331
29.25282838,-8.792127609,-1.701296926,3.742972851,2024-06-04 14:44:07.252828
29.29331952,-8.762217522,-1.701296926,3.760919094,2024-06-04 14:44:07.293320
29.33380744,-8.785547256,-1.700698733,3.790230989,2024-06-04 14:44:07.333807
29.37427853,-8.731110573,-1.707278967,3.795614958,2024-06-04 14:44:07.374279
29.41473332,-8.725727081,-1.727617979,3.829712629,2024-06-04 14:44:07.414733
29.45522239,-8.746664047,-1.724626899,3.806382656,2024-06-04 14:44:07.455222
29.4957116,-8.762217522,-1.701895118,3.765704632,2024-06-04 14:44:07.495712
29.53620525,-8.782556534,-1.691725612,3.77049017,2024-06-04 14:44:07.536205
29.57669379,-8.750851631,-1.695314884,3.783650875,2024-06-04 14:44:07.576694
29.61720036,-8.747860909,-1.717448473,3.778865099,2024-06-04 14:44:07.617200
29.65766452,-8.78973484,-1.726421595,3.773481369,2024-06-04 14:44:07.657665
29.69816739,-8.760422707,-1.723430514,3.765704632,2024-06-04 14:44:07.698167
29.73866036,-8.769395828,-1.70548439,3.777668715,2024-06-04 14:44:07.738660
29.77914957,-8.772985458,-1.707278967,3.775874138,2024-06-04 14:44:07.779150
29.81963879,-8.759824753,-1.694716692,3.790829182,2024-06-04 14:44:07.819639
29.86011483,-8.761619568,-1.710269928,3.785445452,2024-06-04 14:44:07.860115
29.90066338,-8.7532444,-1.736590981,3.804588079,2024-06-04 14:44:07.900663
29.94113676,-8.776574135,-1.741675735,3.783650875,2024-06-04 14:44:07.941137
29.98162687,-8.769993782,-1.720439434,3.780659676,2024-06-04 14:44:07.981627
30.02211707,-8.768199921,-1.68574357,3.768695593,2024-06-04 14:44:08.022117
30.06260723,-8.752047539,-1.698305845,3.762115479,2024-06-04 14:44:08.062607
30.10306062,-8.758029938,-1.708475351,3.769891977,2024-06-04 14:44:08.103061
30.14360874,-8.777172089,-1.70249331,3.765704632,2024-06-04 14:44:08.143609
30.18408687,-8.775976181,-1.69950223,3.763311863,2024-06-04 14:44:08.184087
30.22457713,-8.764012337,-1.694118381,3.781257868,2024-06-04 14:44:08.224577
30.26507119,-8.740083694,-1.695314884,3.79621315,2024-06-04 14:44:08.265071
30.30555843,-8.740083694,-1.715055585,3.791427374,2024-06-04 14:44:08.305558
30.34604655,-8.755637169,-1.72223413,3.777668715,2024-06-04 14:44:08.346047
30.3865365,-8.78195858,-1.720439434,3.775874138,2024-06-04 14:44:08.386536
30.42701395,-8.776574135,-1.711466432,3.779463291,2024-06-04 14:44:08.427014
30.46747858,-8.744869232,-1.712662816,3.793222189,2024-06-04 14:44:08.467479
30.50796806,-8.787342072,-1.713261008,3.780659676,2024-06-04 14:44:08.507968
30.54845713,-8.757431984,-1.722832322,3.78484726,2024-06-04 14:44:08.548457
30.58894817,-8.791529655,-1.719841242,3.792025566,2024-06-04 14:44:08.588948
30.62945473,-8.764610291,-1.721635938,3.777070522,2024-06-04 14:44:08.629455
30.6699502,-8.77477932,-1.704287887,3.786641836,2024-06-04 14:44:08.669950
30.71040926,-8.739485741,-1.710269928,3.781856298,2024-06-04 14:44:08.710409
30.75091124,-8.74965477,-1.711466432,3.778865099,2024-06-04 14:44:08.750911
30.79141098,-8.776574135,-1.723430514,3.777070522,2024-06-04 14:44:08.791411
30.83192437,-8.780163765,-1.707278967,3.775874138,2024-06-04 14:44:08.831924
30.87241452,-8.751449585,-1.710868239,3.775275946,2024-06-04 14:44:08.872415
30.91290421,-8.761619568,-1.706680775,3.783650875,2024-06-04 14:44:08.912904
30.95334218,-8.792725563,-1.724028707,3.762713671,2024-06-04 14:44:08.953342
30.99382265,-8.750851631,-1.709671736,3.769293785,2024-06-04 14:44:08.993823
31.03431733,-8.7532444,-1.725823283,3.777668715,2024-06-04 14:44:09.034317
31.07481301,-8.758029938,-1.714457393,3.794418573,2024-06-04 14:44:09.074813
31.11530213,-8.767601013,-1.694716692,3.811168194,2024-06-04 14:44:09.115302
31.15584155,-8.753842354,-1.700698733,3.77049017,2024-06-04 14:44:09.155842
31.19629744,-8.762217522,-1.715653777,3.77049017,2024-06-04 14:44:09.196297
31.23678338,-8.795717239,-1.721635938,3.749552965,2024-06-04 14:44:09.236783
31.27725582,-8.753842354,-1.712064624,3.762115479,2024-06-04 14:44:09.277256
31.31777291,-8.753842354,-1.69950223,3.783052683,2024-06-04 14:44:09.317773
31.35823358,-8.757431984,-1.716850281,3.788436413,2024-06-04 14:44:09.358234
31.39878244,-8.767003059,-1.741077542,3.790829182,2024-06-04 14:44:09.398782
31.43927155,-8.744271278,-1.718046665,3.789034605,2024-06-04 14:44:09.439272
31.47969723,-8.749056816,-1.697707653,3.785445452,2024-06-04 14:44:09.479697
31.52018645,-8.764012337,-1.697707653,3.77049017,2024-06-04 14:44:09.520186
31.56067572,-8.777770996,-1.711466432,3.771686792,2024-06-04 14:44:09.560676
31.60116494,-8.784351349,-1.727019787,3.772883177,2024-06-04 14:44:09.601165
31.64165421,-8.754440308,-1.727019787,3.772284985,2024-06-04 14:44:09.641654
31.68221937,-8.7532444,-1.715653777,3.81595397,2024-06-04 14:44:09.682219
31.72269239,-8.764012337,-1.725225091,3.787240028,2024-06-04 14:44:09.722692
31.76318885,-8.759226799,-1.719841242,3.754936934,2024-06-04 14:44:09.763189
31.80367697,-8.8034935,-1.712064624,3.738187075,2024-06-04 14:44:09.803677
31.84416822,-8.766405106,-1.678565025,3.738187075,2024-06-04 14:44:09.844168
31.88465692,-8.77836895,-1.695913076,3.724428415,2024-06-04 14:44:09.884657
31.92514108,-8.792127609,-1.694716692,3.746562004,2024-06-04 14:44:09.925141
31.96562301,-8.777770996,-1.698305845,3.759722471,2024-06-04 14:44:09.965623
32.00611317,-8.773583412,-1.701296926,3.780061483,2024-06-04 14:44:10.006113
32.04660338,-8.743074417,-1.709073544,3.803989887,2024-06-04 14:44:10.046603
32.08709358,-8.764610291,-1.710868239,3.791427374,2024-06-04 14:44:10.087094
32.12758697,-8.778966904,-1.715055585,3.774677753,2024-06-04 14:44:10.127587
32.16808358,-8.78614521,-1.713261008,3.758526087,2024-06-04 14:44:10.168084
32.20852999,-8.767003059,-1.710868239,3.73699069,2024-06-04 14:44:10.208530
32.2490202,-8.786744118,-1.698305845,3.74536562,2024-06-04 14:44:10.249020
32.28954379,-8.77477932,-1.713261008,3.740580082,2024-06-04 14:44:10.289544
32.32998994,-8.78973484,-1.718644857,3.76510644,2024-06-04 14:44:10.329990
32.37047077,-8.759226799,-1.716252089,3.774677753,2024-06-04 14:44:10.370471
32.41101947,-8.750851631,-1.710868239,3.783650875,2024-06-04 14:44:10.411019
32.45150968,-8.767003059,-1.703689694,3.772284985,2024-06-04 14:44:10.451510
32.49200004,-8.787940025,-1.70249331,3.755535126,2024-06-04 14:44:10.492000
32.53243442,-8.765806198,-1.701296926,3.743571043,2024-06-04 14:44:10.532434
32.57291775,-8.753842354,-1.709073544,3.766302824,2024-06-04 14:44:10.572918
32.6134278,-8.805886269,-1.716252089,3.765704632,2024-06-04 14:44:10.613428
32.65390713,-8.765806198,-1.700100541,3.772883177,2024-06-04 14:44:10.653907
32.6944341,-8.780163765,-1.691725612,3.787240028,2024-06-04 14:44:10.694434
32.73494041,-8.7532444,-1.730010748,3.779463291,2024-06-04 14:44:10.734940
32.77542499,-8.773583412,-1.728216171,3.777070522,2024-06-04 14:44:10.775425
32.81590463,-8.759824753,-1.709671736,3.749552965,2024-06-04 14:44:10.815905
32.85638645,-8.771788597,-1.700698733,3.759124279,2024-06-04 14:44:10.856386
32.89682749,-8.782556534,-1.693520188,3.740580082,2024-06-04 14:44:10.896827
32.93735593,-8.778966904,-1.686939955,3.751945972,2024-06-04 14:44:10.937356
32.9778652,-8.76102066,-1.700100541,3.763311863,2024-06-04 14:44:10.977865
33.01835525,-8.77836895,-1.704287887,3.774677753,2024-06-04 14:44:11.018355
33.05883983,-8.767601013,-1.712064624,3.78484726,2024-06-04 14:44:11.058840
33.09931978,-8.771190643,-1.731805444,3.769293785,2024-06-04 14:44:11.099320
33.1398176,-8.774181366,-1.706680775,3.769891977,2024-06-04 14:44:11.139818
33.18031062,-8.7532444,-1.691725612,3.767499208,2024-06-04 14:44:11.180311
33.22078525,-8.772386551,-1.7138592,3.760320902,2024-06-04 14:44:11.220785
33.26127358,-8.781359673,-1.714457393,3.739383698,2024-06-04 14:44:11.261274
33.30178379,-8.77059269,-1.701296926,3.742972851,2024-06-04 14:44:11.301784
33.34227603,-8.787940025,-1.683948994,3.762713671,2024-06-04 14:44:11.342276
33.38276275,-8.773583412,-1.672582984,3.745963812,2024-06-04 14:44:11.382763
33.42325275,-8.775378227,-1.677368641,3.779463291,2024-06-04 14:44:11.423253
33.46374275,-8.749056816,-1.700698733,3.772883177,2024-06-04 14:44:11.463743
33.5042327,-8.764610291,-1.725823283,3.78484726,2024-06-04 14:44:11.504233
33.54470718,-8.78195858,-1.706082582,3.762713671,2024-06-04 14:44:11.544707
33.58516473,-8.775976181,-1.688136339,3.759722471,2024-06-04 14:44:11.585165
33.62565171,-8.782556534,-1.689931035,3.762115479,2024-06-04 14:44:11.625652
33.6661416,-8.780761719,-1.696511269,3.762115479,2024-06-04 14:44:11.666142
33.70665655,-8.772386551,-1.695913076,3.759722471,2024-06-04 14:44:11.706657
33.74713817,-8.772985458,-1.704287887,3.778266907,2024-06-04 14:44:11.747138
33.78763885,-8.75683403,-1.703689694,3.77647233,2024-06-04 14:44:11.787639
33.82812879,-8.755039215,-1.694716692,3.788436413,2024-06-04 14:44:11.828129
33.86861687,-8.767003059,-1.691127419,3.774079561,2024-06-04 14:44:11.868617
33.90914744,-8.768797874,-1.695314884,3.781257868,2024-06-04 14:44:11.909147
33.9496376,-8.796315193,-1.700698733,3.73998189,2024-06-04 14:44:11.949638
33.99006223,-8.786744118,-1.706680775,3.741776466,2024-06-04 14:44:11.990062
34.03055239,-8.75683403,-1.694118381,3.761517286,2024-06-04 14:44:12.030552
34.0710426,-8.784351349,-1.69950223,3.774677753,2024-06-04 14:44:12.071043
34.1115328,-8.774181366,-1.696511269,3.778266907,2024-06-04 14:44:12.111533
34.15201624,-8.748458862,-1.680359721,3.809971809,2024-06-04 14:44:12.152016
34.19255233,-8.761619568,-1.689332843,3.790829182,2024-06-04 14:44:12.192552
34.23305296,-8.780761719,-1.717448473,3.766302824,2024-06-04 14:44:12.233053
34.27354312,-8.778966904,-1.701895118,3.737588882,2024-06-04 14:44:12.273543
34.31403567,-8.752646446,-1.684547186,3.753740549,2024-06-04 14:44:12.314036
34.35452093,-8.780163765,-1.686939955,3.760919094,2024-06-04 14:44:12.354521
34.39499921,-8.775378227,-1.704287887,3.774079561,2024-06-04 14:44:12.394999
34.43546588,-8.787342072,-1.708475351,3.782454491,2024-06-04 14:44:12.435466
34.47594296,-8.768797874,-1.712064624,3.767499208,2024-06-04 14:44:12.475943
34.51643181,-8.759226799,-1.703689694,3.763311863,2024-06-04 14:44:12.516432
34.55691989,-8.775976181,-1.69950223,3.762713671,2024-06-04 14:44:12.556920
34.59744421,-8.772386551,-1.689332843,3.759124279,2024-06-04 14:44:12.597444
34.63793202,-8.785547256,-1.687538147,3.755535126,2024-06-04 14:44:12.637932
34.67841155,-8.77059269,-1.703091502,3.758526087,2024-06-04 14:44:12.678412
34.7189101,-8.782556534,-1.700698733,3.765704632,2024-06-04 14:44:12.718910
34.75941806,-8.754440308,-1.701895118,3.790829182,2024-06-04 14:44:12.759418
34.79990765,-8.784351349,-1.691725612,3.768695593,2024-06-04 14:44:12.799908
34.84040364,-8.758029938,-1.694118381,3.756133318,2024-06-04 14:44:12.840404
34.88089353,-8.78614521,-1.700698733,3.766302824,2024-06-04 14:44:12.880894
34.92138025,-8.769993782,-1.726421595,3.767499208,2024-06-04 14:44:12.921380
34.96185114,-8.777172089,-1.698305845,3.761517286,2024-06-04 14:44:12.961851
35.00230494,-8.777172089,-1.692323804,3.75134778,2024-06-04 14:44:13.002305
35.04279463,-8.78614521,-1.692323804,3.767499208,2024-06-04 14:44:13.042795
35.08328254,-8.759226799,-1.700698733,3.76510644,2024-06-04 14:44:13.083283
35.1237753,-8.768797874,-1.695913076,3.772883177,2024-06-04 14:44:13.123775
35.16428056,-8.771788597,-1.698904037,3.759124279,2024-06-04 14:44:13.164281
35.20477963,-8.784351349,-1.696511269,3.793222189,2024-06-04 14:44:13.204780
35.24529338,-8.773583412,-1.698305845,3.760320902,2024-06-04 14:44:13.245293
35.28578426,-8.75683403,-1.70548439,3.763910055,2024-06-04 14:44:13.285784
35.32625051,-8.780163765,-1.708475351,3.755535126,2024-06-04 14:44:13.326251
35.36675593,-8.78195858,-1.70548439,3.75673151,2024-06-04 14:44:13.366756
35.40723582,-8.769993782,-1.695314884,3.772883177,2024-06-04 14:44:13.407236
35.4477251,-8.774181366,-1.70249331,3.772883177,2024-06-04 14:44:13.447725
35.48821608,-8.752646446,-1.70249331,3.772883177,2024-06-04 14:44:13.488216
35.52868588,-8.78614521,-1.703091502,3.762115479,2024-06-04 14:44:13.528686
35.56918645,-8.763413429,-1.697707653,3.76510644,2024-06-04 14:44:13.569186
35.60966848,-8.776574135,-1.696511269,3.77647233,2024-06-04 14:44:13.609668
35.6501916,-8.762815475,-1.701895118,3.774677753,2024-06-04 14:44:13.650192
35.69064468,-8.775976181,-1.706082582,3.766901016,2024-06-04 14:44:13.690645
35.73113864,-8.77836895,-1.698904037,3.754338741,2024-06-04 14:44:13.731139
35.77165994,-8.780761719,-1.690529227,3.754338741,2024-06-04 14:44:13.771660
35.81214957,-8.768797874,-1.685145378,3.765704632,2024-06-04 14:44:13.812150
35.85264062,-8.77059269,-1.685145378,3.780659676,2024-06-04 14:44:13.852641
35.89313093,-8.769993782,-1.691127419,3.763311863,2024-06-04 14:44:13.893131
35.93361187,-8.771190643,-1.707877159,3.766901016,2024-06-04 14:44:13.933612
35.97409739,-8.766405106,-1.710269928,3.775275946,2024-06-04 14:44:13.974097
36.01458744,-8.764012337,-1.710269928,3.771686792,2024-06-04 14:44:14.014587
36.05507749,-8.787940025,-1.706082582,3.768097401,2024-06-04 14:44:14.055077
36.09556749,-8.779565811,-1.696511269,3.763311863,2024-06-04 14:44:14.095567
36.13604275,-8.762217522,-1.690529227,3.758526087,2024-06-04 14:44:14.136043
36.17651546,-8.764012337,-1.706680775,3.757927895,2024-06-04 14:44:14.176515
36.21699103,-8.775378227,-1.703689694,3.775275946,2024-06-04 14:44:14.216991
36.25748843,-8.780761719,-1.698305845,3.761517286,2024-06-04 14:44:14.257488
36.2979766,-8.765806198,-1.696511269,3.773481369,2024-06-04 14:44:14.297977
36.33847676,-8.779565811,-1.696511269,3.775275946,2024-06-04 14:44:14.338477
36.37896233,-8.761619568,-1.708475351,3.781257868,2024-06-04 14:44:14.378962
36.41944332,-8.765806198,-1.706082582,3.769293785,2024-06-04 14:44:14.419443
36.4599327,-8.780163765,-1.700100541,3.748954773,2024-06-04 14:44:14.459933
36.50041942,-8.783752441,-1.68574357,3.748356581,2024-06-04 14:44:14.500419
36.54094598,-8.787342072,-1.692323804,3.745963812,2024-06-04 14:44:14.540946
36.58142671,-8.771788597,-1.692921996,3.765704632,2024-06-04 14:44:14.581427
36.62191593,-8.761619568,-1.694716692,3.774079561,2024-06-04 14:44:14.621916
36.6624052,-8.764610291,-1.70249331,3.793222189,2024-06-04 14:44:14.662405
36.70285067,-8.76102066,-1.718644857,3.792623997,2024-06-04 14:44:14.702851
36.74338963,-8.772386551,-1.709073544,3.768097401,2024-06-04 14:44:14.743390
36.78390931,-8.771190643,-1.695314884,3.759722471,2024-06-04 14:44:14.783909
36.82434864,-8.772386551,-1.700100541,3.754338741,2024-06-04 14:44:14.824349
36.86483786,-8.780163765,-1.704287887,3.766901016,2024-06-04 14:44:14.864838
36.90531786,-8.759226799,-1.712662816,3.77647233,2024-06-04 14:44:14.905318
36.94581426,-8.756235123,-1.713261008,3.781856298,2024-06-04 14:44:14.945814
36.98630348,-8.772985458,-1.710868239,3.766901016,2024-06-04 14:44:14.986303
37.0267927,-8.765806198,-1.707877159,3.771686792,2024-06-04 14:44:15.026793
37.06729822,-8.761619568,-1.7138592,3.778266907,2024-06-04 14:44:15.067298
37.10777603,-8.752646446,-1.727617979,3.773481369,2024-06-04 14:44:15.107776
37.14828858,-8.771788597,-1.721037745,3.7710886,2024-06-04 14:44:15.148289
37.18880254,-8.758627892,-1.711466432,3.766302824,2024-06-04 14:44:15.188803
37.22926957,-8.777172089,-1.711466432,3.77647233,2024-06-04 14:44:15.229270
37.26977103,-8.7532444,-1.715055585,3.781257868,2024-06-04 14:44:15.269771
37.31027306,-8.787940025,-1.718046665,3.767499208,2024-06-04 14:44:15.310273
37.35076244,-8.769993782,-1.703091502,3.768097401,2024-06-04 14:44:15.350762
37.39125181,-8.785547256,-1.70249331,3.762713671,2024-06-04 14:44:15.391252
37.43174119,-8.762815475,-1.707278967,3.762115479,2024-06-04 14:44:15.431741
37.47221155,-8.77836895,-1.710868239,3.771686792,2024-06-04 14:44:15.472212
37.51267822,-8.766405106,-1.718046665,3.772284985,2024-06-04 14:44:15.512678
37.55315275,-8.765208244,-1.708475351,3.765704632,2024-06-04 14:44:15.553153
37.59363562,-8.776574135,-1.703091502,3.764508247,2024-06-04 14:44:15.593636
37.63414588,-8.762815475,-1.712064624,3.767499208,2024-06-04 14:44:15.634146
37.6746403,-8.783154488,-1.700100541,3.76510644,2024-06-04 14:44:15.674640
37.71513119,-8.764012337,-1.70249331,3.767499208,2024-06-04 14:44:15.715131
37.75562093,-8.773583412,-1.704886079,3.783052683,2024-06-04 14:44:15.755621
37.79613072,-8.759226799,-1.721037745,3.778865099,2024-06-04 14:44:15.796131
37.83655884,-8.776574135,-1.713261008,3.765704632,2024-06-04 14:44:15.836559
37.87704801,-8.766405106,-1.707877159,3.762115479,2024-06-04 14:44:15.877048
37.91756827,-8.77836895,-1.695913076,3.76510644,2024-06-04 14:44:15.917568
37.95811963,-8.776574135,-1.695314884,3.761517286,2024-06-04 14:44:15.958120
37.99856562,-8.764610291,-1.700100541,3.763910055,2024-06-04 14:44:15.998566
38.03906077,-8.769993782,-1.711466432,3.769891977,2024-06-04 14:44:16.039061
38.0795276,-8.780163765,-1.709073544,3.779463291,2024-06-04 14:44:16.079528
38.11999911,-8.776574135,-1.710868239,3.758526087,2024-06-04 14:44:16.119999
38.16052572,-8.762217522,-1.709671736,3.77049017,2024-06-04 14:44:16.160526
38.20101353,-8.775976181,-1.719841242,3.772883177,2024-06-04 14:44:16.201014
38.24150421,-8.77059269,-1.704287887,3.7710886,2024-06-04 14:44:16.241504
38.2819939,-8.777770996,-1.70548439,3.766901016,2024-06-04 14:44:16.281994
38.32244416,-8.762217522,-1.7138592,3.759124279,2024-06-04 14:44:16.322444
38.36296155,-8.763413429,-1.715653777,3.771686792,2024-06-04 14:44:16.362962
38.4034303,-8.782556534,-1.706680775,3.774079561,2024-06-04 14:44:16.403430
38.44393103,-8.767003059,-1.704287887,3.755535126,2024-06-04 14:44:16.443931
38.48442046,-8.76102066,-1.708475351,3.774677753,2024-06-04 14:44:16.484420
38.52490999,-8.766405106,-1.72223413,3.777668715,2024-06-04 14:44:16.524910
38.56539155,-8.764012337,-1.72223413,3.760919094,2024-06-04 14:44:16.565392
38.6058902,-8.771788597,-1.694716692,3.759722471,2024-06-04 14:44:16.605890
38.64642947,-8.767601013,-1.697707653,3.759124279,2024-06-04 14:44:16.646429
38.68693952,-8.779565811,-1.694118381,3.765704632,2024-06-04 14:44:16.686940
38.72740218,-8.768797874,-1.698305845,3.775275946,2024-06-04 14:44:16.727402
38.76786577,-8.767601013,-1.709671736,3.763311863,2024-06-04 14:44:16.767866
38.80834869,-8.766405106,-1.704287887,3.775275946,2024-06-04 14:44:16.808349
38.84883384,-8.765208244,-1.706082582,3.777668715,2024-06-04 14:44:16.848834
38.88931812,-8.790332794,-1.716850281,3.762713671,2024-06-04 14:44:16.889318
38.92981692,-8.768199921,-1.70249331,3.753740549,2024-06-04 14:44:16.929817
38.9703164,-8.762815475,-1.696511269,3.768097401,2024-06-04 14:44:16.970316
39.01080124,-8.787342072,-1.706082582,3.768695593,2024-06-04 14:44:17.010801
39.05128817,-8.77836895,-1.69950223,3.780061483,2024-06-04 14:44:17.051288
39.09178239,-8.764012337,-1.709671736,3.767499208,2024-06-04 14:44:17.091782
39.13229077,-8.762217522,-1.713261008,3.769891977,2024-06-04 14:44:17.132291
39.1727751,-8.779565811,-1.716850281,3.777070522,2024-06-04 14:44:17.172775
39.21324817,-8.771190643,-1.711466432,3.764508247,2024-06-04 14:44:17.213248
39.25373358,-8.776574135,-1.700698733,3.773481369,2024-06-04 14:44:17.253734
39.29419801,-8.759226799,-1.709073544,3.780061483,2024-06-04 14:44:17.294198
39.33468286,-8.764610291,-1.711466432,3.787838221,2024-06-04 14:44:17.334683
39.37517207,-8.77059269,-1.711466432,3.755535126,2024-06-04 14:44:17.375172
39.41566135,-8.768797874,-1.684547186,3.755535126,2024-06-04 14:44:17.415661
39.45619041,-8.762815475,-1.698904037,3.746562004,2024-06-04 14:44:17.456190
39.49667963,-8.768797874,-1.712064624,3.77647233,2024-06-04 14:44:17.496680
39.53710207,-8.771190643,-1.707877159,3.762713671,2024-06-04 14:44:17.537102
39.57772947,-8.749056816,-1.707877159,3.786641836,2024-06-04 14:44:17.577729
39.61814041,-8.792127609,-1.73060894,3.778266907,2024-06-04 14:44:17.618140
39.65863244,-8.785547256,-1.734796405,3.775275946,2024-06-04 14:44:17.658632
39.69913869,-8.756235123,-1.721037745,3.763311863,2024-06-04 14:44:17.699139
39.7396116,-8.761619568,-1.697109461,3.77049017,2024-06-04 14:44:17.739612
39.78011301,-8.780761719,-1.721037745,3.756133318,2024-06-04 14:44:17.780113
39.82060265,-8.780163765,-1.716252089,3.767499208,2024-06-04 14:44:17.820603
39.86109233,-8.750851631,-1.716252089,3.779463291,2024-06-04 14:44:17.861092
39.90158192,-8.773583412,-1.735992789,3.769293785,2024-06-04 14:44:17.901582
39.94204827,-8.769395828,-1.727617979,3.777668715,2024-06-04 14:44:17.942048
39.98253791,-8.774181366,-1.721635938,3.774677753,2024-06-04 14:44:17.982538
40.02302754,-8.769993782,-1.71924305,3.7710886,2024-06-04 14:44:18.023028
40.06351567,-8.766405106,-1.715653777,3.759124279,2024-06-04 14:44:18.063516
40.10401015,-8.751449585,-1.731207132,3.780061483,2024-06-04 14:44:18.104010
40.1445277,-8.767003059,-1.729412556,3.754936934,2024-06-04 14:44:18.144528
40.18501134,-8.759226799,-1.703091502,3.760320902,2024-06-04 14:44:18.185011
40.22548687,-8.77836895,-1.721037745,3.769891977,2024-06-04 14:44:18.225487
40.26599291,-8.758029938,-1.70548439,3.782454491,2024-06-04 14:44:18.265993
40.30647671,-8.765806198,-1.728216171,3.763910055,2024-06-04 14:44:18.306477
40.34693317,-8.768797874,-1.716252089,3.769293785,2024-06-04 14:44:18.346933
40.38741994,-8.762217522,-1.716850281,3.7710886,2024-06-04 14:44:18.387420
40.42793082,-8.780761719,-1.731207132,3.777668715,2024-06-04 14:44:18.427931
40.46845046,-8.760422707,-1.719841242,3.769293785,2024-06-04 14:44:18.468450
40.50892218,-8.768199921,-1.716850281,3.779463291,2024-06-04 14:44:18.508922
40.54939108,-8.760422707,-1.716850281,3.773481369,2024-06-04 14:44:18.549391
40.58989541,-8.761619568,-1.719841242,3.766302824,2024-06-04 14:44:18.589895
40.63036874,-8.77477932,-1.703689694,3.772284985,2024-06-04 14:44:18.630369
40.67086801,-8.778966904,-1.725823283,3.763910055,2024-06-04 14:44:18.670868
40.71139062,-8.793922424,-1.750648856,3.767499208,2024-06-04 14:44:18.711391
40.75187082,-8.769395828,-1.709073544,3.778266907,2024-06-04 14:44:18.751871
40.79232947,-8.806484222,-1.716850281,3.695116282,2024-06-04 14:44:18.792329
40.83281036,-8.83220768,-1.6713866,3.648456335,2024-06-04 14:44:18.832810
40.87329775,-8.658429146,-1.66600275,3.73160696,2024-06-04 14:44:18.873298
40.91378697,-8.720342636,-1.76859498,3.828516245,2024-06-04 14:44:18.913787
40.95429306,-8.78973484,-1.758425593,3.802195072,2024-06-04 14:44:18.954293
40.99478228,-8.783752441,-1.751247048,3.79621315,2024-06-04 14:44:18.994782
41.03527155,-8.796913147,-1.756032705,3.780061483,2024-06-04 14:44:19.035272
41.07573265,-8.768797874,-1.647458434,3.851846218,2024-06-04 14:44:19.075733
41.11630525,-8.793922424,-1.657029629,3.753142357,2024-06-04 14:44:19.116305
41.15678676,-8.754440308,-1.543370605,3.661616802,2024-06-04 14:44:19.156787
41.19725681,-8.815457344,-1.666600943,3.641875982,2024-06-04 14:44:19.197257
41.23773306,-8.769993782,-1.893620014,3.707080364,2024-06-04 14:44:19.237733
41.27823921,-8.804690361,-1.869691849,3.781257868,2024-06-04 14:44:19.278239
41.31871681,-8.824430466,-1.754238129,3.735196114,2024-06-04 14:44:19.318717
41.3591977,-8.762217522,-1.629512191,3.813561201,2024-06-04 14:44:19.359198
41.39969629,-8.751449585,-1.567298889,3.822534084,2024-06-04 14:44:19.399696
41.44018588,-8.759226799,-1.693520188,3.798605919,2024-06-04 14:44:19.440186
41.48067603,-8.673383713,-1.719841242,3.748356581,2024-06-04 14:44:19.480676
41.52116312,-8.814261436,-1.676172256,3.747160196,2024-06-04 14:44:19.521163
41.56169197,-8.80708313,-1.713261008,3.681357622,2024-06-04 14:44:19.561692
41.60218884,-8.831010818,-1.727617979,3.678366661,2024-06-04 14:44:19.602189
41.64264478,-8.850751877,-1.794916034,3.772284985,2024-06-04 14:44:19.642645
41.68312244,-8.768199921,-1.787737608,3.829712629,2024-06-04 14:44:19.683122
41.72365134,-8.665607452,-1.570888042,3.790829182,2024-06-04 14:44:19.723651
41.76412515,-8.74187851,-1.594218135,3.77049017,2024-06-04 14:44:19.764125
41.80459697,-8.722137451,-1.685145378,3.775275946,2024-06-04 14:44:19.804597
41.84508619,-8.881858826,-1.787139416,3.678366661,2024-06-04 14:44:19.845086
41.88557536,-8.884849548,-1.867897153,3.672384501,2024-06-04 14:44:19.885575
41.92606093,-8.765208244,-1.701895118,3.77049017,2024-06-04 14:44:19.926061
41.96654286,-8.727521896,-1.490728498,3.729214191,2024-06-04 14:44:19.966543
42.00703515,-8.717351913,-1.628913999,3.735196114,2024-06-04 14:44:20.007035
42.04753036,-8.759226799,-1.769193292,3.802195072,2024-06-04 14:44:20.047530
42.08802614,-8.810073853,-1.887039781,3.750749588,2024-06-04 14:44:20.088026
42.12850187,-8.858528137,-1.83619225,3.734597921,2024-06-04 14:44:20.128502
42.16897812,-8.750253677,-1.615155339,3.726222992,2024-06-04 14:44:20.168978
42.20948608,-8.681758881,-1.461117268,3.757927895,2024-06-04 14:44:20.209486
42.24997478,-8.747262001,-1.65164578,3.728615999,2024-06-04 14:44:20.249975
42.29049864,-8.807681084,-1.843370795,3.7256248,2024-06-04 14:44:20.290499
42.33098832,-8.86869812,-1.951047778,3.73699069,2024-06-04 14:44:20.330988
42.37147801,-8.81485939,-1.823629975,3.742374659,2024-06-04 14:44:20.371478
42.41196775,-8.703593254,-1.560718536,3.752544165,2024-06-04 14:44:20.411968
42.45245744,-8.742476463,-1.534397483,3.713062525,2024-06-04 14:44:20.452457
42.49294713,-8.763413429,-1.718644857,3.707678795,2024-06-04 14:44:20.492947
42.5333789,-8.851349831,-1.865504384,3.708875179,2024-06-04 14:44:20.533379
42.57386312,-8.848957062,-1.861915112,3.712464333,2024-06-04 14:44:20.573863
42.61441588,-8.78195858,-1.687538147,3.758526087,2024-06-04 14:44:20.614416
42.65485504,-8.692526817,-1.515254974,3.7710886,2024-06-04 14:44:20.654855
42.6953428,-8.725129128,-1.674975872,3.769293785,2024-06-04 14:44:20.695343
42.7358376,-8.802895546,-1.830808401,3.73699069,2024-06-04 14:44:20.735838
42.77640322,-8.864510536,-1.896012783,3.723830223,2024-06-04 14:44:20.776403
42.81684525,-8.769395828,-1.769193292,3.745963812,2024-06-04 14:44:20.816845
42.85731072,-8.696713448,-1.491924882,3.769293785,2024-06-04 14:44:20.857311
42.8978314,-8.747860909,-1.58703959,3.747160196,2024-06-04 14:44:20.897831
42.93833728,-8.777172089,-1.775175333,3.70050025,2024-06-04 14:44:20.938337
42.97878457,-8.874081612,-1.906182289,3.682554007,2024-06-04 14:44:20.978785
43.01926713,-8.842975616,-1.878066659,3.741178274,2024-06-04 14:44:21.019267
43.05977384,-8.728717804,-1.666600943,3.793820381,2024-06-04 14:44:21.059774
43.100249,-8.689535141,-1.497906923,3.764508247,2024-06-04 14:44:21.100249
43.14077905,-8.736495018,-1.649253011,3.750749588,2024-06-04 14:44:21.140779
43.18124681,-8.790931702,-1.811067581,3.690928936,2024-06-04 14:44:21.181247
43.22172062,-8.880064011,-1.854138494,3.742972851,2024-06-04 14:44:21.221721
43.2622177,-8.816654205,-1.757827282,3.681357622,2024-06-04 14:44:21.262218
43.30270577,-8.787940025,-1.660618901,3.740580082,2024-06-04 14:44:21.302706
43.34318046,-8.684151649,-1.562513232,3.786641836,2024-06-04 14:44:21.343180
43.38366015,-8.767601013,-1.649253011,3.793820381,2024-06-04 14:44:21.383660
43.42416322,-8.749056816,-1.797308922,3.716651678,2024-06-04 14:44:21.424163
43.46465067,-8.869894028,-1.869093537,3.723232031,2024-06-04 14:44:21.464651
43.50513848,-8.801698685,-1.811067581,3.707080364,2024-06-04 14:44:21.505138
43.54563067,-8.800502777,-1.676770449,3.766302824,2024-06-04 14:44:21.545631
43.5861341,-8.690732002,-1.536192179,3.781257868,2024-06-04 14:44:21.586134
43.62667473,-8.738887787,-1.665404558,3.780659676,2024-06-04 14:44:21.626675
43.66718202,-8.790332794,-1.820040703,3.71186614,2024-06-04 14:44:21.667182
43.70762369,-8.856135368,-1.857727647,3.729812384,2024-06-04 14:44:21.707624
43.74809874,-8.793922424,-1.759621978,3.71186614,2024-06-04 14:44:21.748099
43.78858624,-8.800502777,-1.636690736,3.737588882,2024-06-04 14:44:21.788586
43.82910582,-8.661419868,-1.560120344,3.76510644,2024-06-04 14:44:21.829106
43.86959478,-8.778966904,-1.677368641,3.790829182,2024-06-04 14:44:21.869595
43.91004301,-8.766405106,-1.819442511,3.713062525,2024-06-04 14:44:21.910043
43.95052608,-8.851948738,-1.837986946,3.741776466,2024-06-04 14:44:21.950526
43.9910228,-8.758627892,-1.727617979,3.739383698,2024-06-04 14:44:21.991023
44.0315089,-8.801698685,-1.653440475,3.734597921,2024-06-04 14:44:22.031509
44.07198733,-8.75683403,-1.652842283,3.735794306,2024-06-04 14:44:22.071987
44.1125702,-8.750851631,-1.734796405,3.758526087,2024-06-04 14:44:22.112570
44.15302119,-8.776574135,-1.744666815,3.742972851,2024-06-04 14:44:22.153021
44.19347072,-8.787342072,-1.728216171,3.748356581,2024-06-04 14:44:22.193471
44.2339764,-8.794520378,-1.693520188,3.749552965,2024-06-04 14:44:22.233976
44.27445968,-8.778966904,-1.712064624,3.722633839,2024-06-04 14:44:22.274460
44.31494905,-8.793324471,-1.726421595,3.753142357,2024-06-04 14:44:22.314949
44.35543843,-8.746066093,-1.748256087,3.73160696,2024-06-04 14:44:22.355438
44.39592838,-8.80708313,-1.7138592,3.755535126,2024-06-04 14:44:22.395928
44.43641822,-8.768797874,-1.719841242,3.750151396,2024-06-04 14:44:22.436418
44.47690786,-8.754440308,-1.729412556,3.748356581,2024-06-04 14:44:22.476908
44.51738067,-8.759824753,-1.725225091,3.750749588,2024-06-04 14:44:22.517381
44.5578627,-8.780163765,-1.732403636,3.759124279,2024-06-04 14:44:22.557863
44.59836004,-8.778966904,-1.724626899,3.755535126,2024-06-04 14:44:22.598360
44.63885733,-8.771788597,-1.738385677,3.750151396,2024-06-04 14:44:22.638857
44.67935025,-8.769993782,-1.731207132,3.759124279,2024-06-04 14:44:22.679350
44.71985317,-8.772386551,-1.748256087,3.750151396,2024-06-04 14:44:22.719853
44.76033098,-8.769993782,-1.742274046,3.764508247,2024-06-04 14:44:22.760331
44.80084077,-8.750851631,-1.735992789,3.763311863,2024-06-04 14:44:22.800841
44.84133067,-8.753842354,-1.735394597,3.768097401,2024-06-04 14:44:22.841331
44.88182056,-8.77836895,-1.742872238,3.765704632,2024-06-04 14:44:22.881821
44.92231385,-8.758029938,-1.73360002,3.762115479,2024-06-04 14:44:22.922314
44.96281046,-8.771190643,-1.72223413,3.765704632,2024-06-04 14:44:22.962810
45.00328931,-8.752646446,-1.739881158,3.767499208,2024-06-04 14:44:23.003289
45.04375713,-8.767601013,-1.739881158,3.751945972,2024-06-04 14:44:23.043757
45.08425796,-8.772985458,-1.729412556,3.753740549,2024-06-04 14:44:23.084258
45.12472338,-8.784949303,-1.731207132,3.755535126,2024-06-04 14:44:23.124723
45.16527843,-8.758627892,-1.726421595,3.756133318,2024-06-04 14:44:23.165278
45.20571239,-8.773583412,-1.728814363,3.772883177,2024-06-04 14:44:23.205712
45.24624614,-8.776574135,-1.745265007,3.764508247,2024-06-04 14:44:23.246246
45.28677135,-8.773583412,-1.730010748,3.762713671,2024-06-04 14:44:23.286771
45.32726119,-8.772985458,-1.731207132,3.749552965,2024-06-04 14:44:23.327261
45.36768431,-8.768199921,-1.731207132,3.751945972,2024-06-04 14:44:23.367684
45.40819676,-8.775976181,-1.721037745,3.749552965,2024-06-04 14:44:23.408197
45.44868749,-8.760422707,-1.73898387,3.764508247,2024-06-04 14:44:23.448687
45.48916702,-8.783752441,-1.734198213,3.765704632,2024-06-04 14:44:23.489167
45.52962291,-8.768199921,-1.736590981,3.755535126,2024-06-04 14:44:23.529623
45.57013827,-8.768797874,-1.723430514,3.766302824,2024-06-04 14:44:23.570138
45.61067301,-8.747262001,-1.738385677,3.755535126,2024-06-04 14:44:23.610673
45.65111869,-8.769993782,-1.744068623,3.766302824,2024-06-04 14:44:23.651119
45.69165056,-8.768199921,-1.739881158,3.742972851,2024-06-04 14:44:23.691651
45.73212739,-8.776574135,-1.73060894,3.752544165,2024-06-04 14:44:23.732127
45.77262187,-8.757431984,-1.728814363,3.756133318,2024-06-04 14:44:23.772622
45.8130828,-8.750253677,-1.721635938,3.77049017,2024-06-04 14:44:23.813083
45.85355806,-8.768199921,-1.716252089,3.768097401,2024-06-04 14:44:23.853558
45.89404775,-8.832805634,-1.732403636,3.767499208,2024-06-04 14:44:23.894048
45.93456286,-8.738288879,-1.808674812,3.777070522,2024-06-04 14:44:23.934563
45.97506525,-8.758029938,-1.73060894,3.786641836,2024-06-04 14:44:23.975065
46.01555546,-8.853144646,-1.676172256,3.665206194,2024-06-04 14:44:24.015555
46.05602525,-8.719146729,-1.600200176,3.780061483,2024-06-04 14:44:24.056025
46.09648119,-8.749056816,-1.761416554,3.769293785,2024-06-04 14:44:24.096481
46.13699025,-8.729914665,-1.817647934,3.754338741,2024-06-04 14:44:24.136990
46.177489,-8.807681084,-1.846361756,3.689134359,2024-06-04 14:44:24.177489
46.21797556,-8.819046974,-1.811665893,3.672982693,2024-06-04 14:44:24.217976
46.25846463,-8.872286797,-1.810469389,3.629313707,2024-06-04 14:44:24.258465
46.29895301,-8.690732002,-1.622333765,3.75134778,2024-06-04 14:44:24.298953
46.33943952,-8.751449585,-1.627717614,3.738187075,2024-06-04 14:44:24.339440
46.37991129,-8.759226799,-1.692323804,3.752544165,2024-06-04 14:44:24.379911
46.42041801,-8.825029373,-1.829612017,3.740580082,2024-06-04 14:44:24.420418
46.46090754,-8.808876991,-1.89242363,3.739383698,2024-06-04 14:44:24.460908
46.50139655,-8.601000786,-1.701296926,3.89043045,2024-06-04 14:44:24.501397
46.54186983,-8.66680336,-1.63489604,3.892823458,2024-06-04 14:44:24.541870
46.58237426,-8.900403023,-1.760818362,3.689134359,2024-06-04 14:44:24.582374
46.62287452,-9.047262192,-1.822433591,3.25005126,2024-06-04 14:44:24.622875
46.66335416,-8.947062492,-1.718046665,3.090330362,2024-06-04 14:44:24.663354
46.70389181,-9.256933212,-0.931705296,3.596711636,2024-06-04 14:44:24.703892
46.74437728,-8.690732002,0.5096712112,3.981357813,2024-06-04 14:44:24.744377
46.78485176,-7.31515789,0.5312066078,5.340181828,2024-06-04 14:44:24.784852
46.82529765,-8.406285286,-0.9161519408,5.114359379,2024-06-04 14:44:24.825298
46.86579822,-9.449555397,-1.965404749,2.336292267,2024-06-04 14:44:24.865798
46.90628754,-11.80678558,-0.3843471408,1.852343798,2024-06-04 14:44:24.906288
46.94680671,-9.463912964,-2.367997169,1.753639936,2024-06-04 14:44:24.946807
46.98726072,-8.737690926,-3.095116138,2.096112728,2024-06-04 14:44:24.987261
47.0277603,-8.352446556,-4.268197536,1.724626899,2024-06-04 14:44:25.027760
47.06827353,-9.403493881,-5.552245617,0.8012964725,2024-06-04 14:44:25.068274
47.10877827,-9.440582275,-3.26979208,0.9876375198,2024-06-04 14:44:25.108778
47.14924244,-10.10548782,-3.304488182,1.939681888,2024-06-04 14:44:25.149242
47.18971858,-9.720842361,-2.643470764,2.799602509,2024-06-04 14:44:25.189719
47.23021254,-8.877671242,-1.758425593,3.672982693,2024-06-04 14:44:25.230213
47.27072077,-8.554341316,-0.4612165689,4.816751957,2024-06-04 14:44:25.270721
47.31121869,-8.855537415,0.1755733639,4.440779686,2024-06-04 14:44:25.311219
47.35167306,-9.081359863,0.3939184248,3.647858143,2024-06-04 14:44:25.351673
47.3921451,-8.873483658,1.089332461,4.108775616,2024-06-04 14:44:25.392145
47.43264603,-8.540582657,0.6924230456,3.656831264,2024-06-04 14:44:25.432646
47.4731414,-8.141578674,1.019940615,3.54706049,2024-06-04 14:44:25.473141
47.51362546,-7.995018482,0.9960124493,3.496811152,2024-06-04 14:44:25.513625
47.55411869,-8.346464157,0.5264210105,3.135195971,2024-06-04 14:44:25.554119
47.59463593,-8.811868668,0.4552344978,3.318845034,2024-06-04 14:44:25.594636
47.63516124,-9.597611427,0.2371885478,2.302194595,2024-06-04 14:44:25.635161
47.67564556,-9.577870369,0.123828575,2.440380096,2024-06-04 14:44:25.675646
47.71611312,-9.453742981,-0.1683948934,3.151347399,2024-06-04 14:44:25.716113
47.75661499,-8.66680336,-1.050449133,3.913760424,2024-06-04 14:44:25.756615
47.79707874,-7.574480057,-0.5335994363,4.025625229,2024-06-04 14:44:25.797079
47.83756671,-9.165707588,-0.5072783828,4.255635262,2024-06-04 14:44:25.837567
47.87807921,-9.183054924,-1.08335042,4.281956196,2024-06-04 14:44:25.878079
47.91856405,-7.875676632,-1.481157184,4.19282341,2024-06-04 14:44:25.918564
47.95906619,-7.866105556,-1.17068851,3.566203117,2024-06-04 14:44:25.959066
47.9995178,-9.260522842,0.1250249892,4.523930073,2024-06-04 14:44:25.999518
48.04002265,-10.277771,0.8772686124,3.532105207,2024-06-04 14:44:26.040023
48.0805052,-9.141778946,-0.6358926296,3.651447296,2024-06-04 14:44:26.080505
48.12100187,-8.620741844,0.2198405862,3.039183855,2024-06-04 14:44:26.121002
48.16151452,-9.193822861,0.2659024298,3.119044304,2024-06-04 14:44:26.161515
48.2019691,-8.365009308,0.6550351977,3.404687405,2024-06-04 14:44:26.201969
48.24252364,-9.693922997,0.6924230456,3.792623997,2024-06-04 14:44:26.242524
48.28296942,-12.00688457,-0.9334999323,3.402892828,2024-06-04 14:44:26.282969
48.32345921,-9.846165657,-1.383350611,2.591426849,2024-06-04 14:44:26.323459
48.36394905,-8.635697365,-1.516451359,0.2138585299,2024-06-04 14:44:26.363949
48.40440166,-10.43180943,-1.652244091,1.691127419,2024-06-04 14:44:26.404402
48.44487885,-10.24008465,-3.053540707,1.049850941,2024-06-04 14:44:26.444879
48.48536864,-7.496713161,-3.350250721,1.45633173,2024-06-04 14:44:26.485369
48.52585848,-7.920841217,-4.794020176,0.5958128572,2024-06-04 14:44:26.525858
48.5663777,-9.481859207,-3.825525284,0.3107678294,2024-06-04 14:44:26.566378
48.60687786,-10.07438183,-2.985943556,1.563709617,2024-06-04 14:44:26.606878
48.64736952,-10.77428246,-3.082553864,2.087139606,2024-06-04 14:44:26.647370
48.68785228,-9.754940033,-1.120439172,2.859722137,2024-06-04 14:44:26.687852
48.72832244,-7.955537319,0.2958126962,3.393919706,2024-06-04 14:44:26.728322
48.76882483,-8.366803169,0.3394817114,3.602095366,2024-06-04 14:44:26.768825
48.80930645,-8.551948547,0.5180460811,4.188635826,2024-06-04 14:44:26.809306
48.84978713,-9.062217712,0.97926265,3.231507063,2024-06-04 14:44:26.849787
48.89027666,-9.208778381,0.3592225015,3.737588882,2024-06-04 14:44:26.890277
48.9308151,-8.365607262,-0.3394817114,2.830410004,2024-06-04 14:44:26.930815
48.97132905,-8.612366676,-1.039083242,3.362813234,2024-06-04 14:44:26.971329
49.01181853,-9.249156952,-1.257129192,3.548256874,2024-06-04 14:44:27.011819
49.05228062,-9.218349457,-1.252941728,3.728017569,2024-06-04 14:44:27.052281
49.09274207,-9.143573761,-1.246361494,2.999702215,2024-06-04 14:44:27.092742
49.13327562,-9.335298538,-1.106680512,3.674179077,2024-06-04 14:44:27.133276
49.17373666,-9.645467758,-1.204487085,3.332603693,2024-06-04 14:44:27.173737
49.21421233,-8.408678055,-0.7055835724,3.655036688,2024-06-04 14:44:27.214212
49.25472202,-8.484351158,-0.8270193338,4.110570431,2024-06-04 14:44:27.254722
49.29523468,-9.163912773,-1.532004714,3.545864105,2024-06-04 14:44:27.295235
49.33572395,-9.1423769,-1.748256087,3.71186614,2024-06-04 14:44:27.335724
49.37616192,-8.810671806,-1.625923038,3.521337509,2024-06-04 14:44:27.376162
49.41665108,-8.654241562,-1.191027522,3.723232031,2024-06-04 14:44:27.416651
49.45714036,-8.862117767,-1.116251707,4.03100872,2024-06-04 14:44:27.457140
49.4976464,-8.938688278,-1.117448211,3.618546009,2024-06-04 14:44:27.497646
49.53813562,-8.768797874,-1.059422255,3.597309828,2024-06-04 14:44:27.538136
49.57865077,-8.884251595,-0.9918249846,3.662813187,2024-06-04 14:44:27.578651
49.61909713,-8.946464539,-1.30139637,3.740580082,2024-06-04 14:44:27.619097
49.65959921,-8.822636604,-1.299601793,3.923331738,2024-06-04 14:44:27.659599
49.70008853,-8.765208244,-1.161715388,4.057330132,2024-06-04 14:44:27.700089
49.74054791,-8.680562019,-1.05822587,3.848257065,2024-06-04 14:44:27.740548
49.78107713,-8.698807716,-1.138983607,3.644867182,2024-06-04 14:44:27.781077
49.8215665,-9.168698311,-1.047458172,4.063312054,2024-06-04 14:44:27.821567
49.86205593,-9.020941734,-0.8880363107,3.19382,2024-06-04 14:44:27.862056
49.9025453,-8.676973343,-1.143171072,3.897608995,2024-06-04 14:44:27.902545
49.94300905,-9.050851822,-1.327119231,3.972384691,2024-06-04 14:44:27.943009
49.98350707,-8.67039299,-0.8569296002,3.762115479,2024-06-04 14:44:27.983507
50.0239964,-8.690732002,-0.737288475,3.797409534,2024-06-04 14:44:28.023996
50.06448072,-9.013762474,-0.9954141974,4.096811295,2024-06-04 14:44:28.064481
50.10498093,-8.71675396,-1.173679471,4.375276089,2024-06-04 14:44:28.104981
50.14549869,-8.333304405,-1.247557878,4.422833443,2024-06-04 14:44:28.145499
50.18600176,-8.523234367,-1.132403374,4.144668102,2024-06-04 14:44:28.186002
50.22650676,-8.787342072,-1.246361494,3.948456526,2024-06-04 14:44:28.226507
50.26698723,-8.645866394,-1.296610713,4.12073946,2024-06-04 14:44:28.266987
50.30745197,-8.592626572,-1.033101201,4.053142548,2024-06-04 14:44:28.307452
50.34790655,-8.608778,-1.089930773,4.044169426,2024-06-04 14:44:28.347907
50.38840931,-9.056235313,-1.287039518,3.981956005,2024-06-04 14:44:28.388409
50.42892666,-9.03828907,-1.361815214,3.865006685,2024-06-04 14:44:28.428927
50.46940744,-8.272287369,-0.913759172,4.165904045,2024-06-04 14:44:28.469407
50.50988978,-8.714361191,-1.241575837,4.110570431,2024-06-04 14:44:28.509890
50.55036582,-8.746066093,-1.38873446,4.002892971,2024-06-04 14:44:28.550366
50.5908551,-8.286643982,-1.297807217,4.658526421,2024-06-04 14:44:28.590855
50.63136546,-9.274281502,-1.276870012,3.678366661,2024-06-04 14:44:28.631365
50.67187884,-9.187840462,-1.711466432,3.888635874,2024-06-04 14:44:28.671879
50.71235494,-8.595019341,-1.453938842,3.885644913,2024-06-04 14:44:28.712355
50.7528478,-8.813663483,-1.401894927,4.061517239,2024-06-04 14:44:28.752848
50.79331733,-8.548956871,-1.387538075,4.314857483,2024-06-04 14:44:28.793317
50.83377655,-8.629714966,-1.33788693,4.121936321,2024-06-04 14:44:28.833777
50.87429608,-8.75683403,-1.398903966,4.099204063,2024-06-04 14:44:28.874296
50.91478593,-8.582456589,-1.533799291,4.165306091,2024-06-04 14:44:28.914786
50.95525562,-8.563314438,-1.416251898,4.281956196,2024-06-04 14:44:28.955256
50.99573681,-8.593822479,-1.546959877,4.323830605,2024-06-04 14:44:28.995737
51.03619343,-8.613563538,-1.446760416,4.077070713,2024-06-04 14:44:29.036193
51.07671733,-8.906385422,-1.224826097,3.956831455,2024-06-04 14:44:29.076717
51.11725187,-8.697610855,-1.444367528,3.952045679,2024-06-04 14:44:29.117252
51.15775885,-8.660821915,-1.351047516,4.013660908,2024-06-04 14:44:29.157759
51.19822046,-8.652446747,-1.348056436,4.165904045,2024-06-04 14:44:29.198220
51.23875223,-8.694320679,-1.409671664,4.130908966,2024-06-04 14:44:29.238752
51.27923249,-8.68774128,-1.418644667,4.114159584,2024-06-04 14:44:29.279232
51.3197227,-8.63390255,-1.410269856,4.15633297,2024-06-04 14:44:29.319723
51.36021286,-8.623134613,-1.33788693,4.16710043,2024-06-04 14:44:29.360213
51.40070306,-8.574081421,-1.339083314,4.151547432,2024-06-04 14:44:29.400703
51.44119327,-8.722735405,-1.439581871,4.206582069,2024-06-04 14:44:29.441193
51.48168343,-8.816654205,-1.463510156,4.08484745,2024-06-04 14:44:29.481683
51.52217364,-8.520841599,-1.38873446,4.123132706,2024-06-04 14:44:29.522174
51.5626189,-8.668598175,-1.423430324,4.240679741,2024-06-04 14:44:29.562619
51.60313718,-8.522037506,-1.346261859,4.23230505,2024-06-04 14:44:29.603137
51.64362129,-8.544171333,-1.370788217,4.242474556,2024-06-04 14:44:29.643621
51.68409666,-8.684749603,-1.407278776,4.215555191,2024-06-04 14:44:29.684097
51.72460858,-8.489136696,-1.422233939,4.278367043,2024-06-04 14:44:29.724609
51.76509004,-8.729914665,-1.39710927,4.135694981,2024-06-04 14:44:29.765090
51.8055576,-8.854341507,-1.296610713,3.962215185,2024-06-04 14:44:29.805558
51.84602499,-8.686544418,-1.336690545,3.903591156,2024-06-04 14:44:29.846025
51.88652077,-8.834600449,-1.44496572,4.009473324,2024-06-04 14:44:29.886521
51.92701671,-8.862715721,-1.47756803,4.025625229,2024-06-04 14:44:29.927017
51.96751999,-8.670990944,-1.355234981,4.111766815,2024-06-04 14:44:29.967520
52.00802624,-8.502895355,-1.303789258,4.217350006,2024-06-04 14:44:30.008026
52.04854572,-8.476573944,-1.281057477,4.377070904,2024-06-04 14:44:30.048546
52.08903806,-8.562117577,-1.41685009,4.2574296,2024-06-04 14:44:30.089038
52.12946926,-8.599804878,-1.51944232,4.211966038,2024-06-04 14:44:30.129469
52.16995885,-8.686544418,-1.473978758,4.205984116,2024-06-04 14:44:30.169959
52.21044884,-8.71316433,-1.453938842,4.177868366,2024-06-04 14:44:30.210449
52.25093848,-8.734101295,-1.380957723,4.141676903,2024-06-04 14:44:30.250938
52.29148895,-8.633303642,-1.343868971,4.247858524,2024-06-04 14:44:30.291489
52.33197916,-8.234002113,-1.301994562,4.508975029,2024-06-04 14:44:30.331979
52.37246942,-8.372187614,-1.379761338,4.50957346,2024-06-04 14:44:30.372469
52.41290202,-8.777770996,-1.348056436,4.139882088,2024-06-04 14:44:30.412902
52.45340723,-8.685946465,-1.361217022,3.947260141,2024-06-04 14:44:30.453407
52.49388213,-8.850153923,-1.406680584,3.967000723,2024-06-04 14:44:30.493882
52.53438286,-8.800502777,-1.331306696,3.944268942,2024-06-04 14:44:30.534383
52.57493275,-8.653642654,-1.294217944,3.924528122,2024-06-04 14:44:30.574933
52.61534765,-8.744869232,-1.325922847,3.975375652,2024-06-04 14:44:30.615348
52.65584718,-8.77477932,-1.397707582,4.07049036,2024-06-04 14:44:30.655847
52.69639343,-8.639883995,-1.497308731,4.265804768,2024-06-04 14:44:30.696393
52.73684635,-8.548956871,-1.516451359,4.326821327,2024-06-04 14:44:30.736846
52.77733124,-8.571090698,-1.458724499,4.235894203,2024-06-04 14:44:30.777331
52.81779588,-8.648857117,-1.432403445,4.162314892,2024-06-04 14:44:30.817796
52.85830786,-8.615358353,-1.394118309,4.07348156,2024-06-04 14:44:30.858308
52.89880421,-8.664410591,-1.400698543,4.081856251,2024-06-04 14:44:30.898804
52.93926119,-8.747860909,-1.435394526,4.076472282,2024-06-04 14:44:30.939261
52.97976249,-8.698209763,-1.431805253,4.085445404,2024-06-04 14:44:30.979762
53.02025108,-8.673981667,-1.409671664,4.105186462,2024-06-04 14:44:31.020251
53.06073004,-8.664410591,-1.377966762,4.066901207,2024-06-04 14:44:31.060730
53.10123739,-8.658429146,-1.314556956,3.858426571,2024-06-04 14:44:31.101237
53.14171864,-8.690134048,-1.399502158,4.051946163,2024-06-04 14:44:31.141719
53.18221301,-8.578866959,-1.446162224,4.395615101,2024-06-04 14:44:31.182213
53.22275374,-8.434102058,-1.518844128,4.418047905,2024-06-04 14:44:31.222754
53.2632228,-8.609375954,-1.563111424,4.374678135,2024-06-04 14:44:31.263223
53.303689,-8.698209763,-1.569691658,4.339384079,2024-06-04 14:44:31.303689
53.34417489,-8.635697365,-1.57028985,4.262215137,2024-06-04 14:44:31.344175
53.38466452,-8.638090134,-1.431805253,4.04476738,2024-06-04 14:44:31.384665
53.42515416,-8.747860909,-1.382752419,3.894618034,2024-06-04 14:44:31.425154
53.46564374,-8.785547256,-1.333699465,3.879961967,2024-06-04 14:44:31.465644
53.50613791,-8.681160927,-1.308574915,3.914358854,2024-06-04 14:44:31.506138
53.5466365,-8.703593254,-1.392921925,4.041178226,2024-06-04 14:44:31.546636
53.5871265,-8.690732002,-1.434198022,4.109972,2024-06-04 14:44:31.587126
53.62765358,-8.667402267,-1.467099428,4.111766815,2024-06-04 14:44:31.627654
53.66809067,-8.677571297,-1.479362607,4.158127785,2024-06-04 14:44:31.668091
53.70861296,-8.707780838,-1.493719578,4.111168385,2024-06-04 14:44:31.708613
53.74908775,-8.646464348,-1.413260818,4.121936321,2024-06-04 14:44:31.749088
53.78956176,-8.626125336,-1.331904888,4.121936321,2024-06-04 14:44:31.789562
53.8300514,-8.676973343,-1.4054842,4.095016956,2024-06-04 14:44:31.830051
53.87054103,-8.689535141,-1.445564032,4.065106392,2024-06-04 14:44:31.870541
53.91103067,-8.764012337,-1.435394526,4.016652107,2024-06-04 14:44:31.911031
53.95158447,-8.681758881,-1.39710927,4.063910007,2024-06-04 14:44:31.951584
53.9920741,-8.668000221,-1.372582912,4.106980801,2024-06-04 14:44:31.992074
54.03246598,-8.638090134,-1.361217022,4.062115669,2024-06-04 14:44:32.032466
54.07299306,-8.696713448,-1.415653706,4.123730659,2024-06-04 14:44:32.072993
54.11348233,-8.716156006,-1.487139225,4.315455437,2024-06-04 14:44:32.113482
54.1540101,-8.548358917,-1.39710927,3.925724745,2024-06-04 14:44:32.154010
54.19447312,-8.710173607,-1.425225019,4.329812527,2024-06-04 14:44:32.194473
54.23501098,-8.412865639,-1.251745343,4.131507397,2024-06-04 14:44:32.235011
54.27545384,-8.681758881,-1.376770377,4.049553394,2024-06-04 14:44:32.275454
54.3159426,-8.908778191,-1.460519075,3.947858334,2024-06-04 14:44:32.315943
54.35643192,-8.870492935,-1.485344648,3.856631994,2024-06-04 14:44:32.356432
54.39692176,-8.929117203,-1.360020518,3.797409534,2024-06-04 14:44:32.396922
54.43741317,-8.738288879,-1.245763302,3.872783422,2024-06-04 14:44:32.437413
54.477919,-8.534600258,-1.291226864,4.025026798,2024-06-04 14:44:32.477919
54.51841322,-8.718548775,-1.418046474,4.14646244,2024-06-04 14:44:32.518413
54.55890098,-8.710771561,-1.490728498,4.246063709,2024-06-04 14:44:32.558901
54.59938806,-8.595617294,-1.475175142,4.293322086,2024-06-04 14:44:32.599388
54.63986478,-8.559126854,-1.389930844,4.191029072,2024-06-04 14:44:32.639865
54.68033853,-8.660223007,-1.380957723,4.147060871,2024-06-04 14:44:32.680339
54.72083473,-8.678768158,-1.383948803,4.107579231,2024-06-04 14:44:32.720835
54.76133062,-8.650053978,-1.382154226,4.099204063,2024-06-04 14:44:32.761331
54.80183265,-8.641080856,-1.381555915,4.130311012,2024-06-04 14:44:32.801833
54.84231119,-8.650053978,-1.400698543,4.15334177,2024-06-04 14:44:32.842311
54.88278718,-8.676973343,-1.400698543,4.193421841,2024-06-04 14:44:32.882787
54.92330733,-8.679964066,-1.401894927,4.145266056,2024-06-04 14:44:32.923307
54.96382306,-8.700602531,-1.385145187,4.091427803,2024-06-04 14:44:32.963823
55.00431265,-8.680562019,-1.363011599,4.043570995,2024-06-04 14:44:33.004313
55.04480213,-8.697312355,-1.32113719,4.057928085,2024-06-04 14:44:33.044802
55.08523567,-8.72811985,-1.358824134,4.045963764,2024-06-04 14:44:33.085236
55.12574223,-8.710173607,-1.383948803,4.087838173,2024-06-04 14:44:33.125742
55.16625332,-8.672785759,-1.420439363,4.147658825,2024-06-04 14:44:33.166253
55.20675306,-8.586644173,-1.374377489,4.188037872,2024-06-04 14:44:33.206753
55.24723796,-8.647661209,-1.380957723,4.184448719,2024-06-04 14:44:33.247238
55.28770801,-8.67039299,-1.388136268,4.157529354,2024-06-04 14:44:33.287708
55.3281676,-8.664410591,-1.384546995,4.101597309,2024-06-04 14:44:33.328168
55.36870103,-8.63031292,-1.368395448,4.111168385,2024-06-04 14:44:33.368701
55.40917447,-8.673383713,-1.362413406,4.173680782,2024-06-04 14:44:33.409174
55.44964598,-8.692526817,-1.39710927,4.129712582,2024-06-04 14:44:33.449646
55.49015134,-8.67816925,-1.309771299,4.057928085,2024-06-04 14:44:33.490151
55.53061895,-8.667402267,-1.382154226,4.121337891,2024-06-04 14:44:33.530619
55.57114838,-8.675178528,-1.390529037,4.177269936,2024-06-04 14:44:33.571148
55.61169322,-8.571688652,-1.398903966,4.214957237,2024-06-04 14:44:33.611693
55.65208817,-8.622536659,-1.36899364,4.193421841,2024-06-04 14:44:33.652088
55.69261249,-8.629117012,-1.418046474,4.144668102,2024-06-04 14:44:33.692612
55.73312843,-8.732905388,-1.45633173,4.165306091,2024-06-04 14:44:33.733128
55.77363171,-8.711968422,-1.382154226,4.134498596,2024-06-04 14:44:33.773632
55.8140851,-8.696115494,-1.296012521,4.0597229,2024-06-04 14:44:33.814085
55.85455702,-8.608778,-1.27627182,4.080061913,2024-06-04 14:44:33.854557
55.8950776,-8.633303642,-1.339083314,4.123132706,2024-06-04 14:44:33.895078
55.93556067,-8.602197647,-1.377368569,4.177269936,2024-06-04 14:44:33.935561
55.97607306,-8.69192791,-1.449153185,4.184448719,2024-06-04 14:44:33.976073
56.01655926,-8.77059269,-1.459920883,4.095016956,2024-06-04 14:44:34.016559
56.05703327,-8.643473625,-1.452742457,4.147060871,2024-06-04 14:44:34.057033
56.097494,-8.810073853,-1.564307809,4.200001717,2024-06-04 14:44:34.097494
56.13799702,-8.558527946,-1.290030479,4.304687977,2024-06-04 14:44:34.137997
56.17850457,-8.446065903,-0.9305089116,4.189234257,2024-06-04 14:44:34.178505
56.21899541,-8.635098457,-1.232602715,4.042973042,2024-06-04 14:44:34.218995
56.25948312,-8.821439743,-1.363011599,3.945465326,2024-06-04 14:44:34.259483
56.29997874,-8.800502777,-1.406082392,3.929313898,2024-06-04 14:44:34.299979
56.34044374,-8.796913147,-1.418644667,4.099204063,2024-06-04 14:44:34.340444
56.38093405,-8.555537224,-1.348056436,4.316651821,2024-06-04 14:44:34.380934
56.4214239,-8.452047348,-1.333101273,4.399204254,2024-06-04 14:44:34.421424
56.46191327,-8.66680336,-1.356431365,4.244269371,2024-06-04 14:44:34.461913
56.50239749,-8.685347557,-1.29302156,4.086043835,2024-06-04 14:44:34.502397
56.54291926,-8.732905388,-1.281655669,4.031607151,2024-06-04 14:44:34.542919
56.58335353,-8.669795036,-1.347458243,4.09860611,2024-06-04 14:44:34.583354
56.6238528,-8.601000786,-1.310967684,4.176073551,2024-06-04 14:44:34.623853
56.66437426,-8.693124771,-1.352842093,4.161716938,2024-06-04 14:44:34.664374
56.70484124,-8.685946465,-1.326521039,4.177269936,2024-06-04 14:44:34.704841
56.74532593,-8.650651932,-1.349851131,4.133900166,2024-06-04 14:44:34.745326
56.78584286,-8.702396393,-1.327119231,4.087838173,2024-06-04 14:44:34.785843
56.82629244,-8.681758881,-1.306780219,4.111168385,2024-06-04 14:44:34.826292
56.86678233,-8.670990944,-1.343868971,4.15334177,2024-06-04 14:44:34.866782
56.90730306,-8.627322197,-1.342672586,4.176073551,2024-06-04 14:44:34.907303
56.94784994,-8.687142372,-1.356431365,4.184448719,2024-06-04 14:44:34.947850
56.98830395,-8.673383713,-1.331306696,4.159922123,2024-06-04 14:44:34.988304
57.0287739,-8.632705688,-1.308574915,4.14646244,2024-06-04 14:44:35.028774
57.06926374,-8.666205406,-1.310369492,4.092624187,2024-06-04 14:44:35.069264
57.10975666,-8.714361191,-1.328913927,4.1129632,2024-06-04 14:44:35.109757
57.15029926,-8.675776482,-1.329512119,4.118945122,2024-06-04 14:44:35.150299
57.19072791,-8.650053978,-1.338485122,4.168296814,2024-06-04 14:44:35.190728
57.23123937,-8.673981667,-1.343270779,4.151547432,2024-06-04 14:44:35.231239
57.27173077,-8.656634331,-1.336092353,4.158127785,2024-06-04 14:44:35.271731
57.31220739,-8.662017822,-1.334895968,4.140480518,2024-06-04 14:44:35.312207
57.35269046,-8.691329956,-1.327119231,4.126123428,2024-06-04 14:44:35.352690
57.39318124,-8.660821915,-1.319342613,4.144069672,2024-06-04 14:44:35.393181
57.43367134,-8.689535141,-1.325922847,4.12432909,2024-06-04 14:44:35.433671
57.47414567,-8.678768158,-1.327119231,4.142275333,2024-06-04 14:44:35.474146
57.514614,-8.704790115,-1.313360572,4.132703781,2024-06-04 14:44:35.514614
57.55509671,-8.682356834,-1.367199063,4.110570431,2024-06-04 14:44:35.555097
57.59558629,-8.685347557,-1.341476202,4.072883129,2024-06-04 14:44:35.595586
57.63607582,-8.693124771,-1.261914849,4.177269936,2024-06-04 14:44:35.636076
57.67660629,-8.632705688,-1.329512119,4.17846632,2024-06-04 14:44:35.676606
57.71709577,-8.623732567,-1.348654628,4.214358807,2024-06-04 14:44:35.717096
57.75760067,-8.58365345,-1.368395448,4.244867325,2024-06-04 14:44:35.757601
57.79809025,-8.67039299,-1.31276238,4.220939159,2024-06-04 14:44:35.798090
57.83862369,-8.59142971,-1.322333574,4.152145386,2024-06-04 14:44:35.838624
57.87904749,-8.671588898,-1.355833173,4.234099865,2024-06-04 14:44:35.879047
57.91956504,-8.644669533,-1.343868971,4.16769886,2024-06-04 14:44:35.919565
57.96010567,-8.657232285,-1.348654628,4.153940201,2024-06-04 14:44:35.960106
58.00055124,-8.647661209,-1.305583835,4.151547432,2024-06-04 14:44:36.000551
58.04103296,-8.650053978,-1.300798178,4.107579231,2024-06-04 14:44:36.041033
58.08157062,-8.735298157,-1.296012521,4.062115669,2024-06-04 14:44:36.081571
58.12201332,-8.701200485,-1.309771299,4.08424902,2024-06-04 14:44:36.122013
58.16251129,-8.646464348,-1.329512119,4.133302212,2024-06-04 14:44:36.162511
58.20298322,-8.661419868,-1.352842093,4.171886444,2024-06-04 14:44:36.202983
58.24348749,-8.682954788,-1.383350611,4.183850288,2024-06-04 14:44:36.243487
58.28396869,-8.61296463,-1.345663667,4.209573269,2024-06-04 14:44:36.283969
58.32442197,-8.668598175,-1.367797256,4.187439442,2024-06-04 14:44:36.324422
58.36491322,-8.649456024,-1.343868971,4.136891365,2024-06-04 14:44:36.364913
58.40540442,-8.679964066,-1.316351533,4.141676903,2024-06-04 14:44:36.405404
58.44589567,-8.727521896,-1.338485122,4.114757538,2024-06-04 14:44:36.445896
58.4863877,-8.687142372,-1.349851131,4.108177185,2024-06-04 14:44:36.486388
58.52687885,-8.66680336,-1.290628672,4.129114628,2024-06-04 14:44:36.526879
58.56738463,-8.666205406,-1.350449324,4.128516197,2024-06-04 14:44:36.567385
58.60788244,-8.644669533,-1.377966762,4.149154663,2024-06-04 14:44:36.607882
58.6483665,-8.661419868,-1.366002679,4.175475597,2024-06-04 14:44:36.648367
58.68887473,-8.680562019,-1.373779297,4.157529354,2024-06-04 14:44:36.688875
58.72934192,-8.649456024,-1.368395448,4.155136585,2024-06-04 14:44:36.729342
58.76986093,-8.681758881,-1.358225942,4.152743816,2024-06-04 14:44:36.769861
58.81034322,-8.654839516,-1.360020518,4.113561153,2024-06-04 14:44:36.810343
58.85080207,-8.698807716,-1.36061883,4.097409725,2024-06-04 14:44:36.850802
58.89128411,-8.674580574,-1.3522439,4.144668102,2024-06-04 14:44:36.891284
58.93180812,-8.708976746,-1.389930844,4.126721859,2024-06-04 14:44:36.931808
58.9723152,-8.737690926,-1.319940805,4.121337891,2024-06-04 14:44:36.972315
59.01280525,-8.664410591,-1.331306696,4.173680782,2024-06-04 14:44:37.012805
59.05327801,-8.72811985,-1.38035953,4.157529354,2024-06-04 14:44:37.053278
59.09373765,-8.680562019,-1.409671664,4.125525475,2024-06-04 14:44:37.093738
59.13425624,-8.560322762,-1.517647743,4.106980801,2024-06-04 14:44:37.134256
59.1747753,-8.795717239,-1.261316657,4.379463673,2024-06-04 14:44:37.174775
59.2152403,-8.354241371,-1.149751306,4.142275333,2024-06-04 14:44:37.215240
59.25573197,-8.772386551,-1.146162033,4.117748737,2024-06-04 14:44:37.255732
59.29622713,-8.705388069,-1.246959686,4.114159584,2024-06-04 14:44:37.296227
59.33671832,-8.749056816,-1.524826288,3.96939373,2024-06-04 14:44:37.336718
59.37720978,-8.667402267,-1.261316657,4.316651821,2024-06-04 14:44:37.377210
59.4176916,-8.443673134,-1.217647672,4.270590305,2024-06-04 14:44:37.417692
59.4582426,-8.768797874,-1.168295622,4.284348965,2024-06-04 14:44:37.458243
59.49869405,-8.535198212,-1.21704936,4.097409725,2024-06-04 14:44:37.498694
59.53916353,-8.661419868,-1.331306696,4.155734539,2024-06-04 14:44:37.539164
59.57965895,-8.781359673,-1.373181105,4.194019794,2024-06-04 14:44:37.579659
59.62015937,-8.666205406,-1.372582912,4.179663181,2024-06-04 14:44:37.620159
59.66060192,-8.617152214,-1.251147151,4.274777889,2024-06-04 14:44:37.660602
59.70111536,-8.482556343,-1.115055323,4.281956196,2024-06-04 14:44:37.701115
59.74160603,-8.738288879,-1.205085278,4.051946163,2024-06-04 14:44:37.741606
59.7820791,-8.834600449,-1.258325577,4.05912447,2024-06-04 14:44:37.782079
59.82257004,-8.683553696,-1.30139637,4.030410767,2024-06-04 14:44:37.822570
59.86305947,-8.811270714,-1.348056436,4.252644062,2024-06-04 14:44:37.863059
59.9035489,-8.607581139,-1.435992718,4.276572227,2024-06-04 14:44:37.903549
59.94409629,-8.341080666,-1.12283206,4.439583302,2024-06-04 14:44:37.944096
59.98452306,-8.680562019,-1.110867858,4.188037872,2024-06-04 14:44:37.984523
60.0250201,-8.744869232,-1.143171072,4.055535316,2024-06-04 14:44:38.025020
60.06551119,-8.651848793,-1.258923769,4.068097591,2024-06-04 14:44:38.065511
60.10603765,-8.597412109,-1.341476202,4.265804768,2024-06-04 14:44:38.106038
60.14653749,-8.503493309,-1.227817178,4.338785648,2024-06-04 14:44:38.146537
60.18702275,-8.700602531,-1.122233868,4.137489319,2024-06-04 14:44:38.187023
60.22752608,-8.725129128,-1.227218866,4.155734539,2024-06-04 14:44:38.227526
60.26802754,-8.697312355,-1.297209024,4.065704823,2024-06-04 14:44:38.268028
60.30849864,-8.763413429,-1.383350611,4.158127785,2024-06-04 14:44:38.308499
60.34895702,-8.67039299,-1.254736423,4.174877167,2024-06-04 14:44:38.348957
60.38946499,-8.630910873,-1.211665511,4.245465755,2024-06-04 14:44:38.389465
60.42995119,-8.649456024,-1.216451168,4.186243057,2024-06-04 14:44:38.429951
60.47043551,-8.664410591,-1.255334616,4.149154663,2024-06-04 14:44:38.470436
60.51091379,-8.720342636,-1.306780219,4.149752617,2024-06-04 14:44:38.510914
60.55141228,-8.615956306,-1.284048438,4.196412563,2024-06-04 14:44:38.551412
60.59188775,-8.653044701,-1.259521961,4.216153622,2024-06-04 14:44:38.591888
60.63239004,-8.654839516,-1.242174029,4.210769653,2024-06-04 14:44:38.632390
60.67288499,-8.649456024,-1.252941728,4.192225456,2024-06-04 14:44:38.672885
60.71336108,-8.6590271,-1.276870012,4.177269936,2024-06-04 14:44:38.713361
60.75384353,-8.714361191,-1.316949725,4.13509655,2024-06-04 14:44:38.753844
60.79433072,-8.715557098,-1.261914849,4.182653904,2024-06-04 14:44:38.794331
60.8348003,-8.63031292,-1.247557878,4.214358807,2024-06-04 14:44:38.834800
60.87528963,-8.560322762,-1.251745343,4.255635262,2024-06-04 14:44:38.875290
60.9157789,-8.660223007,-1.267896891,4.180261135,2024-06-04 14:44:38.915779
60.95636608,-8.729914665,-1.260120273,4.149154663,2024-06-04 14:44:38.956366
60.99678796,-8.646464348,-1.267896891,4.16710043,2024-06-04 14:44:38.996788
61.03727718,-8.613563538,-1.24516511,4.219144344,2024-06-04 14:44:39.037277
61.07777233,-8.651848793,-1.26490593,4.186841488,2024-06-04 14:44:39.077772
61.11829822,-8.718548775,-1.292423368,4.162314892,2024-06-04 14:44:39.118298
61.1587565,-8.629714966,-1.271486163,4.214358807,2024-06-04 14:44:39.158757
61.19925926,-8.63031292,-1.279262781,4.227519512,2024-06-04 14:44:39.199259
61.23974848,-8.683553696,-1.239183068,4.202992916,2024-06-04 14:44:39.239748
61.28027556,-8.653044701,-1.285843015,4.141676903,2024-06-04 14:44:39.280276
61.32070166,-8.644669533,-1.230209947,4.170091629,2024-06-04 14:44:39.320702
61.36119082,-8.660223007,-1.232602715,4.198207378,2024-06-04 14:44:39.361191
61.4016801,-8.729315758,-1.314556956,4.164109707,2024-06-04 14:44:39.401680
61.44216937,-8.632705688,-1.309173107,4.191029072,2024-06-04 14:44:39.442169
61.48265864,-8.575876236,-1.290030479,4.241278172,2024-06-04 14:44:39.482659
61.52314791,-8.647661209,-1.303789258,4.235894203,2024-06-04 14:44:39.523148
61.56363228,-8.66680336,-1.333699465,4.152743816,2024-06-04 14:44:39.563632
61.60413744,-8.696115494,-1.281057477,4.136292934,2024-06-04 14:44:39.604137
61.64464968,-8.675178528,-1.270289779,4.139284134,2024-06-04 14:44:39.644650
61.68512405,-8.68774128,-1.347458243,4.194019794,2024-06-04 14:44:39.685124
61.72561385,-8.621339798,-1.418644667,4.259822369,2024-06-04 14:44:39.725614
61.76613723,-8.619544983,-1.31276238,4.281357765,2024-06-04 14:44:39.766137
61.80662332,-8.624929428,-1.28464663,4.264608383,2024-06-04 14:44:39.806623
61.84707817,-8.590831757,-1.242174029,4.186243057,2024-06-04 14:44:39.847078
61.88756733,-8.692526817,-1.281655669,4.152743816,2024-06-04 14:44:39.887567
61.92807572,-8.657830238,-1.376172066,4.180261135,2024-06-04 14:44:39.928076
61.96859812,-8.606983185,-1.335494161,4.237090588,2024-06-04 14:44:39.968598
62.0090665,-8.69551754,-1.273878932,4.220939159,2024-06-04 14:44:40.009067
62.049539,-8.572885513,-1.149751306,4.216751575,2024-06-04 14:44:40.049539
62.09003254,-8.661419868,-1.328913927,4.186243057,2024-06-04 14:44:40.090033
62.13053426,-8.822636604,-1.41984117,4.042374611,2024-06-04 14:44:40.130534
62.17100015,-8.534600258,-1.344467282,4.252045631,2024-06-04 14:44:40.171000
62.21148015,-8.474779129,-1.147358418,4.367499352,2024-06-04 14:44:40.211480
62.25196937,-8.595617294,-1.188634634,4.298107624,2024-06-04 14:44:40.251969
62.29241822,-8.767003059,-1.269093275,4.014258862,2024-06-04 14:44:40.292418
62.33294739,-8.81485939,-1.447358608,4.007678986,2024-06-04 14:44:40.332947
62.37344629,-8.6590271,-1.339083314,4.15633297,2024-06-04 14:44:40.373446
62.4139564,-8.568099976,-1.232602715,4.280161381,2024-06-04 14:44:40.413956
62.45443468,-8.589036942,-1.19880414,4.303491592,2024-06-04 14:44:40.454435
62.49492384,-8.522636414,-1.310967684,4.252045631,2024-06-04 14:44:40.494924
62.53539728,-8.567501068,-1.339681625,4.275974274,2024-06-04 14:44:40.535397
62.57588489,-8.67039299,-1.379163146,4.214358807,2024-06-04 14:44:40.575885
