Time (s),Gyroscope x (rad/s),Gyroscope y (rad/s),Gyroscope z (rad/s),Datetime
0.055056886,0.4430037737,-1.109972835,0.1070559174,2024-06-04 14:43:38.055057
0.095545323,-0.423430115,-1.078548431,-0.006391398143,2024-06-04 14:43:38.095545
0.136033813,-0.5640408993,-0.8708279729,-0.09374050796,2024-06-04 14:43:38.136034
0.211624542,-0.1129147038,-0.9259538054,-0.02956021577,2024-06-04 14:43:38.211625
0.252107511,-0.3027924895,-1.287866712,-0.02023942769,2024-06-04 14:43:38.252108
0.292546261,-0.4471315742,-1.755104542,0.07776200771,2024-06-04 14:43:38.292546
0.333020896,-1.008109927,-1.203446984,0.6621754766,2024-06-04 14:43:38.333021
0.373564646,-2.481859684,-0.9965254664,1.688127995,2024-06-04 14:43:38.373565
0.414053136,-3.567864895,-1.508503079,2.14471364,2024-06-04 14:43:38.414053
0.454541625,-3.538570881,-1.948044896,3.184647322,2024-06-04 14:43:38.454542
0.495030063,-1.75017786,-2.445508718,4.071587086,2024-06-04 14:43:38.495030
0.535518553,1.241928577,-1.215430856,2.837248087,2024-06-04 14:43:38.535519
0.575963969,2.462419271,1.189599037,1.215963483,2024-06-04 14:43:38.575964
0.616471573,0.8215609789,-0.8013215661,-0.7925333977,2024-06-04 14:43:38.616472
0.656980792,0.572030127,0.2420742065,-0.3255618513,2024-06-04 14:43:38.656981
0.697443292,0.6710968018,0.0705716908,-0.2797568142,2024-06-04 14:43:38.697443
0.73791423,0.4025249183,-0.2997299433,-0.3279586136,2024-06-04 14:43:38.737914
0.778428292,-0.163513273,0.05698996782,0.01944050193,2024-06-04 14:43:38.778428
0.818908344,-0.3035914004,0.1081211492,0.1334204376,2024-06-04 14:43:38.818908
0.859396573,-0.2516613007,-0.2406095117,-0.05485950038,2024-06-04 14:43:38.859397
0.899938813,-0.1597849578,-0.02583190054,-0.04740286991,2024-06-04 14:43:38.899939
0.940369855,-0.1230344176,-0.06977276504,-0.05006595328,2024-06-04 14:43:38.940370
0.980858136,0.0685743764,-0.03754946589,-0.03568530455,2024-06-04 14:43:38.980858
1.021346417,0.2448704392,0.07509893179,0.07776200771,2024-06-04 14:43:39.021346
1.061833761,0.5464645624,-0.371633172,-0.0929415822,2024-06-04 14:43:39.061834
1.102322042,0.8300828338,-1.036205411,-0.7962616682,2024-06-04 14:43:39.102322
1.142824125,1.234471917,-0.4536561072,-0.8905348182,2024-06-04 14:43:39.142824
1.183295844,1.071091771,0.2924064696,-0.2600499988,2024-06-04 14:43:39.183296
1.223814959,0.06884068251,-0.4038564563,0.163513273,2024-06-04 14:43:39.223815
1.264319542,-0.487344116,-0.2704360485,0.2817541361,2024-06-04 14:43:39.264320
1.304811469,-0.4753602445,0.07323476672,0.1629806459,2024-06-04 14:43:39.304811
1.34528574,-0.1014634445,0.3981308341,0.07856093347,2024-06-04 14:43:39.345286
1.385765636,0.3673722446,-0.1223686412,-0.07909355313,2024-06-04 14:43:39.385766
1.426254334,0.5693670511,-0.5695002079,-0.2813546658,2024-06-04 14:43:39.426254
1.466743292,0.509314537,-0.4975969791,-0.3151758313,2024-06-04 14:43:39.466743
1.507221105,0.5077167153,-0.9504541755,-0.4283568263,2024-06-04 14:43:39.507221
1.547695844,0.5063851476,-0.7627068162,-0.4193023443,2024-06-04 14:43:39.547696
1.588198084,0.4432700872,-0.9517856836,-0.5130428672,2024-06-04 14:43:39.588198
1.628678553,0.3559209704,-0.8348763585,-0.5724295974,2024-06-04 14:43:39.628679
1.669158969,-0.01158440951,-1.022623658,-0.4973306656,2024-06-04 14:43:39.669159
1.709668032,-0.2383458912,-0.5258256793,-0.5316844583,2024-06-04 14:43:39.709668
1.750185688,-0.6407376528,-0.9469921589,-0.5002600551,2024-06-04 14:43:39.750186
1.790637615,-0.4178376496,-0.5343475342,-0.4469984174,2024-06-04 14:43:39.790638
1.831153917,-0.3563204408,-0.416905582,-0.5356790423,2024-06-04 14:43:39.831154
1.87164923,-0.1850842386,-0.4014596939,-0.5356790423,2024-06-04 14:43:39.871649
1.912096938,0.05552527308,-0.4256937504,-0.4137098789,2024-06-04 14:43:39.912097
1.952571365,0.06484606117,-0.153793022,0.02103835158,2024-06-04 14:43:39.952571
1.993059542,-0.06191666797,-0.1644453406,-0.3061213493,2024-06-04 14:43:39.993060
2.033547771,0.03342168778,-0.1335535944,-0.4219654202,2024-06-04 14:43:40.033548
2.074035948,-0.1890788674,-0.04793548584,-0.09081111848,2024-06-04 14:43:40.074036
2.114524178,-0.1744319052,-0.06524552405,0.002130466048,2024-06-04 14:43:40.114524
2.155038917,0.2624467909,-0.02742975019,-0.2054568231,2024-06-04 14:43:40.155039
2.195557459,0.3977313936,-0.1860163212,-0.2344844192,2024-06-04 14:43:40.195557
2.236035532,0.3151758313,-0.1572550237,-0.1977338791,2024-06-04 14:43:40.236036
2.276501417,0.08748225868,-0.230756104,-0.1948044896,2024-06-04 14:43:40.276501
2.317003969,-0.04087831825,-0.1956034154,-0.1782933772,2024-06-04 14:43:40.317004
2.357504386,-0.2985315621,-0.1362166703,0.02316881903,2024-06-04 14:43:40.357504
2.398006157,-0.2961347699,0.1802906841,0.2559222281,2024-06-04 14:43:40.398006
2.438467875,-0.06271559745,0.6339467764,0.5561847687,2024-06-04 14:43:40.438468
2.478922875,0.008921326138,1.252980351,0.6155715585,2024-06-04 14:43:40.478923
2.519411313,-0.1912093312,0.8792167306,0.7844109535,2024-06-04 14:43:40.519411
2.559899698,-0.3121132851,0.08761541545,0.3022598624,2024-06-04 14:43:40.559900
2.600388084,-0.5027899742,0.2002638131,0.4559197426,2024-06-04 14:43:40.600388
2.640876469,-0.4713656008,-0.02689713426,0.4463326335,2024-06-04 14:43:40.640876
2.681370271,-0.3693695366,-0.3711005449,0.4852136374,2024-06-04 14:43:40.681370
2.72189824,-0.06484606117,0.1094526947,0.1818885356,2024-06-04 14:43:40.721898
2.762418917,-0.2719007432,-0.1282274276,0.4436695576,2024-06-04 14:43:40.762419
2.802916053,-0.0845528692,-1.036205411,0.3195699155,2024-06-04 14:43:40.802916
2.843406105,-0.2471340597,0.4639089704,0.5197005868,2024-06-04 14:43:40.843406
2.883893032,-0.3613803089,0.8872059584,1.180278182,2024-06-04 14:43:40.883893
2.924352303,0.1066564545,0.09826774895,0.8648360372,2024-06-04 14:43:40.924352
2.964784021,0.2960016131,0.2396774292,1.115032673,2024-06-04 14:43:40.964784
3.005273396,0.4312862158,0.2732322812,1.351248145,2024-06-04 14:43:41.005273
3.045768448,0.04300878197,0.4965317547,1.560300112,2024-06-04 14:43:41.045768
3.086269178,-0.5800193548,1.320622683,1.76016438,2024-06-04 14:43:41.086269
3.126757667,-0.2607157826,1.105445623,1.990787387,2024-06-04 14:43:41.126758
3.167245323,-0.1107842326,0.7332797647,1.475081444,2024-06-04 14:43:41.167245
3.207776313,-0.7676335573,1.219691753,1.031545043,2024-06-04 14:43:41.207776
3.248229125,-0.5970631242,1.247387886,1.224751711,2024-06-04 14:43:41.248229
3.28877548,-0.713572979,1.893584847,1.799578071,2024-06-04 14:43:41.288775
3.329194594,-0.9681636691,3.277588844,2.139121056,2024-06-04 14:43:41.329195
3.369682667,-0.1137136221,2.521672964,2.552564621,2024-06-04 14:43:41.369683
3.410240271,-0.1350182891,2.448438168,2.162023544,2024-06-04 14:43:41.410240
3.450728344,0.1244991124,1.925541878,2.393844843,2024-06-04 14:43:41.450728
3.491216417,0.3005288541,1.841654778,1.882133603,2024-06-04 14:43:41.491216
3.531699855,0.4722976983,2.135126352,0.9939955473,2024-06-04 14:43:41.531700
3.57215298,0.0432750918,2.499569178,0.8243572116,2024-06-04 14:43:41.572153
3.612641053,0.1588528752,0.5998593569,0.5388747454,2024-06-04 14:43:41.612641
3.653129125,0.1639127284,1.139266729,-1.004248381,2024-06-04 14:43:41.653129
3.693642563,-0.01637795754,1.34565556,-2.393844843,2024-06-04 14:43:41.693643
3.73414949,-0.2434057444,0.2500634491,-2.33578968,2024-06-04 14:43:41.734149
3.774639542,0.1295589656,0.9236901999,-2.494509459,2024-06-04 14:43:41.774640
3.815125219,-0.3027924895,1.843518853,-2.042318106,2024-06-04 14:43:41.815125
3.855604594,-0.03741630912,1.031811357,-2.340583324,2024-06-04 14:43:41.855605
3.896083709,0.4528571963,0.5830819011,-1.195457816,2024-06-04 14:43:41.896084
3.936578865,0.3354152441,0.9138367772,-0.1727008969,2024-06-04 14:43:41.936579
3.97707048,0.8489907384,0.8286181092,0.9726908803,2024-06-04 14:43:41.977070
4.0175585,0.2065220475,-0.2025274336,-0.02503297664,2024-06-04 14:43:42.017558
4.05802475,0.2454030514,-0.07003907114,0.0487344116,2024-06-04 14:43:42.058025
4.09848949,0.3609808385,-0.5631088018,-0.2174406946,2024-06-04 14:43:42.098489
4.138999178,0.1194392517,0.2916075289,-1.055645943,2024-06-04 14:43:42.138999
4.179516625,0.7131735086,2.382127285,-0.7021217346,2024-06-04 14:43:42.179517
4.2200135,0.6710968018,0.8091776371,0.01225017942,2024-06-04 14:43:42.220014
4.260480636,0.004394086078,-0.5697665215,-0.6765561104,2024-06-04 14:43:42.260481
4.300993032,0.1098521575,0.3003957272,-0.08761541545,2024-06-04 14:43:42.300993
4.341483709,-0.4484631121,0.2338186502,-0.1822880059,2024-06-04 14:43:42.341484
4.38195548,-0.9287500381,3.148962021,-0.6179683208,2024-06-04 14:43:42.381955
4.422439178,0.3452686667,1.276681781,-0.7230269313,2024-06-04 14:43:42.422439
4.462917563,0.9296821356,2.401035309,1.055779099,2024-06-04 14:43:42.462918
4.503387094,0.944329083,0.805449307,0.5015916228,2024-06-04 14:43:42.503387
4.543874698,0.5424699187,-0.5386084318,1.319024801,2024-06-04 14:43:42.543875
4.584358292,0.05206326395,-0.9089100957,1.583735228,2024-06-04 14:43:42.584358
4.624847823,0.213978678,-0.5292876363,0.3563204408,2024-06-04 14:43:42.624848
4.665338813,-0.2348838747,-0.5617772937,-0.4163729548,2024-06-04 14:43:42.665339
4.705865844,-0.5083824396,-0.6033213735,-0.4736292362,2024-06-04 14:43:42.705866
4.746353292,0.0954715088,-0.1423417628,0.5085155964,2024-06-04 14:43:42.746353
4.786822928,0.2137123793,-0.2272941023,0.6837464571,2024-06-04 14:43:42.786823
4.827309803,0.4150414169,0.3126458824,1.316361666,2024-06-04 14:43:42.827310
4.867784386,0.3300890923,0.8246235251,1.291861296,2024-06-04 14:43:42.867784
4.908278709,0.09307473898,0.4258269072,0.2527265251,2024-06-04 14:43:42.908279
4.948766834,-0.4663057625,-0.2166417688,-0.7832126021,2024-06-04 14:43:42.948767
4.989254907,0.06457975507,1.756169796,0.08335448056,2024-06-04 14:43:42.989255
5.029743032,-0.07603100687,1.249252081,-0.5679023266,2024-06-04 14:43:43.029743
5.070227563,0.663107574,0.1310236603,-0.5162385702,2024-06-04 14:43:43.070228
5.110718292,0.6439333558,0.3376788795,-0.01198387146,2024-06-04 14:43:43.110718
5.151165011,0.6220960617,0.190676704,-0.1054580659,2024-06-04 14:43:43.151165
5.191720323,0.5547201037,0.3611139953,-0.03834838793,2024-06-04 14:43:43.191720
5.232238344,0.4406070113,0.2660419345,-0.03541899845,2024-06-04 14:43:43.232238
5.272732615,0.3612471521,-0.0980014354,-0.1636464298,2024-06-04 14:43:43.272733
5.313221886,0.1790923029,-0.1003982127,-0.2744306624,2024-06-04 14:43:43.313222
5.353707146,0.06671021879,-0.2515281439,-0.4422048628,2024-06-04 14:43:43.353707
5.394156886,0.01531272475,-0.2707023323,-0.6065170765,2024-06-04 14:43:43.394157
5.434645219,-0.1294258088,-0.3489969671,-0.6912030578,2024-06-04 14:43:43.434645
5.475133553,-0.2604494691,-0.3785571754,-0.7315487862,2024-06-04 14:43:43.475134
5.515621886,-0.2213021666,-0.1455374658,-0.4866783321,2024-06-04 14:43:43.515622
5.55610423,-0.06031882018,0.02769605815,-0.2089188248,2024-06-04 14:43:43.556104
5.596589646,-0.04567186534,0.276694268,-0.07030537724,2024-06-04 14:43:43.596590
5.637100688,-0.06750914454,0.24234052,-0.1114500016,2024-06-04 14:43:43.637101
5.67760048,-0.1896114796,0.06178351492,-0.2800231278,2024-06-04 14:43:43.677600
5.718076938,-0.2833519876,0.02157096937,-0.3945356905,2024-06-04 14:43:43.718077
5.758541313,-0.2732322812,-0.06178351492,-0.3945356905,2024-06-04 14:43:43.758541
5.799029855,-0.1248985752,-0.1051917598,-0.235283345,2024-06-04 14:43:43.799030
5.839519073,0.07390054315,-0.04687025398,-0.02769605815,2024-06-04 14:43:43.839519
5.880027615,0.2001306564,0.04154408723,0.05326165259,2024-06-04 14:43:43.880028
5.920548605,0.2472672164,0.1352845877,-0.04154408723,2024-06-04 14:43:43.920549
5.961012407,0.204924196,0.1746982187,-0.1870815456,2024-06-04 14:43:43.961012
6.001477094,0.1780270636,0.1904104054,-0.2528596818,2024-06-04 14:43:44.001477
6.041978917,0.2054568231,0.1805569977,-0.2067883611,2024-06-04 14:43:44.041979
6.08246574,0.2323539555,0.1320888996,-0.1210371032,2024-06-04 14:43:44.082466
6.122965636,0.2022611201,0.1163767055,-0.05166380107,2024-06-04 14:43:44.122966
6.163483813,0.1205044836,0.05299534276,-0.02050573565,2024-06-04 14:43:44.163484
6.203967615,0.007323476952,0.02370143496,0.006125089712,2024-06-04 14:43:44.203968
6.244468292,-0.117974557,0.009853405878,0.02077204362,2024-06-04 14:43:44.244468
6.284954594,-0.2021279633,-0.04846810177,0.03541899845,2024-06-04 14:43:44.284955
6.325446834,-0.2420742065,-0.09400681406,0.05113118514,2024-06-04 14:43:44.325447
6.36593324,-0.1874810159,-0.06497921795,0.09533835202,2024-06-04 14:43:44.365933
6.406418553,-0.1600512564,-0.1495320797,0.1400781423,2024-06-04 14:43:44.406419
6.44690725,-0.1217028722,-0.03914731368,0.09933298081,2024-06-04 14:43:44.446907
6.487395948,-0.06937330216,-0.08388710022,0.2122476846,2024-06-04 14:43:44.487396
6.527884646,-0.01291595027,0.006391398143,0.2940043211,2024-06-04 14:43:44.527885
6.568320844,-0.03768261895,-0.009320789017,0.283085674,2024-06-04 14:43:44.568321
6.608834438,-0.04380770773,-0.01970681176,0.1778939217,2024-06-04 14:43:44.608834
6.649323448,-0.0171768833,-0.03754946589,0.07696308941,2024-06-04 14:43:44.649323
6.689833032,-0.01025286783,-0.05299534276,0.0037283157,2024-06-04 14:43:44.689833
6.730267771,-0.02463351376,-0.1599181145,-0.0868164897,2024-06-04 14:43:44.730268
6.770828917,-0.09400681406,-0.1689725816,-0.2105166763,2024-06-04 14:43:44.770829
6.811314438,-0.1541924775,-0.1161103994,-0.2757622004,2024-06-04 14:43:44.811314
6.851804178,-0.1475347728,0.01358172111,-0.2174406946,2024-06-04 14:43:44.851804
6.892292198,-0.09214265645,0.1022623703,-0.1062569916,2024-06-04 14:43:44.892292
6.932781521,-0.02916075476,0.05299534276,0.004527240526,2024-06-04 14:43:44.932782
6.973244021,0.01557903271,0.0037283157,0.07430000603,2024-06-04 14:43:44.973244
7.013707459,0.04540555924,-0.05139749497,0.07696308941,2024-06-04 14:43:45.013707
7.054191782,0.04886756465,-0.06657706201,0.03621792421,2024-06-04 14:43:45.054192
7.094681469,0.06085143611,-0.06258244067,-0.0146469539,2024-06-04 14:43:45.094681
7.135209073,0.01957365684,-0.0458050184,-0.0074566314,2024-06-04 14:43:45.135209
7.175705271,-0.02516612969,-0.001597849536,0.01544587873,2024-06-04 14:43:45.175705
7.216177563,-0.04087831825,0.01624480449,0.0221035853,2024-06-04 14:43:45.216178
7.256670532,-0.02543243766,-0.02423405088,0.04181039706,2024-06-04 14:43:45.256671
7.297141261,-0.0171768833,-0.08308817446,0.08388710022,2024-06-04 14:43:45.297141
7.337644282,-0.02649767138,-0.2086525112,0.1107842326,2024-06-04 14:43:45.337644
7.378129021,-0.03661738336,-0.1940055639,0.07962616533,2024-06-04 14:43:45.378129
7.418591417,-0.05312849581,-0.09081111848,0.0221035853,2024-06-04 14:43:45.418591
7.459081,-0.04087831825,-0.04953333735,-0.03142437339,2024-06-04 14:43:45.459081
7.499576834,-0.02463351376,0.04260931909,-0.06364767253,2024-06-04 14:43:45.499577
7.540074438,-0.007057168987,0.2079867423,-0.02157096937,2024-06-04 14:43:45.540074
7.580552459,0.1447385401,0.4391423166,0.304390341,2024-06-04 14:43:45.580552
7.621037042,0.2589847744,0.4681699276,0.4942681193,2024-06-04 14:43:45.621037
7.661491678,0.217174381,0.1954702586,0.2825530469,2024-06-04 14:43:45.661492
7.702057198,0.08135717362,-0.03541899845,-0.02077204362,2024-06-04 14:43:45.702057
7.742566417,-0.06351451576,-0.1615159512,-0.2858819067,2024-06-04 14:43:45.742566
7.783052146,-0.1890788674,-0.233951807,-0.5511249304,2024-06-04 14:43:45.783052
7.823544907,-0.2138455361,-0.1748313755,-0.5761579275,2024-06-04 14:43:45.823545
7.864032615,-0.0845528692,-0.04420717061,-0.1649779677,2024-06-04 14:43:45.864033
7.904518761,0.06085143611,0.0929415822,0.2338186502,2024-06-04 14:43:45.904519
7.944995948,0.05845466256,0.09613727778,0.2785584331,2024-06-04 14:43:45.944996
7.985440844,-0.04220985994,0.0146469539,0.1174419373,2024-06-04 14:43:45.985441
8.025935219,-0.1227681041,-0.09693620354,-0.06604444981,2024-06-04 14:43:46.025935
8.066418917,-0.1123820841,-0.1295589656,-0.1386134475,2024-06-04 14:43:46.066419
8.106921,-0.03288906813,-0.06098458916,-0.05858781561,2024-06-04 14:43:46.106921
8.147455219,0.05632419512,0.05033225939,0.05832150951,2024-06-04 14:43:46.147455
8.187944959,0.06644391268,0.07696308941,0.07376738638,2024-06-04 14:43:46.187945
8.228402303,0.02303566411,0.03888100386,0.01038602181,2024-06-04 14:43:46.228402
8.26891074,-0.01185071748,-0.00798924733,-0.04394086078,2024-06-04 14:43:46.268911
8.309401209,-0.01531272475,-0.02343512699,-0.04740286991,2024-06-04 14:43:46.309401
8.349859125,-0.000133154128,0.000266308256,0.0005326165119,2024-06-04 14:43:46.349859
8.390393084,0.007856093347,0.01677742042,0.03435376659,2024-06-04 14:43:46.390393
8.430882823,-0.00599193573,-0.002663082443,0.02370143496,2024-06-04 14:43:46.430883
8.471335167,-0.02250304818,-0.02902759984,-0.002663082443,2024-06-04 14:43:46.471335
8.511806157,-0.02010627277,-0.01837527007,-0.0074566314,2024-06-04 14:43:46.511806
8.552295844,-0.003328853287,0.004527240526,0.006391398143,2024-06-04 14:43:46.552296
8.592782615,0.01291595027,0.02396774292,0.01091863867,2024-06-04 14:43:46.592783
8.633270844,0.009187635034,0.02023942769,0.002396774245,2024-06-04 14:43:46.633271
8.67376225,-0.001464695437,0.002929390874,-0.008788172156,2024-06-04 14:43:46.673762
8.714296782,-0.003062544856,-0.002663082443,-0.006125089712,2024-06-04 14:43:46.714297
8.754794855,0.004394086078,-0.01011971384,0.003195699072,2024-06-04 14:43:46.754795
8.795270323,0.003595161485,-0.02023942769,0.009054481052,2024-06-04 14:43:46.795270
8.835740896,-0.008921326138,0.0007989247679,-0.002396774245,2024-06-04 14:43:46.835741
8.876233813,-0.01318225823,0.0260982085,-0.01384802908,2024-06-04 14:43:46.876234
8.916706417,-0.009720250964,0.03035914153,-0.0117175635,2024-06-04 14:43:46.916706
8.957225792,0.000932078925,0.01091863867,-0.003195699072,2024-06-04 14:43:46.957226
8.997714282,0.009453942999,-0.01225017942,0.003994623665,2024-06-04 14:43:46.997714
9.03815949,0.00599193573,-0.02023942769,0.00186415785,2024-06-04 14:43:47.038159
9.078632459,-0.001997311832,-0.01198387146,0.001065233024,2024-06-04 14:43:47.078632
9.11916975,-0.003595161485,-0.003462007269,0.00186415785,2024-06-04 14:43:47.119170
9.159664073,-0.003595161485,-0.003195699072,0.002929390874,2024-06-04 14:43:47.159664
9.200150584,-0.001464695437,0.002396774245,0.002663082443,2024-06-04 14:43:47.200151
9.240625948,-0.000133154128,0.01091863867,-0.0007989247679,2024-06-04 14:43:47.240626
9.281118553,0.000133154128,0.009853405878,-0.001065233024,2024-06-04 14:43:47.281119
9.32163975,0.00599193573,0.00798924733,-0.0037283157,2024-06-04 14:43:47.321640
9.362110219,0.005193010904,0.005858781748,-0.002396774245,2024-06-04 14:43:47.362110
9.402600323,0.003062544856,-0.000266308256,-0.002130466048,2024-06-04 14:43:47.402600
9.443089698,0.000932078925,-0.002929390874,-0.00186415785,2024-06-04 14:43:47.443090
9.483579073,-0.001198387123,-0.004527240526,-0.00186415785,2024-06-04 14:43:47.483579
9.524068448,-0.001731003635,0.000266308256,-0.003994623665,2024-06-04 14:43:47.524068
9.564557771,-0.001198387123,0.005326164886,-0.005592473317,2024-06-04 14:43:47.564558
9.605047146,0.000133154128,0.002130466048,-0.002929390874,2024-06-04 14:43:47.605047
9.645506678,0.001997311832,-0.001331541222,-0.001065233024,2024-06-04 14:43:47.645507
9.686005167,0.004926702939,0.000266308256,-0.003462007269,2024-06-04 14:43:47.686005
9.726494438,-0.002263620263,-0.009587096982,-0.007722939365,2024-06-04 14:43:47.726494
9.766980584,-0.01344856713,-0.01331541315,-0.01784265228,2024-06-04 14:43:47.766981
9.807475375,-0.0171768833,-0.006924014539,-0.02263620123,2024-06-04 14:43:47.807475
9.847982407,-0.01344856713,-0.006924014539,-0.02023942769,2024-06-04 14:43:47.847982
9.888478969,-0.004660394508,-0.008521864191,-0.01011971384,2024-06-04 14:43:47.888479
9.928968136,0.005193010904,0.001331541222,0.006391398143,2024-06-04 14:43:47.928968
9.969457303,0.005193010904,0.005059856921,0.006924014539,2024-06-04 14:43:47.969457
10.00994647,0.003861469682,0.005326164886,0.002663082443,2024-06-04 14:43:48.009946
10.0504236,0.01158440951,0.006924014539,0.003462007269,2024-06-04 14:43:48.050424
10.09090678,0.01824211515,0.01331541315,0.0074566314,2024-06-04 14:43:48.090907
10.13139595,0.02010627277,0.0,-0.001065233024,2024-06-04 14:43:48.131396
10.17194548,0.007856093347,0.001065233024,-0.009587096982,2024-06-04 14:43:48.171945
10.21239381,-0.008655018173,-0.005592473317,-0.004793548491,2024-06-04 14:43:48.212394
10.25289371,-0.005725627299,0.0005326165119,0.005858781748,2024-06-04 14:43:48.252894
10.29338491,-0.003328853287,0.001597849536,0.01438064594,2024-06-04 14:43:48.293385
10.33387189,-0.0003994623839,-0.0007989247679,0.006391398143,2024-06-04 14:43:48.333872
10.37435303,0.003062544856,-0.001331541222,-0.007722939365,2024-06-04 14:43:48.374353
10.41483105,0.000932078925,0.0005326165119,-0.008788172156,2024-06-04 14:43:48.414831
10.45532006,-0.002263620263,0.002396774245,0.001331541222,2024-06-04 14:43:48.455320
10.49580913,-0.004127778113,0.0007989247679,0.006125089712,2024-06-04 14:43:48.495809
10.53629819,-0.005459319334,-0.004793548491,0.0005326165119,2024-06-04 14:43:48.536298
10.576751,0.001198387123,-0.007722939365,-0.003462007269,2024-06-04 14:43:48.576751
10.61722355,-0.001198387123,-0.005326164886,0.001331541222,2024-06-04 14:43:48.617224
10.65776751,-0.001464695437,0.004793548491,0.002130466048,2024-06-04 14:43:48.657768
10.69825652,-0.002796236658,0.002929390874,0.003195699072,2024-06-04 14:43:48.698257
10.73875574,0.0006657706108,0.002663082443,-0.0005326165119,2024-06-04 14:43:48.738756
10.77922996,0.0006657706108,0.005326164886,-0.0005326165119,2024-06-04 14:43:48.779230
10.81972944,0.001198387123,0.003195699072,0.002396774245,2024-06-04 14:43:48.819729
10.86022006,-0.002263620263,0.0,0.002396774245,2024-06-04 14:43:48.860220
10.90068366,-0.003328853287,-0.002396774245,0.003462007269,2024-06-04 14:43:48.900684
10.94122345,-0.002796236658,-0.00186415785,0.002396774245,2024-06-04 14:43:48.941223
10.98171293,-0.001198387123,-0.003462007269,-0.000266308256,2024-06-04 14:43:48.981713
11.02213564,0.000133154128,-0.002130466048,-0.002929390874,2024-06-04 14:43:49.022136
11.06262407,-0.0003994623839,-0.00186415785,-0.003462007269,2024-06-04 14:43:49.062624
11.10311355,0.0006657706108,0.0007989247679,-0.001331541222,2024-06-04 14:43:49.103114
11.1436209,0.0003994623839,-0.0005326165119,-0.0007989247679,2024-06-04 14:43:49.143621
11.18412709,-0.0006657706108,0.002663082443,-0.002130466048,2024-06-04 14:43:49.184127
11.22463142,0.000133154128,-0.0007989247679,-0.00186415785,2024-06-04 14:43:49.224631
11.26512199,0.003595161485,-0.004527240526,-0.0037283157,2024-06-04 14:43:49.265122
11.30561131,-0.0003994623839,-0.001065233024,-0.0005326165119,2024-06-04 14:43:49.305611
11.34607803,-0.003328853287,0.004260932095,0.0,2024-06-04 14:43:49.346078
11.38653522,-0.003595161485,0.001597849536,0.002396774245,2024-06-04 14:43:49.386535
11.4270136,0.001464695437,0.002929390874,-0.001065233024,2024-06-04 14:43:49.427014
11.46750142,0.002263620263,0.005858781748,-0.001065233024,2024-06-04 14:43:49.467501
11.50799376,0.001731003635,0.003195699072,0.0007989247679,2024-06-04 14:43:49.507994
11.54849595,-0.000932078925,-0.0005326165119,0.002396774245,2024-06-04 14:43:49.548496
11.5889986,-0.001464695437,-0.0037283157,0.00186415785,2024-06-04 14:43:49.588999
11.62948053,-0.002796236658,-0.004527240526,-0.000266308256,2024-06-04 14:43:49.629481
11.66996194,-0.002796236658,-0.005059856921,-0.002396774245,2024-06-04 14:43:49.669962
11.71048267,-0.000133154128,-0.004527240526,-0.002130466048,2024-06-04 14:43:49.710483
11.7509472,0.0003994623839,-0.002396774245,-0.001597849536,2024-06-04 14:43:49.750947
11.79143621,0.0003994623839,0.001331541222,-0.002929390874,2024-06-04 14:43:49.791436
11.83197251,0.001198387123,0.0,-0.001065233024,2024-06-04 14:43:49.831973
11.87246152,-0.0003994623839,0.002396774245,-0.001597849536,2024-06-04 14:43:49.872462
11.91295121,0.000133154128,0.002663082443,-0.001065233024,2024-06-04 14:43:49.912951
11.95342772,0.001997311832,-0.002929390874,-0.000266308256,2024-06-04 14:43:49.953428
11.99391683,-0.006258244161,-0.008521864191,0.0074566314,2024-06-04 14:43:49.993917
12.0344059,-0.006258244161,-0.0074566314,0.006391398143,2024-06-04 14:43:50.034406
12.07485694,0.000932078925,0.005059856921,-0.006657706574,2024-06-04 14:43:50.074857
12.115346,0.01185071748,-0.0074566314,-0.01038602181,2024-06-04 14:43:50.115346
12.15585314,0.003595161485,-0.009320789017,0.001331541222,2024-06-04 14:43:50.155853
12.19635678,-0.01051917579,0.01198387146,0.01917419396,2024-06-04 14:43:50.196357
12.23686137,-0.01611164957,0.02529928461,0.0260982085,2024-06-04 14:43:50.236861
12.27738569,-0.007856093347,0.009587096982,0.02796236612,2024-06-04 14:43:50.277386
12.31787475,0.002263620263,-0.01225017942,0.01571218669,2024-06-04 14:43:50.317875
12.35827314,0.001464695437,-0.0221035853,-0.001331541222,2024-06-04 14:43:50.358273
12.39879803,0.000133154128,-0.02130465955,-0.01278279629,2024-06-04 14:43:50.398798
12.43928709,0.000932078925,-0.006391398143,-0.01198387146,2024-06-04 14:43:50.439287
12.47977584,0.004127778113,0.008255556226,-0.004260932095,2024-06-04 14:43:50.479776
12.52026475,0.000133154128,0.008255556226,-0.001065233024,2024-06-04 14:43:50.520265
12.56071923,-0.002796236658,0.01118494663,-0.004260932095,2024-06-04 14:43:50.560719
12.60121131,-0.000932078925,0.007190322969,-0.002130466048,2024-06-04 14:43:50.601211
12.64170017,0.006258244161,0.005059856921,-0.005858781748,2024-06-04 14:43:50.641700
12.68225376,0.007323476952,-0.0037283157,-0.0114512546,2024-06-04 14:43:50.682254
12.72270907,0.003062544856,-0.003994623665,-0.01331541315,2024-06-04 14:43:50.722709
12.76321543,0.000932078925,-0.003462007269,-0.01038602181,2024-06-04 14:43:50.763215
12.80371595,0.002796236658,-0.002396774245,-0.004527240526,2024-06-04 14:43:50.803716
12.84418095,0.002263620263,-0.0005326165119,0.0,2024-06-04 14:43:50.844181
12.88468319,-0.003062544856,-0.001065233024,0.002130466048,2024-06-04 14:43:50.884683
12.92518022,-0.006524552125,0.008788172156,0.002929390874,2024-06-04 14:43:50.925180
12.96566058,-0.002263620263,0.005326164886,0.004793548491,2024-06-04 14:43:50.965661
13.00613381,0.003328853287,-0.001065233024,-0.0005326165119,2024-06-04 14:43:51.006134
13.0465922,0.005193010904,-0.002396774245,-0.004793548491,2024-06-04 14:43:51.046592
13.0870835,0.0003994623839,-0.0007989247679,-0.003994623665,2024-06-04 14:43:51.087084
13.12759178,-0.001997311832,0.001065233024,-0.002130466048,2024-06-04 14:43:51.127592
13.16811933,-0.003595161485,-0.001065233024,0.002929390874,2024-06-04 14:43:51.168119
13.2086135,-0.001731003635,0.002663082443,0.001331541222,2024-06-04 14:43:51.208614
13.24910355,-0.002529928461,0.001597849536,-0.0007989247679,2024-06-04 14:43:51.249104
13.28957376,0.003062544856,0.007190322969,-0.005858781748,2024-06-04 14:43:51.289574
13.33004642,0.003595161485,0.005059856921,-0.006924014539,2024-06-04 14:43:51.330046
13.37051413,0.000133154128,0.003994623665,-0.0037283157,2024-06-04 14:43:51.370514
13.41102001,-0.001198387123,0.006657706574,-0.0037283157,2024-06-04 14:43:51.411020
13.45150907,-0.0006657706108,0.004793548491,-0.002663082443,2024-06-04 14:43:51.451509
13.49199741,0.0003994623839,0.006391398143,-0.002396774245,2024-06-04 14:43:51.491997
13.53247772,-0.0003994623839,0.005858781748,-0.000266308256,2024-06-04 14:43:51.532478
13.57296647,0.000932078925,0.004527240526,0.001331541222,2024-06-04 14:43:51.572966
13.61343918,-0.000133154128,-0.001331541222,0.00186415785,2024-06-04 14:43:51.613439
13.65393407,0.0003994623839,-0.002130466048,-0.0005326165119,2024-06-04 14:43:51.653934
13.69446303,-0.000133154128,-0.002663082443,-0.001597849536,2024-06-04 14:43:51.694463
13.73493183,-0.001198387123,-0.002929390874,-0.003195699072,2024-06-04 14:43:51.734932
13.77542131,-0.001198387123,-0.00186415785,-0.003994623665,2024-06-04 14:43:51.775421
13.81592439,-0.001997311832,-0.0007989247679,-0.002396774245,2024-06-04 14:43:51.815924
13.85642475,-0.0006657706108,-0.001331541222,-0.0005326165119,2024-06-04 14:43:51.856425
13.89688548,0.000133154128,0.00186415785,0.001597849536,2024-06-04 14:43:51.896885
13.9373998,0.001198387123,-0.001597849536,0.00186415785,2024-06-04 14:43:51.937400
13.97790137,0.002529928461,-0.002130466048,-0.003462007269,2024-06-04 14:43:51.977901
14.01839808,-0.0006657706108,-0.001331541222,-0.002663082443,2024-06-04 14:43:52.018398
14.05886845,-0.004394086078,0.0,-0.000266308256,2024-06-04 14:43:52.058868
14.09934626,-0.003595161485,-0.0005326165119,0.004527240526,2024-06-04 14:43:52.099346
14.13982486,0.001464695437,0.0007989247679,-0.000266308256,2024-06-04 14:43:52.139825
14.18031949,0.002263620263,0.003195699072,-0.001331541222,2024-06-04 14:43:52.180319
14.22080871,0.001997311832,0.005059856921,-0.000266308256,2024-06-04 14:43:52.220809
14.26131751,-0.0006657706108,0.00186415785,0.001065233024,2024-06-04 14:43:52.261318
14.30181699,-0.002263620263,-0.002929390874,0.0,2024-06-04 14:43:52.301817
14.34230027,-0.001997311832,-0.004527240526,-0.002929390874,2024-06-04 14:43:52.342300
14.38276678,-0.001997311832,-0.007190322969,-0.002663082443,2024-06-04 14:43:52.382767
14.42324584,0.000932078925,-0.003462007269,-0.0037283157,2024-06-04 14:43:52.423246
14.46373084,0.001198387123,-0.0007989247679,-0.002663082443,2024-06-04 14:43:52.463731
14.50421194,-0.001997311832,0.002130466048,0.002396774245,2024-06-04 14:43:52.504212
14.54470084,-0.008388710208,0.003462007269,0.007190322969,2024-06-04 14:43:52.544701
14.58518975,-0.007057168987,0.0007989247679,0.005059856921,2024-06-04 14:43:52.585190
14.62567861,-0.000133154128,-0.002929390874,-0.002396774245,2024-06-04 14:43:52.625679
14.66628017,0.009720250964,-0.0221035853,-0.0074566314,2024-06-04 14:43:52.666280
14.70663012,0.008655018173,-0.01784265228,-0.005858781748,2024-06-04 14:43:52.706630
14.74717084,-0.004127778113,0.002396774245,0.0037283157,2024-06-04 14:43:52.747171
14.78763996,-0.01051917579,0.01278279629,0.01384802908,2024-06-04 14:43:52.787640
14.82814741,-0.001731003635,0.006391398143,0.01198387146,2024-06-04 14:43:52.828147
14.86863642,0.007057168987,-0.0037283157,0.007722939365,2024-06-04 14:43:52.868636
14.90915095,0.006524552125,-0.004260932095,0.002396774245,2024-06-04 14:43:52.909151
14.94964048,0.000932078925,-0.001597849536,-0.0005326165119,2024-06-04 14:43:52.949640
14.99009772,-0.001731003635,0.001065233024,-0.006924014539,2024-06-04 14:43:52.990098
15.03057387,-0.002263620263,-0.004793548491,-0.01065232977,2024-06-04 14:43:53.030574
15.07108782,-0.000133154128,-0.006391398143,-0.0114512546,2024-06-04 14:43:53.071088
15.11157736,-0.0003994623839,0.001331541222,-0.01198387146,2024-06-04 14:43:53.111577
15.15203147,0.0006657706108,0.008788172156,-0.01011971384,2024-06-04 14:43:53.152031
15.19256876,0.001464695437,0.01225017942,-0.01038602181,2024-06-04 14:43:53.192569
15.23307288,0.004660394508,-0.001065233024,-0.01011971384,2024-06-04 14:43:53.233073
15.27356361,0.005193010904,-0.005858781748,-0.008788172156,2024-06-04 14:43:53.273564
15.31401428,0.003328853287,-0.006924014539,-0.006657706574,2024-06-04 14:43:53.314014
15.35453741,-0.001464695437,-0.008788172156,-0.0007989247679,2024-06-04 14:43:53.354537
15.39500579,-0.006524552125,-0.002663082443,0.006657706574,2024-06-04 14:43:53.395006
15.43547808,-0.004926702939,-0.000266308256,0.008788172156,2024-06-04 14:43:53.435478
15.47595069,-0.0006657706108,0.002396774245,0.0074566314,2024-06-04 14:43:53.475951
15.51643553,0.004926702939,0.01757634431,-0.002396774245,2024-06-04 14:43:53.516436
15.55692433,0.002796236658,0.02103835158,-0.003462007269,2024-06-04 14:43:53.556924
15.59745912,-0.0006657706108,0.009853405878,0.0005326165119,2024-06-04 14:43:53.597459
15.63795272,-0.000932078925,-0.005592473317,0.005326164886,2024-06-04 14:43:53.637953
15.67840064,-0.0006657706108,-0.01651111245,0.004793548491,2024-06-04 14:43:53.678401
15.71892262,-0.003062544856,-0.01837527007,0.002130466048,2024-06-04 14:43:53.718923
15.75942308,-0.005459319334,-0.008521864191,-0.000266308256,2024-06-04 14:43:53.759423
15.79990996,-0.003595161485,0.005326164886,-0.002396774245,2024-06-04 14:43:53.799910
15.84038772,-0.0003994623839,0.01065232977,-0.000266308256,2024-06-04 14:43:53.840388
15.88086918,0.001198387123,0.01118494663,0.00186415785,2024-06-04 14:43:53.880869
15.92136725,0.003062544856,0.002929390874,0.000266308256,2024-06-04 14:43:53.921367
15.96187569,0.001198387123,-0.003994623665,0.002396774245,2024-06-04 14:43:53.961876
16.00234636,-0.000133154128,-0.0114512546,0.0007989247679,2024-06-04 14:43:54.002346
16.04279819,-0.002529928461,-0.009853405878,-0.0005326165119,2024-06-04 14:43:54.042798
16.08328741,-0.007323476952,-0.001597849536,0.001065233024,2024-06-04 14:43:54.083287
16.12378506,-0.005193010904,0.008788172156,0.002929390874,2024-06-04 14:43:54.123785
16.1642922,0.001464695437,0.001331541222,0.002929390874,2024-06-04 14:43:54.164292
16.20480064,0.007323476952,-0.000266308256,-0.003994623665,2024-06-04 14:43:54.204801
16.24530288,0.003595161485,0.003195699072,-0.003462007269,2024-06-04 14:43:54.245303
16.28576814,-0.002796236658,0.008255556226,0.000266308256,2024-06-04 14:43:54.285768
16.32625793,-0.006258244161,0.003462007269,0.0037283157,2024-06-04 14:43:54.326258
16.3667036,-0.002263620263,-0.002929390874,0.00186415785,2024-06-04 14:43:54.366704
16.40720907,-0.000932078925,-0.006657706574,0.0,2024-06-04 14:43:54.407209
16.44769756,0.000133154128,-0.0037283157,-0.002130466048,2024-06-04 14:43:54.447698
16.48818631,-0.0006657706108,-0.0007989247679,-0.0007989247679,2024-06-04 14:43:54.488186
16.52866329,-0.0003994623839,-0.004527240526,-0.000266308256,2024-06-04 14:43:54.528663
16.56922553,-0.002796236658,-0.004793548491,-0.0005326165119,2024-06-04 14:43:54.569226
16.60970558,-0.001997311832,0.002130466048,-0.001331541222,2024-06-04 14:43:54.609706
16.65019584,0.000133154128,0.002663082443,-0.001597849536,2024-06-04 14:43:54.650196
16.69065991,0.003062544856,0.0,-0.002396774245,2024-06-04 14:43:54.690660
16.73115168,0.002263620263,-0.0007989247679,-0.00186415785,2024-06-04 14:43:54.731152
16.77166642,-0.002529928461,-0.00186415785,-0.0007989247679,2024-06-04 14:43:54.771666
16.81215439,-0.003328853287,0.002929390874,0.0,2024-06-04 14:43:54.812154
16.85264491,-0.000932078925,-0.001065233024,0.003195699072,2024-06-04 14:43:54.852645
16.89313251,0.005725627299,-0.000266308256,-0.00186415785,2024-06-04 14:43:54.893133
16.93361262,0.002529928461,0.002396774245,-0.002929390874,2024-06-04 14:43:54.933613
16.97409751,-0.001997311832,0.004260932095,-0.000266308256,2024-06-04 14:43:54.974098
17.01458689,-0.004127778113,0.002130466048,0.00186415785,2024-06-04 14:43:55.014587
17.05507631,-0.000932078925,-0.003994623665,0.0,2024-06-04 14:43:55.055076
17.09556574,-0.0006657706108,-0.003462007269,-0.003195699072,2024-06-04 14:43:55.095566
17.13604246,0.000133154128,-0.0005326165119,-0.001331541222,2024-06-04 14:43:55.136042
17.17651506,0.001731003635,-0.001597849536,-0.001065233024,2024-06-04 14:43:55.176515
17.21698475,0.001731003635,-0.00186415785,-0.002130466048,2024-06-04 14:43:55.216985
17.25751314,0.001198387123,-0.0005326165119,-0.003462007269,2024-06-04 14:43:55.257513
17.29804881,-0.000133154128,0.000266308256,-0.001331541222,2024-06-04 14:43:55.298049
17.33848402,-0.0003994623839,0.0,-0.001597849536,2024-06-04 14:43:55.338484
17.37898069,0.0003994623839,0.0,-0.001597849536,2024-06-04 14:43:55.378981
17.41948449,0.003861469682,-0.002396774245,-0.003462007269,2024-06-04 14:43:55.419484
17.45997397,0.001997311832,-0.002130466048,-0.003195699072,2024-06-04 14:43:55.459974
17.50044621,0.002529928461,0.002663082443,-0.00186415785,2024-06-04 14:43:55.500446
17.54090043,0.006524552125,0.002663082443,-0.004260932095,2024-06-04 14:43:55.540900
17.5813884,0.009187635034,-0.0037283157,-0.009054481052,2024-06-04 14:43:55.581388
17.62188017,0.005459319334,0.00186415785,-0.006924014539,2024-06-04 14:43:55.621880
17.66237501,-0.002796236658,0.002929390874,0.0007989247679,2024-06-04 14:43:55.662375
17.7029059,-0.004660394508,0.0037283157,0.005592473317,2024-06-04 14:43:55.702906
17.74340657,-0.002529928461,-0.003462007269,0.003462007269,2024-06-04 14:43:55.743407
17.78389439,0.000932078925,-0.000266308256,0.000266308256,2024-06-04 14:43:55.783894
17.8243847,0.0003994623839,0.0005326165119,-0.003462007269,2024-06-04 14:43:55.824385
17.86487324,0.001198387123,0.002130466048,-0.005059856921,2024-06-04 14:43:55.864873
17.90536303,-0.001198387123,-0.002396774245,-0.001331541222,2024-06-04 14:43:55.905363
17.94583647,-0.002796236658,-0.002130466048,-0.0005326165119,2024-06-04 14:43:55.945836
17.98632579,-0.003062544856,-0.002396774245,0.0,2024-06-04 14:43:55.986326
18.02678319,-0.0003994623839,-0.001065233024,0.001065233024,2024-06-04 14:43:56.026783
18.06727246,-0.0003994623839,-0.000266308256,0.0007989247679,2024-06-04 14:43:56.067272
18.10776173,0.001731003635,-0.0005326165119,0.0,2024-06-04 14:43:56.107762
18.14829912,-0.002529928461,-0.0007989247679,0.002130466048,2024-06-04 14:43:56.148299
18.18871454,-0.002263620263,0.00186415785,0.001331541222,2024-06-04 14:43:56.188715
18.22928412,-0.002263620263,-0.000266308256,0.0007989247679,2024-06-04 14:43:56.229284
18.26976157,-0.000932078925,-0.000266308256,-0.0007989247679,2024-06-04 14:43:56.269762
18.31026204,-0.000133154128,0.0007989247679,-0.0005326165119,2024-06-04 14:43:56.310262
18.35069012,-0.0006657706108,0.003195699072,0.001597849536,2024-06-04 14:43:56.350690
18.39124027,-0.001997311832,0.0007989247679,0.002130466048,2024-06-04 14:43:56.391240
18.43172959,-0.000133154128,-0.00186415785,-0.001065233024,2024-06-04 14:43:56.431730
18.47217694,-0.000133154128,-0.002130466048,-0.002663082443,2024-06-04 14:43:56.472177
18.5126459,-0.001464695437,-0.002929390874,-0.00186415785,2024-06-04 14:43:56.512646
18.55313923,-0.003062544856,-0.002929390874,-0.0005326165119,2024-06-04 14:43:56.553139
18.59363001,-0.002529928461,-0.002396774245,-0.0005326165119,2024-06-04 14:43:56.593630
18.63411866,0.000133154128,-0.001065233024,0.0,2024-06-04 14:43:56.634119
18.67459038,0.000932078925,0.002396774245,-0.0005326165119,2024-06-04 14:43:56.674590
18.71514147,-0.0003994623839,0.00186415785,0.000266308256,2024-06-04 14:43:56.715141
18.75563209,-0.001464695437,-0.000266308256,-0.0005326165119,2024-06-04 14:43:56.755632
18.79611199,0.000133154128,-0.0005326165119,-0.0005326165119,2024-06-04 14:43:56.796112
18.83661428,-0.0003994623839,-0.003195699072,-0.001597849536,2024-06-04 14:43:56.836614
18.87708829,-0.001464695437,0.000266308256,0.001597849536,2024-06-04 14:43:56.877088
18.91754131,-0.002529928461,0.002396774245,0.00186415785,2024-06-04 14:43:56.917541
18.95803001,0.000133154128,-0.001597849536,0.001597849536,2024-06-04 14:43:56.958030
18.99851886,0.001464695437,0.004260932095,-0.002130466048,2024-06-04 14:43:56.998519
19.03902272,0.0006657706108,0.002929390874,-0.001065233024,2024-06-04 14:43:57.039023
19.07952912,-0.001731003635,0.003462007269,0.00186415785,2024-06-04 14:43:57.079529
19.11999303,-0.001997311832,-0.000266308256,0.002663082443,2024-06-04 14:43:57.119993
19.16045689,-0.000133154128,-0.00186415785,0.0,2024-06-04 14:43:57.160457
19.2010136,-0.0006657706108,-0.003195699072,-0.001065233024,2024-06-04 14:43:57.201014
19.24150611,0.0003994623839,-0.002663082443,-0.0007989247679,2024-06-04 14:43:57.241506
19.2819985,0.000133154128,-0.00186415785,-0.002396774245,2024-06-04 14:43:57.281999
19.3224884,0.000133154128,0.001331541222,-0.0037283157,2024-06-04 14:43:57.322488
19.36297814,0.000133154128,-0.001331541222,-0.005326164886,2024-06-04 14:43:57.362978
19.40341798,-0.0003994623839,-0.006125089712,-0.000266308256,2024-06-04 14:43:57.403418
19.44390678,-0.005193010904,0.000266308256,0.00186415785,2024-06-04 14:43:57.443907
19.48440215,-0.003328853287,0.002396774245,0.002396774245,2024-06-04 14:43:57.484402
19.52487668,0.004926702939,-0.005592473317,-0.0007989247679,2024-06-04 14:43:57.524877
19.56536746,0.001997311832,-0.003195699072,-0.001331541222,2024-06-04 14:43:57.565367
19.60585652,-0.001997311832,0.008255556226,0.000266308256,2024-06-04 14:43:57.605857
19.64634564,-0.0006657706108,0.002663082443,-0.000266308256,2024-06-04 14:43:57.646346
19.68686277,0.001731003635,0.001065233024,-0.001597849536,2024-06-04 14:43:57.686863
19.72735689,-0.000932078925,0.003994623665,-0.00186415785,2024-06-04 14:43:57.727357
19.76785084,-0.002263620263,0.001331541222,0.001065233024,2024-06-04 14:43:57.767851
19.80831876,-0.001464695437,-0.002130466048,0.002663082443,2024-06-04 14:43:57.808319
19.84879704,0.001198387123,-0.0037283157,0.004793548491,2024-06-04 14:43:57.848797
19.88932334,-0.002529928461,0.00186415785,0.002130466048,2024-06-04 14:43:57.889323
19.92983105,0.0006657706108,0.0005326165119,-0.001331541222,2024-06-04 14:43:57.929831
19.97028407,0.002263620263,-0.002396774245,-0.004260932095,2024-06-04 14:43:57.970284
20.0107485,0.000133154128,0.0007989247679,-0.004260932095,2024-06-04 14:43:58.010748
20.05124605,-0.002529928461,0.00186415785,-0.004793548491,2024-06-04 14:43:58.051246
20.09173277,-0.001464695437,-0.002663082443,-0.002663082443,2024-06-04 14:43:58.091733
20.13226256,-0.001731003635,-0.003195699072,-0.00186415785,2024-06-04 14:43:58.132263
20.17276793,0.000133154128,-0.006391398143,0.000266308256,2024-06-04 14:43:58.172768
20.21324741,0.0006657706108,-0.00798924733,0.001065233024,2024-06-04 14:43:58.213247
20.2537409,-0.001198387123,0.003195699072,0.002929390874,2024-06-04 14:43:58.253741
20.29423079,0.000133154128,0.008521864191,0.001597849536,2024-06-04 14:43:58.294231
20.33472225,0.004127778113,0.006924014539,-0.0007989247679,2024-06-04 14:43:58.334722
20.37520673,0.007057168987,0.003994623665,-0.004527240526,2024-06-04 14:43:58.375207
20.4156923,0.001198387123,0.003994623665,-0.002663082443,2024-06-04 14:43:58.415692
20.45618116,-0.005725627299,0.0,0.0007989247679,2024-06-04 14:43:58.456181
20.49667038,-0.007589785382,-0.005858781748,0.002929390874,2024-06-04 14:43:58.496670
20.5371634,-0.003062544856,-0.00798924733,0.00186415785,2024-06-04 14:43:58.537163
20.57765355,-0.0003994623839,-0.004793548491,0.001597849536,2024-06-04 14:43:58.577654
20.61812746,0.002796236658,0.00186415785,-0.001331541222,2024-06-04 14:43:58.618127
20.65857397,0.002529928461,0.002929390874,-0.002663082443,2024-06-04 14:43:58.658574
20.69912048,0.002263620263,0.002130466048,-0.001597849536,2024-06-04 14:43:58.699120
20.73962183,-0.001997311832,-0.001331541222,-0.003994623665,2024-06-04 14:43:58.739622
20.78010136,-0.002263620263,-0.0037283157,-0.002396774245,2024-06-04 14:43:58.780101
20.82056105,-0.002263620263,-0.002663082443,-0.001065233024,2024-06-04 14:43:58.820561
20.86106001,0.0003994623839,-0.002130466048,-0.002396774245,2024-06-04 14:43:58.861060
20.90157256,0.0006657706108,-0.0007989247679,0.0005326165119,2024-06-04 14:43:58.901573
20.94201595,0.0003994623839,0.002130466048,-0.001597849536,2024-06-04 14:43:58.942016
20.98251262,0.0006657706108,0.004260932095,0.0,2024-06-04 14:43:58.982513
21.02299439,0.002529928461,-0.001597849536,-0.00186415785,2024-06-04 14:43:59.022994
21.06348376,0.002529928461,-0.0007989247679,-0.003195699072,2024-06-04 14:43:59.063484
21.10396428,-0.001731003635,0.0,-0.00186415785,2024-06-04 14:43:59.103964
21.14450668,-0.002529928461,0.001331541222,0.000266308256,2024-06-04 14:43:59.144507
21.18499277,0.0003994623839,-0.001065233024,-0.002130466048,2024-06-04 14:43:59.184993
21.22548069,0.003861469682,-0.001065233024,-0.005059856921,2024-06-04 14:43:59.225481
21.26596038,0.002529928461,-0.002130466048,-0.002929390874,2024-06-04 14:43:59.265960
21.30641621,-0.0003994623839,0.002130466048,-0.002663082443,2024-06-04 14:43:59.306416
21.34689819,-0.0003994623839,0.002130466048,-0.002396774245,2024-06-04 14:43:59.346898
21.38740782,0.0003994623839,0.000266308256,-0.003195699072,2024-06-04 14:43:59.387408
21.42790621,-0.0003994623839,-0.002396774245,-0.003195699072,2024-06-04 14:43:59.427906
21.46837631,-0.0003994623839,-0.002130466048,-0.002130466048,2024-06-04 14:43:59.468376
21.50885584,0.001997311832,-0.001597849536,-0.0005326165119,2024-06-04 14:43:59.508856
21.5493497,0.002529928461,-0.003462007269,0.0005326165119,2024-06-04 14:43:59.549350
21.5898384,0.000133154128,-0.000266308256,0.0,2024-06-04 14:43:59.589838
21.63032324,-0.002263620263,0.006657706574,-0.000266308256,2024-06-04 14:43:59.630323
21.67083209,0.0006657706108,0.004527240526,-0.0005326165119,2024-06-04 14:43:59.670832
21.71136277,0.005193010904,0.003462007269,-0.002130466048,2024-06-04 14:43:59.711363
21.75185012,-0.0006657706108,-0.003462007269,0.001597849536,2024-06-04 14:43:59.751850
21.79233928,-0.003861469682,-0.005326164886,0.00186415785,2024-06-04 14:43:59.792339
21.8328297,-0.005725627299,0.001065233024,0.003462007269,2024-06-04 14:43:59.832830
21.87331933,-0.000932078925,0.002929390874,-0.001065233024,2024-06-04 14:43:59.873319
21.91380803,0.0003994623839,-0.002130466048,-0.00186415785,2024-06-04 14:43:59.913808
21.95428532,0.000932078925,-0.0007989247679,0.0005326165119,2024-06-04 14:43:59.954285
21.99477543,-0.003062544856,-0.000266308256,0.004793548491,2024-06-04 14:43:59.994775
22.03526548,-0.004926702939,0.004793548491,0.001331541222,2024-06-04 14:44:00.035265
22.07571793,-0.004127778113,-0.001331541222,-0.001065233024,2024-06-04 14:44:00.075718
22.11619512,0.000133154128,-0.005059856921,0.0,2024-06-04 14:44:00.116195
22.1567459,0.001198387123,-0.007190322969,0.000266308256,2024-06-04 14:44:00.156746
22.19718412,0.000133154128,-0.001065233024,-0.001065233024,2024-06-04 14:44:00.197184
22.23767418,-0.005459319334,0.004793548491,0.0005326165119,2024-06-04 14:44:00.237674
22.27815006,-0.000932078925,0.00186415785,0.001597849536,2024-06-04 14:44:00.278150
22.31864017,0.000932078925,-0.005858781748,0.004260932095,2024-06-04 14:44:00.318640
22.35913022,0.000133154128,0.003195699072,0.0007989247679,2024-06-04 14:44:00.359130
22.39965538,-0.000932078925,0.003195699072,-0.001597849536,2024-06-04 14:44:00.399655
22.44014548,-0.001997311832,0.003994623665,-0.0007989247679,2024-06-04 14:44:00.440145
22.48060704,-0.003062544856,0.003462007269,-0.002396774245,2024-06-04 14:44:00.480607
22.52108694,0.001997311832,-0.003462007269,-0.006924014539,2024-06-04 14:44:00.521087
22.56157819,-0.0003994623839,-0.005326164886,-0.005326164886,2024-06-04 14:44:00.561578
22.602076,-0.003595161485,-0.003994623665,-0.001331541222,2024-06-04 14:44:00.602076
22.6425747,-0.002263620263,-0.005858781748,0.0037283157,2024-06-04 14:44:00.642575
22.68308032,0.003062544856,-0.01384802908,0.0114512546,2024-06-04 14:44:00.683080
22.72359121,0.01691057347,-0.03248960897,0.01278279629,2024-06-04 14:44:00.723591
22.76408512,0.02276935615,-0.01837527007,0.0074566314,2024-06-04 14:44:00.764085
22.80457381,0.008655018173,0.02876129188,-0.005326164886,2024-06-04 14:44:00.804574
22.84506402,-0.001997311832,0.0298265256,-0.005858781748,2024-06-04 14:44:00.845064
22.88553308,-0.008122402243,0.01944050193,-0.004527240526,2024-06-04 14:44:00.885533
22.92601746,-0.01131810062,-0.01038602181,-0.005326164886,2024-06-04 14:44:00.926017
22.96650392,-0.01318225823,-0.0181089621,0.002130466048,2024-06-04 14:44:00.966504
23.00696621,-0.009187635034,-0.01864157803,0.006657706574,2024-06-04 14:44:01.006966
23.04745548,-0.000133154128,-0.01251648832,0.007190322969,2024-06-04 14:44:01.047455
23.0879448,0.006258244161,-0.004260932095,0.002929390874,2024-06-04 14:44:01.087945
23.12845371,0.002796236658,0.009320789017,-0.006657706574,2024-06-04 14:44:01.128454
23.16896256,-0.004660394508,0.0260982085,-0.008788172156,2024-06-04 14:44:01.168963
23.20944288,-0.006524552125,0.02077204362,-0.004793548491,2024-06-04 14:44:01.209443
23.2499322,-0.000932078925,0.005592473317,0.0005326165119,2024-06-04 14:44:01.249932
23.29044975,0.0006657706108,-0.008521864191,-0.0007989247679,2024-06-04 14:44:01.290450
23.33087704,0.000133154128,-0.005059856921,-0.005059856921,2024-06-04 14:44:01.330877
23.37136626,-0.001997311832,-0.005059856921,-0.005059856921,2024-06-04 14:44:01.371366
23.41191486,-0.003062544856,-0.004260932095,-0.004260932095,2024-06-04 14:44:01.411915
23.45240418,-0.001198387123,-0.009587096982,-0.001597849536,2024-06-04 14:44:01.452404
23.49289345,-0.0003994623839,-0.0007989247679,0.001331541222,2024-06-04 14:44:01.492893
23.53332975,0.000133154128,0.01091863867,0.00186415785,2024-06-04 14:44:01.533330
23.57381897,0.003861469682,0.005592473317,0.002663082443,2024-06-04 14:44:01.573819
23.61430829,-0.0003994623839,-0.002929390874,0.003195699072,2024-06-04 14:44:01.614308
23.65480126,-0.007589785382,0.0037283157,0.003195699072,2024-06-04 14:44:01.654801
23.69530642,-0.005725627299,0.007190322969,-0.000266308256,2024-06-04 14:44:01.695306
23.73580829,0.001997311832,0.001331541222,-0.003994623665,2024-06-04 14:44:01.735808
23.77629631,0.002529928461,-0.006125089712,-0.005059856921,2024-06-04 14:44:01.776296
23.81677574,0.001731003635,0.0,-0.002396774245,2024-06-04 14:44:01.816776
23.8572559,0.001198387123,0.001597849536,0.002396774245,2024-06-04 14:44:01.857256
23.89774501,0.003861469682,-0.002929390874,0.0005326165119,2024-06-04 14:44:01.897745
23.93824845,-0.0003994623839,-0.004527240526,-0.003462007269,2024-06-04 14:44:01.938248
23.97873767,-0.001198387123,-0.001597849536,-0.005059856921,2024-06-04 14:44:01.978738
24.01919788,0.000133154128,-0.002130466048,-0.004527240526,2024-06-04 14:44:02.019198
24.05973428,0.002263620263,0.001065233024,-0.005858781748,2024-06-04 14:44:02.059734
24.10022345,0.002796236658,0.001065233024,-0.005592473317,2024-06-04 14:44:02.100223
24.14071267,0.001198387123,0.0,-0.002929390874,2024-06-04 14:44:02.140713
24.18120251,0.001997311832,0.003462007269,-0.001331541222,2024-06-04 14:44:02.181203
24.22170043,0.004394086078,-0.002396774245,-0.003195699072,2024-06-04 14:44:02.221700
24.2621935,0.0003994623839,-0.003195699072,-0.002130466048,2024-06-04 14:44:02.262193
24.30268256,-0.003328853287,0.004793548491,0.001597849536,2024-06-04 14:44:02.302683
24.34317173,-0.001997311832,0.002663082443,0.003994623665,2024-06-04 14:44:02.343172
24.38363959,0.001731003635,0.00186415785,0.0,2024-06-04 14:44:02.383640
24.42411824,0.003595161485,0.002130466048,-0.003195699072,2024-06-04 14:44:02.424118
24.46459897,0.000932078925,-0.000266308256,-0.001597849536,2024-06-04 14:44:02.464599
24.5050709,-0.003328853287,0.001597849536,0.003195699072,2024-06-04 14:44:02.505071
24.54556022,-0.004394086078,-0.001597849536,0.004260932095,2024-06-04 14:44:02.545560
24.58604959,-0.003062544856,-0.001331541222,0.004260932095,2024-06-04 14:44:02.586050
24.62653902,-0.002529928461,-0.000266308256,0.001065233024,2024-06-04 14:44:02.626539
24.66701996,0.001731003635,0.0,-0.005326164886,2024-06-04 14:44:02.667020
24.70753694,0.001198387123,-0.00186415785,-0.005592473317,2024-06-04 14:44:02.707537
24.74803064,-0.001464695437,-0.003462007269,-0.002929390874,2024-06-04 14:44:02.748031
24.78852001,-0.004127778113,-0.002663082443,0.003195699072,2024-06-04 14:44:02.788520
24.82900944,-0.001464695437,-0.004793548491,0.005858781748,2024-06-04 14:44:02.829009
24.86948131,-0.000932078925,-0.000266308256,0.003462007269,2024-06-04 14:44:02.869481
24.91002173,0.0003994623839,0.004527240526,-0.002396774245,2024-06-04 14:44:02.910022
24.95050788,-0.001198387123,0.002663082443,-0.00186415785,2024-06-04 14:44:02.950508
24.99099772,-0.001464695437,0.002396774245,-0.003195699072,2024-06-04 14:44:02.990998
25.03143475,-0.003328853287,-0.0037283157,-0.000266308256,2024-06-04 14:44:03.031435
25.07192454,-0.0006657706108,-0.0037283157,-0.0005326165119,2024-06-04 14:44:03.071925
25.1124222,-0.000133154128,-0.001331541222,-0.000266308256,2024-06-04 14:44:03.112422
25.15295303,-0.000932078925,0.001597849536,0.001597849536,2024-06-04 14:44:03.152953
25.19343959,-0.0006657706108,0.002396774245,0.003195699072,2024-06-04 14:44:03.193440
25.23393746,-0.000932078925,-0.001331541222,0.0007989247679,2024-06-04 14:44:03.233937
25.27443246,-0.001198387123,-0.000266308256,-0.001597849536,2024-06-04 14:44:03.274432
25.31492199,-0.001997311832,-0.001065233024,-0.002663082443,2024-06-04 14:44:03.314922
25.35540864,-0.002529928461,-0.001065233024,-0.002396774245,2024-06-04 14:44:03.355409
25.39590088,-0.001464695437,-0.002663082443,-0.002663082443,2024-06-04 14:44:03.395901
25.43639077,-0.0006657706108,0.0037283157,-0.002130466048,2024-06-04 14:44:03.436391
25.47688072,-0.001464695437,0.01011971384,0.0005326165119,2024-06-04 14:44:03.476881
25.51737062,0.003062544856,0.002663082443,-0.001065233024,2024-06-04 14:44:03.517371
25.55786056,0.005459319334,-0.006391398143,-0.0005326165119,2024-06-04 14:44:03.557861
25.5983502,0.001731003635,-0.004260932095,-0.002130466048,2024-06-04 14:44:03.598350
25.63881405,-0.004394086078,-0.003994623665,0.000266308256,2024-06-04 14:44:03.638814
25.6793201,-0.007856093347,-0.002663082443,0.001331541222,2024-06-04 14:44:03.679320
25.71978489,-0.005193010904,-0.003195699072,0.001065233024,2024-06-04 14:44:03.719785
25.76026447,-0.000133154128,-0.002929390874,-0.001331541222,2024-06-04 14:44:03.760264
25.8007828,0.004926702939,0.002663082443,-0.0037283157,2024-06-04 14:44:03.800783
25.84128343,0.004394086078,0.006924014539,-0.002396774245,2024-06-04 14:44:03.841283
25.88177088,-0.0006657706108,0.005592473317,0.002663082443,2024-06-04 14:44:03.881771
25.92225754,-0.002263620263,-0.00186415785,0.005858781748,2024-06-04 14:44:03.922258
25.96274296,-0.005193010904,-0.008788172156,0.002130466048,2024-06-04 14:44:03.962743
26.0032326,-0.006790860556,-0.003994623665,0.0,2024-06-04 14:44:04.003233
26.04370822,-0.002796236658,-0.002130466048,-0.003195699072,2024-06-04 14:44:04.043708
26.08416983,-0.001731003635,-0.002663082443,-0.002663082443,2024-06-04 14:44:04.084170
26.12467697,0.000932078925,-0.0005326165119,-0.002130466048,2024-06-04 14:44:04.124677
26.16520171,0.003062544856,-0.0005326165119,-0.001331541222,2024-06-04 14:44:04.165202
26.20567812,0.001731003635,-0.002929390874,0.001331541222,2024-06-04 14:44:04.205678
26.24615541,-0.001198387123,-0.003195699072,0.0,2024-06-04 14:44:04.246155
26.28668062,-0.002529928461,-0.001331541222,0.0,2024-06-04 14:44:04.286681
26.32710426,-0.001997311832,-0.001597849536,-0.001597849536,2024-06-04 14:44:04.327104
26.36759921,0.001731003635,-0.003195699072,-0.002396774245,2024-06-04 14:44:04.367599
26.40813775,0.0006657706108,-0.002396774245,-0.002130466048,2024-06-04 14:44:04.408138
26.44862749,0.000932078925,0.002663082443,0.001065233024,2024-06-04 14:44:04.448627
26.48911749,-0.0003994623839,0.0,0.004260932095,2024-06-04 14:44:04.489117
26.52960728,0.001464695437,0.0005326165119,0.001065233024,2024-06-04 14:44:04.529607
26.57003515,0.0006657706108,0.002130466048,0.0,2024-06-04 14:44:04.570035
26.61052489,-0.002796236658,0.0037283157,0.001597849536,2024-06-04 14:44:04.610525
26.65101468,-0.002529928461,0.001065233024,0.001331541222,2024-06-04 14:44:04.651015
26.69154869,-0.000133154128,-0.00186415785,-0.0005326165119,2024-06-04 14:44:04.691549
26.7320539,-0.0003994623839,-0.00186415785,-0.00186415785,2024-06-04 14:44:04.732054
26.77253921,-0.0003994623839,-0.0007989247679,-0.002130466048,2024-06-04 14:44:04.772539
26.8130353,-0.001198387123,-0.002130466048,-0.0005326165119,2024-06-04 14:44:04.813035
26.85352265,-0.001198387123,-0.00186415785,-0.001331541222,2024-06-04 14:44:04.853523
26.89401129,-0.0006657706108,-0.00186415785,-0.001331541222,2024-06-04 14:44:04.894011
26.93449015,-0.000133154128,-0.002396774245,-0.002130466048,2024-06-04 14:44:04.934490
26.97495598,-0.0003994623839,-0.00186415785,-0.002663082443,2024-06-04 14:44:04.974956
27.01543749,-0.0006657706108,-0.000266308256,-0.002130466048,2024-06-04 14:44:05.015437
27.05592754,-0.001198387123,-0.0005326165119,-0.00186415785,2024-06-04 14:44:05.055928
27.09640786,0.0003994623839,-0.002396774245,-0.002130466048,2024-06-04 14:44:05.096408
27.13693051,-0.000133154128,-0.002396774245,0.001065233024,2024-06-04 14:44:05.136931
27.17741957,-0.000932078925,0.001331541222,0.0005326165119,2024-06-04 14:44:05.177420
27.21787562,-0.0003994623839,0.001597849536,0.0,2024-06-04 14:44:05.217876
27.25838463,0.001997311832,0.001597849536,-0.001597849536,2024-06-04 14:44:05.258385
27.29889291,0.0003994623839,0.001331541222,-0.000266308256,2024-06-04 14:44:05.298893
27.33936697,-0.000932078925,0.002929390874,0.001597849536,2024-06-04 14:44:05.339367
27.37984567,-0.003062544856,0.002663082443,0.00186415785,2024-06-04 14:44:05.379846
27.42037546,0.0006657706108,-0.002929390874,-0.00186415785,2024-06-04 14:44:05.420375
27.46084504,0.002529928461,-0.003195699072,-0.003195699072,2024-06-04 14:44:05.460845
27.50129562,-0.000932078925,-0.004260932095,-0.001597849536,2024-06-04 14:44:05.501296
27.54178697,-0.001731003635,-0.00186415785,-0.001331541222,2024-06-04 14:44:05.541787
27.58227577,-0.001464695437,-0.003195699072,-0.0007989247679,2024-06-04 14:44:05.582276
27.622764,-0.0003994623839,-0.0007989247679,-0.002663082443,2024-06-04 14:44:05.622764
27.66325697,-0.0003994623839,0.001331541222,-0.002929390874,2024-06-04 14:44:05.663257
27.70378973,-0.0003994623839,0.0005326165119,0.0,2024-06-04 14:44:05.703790
27.74429577,-0.0003994623839,0.000266308256,0.0005326165119,2024-06-04 14:44:05.744296
27.78478067,0.001731003635,-0.0007989247679,-0.002929390874,2024-06-04 14:44:05.784781
27.82526858,0.0003994623839,-0.002663082443,-0.002396774245,2024-06-04 14:44:05.825269
27.86572635,-0.003328853287,-0.0005326165119,-0.000266308256,2024-06-04 14:44:05.865726
27.90622884,-0.001997311832,0.0,0.002663082443,2024-06-04 14:44:05.906229
27.94672593,-0.0003994623839,-0.0005326165119,0.003994623665,2024-06-04 14:44:05.946726
27.98721572,0.001198387123,0.003994623665,0.001065233024,2024-06-04 14:44:05.987216
28.02770556,0.001464695437,0.005592473317,-0.0007989247679,2024-06-04 14:44:06.027706
28.06819536,0.000932078925,-0.0005326165119,-0.0005326165119,2024-06-04 14:44:06.068195
28.10867869,0.000932078925,-0.01358172111,-0.001597849536,2024-06-04 14:44:06.108679
28.14916603,-0.000932078925,-0.02556559257,-0.0005326165119,2024-06-04 14:44:06.149166
28.18969181,-0.003595161485,-0.02263620123,-0.0005326165119,2024-06-04 14:44:06.189692
28.23016697,-0.004926702939,-0.01544587873,-0.00186415785,2024-06-04 14:44:06.230167
28.2706601,-0.005193010904,-0.002396774245,-0.006924014539,2024-06-04 14:44:06.270660
28.31116067,-0.001198387123,0.005326164886,-0.008255556226,2024-06-04 14:44:06.311161
28.35160838,0.002263620263,0.006657706574,-0.006125089712,2024-06-04 14:44:06.351608
28.39210077,0.002796236658,0.006125089712,-0.004260932095,2024-06-04 14:44:06.392101
28.43259062,0.001731003635,0.007190322969,-0.002929390874,2024-06-04 14:44:06.432591
28.473069,0.003062544856,0.00186415785,-0.002130466048,2024-06-04 14:44:06.473069
28.51355275,0.001464695437,-0.006924014539,-0.002130466048,2024-06-04 14:44:06.513553
28.55404207,-0.004127778113,-0.008788172156,0.000266308256,2024-06-04 14:44:06.554042
28.59452431,-0.006258244161,-0.004260932095,-0.0005326165119,2024-06-04 14:44:06.594524
28.63500567,-0.005193010904,-0.003994623665,0.0005326165119,2024-06-04 14:44:06.635006
28.67551437,-0.000932078925,0.001597849536,-0.003994623665,2024-06-04 14:44:06.675514
28.71603994,-0.003062544856,0.009853405878,-0.004527240526,2024-06-04 14:44:06.716040
28.75649588,-0.01291595027,0.01065232977,-0.0007989247679,2024-06-04 14:44:06.756496
28.79697015,-0.008122402243,0.01544587873,-0.002929390874,2024-06-04 14:44:06.796970
28.83748905,0.001997311832,0.01970681176,-0.008521864191,2024-06-04 14:44:06.837489
28.87795301,0.00998655986,0.001597849536,-0.004793548491,2024-06-04 14:44:06.877953
28.91846166,0.01211702544,-0.02476666868,0.00186415785,2024-06-04 14:44:06.918462
28.95895103,0.000133154128,-0.02316881903,0.007190322969,2024-06-04 14:44:06.958951
28.99944072,-0.01318225823,-0.004793548491,0.00798924733,2024-06-04 14:44:06.999441
29.03991942,-0.01291595027,0.000266308256,0.004527240526,2024-06-04 14:44:07.039919
29.08038655,-0.00599193573,-0.006391398143,-0.003994623665,2024-06-04 14:44:07.080387
29.1208765,-0.000932078925,-0.002663082443,-0.002929390874,2024-06-04 14:44:07.120877
29.16135806,0.004127778113,0.007190322969,-0.002929390874,2024-06-04 14:44:07.161358
29.2019052,0.00599193573,0.005059856921,-0.001597849536,2024-06-04 14:44:07.201905
29.24240494,0.003328853287,-0.002130466048,0.001331541222,2024-06-04 14:44:07.242405
29.28289765,-0.0003994623839,-0.0037283157,0.001065233024,2024-06-04 14:44:07.282898
29.32338562,-0.004127778113,-0.003994623665,0.002929390874,2024-06-04 14:44:07.323386
29.36387353,-0.000932078925,-0.002663082443,0.000266308256,2024-06-04 14:44:07.363874
29.40431103,-0.000133154128,-0.004260932095,0.0,2024-06-04 14:44:07.404311
29.4448001,-0.0006657706108,0.006657706574,0.001597849536,2024-06-04 14:44:07.444800
29.48528931,-0.001198387123,0.007190322969,0.002663082443,2024-06-04 14:44:07.485289
29.52578296,0.003595161485,-0.003462007269,-0.000266308256,2024-06-04 14:44:07.525783
29.5662715,0.000133154128,-0.001065233024,-0.002130466048,2024-06-04 14:44:07.566271
29.60677806,-0.003861469682,0.004793548491,-0.003994623665,2024-06-04 14:44:07.606778
29.64724228,-0.003861469682,0.004260932095,-0.002130466048,2024-06-04 14:44:07.647242
29.68774051,0.000932078925,-0.00186415785,-0.002130466048,2024-06-04 14:44:07.687741
29.72823681,0.001198387123,-0.007190322969,-0.0005326165119,2024-06-04 14:44:07.728237
29.76872728,0.000133154128,-0.002663082443,-0.002130466048,2024-06-04 14:44:07.768727
29.8092165,-0.001198387123,-0.001331541222,-0.0005326165119,2024-06-04 14:44:07.809217
29.84969692,0.0006657706108,0.001065233024,-0.004260932095,2024-06-04 14:44:07.849697
29.8902214,0.0006657706108,0.002929390874,-0.003195699072,2024-06-04 14:44:07.890221
29.93071983,0.0003994623839,0.003994623665,0.001331541222,2024-06-04 14:44:07.930720
29.97120437,0.001731003635,0.004793548491,0.004793548491,2024-06-04 14:44:07.971204
30.01169452,0.003595161485,0.001065233024,0.003462007269,2024-06-04 14:44:08.011695
30.05218468,0.004127778113,0.001597849536,-0.000266308256,2024-06-04 14:44:08.052185
30.09265036,-0.001997311832,0.0005326165119,0.002130466048,2024-06-04 14:44:08.092650
30.13316687,-0.004127778113,0.001065233024,0.0037283157,2024-06-04 14:44:08.133167
30.1736703,-0.004926702939,-0.0037283157,0.003462007269,2024-06-04 14:44:08.173670
30.2141515,-0.003328853287,-0.007190322969,0.0007989247679,2024-06-04 14:44:08.214151
30.25464822,-0.001464695437,-0.005326164886,-0.002663082443,2024-06-04 14:44:08.254648
30.2951376,-0.002263620263,-0.001331541222,-0.004527240526,2024-06-04 14:44:08.295138
30.33562421,-0.004660394508,0.001331541222,-0.0074566314,2024-06-04 14:44:08.335624
30.376114,-0.004127778113,-0.001331541222,-0.007722939365,2024-06-04 14:44:08.376114
30.41660395,-0.003062544856,-0.003994623665,-0.004260932095,2024-06-04 14:44:08.416604
30.45705624,-0.004394086078,-0.001065233024,-0.002663082443,2024-06-04 14:44:08.457056
30.49754567,-0.003062544856,0.001065233024,-0.003994623665,2024-06-04 14:44:08.497546
30.53803515,0.000133154128,0.0005326165119,-0.002130466048,2024-06-04 14:44:08.538035
30.57852338,0.001731003635,-0.0005326165119,-0.0007989247679,2024-06-04 14:44:08.578523
30.6190201,0.002796236658,0.002130466048,0.0005326165119,2024-06-04 14:44:08.619020
30.65954635,0.004926702939,0.002130466048,0.002663082443,2024-06-04 14:44:08.659546
30.6999802,0.007057168987,0.00186415785,0.0,2024-06-04 14:44:08.699980
30.74048968,0.002263620263,-0.0005326165119,-0.002663082443,2024-06-04 14:44:08.740490
30.78097676,-0.002263620263,-0.0005326165119,0.000266308256,2024-06-04 14:44:08.780977
30.82150171,-0.001731003635,-0.002663082443,0.0,2024-06-04 14:44:08.821502
30.86199202,0.002529928461,-0.001065233024,-0.00186415785,2024-06-04 14:44:08.861992
30.90248187,-0.0003994623839,0.001597849536,-0.002929390874,2024-06-04 14:44:08.902482
30.94291989,-0.002263620263,0.008255556226,-0.0005326165119,2024-06-04 14:44:08.942920
30.98340036,-0.002263620263,0.001597849536,0.0007989247679,2024-06-04 14:44:08.983400
31.02389504,-0.001464695437,-0.005326164886,-0.001331541222,2024-06-04 14:44:09.023895
31.06439072,0.001198387123,-0.008255556226,-0.000266308256,2024-06-04 14:44:09.064391
31.10487983,0.0006657706108,-0.004793548491,-0.000266308256,2024-06-04 14:44:09.104880
31.14541926,0.001464695437,0.005326164886,-0.0037283157,2024-06-04 14:44:09.145419
31.18588624,0.0006657706108,0.005592473317,-0.004260932095,2024-06-04 14:44:09.185886
31.22636218,-0.001731003635,0.00186415785,-0.001331541222,2024-06-04 14:44:09.226362
31.26683911,-0.000932078925,-0.001065233024,-0.000266308256,2024-06-04 14:44:09.266839
31.30734129,-0.001464695437,-0.006391398143,0.001331541222,2024-06-04 14:44:09.307341
31.34782077,0.0006657706108,0.0005326165119,-0.002396774245,2024-06-04 14:44:09.347821
31.38834025,0.001731003635,-0.0007989247679,0.0007989247679,2024-06-04 14:44:09.388340
31.42884926,-0.000133154128,0.0007989247679,0.003462007269,2024-06-04 14:44:09.428849
31.46929608,0.0006657706108,0.00186415785,0.001597849536,2024-06-04 14:44:09.469296
31.50976416,-0.000932078925,0.004260932095,-0.001331541222,2024-06-04 14:44:09.509764
31.55025338,-0.001731003635,0.004527240526,-0.001331541222,2024-06-04 14:44:09.550253
31.59074265,-0.001997311832,0.006391398143,-0.00186415785,2024-06-04 14:44:09.590743
31.63123187,-0.000133154128,0.001331541222,-0.001065233024,2024-06-04 14:44:09.631232
31.67182218,-0.001464695437,0.002396774245,-0.0007989247679,2024-06-04 14:44:09.671822
31.71226562,0.0003994623839,0.01438064594,-0.001597849536,2024-06-04 14:44:09.712266
31.75276515,-0.000133154128,0.01837527007,0.002130466048,2024-06-04 14:44:09.752765
31.79325588,0.006524552125,0.003195699072,0.002929390874,2024-06-04 14:44:09.793256
31.83374431,0.007589785382,-0.001597849536,-0.000266308256,2024-06-04 14:44:09.833744
31.87423567,0.0006657706108,0.000266308256,0.001331541222,2024-06-04 14:44:09.874236
31.9147227,-0.005193010904,-0.002663082443,0.005059856921,2024-06-04 14:44:09.914723
31.95520046,-0.007057168987,-0.005858781748,0.005326164886,2024-06-04 14:44:09.955200
31.99569062,-0.003861469682,-0.009853405878,0.001331541222,2024-06-04 14:44:09.995691
32.03618082,-0.001198387123,-0.005592473317,-0.00186415785,2024-06-04 14:44:10.036181
32.07667103,0.000133154128,0.00186415785,-0.005592473317,2024-06-04 14:44:10.076671
32.11716124,0.003595161485,0.006924014539,-0.005858781748,2024-06-04 14:44:10.117161
32.15766103,0.007589785382,0.003994623665,-0.005858781748,2024-06-04 14:44:10.157661
32.19810744,0.003328853287,0.001597849536,-0.002663082443,2024-06-04 14:44:10.198107
32.23859765,-0.0006657706108,0.002396774245,-0.001065233024,2024-06-04 14:44:10.238598
32.27912124,-0.003861469682,0.002396774245,-0.00186415785,2024-06-04 14:44:10.279121
32.31956739,-0.004394086078,-0.005326164886,0.002663082443,2024-06-04 14:44:10.319567
32.36004822,-0.0003994623839,-0.007190322969,0.002396774245,2024-06-04 14:44:10.360048
32.40059692,-0.000133154128,-0.002929390874,0.0007989247679,2024-06-04 14:44:10.400597
32.44108713,-0.001464695437,0.001597849536,-0.001597849536,2024-06-04 14:44:10.441087
32.48157749,0.0003994623839,0.00186415785,-0.001331541222,2024-06-04 14:44:10.481577
32.52201187,0.003062544856,-0.0005326165119,-0.002396774245,2024-06-04 14:44:10.522012
32.5624952,-0.001464695437,-0.000266308256,-0.002663082443,2024-06-04 14:44:10.562495
32.60300525,-0.004660394508,0.0005326165119,0.000266308256,2024-06-04 14:44:10.603005
32.64348457,-0.005459319334,-0.002130466048,0.003994623665,2024-06-04 14:44:10.643485
32.68399931,-0.0003994623839,-0.001597849536,0.001331541222,2024-06-04 14:44:10.683999
32.72451249,0.000133154128,0.002663082443,-0.002130466048,2024-06-04 14:44:10.724512
32.76500431,0.003062544856,0.0007989247679,-0.0005326165119,2024-06-04 14:44:10.765004
32.80548562,0.001731003635,0.002396774245,0.0037283157,2024-06-04 14:44:10.805486
32.84596671,-0.0003994623839,0.0007989247679,0.003195699072,2024-06-04 14:44:10.845967
32.88642134,-0.001731003635,-0.002130466048,0.002663082443,2024-06-04 14:44:10.886421
32.92691426,-0.002796236658,-0.002663082443,0.001331541222,2024-06-04 14:44:10.926914
32.9674427,-0.003328853287,-0.002663082443,-0.001065233024,2024-06-04 14:44:10.967443
33.00793275,-0.001997311832,-0.004793548491,0.000266308256,2024-06-04 14:44:11.007933
33.04842004,-0.000133154128,-0.0005326165119,-0.001597849536,2024-06-04 14:44:11.048420
33.08890093,0.0006657706108,0.001331541222,-0.0005326165119,2024-06-04 14:44:11.088901
33.12938937,0.0006657706108,0.0005326165119,0.002130466048,2024-06-04 14:44:11.129389
33.16988952,0.000133154128,0.003195699072,0.0007989247679,2024-06-04 14:44:11.169890
33.21036973,-0.0006657706108,0.006391398143,0.001597849536,2024-06-04 14:44:11.210370
33.25084838,-0.000932078925,0.0037283157,0.002929390874,2024-06-04 14:44:11.250848
33.29135249,0.0003994623839,-0.006391398143,0.004527240526,2024-06-04 14:44:11.291352
33.33185681,-0.002263620263,-0.008255556226,0.003462007269,2024-06-04 14:44:11.331857
33.3723403,-0.004660394508,-0.0005326165119,0.001597849536,2024-06-04 14:44:11.372340
33.41283025,-0.002796236658,-0.00186415785,-0.0007989247679,2024-06-04 14:44:11.412830
33.4533203,0.001464695437,-0.00186415785,-0.002663082443,2024-06-04 14:44:11.453320
33.4938102,-0.000133154128,0.000266308256,-0.001597849536,2024-06-04 14:44:11.493810
33.53430015,-0.001464695437,0.003462007269,0.001597849536,2024-06-04 14:44:11.534300
33.57474369,-0.000932078925,0.00186415785,0.002396774245,2024-06-04 14:44:11.574744
33.61522926,0.000932078925,-0.001597849536,0.0,2024-06-04 14:44:11.615229
33.6557191,-0.001198387123,-0.003195699072,-0.001597849536,2024-06-04 14:44:11.655719
33.69623405,0.000133154128,-0.003462007269,-0.00186415785,2024-06-04 14:44:11.696234
33.73671567,0.001198387123,-0.005858781748,-0.002663082443,2024-06-04 14:44:11.736716
33.77721634,0.0006657706108,-0.002929390874,-0.002130466048,2024-06-04 14:44:11.777216
33.81770629,0.0006657706108,-0.002663082443,-0.002396774245,2024-06-04 14:44:11.817706
33.85819431,0.001731003635,0.002130466048,-0.0037283157,2024-06-04 14:44:11.858194
33.89872489,0.001464695437,0.005592473317,-0.0037283157,2024-06-04 14:44:11.898725
33.93921504,0.001731003635,0.005326164886,-0.003195699072,2024-06-04 14:44:11.939215
33.97963968,0.004394086078,-0.002663082443,-0.002663082443,2024-06-04 14:44:11.979640
34.02012983,0.001997311832,-0.006657706574,-0.002396774245,2024-06-04 14:44:12.020130
34.06062004,-0.004660394508,-0.002396774245,0.0005326165119,2024-06-04 14:44:12.060620
34.10111025,-0.001464695437,-0.002663082443,0.001065233024,2024-06-04 14:44:12.101110
34.14159369,0.001731003635,-0.004793548491,-0.000266308256,2024-06-04 14:44:12.141594
34.18211447,0.004127778113,0.004260932095,-0.003195699072,2024-06-04 14:44:12.182114
34.22262692,0.003595161485,0.006924014539,-0.002663082443,2024-06-04 14:44:12.222627
34.26312056,0.001464695437,0.003994623665,0.0007989247679,2024-06-04 14:44:12.263121
34.30361233,-0.001198387123,0.0005326165119,0.000266308256,2024-06-04 14:44:12.303612
34.34410004,-0.001464695437,-0.003994623665,-0.002929390874,2024-06-04 14:44:12.344100
34.38458062,-0.001997311832,-0.002396774245,-0.005059856921,2024-06-04 14:44:12.384581
34.42505494,-0.001997311832,-0.000266308256,-0.002130466048,2024-06-04 14:44:12.425055
34.46552103,0.0006657706108,0.001331541222,-0.001065233024,2024-06-04 14:44:12.465521
34.50600952,0.000932078925,-0.0007989247679,-0.001331541222,2024-06-04 14:44:12.506010
34.54649812,-0.000133154128,-0.0005326165119,-0.001597849536,2024-06-04 14:44:12.546498
34.58700405,-0.0003994623839,0.001065233024,0.000266308256,2024-06-04 14:44:12.587004
34.62751931,-0.001731003635,0.000266308256,0.0007989247679,2024-06-04 14:44:12.627519
34.66798926,-0.002263620263,-0.0007989247679,0.0005326165119,2024-06-04 14:44:12.667989
34.70848312,0.000133154128,-0.0037283157,-0.001331541222,2024-06-04 14:44:12.708483
34.74898869,-0.002529928461,-0.001597849536,0.00186415785,2024-06-04 14:44:12.748989
34.78948864,-0.001997311832,0.001065233024,0.002130466048,2024-06-04 14:44:12.789489
34.82997624,-0.001464695437,0.002130466048,-0.0005326165119,2024-06-04 14:44:12.829976
34.87047338,-0.0003994623839,-0.0005326165119,-0.000266308256,2024-06-04 14:44:12.870473
34.91095827,0.000133154128,0.002396774245,-0.001065233024,2024-06-04 14:44:12.910958
34.95144655,-0.001731003635,0.002663082443,0.00186415785,2024-06-04 14:44:12.951447
34.99188265,-0.003328853287,0.0005326165119,0.001597849536,2024-06-04 14:44:12.991883
35.03237187,-0.002263620263,-0.003462007269,0.00186415785,2024-06-04 14:44:13.032372
35.07286249,-0.0006657706108,-0.002396774245,-0.0005326165119,2024-06-04 14:44:13.072862
35.11334494,-0.002529928461,-0.002396774245,-0.002130466048,2024-06-04 14:44:13.113345
35.15385827,-0.002263620263,-0.0005326165119,-0.003462007269,2024-06-04 14:44:13.153858
35.19435733,-0.001198387123,-0.002663082443,-0.001065233024,2024-06-04 14:44:13.194357
35.23487108,0.0003994623839,0.000266308256,-0.002130466048,2024-06-04 14:44:13.234871
35.27536197,-0.001464695437,-0.001065233024,-0.001331541222,2024-06-04 14:44:13.275362
35.31582822,-0.001731003635,0.001331541222,-0.00186415785,2024-06-04 14:44:13.315828
35.35633364,-0.001464695437,-0.0005326165119,-0.000266308256,2024-06-04 14:44:13.356334
35.39681353,0.000932078925,-0.003195699072,0.0,2024-06-04 14:44:13.396814
35.43730275,0.001198387123,-0.003195699072,-0.0007989247679,2024-06-04 14:44:13.437303
35.47779327,-0.0003994623839,-0.000266308256,0.0007989247679,2024-06-04 14:44:13.477793
35.5182701,0.000133154128,0.003195699072,0.000266308256,2024-06-04 14:44:13.518270
35.55876041,-0.001198387123,0.001331541222,0.001065233024,2024-06-04 14:44:13.558760
35.59924864,0.0003994623839,-0.0007989247679,0.0,2024-06-04 14:44:13.599249
35.63975806,-0.000133154128,0.002130466048,-0.002130466048,2024-06-04 14:44:13.639758
35.68023447,-0.001731003635,0.0037283157,0.000266308256,2024-06-04 14:44:13.680234
35.72071483,-0.002529928461,0.002130466048,0.001331541222,2024-06-04 14:44:13.720715
35.76122702,-0.0003994623839,-0.001065233024,0.001065233024,2024-06-04 14:44:13.761227
35.80172718,0.000133154128,-0.004527240526,0.0007989247679,2024-06-04 14:44:13.801727
35.84221775,-0.001997311832,-0.0037283157,-0.001597849536,2024-06-04 14:44:13.842218
35.88270832,-0.002529928461,-0.0007989247679,-0.002929390874,2024-06-04 14:44:13.882708
35.9231939,-0.002263620263,-0.00186415785,-0.0007989247679,2024-06-04 14:44:13.923194
35.96367489,-0.000133154128,-0.001597849536,-0.001065233024,2024-06-04 14:44:13.963675
36.00416494,-0.0006657706108,-0.001331541222,-0.001331541222,2024-06-04 14:44:14.004165
36.04465494,-0.001198387123,-0.002130466048,0.0,2024-06-04 14:44:14.044655
36.08514499,-0.001464695437,0.0,0.000266308256,2024-06-04 14:44:14.085145
36.1256276,0.000133154128,0.000266308256,-0.001331541222,2024-06-04 14:44:14.125628
36.16610291,-0.0003994623839,-0.002663082443,-0.001597849536,2024-06-04 14:44:14.166103
36.20656312,-0.001997311832,-0.001065233024,-0.001331541222,2024-06-04 14:44:14.206563
36.24706942,-0.002529928461,0.0,0.0,2024-06-04 14:44:14.247069
36.287549,-0.001731003635,-0.0007989247679,0.0005326165119,2024-06-04 14:44:14.287549
36.32805426,0.001198387123,-0.0005326165119,-0.001331541222,2024-06-04 14:44:14.328054
36.36854431,0.001997311832,0.001331541222,-0.001597849536,2024-06-04 14:44:14.368544
36.40902082,0.000932078925,0.006391398143,-0.000266308256,2024-06-04 14:44:14.409021
36.44951067,0.000133154128,0.006924014539,-0.0005326165119,2024-06-04 14:44:14.449511
36.4899991,0.000932078925,0.0007989247679,-0.002396774245,2024-06-04 14:44:14.489999
36.53048228,0.002796236658,-0.005059856921,-0.0037283157,2024-06-04 14:44:14.530482
36.57100723,0.0003994623839,-0.006657706574,-0.002929390874,2024-06-04 14:44:14.571007
36.61149364,-0.0006657706108,-0.004793548491,-0.005059856921,2024-06-04 14:44:14.611494
36.65198286,0.000133154128,-0.003462007269,-0.005592473317,2024-06-04 14:44:14.651983
36.69244296,0.002529928461,0.000266308256,-0.005858781748,2024-06-04 14:44:14.692443
36.73295072,0.004394086078,0.00186415785,-0.005326164886,2024-06-04 14:44:14.732951
36.77347687,0.005459319334,0.001597849536,-0.005592473317,2024-06-04 14:44:14.773477
36.81394296,0.004926702939,0.001065233024,-0.006391398143,2024-06-04 14:44:14.813943
36.85441556,0.001731003635,0.0005326165119,-0.005592473317,2024-06-04 14:44:14.854416
36.89489864,0.002529928461,-0.002929390874,-0.006125089712,2024-06-04 14:44:14.894899
36.93538957,-0.000133154128,-0.001597849536,-0.003462007269,2024-06-04 14:44:14.935390
36.97588119,0.000133154128,0.003462007269,-0.003994623665,2024-06-04 14:44:14.975881
37.01637041,0.003861469682,-0.0005326165119,-0.004527240526,2024-06-04 14:44:15.016370
37.0568678,0.005459319334,-0.0007989247679,-0.004260932095,2024-06-04 14:44:15.056868
37.09736353,0.002263620263,0.001331541222,-0.003195699072,2024-06-04 14:44:15.097364
37.13784973,-0.001731003635,0.004260932095,0.002130466048,2024-06-04 14:44:15.137850
37.17837614,-0.003062544856,0.00186415785,0.003994623665,2024-06-04 14:44:15.178376
37.21886041,-0.003595161485,-0.002130466048,0.002396774245,2024-06-04 14:44:15.218860
37.25933603,-0.004394086078,-0.000266308256,0.00186415785,2024-06-04 14:44:15.259336
37.29985072,-0.002796236658,-0.0005326165119,0.000266308256,2024-06-04 14:44:15.299851
37.3403401,0.0003994623839,-0.0007989247679,0.0007989247679,2024-06-04 14:44:15.340340
37.38082947,0.0006657706108,-0.003195699072,0.000266308256,2024-06-04 14:44:15.380829
37.42131884,-0.002263620263,-0.001065233024,0.0007989247679,2024-06-04 14:44:15.421319
37.46179869,-0.004926702939,-0.00186415785,0.000266308256,2024-06-04 14:44:15.461799
37.50226249,-0.001997311832,-0.0007989247679,0.00186415785,2024-06-04 14:44:15.502262
37.54273864,-0.001997311832,-0.0007989247679,0.0005326165119,2024-06-04 14:44:15.542739
37.58320327,0.001997311832,-0.001597849536,-0.00186415785,2024-06-04 14:44:15.583203
37.6237226,-0.000932078925,-0.0007989247679,-0.001597849536,2024-06-04 14:44:15.623723
37.66421468,-0.001997311832,0.0007989247679,0.001597849536,2024-06-04 14:44:15.664215
37.70471379,-0.001464695437,-0.000266308256,0.001065233024,2024-06-04 14:44:15.704714
37.74518832,-0.0003994623839,-0.00186415785,0.0,2024-06-04 14:44:15.745188
37.78570843,-0.000133154128,0.002929390874,-0.0005326165119,2024-06-04 14:44:15.785708
37.82613655,-0.001198387123,0.002929390874,0.0007989247679,2024-06-04 14:44:15.826137
37.86662572,-0.0006657706108,0.00186415785,0.001597849536,2024-06-04 14:44:15.866626
37.90714598,-0.001198387123,-0.002929390874,-0.0005326165119,2024-06-04 14:44:15.907146
37.94769733,0.001198387123,-0.001331541222,0.001065233024,2024-06-04 14:44:15.947697
37.98814332,-0.0006657706108,-0.002929390874,0.0,2024-06-04 14:44:15.988143
38.02863848,-0.001464695437,-0.001065233024,-0.00186415785,2024-06-04 14:44:16.028638
38.0691053,-0.002529928461,-0.00186415785,-0.002396774245,2024-06-04 14:44:16.069105
38.10957671,0.0003994623839,-0.0007989247679,-0.001065233024,2024-06-04 14:44:16.109577
38.15010332,0.000932078925,-0.00186415785,0.0005326165119,2024-06-04 14:44:16.150103
38.19059114,-0.0003994623839,0.000266308256,0.0,2024-06-04 14:44:16.190591
38.23108181,-0.001198387123,-0.0005326165119,0.0,2024-06-04 14:44:16.231082
38.2715715,-0.000932078925,-0.0005326165119,0.000266308256,2024-06-04 14:44:16.271572
38.31203489,0.000133154128,-0.002396774245,-0.0007989247679,2024-06-04 14:44:16.312035
38.35252989,-0.0003994623839,-0.003195699072,-0.00186415785,2024-06-04 14:44:16.352530
38.39301483,-0.002529928461,0.001331541222,0.0007989247679,2024-06-04 14:44:16.393015
38.43350494,0.000133154128,0.003195699072,0.0005326165119,2024-06-04 14:44:16.433505
38.47399812,0.001464695437,-0.00186415785,0.000266308256,2024-06-04 14:44:16.473998
38.5144876,0.000932078925,0.0007989247679,-0.002130466048,2024-06-04 14:44:16.514488
38.55497317,0.000133154128,0.005059856921,0.001065233024,2024-06-04 14:44:16.554973
38.59546124,-0.001731003635,0.002929390874,0.004527240526,2024-06-04 14:44:16.595461
38.63598562,-0.001198387123,-0.00186415785,0.000266308256,2024-06-04 14:44:16.635986
38.67651775,-0.000932078925,-0.005592473317,-0.002396774245,2024-06-04 14:44:16.676518
38.71699306,-0.001997311832,-0.001331541222,-0.001331541222,2024-06-04 14:44:16.716993
38.75744983,-0.001464695437,0.000266308256,-0.001331541222,2024-06-04 14:44:16.757450
38.79792687,-0.0006657706108,-0.002396774245,-0.00186415785,2024-06-04 14:44:16.797927
38.83841499,-0.000133154128,-0.002663082443,-0.002929390874,2024-06-04 14:44:16.838415
38.87889416,-0.0006657706108,0.0005326165119,-0.002663082443,2024-06-04 14:44:16.878894
38.91938858,0.000133154128,-0.001065233024,0.001597849536,2024-06-04 14:44:16.919389
38.95989619,0.000133154128,-0.001597849536,0.002396774245,2024-06-04 14:44:16.959896
39.00037937,-0.001731003635,-0.001065233024,-0.001331541222,2024-06-04 14:44:17.000379
39.04086754,-0.001464695437,-0.0007989247679,-0.001331541222,2024-06-04 14:44:17.040868
39.08135197,-0.000133154128,0.000266308256,-0.00186415785,2024-06-04 14:44:17.081352
39.12186577,0.000932078925,-0.001331541222,-0.002663082443,2024-06-04 14:44:17.121866
39.16236301,-0.002796236658,-0.0005326165119,-0.001597849536,2024-06-04 14:44:17.162363
39.20282155,-0.001464695437,0.0037283157,-0.000266308256,2024-06-04 14:44:17.202822
39.24332369,0.000133154128,-0.001065233024,0.0005326165119,2024-06-04 14:44:17.243324
39.28377572,0.001731003635,0.0007989247679,-0.0007989247679,2024-06-04 14:44:17.283776
39.32426056,-0.0003994623839,0.0037283157,0.0,2024-06-04 14:44:17.324261
39.36474978,-0.000133154128,0.005059856921,0.002396774245,2024-06-04 14:44:17.364750
39.40523905,-0.000133154128,-0.0005326165119,0.0007989247679,2024-06-04 14:44:17.405239
39.44576812,-0.0006657706108,-0.003994623665,-0.004260932095,2024-06-04 14:44:17.445768
39.48625733,-0.004394086078,-0.005326164886,-0.006391398143,2024-06-04 14:44:17.486257
39.5267466,-0.003861469682,-0.003195699072,-0.004527240526,2024-06-04 14:44:17.526747
39.56726108,-0.004660394508,-0.004527240526,-0.007190322969,2024-06-04 14:44:17.567261
39.60774421,-0.003595161485,-0.003462007269,-0.007722939365,2024-06-04 14:44:17.607744
39.64820921,-0.001464695437,-0.000266308256,-0.003462007269,2024-06-04 14:44:17.648209
39.68871072,0.002263620263,0.0007989247679,0.0005326165119,2024-06-04 14:44:17.688711
39.72919478,-0.000932078925,-0.001331541222,-0.0005326165119,2024-06-04 14:44:17.729195
39.76968666,-0.001198387123,0.0007989247679,-0.00186415785,2024-06-04 14:44:17.769687
39.81018025,-0.001464695437,-0.002396774245,-0.001331541222,2024-06-04 14:44:17.810180
39.85066989,-0.000932078925,-0.0005326165119,-0.0007989247679,2024-06-04 14:44:17.850670
39.89115952,-0.0003994623839,-0.002130466048,-0.002929390874,2024-06-04 14:44:17.891160
39.93163364,-0.001997311832,-0.0007989247679,-0.00186415785,2024-06-04 14:44:17.931634
39.97211551,-0.0006657706108,0.001331541222,0.0007989247679,2024-06-04 14:44:17.972116
40.01260515,-0.000932078925,0.002396774245,0.002130466048,2024-06-04 14:44:18.012605
40.053094,0.001997311832,0.001597849536,-0.0005326165119,2024-06-04 14:44:18.053094
40.09358494,0.0003994623839,0.002130466048,-0.0007989247679,2024-06-04 14:44:18.093585
40.13409275,-0.001731003635,0.002130466048,0.00186415785,2024-06-04 14:44:18.134093
40.17459822,-0.003062544856,-0.000266308256,0.001331541222,2024-06-04 14:44:18.174598
40.21506681,-0.000932078925,-0.002130466048,-0.001065233024,2024-06-04 14:44:18.215067
40.25556108,-0.0006657706108,-0.002130466048,-0.00186415785,2024-06-04 14:44:18.255561
40.29606947,-0.001731003635,0.0005326165119,-0.002130466048,2024-06-04 14:44:18.296069
40.33651358,-0.0006657706108,-0.001331541222,-0.001065233024,2024-06-04 14:44:18.336514
40.37699463,-0.001198387123,-0.003462007269,-0.001331541222,2024-06-04 14:44:18.376995
40.41749286,-0.001731003635,-0.001331541222,-0.0005326165119,2024-06-04 14:44:18.417493
40.4580291,-0.002263620263,0.0005326165119,0.0,2024-06-04 14:44:18.458029
40.49851546,-0.000932078925,0.0,0.001065233024,2024-06-04 14:44:18.498515
40.53895791,-0.001464695437,0.001065233024,-0.001065233024,2024-06-04 14:44:18.538958
40.57947978,-0.0003994623839,0.002663082443,-0.001065233024,2024-06-04 14:44:18.579480
40.619949,-0.001198387123,0.004260932095,0.0,2024-06-04 14:44:18.619949
40.66043062,-0.0003994623839,0.007190322969,-0.002663082443,2024-06-04 14:44:18.660431
40.70096515,0.00599193573,0.006391398143,-0.006391398143,2024-06-04 14:44:18.700965
40.74146379,-0.000932078925,0.0149132628,0.001597849536,2024-06-04 14:44:18.741464
40.78190718,-0.009453942999,0.02742975019,0.005858781748,2024-06-04 14:44:18.781907
40.82238806,0.008122402243,-0.009320789017,0.002663082443,2024-06-04 14:44:18.822388
40.86287546,0.00599193573,-0.03275591508,0.002130466048,2024-06-04 14:44:18.862875
40.90336468,-0.02250304818,-0.02263620123,0.008788172156,2024-06-04 14:44:18.903365
40.94387077,-0.04034570232,0.005059856921,0.02130465955,2024-06-04 14:44:18.943871
40.98435999,-0.02516612969,0.004527240526,0.02157096937,2024-06-04 14:44:18.984360
41.02484926,0.002263620263,-0.001065233024,0.01091863867,2024-06-04 14:44:19.024849
41.06531973,0.02090519853,-0.004527240526,-0.001065233024,2024-06-04 14:44:19.065320
41.10585515,0.02063889056,0.02263620123,-0.01198387146,2024-06-04 14:44:19.105855
41.14636702,0.02489982173,0.03089175746,-0.02742975019,2024-06-04 14:44:19.146367
41.18684088,0.0126496423,0.01517957076,-0.02716344222,2024-06-04 14:44:19.186841
41.2273151,-0.009720250964,0.000266308256,-0.0149132628,2024-06-04 14:44:19.227315
41.26781692,-0.02729659714,-0.01624480449,0.01358172111,2024-06-04 14:44:19.267817
41.30830067,-0.02170412242,-0.01997311972,0.0298265256,2024-06-04 14:44:19.308301
41.34877645,-0.005193010904,-0.03861469775,0.03169068322,2024-06-04 14:44:19.348776
41.38926879,0.00998655986,-0.02077204362,0.006924014539,2024-06-04 14:44:19.389269
41.42976603,0.02569874749,0.002663082443,-0.02343512699,2024-06-04 14:44:19.429766
41.47025207,0.004660394508,0.02023942769,-0.0074566314,2024-06-04 14:44:19.470252
41.5107427,-0.00998655986,0.01997311972,-0.001331541222,2024-06-04 14:44:19.510743
41.55124884,-0.01131810062,0.02503297664,-0.002396774245,2024-06-04 14:44:19.551249
41.59177306,-0.009720250964,0.008788172156,-0.0005326165119,2024-06-04 14:44:19.591773
41.63223582,0.005459319334,-0.02423405088,-0.007722939365,2024-06-04 14:44:19.632236
41.67269926,0.004660394508,-0.0181089621,0.00798924733,2024-06-04 14:44:19.672699
41.71320968,0.001464695437,0.005858781748,0.01358172111,2024-06-04 14:44:19.713210
41.75372025,0.008655018173,-0.000266308256,-0.005326164886,2024-06-04 14:44:19.753720
41.79417468,0.001997311832,0.03009283356,-0.01544587873,2024-06-04 14:44:19.794175
41.8346639,0.006258244161,0.02849498391,-0.02157096937,2024-06-04 14:44:19.834664
41.87515306,0.01078548469,-0.003195699072,-0.008255556226,2024-06-04 14:44:19.875153
41.91564228,0.002796236658,-0.01970681176,0.01597849466,2024-06-04 14:44:19.915642
41.95612056,-0.001464695437,-0.009054481052,0.0117175635,2024-06-04 14:44:19.956121
41.99660978,-0.003595161485,-0.0005326165119,-0.009320789017,2024-06-04 14:44:19.996610
42.03710806,-0.00599193573,0.008521864191,-0.01677742042,2024-06-04 14:44:20.037108
42.07760385,-0.0006657706108,0.01544587873,-0.01544587873,2024-06-04 14:44:20.077604
42.11807957,0.003861469682,-0.001597849536,0.004260932095,2024-06-04 14:44:20.118080
42.15855582,0.01025286783,-0.01438064594,0.01651111245,2024-06-04 14:44:20.158556
42.19906379,0.00599193573,-0.00798924733,-0.0007989247679,2024-06-04 14:44:20.199064
42.23955233,-0.002796236658,0.01731003635,-0.02157096937,2024-06-04 14:44:20.239552
42.28007619,-0.01105179265,0.02769605815,-0.02476666868,2024-06-04 14:44:20.280076
42.32056588,-0.003861469682,0.007190322969,-0.0117175635,2024-06-04 14:44:20.320566
42.36105556,0.002263620263,-0.01118494663,0.01571218669,2024-06-04 14:44:20.361056
42.4015453,0.0006657706108,-0.01304910425,0.02396774292,2024-06-04 14:44:20.401545
42.44203499,0.003595161485,-0.002929390874,0.0005326165119,2024-06-04 14:44:20.442035
42.48252468,-0.000133154128,0.01384802908,-0.01704372838,2024-06-04 14:44:20.482525
42.52301442,-0.004926702939,0.001331541222,-0.01438064594,2024-06-04 14:44:20.523014
42.56344254,-0.01051917579,-0.006657706574,0.006657706574,2024-06-04 14:44:20.563443
42.60397244,-0.007589785382,-0.02077204362,0.02263620123,2024-06-04 14:44:20.603972
42.64444947,-0.004926702939,-0.01438064594,0.01278279629,2024-06-04 14:44:20.644449
42.68492103,-0.002263620263,0.005059856921,-0.0117175635,2024-06-04 14:44:20.684921
42.72541348,-0.001464695437,0.01358172111,-0.0181089621,2024-06-04 14:44:20.725413
42.76595551,0.003595161485,-0.001065233024,-0.005326164886,2024-06-04 14:44:20.765956
42.80644655,0.001464695437,-0.01571218669,0.01837527007,2024-06-04 14:44:20.806447
42.84688848,-0.002796236658,-0.008521864191,0.01597849466,2024-06-04 14:44:20.846888
42.88739332,-0.001997311832,0.009853405878,-0.007190322969,2024-06-04 14:44:20.887393
42.92791452,-0.007057168987,0.02929390781,-0.01970681176,2024-06-04 14:44:20.927915
42.96838343,0.001997311832,0.004527240526,-0.01704372838,2024-06-04 14:44:20.968383
43.00883754,0.000932078925,-0.02236989327,0.01011971384,2024-06-04 14:44:21.008838
43.04934645,-0.002529928461,-0.0229025092,0.02742975019,2024-06-04 14:44:21.049346
43.08983629,-0.001731003635,-0.002130466048,0.01225017942,2024-06-04 14:44:21.089836
43.1303315,-0.0006657706108,0.01438064594,-0.009054481052,2024-06-04 14:44:21.130331
43.1708478,-0.001464695437,0.02023942769,-0.01597849466,2024-06-04 14:44:21.170848
43.21129431,-0.001731003635,-0.005326164886,-0.006391398143,2024-06-04 14:44:21.211294
43.25179343,-0.002796236658,-0.002929390874,0.01225017942,2024-06-04 14:44:21.251793
43.29228655,0.002796236658,-0.02529928461,0.01331541315,2024-06-04 14:44:21.292287
43.3327664,-0.004394086078,-0.01198387146,0.00798924733,2024-06-04 14:44:21.332766
43.37323077,-0.003062544856,0.008255556226,-0.0114512546,2024-06-04 14:44:21.373231
43.41374103,-0.002796236658,0.0298265256,-0.01944050193,2024-06-04 14:44:21.413741
43.45422983,0.005193010904,-0.0007989247679,-0.01251648832,2024-06-04 14:44:21.454230
43.49471457,0.0006657706108,-0.01118494663,0.008788172156,2024-06-04 14:44:21.494715
43.53520848,0.001198387123,-0.02583190054,0.01411433797,2024-06-04 14:44:21.535208
43.57571192,-0.001464695437,-0.006657706574,0.008788172156,2024-06-04 14:44:21.575712
43.61625254,-0.003062544856,0.01304910425,-0.01038602181,2024-06-04 14:44:21.616253
43.65675983,-0.002263620263,0.02103835158,-0.01677742042,2024-06-04 14:44:21.656760
43.6972015,0.002529928461,-0.001597849536,-0.006125089712,2024-06-04 14:44:21.697201
43.73767655,-0.0006657706108,-0.006125089712,0.0146469539,2024-06-04 14:44:21.737677
43.77816405,0.007589785382,-0.01970681176,0.0114512546,2024-06-04 14:44:21.778164
43.81868364,0.000932078925,-0.005592473317,0.005059856921,2024-06-04 14:44:21.818684
43.85917244,-0.005459319334,0.007190322969,-0.01251648832,2024-06-04 14:44:21.859172
43.89962067,-0.004127778113,0.0221035853,-0.01571218669,2024-06-04 14:44:21.899621
43.94010374,-0.007589785382,-0.0037283157,0.00186415785,2024-06-04 14:44:21.940104
43.98060046,-0.01025286783,-0.004527240526,0.01837527007,2024-06-04 14:44:21.980600
44.02108655,-0.001997311832,-0.009587096982,0.009853405878,2024-06-04 14:44:22.021087
44.06156864,0.005459319334,-0.009853405878,-0.0005326165119,2024-06-04 14:44:22.061569
44.10211671,0.0006657706108,-0.002396774245,-0.005858781748,2024-06-04 14:44:22.102117
44.14261166,-0.004926702939,0.006391398143,-0.003195699072,2024-06-04 14:44:22.142612
44.18306166,-0.005725627299,0.003462007269,0.000266308256,2024-06-04 14:44:22.183062
44.22354864,0.0003994623839,-0.002663082443,-0.001597849536,2024-06-04 14:44:22.223549
44.26403937,0.003595161485,-0.0007989247679,-0.007190322969,2024-06-04 14:44:22.264039
44.30452671,0.003595161485,-0.003994623665,-0.008255556226,2024-06-04 14:44:22.304527
44.34501608,0.004394086078,-0.002929390874,-0.006924014539,2024-06-04 14:44:22.345016
44.38550577,0.005459319334,-0.01225017942,-0.006125089712,2024-06-04 14:44:22.385506
44.42599577,0.006790860556,-0.005059856921,-0.006125089712,2024-06-04 14:44:22.425996
44.46648546,0.004660394508,-0.004793548491,-0.004793548491,2024-06-04 14:44:22.466485
44.50696671,0.001997311832,-0.003195699072,-0.003994623665,2024-06-04 14:44:22.506967
44.54743947,-0.001997311832,-0.0005326165119,-0.003195699072,2024-06-04 14:44:22.547439
44.5879316,0.001731003635,-0.0005326165119,-0.005326164886,2024-06-04 14:44:22.587932
44.62843931,0.002796236658,0.000266308256,-0.006125089712,2024-06-04 14:44:22.628439
44.66891572,0.003062544856,-0.001597849536,-0.006391398143,2024-06-04 14:44:22.668916
44.70944171,0.002529928461,-0.002130466048,-0.005326164886,2024-06-04 14:44:22.709442
44.74989853,0.000932078925,-0.0037283157,-0.002130466048,2024-06-04 14:44:22.749899
44.79041827,0.001997311832,-0.003195699072,-0.00186415785,2024-06-04 14:44:22.790418
44.83090817,0.001997311832,-0.002663082443,-0.001597849536,2024-06-04 14:44:22.830908
44.87139806,-0.000932078925,0.002929390874,-0.000266308256,2024-06-04 14:44:22.871398
44.91188796,-0.001997311832,0.002130466048,0.00186415785,2024-06-04 14:44:22.911888
44.95238801,0.001997311832,0.0007989247679,0.001065233024,2024-06-04 14:44:22.952388
44.99287786,0.003062544856,0.002396774245,-0.001331541222,2024-06-04 14:44:22.992878
45.03333468,0.0006657706108,0.0005326165119,-0.001597849536,2024-06-04 14:44:23.033335
45.07383551,-0.0006657706108,0.002396774245,0.001597849536,2024-06-04 14:44:23.073836
45.11430093,-0.000932078925,-0.002663082443,0.0005326165119,2024-06-04 14:44:23.114301
45.15485598,-0.0006657706108,-0.003462007269,-0.001065233024,2024-06-04 14:44:23.154856
45.19528994,-0.0006657706108,-0.002929390874,-0.001065233024,2024-06-04 14:44:23.195290
45.23582369,-0.001464695437,0.000266308256,-0.001597849536,2024-06-04 14:44:23.235824
45.2763489,0.000932078925,0.000266308256,-0.001331541222,2024-06-04 14:44:23.276349
45.31683874,0.001731003635,-0.001065233024,-0.001597849536,2024-06-04 14:44:23.316839
45.35728411,0.0006657706108,-0.0005326165119,-0.0007989247679,2024-06-04 14:44:23.357284
45.39776676,0.0003994623839,-0.001597849536,-0.002130466048,2024-06-04 14:44:23.397767
45.43826473,-0.000133154128,-0.001331541222,-0.00186415785,2024-06-04 14:44:23.438265
45.47874801,-0.001464695437,-0.001597849536,-0.001331541222,2024-06-04 14:44:23.478748
45.51921176,0.000932078925,-0.0005326165119,-0.0007989247679,2024-06-04 14:44:23.519212
45.55970728,0.003861469682,-0.002929390874,-0.001065233024,2024-06-04 14:44:23.559707
45.60023556,0.004926702939,0.001597849536,-0.003462007269,2024-06-04 14:44:23.600236
45.64071093,0.000932078925,0.00186415785,-0.001331541222,2024-06-04 14:44:23.640711
45.6812141,-0.000932078925,0.003994623665,0.00186415785,2024-06-04 14:44:23.681214
45.72170926,-0.002529928461,-0.001597849536,0.003195699072,2024-06-04 14:44:23.721709
45.76219786,-0.002263620263,-0.002396774245,0.002929390874,2024-06-04 14:44:23.762198
45.80267478,-0.005193010904,-0.004793548491,0.002663082443,2024-06-04 14:44:23.802675
45.84313562,-0.001198387123,-0.001065233024,-0.0007989247679,2024-06-04 14:44:23.843136
45.88362536,0.01318225823,-0.003994623665,-0.01198387146,2024-06-04 14:44:23.883625
45.92412775,0.01531272475,0.006657706574,-0.01225017942,2024-06-04 14:44:23.924128
45.9646428,-0.01850842312,0.02263620123,0.01970681176,2024-06-04 14:44:23.964643
46.0051328,0.003328853287,0.01944050193,-0.001331541222,2024-06-04 14:44:24.005133
46.04562317,0.005725627299,0.004527240526,-0.01677742042,2024-06-04 14:44:24.045623
46.08605192,0.005459319334,0.01651111245,-0.02796236612,2024-06-04 14:44:24.086052
46.12656218,-0.001731003635,0.03595161438,-0.02183727734,2024-06-04 14:44:24.126562
46.16706884,-0.004394086078,0.02316881903,-0.002929390874,2024-06-04 14:44:24.167069
46.20755187,0.001997311832,0.006391398143,0.004527240526,2024-06-04 14:44:24.207552
46.24804541,0.007856093347,-0.02396774292,0.01251648832,2024-06-04 14:44:24.248045
46.28852556,0.001464695437,-0.03648423031,0.0146469539,2024-06-04 14:44:24.288526
46.32903036,-0.005193010904,-0.02902759984,0.008521864191,2024-06-04 14:44:24.329030
46.36948041,-0.008921326138,-0.01065232977,-0.007722939365,2024-06-04 14:44:24.369480
46.40999551,-0.009453942999,-0.01225017942,-0.01304910425,2024-06-04 14:44:24.409996
46.45048536,0.01238333434,-0.0298265256,-0.01038602181,2024-06-04 14:44:24.450485
46.49097421,0.02037258074,-0.06098458916,0.001597849536,2024-06-04 14:44:24.490974
46.53146358,-0.006790860556,-0.006657706574,0.00798924733,2024-06-04 14:44:24.531464
46.57193635,-0.02676397935,0.06231613085,-0.002396774245,2024-06-04 14:44:24.571936
46.61245452,-0.002263620263,0.02822867595,-0.01384802908,2024-06-04 14:44:24.612455
46.65293551,0.02383458801,-0.2315550297,-0.005059856921,2024-06-04 14:44:24.652936
46.69344348,0.01318225823,-0.5146406889,0.03728315607,2024-06-04 14:44:24.693443
46.73396983,-0.1400781423,-0.2922733128,0.1145125479,2024-06-04 14:44:24.733970
46.77442942,-0.6162372828,0.5924026966,0.2838846147,2024-06-04 14:44:24.774429
46.81488978,-0.9782834053,1.297986388,0.2362154275,2024-06-04 14:44:24.814890
46.85537213,-0.8986572027,1.955102086,0.2820204496,2024-06-04 14:44:24.855372
46.8958652,-0.8605751395,1.077882648,0.1802906841,2024-06-04 14:44:24.895865
46.93637442,-0.6343462467,-0.1870815456,0.2513949871,2024-06-04 14:44:24.936374
46.97685015,-0.4966649115,-0.4581833482,0.3195699155,2024-06-04 14:44:24.976850
47.01733457,-0.59599787,-0.1399449855,0.3765598834,2024-06-04 14:44:25.017335
47.05783926,-0.3701684773,0.02902759984,0.2420742065,2024-06-04 14:44:25.057839
47.09835426,-0.09560466558,-0.1647116542,0.2673735023,2024-06-04 14:44:25.098354
47.13883358,0.2155765295,-0.9983896613,0.2157096863,2024-06-04 14:44:25.138834
47.17929619,0.4624442756,-1.199985027,0.2356828004,2024-06-04 14:44:25.179296
47.21978801,0.497064352,-1.141929746,0.1930734813,2024-06-04 14:44:25.219788
47.26029015,0.3948020041,-0.667767942,0.1667089611,2024-06-04 14:44:25.260290
47.30079629,0.1921414137,-0.1234338731,0.2793573737,2024-06-04 14:44:25.300796
47.34126832,0.1977338791,0.2263620198,0.3717663288,2024-06-04 14:44:25.341268
47.38172265,0.2304897904,0.103061296,0.4969311953,2024-06-04 14:44:25.381723
47.42221801,0.162847504,0.1288931966,0.4476641715,2024-06-04 14:44:25.422218
47.46271895,0.04513924941,0.1504641622,0.3672390878,2024-06-04 14:44:25.462719
47.50320588,-0.04141093418,0.1459369212,0.2761616707,2024-06-04 14:44:25.503206
47.54368994,-0.1278279573,0.143540144,0.157654494,2024-06-04 14:44:25.543690
47.58419869,-0.195203945,0.0926752761,0.04660394415,2024-06-04 14:44:25.584199
47.62473286,-0.2620473206,0.1001319066,-0.006391398143,2024-06-04 14:44:25.624733
47.66524056,-0.4591154456,0.1009308323,0.04979964346,2024-06-04 14:44:25.665241
47.70567812,-0.5611115098,0.1885462403,0.01997311972,2024-06-04 14:44:25.705678
47.74620556,-0.5549864173,0.009054481052,0.002929390874,2024-06-04 14:44:25.746206
47.78665624,-0.4308867455,0.09480573982,-0.06444659829,2024-06-04 14:44:25.786656
47.82714421,-0.2213021666,-0.2001306564,-0.2374138087,2024-06-04 14:44:25.827144
47.86765671,0.009720250964,-0.1545919478,-0.1993317306,2024-06-04 14:44:25.867657
47.90814155,0.2137123793,-0.2046578974,-0.1529940963,2024-06-04 14:44:25.908142
47.94864369,0.2113156021,-0.392937839,-0.1958697289,2024-06-04 14:44:25.948644
47.9890953,0.2134460658,-0.3473991156,-0.3018604219,2024-06-04 14:44:25.989095
48.02960015,0.2464682907,0.1275616586,-0.3703016341,2024-06-04 14:44:26.029600
48.0700827,0.2193048447,0.03488638252,-0.2254299372,2024-06-04 14:44:26.070083
48.11057942,0.270169735,0.1595186442,-0.2256962508,2024-06-04 14:44:26.110579
48.15109207,0.1199718714,0.1643121988,-0.3013277948,2024-06-04 14:44:26.151092
48.19154666,-0.03981308267,0.3986634612,-0.3159747422,2024-06-04 14:44:26.191547
48.23210119,-0.3198362291,0.7266221046,-0.3726983964,2024-06-04 14:44:26.232101
48.27254697,-0.5888075829,1.315296531,-0.1556571722,2024-06-04 14:44:26.272547
48.31303676,-0.7846772671,1.832333922,0.314776361,2024-06-04 14:44:26.313037
48.35352661,-0.7324808836,1.364829779,0.07030537724,2024-06-04 14:44:26.353527
48.39399161,-0.4375444651,0.4119788706,-0.06737598777,2024-06-04 14:44:26.393992
48.43446062,-0.3938699067,-0.4746944606,0.03754946589,2024-06-04 14:44:26.434461
48.47494619,-0.2849498391,-0.1489994675,0.112115778,2024-06-04 14:44:26.474946
48.51543603,-0.07230269164,-0.1521951705,0.06338136643,2024-06-04 14:44:26.515436
48.55592817,0.2091851383,-0.3199693561,0.03834838793,2024-06-04 14:44:26.555928
48.59646374,0.2850829959,-1.012237668,0.006391398143,2024-06-04 14:44:26.596464
48.63694192,0.4842815697,-1.30783987,-0.02716344222,2024-06-04 14:44:26.636942
48.67743588,0.5541874766,-1.137136221,0.02130465955,2024-06-04 14:44:26.677436
48.71790671,0.4006607831,-0.7007901669,0.1094526947,2024-06-04 14:44:26.717907
48.75839265,0.2640446424,-0.4877435565,0.03621792421,2024-06-04 14:44:26.758393
48.79889291,0.09307473898,-0.3532578945,0.09187635034,2024-06-04 14:44:26.798893
48.83936478,-0.01611164957,-0.04500609636,0.1334204376,2024-06-04 14:44:26.839365
48.87985431,-0.1440727711,0.06284874678,0.1462032348,2024-06-04 14:44:26.879854
48.92036827,-0.1909430176,0.2383458912,0.1195724085,2024-06-04 14:44:26.920368
48.96090666,-0.2098509073,0.01198387146,0.0114512546,2024-06-04 14:44:26.960907
49.00139619,-0.1792254597,-0.07350108027,-0.1093195379,2024-06-04 14:44:27.001396
49.04188572,-0.1821548492,-0.1306242049,-0.06471290439,2024-06-04 14:44:27.041886
49.08229286,-0.1821548492,-0.0007989247679,-0.04074516147,2024-06-04 14:44:27.082293
49.12286291,-0.2205032408,-0.1575213373,-0.03169068322,2024-06-04 14:44:27.122863
49.16332332,-0.1760297567,-0.1308905035,-0.01784265228,2024-06-04 14:44:27.163323
49.20378562,-0.143540144,-0.004527240526,0.03941362351,2024-06-04 14:44:27.203786
49.24428801,-0.1296921223,-0.009054481052,-0.004793548491,2024-06-04 14:44:27.244288
49.28481239,-0.1051917598,0.06657706201,-0.0487344116,2024-06-04 14:44:27.284812
49.32530166,-0.04434032366,-0.018907886,0.01358172111,2024-06-04 14:44:27.325302
49.36573963,-0.01930734888,-0.0458050184,0.04793548584,2024-06-04 14:44:27.365740
49.40622879,-0.003328853287,-0.1484668553,0.04074516147,2024-06-04 14:44:27.406229
49.44671806,-0.01424749196,-0.1207707971,0.03515268862,2024-06-04 14:44:27.446718
49.4872241,-0.001464695437,-0.01011971384,0.02956021577,2024-06-04 14:44:27.487224
49.52771327,-0.02410089783,0.02929390781,0.03142437339,2024-06-04 14:44:27.527713
49.56821983,-0.04220985994,0.03595161438,0.01997311972,2024-06-04 14:44:27.568220
49.6086891,0.004660394508,-0.01304910425,0.001597849536,2024-06-04 14:44:27.608689
49.6491726,0.06085143611,-0.09054480493,-0.002396774245,2024-06-04 14:44:27.649173
49.68966619,0.08854749799,-0.08548495173,-0.001331541222,2024-06-04 14:44:27.689666
49.73013556,0.1098521575,-0.0260982085,-0.005592473317,2024-06-04 14:44:27.730136
49.7706415,0.1157109365,-0.02077204362,-0.01624480449,2024-06-04 14:44:27.770642
49.81114416,0.1002650559,-0.09134373069,-0.02050573565,2024-06-04 14:44:27.811144
49.85163358,0.1431406885,-0.04660394415,0.003994623665,2024-06-04 14:44:27.851634
49.89212296,0.1207707971,-0.142874375,-0.02103835158,2024-06-04 14:44:27.892123
49.93259525,0.08215609938,-0.1391460598,-0.03648423031,2024-06-04 14:44:27.932595
49.97308187,0.04061200842,-0.056723658,-0.01624480449,2024-06-04 14:44:27.973082
50.01357405,0.009187635034,-0.04793548584,-0.04687025398,2024-06-04 14:44:28.013574
50.05406088,0.01238333434,-0.07829462737,-0.08788172156,2024-06-04 14:44:28.054061
50.09455187,0.0683080703,-0.08388710022,-0.07856093347,2024-06-04 14:44:28.094552
50.13506546,0.06378082931,0.01011971384,-0.07909355313,2024-06-04 14:44:28.135065
50.17557806,0.1018629074,0.01358172111,-0.1070559174,2024-06-04 14:44:28.175578
50.21607733,0.1378145218,-0.05858781561,-0.09587097168,2024-06-04 14:44:28.216077
50.25657291,0.142874375,-0.1003982127,-0.08947957307,2024-06-04 14:44:28.256573
50.29704645,0.123167567,-0.06284874678,-0.08441971987,2024-06-04 14:44:28.297046
50.33748556,0.08055824786,-0.004793548491,-0.09906667471,2024-06-04 14:44:28.337486
50.37797098,0.05872096866,0.01065232977,-0.1135804728,2024-06-04 14:44:28.377971
50.41850848,0.05019910634,-0.0114512546,-0.05272903293,2024-06-04 14:44:28.418508
50.45898556,0.04487293959,-0.01544587873,-0.03568530455,2024-06-04 14:44:28.458986
50.49947364,0.007589785382,-0.01944050193,-0.1109173894,2024-06-04 14:44:28.499474
50.53994457,-0.03262276202,0.03808208182,-0.0929415822,2024-06-04 14:44:28.539945
50.58043082,-0.108920075,0.08814803511,-0.0037283157,2024-06-04 14:44:28.580431
50.62092614,0.02623136342,0.07270215452,-0.1199718714,2024-06-04 14:44:28.620926
50.66146655,-0.002796236658,0.08335448056,-0.07856093347,2024-06-04 14:44:28.661467
50.70192588,-0.006790860556,-0.03808208182,0.01677742042,2024-06-04 14:44:28.701926
50.74243551,-0.01291595027,-0.08814803511,-0.000266308256,2024-06-04 14:44:28.742436
50.78289483,-0.01824211515,-0.06018566713,0.01225017942,2024-06-04 14:44:28.782895
50.82335405,-0.004660394508,-0.02370143496,-0.0074566314,2024-06-04 14:44:28.823354
50.86387358,-0.002529928461,-0.02876129188,-0.02236989327,2024-06-04 14:44:28.863874
50.90436343,-0.01797580719,-0.02103835158,0.008521864191,2024-06-04 14:44:28.904363
50.94483312,-0.004926702939,-0.01997311972,0.001331541222,2024-06-04 14:44:28.944833
50.98531431,-0.01025286783,0.03914731368,0.002663082443,2024-06-04 14:44:28.985314
51.02580426,-0.02170412242,0.1003982127,0.04127778113,2024-06-04 14:44:29.025804
51.06628353,0.01185071748,0.02423405088,0.01384802908,2024-06-04 14:44:29.066284
51.10681452,0.01291595027,0.01278279629,0.009587096982,2024-06-04 14:44:29.106815
51.14733067,0.004660394508,-0.03169068322,0.0117175635,2024-06-04 14:44:29.147331
51.18780744,-0.004926702939,-0.03568530455,0.002663082443,2024-06-04 14:44:29.187807
51.22831582,-0.008388710208,-0.01225017942,-0.000266308256,2024-06-04 14:44:29.228316
51.26881327,-0.000932078925,-0.0221035853,0.0037283157,2024-06-04 14:44:29.268813
51.30930015,0.000932078925,-0.0221035853,0.009853405878,2024-06-04 14:44:29.309300
51.3497903,0.00998655986,-0.02796236612,0.003195699072,2024-06-04 14:44:29.349790
51.39028051,0.01451379992,-0.01917419396,-0.01411433797,2024-06-04 14:44:29.390281
51.43077072,0.01025286783,-0.018907886,-0.02556559257,2024-06-04 14:44:29.430771
51.47126088,0.01797580719,-0.02476666868,-0.0005326165119,2024-06-04 14:44:29.471261
51.51175108,0.002263620263,-0.01944050193,0.0149132628,2024-06-04 14:44:29.511751
51.55221879,-0.007057168987,-0.02503297664,0.006125089712,2024-06-04 14:44:29.552219
51.59268931,0.002529928461,-0.002929390874,0.006125089712,2024-06-04 14:44:29.592689
51.63321442,0.002529928461,0.01624480449,-0.005592473317,2024-06-04 14:44:29.633214
51.67367369,0.005459319334,0.03089175746,-0.01358172111,2024-06-04 14:44:29.673674
51.71417536,0.008921326138,0.0490007177,-0.00798924733,2024-06-04 14:44:29.714175
51.75467713,0.0006657706108,0.08894696087,0.0007989247679,2024-06-04 14:44:29.754677
51.79514786,0.01158440951,0.06657706201,0.01278279629,2024-06-04 14:44:29.795148
51.83559947,0.01824211515,0.02636451647,-0.0005326165119,2024-06-04 14:44:29.835599
51.87609843,0.01424749196,-0.03595161438,-0.02103835158,2024-06-04 14:44:29.876098
51.91658786,0.01211702544,-0.06471290439,-0.006924014539,2024-06-04 14:44:29.916588
51.95709676,0.004926702939,-0.08601756394,0.0114512546,2024-06-04 14:44:29.957097
51.99758884,-0.007856093347,-0.08282186836,0.01225017942,2024-06-04 14:44:29.997589
52.03812332,-0.02037258074,-0.0487344116,-0.0007989247679,2024-06-04 14:44:30.038123
52.07861567,-0.00998655986,0.001331541222,-0.01704372838,2024-06-04 14:44:30.078616
52.11904687,-0.005725627299,0.01038602181,-0.01065232977,2024-06-04 14:44:30.119047
52.15953645,-0.003595161485,0.008788172156,0.0007989247679,2024-06-04 14:44:30.159536
52.20002645,0.003328853287,-0.002130466048,0.01198387146,2024-06-04 14:44:30.200026
52.24051593,0.01957365684,-0.02503297664,0.01544587873,2024-06-04 14:44:30.240516
52.2810664,0.05259587988,-0.07003907114,0.0114512546,2024-06-04 14:44:30.281066
52.32155661,0.04886756465,-0.04607132822,0.008788172156,2024-06-04 14:44:30.321557
52.36204687,0.04833494872,0.04660394415,-0.02742975019,2024-06-04 14:44:30.362047
52.40247947,0.05792204663,0.1198387146,-0.03595161438,2024-06-04 14:44:30.402479
52.44298473,0.04726971686,0.117974557,-0.0260982085,2024-06-04 14:44:30.442985
52.48346468,0.01904104091,0.06950645149,-0.02236989327,2024-06-04 14:44:30.483465
52.52395681,-0.002263620263,0.04687025398,-0.002396774245,2024-06-04 14:44:30.523957
52.5644903,-0.02916075476,0.03089175746,0.000266308256,2024-06-04 14:44:30.564490
52.6049502,-0.0544600375,-0.003195699072,-0.01304910425,2024-06-04 14:44:30.604950
52.6454215,-0.06111774594,-0.03675054014,-0.01651111245,2024-06-04 14:44:30.645421
52.68595218,-0.04300878197,-0.05752258375,-0.0117175635,2024-06-04 14:44:30.685952
52.72643624,-0.006790860556,-0.04633763805,-0.004793548491,2024-06-04 14:44:30.726436
52.76691046,0.01238333434,-0.01118494663,-0.002663082443,2024-06-04 14:44:30.766910
52.80738598,0.007323476952,0.01438064594,0.004527240526,2024-06-04 14:44:30.807386
52.84786796,0.007856093347,0.02716344222,0.005592473317,2024-06-04 14:44:30.847868
52.88838713,-0.002529928461,0.0260982085,-0.001331541222,2024-06-04 14:44:30.888387
52.92885239,-0.007589785382,0.0221035853,-0.00186415785,2024-06-04 14:44:30.928852
52.96932739,-0.002796236658,0.004260932095,0.002396774245,2024-06-04 14:44:30.969327
53.00983551,0.001198387123,-0.01251648832,0.002130466048,2024-06-04 14:44:31.009836
53.05030952,-0.0006657706108,-0.01544587873,0.002929390874,2024-06-04 14:44:31.050310
53.0908051,-0.006524552125,-0.03675054014,-0.002929390874,2024-06-04 14:44:31.090805
53.1313053,-0.02623136342,-0.1137136221,-0.01624480449,2024-06-04 14:44:31.131305
53.17178369,-0.05073172227,-0.1094526947,-0.005858781748,2024-06-04 14:44:31.171784
53.21230921,-0.06111774594,-0.006924014539,-0.01065232977,2024-06-04 14:44:31.212309
53.25282166,-0.03874785081,0.04181039706,-0.02050573565,2024-06-04 14:44:31.252822
53.29326848,0.0006657706108,0.05858781561,-0.009320789017,2024-06-04 14:44:31.293268
53.33375249,0.03448691964,0.07696308941,0.01198387146,2024-06-04 14:44:31.333752
53.37424213,0.04780233279,0.09613727778,0.02956021577,2024-06-04 14:44:31.374242
53.41473176,0.03209014609,0.07856093347,0.02157096937,2024-06-04 14:44:31.414732
53.45522135,0.008655018173,0.04260931909,0.02423405088,2024-06-04 14:44:31.455221
53.49571098,-0.01424749196,0.0074566314,0.01757634431,2024-06-04 14:44:31.495711
53.53621411,-0.02383458801,-0.02263620123,-0.002396774245,2024-06-04 14:44:31.536214
53.57670411,-0.02489982173,-0.02396774292,-0.005059856921,2024-06-04 14:44:31.576704
53.61723119,-0.01744319126,-0.01970681176,-0.002130466048,2024-06-04 14:44:31.617231
53.65766827,-0.006258244161,-0.02423405088,0.005858781748,2024-06-04 14:44:31.657668
53.69819056,0.002263620263,-0.01065232977,0.006391398143,2024-06-04 14:44:31.698191
53.73866536,0.000932078925,-0.0037283157,0.02370143496,2024-06-04 14:44:31.738665
53.77913937,0.003328853287,0.005326164886,0.01837527007,2024-06-04 14:44:31.779139
53.819629,0.003062544856,0.018907886,-0.001065233024,2024-06-04 14:44:31.819629
53.86011864,-0.0006657706108,0.02689713426,0.003195699072,2024-06-04 14:44:31.860119
53.90060827,0.000932078925,0.01251648832,0.007722939365,2024-06-04 14:44:31.900608
53.94116207,0.008655018173,-0.01757634431,0.0114512546,2024-06-04 14:44:31.941162
53.98165171,0.005459319334,-0.01677742042,0.009320789017,2024-06-04 14:44:31.981652
54.02214134,0.005725627299,-0.01198387146,0.00186415785,2024-06-04 14:44:32.022141
54.06255817,-0.000133154128,-0.01331541315,-0.003994623665,2024-06-04 14:44:32.062558
54.10306004,0.01025286783,0.008521864191,0.006391398143,2024-06-04 14:44:32.103060
54.14357499,0.02809552103,0.04447348043,0.01438064594,2024-06-04 14:44:32.143575
54.18405957,0.02090519853,0.006125089712,-0.0007989247679,2024-06-04 14:44:32.184060
54.22457249,0.06990591437,0.04181039706,-0.009054481052,2024-06-04 14:44:32.224572
54.26504702,0.07762885839,0.03462007269,-0.06817491353,2024-06-04 14:44:32.265047
54.30552062,0.0683080703,0.03621792421,-0.0708379969,2024-06-04 14:44:32.305521
54.34600942,0.05232957378,0.02343512699,-0.02316881903,2024-06-04 14:44:32.346009
54.38649926,0.01318225823,0.003994623665,0.02157096937,2024-06-04 14:44:32.386499
54.42698994,-0.01238333434,-0.04500609636,0.0490007177,2024-06-04 14:44:32.426990
54.46748895,-0.02916075476,-0.07216953486,0.01331541315,2024-06-04 14:44:32.467489
54.50799239,-0.0464707911,-0.06684337556,-0.01864157803,2024-06-04 14:44:32.507992
54.548479,-0.03688369319,-0.05299534276,-0.007722939365,2024-06-04 14:44:32.548479
54.58896733,-0.007323476952,-0.04047885537,0.0149132628,2024-06-04 14:44:32.588967
54.62945192,0.01611164957,-0.01597849466,0.01278279629,2024-06-04 14:44:32.629452
54.66991291,0.01131810062,0.003195699072,0.003195699072,2024-06-04 14:44:32.669913
54.71041228,0.008122402243,0.009054481052,0.002663082443,2024-06-04 14:44:32.710412
54.75090207,0.003328853287,0.005326164886,0.003462007269,2024-06-04 14:44:32.750902
54.79141015,-0.003062544856,0.000266308256,0.002396774245,2024-06-04 14:44:32.791410
54.83189999,-0.003595161485,0.004260932095,-0.0037283157,2024-06-04 14:44:32.831900
54.87235603,0.001997311832,0.0074566314,-0.005326164886,2024-06-04 14:44:32.872356
54.91287187,0.01211702544,0.01944050193,-0.00186415785,2024-06-04 14:44:32.912872
54.95340067,0.01584534161,0.0221035853,0.001331541222,2024-06-04 14:44:32.953401
54.99389025,0.01344856713,0.01677742042,0.005326164886,2024-06-04 14:44:32.993890
55.03437973,0.002796236658,0.006924014539,0.0037283157,2024-06-04 14:44:33.034380
55.07481327,-0.003595161485,-0.005326164886,-0.001065233024,2024-06-04 14:44:33.074813
55.11531983,-0.005459319334,-0.02450035885,0.001065233024,2024-06-04 14:44:33.115320
55.15583093,-0.004926702939,-0.0330222249,0.003994623665,2024-06-04 14:44:33.155831
55.19633067,-0.0003994623839,-0.02636451647,0.003195699072,2024-06-04 14:44:33.196331
55.23681556,0.001464695437,-0.009054481052,-0.004527240526,2024-06-04 14:44:33.236816
55.27728562,0.004926702939,0.0,-0.001065233024,2024-06-04 14:44:33.277286
55.3177552,0.006258244161,0.003994623665,0.004260932095,2024-06-04 14:44:33.317755
55.35826405,0.002263620263,-0.00186415785,0.0037283157,2024-06-04 14:44:33.358264
55.39875749,-0.003062544856,-0.0005326165119,0.000266308256,2024-06-04 14:44:33.398757
55.43922968,0.000133154128,0.00798924733,-0.000266308256,2024-06-04 14:44:33.439230
55.47972374,0.004394086078,-0.003195699072,0.004260932095,2024-06-04 14:44:33.479724
55.52020395,0.005193010904,-0.02822867595,-0.008521864191,2024-06-04 14:44:33.520204
55.56071275,0.002796236658,-0.02822867595,-0.01011971384,2024-06-04 14:44:33.560713
55.60125244,-0.001198387123,-0.009054481052,-0.003462007269,2024-06-04 14:44:33.601252
55.64169739,-0.0006657706108,0.006391398143,-0.0005326165119,2024-06-04 14:44:33.641697
55.68217858,0.001464695437,0.01411433797,-0.003195699072,2024-06-04 14:44:33.682179
55.72269728,-0.001198387123,0.0149132628,-0.001065233024,2024-06-04 14:44:33.722697
55.76320478,0.002796236658,0.02130465955,0.01331541315,2024-06-04 14:44:33.763205
55.80368098,0.007589785382,0.01251648832,0.0146469539,2024-06-04 14:44:33.803681
55.84413442,0.006258244161,-0.007722939365,0.006125089712,2024-06-04 14:44:33.844134
55.88463989,0.001997311832,-0.018907886,-0.0114512546,2024-06-04 14:44:33.884640
55.92514051,-0.004394086078,-0.009054481052,-0.01704372838,2024-06-04 14:44:33.925141
55.96564312,-0.01051917579,0.0007989247679,-0.0117175635,2024-06-04 14:44:33.965643
56.00613806,-0.01105179265,0.0007989247679,0.003994623665,2024-06-04 14:44:34.006138
56.04662692,-0.0166442655,-0.01331541315,0.03062544949,2024-06-04 14:44:34.046627
56.08706858,-0.01238333434,-0.007190322969,0.04846810177,2024-06-04 14:44:34.087069
56.12756739,0.007589785382,-0.02103835158,0.1171756312,2024-06-04 14:44:34.127567
56.16807879,0.02942706272,0.03035914153,0.03462007269,2024-06-04 14:44:34.168079
56.20857864,0.02596505545,0.0519301109,-0.04500609636,2024-06-04 14:44:34.208579
56.24905155,0.01238333434,0.0260982085,-0.0410114713,2024-06-04 14:44:34.249052
56.28956879,0.003062544856,-0.02263620123,-0.01837527007,2024-06-04 14:44:34.289569
56.33002114,-0.01158440951,-0.06710968167,-0.002929390874,2024-06-04 14:44:34.330021
56.37051145,-0.02090519853,-0.06204982474,0.01331541315,2024-06-04 14:44:34.370511
56.41100171,-0.01211702544,-0.01438064594,0.01225017942,2024-06-04 14:44:34.411002
56.45149082,0.002796236658,0.03488638252,0.0007989247679,2024-06-04 14:44:34.451491
56.49198072,0.01318225823,0.04154408723,0.005858781748,2024-06-04 14:44:34.491981
56.53249676,0.01584534161,0.01704372838,-0.004793548491,2024-06-04 14:44:34.532497
56.57293103,0.004926702939,-0.004260932095,-0.006125089712,2024-06-04 14:44:34.572931
56.6134303,-0.005459319334,-0.004793548491,-0.0005326165119,2024-06-04 14:44:34.613430
56.65395176,-0.006258244161,0.001065233024,-0.006924014539,2024-06-04 14:44:34.653952
56.69441874,0.000133154128,0.003462007269,-0.002130466048,2024-06-04 14:44:34.694419
56.73490343,0.007057168987,0.005326164886,-0.000266308256,2024-06-04 14:44:34.734903
56.77542036,0.003861469682,0.003195699072,-0.00186415785,2024-06-04 14:44:34.775420
56.81588343,0.000932078925,-0.006657706574,0.0005326165119,2024-06-04 14:44:34.815883
56.85635989,-0.003861469682,-0.01038602181,0.001065233024,2024-06-04 14:44:34.856360
56.8968703,-0.003062544856,-0.006391398143,0.003462007269,2024-06-04 14:44:34.896870
56.93740848,-0.001731003635,-0.000266308256,0.000266308256,2024-06-04 14:44:34.937408
56.97789343,0.003595161485,0.006125089712,0.0037283157,2024-06-04 14:44:34.977893
57.01835806,0.005459319334,0.006391398143,0.003462007269,2024-06-04 14:44:35.018358
57.05884124,0.002529928461,0.01225017942,-0.002130466048,2024-06-04 14:44:35.058841
57.09933317,-0.002263620263,0.002929390874,-0.002663082443,2024-06-04 14:44:35.099333
57.13985921,0.0003994623839,-0.0074566314,0.000266308256,2024-06-04 14:44:35.139859
57.18032582,-0.000932078925,-0.009853405878,0.001065233024,2024-06-04 14:44:35.180326
57.22080968,0.0003994623839,-0.002130466048,-0.00186415785,2024-06-04 14:44:35.220810
57.26130775,-0.000932078925,0.0007989247679,0.002130466048,2024-06-04 14:44:35.261308
57.3017915,0.001198387123,0.006924014539,0.000266308256,2024-06-04 14:44:35.301792
57.34226812,0.002796236658,0.004527240526,-0.001331541222,2024-06-04 14:44:35.342268
57.38275822,0.001731003635,0.001065233024,0.001065233024,2024-06-04 14:44:35.382758
