Time (s),Linear Acceleration x (m/s^2),Linear Acceleration y (m/s^2),Linear Acceleration z (m/s^2),Datetime
0.055056886,0.0,0.0,0.0,2024-06-04 14:43:38.055057
0.095545323,-0.05530524254,0.2985281944,0.6084275246,2024-06-04 14:43:38.095545
0.136033813,0.09433460236,0.0406088829,1.365319252,2024-06-04 14:43:38.136034
0.211624542,-0.2429816723,0.07010126114,0.7274355888,2024-06-04 14:43:38.211625
0.252107511,-0.6473031044,-0.3737082481,-0.5338959694,2024-06-04 14:43:38.252108
0.292546261,-0.7070827484,0.05461883545,-0.8830180168,2024-06-04 14:43:38.292546
0.333020896,-1.213055134,0.2461843491,-0.4336633682,2024-06-04 14:43:38.333021
0.373564646,-2.632517338,-0.1629691124,-1.083517551,2024-06-04 14:43:38.373565
0.414053136,-0.2831604481,0.07267308235,-1.146131516,2024-06-04 14:43:38.414053
0.454541625,0.08445177227,-0.260550499,1.309529305,2024-06-04 14:43:38.454542
0.495030063,-0.4424797297,-1.52053082,1.762862206,2024-06-04 14:43:38.495030
0.535518553,3.347450972,-1.420216203,4.102576256,2024-06-04 14:43:38.535519
0.575963969,3.177872896,-1.999199629,1.457119942,2024-06-04 14:43:38.575964
0.616471573,2.883867741,-0.7833559513,-4.157590389,2024-06-04 14:43:38.616472
0.656980792,-0.9376621246,-1.121560097,0.3214559555,2024-06-04 14:43:38.656981
0.697443292,-0.3507056236,-1.008954525,0.9018125534,2024-06-04 14:43:38.697443
0.73791423,-0.2311279774,-0.4332606792,-1.181159496,2024-06-04 14:43:38.737914
0.778428292,-1.278317809,-0.7661633492,-1.900628567,2024-06-04 14:43:38.778428
0.818908344,-0.4580981731,-0.4978921413,-0.2088098526,2024-06-04 14:43:38.818908
0.859396573,0.2641117573,0.1995646954,-0.1537218094,2024-06-04 14:43:38.859397
0.899938813,0.3008131981,-0.1251199245,0.6298522949,2024-06-04 14:43:38.899939
0.940369855,0.009251356125,-0.2075707912,0.1205396652,2024-06-04 14:43:38.940370
0.980858136,0.0007383823395,-0.3598997593,0.5314712524,2024-06-04 14:43:38.980858
1.021346417,-0.2336637974,-0.595719099,0.8680896759,2024-06-04 14:43:39.021346
1.061833761,-0.1530549526,-0.2620251179,0.8342847824,2024-06-04 14:43:39.061834
1.102322042,1.555267096,-0.7623229027,1.144868851,2024-06-04 14:43:39.102322
1.142824125,0.1880908012,-0.9532372952,1.433238983,2024-06-04 14:43:39.142824
1.183295844,-0.6911697388,-1.140290737,-0.1241607666,2024-06-04 14:43:39.183296
1.223814959,-0.9842576981,-0.09129667282,-3.054162025,2024-06-04 14:43:39.223815
1.264319542,0.1031689644,0.0976061821,-1.535894394,2024-06-04 14:43:39.264320
1.304811469,1.645313978,0.2355623245,0.864481926,2024-06-04 14:43:39.304811
1.34528574,1.668405533,0.2831199169,2.250411987,2024-06-04 14:43:39.345286
1.385765636,0.8378884792,0.0724029541,1.535840988,2024-06-04 14:43:39.385766
1.426254334,0.9025919437,-0.1355361938,0.5546112061,2024-06-04 14:43:39.426254
1.466743292,0.9166026115,-0.3278894424,0.1357774734,2024-06-04 14:43:39.466743
1.507221105,0.4654800892,-0.2926621437,-0.6072034836,2024-06-04 14:43:39.507221
1.547695844,0.0136013031,-0.4677548409,-0.2015161514,2024-06-04 14:43:39.547696
1.588198084,0.1548686028,-0.5186486244,-0.5090498924,2024-06-04 14:43:39.588198
1.628678553,-0.1198682785,-0.5592455864,-0.3102340698,2024-06-04 14:43:39.628679
1.669158969,-0.266238451,-0.3607473373,-0.7718539238,2024-06-04 14:43:39.669159
1.709668032,0.2765302658,-0.3213806152,0.1292743683,2024-06-04 14:43:39.709668
1.750185688,-0.1466012001,-0.2508807182,-0.8489232063,2024-06-04 14:43:39.750186
1.790637615,-0.08698749542,-0.4866299629,1.074678421,2024-06-04 14:43:39.790638
1.831153917,-0.07176113129,-0.4104127884,0.8995895386,2024-06-04 14:43:39.831154
1.87164923,-0.7402133942,-0.3658533096,0.902490139,2024-06-04 14:43:39.871649
1.912096938,-1.096540451,-0.03757143021,0.9195942879,2024-06-04 14:43:39.912097
1.952571365,-2.286285162,-0.2468194962,0.4749956131,2024-06-04 14:43:39.952571
1.993059542,0.1519389153,0.7153019905,-0.04578828812,2024-06-04 14:43:39.993060
2.033547771,0.1097359657,0.08544015884,0.6479072571,2024-06-04 14:43:40.033548
2.074035948,-1.337862015,-0.4997982979,-0.2761940956,2024-06-04 14:43:40.074036
2.114524178,-0.6831278801,-0.2367219925,-0.08371353149,2024-06-04 14:43:40.114524
2.155038917,0.6808791161,-0.1115236282,0.7133784294,2024-06-04 14:43:40.155039
2.195557459,0.2733654976,-0.3499679565,-0.2259726524,2024-06-04 14:43:40.195557
2.236035532,-0.06667661667,-0.2042369843,-0.8869214058,2024-06-04 14:43:40.236036
2.276501417,0.1676812172,0.02867889404,-1.330625534,2024-06-04 14:43:40.276501
2.317003969,0.3924479485,-0.1135754585,-0.8787708282,2024-06-04 14:43:40.317004
2.357504386,-0.3249406815,-0.3967604637,-1.400038242,2024-06-04 14:43:40.357504
2.398006157,-0.5116019249,-0.5961017609,-0.8129549026,2024-06-04 14:43:40.398006
2.438467875,-0.6100564003,-0.9463095665,0.5773277283,2024-06-04 14:43:40.438468
2.478922875,0.7206230164,-0.4744310379,0.2174892426,2024-06-04 14:43:40.478923
2.519411313,-0.6715698242,-0.5259490013,-1.57617569,2024-06-04 14:43:40.519411
2.559899698,1.109195232,0.8908624649,-2.275783062,2024-06-04 14:43:40.559900
2.600388084,-0.3284609318,-0.6511268616,-0.6589927673,2024-06-04 14:43:40.600388
2.640876469,0.1993541718,0.03863716125,0.5750198364,2024-06-04 14:43:40.640876
2.681370271,-0.5270986557,-0.5347578526,0.2075104713,2024-06-04 14:43:40.681370
2.72189824,1.025863647,0.3064699173,2.910152435,2024-06-04 14:43:40.721898
2.762418917,-1.979351282,-0.5549468994,0.7048392296,2024-06-04 14:43:40.762419
2.802916053,-0.5763587952,0.362121582,-0.4803051949,2024-06-04 14:43:40.802916
2.843406105,0.3099007607,0.1534974575,1.741038322,2024-06-04 14:43:40.843406
2.883893032,-1.886184216,-0.9868283272,0.610730648,2024-06-04 14:43:40.883893
2.924352303,0.1113605499,-0.00857925415,0.3842163086,2024-06-04 14:43:40.924352
2.964784021,-0.4282402992,-0.675409317,-0.06531524658,2024-06-04 14:43:40.964784
3.005273396,-0.687833786,-0.8091275692,0.4397988319,2024-06-04 14:43:41.005273
3.045768448,-0.5357704163,-0.6222734451,-1.53692627,2024-06-04 14:43:41.045768
3.086269178,0.1508655548,-0.2478461266,-0.9697861671,2024-06-04 14:43:41.086269
3.126757667,-0.5705361366,-0.939650774,0.6545696259,2024-06-04 14:43:41.126758
3.167245323,1.929785252,0.2121142149,-0.1863117218,2024-06-04 14:43:41.167245
3.207776313,2.727124214,0.8135590553,-2.097028732,2024-06-04 14:43:41.207776
3.248229125,0.8823423386,-0.09306466579,-0.3551301956,2024-06-04 14:43:41.248229
3.28877548,-1.745285392,-0.6953623891,0.4490013123,2024-06-04 14:43:41.288775
3.329194594,-1.022705078,0.7638486624,0.8600282669,2024-06-04 14:43:41.329195
3.369682667,-2.41848135,1.034249306,3.681232452,2024-06-04 14:43:41.369683
3.410240271,2.1842556,2.683231831,0.7314157486,2024-06-04 14:43:41.410240
3.450728344,0.3017517328,1.203129172,1.581635475,2024-06-04 14:43:41.450728
3.491216417,3.207912445,1.28107667,0.918964386,2024-06-04 14:43:41.491216
3.531699855,6.006174088,0.7410522699,1.456526756,2024-06-04 14:43:41.531700
3.57215298,3.951173544,-1.546524644,2.586429596,2024-06-04 14:43:41.572153
3.612641053,1.832180619,-1.341862082,-2.368132114,2024-06-04 14:43:41.612641
3.653129125,3.62532258,2.11857152,3.537197113,2024-06-04 14:43:41.653129
3.693642563,4.482415676,3.719523191,-0.3186922073,2024-06-04 14:43:41.693643
3.73414949,-1.363672256,-1.159574509,-4.099465847,2024-06-04 14:43:41.734149
3.774639542,0.07285833359,-1.167123914,1.502589226,2024-06-04 14:43:41.774640
3.815125219,-0.4972782135,-0.3370676041,-0.5291309357,2024-06-04 14:43:41.815125
3.855604594,2.314891338,-0.1199457645,-0.4766592979,2024-06-04 14:43:41.855605
3.896083709,-4.270101547,-2.48935914,-0.1210427284,2024-06-04 14:43:41.896084
3.936578865,-0.716864109,-2.247296572,0.1899003983,2024-06-04 14:43:41.936579
3.97707048,-0.5753941536,-3.073322058,0.7438521385,2024-06-04 14:43:41.977070
4.0175585,-0.3299736977,1.855582714,-2.482723713,2024-06-04 14:43:42.017558
4.05802475,-0.2228012085,-0.7564519644,0.5673742294,2024-06-04 14:43:42.058025
4.09848949,0.2813196182,-0.4804701805,-1.042239666,2024-06-04 14:43:42.098489
4.138999178,1.114304543,-1.557958722,-0.1625618935,2024-06-04 14:43:42.138999
4.179516625,0.800860405,0.4871199131,1.590091705,2024-06-04 14:43:42.179517
4.2200135,-0.3138160706,1.724851131,-0.5679588318,2024-06-04 14:43:42.220014
4.260480636,0.7023282051,4.97125721,-1.092875481,2024-06-04 14:43:42.260481
4.300993032,-0.3928723335,0.3375878334,0.3051548004,2024-06-04 14:43:42.300993
4.341483709,-0.5839247704,3.266996384,-0.5963129997,2024-06-04 14:43:42.341484
4.38195548,1.952782631,3.405815125,1.870038033,2024-06-04 14:43:42.381955
4.422439178,3.568263531,1.368518949,-0.8246183395,2024-06-04 14:43:42.422439
4.462917563,-1.978956223,-2.511887074,1.990424633,2024-06-04 14:43:42.462918
4.503387094,-1.820985794,-2.162679195,-1.33962512,2024-06-04 14:43:42.503387
4.543874698,-6.719827652,-5.016480446,-0.1505570412,2024-06-04 14:43:42.543875
4.584358292,-2.703419685,-3.812532663,-2.777427197,2024-06-04 14:43:42.584358
4.624847823,4.589980125,-3.01965785,0.2805247307,2024-06-04 14:43:42.624848
4.665338813,4.071136951,-0.7050889134,-1.509145975,2024-06-04 14:43:42.665339
4.705865844,-0.1251716614,-0.2937223911,-0.7779812813,2024-06-04 14:43:42.705866
4.746353292,-1.045110703,-0.7961983681,0.5837292671,2024-06-04 14:43:42.746353
4.786822928,0.5430674553,-1.515531659,-0.3695983887,2024-06-04 14:43:42.786823
4.827309803,0.4519348145,-2.751374722,0.5064959526,2024-06-04 14:43:42.827310
4.867784386,1.263830185,-1.814980865,0.6978507042,2024-06-04 14:43:42.867784
4.908278709,0.6774234772,-1.159994006,0.1845831871,2024-06-04 14:43:42.908279
4.948766834,2.876470089,-2.279161453,-1.880814791,2024-06-04 14:43:42.948767
4.989254907,3.212407589,-0.4043094516,2.201474667,2024-06-04 14:43:42.989255
5.029743032,1.900010109,2.193639994,-0.5628676414,2024-06-04 14:43:43.029743
5.070227563,-5.593024254,3.696457863,-0.6869926453,2024-06-04 14:43:43.070228
5.110718292,-3.386680603,0.8516450524,0.4779000282,2024-06-04 14:43:43.110718
5.151165011,0.6072492599,0.1717199683,-0.6560134888,2024-06-04 14:43:43.151165
5.191720323,-0.2972431183,-0.282874763,-0.279302597,2024-06-04 14:43:43.191720
5.232238344,-0.4033670425,-0.04571908712,-0.7432126999,2024-06-04 14:43:43.232238
5.272732615,0.5394582748,0.03407734632,-1.030385256,2024-06-04 14:43:43.272733
5.313221886,0.3306970596,-0.07453107834,-0.9380657673,2024-06-04 14:43:43.313222
5.353707146,0.8543949127,0.1436786056,-0.7127811909,2024-06-04 14:43:43.353707
5.394156886,0.7940568924,0.3033828139,-0.4866652489,2024-06-04 14:43:43.394157
5.434645219,0.4045000076,0.2614490688,-0.9029092789,2024-06-04 14:43:43.434645
5.475133553,0.09548187256,-0.08021914959,-1.083396435,2024-06-04 14:43:43.475134
5.515621886,-1.21832943,0.8022372723,0.1247525215,2024-06-04 14:43:43.515622
5.55610423,-1.59807682,0.3572952151,0.03684997559,2024-06-04 14:43:43.556104
5.596589646,-0.4819345474,0.3185875416,0.4901838303,2024-06-04 14:43:43.596590
5.637100688,0.3354644775,0.2220233083,-0.1466231346,2024-06-04 14:43:43.637101
5.67760048,0.7900543213,-0.0186650753,-0.7307486534,2024-06-04 14:43:43.677600
5.718076938,0.6090431213,0.2049587965,-0.7081356049,2024-06-04 14:43:43.718077
5.758541313,-0.05488109589,-0.7635318041,-0.5150358677,2024-06-04 14:43:43.758541
5.799029855,-0.5784702301,-1.38338387,0.03531122208,2024-06-04 14:43:43.799030
5.839519073,-1.027931213,-1.102714062,0.454873085,2024-06-04 14:43:43.839519
5.880027615,-0.5402898788,-0.5704095364,0.4054107666,2024-06-04 14:43:43.880028
5.920548605,0.4367647171,-0.07633149624,0.2855210304,2024-06-04 14:43:43.920549
5.961012407,0.956445694,0.1886264086,-0.09588479996,2024-06-04 14:43:43.961012
6.001477094,0.5121631622,0.05618083477,-0.2234847546,2024-06-04 14:43:44.001477
6.041978917,-0.2330579758,-0.2473430634,-0.2302901745,2024-06-04 14:43:44.041979
6.08246574,-0.4816303253,-0.3239709139,-0.2816185951,2024-06-04 14:43:44.082466
6.122965636,-0.3568496704,-0.273645997,-0.3708519936,2024-06-04 14:43:44.122966
6.163483813,-0.07143974304,-0.1462928057,-0.5875644684,2024-06-04 14:43:44.163484
6.203967615,0.001479148865,0.06944108009,-0.650813818,2024-06-04 14:43:44.203968
6.244468292,-0.110669136,0.213817358,-0.7088050842,2024-06-04 14:43:44.244468
6.284954594,-0.09671115875,0.1886968613,-0.6958842278,2024-06-04 14:43:44.284955
6.325446834,-0.074467659,0.1578025818,-0.5920772552,2024-06-04 14:43:44.325447
6.36593324,-0.2614603043,-0.2589113712,-0.1286659241,2024-06-04 14:43:44.365933
6.406418553,-0.05758190155,-0.4571496248,-0.3422040939,2024-06-04 14:43:44.406419
6.44690725,0.03908538818,-0.4750607014,0.1309766769,2024-06-04 14:43:44.446907
6.487395948,0.04689502716,-0.802811861,0.01800584793,2024-06-04 14:43:44.487396
6.527884646,-0.4583749771,-0.6742589474,0.4300551414,2024-06-04 14:43:44.527885
6.568320844,0.4601192474,-0.4214488268,-0.1290335655,2024-06-04 14:43:44.568321
6.608834438,0.7431707382,0.06504559517,-0.2247264385,2024-06-04 14:43:44.608834
6.649323448,0.1745519638,0.2702600956,-0.3878407478,2024-06-04 14:43:44.649323
6.689833032,0.1179389954,0.5025826693,-0.3222093582,2024-06-04 14:43:44.689833
6.730267771,0.2404117584,0.6780161262,-0.5249347687,2024-06-04 14:43:44.730268
6.770828917,0.2978544235,0.713952899,-0.7039182186,2024-06-04 14:43:44.770829
6.811314438,0.5460968018,0.5801784992,-0.252042532,2024-06-04 14:43:44.811314
6.851804178,-0.07279968262,0.02870845795,0.1284925938,2024-06-04 14:43:44.851804
6.892292198,-0.4159030914,-0.5569829941,0.2910211086,2024-06-04 14:43:44.892292
6.932781521,-0.3520364761,-0.9011784792,0.09476590157,2024-06-04 14:43:44.932782
6.973244021,-0.1695518494,-0.7630461454,-0.09746098518,2024-06-04 14:43:44.973244
7.013707459,-0.00342464447,-0.2969843149,-0.1947748661,2024-06-04 14:43:45.013707
7.054191782,0.06558418274,0.01747202873,-0.2853777409,2024-06-04 14:43:45.054192
7.094681469,0.0420627594,0.3251212835,-0.2843203545,2024-06-04 14:43:45.094681
7.135209073,-0.02433490753,0.2264528275,-0.3771352768,2024-06-04 14:43:45.135209
7.175705271,0.02769756317,-0.001305103302,-0.1878192425,2024-06-04 14:43:45.175705
7.216177563,0.06770324707,-0.1026889086,-0.1472313404,2024-06-04 14:43:45.216178
7.256670532,-0.08522033691,-0.1454645395,-0.1928451061,2024-06-04 14:43:45.256671
7.297141261,-0.3595428467,-0.08587443829,-0.3338873386,2024-06-04 14:43:45.297141
7.337644282,-0.17694664,-0.228366375,-0.5594315529,2024-06-04 14:43:45.337644
7.378129021,-0.03270721436,-0.05932331085,-0.3093771935,2024-06-04 14:43:45.378129
7.418591417,0.1478433609,0.1384705305,-0.06939077377,2024-06-04 14:43:45.418591
7.459081,0.2870607376,0.2711235285,-0.03266429901,2024-06-04 14:43:45.459081
7.499576834,0.1907653809,0.2357732058,0.1615915298,2024-06-04 14:43:45.499577
7.540074438,0.249253273,-0.009927392006,0.4468026161,2024-06-04 14:43:45.540074
7.580552459,-0.90184021,-0.7796633244,1.009706259,2024-06-04 14:43:45.580552
7.621037042,-1.35423851,-1.080972552,0.5598568916,2024-06-04 14:43:45.621037
7.661491678,0.9896736145,-0.3499732018,-0.5334250927,2024-06-04 14:43:45.661492
7.702057198,1.595411301,0.2439200282,-0.8723773956,2024-06-04 14:43:45.702057
7.742566417,1.160334587,0.512860477,-0.875282526,2024-06-04 14:43:45.742566
7.783052146,1.044253826,0.908536613,-0.7678322792,2024-06-04 14:43:45.783052
7.823544907,0.3256072998,0.8165543079,-0.2443304062,2024-06-04 14:43:45.823545
7.864032615,-1.941411972,-0.4483882189,0.2040257454,2024-06-04 14:43:45.864033
7.904518761,-2.51360321,-0.9601240158,0.3523087502,2024-06-04 14:43:45.904519
7.944995948,-0.4131364822,-0.5190986395,-0.02093601227,2024-06-04 14:43:45.944996
7.985440844,1.031355858,-0.05839514732,-0.3461089134,2024-06-04 14:43:45.985441
8.025935219,1.032600403,0.324790597,-0.4803714752,2024-06-04 14:43:46.025935
8.066418917,0.3400936127,0.2714864016,-0.2615971565,2024-06-04 14:43:46.066419
8.106921,-0.5063152313,-0.05126130581,0.08835434914,2024-06-04 14:43:46.106921
8.147455219,-0.7484493256,-0.3545655012,0.3307232857,2024-06-04 14:43:46.147455
8.187944959,-0.09136581421,-0.2681437731,0.08791923523,2024-06-04 14:43:46.187945
8.228402303,0.4303474426,-0.01185464859,-0.1860079765,2024-06-04 14:43:46.228402
8.26891074,0.3264608383,0.09266030788,-0.2940633297,2024-06-04 14:43:46.268911
8.309401209,-0.03577709198,0.06564700603,-0.2354562283,2024-06-04 14:43:46.309401
8.349859125,-0.3572692871,-0.04310286045,-0.1179685593,2024-06-04 14:43:46.349859
8.390393084,-0.266960144,-0.1217820644,-0.09125781059,2024-06-04 14:43:46.390393
8.430882823,0.00900554657,-0.06155920029,-0.1738758087,2024-06-04 14:43:46.430883
8.471335167,0.1654872894,-0.0168017149,-0.1920707226,2024-06-04 14:43:46.471335
8.511806157,0.03774833679,-0.02216959,-0.09444928169,2024-06-04 14:43:46.511806
8.552295844,-0.09057235718,-0.05083906651,-0.01098036766,2024-06-04 14:43:46.552296
8.592782615,-0.08199310303,-0.03677046299,-0.02548241615,2024-06-04 14:43:46.592783
8.633270844,0.03448009491,-0.02921581268,-0.09478569031,2024-06-04 14:43:46.633271
8.67376225,0.07287216187,-0.006280422211,-0.143848896,2024-06-04 14:43:46.673762
8.714296782,-0.03336334229,-0.02408885956,-0.126553297,2024-06-04 14:43:46.714297
8.754794855,-0.1000375748,-0.05326712132,-0.1038429737,2024-06-04 14:43:46.754795
8.795270323,-0.05661201477,-0.05437362194,-0.1127741337,2024-06-04 14:43:46.795270
8.835740896,0.05836677551,0.05808007717,-0.05076026917,2024-06-04 14:43:46.835741
8.876233813,0.08199310303,0.05565321445,-0.008832454681,2024-06-04 14:43:46.876234
8.916706417,0.006965637207,-0.01881420612,-0.02385091782,2024-06-04 14:43:46.916706
8.957225792,-0.07819271088,-0.08652603626,-0.0723528862,2024-06-04 14:43:46.957226
8.997714282,-0.09348869324,-0.07116758823,-0.09565138817,2024-06-04 14:43:46.997714
9.03815949,-0.02744197845,-0.01929533482,-0.09131193161,2024-06-04 14:43:47.038159
9.078632459,0.01354122162,0.01376533508,-0.07116866112,2024-06-04 14:43:47.078632
9.11916975,0.0005283355713,0.002665996552,-0.02541184425,2024-06-04 14:43:47.119170
9.159664073,0.0007858276367,-0.006928443909,-0.02956771851,2024-06-04 14:43:47.159664
9.200150584,0.02137851715,-0.02169132233,-0.009371757507,2024-06-04 14:43:47.200151
9.240625948,0.004153251648,-0.002655148506,-0.003995656967,2024-06-04 14:43:47.240626
9.281118553,0.006350517273,-0.003283500671,-0.02338027954,2024-06-04 14:43:47.281119
9.32163975,-0.03843021393,-0.009976506233,-0.04022550583,2024-06-04 14:43:47.321640
9.362110219,-0.03573131561,-0.005928874016,-0.04263043404,2024-06-04 14:43:47.362110
9.402600323,0.008406639099,-0.01758372784,-0.03447175026,2024-06-04 14:43:47.402600
9.443089698,-0.02845573425,-0.005887031555,-0.05275654793,2024-06-04 14:43:47.443090
9.483579073,0.03025627136,0.02042639256,-0.02829551697,2024-06-04 14:43:47.483579
9.524068448,0.008467674255,0.01278960705,-0.01502084732,2024-06-04 14:43:47.524068
9.564557771,0.001049995422,-0.002269148827,-0.001547574997,2024-06-04 14:43:47.564558
9.605047146,-0.0111913681,-0.02130937576,-0.01806378365,2024-06-04 14:43:47.605047
9.645506678,-0.006223678589,-0.01592934132,-0.02300715446,2024-06-04 14:43:47.645507
9.686005167,-0.01548671722,-0.001029372215,0.001226902008,2024-06-04 14:43:47.686005
9.726494438,0.01834583282,0.006372570992,-0.05665397644,2024-06-04 14:43:47.726494
9.766980584,0.06886005402,0.04561722279,-0.05473566055,2024-06-04 14:43:47.766981
9.807475375,-0.00133228302,0.03629040718,-0.01592803001,2024-06-04 14:43:47.807475
9.847982407,-0.04433822632,0.008373975754,-0.003978729248,2024-06-04 14:43:47.847982
9.888478969,-0.0214509964,-0.02564001083,0.002722501755,2024-06-04 14:43:47.888479
9.928968136,-0.07418251038,-0.06649422646,0.04122138023,2024-06-04 14:43:47.928968
9.969457303,-0.00657081604,-0.02990400791,0.006283760071,2024-06-04 14:43:47.969457
10.00994647,0.04791164398,0.005289673805,-0.004349708557,2024-06-04 14:43:48.009946
10.0504236,-0.02169322968,-0.0006787776947,0.005873441696,2024-06-04 14:43:48.050424
10.09090678,-0.0653629303,-0.01131737232,0.009277820587,2024-06-04 14:43:48.090907
10.13139595,0.03786849976,0.02546739578,-0.03511285782,2024-06-04 14:43:48.131396
10.17194548,0.02538204193,0.04537129402,-0.03794741631,2024-06-04 14:43:48.171945
10.21239381,0.07233810425,-0.0213701725,-0.05011343956,2024-06-04 14:43:48.212394
10.25289371,-0.02368736267,-0.03785943985,0.01918244362,2024-06-04 14:43:48.252894
10.29338491,-0.0734796524,-0.02343583107,0.001890420914,2024-06-04 14:43:48.293385
10.33387189,0.03010177612,0.02970349789,-0.01243782043,2024-06-04 14:43:48.333872
10.37435303,0.03356266022,0.05330014229,-0.01894497871,2024-06-04 14:43:48.374353
10.41483105,0.0001001358032,0.01281774044,-0.007493972778,2024-06-04 14:43:48.414831
10.45532006,-0.02406406403,-0.02730298042,0.0001046657562,2024-06-04 14:43:48.455320
10.49580913,-0.0185880661,-0.01688444614,-0.002714157104,2024-06-04 14:43:48.495809
10.53629819,0.01219558716,0.009414672852,-0.01829051971,2024-06-04 14:43:48.536298
10.576751,-0.01340770721,0.01868450642,-0.01019239426,2024-06-04 14:43:48.576751
10.61722355,-0.006468772888,-0.01303577423,0.005021095276,2024-06-04 14:43:48.617224
10.65776751,0.004295349121,-0.003742456436,0.01588368416,2024-06-04 14:43:48.657768
10.69825652,0.00352191925,-0.005851387978,-0.008607387543,2024-06-04 14:43:48.698257
10.73875574,0.0125837326,0.01919317245,0.005113601685,2024-06-04 14:43:48.738756
10.77922996,-0.01323509216,0.008472204208,-0.000762462616,2024-06-04 14:43:48.779230
10.81972944,-0.005586624146,-0.01431870461,-0.003073215485,2024-06-04 14:43:48.819729
10.86022006,-0.001696586609,-0.00603222847,-0.01277279854,2024-06-04 14:43:48.860220
10.90068366,0.001662254333,0.007090330124,-0.005782365799,2024-06-04 14:43:48.900684
10.94122345,-0.01084804535,0.01458382607,-0.009177923203,2024-06-04 14:43:48.941223
10.98171293,-0.00950717926,0.009377479553,-0.007948875427,2024-06-04 14:43:48.981713
11.02213564,0.008529663086,0.008563876152,0.004174470901,2024-06-04 14:43:49.022136
11.06262407,0.01642513275,-0.0031208992,0.009463310242,2024-06-04 14:43:49.062624
11.10311355,-0.009786605835,-0.0009104013443,0.01297712326,2024-06-04 14:43:49.103114
11.1436209,-0.008694648743,-0.006252288818,-0.005966186523,2024-06-04 14:43:49.143621
11.18412709,0.006109237671,0.0111540556,0.006546974182,2024-06-04 14:43:49.184127
11.22463142,0.003240585327,0.003163218498,0.001934528351,2024-06-04 14:43:49.224631
11.26512199,-0.009589195251,0.0142749548,0.0006427764893,2024-06-04 14:43:49.265122
11.30561131,-0.0007438659668,-0.0009970664978,-0.01424956322,2024-06-04 14:43:49.305611
11.34607803,0.01221847534,-0.0004780292511,0.01516652107,2024-06-04 14:43:49.346078
11.38653522,-0.005533218384,-0.007456660271,0.002629756927,2024-06-04 14:43:49.386535
11.4270136,-0.008720397949,0.01384520531,0.01004838943,2024-06-04 14:43:49.427014
11.46750142,0.002137184143,0.001194000244,-0.002789258957,2024-06-04 14:43:49.467501
11.50799376,0.01201057434,-0.001653313637,0.01176953316,2024-06-04 14:43:49.507994
11.54849595,-0.01665019989,-0.005579829216,-0.02154016495,2024-06-04 14:43:49.548496
11.5889986,-0.005321502686,0.008893966675,-0.02179408073,2024-06-04 14:43:49.588999
11.62948053,-0.009531021118,0.02162182331,-0.02668118477,2024-06-04 14:43:49.629481
11.66996194,0.00421333313,0.01911520958,-0.005707502365,2024-06-04 14:43:49.669962
11.71048267,-0.01528453827,0.001217722893,0.006046533585,2024-06-04 14:43:49.710483
11.7509472,0.01324653625,-0.006796360016,0.007070302963,2024-06-04 14:43:49.750947
11.79143621,0.01125431061,0.0001389980316,0.01764512062,2024-06-04 14:43:49.791436
11.83197251,0.004854202271,-0.000826716423,0.001868724823,2024-06-04 14:43:49.831973
11.87246152,-0.00249004364,0.01600325108,-0.006368637085,2024-06-04 14:43:49.872462
11.91295121,-0.007594108582,0.0001577138901,0.008355140686,2024-06-04 14:43:49.912951
11.95342772,-0.02092838287,-0.0006288290024,-0.009500026703,2024-06-04 14:43:49.953428
11.99391683,0.003219604492,-0.009454369545,-0.01854300499,2024-06-04 14:43:49.993917
12.0344059,0.0113067627,0.005578756332,-0.002594947815,2024-06-04 14:43:50.034406
12.07485694,-0.02995204926,0.04917812347,0.01597166061,2024-06-04 14:43:50.074857
12.115346,0.003299713135,0.02359712124,-0.003408908844,2024-06-04 14:43:50.115346
12.15585314,0.02476119995,-0.04546630383,0.009717226028,2024-06-04 14:43:50.155853
12.19635678,0.05289268494,-0.06463706493,0.0539727211,2024-06-04 14:43:50.196357
12.23686137,0.03398036957,-0.03260624409,0.04359722137,2024-06-04 14:43:50.236861
12.27738569,-0.04169273376,-0.01680994034,-0.04336953163,2024-06-04 14:43:50.277386
12.31787475,-0.06647205353,0.03633022308,-0.06535482407,2024-06-04 14:43:50.317875
12.35827314,-0.01942062378,0.05759561062,-0.06895327568,2024-06-04 14:43:50.358273
12.39879803,0.03001499176,0.06522393227,-0.0200009346,2024-06-04 14:43:50.398798
12.43928709,-0.00159740448,0.02556598186,0.03673815727,2024-06-04 14:43:50.439287
12.47977584,-0.02181625366,-0.01669859886,0.06304240227,2024-06-04 14:43:50.479776
12.52026475,0.04447650909,-0.02812814713,0.02468729019,2024-06-04 14:43:50.520265
12.56071923,0.0344581604,-0.01272690296,0.01575469971,2024-06-04 14:43:50.560719
12.60121131,-0.01948356628,-0.002117395401,-0.01302599907,2024-06-04 14:43:50.601211
12.64170017,-0.05192661285,0.02588272095,-0.004722118378,2024-06-04 14:43:50.641700
12.68225376,-0.02121448517,0.03080666065,-0.03796386719,2024-06-04 14:43:50.682254
12.72270907,-0.003884315491,0.02711749077,-0.02688074112,2024-06-04 14:43:50.722709
12.76321543,-0.001980781555,0.001211762428,-0.007840871811,2024-06-04 14:43:50.763215
12.80371595,-0.003030776978,-0.00617146492,0.009604692459,2024-06-04 14:43:50.803716
12.84418095,0.007164001465,-0.01840007305,0.02095007896,2024-06-04 14:43:50.844181
12.88468319,0.04971981049,-0.02417182922,0.01325893402,2024-06-04 14:43:50.884683
12.92518022,0.01878833771,-0.01032567024,0.03863453865,2024-06-04 14:43:50.925180
12.96566058,-0.01268959045,-0.008687973022,-0.005060195923,2024-06-04 14:43:50.965661
13.00613381,-0.02375888824,0.01393079758,-0.01757597923,2024-06-04 14:43:51.006134
13.0465922,-0.004928588867,0.03451085091,-0.00746011734,2024-06-04 14:43:51.046592
13.0870835,0.01404285431,0.009980201721,-0.005006551743,2024-06-04 14:43:51.087084
13.12759178,-0.00531578064,-0.003689050674,0.006438970566,2024-06-04 14:43:51.127592
13.16811933,-0.0004444122314,-0.008954048157,-0.001927375793,2024-06-04 14:43:51.168119
13.2086135,-0.006649017334,0.006518721581,-0.005265951157,2024-06-04 14:43:51.208614
13.24910355,0.01521873474,0.01339554787,-0.0002999305725,2024-06-04 14:43:51.249104
13.28957376,-0.008057594299,0.02516567707,0.01309466362,2024-06-04 14:43:51.289574
13.33004642,-0.02512359619,0.02245509624,-0.008121013641,2024-06-04 14:43:51.330046
13.37051413,0.008189201355,-0.004675984383,-0.00066447258,2024-06-04 14:43:51.370514
13.41102001,0.001650810242,-0.005214333534,-0.009503602982,2024-06-04 14:43:51.411020
13.45150907,-0.01079654694,-0.001674413681,-0.00555062294,2024-06-04 14:43:51.451509
13.49199741,-0.001489639282,-0.003640413284,0.0125746727,2024-06-04 14:43:51.491997
13.53247772,0.02123069763,-0.01333498955,0.007007598877,2024-06-04 14:43:51.532478
13.57296647,-0.01801586151,-0.01583552361,-0.00598192215,2024-06-04 14:43:51.572966
13.61343918,-0.009048461914,0.00360417366,-0.02389168739,2024-06-04 14:43:51.613439
13.65393407,-0.00150680542,0.01743662357,-0.01295995712,2024-06-04 14:43:51.653934
13.69446303,-0.01082134247,0.02518689632,-0.01352000237,2024-06-04 14:43:51.694463
13.73493183,0.00549697876,0.01856744289,-0.006795167923,2024-06-04 14:43:51.734932
13.77542131,0.001262664795,-0.0002009868622,-0.001842021942,2024-06-04 14:43:51.775421
13.81592439,0.002038002014,-0.02037036419,0.009334087372,2024-06-04 14:43:51.815924
13.85642475,-0.00278377533,-0.007583379745,0.002174854279,2024-06-04 14:43:51.856425
13.89688548,-0.00389957428,-0.01267778873,0.009356975555,2024-06-04 14:43:51.896885
13.9373998,-0.007090568542,0.009715795517,-0.008632659912,2024-06-04 14:43:51.937400
13.97790137,0.008515357971,0.02939999104,-0.01059341431,2024-06-04 14:43:51.977901
14.01839808,-0.001906394958,0.006038665771,-0.01251125336,2024-06-04 14:43:52.018398
14.05886845,-0.003465652466,-0.005970954895,0.003149271011,2024-06-04 14:43:52.058868
14.09934626,-0.01362895966,-0.01049804688,0.008594274521,2024-06-04 14:43:52.099346
14.13982486,0.01141929626,0.01186048985,0.01267409325,2024-06-04 14:43:52.139825
14.18031949,0.0009746551514,0.008933663368,0.0093998909,2024-06-04 14:43:52.180319
14.22080871,0.02006244659,0.0002969503403,0.01089191437,2024-06-04 14:43:52.220809
14.26131751,-0.01894187927,0.003350734711,-0.004812717438,2024-06-04 14:43:52.261318
14.30181699,-0.003552436829,0.002309203148,-0.02151727676,2024-06-04 14:43:52.301817
14.34230027,-0.01084518433,0.0173625946,-0.01697349548,2024-06-04 14:43:52.342300
14.38276678,-0.002919197083,0.01902663708,-0.01361441612,2024-06-04 14:43:52.382767
14.42324584,0.004377365112,0.005426287651,0.006777048111,2024-06-04 14:43:52.423246
14.46373084,0.001013755798,-0.004304766655,0.01717233658,2024-06-04 14:43:52.463731
14.50421194,0.01929855347,-0.02131843567,0.02469849586,2024-06-04 14:43:52.504212
14.54470084,0.01618099213,-0.009933233261,0.002952337265,2024-06-04 14:43:52.544701
14.58518975,0.01387405396,0.02077329159,-0.008251905441,2024-06-04 14:43:52.585190
14.62567861,-0.03120994568,0.02241659164,-0.01144862175,2024-06-04 14:43:52.625679
14.66628017,-0.03721904755,0.01193511486,-0.04044985771,2024-06-04 14:43:52.666280
14.70663012,0.002612113953,0.007915258408,-0.01233267784,2024-06-04 14:43:52.706630
14.74717084,0.02147293091,-0.02123022079,0.05272269249,2024-06-04 14:43:52.747171
14.78763996,0.0361738205,-0.04808056355,0.04127430916,2024-06-04 14:43:52.787640
14.82814741,0.006387710571,-0.01844024658,0.02790808678,2024-06-04 14:43:52.828147
14.86863642,-0.0231294632,0.01050519943,-0.02090620995,2024-06-04 14:43:52.868636
14.90915095,-0.009175300598,0.0337716341,-0.01965713501,2024-06-04 14:43:52.909151
14.94964048,-0.02223205566,0.04048633575,-0.03122234344,2024-06-04 14:43:52.949640
14.99009772,-0.02885818481,0.04757237434,-0.02363634109,2024-06-04 14:43:52.990098
15.03057387,-0.01095962524,0.03202319145,-0.04417562485,2024-06-04 14:43:53.030574
15.07108782,-0.007949829102,0.0113273859,-0.0002930164337,2024-06-04 14:43:53.071088
15.11157736,-0.00519657135,0.009550690651,0.02479791641,2024-06-04 14:43:53.111577
15.15203147,0.03600120544,0.000412940979,0.02546477318,2024-06-04 14:43:53.152031
15.19256876,0.01455974579,-0.000309586525,0.02663111687,2024-06-04 14:43:53.192569
15.23307288,-0.01739025116,-0.02332854271,-0.02329874039,2024-06-04 14:43:53.233073
15.27356361,-0.01650524139,-0.0006146430969,-0.02513098717,2024-06-04 14:43:53.273564
15.31401428,-0.01289653778,-0.00333404541,-0.004154443741,2024-06-04 14:43:53.314014
15.35453741,0.01070308685,-0.004336237907,-0.01004099846,2024-06-04 14:43:53.354537
15.39500579,0.02290630341,-0.03049826622,0.01924490929,2024-06-04 14:43:53.395006
15.43547808,-0.002676010132,-0.0245474577,0.01932120323,2024-06-04 14:43:53.435478
15.47595069,0.02125263214,0.005993962288,0.03229546547,2024-06-04 14:43:53.475951
15.51643553,0.02051448822,0.05150067806,0.05074954033,2024-06-04 14:43:53.516436
15.55692433,0.02583503723,0.02420222759,0.01392412186,2024-06-04 14:43:53.556924
15.59745912,-0.009099006653,-0.02502524853,-0.03230977058,2024-06-04 14:43:53.597459
15.63795272,-0.05476760864,-0.02948284149,-0.06212258339,2024-06-04 14:43:53.637953
15.67840064,-0.04028129578,0.008976578712,-0.04774641991,2024-06-04 14:43:53.678401
15.71892262,0.008567810059,0.02764856815,-0.01468062401,2024-06-04 14:43:53.718923
15.75942308,0.03416442871,0.01882338524,0.0240790844,2024-06-04 14:43:53.759423
15.79990996,0.02523136139,0.004320025444,0.05131101608,2024-06-04 14:43:53.799910
15.84038772,0.02561473846,-0.0209966898,0.03915834427,2024-06-04 14:43:53.840388
15.88086918,0.003266334534,-0.01481640339,0.01894688606,2024-06-04 14:43:53.880869
15.92136725,-0.01383781433,0.005190134048,-0.03351473808,2024-06-04 14:43:53.921367
15.96187569,-0.04797554016,0.008888483047,-0.04161500931,2024-06-04 14:43:53.961876
16.00234636,-0.0005083084106,0.01250076294,-0.03758573532,2024-06-04 14:43:54.002346
16.04279819,-0.008046150208,0.009945988655,0.0003974437714,2024-06-04 14:43:54.042798
16.08328741,0.02531719208,0.003801226616,0.02659440041,2024-06-04 14:43:54.083287
16.12378506,-0.002870559692,0.002735137939,0.0258436203,2024-06-04 14:43:54.123785
16.1642922,0.001620292664,-0.004237532616,0.003238201141,2024-06-04 14:43:54.164292
16.20480064,-0.01051330566,0.02425467968,-0.0003218650818,2024-06-04 14:43:54.204801
16.24530288,0.01781654358,0.01375150681,0.003892183304,2024-06-04 14:43:54.245303
16.28576814,0.004972457886,-0.005322933197,0.007116794586,2024-06-04 14:43:54.285768
16.32625793,-0.00915145874,-0.01204383373,-0.009124279022,2024-06-04 14:43:54.326258
16.3667036,-0.01833057404,0.01191747189,-0.02330422401,2024-06-04 14:43:54.366704
16.40720907,-0.006865501404,0.004526972771,-0.002089262009,2024-06-04 14:43:54.407209
16.44769756,0.006907463074,0.01103997231,0.002964496613,2024-06-04 14:43:54.447698
16.48818631,-0.0004167556763,-0.007244110107,0.01373434067,2024-06-04 14:43:54.488186
16.52866329,-0.003276824951,-0.006078124046,-0.005972862244,2024-06-04 14:43:54.528663
16.56922553,0.01076698303,-0.01014947891,-0.004180908203,2024-06-04 14:43:54.569226
16.60970558,0.007480621338,0.01191234589,0.01035761833,2024-06-04 14:43:54.609706
16.65019584,-0.01061916351,0.01887404919,-0.00118637085,2024-06-04 14:43:54.650196
16.69065991,-0.01564598083,0.005656838417,0.001500606537,2024-06-04 14:43:54.690660
16.73115168,-0.003649711609,-0.002270460129,-0.008501291275,2024-06-04 14:43:54.731152
16.77166642,0.01529026031,-0.007663607597,4.768371582e-06,2024-06-04 14:43:54.771666
16.81215439,-0.0154876709,0.001683712006,0.001200199127,2024-06-04 14:43:54.812154
16.85264491,-0.008803367615,0.002859354019,-0.001398086548,2024-06-04 14:43:54.852645
16.89313251,-0.002777099609,0.009159207344,0.002161026001,2024-06-04 14:43:54.893133
16.93361262,0.007069587708,0.01808226109,0.004894971848,2024-06-04 14:43:54.933613
16.97409751,0.01502132416,-0.0006586313248,0.001089572906,2024-06-04 14:43:54.974098
17.01458689,-0.007906913757,-0.002903103828,-0.02091789246,2024-06-04 14:43:55.014587
17.05507631,0.002681732178,0.00466811657,-0.01462888718,2024-06-04 14:43:55.055076
17.09556574,-0.007687568665,0.009961366653,-0.006363630295,2024-06-04 14:43:55.095566
17.13604246,0.002174377441,0.002991437912,0.007859706879,2024-06-04 14:43:55.136042
17.17651506,-0.01446628571,-0.005506157875,0.006146430969,2024-06-04 14:43:55.176515
17.21698475,0.005107879639,0.008714675903,-0.006720066071,2024-06-04 14:43:55.216985
17.25751314,0.00168132782,0.01412141323,0.009135007858,2024-06-04 14:43:55.257513
17.29804881,0.007678985596,0.008030295372,0.001367092133,2024-06-04 14:43:55.298049
17.33848402,-0.00578212738,-0.004796266556,0.003547668457,2024-06-04 14:43:55.338484
17.37898069,-0.007166862488,0.01386165619,-0.01011872292,2024-06-04 14:43:55.378981
17.41948449,-0.007244110107,0.003454446793,-0.003211021423,2024-06-04 14:43:55.419484
17.45997397,-0.002789497375,-0.008877396584,-0.002703428268,2024-06-04 14:43:55.459974
17.50044621,-0.01072120667,-0.00469481945,0.001001119614,2024-06-04 14:43:55.500446
17.54090043,-0.009333610535,-5.602836609e-06,0.009790897369,2024-06-04 14:43:55.540900
17.5813884,0.01477527618,0.0195555687,-0.01280236244,2024-06-04 14:43:55.581388
17.62188017,-0.01544857025,0.0186316967,0.01068472862,2024-06-04 14:43:55.621880
17.66237501,0.01735877991,-0.02665579319,-0.003398180008,2024-06-04 14:43:55.662375
17.7029059,0.003688812256,-0.01882624626,0.004525661469,2024-06-04 14:43:55.702906
17.74340657,-0.004082679749,-0.001052856445,-0.004016399384,2024-06-04 14:43:55.743407
17.78389439,-0.01052951813,0.02225148678,0.008969068527,2024-06-04 14:43:55.783894
17.8243847,0.01574516296,0.01960206032,-0.002646446228,2024-06-04 14:43:55.824385
17.86487324,-0.01103210449,0.01810419559,0.002640962601,2024-06-04 14:43:55.864873
17.90536303,-0.005123138428,-0.005987882614,-0.01948165894,2024-06-04 14:43:55.905363
17.94583647,-0.0134935379,-0.005035996437,-0.004724502563,2024-06-04 14:43:55.945836
17.98632579,0.005518913269,-0.003168225288,-0.001642227173,2024-06-04 14:43:55.986326
18.02678319,0.006195068359,-0.0004793405533,0.01715493202,2024-06-04 14:43:56.026783
18.06727246,0.00580406189,0.0004414319992,0.005898237228,2024-06-04 14:43:56.067272
18.10776173,0.004791259766,0.01188266277,0.00466799736,2024-06-04 14:43:56.107762
18.14829912,0.002268791199,-0.003809928894,-0.009708166122,2024-06-04 14:43:56.148299
18.18871454,-0.004790306091,0.008600831032,0.000655412674,2024-06-04 14:43:56.188715
18.22928412,-0.008920669556,0.01477098465,-0.02111911774,2024-06-04 14:43:56.229284
18.26976157,0.002212524414,0.0208697319,0.00821852684,2024-06-04 14:43:56.269762
18.31026204,-0.004552841187,0.001766681671,0.003483057022,2024-06-04 14:43:56.310262
18.35069012,0.002463340759,-0.01725196838,0.01330494881,2024-06-04 14:43:56.350690
18.39124027,0.003118515015,-0.004807949066,-0.002269029617,2024-06-04 14:43:56.391240
18.43172959,-0.006916999817,0.01933932304,-0.002716779709,2024-06-04 14:43:56.431730
18.47217694,-0.01362705231,0.01501715183,-0.0171957016,2024-06-04 14:43:56.472177
18.5126459,-0.004862785339,-0.001947522163,-0.009089946747,2024-06-04 14:43:56.512646
18.55313923,-0.00498008728,-0.001226902008,-0.002540111542,2024-06-04 14:43:56.553139
18.59363001,0.003929138184,-0.001188874245,0.003156900406,2024-06-04 14:43:56.593630
18.63411866,0.005760192871,0.0005272626877,0.006507635117,2024-06-04 14:43:56.634119
18.67459038,-0.004928588867,0.007781505585,0.01296687126,2024-06-04 14:43:56.674590
18.71514147,-0.008780479431,0.001620769501,-0.005687713623,2024-06-04 14:43:56.715141
18.75563209,-0.007140159607,0.003553509712,-0.01088142395,2024-06-04 14:43:56.755632
18.79611199,-0.007884025574,0.005688786507,-0.01088953018,2024-06-04 14:43:56.796112
18.83661428,-0.01126098633,0.00866997242,-0.01789474487,2024-06-04 14:43:56.836614
18.87708829,0.0142326355,-0.006224155426,0.007526159286,2024-06-04 14:43:56.877088
18.91754131,-0.0175485611,0.0006186962128,0.00799202919,2024-06-04 14:43:56.917541
18.95803001,0.01313018799,0.004479050636,-0.003688812256,2024-06-04 14:43:56.958030
18.99851886,-0.008507728577,0.01807272434,0.01912593842,2024-06-04 14:43:56.998519
19.03902272,0.01421356201,0.003131747246,0.004816532135,2024-06-04 14:43:57.039023
19.07952912,0.006061553955,0.0002938508987,-0.0003824234009,2024-06-04 14:43:57.079529
19.11999303,0.01027107239,0.001330971718,-0.02098751068,2024-06-04 14:43:57.119993
19.16045689,-0.006878852844,0.007388591766,-0.006213188171,2024-06-04 14:43:57.160457
19.2010136,-0.005257606506,0.00955915451,-0.00289440155,2024-06-04 14:43:57.201014
19.24150611,0.001379013062,0.007991075516,0.001430511475,2024-06-04 14:43:57.241506
19.2819985,-0.003595352173,0.004300355911,-0.009342193604,2024-06-04 14:43:57.281999
19.3224884,-0.009545326233,0.01750683784,-0.003245353699,2024-06-04 14:43:57.322488
19.36297814,0.01068878174,0.01247632504,-0.006822347641,2024-06-04 14:43:57.362978
19.40341798,-0.005434036255,-0.02009177208,-0.01394867897,2024-06-04 14:43:57.403418
19.44390678,0.004036903381,-0.008592367172,0.003065109253,2024-06-04 14:43:57.443907
19.48440215,0.01153850555,-0.00556743145,0.01617717743,2024-06-04 14:43:57.484402
19.52487668,-0.02304649353,0.009439229965,0.00287771225,2024-06-04 14:43:57.524877
19.56536746,0.008141517639,3.099441528e-06,0.0003905296326,2024-06-04 14:43:57.565367
19.60585652,0.0004148483276,0.005207896233,0.01609611511,2024-06-04 14:43:57.605857
19.64634564,0.0007572174072,0.006140470505,-0.001368045807,2024-06-04 14:43:57.646346
19.68686277,-0.01712322235,0.02052676678,-0.008291006088,2024-06-04 14:43:57.686863
19.72735689,0.005714416504,0.003678321838,0.003718137741,2024-06-04 14:43:57.727357
19.76785084,0.01342487335,-0.01785981655,-0.009346961975,2024-06-04 14:43:57.767851
19.80831876,-0.001007080078,-0.01009845734,-0.003176212311,2024-06-04 14:43:57.808319
19.84879704,0.004995346069,-0.00673353672,-0.004267215729,2024-06-04 14:43:57.848797
19.88932334,0.002277374268,0.0173817873,-0.002631902695,2024-06-04 14:43:57.889323
19.92983105,-0.006817817688,0.01766693592,-0.001194000244,2024-06-04 14:43:57.929831
19.97028407,-0.01535129547,0.03265011311,-0.00372004509,2024-06-04 14:43:57.970284
20.0107485,0.005084037781,0.008928656578,-0.003764390945,2024-06-04 14:43:58.010748
20.05124605,0.004710197449,-0.004271507263,0.001749515533,2024-06-04 14:43:58.051246
20.09173277,-0.01179504395,0.0004367828369,-0.0147960186,2024-06-04 14:43:58.091733
20.13226256,-0.0154876709,0.000133395195,-0.01139426231,2024-06-04 14:43:58.132263
20.17276793,0.006461143494,-0.01285970211,-0.007163047791,2024-06-04 14:43:58.172768
20.21324741,-0.0006160736084,-0.01526582241,0.002372264862,2024-06-04 14:43:58.213247
20.2537409,0.01069641113,-0.00444996357,0.02292442322,2024-06-04 14:43:58.253741
20.29423079,0.008511543274,0.007573962212,0.02254629135,2024-06-04 14:43:58.294231
20.33472225,-0.005647659302,0.01958239079,0.01693487167,2024-06-04 14:43:58.334722
20.37520673,-0.007222175598,0.02322602272,-0.005671262741,2024-06-04 14:43:58.375207
20.4156923,-0.003540992737,0.0128672123,-0.01241970062,2024-06-04 14:43:58.415692
20.45618116,-0.003803253174,-0.003673553467,-0.02630472183,2024-06-04 14:43:58.456181
20.49667038,-0.009215354919,-0.006139159203,-0.01593399048,2024-06-04 14:43:58.496670
20.5371634,-0.01128387451,-0.004257559776,0.0111925602,2024-06-04 14:43:58.537163
20.57765355,0.01852416992,-0.003908991814,0.01168775558,2024-06-04 14:43:58.577654
20.61812746,0.004621505737,0.01537907124,0.02924346924,2024-06-04 14:43:58.618127
20.65857397,0.002890586853,0.00758934021,0.000723361969,2024-06-04 14:43:58.658574
20.69912048,0.002905845642,0.001681089401,-0.006019353867,2024-06-04 14:43:58.699120
20.73962183,-0.01337623596,0.01098227501,-0.02268910408,2024-06-04 14:43:58.739622
20.78010136,-0.003098487854,0.006873488426,-0.02393293381,2024-06-04 14:43:58.780101
20.82056105,-0.008918762207,0.002596735954,0.003206968307,2024-06-04 14:43:58.820561
20.86106001,0.006876945496,-0.007479310036,0.008419752121,2024-06-04 14:43:58.861060
20.90157256,0.005229949951,-0.01230370998,0.005883932114,2024-06-04 14:43:58.901573
20.94201595,0.010679245,0.003500699997,0.01791977882,2024-06-04 14:43:58.942016
20.98251262,-0.02351474762,0.008182168007,-0.003134727478,2024-06-04 14:43:58.982513
21.02299439,0.00230884552,0.01569950581,-0.01534581184,2024-06-04 14:43:59.022994
21.06348376,-0.0188369751,0.02148044109,-0.01362228394,2024-06-04 14:43:59.063484
21.10396428,0.02255249023,-0.004261612892,0.00529384613,2024-06-04 14:43:59.103964
21.14450668,-0.007243156433,-0.009316682816,-0.00674033165,2024-06-04 14:43:59.144507
21.18499277,0.003021240234,0.00478887558,0.01737546921,2024-06-04 14:43:59.184993
21.22548069,-0.009386062622,0.001664757729,-0.00449681282,2024-06-04 14:43:59.225481
21.26596038,0.005289077759,-0.00679898262,-0.007291793823,2024-06-04 14:43:59.265960
21.30641621,-0.002749443054,0.01972472668,0.0129404068,2024-06-04 14:43:59.306416
21.34689819,-0.004085540771,0.008061051369,-0.009537935257,2024-06-04 14:43:59.346898
21.38740782,0.001615524292,0.008505821228,0.002908945084,2024-06-04 14:43:59.387408
21.42790621,-0.002943992615,0.004562497139,-0.01648855209,2024-06-04 14:43:59.427906
21.46837631,-0.01379871368,0.01114821434,0.009093761444,2024-06-04 14:43:59.468376
21.50885584,-0.01536750793,-0.004814863205,0.002249956131,2024-06-04 14:43:59.508856
21.5493497,0.001418113708,-0.01064062119,-0.007585287094,2024-06-04 14:43:59.549350
21.5898384,0.006324768066,-0.004381656647,0.01463294029,2024-06-04 14:43:59.589838
21.63032324,-0.00433921814,0.01139104366,0.0121088028,2024-06-04 14:43:59.630323
21.67083209,-0.001754760742,0.026902318,-0.005115509033,2024-06-04 14:43:59.670832
21.71136277,-0.02586841583,0.003257632256,-0.02071881294,2024-06-04 14:43:59.711363
21.75185012,-0.00496006012,-0.02480447292,-0.031052351,2024-06-04 14:43:59.751850
21.79233928,0.007598876953,-0.003678560257,-0.003659486771,2024-06-04 14:43:59.792339
21.8328297,-0.008734703064,0.006830334663,0.008496999741,2024-06-04 14:43:59.832830
21.87331933,0.01232624054,0.01466488838,0.003942012787,2024-06-04 14:43:59.873319
21.91380803,0.01332569122,0.002489805222,0.0007216930389,2024-06-04 14:43:59.913808
21.95428532,0.002305984497,-0.008067131042,0.01097941399,2024-06-04 14:43:59.954285
21.99477543,0.001874923706,-0.007027983665,-0.005842685699,2024-06-04 14:43:59.994775
22.03526548,-0.00977230072,0.02330183983,0.01267457008,2024-06-04 14:44:00.035265
22.07571793,0.005162239075,0.01707613468,-0.01795959473,2024-06-04 14:44:00.075718
22.11619512,-0.007629394531,0.01030814648,-0.007817983627,2024-06-04 14:44:00.116195
22.1567459,-0.006441116333,-0.01189911366,-0.004161834717,2024-06-04 14:44:00.156746
22.19718412,0.00719165802,0.008211493492,0.01644587517,2024-06-04 14:44:00.197184
22.23767418,0.023645401,-0.0007011890411,0.01450657845,2024-06-04 14:44:00.237674
22.27815006,-0.01947498322,-0.0005136728287,0.001930713654,2024-06-04 14:44:00.278150
22.31864017,-0.008106231689,-0.008753180504,-0.02478432655,2024-06-04 14:44:00.318640
22.35913022,0.004686355591,0.02673923969,0.02432274818,2024-06-04 14:44:00.359130
22.39965538,0.02318096161,0.00659430027,0.001473903656,2024-06-04 14:44:00.399655
22.44014548,-0.004110336304,0.001651525497,0.004516124725,2024-06-04 14:44:00.440145
22.48060704,-0.0001382827759,0.02287137508,-0.01567006111,2024-06-04 14:44:00.480607
22.52108694,-0.0139131546,0.02110171318,-0.01924514771,2024-06-04 14:44:00.521087
22.56157819,-0.0179901123,0.002492547035,-0.003482818604,2024-06-04 14:44:00.561578
22.602076,0.01666069031,-0.0079215765,0.01299405098,2024-06-04 14:44:00.602076
22.6425747,0.001551628113,-0.0284512043,0.01984381676,2024-06-04 14:44:00.642575
22.68308032,-0.003688812256,-0.03472161293,-0.00358581543,2024-06-04 14:44:00.683080
22.72359121,-0.03240013123,-0.01560306549,-0.01687407494,2024-06-04 14:44:00.723591
22.76408512,0.02966403961,-0.004100799561,0.04490447044,2024-06-04 14:44:00.764085
22.80457381,0.08847999573,0.03133249283,0.07828521729,2024-06-04 14:44:00.804574
22.84506402,0.04958534241,0.03591966629,0.002595186234,2024-06-04 14:44:00.845064
22.88553308,-0.1094150543,0.06690168381,-0.09066390991,2024-06-04 14:44:00.885533
22.92601746,-0.03909111023,0.02610957623,-0.1130409241,2024-06-04 14:44:00.926017
22.96650392,-0.03220462799,-0.03652966022,-0.04749369621,2024-06-04 14:44:00.966504
23.00696621,-0.01550197601,-0.04228281975,0.02555298805,2024-06-04 14:44:01.006966
23.04745548,0.003781318665,-0.01669728756,0.04039978981,2024-06-04 14:44:01.047455
23.0879448,0.02435874939,0.01998090744,0.04764199257,2024-06-04 14:44:01.087945
23.12845371,0.06556987762,0.03049719334,0.03900384903,2024-06-04 14:44:01.128454
23.16896256,0.03921508789,0.02140069008,0.04368710518,2024-06-04 14:44:01.168963
23.20944288,-0.008810043335,-0.004359960556,-0.0111644268,2024-06-04 14:44:01.209443
23.2499322,-0.0526599884,-0.02257978916,-0.02638268471,2024-06-04 14:44:01.249932
23.29044975,-0.02133846283,0.004227757454,-0.04369330406,2024-06-04 14:44:01.290450
23.33087704,-0.0248632431,0.03073394299,-0.02121376991,2024-06-04 14:44:01.330877
23.37136626,-0.009707450867,0.02950775623,-0.01519036293,2024-06-04 14:44:01.371366
23.41191486,-0.003784179688,-0.000254034996,0.01479816437,2024-06-04 14:44:01.411915
23.45240418,0.0190448761,-0.03197717667,0.0001003742218,2024-06-04 14:44:01.452404
23.49289345,0.01440143585,-0.011246562,0.02501797676,2024-06-04 14:44:01.492893
23.53332975,0.006177902222,-0.008917927742,0.03926324844,2024-06-04 14:44:01.533330
23.57381897,0.006182670593,-0.004187226295,0.001371145248,2024-06-04 14:44:01.573819
23.61430829,0.01618862152,0.003452539444,-0.02704405785,2024-06-04 14:44:01.614308
23.65480126,-0.02718544006,0.03228676319,-0.02797842026,2024-06-04 14:44:01.654801
23.69530642,-0.01262283325,0.04387104511,0.0006849765778,2024-06-04 14:44:01.695306
23.73580829,-0.03531646729,0.01066565514,0.001522064209,2024-06-04 14:44:01.735808
23.77629631,0.01504039764,-0.01781272888,-0.001321315765,2024-06-04 14:44:01.776296
23.81677574,-0.0006399154663,-0.02727651596,0.01487541199,2024-06-04 14:44:01.816776
23.8572559,0.001469612122,-0.009675621986,-0.002421379089,2024-06-04 14:44:01.857256
23.89774501,-0.02191829681,0.01872956753,-0.01744318008,2024-06-04 14:44:01.897745
23.93824845,0.009428024292,0.02537286282,-0.029484272,2024-06-04 14:44:01.938248
23.97873767,0.006019592285,0.0266263485,0.00110411644,2024-06-04 14:44:01.978738
24.01919788,-0.004467010498,0.01289665699,0.0008857250214,2024-06-04 14:44:02.019198
24.05973428,8.678436279e-05,0.003018379211,0.0105471611,2024-06-04 14:44:02.059734
24.10022345,0.01441383362,-0.01307439804,0.003320455551,2024-06-04 14:44:02.100223
24.14071267,0.01103687286,-0.01645350456,-0.005352258682,2024-06-04 14:44:02.140713
24.18120251,-0.01779079437,0.005461215973,0.006654024124,2024-06-04 14:44:02.181203
24.22170043,-0.01155281067,0.008305907249,-0.00491809845,2024-06-04 14:44:02.221700
24.2621935,0.005961418152,-0.0005624294281,-0.02075695992,2024-06-04 14:44:02.262193
24.30268256,0.004680633545,-0.007310032845,0.01206541061,2024-06-04 14:44:02.302683
24.34317173,-0.0117559433,-0.0006182193756,-0.004485368729,2024-06-04 14:44:02.343172
24.38363959,0.007746696472,0.02319121361,0.009745359421,2024-06-04 14:44:02.383640
24.42411824,-0.01055145264,0.02384984493,7.86781311e-05,2024-06-04 14:44:02.424118
24.46459897,0.01237773895,-0.01145970821,-0.006212949753,2024-06-04 14:44:02.464599
24.5050709,-0.003098487854,-0.02248251438,0.0005452632904,2024-06-04 14:44:02.505071
24.54556022,0.01057910919,-0.01732242107,-0.007553100586,2024-06-04 14:44:02.545560
24.58604959,0.004379272461,-0.003751993179,0.002777814865,2024-06-04 14:44:02.586050
24.62653902,0.004684448242,0.03057897091,0.001000881195,2024-06-04 14:44:02.626539
24.66701996,-0.01776027679,0.04848456383,0.0008330345154,2024-06-04 14:44:02.667020
24.70753694,-0.006012916565,0.0111438036,-0.01835298538,2024-06-04 14:44:02.707537
24.74803064,0.005454063416,-0.02197754383,0.005861997604,2024-06-04 14:44:02.748031
24.78852001,0.009957313538,-0.03386271,0.0009520053864,2024-06-04 14:44:02.788520
24.82900944,-0.004974365234,-0.02609419823,0.01393699646,2024-06-04 14:44:02.829009
24.86948131,0.008406639099,0.0126183033,0.01466679573,2024-06-04 14:44:02.869481
24.91002173,0.006109237671,0.0225559473,0.01070475578,2024-06-04 14:44:02.910022
24.95050788,-0.002972602844,0.02126038074,-0.01866269112,2024-06-04 14:44:02.950508
24.99099772,-0.02051830292,0.007115840912,-0.009253263474,2024-06-04 14:44:02.990998
25.03143475,-0.02192211151,0.001032233238,-0.02585601807,2024-06-04 14:44:03.031435
25.07192454,0.001901626587,0.01462841034,0.01772356033,2024-06-04 14:44:03.071925
25.1124222,-0.003452301025,-0.009177565575,0.006058216095,2024-06-04 14:44:03.112422
25.15295303,0.01779747009,-0.01010251045,0.01184463501,2024-06-04 14:44:03.152953
25.19343959,0.0003967285156,-0.002030611038,0.002959728241,2024-06-04 14:44:03.193440
25.23393746,0.004713058472,0.006335377693,-0.002080440521,2024-06-04 14:44:03.233937
25.27443246,-0.007471084595,0.01441752911,0.003647089005,2024-06-04 14:44:03.274432
25.31492199,0.003891944885,0.02410435677,-0.0141377449,2024-06-04 14:44:03.314922
25.35540843,-0.0139913559,0.01077449322,-0.01281619072,2024-06-04 14:44:03.355408
25.39590088,-0.001860618591,-0.006760120392,-0.0004432201385,2024-06-04 14:44:03.395901
25.43639077,-0.006365776062,-0.007206201553,0.01876211166,2024-06-04 14:44:03.436391
25.47688072,0.03242874146,-0.007833480835,0.01985430717,2024-06-04 14:44:03.476881
25.51737062,0.02723026276,-0.006854772568,0.008047819138,2024-06-04 14:44:03.517371
25.55786056,-0.02750110626,0.001366734505,-0.02680873871,2024-06-04 14:44:03.557861
25.5983502,-0.004600524902,0.02798569202,-0.01926922798,2024-06-04 14:44:03.598350
25.63881405,0.002430915833,0.01936817169,-0.02292752266,2024-06-04 14:44:03.638814
25.6793201,-0.01366615295,0.003638744354,-0.01394057274,2024-06-04 14:44:03.679320
25.71978489,-0.01592540741,-0.003507256508,-0.000869512558,2024-06-04 14:44:03.719785
25.76026447,0.009795188904,0.0027551651,0.01556396484,2024-06-04 14:44:03.760264
25.8007828,0.007054328918,0.005322694778,0.02572274208,2024-06-04 14:44:03.800783
25.84128343,0.01748275757,-0.006620883942,0.01932382584,2024-06-04 14:44:03.841283
25.88177088,0.001081466675,-0.01090145111,-0.0007383823395,2024-06-04 14:44:03.881771
25.92225754,-0.01340198517,-0.004550218582,-0.02909827232,2024-06-04 14:44:03.922258
25.96274296,0.004276275635,0.03041827679,-0.03922939301,2024-06-04 14:44:03.962743
26.0032326,-0.01948547363,0.02821552753,-0.009543895721,2024-06-04 14:44:04.003233
26.04370822,-0.004152297974,0.01100087166,0.0174062252,2024-06-04 14:44:04.043708
26.08416983,0.002290725708,-0.008747696877,0.005982875824,2024-06-04 14:44:04.084170
26.12467697,-0.002537727356,-0.01767265797,0.01262450218,2024-06-04 14:44:04.124677
26.16520171,-0.002521514893,-0.00644826889,0.003593921661,2024-06-04 14:44:04.165202
26.20567812,-0.001557350159,0.002775549889,-0.008337497711,2024-06-04 14:44:04.205678
26.24615541,-0.002458572388,0.006652474403,-0.008193969727,2024-06-04 14:44:04.246155
26.28668062,-0.003593444824,0.01493227482,-0.001208543777,2024-06-04 14:44:04.286681
26.32710426,-0.000880241394,0.001313328743,-0.005430698395,2024-06-04 14:44:04.327104
26.36759921,-0.001979827881,0.003430128098,-0.0090239048,2024-06-04 14:44:04.367599
26.40813775,0.005507469177,-0.002914786339,-0.001424789429,2024-06-04 14:44:04.408138
26.44862749,-0.005023956299,-0.00658082962,0.0006213188171,2024-06-04 14:44:04.448627
26.48911749,0.003977775574,-0.01254916191,-0.001619815826,2024-06-04 14:44:04.489117
26.52960728,0.003307342529,0.02180087566,-0.001418828964,2024-06-04 14:44:04.529607
26.57003515,0.003396987915,0.005140304565,-0.002887487411,2024-06-04 14:44:04.570035
26.61052489,0.008843421936,-0.003180861473,0.01549935341,2024-06-04 14:44:04.610525
26.65101468,-0.002678871155,-0.001953482628,-0.01183724403,2024-06-04 14:44:04.651015
26.69154869,0.002798080444,0.01120722294,-0.005499362946,2024-06-04 14:44:04.691549
26.7320539,-0.008943557739,0.01223194599,-0.00236082077,2024-06-04 14:44:04.732054
26.77253921,0.0009126663208,0.00265610218,-0.006903648376,2024-06-04 14:44:04.772539
26.8130353,-0.002829551697,-0.01005089283,-0.009856939316,2024-06-04 14:44:04.813035
26.85352265,-0.005778312683,0.002388834953,0.0008897781372,2024-06-04 14:44:04.853523
26.89401129,0.003209114075,0.0139234066,-0.0002930164337,2024-06-04 14:44:04.894011
26.93449015,-0.002503395081,0.006991505623,0.003423213959,2024-06-04 14:44:04.934490
26.97495598,-0.008352279663,0.005207538605,-0.004652738571,2024-06-04 14:44:04.974956
27.01543749,-0.0001382827759,-0.001626491547,-0.008849143982,2024-06-04 14:44:05.015437
27.05592754,-0.008141517639,0.0003670454025,0.005066871643,2024-06-04 14:44:05.055928
27.09640786,0.001434326172,0.00376534462,0.008391141891,2024-06-04 14:44:05.096408
27.13693051,0.003310203552,-0.002430558205,-0.006917715073,2024-06-04 14:44:05.136931
27.17741957,0.002203941345,-0.006246089935,0.002439260483,2024-06-04 14:44:05.177420
27.21787562,-0.01559257507,0.01209247112,0.004518508911,2024-06-04 14:44:05.217876
27.25838463,0.01073169708,0.02101314068,-0.005432367325,2024-06-04 14:44:05.258385
27.29889291,-0.002099990845,0.00285410881,-0.01191067696,2024-06-04 14:44:05.298893
27.33936697,0.01086425781,-0.007815003395,0.003339529037,2024-06-04 14:44:05.339367
27.37984567,-0.001649856567,-0.004143953323,0.004206895828,2024-06-04 14:44:05.379846
27.42037546,0.0001678466797,0.01284456253,-0.00434422493,2024-06-04 14:44:05.420375
27.46084504,-0.02732372284,0.01602017879,-0.01420879364,2024-06-04 14:44:05.460845
27.50129562,0.007336616516,0.001618862152,-0.01013064384,2024-06-04 14:44:05.501296
27.54178697,-0.001877784729,0.004972100258,-0.0004489421844,2024-06-04 14:44:05.541787
27.58227577,-0.009516716003,0.009005188942,-0.0008141994476,2024-06-04 14:44:05.582276
27.622764,-0.002449989319,0.005969643593,0.002924203873,2024-06-04 14:44:05.622764
27.66325697,0.001075744629,0.008814096451,-0.002382993698,2024-06-04 14:44:05.663257
27.70378973,-0.001147270203,-0.008506298065,0.002460479736,2024-06-04 14:44:05.703790
27.74429577,-0.01160907745,-0.0008136034012,-0.0003736019135,2024-06-04 14:44:05.744296
27.78478067,-0.001068115234,0.007210612297,-0.01189374924,2024-06-04 14:44:05.784781
27.82526858,-0.004316329956,0.00800538063,-0.01255774498,2024-06-04 14:44:05.825269
27.86572635,0.01097869873,0.00409924984,0.006214380264,2024-06-04 14:44:05.865726
27.90622884,-0.01192951202,-0.007972717285,0.002026796341,2024-06-04 14:44:05.906229
27.94672593,0.0002336502075,-0.005375981331,0.005105018616,2024-06-04 14:44:05.946726
27.98721572,0.003099441528,0.01064753532,0.01943683624,2024-06-04 14:44:05.987216
28.02770556,0.0103521347,0.01779854298,0.003142595291,2024-06-04 14:44:06.027706
28.06819536,-0.01726913452,0.004896998405,-0.01294350624,2024-06-04 14:44:06.068195
28.10867869,-0.02038002014,0.008300304413,-0.04849147797,2024-06-04 14:44:06.108679
28.14916603,-0.010389328,0.002445697784,-0.05086541176,2024-06-04 14:44:06.149166
28.18969181,-0.02748394012,0.01189422607,-0.02120161057,2024-06-04 14:44:06.189692
28.23016697,0.01395511627,0.02637445927,0.01119732857,2024-06-04 14:44:06.230167
28.2706601,0.02789592743,0.03098380566,0.03794884682,2024-06-04 14:44:06.270660
28.31116067,0.03130435944,-0.005088329315,0.04621386528,2024-06-04 14:44:06.311161
28.35160838,-0.004312515259,-0.02263152599,0.02675366402,2024-06-04 14:44:06.351608
28.39210077,0.003849983215,-0.02180993557,0.01229500771,2024-06-04 14:44:06.392101
28.43259062,-0.009534835815,0.004380226135,-0.0108397007,2024-06-04 14:44:06.432591
28.473069,-0.03950309753,0.005452990532,-0.02477955818,2024-06-04 14:44:06.473069
28.51355275,-0.02066040039,0.01394915581,-0.0305352211,2024-06-04 14:44:06.513553
28.55404207,0.02029132843,0.004556298256,-0.01436424255,2024-06-04 14:44:06.554042
28.59452431,-0.001259803772,0.01312685013,-0.003781557083,2024-06-04 14:44:06.594524
28.63500567,0.009474754333,0.01000154018,0.02176523209,2024-06-04 14:44:06.635006
28.67551437,0.01217556,0.02194905281,0.02762174606,2024-06-04 14:44:06.675514
28.71603994,0.01863765717,0.009546995163,0.02254605293,2024-06-04 14:44:06.716040
28.75649588,0.06414699554,-0.01974499226,0.01926445961,2024-06-04 14:44:06.756496
28.79697015,0.01997184753,0.002682447433,0.01915550232,2024-06-04 14:44:06.796970
28.83748905,-0.07746887207,0.002784609795,0.01310682297,2024-06-04 14:44:06.837489
28.87795301,-0.02654743195,-0.02632188797,-0.01526546478,2024-06-04 14:44:06.877953
28.91846166,-0.0522146225,-0.0235799551,-0.07633399963,2024-06-04 14:44:06.918462
28.95895103,-0.0213804245,0.007430791855,-0.0437040329,2024-06-04 14:44:06.958951
28.99944072,0.0128660202,0.0536608696,0.001527309418,2024-06-04 14:44:06.999441
29.03991942,0.009552955627,0.04928851128,0.005155324936,2024-06-04 14:44:07.039919
29.08038655,0.0004873275757,0.01909315586,0.008124828339,2024-06-04 14:44:07.080387
29.1208765,0.01498508453,-0.02134203911,0.03080701828,2024-06-04 14:44:07.120877
29.16135806,0.03104114532,-0.04080045223,0.05770611763,2024-06-04 14:44:07.161358
29.2019052,-0.01343822479,-0.01495397091,0.005969524384,2024-06-04 14:44:07.201905
29.24240494,0.005694389343,-0.007069826126,-0.02384638786,2024-06-04 14:44:07.242405
29.28289765,-0.02811813354,0.01600170135,-0.03910517693,2024-06-04 14:44:07.282898
29.32338562,0.001331329346,0.01453387737,-0.02077412605,2024-06-04 14:44:07.323386
29.36387353,-0.02091026306,0.01414787769,0.007188558578,2024-06-04 14:44:07.363874
29.40431103,0.03074741364,0.0070540905,0.01034975052,2024-06-04 14:44:07.404311
29.4448001,0.03479194641,-0.01287508011,0.04377746582,2024-06-04 14:44:07.444800
29.48528931,0.01411819458,-0.009953260422,0.0215280056,2024-06-04 14:44:07.485289
29.52578296,-0.001859664917,0.01150333881,-0.01928424835,2024-06-04 14:44:07.525783
29.5662715,-0.02102184296,0.02090370655,-0.01387763023,2024-06-04 14:44:07.566271
29.60677806,0.01043891907,0.01801037788,0.001192331314,2024-06-04 14:44:07.606778
29.64724228,0.01301670074,-0.002636194229,-0.001688718796,2024-06-04 14:44:07.647242
29.68774051,-0.02737426758,-0.01029360294,-0.00727391243,2024-06-04 14:44:07.687741
29.72823681,0.0007848739624,-0.006828665733,-0.01650357246,2024-06-04 14:44:07.728237
29.76872728,-0.008162498474,0.01106023788,-0.005103826523,2024-06-04 14:44:07.768727
29.8092165,-0.01118850708,0.008972525597,-0.006793260574,2024-06-04 14:44:07.809217
29.84969692,0.001740455627,0.02140629292,0.007953166962,2024-06-04 14:44:07.849697
29.8902214,0.0001668930054,0.006389021873,0.003329992294,2024-06-04 14:44:07.890221
29.93071983,0.008646965027,-0.01914978027,0.02230167389,2024-06-04 14:44:07.930720
29.97120437,-0.0127248764,-0.02419984341,0.002736568451,2024-06-04 14:44:07.971204
30.01169452,-0.005343437195,-0.004704117775,-0.0001108646393,2024-06-04 14:44:08.011695
30.05218468,-0.003089904785,0.02750611305,-0.01101016998,2024-06-04 14:44:08.052185
30.09265036,0.01243019104,0.01349329948,-0.01610898972,2024-06-04 14:44:08.092650
30.13316687,0.006414413452,0.002424836159,-0.007138252258,2024-06-04 14:44:08.133167
30.1736703,-0.01219844818,0.007388234138,-0.01148080826,2024-06-04 14:44:08.173670
30.2141515,-0.01123332977,0.009879827499,-0.01510620117,2024-06-04 14:44:08.214151
30.25464822,-0.0002298355103,0.01532185078,0.001010417938,2024-06-04 14:44:08.254648
30.2951376,0.02167034149,0.01498389244,0.01463270187,2024-06-04 14:44:08.295138
30.33562421,0.01994037628,-0.001347541809,0.009938240051,2024-06-04 14:44:08.335624
30.376114,0.003397941589,-0.004840373993,-0.003743171692,2024-06-04 14:44:08.376114
30.41660395,-0.02226161957,-0.001014351845,-0.006282806396,2024-06-04 14:44:08.416604
30.45705624,-0.01606178284,0.008924603462,-0.002567052841,2024-06-04 14:44:08.457056
30.49754567,0.01453304291,0.008950352669,0.01102209091,2024-06-04 14:44:08.497546
30.53803515,-0.02617549896,0.008459687233,-0.001272439957,2024-06-04 14:44:08.538035
30.57852338,0.003397941589,-0.001051545143,0.002446174622,2024-06-04 14:44:08.578523
30.6190201,-0.02834033966,0.001216411591,0.009524345398,2024-06-04 14:44:08.619020
30.65954635,-0.0008115768433,-0.002149820328,-0.004688262939,2024-06-04 14:44:08.659546
30.6999802,-0.009985923767,0.01317501068,0.004736661911,2024-06-04 14:44:08.699980
30.74048968,0.02341842651,0.007244944572,-0.0003638267517,2024-06-04 14:44:08.740490
30.78097676,0.01230430603,0.005858182907,-0.003153324127,2024-06-04 14:44:08.780977
30.82150171,-0.01403999329,-0.005484819412,-0.005379199982,2024-06-04 14:44:08.821502
30.86199202,-0.01672267914,0.01020681858,-0.006644964218,2024-06-04 14:44:08.861992
30.90248187,0.0112695694,0.007178783417,-0.006195306778,2024-06-04 14:44:08.902482
30.94291989,0.002168655396,0.01109075546,0.00492978096,2024-06-04 14:44:08.942920
30.98340036,-0.0267534256,-0.005820631981,-0.01427578926,2024-06-04 14:44:08.983400
31.02389504,0.0133190155,0.00861120224,-0.008834123611,2024-06-04 14:44:09.023895
31.06439072,0.009006500244,-0.007158517838,-0.003221035004,2024-06-04 14:44:09.064391
31.10487983,0.003240585327,0.003910779953,0.0110244751,2024-06-04 14:44:09.104880
31.14541926,-0.005391120911,0.02310049534,0.02762055397,2024-06-04 14:44:09.145419
31.18588624,0.008355140686,0.01726472378,-0.01041221619,2024-06-04 14:44:09.185886
31.22636218,0.0001611709595,0.002806663513,-0.008978366852,2024-06-04 14:44:09.226362
31.26683911,-0.03131103516,-0.002769708633,-0.02822446823,2024-06-04 14:44:09.266839
31.30734129,0.009084701538,0.006105184555,-0.01661658287,2024-06-04 14:44:09.307341
31.34782077,0.008408546448,0.01811349392,0.004197835922,2024-06-04 14:44:09.347821
31.38834025,0.004439353943,0.0001633167267,0.008581876755,2024-06-04 14:44:09.388340
31.42884926,-0.004451751709,-0.02335417271,0.01052927971,2024-06-04 14:44:09.428849
31.46929608,0.01746368408,-0.001201510429,0.008733987808,2024-06-04 14:44:09.469296
31.50976416,0.01235866547,0.018435359,0.006278991699,2024-06-04 14:44:09.509764
31.55025338,-0.001871109009,0.0178732872,-0.006492137909,2024-06-04 14:44:09.550253
31.59074265,-0.01380252838,0.004706978798,-0.002685546875,2024-06-04 14:44:09.590743
31.63123187,-0.0188999176,-0.009788751602,-0.0009286403656,2024-06-04 14:44:09.631232
31.67182218,0.01060676575,-0.008682608604,-0.0005242824554,2024-06-04 14:44:09.671822
31.71226562,0.01296901703,0.002967000008,0.04505610466,2024-06-04 14:44:09.712266
31.75276515,0.004806518555,-0.006881952286,0.0213303566,2024-06-04 14:44:09.752765
31.79325588,0.009611129761,-0.00331223011,-0.009628772736,2024-06-04 14:44:09.793256
31.83374431,-0.03262805939,0.003162264824,-0.0256485939,2024-06-04 14:44:09.833744
31.87423567,0.004334449768,0.03369581699,-0.02388286591,2024-06-04 14:44:09.874236
31.9147227,-0.007176399231,0.0142802,-0.03568291664,2024-06-04 14:44:09.914723
31.95520046,-0.02003383636,0.01366305351,-0.01409745216,2024-06-04 14:44:09.955200
31.99569062,-0.006588935852,0.009485125542,-0.003866434097,2024-06-04 14:44:09.995691
32.03618082,-0.003144264221,0.006825089455,0.01362991333,2024-06-04 14:44:10.036181
32.07667103,0.02548503876,0.0009168386459,0.03569865227,2024-06-04 14:44:10.076671
32.11716124,0.004279136658,0.000587105751,0.02365326881,2024-06-04 14:44:10.117161
32.15766103,-0.009221076965,-0.002524614334,0.007268667221,2024-06-04 14:44:10.157661
32.19810744,-0.01525020599,-0.000292301178,-0.007983207703,2024-06-04 14:44:10.198107
32.23859765,0.003932952881,0.002389550209,-0.02672553062,2024-06-04 14:44:10.238598
32.27912124,-0.01454639435,0.01511490345,-0.01606297493,2024-06-04 14:44:10.279121
32.31956739,-0.00297164917,-0.0001451969147,-0.02093243599,2024-06-04 14:44:10.319567
32.36004822,-0.01760482788,-0.005924582481,0.001034021378,2024-06-04 14:44:10.360048
32.40059692,0.01171779633,-0.003561019897,0.008954763412,2024-06-04 14:44:10.400597
32.44108713,0.01889514923,0.002423882484,0.01737713814,2024-06-04 14:44:10.441087
32.48157749,0.002731323242,0.009333133698,0.006200551987,2024-06-04 14:44:10.481577
32.52201187,-0.01723575592,0.01016581059,-0.01022720337,2024-06-04 14:44:10.522012
32.5624952,0.004392623901,0.01167559624,-0.02070736885,2024-06-04 14:44:10.562495
32.60300525,0.01538181305,0.0041847229,0.002402305603,2024-06-04 14:44:10.603005
32.64348457,-0.03430747986,-0.003369688988,0.001341104507,2024-06-04 14:44:10.643485
32.68399931,0.005295753479,0.01154088974,0.007465362549,2024-06-04 14:44:10.683999
32.72451249,-0.008221626282,0.01926326752,0.02126717567,2024-06-04 14:44:10.724512
32.76500431,0.01756572723,-0.01807379723,0.01266026497,2024-06-04 14:44:10.765004
32.80548562,-0.002018928528,-0.01669478416,0.01027321815,2024-06-04 14:44:10.805486
32.84596671,0.01130008698,0.000722527504,-0.01582241058,2024-06-04 14:44:10.845967
32.88642134,-0.0007543563843,0.008402109146,-0.006407499313,2024-06-04 14:44:10.886421
32.92691426,-0.01104831696,0.01448488235,-0.02399921417,2024-06-04 14:44:10.926914
32.9674427,-0.007397651672,0.02047383785,-0.0124373436,2024-06-04 14:44:10.967443
33.00793275,0.009207725525,0.00698697567,-0.002437353134,2024-06-04 14:44:11.007933
33.04842004,-0.007786750793,0.00313603878,0.008187770844,2024-06-04 14:44:11.048420
33.08890093,0.002957344055,-0.004278659821,0.01755261421,2024-06-04 14:44:11.088901
33.12938937,-0.0003700256348,-0.02326059341,0.001993894577,2024-06-04 14:44:11.129389
33.16988952,-0.002625465393,0.001461148262,0.003480911255,2024-06-04 14:44:11.169890
33.21036973,0.01813411713,0.01488173008,0.00318479538,2024-06-04 14:44:11.210370
33.25084838,-0.0002336502075,-0.007650732994,-0.002429008484,2024-06-04 14:44:11.250848
33.29135249,-0.009211540222,-0.009278416634,-0.02396464348,2024-06-04 14:44:11.291352
33.33185681,0.0005197525024,0.002790331841,-0.02159428596,2024-06-04 14:44:11.331857
33.3723403,-0.0156879425,0.01892626286,-0.001575231552,2024-06-04 14:44:11.372340
33.41283025,-0.001536369324,0.02892613411,-0.01754832268,2024-06-04 14:44:11.412830
33.4533203,-0.00353717804,0.02317917347,0.01422119141,2024-06-04 14:44:11.453320
33.4938102,0.02123641968,0.0003625154495,0.007231712341,2024-06-04 14:44:11.493810
33.53430015,0.005890846252,-0.0234798193,0.01918029785,2024-06-04 14:44:11.534300
33.57474369,-0.01028347015,-0.004150867462,-0.002092123032,2024-06-04 14:44:11.574744
33.61522926,-0.004227638245,0.01274085045,-0.005326032639,2024-06-04 14:44:11.615229
33.6557191,-0.0106420517,0.01089346409,-0.003706932068,2024-06-04 14:44:11.655719
33.69623405,-0.008860588074,0.004597067833,-0.00460600853,2024-06-04 14:44:11.696234
33.73671567,-0.001441001892,0.005540251732,-0.008542299271,2024-06-04 14:44:11.736716
33.77721634,-0.002449989319,-0.002064108849,0.00835108757,2024-06-04 14:44:11.777216
33.81770629,0.01228046417,-0.0006891489029,0.005202531815,2024-06-04 14:44:11.817706
33.85819431,0.01321125031,0.00870859623,0.01663947105,2024-06-04 14:44:11.858194
33.89872489,0.00171661377,0.01248824596,0.003886222839,2024-06-04 14:44:11.898725
33.93921504,0.0004873275757,0.008534193039,0.01199793816,2024-06-04 14:44:11.939215
33.97963968,-0.02579879761,0.003169894218,-0.02852225304,2024-06-04 14:44:11.979640
34.02012983,-0.01622867584,-0.002142190933,-0.02726817131,2024-06-04 14:44:12.020130
34.06062004,0.01250267029,0.01020467281,-0.007488489151,2024-06-04 14:44:12.060620
34.10111025,-0.01434612274,0.004328608513,0.00453042984,2024-06-04 14:44:12.101110
34.14159369,-0.004577636719,0.006655216217,0.00589299202,2024-06-04 14:44:12.141594
34.18211447,0.02017307281,0.02175319195,0.03628206253,2024-06-04 14:44:12.182114
34.22262692,0.007354736328,0.01226758957,0.01805114746,2024-06-04 14:44:12.222627
34.26312056,-0.0103931427,-0.01531541348,-0.004829406738,2024-06-04 14:44:12.263121
34.30361233,-0.007921218872,0.0002996921539,-0.031072855,2024-06-04 14:44:12.303612
34.34410004,0.01645088196,0.0176473856,-0.01512885094,2024-06-04 14:44:12.344100
34.38458062,-0.01101493835,0.01617443562,-0.00806760788,2024-06-04 14:44:12.384581
34.42505494,-0.005974769592,-0.0001444816589,0.004817962646,2024-06-04 14:44:12.425055
34.46552103,-0.01662635803,-0.003810405731,0.01273059845,2024-06-04 14:44:12.465521
34.50600952,0.001618385315,-0.00662279129,-0.0024061203,2024-06-04 14:44:12.506010
34.54649812,0.01028347015,0.002171397209,-0.006315946579,2024-06-04 14:44:12.546498
34.58700405,-0.005876541138,0.005886912346,-0.006064414978,2024-06-04 14:44:12.587004
34.62751931,-0.002032279968,0.01495742798,-0.008803606033,2024-06-04 14:44:12.627519
34.66798926,-0.01426410675,0.01576173306,-0.01167869568,2024-06-04 14:44:12.667989
34.70848312,5.24520874e-05,0.0005795955658,-0.009339094162,2024-06-04 14:44:12.708483
34.74898869,-0.0112285614,0.002498149872,-0.002365112305,2024-06-04 14:44:12.748989
34.78948864,0.01608753204,0.0007708072662,0.02176070213,2024-06-04 14:44:12.789489
34.82997624,-0.0126543045,0.01058554649,0.0004391670227,2024-06-04 14:44:12.829976
34.87047338,0.01269817352,0.007768154144,-0.01146817207,2024-06-04 14:44:12.870473
34.91095827,-0.01413726807,0.001414775848,-0.0004055500031,2024-06-04 14:44:12.910958
34.95144655,0.002403259277,-0.02310693264,0.001743793488,2024-06-04 14:44:12.951447
34.99188265,-0.004277229309,0.004627227783,-0.003561019897,2024-06-04 14:44:12.991883
35.03237187,-0.004356384277,0.009591579437,-0.01381707191,2024-06-04 14:44:13.032372
35.07286249,-0.01281642914,0.009202361107,0.001454353333,2024-06-04 14:44:13.072862
35.11334494,0.01272010803,0.001808524132,-0.001499652863,2024-06-04 14:44:13.113345
35.15385827,0.002638816833,0.007608771324,0.005846261978,2024-06-04 14:44:13.153858
35.19435733,-0.000771522522,0.004809379578,-0.008194446564,2024-06-04 14:44:13.194357
35.23487108,-0.01254844666,0.007353186607,0.02428507805,2024-06-04 14:44:13.234871
35.27536197,-0.001879692078,0.005815029144,-0.008324623108,2024-06-04 14:44:13.275362
35.31582822,0.01397418976,-0.0004373788834,-0.003853082657,2024-06-04 14:44:13.315828
35.35633364,-0.008841514587,-0.002927184105,-0.01149320602,2024-06-04 14:44:13.356334
35.39681353,-0.01037406921,-9.095668793e-05,-0.01071739197,2024-06-04 14:44:13.396814
35.43730275,0.000997543335,0.00949037075,0.003962993622,2024-06-04 14:44:13.437303
35.47779327,-0.002960205078,0.001921415329,0.003646612167,2024-06-04 14:44:13.477793
35.5182701,0.01784133911,0.001665115356,0.004464149475,2024-06-04 14:44:13.518270
35.55876041,-0.01438236237,0.0007917881012,-0.005365848541,2024-06-04 14:44:13.558760
35.59924864,0.007710456848,0.005691766739,-0.002493143082,2024-06-04 14:44:13.599249
35.63975806,-0.00492477417,0.00713455677,0.009018421173,2024-06-04 14:44:13.639758
35.68023447,0.008814811707,0.00176525116,0.008097171783,2024-06-04 14:44:13.680234
35.72071483,-0.003672599792,-0.002367377281,0.001170396805,2024-06-04 14:44:13.720715
35.76122702,-0.005738258362,0.004180312157,-0.0109629631,2024-06-04 14:44:13.761227
35.80172718,-0.008175849915,0.0114222765,-0.01173090935,2024-06-04 14:44:13.801727
35.84221775,0.00292301178,0.01648414135,-0.001425504684,2024-06-04 14:44:13.842218
35.88270832,0.0007591247559,0.01669514179,0.0125515461,2024-06-04 14:44:13.882708
35.9231939,0.0009574890137,0.01055860519,-0.004956483841,2024-06-04 14:44:13.923194
35.96367489,-0.0005121231079,-0.00544500351,-0.001782655716,2024-06-04 14:44:13.963675
36.00416494,0.003727912903,-0.006802916527,0.005773544312,2024-06-04 14:44:14.004165
36.04465494,0.005420684814,-0.006199717522,0.001416683197,2024-06-04 14:44:14.044655
36.08514499,-0.01727294922,-0.001774311066,-0.001926660538,2024-06-04 14:44:14.085145
36.1256276,-0.008334159851,0.00768840313,-0.00617980957,2024-06-04 14:44:14.125628
36.16610291,0.007957458496,0.01333045959,-0.01108551025,2024-06-04 14:44:14.166103
36.20656312,0.005520820618,-0.001945853233,-0.01111936569,2024-06-04 14:44:14.206563
36.24706942,-0.005457878113,0.001318216324,0.006005048752,2024-06-04 14:44:14.247069
36.287549,-0.01019477844,0.006309747696,-0.007393836975,2024-06-04 14:44:14.287549
36.32805426,0.004305839539,0.007815599442,0.004034996033,2024-06-04 14:44:14.328054
36.36854431,-0.00874042511,0.007518410683,0.005766153336,2024-06-04 14:44:14.368544
36.40902082,0.009511947632,-0.004227161407,0.01303911209,2024-06-04 14:44:14.409021
36.44951067,0.005925178528,-0.001572966576,0.003287553787,2024-06-04 14:44:14.449511
36.4899991,-0.007917404175,0.00476205349,-0.01572084427,2024-06-04 14:44:14.489999
36.53048228,-0.01169395447,0.01867616177,-0.01707816124,2024-06-04 14:44:14.530482
36.57100723,-0.01539802551,0.01217651367,-0.02039909363,2024-06-04 14:44:14.571007
36.61149364,-0.0008392333984,0.01255619526,-0.002128839493,2024-06-04 14:44:14.611494
36.65198286,0.007873535156,0.01185524464,0.004693031311,2024-06-04 14:44:14.651983
36.69244296,0.004223823547,0.005357146263,0.02220201492,2024-06-04 14:44:14.692443
36.73295072,0.007225990295,-0.00897359848,0.02050733566,2024-06-04 14:44:14.732951
36.77347687,-0.003999710083,0.001622200012,-0.003589630127,2024-06-04 14:44:14.773477
36.81394296,-0.002867698669,0.01576352119,-0.0111310482,2024-06-04 14:44:14.813943
36.85441556,-0.004071235657,0.01182544231,-0.01534461975,2024-06-04 14:44:14.854416
36.89489864,-0.01187133789,0.008771777153,-0.003707170486,2024-06-04 14:44:14.894899
36.93538957,0.008040428162,0.001506567001,0.004972934723,2024-06-04 14:44:14.935390
36.97588119,0.01054191589,0.002130389214,0.01082062721,2024-06-04 14:44:14.975881
37.01637041,-0.006172180176,0.005152344704,-0.004290819168,2024-06-04 14:44:15.016370
37.0568678,0.0005645751953,0.008216023445,-0.000141620636,2024-06-04 14:44:15.056868
37.09736353,0.004430770874,0.002793908119,0.006320953369,2024-06-04 14:44:15.097364
37.13784973,0.01327419281,-0.01072835922,0.00296163559,2024-06-04 14:44:15.137850
37.17837614,-0.004963874817,-0.004773139954,0.001355886459,2024-06-04 14:44:15.178376
37.21886041,0.007525444031,0.004185557365,-0.003668308258,2024-06-04 14:44:15.218860
37.25933603,-0.01021099091,0.003894090652,0.006285190582,2024-06-04 14:44:15.259336
37.29985072,0.01277732849,0.0005699396133,0.01035308838,2024-06-04 14:44:15.299851
37.3403401,-0.02054691315,-0.002605319023,-0.003472805023,2024-06-04 14:44:15.340340
37.38082947,-0.002838134766,0.01133787632,-0.003773450851,2024-06-04 14:44:15.380829
37.42131884,-0.01727199554,0.01117789745,-0.008748531342,2024-06-04 14:44:15.421319
37.46179869,0.004879951477,0.006553769112,-0.00901222229,2024-06-04 14:44:15.461799
37.50226249,-0.009962081909,0.002409338951,0.0004069805145,2024-06-04 14:44:15.502262
37.54273864,0.001810073853,-0.004371762276,0.0008139610291,2024-06-04 14:44:15.542739
37.58320327,0.002468109131,0.005174517632,-0.006036520004,2024-06-04 14:44:15.583203
37.6237226,-0.008524894714,0.01050174236,-0.006946086884,2024-06-04 14:44:15.623723
37.66421468,0.005124092102,0.001151561737,-0.00328373909,2024-06-04 14:44:15.664215
37.70471379,-0.01418209076,0.01208841801,-0.005283355713,2024-06-04 14:44:15.704714
37.74518832,0.004392623901,0.00908267498,-0.003276109695,2024-06-04 14:44:15.745188
37.78570843,-0.004451751709,0.006415963173,0.01246523857,2024-06-04 14:44:15.785708
37.82613655,0.009737014771,-0.009218335152,0.008778333664,2024-06-04 14:44:15.826137
37.86662572,-0.006744384766,-0.001792907715,-0.003432750702,2024-06-04 14:44:15.866626
37.90714598,0.002763748169,0.003683447838,-0.007441282272,2024-06-04 14:44:15.907146
37.94769733,-0.00871181488,0.01407146454,-0.004659414291,2024-06-04 14:44:15.947697
37.98814332,-0.006861686707,0.01376616955,-0.008618354797,2024-06-04 14:44:15.988143
38.02863848,0.004509925842,0.009182214737,-0.006055831909,2024-06-04 14:44:16.028638
38.0691053,-0.001234054565,-0.0009171962738,-0.000506401062,2024-06-04 14:44:16.069105
38.10957671,-0.01082706451,0.001654624939,0.008190870285,2024-06-04 14:44:16.109577
38.15010332,-0.006974220276,-0.0004631280899,-0.01258635521,2024-06-04 14:44:16.150103
38.19059114,0.006951332092,0.0007216930389,-0.0004441738129,2024-06-04 14:44:16.190591
38.23108181,-0.006436347961,-0.008678793907,0.001732826233,2024-06-04 14:44:16.231082
38.2715715,-0.001026153564,0.006456017494,-0.0001652240753,2024-06-04 14:44:16.271572
38.31203489,-0.008049964905,0.005132317543,-0.004858732224,2024-06-04 14:44:16.312035
38.35252989,0.006452560425,-0.002381443977,-0.01282382011,2024-06-04 14:44:16.352530
38.39301483,0.00515460968,-0.003824830055,0.0003843307495,2024-06-04 14:44:16.393015
38.43350494,-0.01257705688,0.004598140717,0.003654956818,2024-06-04 14:44:16.433505
38.47399812,0.002554893494,0.006209373474,-0.01461839676,2024-06-04 14:44:16.473998
38.5144876,0.007957458496,0.00243473053,0.004457712173,2024-06-04 14:44:16.514488
38.55497317,0.003193855286,-0.01097631454,0.008633136749,2024-06-04 14:44:16.554973
38.59546124,0.005934715271,-0.01151919365,-0.006500005722,2024-06-04 14:44:16.595461
38.63598562,-0.001968383789,0.0150219202,-0.00771522522,2024-06-04 14:44:16.635986
38.67651775,0.001131057739,0.01213240623,-0.009543895721,2024-06-04 14:44:16.676518
38.71699306,-0.01038837433,0.01538145542,-0.003060817719,2024-06-04 14:44:16.716993
38.75744983,0.0003252029419,0.01107156277,0.006279945374,2024-06-04 14:44:16.757450
38.79792687,0.0009689331055,0.000404715538,-0.006058216095,2024-06-04 14:44:16.797927
38.83841499,0.001461029053,0.006376743317,0.004661560059,2024-06-04 14:44:16.838415
38.87889416,0.002394676208,0.005230545998,0.006816387177,2024-06-04 14:44:16.878894
38.91938858,-0.0212802887,-0.00574862957,-0.007962942123,2024-06-04 14:44:16.919389
38.95989619,0.0007543563843,0.007214903831,-0.01634407043,2024-06-04 14:44:16.959896
39.00037937,0.005506515503,0.01298999786,-0.002070188522,2024-06-04 14:44:17.000379
39.04086754,-0.01796722412,0.003809452057,-0.001532793045,2024-06-04 14:44:17.040868
39.08135197,-0.008459091187,0.01031947136,0.009296655655,2024-06-04 14:44:17.081352
39.12186577,0.005166053772,0.0008583068848,-0.003552436829,2024-06-04 14:44:17.121866
39.16236301,0.006327629089,-0.001645565033,-0.001065254211,2024-06-04 14:44:17.162363
39.20282155,-0.009780883789,-0.004613757133,0.007052659988,2024-06-04 14:44:17.202822
39.24332369,-0.001411437988,0.0005078315735,-0.005506515503,2024-06-04 14:44:17.243324
39.28377572,-0.006278038025,0.01053225994,0.003407716751,2024-06-04 14:44:17.283776
39.32426056,0.01088905334,0.002040624619,0.01060056686,2024-06-04 14:44:17.324261
39.36474978,0.006015777588,-0.00112760067,0.01885581017,2024-06-04 14:44:17.364750
39.40523905,8.583068848e-06,-0.001319169998,-0.01274180412,2024-06-04 14:44:17.405239
39.44576812,0.0008497238159,0.0254086256,-0.01316380501,2024-06-04 14:44:17.445768
39.48625733,0.005218505859,0.01302218437,-0.02214050293,2024-06-04 14:44:17.486257
39.5267466,-0.001459121704,0.001885652542,0.006484746933,2024-06-04 14:44:17.526747
39.56726108,-0.004700660706,0.008699178696,-0.007991075516,2024-06-04 14:44:17.567261
39.60774421,0.01530742645,0.01116764545,0.01399683952,2024-06-04 14:44:17.607744
39.64820921,-0.02621173859,-0.00948369503,0.005255937576,2024-06-04 14:44:17.648209
39.68871072,-0.01815795898,-0.0132843256,0.002238512039,2024-06-04 14:44:17.688711
39.72919478,0.01022338867,0.000745177269,-0.009459733963,2024-06-04 14:44:17.729195
39.76968666,0.004512786865,0.02382087708,-0.001768350601,2024-06-04 14:44:17.769687
39.81018025,-0.01409244537,0.0005035400391,-0.01575350761,2024-06-04 14:44:17.810180
39.85066989,-0.01271438599,0.005318045616,-0.004188537598,2024-06-04 14:44:17.850670
39.89115952,0.01503562927,0.005969643593,0.006600618362,2024-06-04 14:44:17.891160
39.93163364,-0.007431983948,-0.01199293137,-0.003465890884,2024-06-04 14:44:17.931634
39.97211551,-0.002772331238,-0.003558754921,0.005085229874,2024-06-04 14:44:17.972116
40.01260515,-0.00657081604,0.001674175262,0.002816438675,2024-06-04 14:44:18.012605
40.053094,-0.002018928528,0.003669023514,-0.0003156661987,2024-06-04 14:44:18.053094
40.09358494,0.001729011536,0.006964921951,-0.0107831955,2024-06-04 14:44:18.093585
40.13409275,0.01602268219,-0.008424282074,0.01032805443,2024-06-04 14:44:18.134093
40.17459822,0.0004787445068,-0.006211876869,-0.01371479034,2024-06-04 14:44:18.174598
40.21506681,0.007349967957,0.0192605257,-0.008404254913,2024-06-04 14:44:18.215067
40.25556108,-0.01144218445,0.001899242401,0.0004472732544,2024-06-04 14:44:18.255561
40.29606947,0.008271217346,0.01723694801,0.01245522499,2024-06-04 14:44:18.296069
40.33651358,0.0002031326294,-0.004726171494,-0.006089448929,2024-06-04 14:44:18.336514
40.37699463,-0.003175735474,0.007358551025,-0.001710891724,2024-06-04 14:44:18.376995
40.41749286,0.002968788147,0.006711006165,-0.0002379417419,2024-06-04 14:44:18.417493
40.4580291,-0.01447200775,-0.00684928894,0.006261110306,2024-06-04 14:44:18.458029
40.49851546,0.005575180054,0.003986358643,-0.001910448074,2024-06-04 14:44:18.498515
40.53895791,-0.001972198486,0.007055401802,0.008177042007,2024-06-04 14:44:18.538958
40.57947978,0.005744934082,0.006973862648,0.00296163559,2024-06-04 14:44:18.579480
40.619949,0.004858970642,0.003863811493,-0.002444028854,2024-06-04 14:44:18.619949
40.66043062,-0.006902694702,0.01961565018,0.005726099014,2024-06-04 14:44:18.660431
40.70096515,-0.009852409363,-0.001127839088,-0.0007417201996,2024-06-04 14:44:18.700965
40.74146379,-0.02093601227,-0.02438795567,0.007675409317,2024-06-04 14:44:18.741464
40.78190718,0.007654190063,0.01518368721,0.02693486214,2024-06-04 14:44:18.781907
40.82238806,-0.02865028381,0.004849553108,-0.05616283417,2024-06-04 14:44:18.822388
40.86287546,-0.05527877808,0.04542887211,-0.1072559357,2024-06-04 14:44:18.862875
40.90336468,0.1078662872,0.04769289494,-0.02844643593,2024-06-04 14:44:18.903365
40.94387077,0.04520988464,-0.05241656303,0.06829977036,2024-06-04 14:44:18.943871
40.98435999,-0.02059459686,-0.04301166534,0.04229283333,2024-06-04 14:44:18.984360
41.02484926,-0.01306724548,-0.03739726543,0.03339505196,2024-06-04 14:44:19.024849
41.06531973,-0.02519702911,-0.04201591015,0.01323628426,2024-06-04 14:44:19.065320
41.10585515,0.005207061768,0.06297183037,0.08561182022,2024-06-04 14:44:19.105855
41.14636702,-0.01599025726,0.05536818504,-0.003676652908,2024-06-04 14:44:19.146367
41.18684088,0.02236747742,0.165068388,-0.08472752571,2024-06-04 14:44:19.186841
41.2273151,-0.03705501556,0.04521739483,-0.0967965126,2024-06-04 14:44:19.227315
41.26781692,0.006485939026,-0.170306921,-0.03303003311,2024-06-04 14:44:19.267817
41.30830067,-0.0272436142,-0.1434357166,0.03328108788,2024-06-04 14:44:19.308301
41.34877645,-0.04728031158,-0.03578531742,-0.02442717552,2024-06-04 14:44:19.348776
41.38926879,0.01150512695,0.07912409306,0.04289937019,2024-06-04 14:44:19.389269
41.42976603,0.01967334747,0.1360650063,0.04765605927,2024-06-04 14:44:19.429766
41.47025207,0.01350784302,0.01084077358,0.02853894234,2024-06-04 14:44:19.470252
41.5107427,0.09530162811,-0.01263463497,-0.01304006577,2024-06-04 14:44:19.510743
41.55124884,-0.0389957428,0.03139173985,-0.00424861908,2024-06-04 14:44:19.551249
41.59177306,-0.02846908569,-0.003822207451,-0.06189513206,2024-06-04 14:44:19.591773
41.63223582,-0.05284881592,-0.01521658897,-0.06893658638,2024-06-04 14:44:19.632236
41.67269926,-0.06980991364,-0.08013284206,0.0171225071,2024-06-04 14:44:19.672699
41.71320968,0.01369953156,-0.07282102108,0.07150101662,2024-06-04 14:44:19.713210
41.75372025,0.1079931259,0.134890914,0.02976346016,2024-06-04 14:44:19.753720
41.79417468,0.03308486938,0.1089112759,0.01862597466,2024-06-04 14:44:19.794175
41.8346639,0.05197620392,0.02293586731,0.03091096878,2024-06-04 14:44:19.834664
41.87515306,-0.1017045975,-0.0724247694,-0.06344461441,2024-06-04 14:44:19.875153
41.91564228,-0.09946632385,-0.1487709284,-0.07151198387,2024-06-04 14:44:19.915642
41.95612056,0.01844215393,0.01227414608,0.02202415466,2024-06-04 14:44:19.956121
41.99660978,0.05175590515,0.2123464346,-0.01794481277,2024-06-04 14:44:19.996610
42.03710806,0.05794048309,0.07546591759,-0.007935285568,2024-06-04 14:44:20.037108
42.07760385,0.01614665985,-0.05516421795,0.06037187576,2024-06-04 14:44:20.077604
42.11807957,-0.03238201141,-0.1635785103,0.007508277893,2024-06-04 14:44:20.118080
42.15855582,-0.07645225525,-0.1121077538,-0.01350665092,2024-06-04 14:44:20.158556
42.19906379,0.0286397934,0.1010131836,-0.02346348763,2024-06-04 14:44:20.199064
42.23955233,0.09150695801,0.2454588413,0.01365876198,2024-06-04 14:44:20.239552
42.28007619,0.02680301666,0.06110787392,-0.004724740982,2024-06-04 14:44:20.280076
42.32056588,-0.03117465973,-0.1174222231,-0.004560232162,2024-06-04 14:44:20.320566
42.36105556,-0.08665657043,-0.215755105,0.002518415451,2024-06-04 14:44:20.361056
42.4015453,-0.03083896637,-0.09038257599,0.003018140793,2024-06-04 14:44:20.401545
42.44203499,0.07481098175,0.1603161097,0.0111219883,2024-06-04 14:44:20.442035
42.48252468,0.03434562683,0.1798731089,-0.02189803123,2024-06-04 14:44:20.482525
42.52301442,0.0117559433,0.001167535782,-0.02469706535,2024-06-04 14:44:20.523014
42.56344254,-0.07169055939,-0.1365965605,-0.02344369888,2024-06-04 14:44:20.563443
42.60397244,-0.0661239624,-0.1306008101,-0.02491784096,2024-06-04 14:44:20.603972
42.64444947,-0.0003004074097,0.03719484806,0.01534485817,2024-06-04 14:44:20.644449
42.68492103,0.08296203613,0.199877739,0.02789545059,2024-06-04 14:44:20.684921
42.72541348,0.04800128937,0.0435038805,0.0289683342,2024-06-04 14:44:20.725413
42.76595551,-0.02835178375,-0.1034855843,-0.00372338295,2024-06-04 14:44:20.765956
42.80644655,-0.08505058289,-0.1638315916,-0.02106595039,2024-06-04 14:44:20.806447
42.84688848,0.009339332581,-0.03933155537,-0.00161075592,2024-06-04 14:44:20.846888
42.88739332,0.07728290558,0.2247320414,0.02370643616,2024-06-04 14:44:20.887393
42.92791452,0.02748966217,0.1283931732,0.01163482666,2024-06-04 14:44:20.927915
42.96838343,-0.00218963623,-0.05033135414,-0.03135824203,2024-06-04 14:44:20.968383
43.00883754,-0.09508228302,-0.1728897095,-0.05349493027,2024-06-04 14:44:21.008838
43.04934645,-0.06111526489,-0.1438578367,-0.002575159073,2024-06-04 14:44:21.049346
43.08983629,0.05022716522,0.05920124054,0.04620099068,2024-06-04 14:44:21.089836
43.1303315,0.08466339111,0.215955615,0.02055716515,2024-06-04 14:44:21.130331
43.1708478,0.03725528717,0.06563150883,0.01315116882,2024-06-04 14:44:21.170848
43.21129431,-0.01725101471,-0.0873208046,-0.04526162148,2024-06-04 14:44:21.211294
43.25179343,-0.09899044037,-0.1254316568,0.00560593605,2024-06-04 14:44:21.251793
43.29228655,-0.03584289551,-0.03191256523,-0.06090450287,2024-06-04 14:44:21.292287
43.3327664,-0.007789611816,0.05871582031,-0.005185842514,2024-06-04 14:44:21.332766
43.37323077,0.08985900879,0.150677681,0.04114532471,2024-06-04 14:44:21.373231
43.41374103,0.0091381073,0.06640815735,0.05519604683,2024-06-04 14:44:21.413741
43.45422983,0.02493953705,-0.0726839304,-0.02117967606,2024-06-04 14:44:21.454230
43.49471457,-0.09063053131,-0.13793993,-0.01735901833,2024-06-04 14:44:21.494715
43.53520848,-0.02359390259,-0.07939779758,-0.03992915154,2024-06-04 14:44:21.535208
43.57571192,-0.02126312256,0.04837119579,0.01596665382,2024-06-04 14:44:21.575712
43.61625254,0.08362197876,0.1803623438,0.03342032433,2024-06-04 14:44:21.616253
43.65675983,0.03522777557,0.05346941948,0.03776931763,2024-06-04 14:44:21.656760
43.6972015,-0.01580524445,-0.09265470505,-0.02971076965,2024-06-04 14:44:21.697201
43.73767655,-0.0761384964,-0.1264723539,-0.01293754578,2024-06-04 14:44:21.737677
43.77816405,-0.0149641037,-0.03126657009,-0.03586483002,2024-06-04 14:44:21.778164
43.81868364,-0.02056884766,0.08357012272,-0.01134586334,2024-06-04 14:44:21.818684
43.85917244,0.1106901169,0.1544482708,0.01787304878,2024-06-04 14:44:21.859172
43.89962067,-0.004131317139,0.04036259651,0.04831361771,2024-06-04 14:44:21.899621
43.94010374,0.007483482361,-0.09436547756,-0.02830338478,2024-06-04 14:44:21.940104
43.98060046,-0.07238006592,-0.1100655794,-0.0004096031189,2024-06-04 14:44:21.980600
44.02108655,0.01893615723,-0.00288772583,-0.005657196045,2024-06-04 14:44:22.021087
44.06156864,-0.0239906311,0.06599736214,-0.01336359978,2024-06-04 14:44:22.061569
44.10211671,0.01881694794,0.06398677826,-0.01218366623,2024-06-04 14:44:22.102117
44.14261166,0.02385807037,-0.01511895657,0.01231837273,2024-06-04 14:44:22.142612
44.18306166,-0.001252174377,-0.02235400677,-0.00150680542,2024-06-04 14:44:22.183062
44.22354864,-0.01170253754,-0.005319833755,0.002726078033,2024-06-04 14:44:22.223549
44.26403937,-0.01820278168,0.02930808067,0.003173351288,2024-06-04 14:44:22.264039
44.30452671,-0.003551483154,0.01223409176,-0.02373886108,2024-06-04 14:44:22.304527
44.34501608,-0.01758670807,-0.0003437995911,0.005102872849,2024-06-04 14:44:22.345016
44.38550577,0.02561664581,-0.01920688152,-0.01976680756,2024-06-04 14:44:22.385506
44.42599577,-0.0342130661,0.01497960091,0.001798868179,2024-06-04 14:44:22.425996
44.46648546,0.002856254578,0.009297966957,-0.005234241486,2024-06-04 14:44:22.466485
44.50696671,0.01537418365,0.0007539987564,-0.007741212845,2024-06-04 14:44:22.506967
44.54743947,0.009043693542,0.005937218666,-0.005024909973,2024-06-04 14:44:22.547439
44.5879316,-0.01097869873,0.0003319978714,0.002856016159,2024-06-04 14:44:22.587932
44.62843931,-0.009484291077,0.009188294411,-0.0007727146149,2024-06-04 14:44:22.628439
44.66891572,-0.002781867981,-0.002618789673,-0.006470918655,2024-06-04 14:44:22.668916
44.70944171,-0.001563072205,0.005648851395,0.001482248306,2024-06-04 14:44:22.709442
44.74989853,-0.004355430603,-0.009826540947,-0.00828576088,2024-06-04 14:44:22.749899
44.79041827,-0.002396583557,-0.003268718719,0.004501104355,2024-06-04 14:44:22.790418
44.83090817,0.01517391205,0.002763271332,0.002080202103,2024-06-04 14:44:22.830908
44.87139806,0.01177501678,0.003337621689,0.007454872131,2024-06-04 14:44:22.871398
44.91188796,-0.01149177551,-0.003946900368,0.005569219589,2024-06-04 14:44:22.911888
44.95238801,0.008470535278,0.004042744637,0.001987934113,2024-06-04 14:44:22.952388
44.99287786,-0.00412940979,0.01437819004,0.005812168121,2024-06-04 14:44:22.992878
45.03333468,0.01345157623,-0.002376556396,0.007244825363,2024-06-04 14:44:23.033335
45.07383551,-0.0009651184082,-0.002673864365,-0.006922960281,2024-06-04 14:44:23.073836
45.11430093,-0.006266593933,0.00694167614,-0.005594491959,2024-06-04 14:44:23.114301
45.15485598,-0.01758098602,0.005229115486,-0.004638910294,2024-06-04 14:44:23.154856
45.19528994,0.0077085495,0.009777903557,-0.004685640335,2024-06-04 14:44:23.195290
45.23582369,-0.006837844849,0.007607340813,0.01147222519,2024-06-04 14:44:23.235824
45.2763489,-0.009218215942,-0.007703542709,0.002919435501,2024-06-04 14:44:23.276349
45.31683874,-0.006057739258,0.007045865059,0.0005917549133,2024-06-04 14:44:23.316839
45.35728411,-0.005213737488,0.005607128143,-0.01195406914,2024-06-04 14:44:23.357284
45.39776676,-0.0007543563843,0.005861282349,-0.009466409683,2024-06-04 14:44:23.397767
45.43826473,-0.008272171021,0.01558816433,-0.01149272919,2024-06-04 14:44:23.438265
45.47874801,0.006505966187,-0.001591324806,0.002824306488,2024-06-04 14:44:23.478748
45.51921176,-0.01584529877,0.00309753418,0.003526926041,2024-06-04 14:44:23.519212
45.55970728,-0.0007343292236,0.0004380941391,-0.007424116135,2024-06-04 14:44:23.559707
45.60023556,-0.00123500824,0.01313149929,0.003348350525,2024-06-04 14:44:23.600236
45.64071093,0.01915645599,-0.001430034637,-0.006369352341,2024-06-04 14:44:23.640711
45.6812141,-0.002661705017,-0.006871819496,0.005511283875,2024-06-04 14:44:23.681214
45.72170926,-0.0008163452148,-0.003221154213,-0.01700806618,2024-06-04 14:44:23.721709
45.76219786,-0.008727073669,0.0047082901,-0.007565736771,2024-06-04 14:44:23.762198
45.80267478,0.009243011475,0.005905866623,-0.004944324493,2024-06-04 14:44:23.802675
45.84313562,0.01514053345,0.01263320446,0.008536338806,2024-06-04 14:44:23.843136
45.88362536,-0.003982543945,0.01889467239,0.003555059433,2024-06-04 14:44:23.883625
45.92412775,-0.0639333725,0.004401683807,0.003969669342,2024-06-04 14:44:23.924128
45.9646428,0.03316116333,-0.07080495358,0.02137875557,2024-06-04 14:44:23.964643
46.0051328,0.01518344879,0.006528019905,0.03513240814,2024-06-04 14:44:24.005133
46.04562317,-0.07515525818,0.06168615818,-0.0795416832,2024-06-04 14:44:24.045623
46.08605192,0.05556201935,0.1370285749,0.03819870949,2024-06-04 14:44:24.086052
46.12656218,0.02755832672,-0.01499640942,0.03764295578,2024-06-04 14:44:24.126562
46.16706884,0.04668617249,-0.06496822834,0.02914762497,2024-06-04 14:44:24.167069
46.20755187,-0.02788352966,-0.08926951885,-0.03172373772,2024-06-04 14:44:24.207552
46.24804541,-0.03917980194,-0.05617761612,-0.05316066742,2024-06-04 14:44:24.248045
46.28852556,-0.09047985077,-0.05639815331,-0.1026034355,2024-06-04 14:44:24.288526
46.32903036,0.08138751984,0.1207566261,0.008984088898,2024-06-04 14:44:24.329030
46.36948041,0.01750183105,0.111472249,-0.006840467453,2024-06-04 14:44:24.369480
46.40999551,0.006483078003,0.04931759834,0.003602981567,2024-06-04 14:44:24.409996
46.45048536,-0.06034183502,-0.0803091526,-0.01849675179,2024-06-04 14:44:24.450485
46.49097421,-0.0498008728,-0.1370967627,-0.03990030289,2024-06-04 14:44:24.490974
46.53146358,0.147061348,0.04865396023,0.1018724442,2024-06-04 14:44:24.531464
46.57193635,0.0845117569,0.1120430231,0.1196975708,2024-06-04 14:44:24.571936
46.61245452,-0.1359996796,-0.007920742035,-0.06882333755,2024-06-04 14:44:24.612455
46.65293551,-0.297457695,-0.06673300266,-0.5520601273,2024-06-04 14:44:24.652936
46.69344348,-0.2575740814,0.02075195312,-0.8348500729,2024-06-04 14:44:24.693443
46.73396983,-0.5658140182,0.736869216,-0.3930077553,2024-06-04 14:44:24.733970
46.77442942,0.1107110977,2.152888775,0.2402875423,2024-06-04 14:44:24.774429
46.81488978,1.667856693,2.205022097,2.111433983,2024-06-04 14:44:24.814890
46.85537213,0.8122167587,0.7502200007,2.641120434,2024-06-04 14:44:24.855372
46.8958652,-0.1196060181,-0.2866122723,0.3226745129,2024-06-04 14:44:24.895865
46.93637442,-2.450306892,1.237828612,-0.1874256134,2024-06-04 14:44:24.936374
46.97685015,-0.1248483658,-0.8161461353,-0.4234101772,2024-06-04 14:44:24.976850
47.01733457,0.6060094833,-1.616280317,-0.09646201134,2024-06-04 14:44:25.017335
47.05783926,0.9977664948,-2.819956779,-0.4306606054,2024-06-04 14:44:25.057839
47.09835426,-0.05209255219,-4.154893875,-1.396915793,2024-06-04 14:44:25.098354
47.13883358,-0.172369957,-1.955247164,-1.582644105,2024-06-04 14:44:25.138834
47.17929619,-0.9518241882,-2.109250069,-1.089743853,2024-06-04 14:44:25.179296
47.21978801,-0.7017660141,-1.568807483,-0.6657543182,2024-06-04 14:44:25.219788
47.26029015,0.05057907104,-0.7938517332,-0.05102944374,2024-06-04 14:44:25.260290
47.30079629,0.3617048264,0.3694060743,1.030692816,2024-06-04 14:44:25.300796
47.34126832,0.1050043106,0.8330863714,0.7231879234,2024-06-04 14:44:25.341268
47.38172265,-0.09334278107,0.8284114599,-0.0370759964,2024-06-04 14:44:25.381723
47.42221801,0.1383552551,1.323027611,0.4640824795,2024-06-04 14:44:25.422218
47.46271895,0.4908266068,0.7772802711,0.06591510773,2024-06-04 14:44:25.462719
47.50320588,0.9020309448,0.9996307492,0.00968170166,2024-06-04 14:44:25.503206
47.54368994,1.058202744,0.9266970754,0.01163172722,2024-06-04 14:44:25.543690
47.58419869,0.7123575211,0.4628053904,-0.313441515,2024-06-04 14:44:25.584199
47.62473286,0.258354187,0.4260066748,-0.0923371315,2024-06-04 14:44:25.624733
47.66524056,-0.5083684921,0.2502363622,-1.061490774,2024-06-04 14:44:25.665241
47.70567812,-0.4585666656,0.2031899393,-0.8441772461,2024-06-04 14:44:25.705678
47.74620556,-0.3300447464,-0.01630949974,-0.1260917187,2024-06-04 14:44:25.746206
47.78665624,0.4641695023,-0.8096429706,0.6678562164,2024-06-04 14:44:25.786656
47.82714421,1.511737823,-0.1741193235,0.7014462948,2024-06-04 14:44:25.827144
47.86765671,-0.1026563644,-0.07508733869,0.8656036854,2024-06-04 14:44:25.867657
47.90814155,-0.1497087479,-0.6185980439,0.8049378395,2024-06-04 14:44:25.908142
47.94864369,1.08630085,-0.9653872252,0.5625898838,2024-06-04 14:44:25.948644
47.9890953,1.026821136,-0.572247088,-0.1921951771,2024-06-04 14:44:25.989095
48.02960015,-0.3541479111,0.8114417195,0.7968735695,2024-06-04 14:44:26.029600
48.0700827,-1.359142303,1.59576869,-0.1867249012,2024-06-04 14:44:26.070083
48.11057942,-0.2039089203,0.122326076,-0.01779699326,2024-06-04 14:44:26.110579
48.15109207,0.3282489777,1.058904886,-0.5683987141,2024-06-04 14:44:26.151092
48.19154666,-0.1973457336,1.213045835,-0.3391399384,2024-06-04 14:44:26.191547
48.23210119,0.706530571,1.764001966,0.2241592407,2024-06-04 14:44:26.232101
48.27254697,-0.4693984985,1.908932805,1.115721226,2024-06-04 14:44:26.272547
48.31303676,-2.569361687,0.2351338863,1.441241503,2024-06-04 14:44:26.313037
48.35352661,-0.3091535568,-0.1901013851,1.177079916,2024-06-04 14:44:26.353527
48.39399161,0.9107599258,-0.2712281942,-1.009643674,2024-06-04 14:44:26.393992
48.43446062,-0.8992843628,-0.3973381519,0.3015121222,2024-06-04 14:44:26.434461
48.47494619,-0.7034273148,-1.807328343,-0.3791955709,2024-06-04 14:44:26.474946
48.51543603,2.013878822,-2.10279274,-0.02742886543,2024-06-04 14:44:26.515436
48.55592817,1.555995464,-3.538910627,-1.01134038,2024-06-04 14:44:26.555928
48.59646374,-0.07837486267,-2.567804813,-1.681177616,2024-06-04 14:44:26.596464
48.63694192,-0.7833080292,-1.744605899,-0.9379110336,2024-06-04 14:44:26.636942
48.67743588,-1.59187603,-1.891327739,-0.8579773903,2024-06-04 14:44:26.677436
48.71790671,-0.648443222,-0.01976156235,-0.3596847057,2024-06-04 14:44:26.717907
48.75839265,1.076434135,1.334345818,-0.01601696014,2024-06-04 14:44:26.758393
48.79889291,0.6128416061,1.318183661,0.05904698372,2024-06-04 14:44:26.798893
48.83936478,0.4222154617,1.435994387,0.6233217716,2024-06-04 14:44:26.839365
48.87985431,-0.07291984558,1.846049786,-0.3025159836,2024-06-04 14:44:26.879854
48.92036827,-0.1800003052,1.197496653,0.2941787243,2024-06-04 14:44:26.920368
48.96090666,0.6586294174,0.5183567405,-0.5954916477,2024-06-04 14:44:26.960907
49.00139619,0.3937454224,-0.1151100397,-0.08264017105,2024-06-04 14:44:27.001396
49.04188572,-0.2610378265,-0.2811517715,0.06179404259,2024-06-04 14:44:27.041886
49.08229286,-0.2299194336,-0.2341475487,0.2460346222,2024-06-04 14:44:27.082293
49.12286291,-0.1770153046,-0.1828517914,-0.524971962,2024-06-04 14:44:27.122863
49.16332332,-0.3843297958,-0.01149690151,0.1084983349,2024-06-04 14:44:27.163323
49.20378562,-0.686504364,-0.1016476154,-0.2258093357,2024-06-04 14:44:27.203786
49.24428801,0.543170929,0.4134553671,0.09796714783,2024-06-04 14:44:27.244288
49.28481239,0.4702796936,0.3214256763,0.5768909454,2024-06-04 14:44:27.284812
49.32530166,-0.2093915939,-0.378233552,0.007305145264,2024-06-04 14:44:27.325302
49.36573963,-0.190246582,-0.6029429436,0.1559493542,2024-06-04 14:44:27.365740
49.40622879,0.1206455231,-0.4901167154,-0.08723735809,2024-06-04 14:44:27.406229
49.44671806,0.2581930161,-0.06529819965,0.07085943222,2024-06-04 14:44:27.446718
49.4872241,0.04973316193,-0.0009028911591,0.3713574409,2024-06-04 14:44:27.487224
49.52771327,-0.0209569931,-0.009798765182,-0.02930378914,2024-06-04 14:44:27.527713
49.56821983,0.1537723541,0.04680347443,-0.03501772881,2024-06-04 14:44:27.568220
49.6086891,0.035987854,0.1120591164,0.02510023117,2024-06-04 14:44:27.608689
49.6491726,-0.03713703156,-0.1920057535,0.06308603287,2024-06-04 14:44:27.649173
49.68966619,0.06905937195,-0.1894673109,0.1969234943,2024-06-04 14:44:27.689666
49.73013556,0.1142101288,-0.0619174242,0.2956762314,2024-06-04 14:44:27.730136
49.7706415,0.1817865372,0.02785789967,0.06914925575,2024-06-04 14:44:27.770642
49.81114416,0.1389560699,-0.05699753761,-0.1601614952,2024-06-04 14:44:27.811144
49.85163358,-0.3156347275,0.01031899452,0.2198872566,2024-06-04 14:44:27.851634
49.89212296,-0.178278923,0.147668004,-0.6589236259,2024-06-04 14:44:27.892123
49.93259525,0.1326208115,-0.1001745462,-0.007879257202,2024-06-04 14:44:27.932595
49.97308187,-0.2340307236,-0.2657216787,0.04205775261,2024-06-04 14:44:27.973082
50.01357405,0.1274852753,0.2049865127,-0.173255682,2024-06-04 14:44:28.013574
50.05406088,0.08473300934,0.3304249644,-0.1552190781,2024-06-04 14:44:28.054061
50.09455187,-0.2379579544,0.08324337006,0.1040449142,2024-06-04 14:44:28.094552
50.13506546,0.05343151093,-0.07229459286,0.3577661514,2024-06-04 14:44:28.135065
50.17557806,0.4051656723,-0.1162296534,0.3783016205,2024-06-04 14:44:28.175578
50.21607733,0.1878671646,0.009329080582,0.06848192215,2024-06-04 14:44:28.216077
50.25657291,-0.09056568146,-0.09020853043,-0.1586027145,2024-06-04 14:44:28.256573
50.29704645,0.03391075134,-0.1226377487,-0.01306343079,2024-06-04 14:44:28.297046
50.33748556,0.07623100281,0.1513091326,-0.08050823212,2024-06-04 14:44:28.337486
50.37797098,0.05257892609,0.1161615849,-0.08268356323,2024-06-04 14:44:28.377971
50.41850848,-0.3726596832,-0.06606769562,-0.1413440704,2024-06-04 14:44:28.418508
50.45898556,-0.3350954056,-0.1268464327,-0.2480437756,2024-06-04 14:44:28.458986
50.49947364,0.3938674927,0.3349987268,0.04235315323,2024-06-04 14:44:28.499474
50.53994457,-0.04341506958,0.04238629341,0.002147674561,2024-06-04 14:44:28.539945
50.58043082,-0.05669307709,-0.07989454269,-0.06435728073,2024-06-04 14:44:28.580431
50.62092614,0.3809156418,0.0458163023,0.5745439529,2024-06-04 14:44:28.620926
50.66146655,-0.5573787689,0.08850252628,-0.3512578011,2024-06-04 14:44:28.661467
50.70192588,-0.4446630478,-0.3277016878,-0.1438171864,2024-06-04 14:44:28.701926
50.74243551,0.1248493195,-0.06346464157,-0.1654467583,2024-06-04 14:44:28.742436
50.78289483,-0.09606647491,-0.01185870171,-0.008920669556,2024-06-04 14:44:28.782895
50.82335405,0.1533651352,0.005494952202,0.2205672264,2024-06-04 14:44:28.823354
50.86387358,0.06205177307,0.05924963951,0.01656532288,2024-06-04 14:44:28.863874
50.90436343,-0.06338882446,-0.001741409302,-0.01172685623,2024-06-04 14:44:28.904363
50.94483312,0.1004676819,-0.1270825863,0.04425477982,2024-06-04 14:44:28.944833
50.98531431,0.1178894043,-0.00835776329,0.1637001038,2024-06-04 14:44:28.985314
51.02580426,0.09927272797,-0.1398653984,0.2260408401,2024-06-04 14:44:29.025804
51.06628353,0.07870006561,-0.04359722137,-0.01197290421,2024-06-04 14:44:29.066284
51.10681452,-0.1973810196,0.1615095139,-0.1199932098,2024-06-04 14:44:29.106815
51.14733067,0.006580352783,-0.05899012089,-0.1271297932,2024-06-04 14:44:29.147331
51.18780744,0.03487873077,0.03200256824,-0.07254171371,2024-06-04 14:44:29.187807
51.22831582,0.03848075867,0.03402626514,0.0706911087,2024-06-04 14:44:29.228316
51.26881327,-0.00643157959,-0.02691543102,0.02636146545,2024-06-04 14:44:29.268813
51.30930015,-0.002762794495,-0.03690505028,0.001661777496,2024-06-04 14:44:29.309300
51.3497903,0.04355239868,-0.02924335003,0.03099441528,2024-06-04 14:44:29.349790
51.39028051,0.04699039459,0.04267930984,0.03195667267,2024-06-04 14:44:29.390281
51.43077072,0.08540630341,0.04546403885,0.00857591629,2024-06-04 14:44:29.430771
51.47126088,-0.0628080368,-0.05413448811,0.05039787292,2024-06-04 14:44:29.471261
51.51175108,-0.1486444473,-0.0781390667,-0.07289600372,2024-06-04 14:44:29.511751
51.55221879,0.1337814331,-0.003977894783,-0.0400762558,2024-06-04 14:44:29.552219
51.59268931,-0.01332950592,-0.0385529995,0.07107114792,2024-06-04 14:44:29.592689
51.63321442,0.1267766953,0.03753209114,0.06370353699,2024-06-04 14:44:29.633214
51.67367369,0.1017980576,0.01566934586,0.07877349854,2024-06-04 14:44:29.673674
51.71417536,-0.02905750275,-0.01828229427,0.06393051147,2024-06-04 14:44:29.714175
51.75467713,0.1696100235,-0.03142559528,0.147456646,2024-06-04 14:44:29.754677
51.79514786,-0.05535888672,-0.01186037064,0.02578449249,2024-06-04 14:44:29.795148
51.83559947,-0.1638641357,0.08016085625,-0.1303369999,2024-06-04 14:44:29.835599
51.87609843,-0.003090858459,0.04204654694,-0.1889586449,2024-06-04 14:44:29.876098
51.91658786,-0.1513319016,-0.06155574322,-0.09926462173,2024-06-04 14:44:29.916588
51.95709676,-0.180316925,-0.09217882156,-0.1060128212,2024-06-04 14:44:29.957097
51.99758884,-0.001756668091,0.02518677711,-0.04518461227,2024-06-04 14:44:29.997589
52.03812332,0.1477146149,0.07502830029,0.04130601883,2024-06-04 14:44:30.038123
52.07861567,0.1617879868,0.09839105606,0.1887593269,2024-06-04 14:44:30.078616
52.11904687,0.0721654892,-0.03069531918,0.06807994843,2024-06-04 14:44:30.119047
52.15953645,0.03358268738,-0.1239427328,0.02412748337,2024-06-04 14:44:30.159536
52.20002645,-0.04940223694,-0.07765722275,0.01607036591,2024-06-04 14:44:30.200026
52.24051593,-0.07384872437,-0.06219804287,-0.0204577446,2024-06-04 14:44:30.240516
52.2810664,-0.09904193878,-0.002004981041,-0.07825708389,2024-06-04 14:44:30.281066
52.32155661,-0.005433082581,0.02208590508,0.008345127106,2024-06-04 14:44:30.321557
52.36204687,0.3737955093,0.06092822552,0.2642059326,2024-06-04 14:44:30.362047
52.40247947,0.2370214462,-0.01336884499,0.2831411362,2024-06-04 14:44:30.402479
52.44298473,-0.1397676468,0.01810836792,-0.04460811615,2024-06-04 14:44:30.442985
52.48346468,-0.03512191772,0.008883953094,-0.1998963356,2024-06-04 14:44:30.483465
52.52395681,-0.1787185669,-0.03307390213,-0.1526694298,2024-06-04 14:44:30.523957
52.5644903,-0.1155815125,0.04398524761,-0.1520676613,2024-06-04 14:44:30.564490
52.6049502,0.02789974213,0.08838319778,-0.1585710049,2024-06-04 14:44:30.604950
52.6454215,-0.06545162201,0.06768941879,-0.1093125343,2024-06-04 14:44:30.645421
52.68595218,-0.09855270386,0.006582140923,-0.02973651886,2024-06-04 14:44:30.685952
52.72643624,0.02634334564,-0.08404123783,0.1396541595,2024-06-04 14:44:30.726436
52.76691046,0.107670784,-0.09740626812,0.1830463409,2024-06-04 14:44:30.766910
52.80738598,0.0823135376,-0.03990125656,0.09020423889,2024-06-04 14:44:30.807386
52.84786796,0.008719444275,-0.0157263279,0.02391195297,2024-06-04 14:44:30.847868
52.88838713,0.0434551239,0.02190446854,-0.05171537399,2024-06-04 14:44:30.888387
52.92885239,-0.001927375793,0.01606476307,-0.03279685974,2024-06-04 14:44:30.928852
52.96932739,-0.07869243622,-0.01779663563,-0.03408670425,2024-06-04 14:44:30.969327
53.00983551,-0.02887630463,-0.01416230202,-0.02758407593,2024-06-04 14:44:31.009836
53.05030952,-0.00682926178,0.006586074829,-0.01231002808,2024-06-04 14:44:31.050310
53.0908051,-0.003306388855,0.03772556782,-0.05893421173,2024-06-04 14:44:31.090805
53.1313053,-0.01617240906,0.1038581133,-0.2852785587,2024-06-04 14:44:31.131305
53.17178369,-0.06222915649,0.02743041515,-0.1186704636,2024-06-04 14:44:31.171784
53.21230921,0.04422283173,-0.004898428917,0.2111439705,2024-06-04 14:44:31.212309
53.25282166,0.1820268631,-0.05941963196,0.2335143089,2024-06-04 14:44:31.252822
53.29326848,0.01484394073,-0.09391236305,0.1967372894,2024-06-04 14:44:31.293268
53.33375249,-0.05608844757,-0.1031544209,0.1738400459,2024-06-04 14:44:31.333752
53.37424213,0.02249145508,-0.11401546,0.1189470291,2024-06-04 14:44:31.374242
53.41473176,0.03220748901,0.01061069965,-0.06790781021,2024-06-04 14:44:31.414732
53.45522135,-0.06429386139,0.04642927647,-0.190171957,2024-06-04 14:44:31.455221
53.49571098,-0.09311485291,0.08557617664,-0.1876835823,2024-06-04 14:44:31.495711
53.53621411,0.006747245789,0.1077792645,-0.1494550705,2024-06-04 14:44:31.536214
53.57670411,-0.01832962036,0.02724742889,-0.02751398087,2024-06-04 14:44:31.576704
53.61723119,-0.0085105896,-0.009772539139,0.03307676315,2024-06-04 14:44:31.617231
53.65766827,0.01044750214,-0.04084026814,0.02495765686,2024-06-04 14:44:31.657668
53.69819056,-0.001045227051,-0.05176532269,0.06272697449,2024-06-04 14:44:31.698191
53.73866536,-0.02821731567,-0.06966197491,0.01368570328,2024-06-04 14:44:31.738665
53.77913937,0.03249549866,0.003320932388,0.02441310883,2024-06-04 14:44:31.779139
53.819629,0.05220985413,0.07897102833,0.02883386612,2024-06-04 14:44:31.819629
53.86011864,0.00555229187,0.00398850441,0.01062679291,2024-06-04 14:44:31.860119
53.90060827,-0.004205703735,-0.03642630577,-0.01396131516,2024-06-04 14:44:31.900608
53.94116207,-0.0753326416,-0.02961754799,-0.06453132629,2024-06-04 14:44:31.941162
53.98165171,0.004179954529,0.0042065382,-0.02185773849,2024-06-04 14:44:31.981652
54.02214134,0.01501274109,0.02532529831,0.01561927795,2024-06-04 14:44:32.022141
54.06255817,0.03970146179,0.03556406498,-0.03168535233,2024-06-04 14:44:32.062558
54.10306004,-0.01605892181,-0.02137506008,0.03026437759,2024-06-04 14:44:32.103060
54.14357499,-0.02523994446,-0.0955491066,0.2202482224,2024-06-04 14:44:32.143575
54.18405957,0.1338624954,-0.008328557014,-0.1573865414,2024-06-04 14:44:32.184060
54.22457249,-0.01999759674,-0.04186892509,0.2404766083,2024-06-04 14:44:32.224572
54.26504702,0.2603492737,0.1333984137,0.04674005508,2024-06-04 14:44:32.265047
54.30552062,-0.006108283997,0.02034270763,-0.02466535568,2024-06-04 14:44:32.305521
54.34600942,-0.2151527405,-0.05974245071,-0.1131134033,2024-06-04 14:44:32.346009
54.38649926,-0.1632785797,-0.08780658245,-0.1899065971,2024-06-04 14:44:32.386499
54.42698994,-0.211482048,0.02062702179,-0.2467243671,2024-06-04 14:44:32.426990
54.46748895,-0.0294380188,0.1260745525,-0.1820788383,2024-06-04 14:44:32.467489
54.50799239,0.1513319016,0.08844065666,-0.04752206802,2024-06-04 14:44:32.507992
54.548479,-0.03891944885,-0.02775478363,0.05367136002,2024-06-04 14:44:32.548479
54.58896733,-0.03453731537,-0.09731388092,0.1300058365,2024-06-04 14:44:32.588967
54.62945192,0.07327747345,-0.08301210403,0.1594252586,2024-06-04 14:44:32.629452
54.66991291,0.1031618118,-0.000941157341,0.05367946625,2024-06-04 14:44:32.669913
54.71041228,0.003385543823,0.005342841148,0.01184654236,2024-06-04 14:44:32.710412
54.75090207,-0.01314544678,0.0005171298981,-0.02425384521,2024-06-04 14:44:32.750902
54.79141015,0.01473617554,0.001831054688,-0.03020429611,2024-06-04 14:44:32.791410
54.83189999,0.02261638641,0.004028081894,0.002468109131,2024-06-04 14:44:32.831900
54.87235603,0.01361560822,-0.01271748543,0.02588939667,2024-06-04 14:44:32.872356
54.91287187,-0.009502410889,-0.01316964626,0.06735754013,2024-06-04 14:44:32.912872
54.95340067,-0.008138656616,-0.01633822918,0.02457761765,2024-06-04 14:44:32.953401
54.99389025,-0.02370262146,-0.003457784653,-0.02256059647,2024-06-04 14:44:32.993890
55.03437973,-0.002398490906,0.01577544212,-0.06363677979,2024-06-04 14:44:33.034380
55.07481327,-0.01876068115,0.05473506451,-0.04752540588,2024-06-04 14:44:33.074813
55.11531983,-0.04975795746,0.01634931564,-0.06327629089,2024-06-04 14:44:33.115320
55.15583093,-0.03459262848,-0.008781790733,-0.0304942131,2024-06-04 14:44:33.155831
55.19633067,-0.001564979553,-0.04329919815,0.01882362366,2024-06-04 14:44:33.196331
55.23681556,0.07738780975,0.00385928154,0.05198717117,2024-06-04 14:44:33.236816
55.27728562,0.01516914368,-0.002989053726,0.044921875,2024-06-04 14:44:33.277286
55.3177552,-0.006227493286,-0.01189100742,0.01776742935,2024-06-04 14:44:33.317755
55.35826405,-0.0003137588501,-0.009341478348,-0.03611755371,2024-06-04 14:44:33.358264
55.39875749,0.03150749207,0.006743192673,-0.02477073669,2024-06-04 14:44:33.398757
55.43922968,-0.009595870972,0.01192820072,0.03762960434,2024-06-04 14:44:33.439230
55.47972374,-0.02711200714,-0.02338933945,-0.006946086884,2024-06-04 14:44:33.479724
55.52020395,-0.0167388916,0.06173121929,-0.08305263519,2024-06-04 14:44:33.520204
55.56071275,-0.01050281525,-0.007164716721,-0.02764081955,2024-06-04 14:44:33.560713
55.60125244,-0.01866054535,-0.01321196556,0.02329301834,2024-06-04 14:44:33.601252
55.64169739,0.08026504517,-0.01989972591,0.05908823013,2024-06-04 14:44:33.641697
55.68217858,0.02945899963,0.01016783714,0.03957462311,2024-06-04 14:44:33.682179
55.72269728,0.02363967896,-0.03582894802,-0.00338602066,2024-06-04 14:44:33.722697
55.76320478,-0.0705947876,-0.0740288496,0.02267837524,2024-06-04 14:44:33.763205
55.80368098,-0.04359531403,-0.005785226822,-0.003628253937,2024-06-04 14:44:33.803681
55.84413442,-0.02703666687,0.07208561897,-0.07609558105,2024-06-04 14:44:33.844134
55.88463989,0.05282878876,0.08914279938,-0.05830526352,2024-06-04 14:44:33.884640
55.92514051,0.02410030365,0.03075444698,-0.01689958572,2024-06-04 14:44:33.925141
55.96564312,0.05108547211,-0.001610398293,0.0353512764,2024-06-04 14:44:33.965643
56.00613806,-0.035820961,-0.06817507744,0.04054880142,2024-06-04 14:44:34.006138
56.04662692,-0.1071386337,-0.08112168312,-0.04891633987,2024-06-04 14:44:34.046627
56.08706858,0.01989364624,-0.08293747902,0.001274585724,2024-06-04 14:44:34.087069
56.12756739,-0.1341371536,-0.2209546566,0.04311466217,2024-06-04 14:44:34.127567
56.16807879,0.1160860062,0.03377652168,0.1465482712,2024-06-04 14:44:34.168079
56.20857864,0.2193222046,0.3775616884,0.04464101791,2024-06-04 14:44:34.208579
56.24905155,0.03012657166,0.08214592934,-0.08678007126,2024-06-04 14:44:34.249052
56.28956879,-0.1501588821,-0.03966236115,-0.1796588898,2024-06-04 14:44:34.289569
56.33002114,-0.1312017441,-0.07451581955,-0.2041339874,2024-06-04 14:44:34.330021
56.37051145,-0.1281366348,-0.08239221573,-0.05103302002,2024-06-04 14:44:34.370511
56.41100171,0.1040325165,-0.0130751133,0.1511807442,2024-06-04 14:44:34.411002
56.45149082,0.1993274689,0.001048564911,0.2295250893,2024-06-04 14:44:34.451491
56.49198072,-0.007785797119,-0.02483093739,0.08238840103,2024-06-04 14:44:34.491981
56.53249676,-0.02214717865,0.03513014317,-0.06587314606,2024-06-04 14:44:34.532497
56.57293103,-0.06579494476,0.04461681843,-0.1139740944,2024-06-04 14:44:34.572931
56.6134303,-0.003488540649,-0.01883375645,-0.04505872726,2024-06-04 14:44:34.613430
56.65395176,0.06085014343,0.01974570751,0.03072500229,2024-06-04 14:44:34.653952
56.69441874,-0.02884197235,-0.02004253864,0.01639890671,2024-06-04 14:44:34.694419
56.73490343,-0.01938247681,0.004848003387,0.03123807907,2024-06-04 14:44:34.734903
56.77542036,0.01530361176,-0.01729011536,-0.01022577286,2024-06-04 14:44:34.775420
56.81588343,-0.03479290009,0.004761099815,-0.05479717255,2024-06-04 14:44:34.815883
56.85635989,-0.01503276825,0.02368223667,-0.03253936768,2024-06-04 14:44:34.856360
56.8968703,-0.004789352417,-0.01322722435,0.006827354431,2024-06-04 14:44:34.896870
56.93740848,0.03631305695,-0.01106488705,0.02762269974,2024-06-04 14:44:34.937408
56.97789343,-0.02084636688,-0.02498829365,0.03544187546,2024-06-04 14:44:34.977893
57.01835806,-0.005417823792,-0.001856088638,0.01199102402,2024-06-04 14:44:35.018358
57.05884124,0.03477287292,0.01978778839,0.002789974213,2024-06-04 14:44:35.058841
57.09933317,0.001486778259,0.01799666882,-0.04661750793,2024-06-04 14:44:35.099333
57.13985921,-0.04447364807,-0.0007020235062,-0.02695894241,2024-06-04 14:44:35.139859
57.18032582,-0.007214546204,-0.001438736916,-0.02273988724,2024-06-04 14:44:35.180326
57.22080968,0.01688289642,-0.009200692177,0.02390289307,2024-06-04 14:44:35.220810
57.26130775,-0.006359100342,-0.01363217831,0.00697851181,2024-06-04 14:44:35.261308
57.3017915,0.01137924194,-0.0063123703,0.01487970352,2024-06-04 14:44:35.301792
57.34226812,0.006239891052,-0.004796624184,-0.0009694099426,2024-06-04 14:44:35.342268
57.38275822,-0.02133464813,0.002148389816,-0.01404666901,2024-06-04 14:44:35.382758
57.423249,0.00906085968,0.009407401085,0.004683017731,2024-06-04 14:44:35.423249
57.46373093,-0.01868247986,0.002555727959,-0.01474714279,2024-06-04 14:44:35.463731
57.50419843,-0.008585929871,0.001074314117,0.0004067420959,2024-06-04 14:44:35.504198
57.54467431,-0.03314208984,0.01299345493,-0.0111284256,2024-06-04 14:44:35.544674
57.5851639,-0.0122127533,-0.0407088995,-0.03597831726,2024-06-04 14:44:35.585164
57.62565343,-0.01866054535,-0.015391469,-0.07858037949,2024-06-04 14:44:35.625653
57.6661839,-0.02773857117,0.06008803844,0.01758003235,2024-06-04 14:44:35.666184
57.70667338,0.02617168427,-0.006922483444,0.008437156677,2024-06-04 14:44:35.706673
57.74717827,0.03040122986,-0.02462649345,0.03632259369,2024-06-04 14:44:35.747178
57.78766786,0.06508350372,-0.03986668587,0.06136894226,2024-06-04 14:44:35.787668
57.82820129,-0.01808547974,0.013869524,0.03922080994,2024-06-04 14:44:35.828201
57.8686251,0.0574388504,0.00624859333,-0.02584934235,2024-06-04 14:44:35.868625
57.90914265,-0.01746940613,-0.02613031864,0.06015968323,2024-06-04 14:44:35.909143
57.94968327,0.01248455048,-0.01332950592,0.001616477966,2024-06-04 14:44:35.949683
57.99012884,0.003375053406,-0.01841413975,-0.00462770462,2024-06-04 14:44:35.990129
58.03061015,0.01595115662,0.02359080315,0.001660823822,2024-06-04 14:44:36.030610
58.0711478,0.01389503479,0.02788925171,-0.0362071991,2024-06-04 14:44:36.071148
58.11159051,-0.06766605377,0.03212511539,-0.07839298248,2024-06-04 14:44:36.111591
58.15208848,-0.03430080414,0.01885175705,-0.05821847916,2024-06-04 14:44:36.152088
58.19256041,0.01589202881,0.002658247948,-0.01356172562,2024-06-04 14:44:36.192560
58.23306468,-0.001113891602,-0.01602983475,0.0200548172,2024-06-04 14:44:36.233065
58.27354588,-0.02256393433,-0.0438798666,0.02683973312,2024-06-04 14:44:36.273546
58.31401181,0.04522514343,-0.005553245544,0.05099868774,2024-06-04 14:44:36.314012
58.35449041,-0.00757598877,-0.02653717995,0.03127622604,2024-06-04 14:44:36.354490
58.39498161,0.0128736496,-0.00256729126,-0.01351976395,2024-06-04 14:44:36.394982
58.43547286,-0.0147485733,0.02383673191,-0.004343032837,2024-06-04 14:44:36.435473
58.47596463,-0.05746555328,0.001895666122,-0.02814245224,2024-06-04 14:44:36.475965
58.51645608,-0.01711463928,-0.007993936539,-0.03408241272,2024-06-04 14:44:36.516456
58.55695442,0.001042366028,0.05170214176,-0.01516389847,2024-06-04 14:44:36.556954
58.59745989,-0.000433921814,-0.004230499268,-0.01771402359,2024-06-04 14:44:36.597460
58.63794697,0.01884555817,-0.02735614777,0.001395702362,2024-06-04 14:44:36.637947
58.67844166,0.001914024353,-0.0123758316,0.02648973465,2024-06-04 14:44:36.678442
58.71893614,-0.01546287537,-0.01890981197,0.009255886078,2024-06-04 14:44:36.718936
58.75941556,0.0158405304,-0.01268780231,0.008900165558,2024-06-04 14:44:36.759416
58.79993603,-0.01375007629,-0.003065228462,0.009282112122,2024-06-04 14:44:36.799936
58.84038749,0.01332473755,-0.004989504814,-0.02571153641,2024-06-04 14:44:36.840387
