Time (s),Acceleration x (m/s^2),Acceleration y (m/s^2),Acceleration z (m/s^2),Datetime
0.0,-1.753639936,6.007779598,5.813961029,2024-06-05 18:43:29.000000
0.008600688,-1.257727385,5.432903767,8.470592499,2024-06-05 18:43:29.008601
0.048600688,-0.3017947674,6.17557621,8.20468998,2024-06-05 18:43:29.048601
0.088600688,-0.3017947674,6.17557621,8.20468998,2024-06-05 18:43:29.088601
0.128600688,-0.3017947674,6.17557621,8.20468998,2024-06-05 18:43:29.128601
0.168600688,-1.045663476,5.845067501,9.404690742,2024-06-05 18:43:29.168601
0.208600688,-1.170090318,6.195915222,7.024729252,2024-06-05 18:43:29.208601
0.248600688,-0.3077768087,4.35852623,11.35813046,2024-06-05 18:43:29.248601
0.288600688,0.5306084156,5.557629585,9.237193108,2024-06-05 18:43:29.288601
0.328600688,1.019342422,6.008975983,6.77796936,2024-06-05 18:43:29.328601
0.368600688,0.1905284971,4.957629204,7.967501163,2024-06-05 18:43:29.368601
0.408600688,0.803689301,5.18734026,7.957930088,2024-06-05 18:43:29.408601
0.448600688,-0.6370890141,4.619643211,6.042774677,2024-06-05 18:43:29.448601
0.488600688,-1.94028008,3.563211918,9.348459244,2024-06-05 18:43:29.488601
0.528600688,3.085544825,2.39910388,11.38235855,2024-06-05 18:43:29.528601
0.568600688,2.461317301,0.399900496,12.32124233,2024-06-05 18:43:29.568601
0.608600688,2.828017235,-0.07178468257,12.02064323,2024-06-05 18:43:29.608601
0.648600688,5.950351715,-0.774975419,9.277871132,2024-06-05 18:43:29.648601
0.688600688,0.3388835192,-1.23978126,10.90678501,2024-06-05 18:43:29.688601
0.728600688,-1.521237016,-0.4109672904,8.202297211,2024-06-05 18:43:29.728601
0.768600688,-0.9125627279,-3.292523861,11.34138107,2024-06-05 18:43:29.768601
0.808600688,-0.4217349887,-3.172882795,9.212965012,2024-06-05 18:43:29.808601
0.848600688,-0.4217349887,-3.172882795,9.212965012,2024-06-05 18:43:29.848601
0.888600688,0.6263213158,3.764508247,10.55085278,2024-06-05 18:43:29.888601
0.928600688,0.8132606149,2.474477768,6.061916828,2024-06-05 18:43:29.928601
0.968600688,3.238685369,3.917948008,6.525227547,2024-06-05 18:43:29.968601
1.008600688,18.38076591,8.078767776,7.392625332,2024-06-05 18:43:30.008601
1.048600688,18.38076591,8.078767776,7.392625332,2024-06-05 18:43:30.048601
1.088600688,18.38076591,8.078767776,7.392625332,2024-06-05 18:43:30.088601
1.128600688,18.38076591,8.078767776,7.392625332,2024-06-05 18:43:30.128601
1.168600688,18.38076591,8.078767776,7.392625332,2024-06-05 18:43:30.168601
1.208600688,18.38076591,8.078767776,7.392625332,2024-06-05 18:43:30.208601
1.248600688,18.38076591,8.078767776,7.392625332,2024-06-05 18:43:30.248601
1.288600688,-0.5533402562,0.7486543655,6.563811779,2024-06-05 18:43:30.288601
1.328600688,0.8706883192,3.281756163,8.069195747,2024-06-05 18:43:30.328601
1.368600688,1.57866478,3.182454109,10.15932655,2024-06-05 18:43:30.368601
1.408600688,-2.484049082,1.267298698,7.794919014,2024-06-05 18:43:30.408601
1.448600688,-5.285745144,1.523629785,9.934102058,2024-06-05 18:43:30.448601
1.488600688,-6.443871498,2.008774519,9.313762665,2024-06-05 18:43:30.488601
1.528600688,-6.632007122,3.212364435,9.743574142,2024-06-05 18:43:30.528601
1.568600688,-3.824328899,1.446760416,8.520841599,2024-06-05 18:43:30.568601
1.608600688,-2.292623281,2.23130703,8.610571861,2024-06-05 18:43:30.608601
1.648600688,-2.796611547,1.315155149,9.397511482,2024-06-05 18:43:30.648601
1.688600688,-3.728615999,2.627917528,9.925727844,2024-06-05 18:43:30.688601
1.728600688,-5.667699337,2.973979473,11.41346455,2024-06-05 18:43:30.728601
1.768600688,-6.177968979,4.050749779,10.03340435,2024-06-05 18:43:30.768601
1.808600688,0.4217349887,4.218546391,8.29920578,2024-06-05 18:43:30.808601
1.848600688,-2.201396942,0.7546364665,9.88504982,2024-06-05 18:43:30.848601
1.888600688,4.620839596,4.056731701,9.668199539,2024-06-05 18:43:30.888601
1.928600688,0.3340978622,3.854238987,9.48484993,2024-06-05 18:43:30.928601
1.968600688,-4.549055099,2.898605585,7.774580002,2024-06-05 18:43:30.968601
2.008600688,-4.819743156,1.497308731,10.11027431,2024-06-05 18:43:31.008601
2.048600688,-2.706880569,1.600200176,1.177268744,2024-06-05 18:43:31.048601
2.088600688,-3.154936552,2.550150633,10.17488003,2024-06-05 18:43:31.088601
2.128600688,-2.510370016,2.497209549,3.959822416,2024-06-05 18:43:31.128601
2.168600688,-3.548855066,-2.607578516,8.850153923,2024-06-05 18:43:31.168601
2.208600688,-0.5485545993,2.776272535,19.00708771,2024-06-05 18:43:31.208601
2.248600688,0.05982056633,1.751247048,10.47547817,2024-06-05 18:43:31.248601
2.288600688,-3.853042603,-0.9798609018,9.014361382,2024-06-05 18:43:31.288601
2.328600688,-1.45633173,-1.190429211,8.044071198,2024-06-05 18:43:31.328601
2.368600688,-1.66600275,0.5748756528,10.28614616,2024-06-05 18:43:31.368601
2.408600688,-5.153841019,-2.225325108,8.211868286,2024-06-05 18:43:31.408601
2.448600688,-5.139483929,-0.3053839803,7.803293705,2024-06-05 18:43:31.448601
2.488600688,-3.833899975,-1.564307809,8.355437279,2024-06-05 18:43:31.488601
2.528600688,-2.796611547,-0.509073019,10.3654089,2024-06-05 18:43:31.528601
2.568600688,0.007178467698,-0.6155536175,9.627521515,2024-06-05 18:43:31.568601
2.608600688,-2.458924294,-0.7725825906,6.411568165,2024-06-05 18:43:31.608601
2.648600688,0.004785645287,-0.6239284873,10.41087246,2024-06-05 18:43:31.648601
2.688600688,-6.39601469,-1.737787485,13.2266264,2024-06-05 18:43:31.688601
2.728600688,-6.39601469,-1.737787485,13.2266264,2024-06-05 18:43:31.728601
2.768600688,-6.39601469,-1.737787485,13.2266264,2024-06-05 18:43:31.768601
2.808600688,-6.39601469,-1.737787485,13.2266264,2024-06-05 18:43:31.808601
2.848600688,-6.39601469,-1.737787485,13.2266264,2024-06-05 18:43:31.848601
2.888600688,-6.39601469,-1.737787485,13.2266264,2024-06-05 18:43:31.888601
2.928600688,-6.39601469,-1.737787485,13.2266264,2024-06-05 18:43:31.928601
2.968600688,-2.382354021,-3.316452265,2.137987137,2024-06-05 18:43:31.968601
3.008600688,-3.154936552,-6.431907177,8.883653641,2024-06-05 18:43:32.008601
3.048600688,-3.067299604,-5.251049519,5.981458187,2024-06-05 18:43:32.048601
3.088600688,-2.908176899,-7.338488102,9.69452095,2024-06-05 18:43:32.088601
3.128600688,-6.345765591,-8.009375572,2.46371007,2024-06-05 18:43:32.128601
3.168600688,-8.487341881,-7.957930088,1.092323542,2024-06-05 18:43:32.168601
3.208600688,-6.454638958,-6.666703224,5.392225742,2024-06-05 18:43:32.208601
3.248600688,-8.398508072,-5.91206646,7.133901596,2024-06-05 18:43:32.248601
3.288600688,-8.682356834,-7.165008068,10.14975548,2024-06-05 18:43:32.288601
3.328600688,-3.990929127,-4.531108856,-0.02033899166,2024-06-05 18:43:32.328601
3.368600688,-9.838389397,-7.291827679,5.325226784,2024-06-05 18:43:32.368601
3.408600688,-12.85065365,-8.767601013,4.149154663,2024-06-05 18:43:32.408601
3.448600688,-12.46630669,-7.248756886,2.306980133,2024-06-05 18:43:32.448601
3.488600688,-5.024628639,-3.93828702,5.512166023,2024-06-05 18:43:32.488601
3.528600688,-5.141876698,-3.086741209,3.980161428,2024-06-05 18:43:32.528601
3.568600688,-7.228417873,-2.043470621,7.273881912,2024-06-05 18:43:32.568601
3.608600688,-11.82652569,-3.647259951,13.31187057,2024-06-05 18:43:32.608601
3.648600688,-4.618446827,-4.41984272,0.6059823632,2024-06-05 18:43:32.648601
3.688600688,-5.493023396,-7.176972389,-0.9547362328,2024-06-05 18:43:32.688601
3.728600688,-4.98275423,-5.255835056,6.819843769,2024-06-05 18:43:32.728601
3.768600688,-12.51296711,-4.714458942,5.446064472,2024-06-05 18:43:32.768601
3.808600688,-11.61565876,-4.981557846,-0.9798609018,2024-06-05 18:43:32.808601
3.848600688,-6.047560215,-0.3364906907,2.492423773,2024-06-05 18:43:32.848601
3.888600688,2.433799744,0.4875376225,5.279763222,2024-06-05 18:43:32.888601
3.928600688,3.176471949,1.615753531,5.010271549,2024-06-05 18:43:32.928601
3.968600688,1.36061883,-2.885445118,6.317051888,2024-06-05 18:43:32.968601
4.008600688,-4.204189301,-7.857132435,2.973979473,2024-06-05 18:43:33.008601
4.048600688,-17.57109451,-9.572486877,4.479662895,2024-06-05 18:43:33.048601
4.088600688,-23.93211555,-13.24965763,6.942176819,2024-06-05 18:43:33.088601
4.128600688,-6.026024818,-7.295417309,5.158626556,2024-06-05 18:43:33.128601
4.168600688,-7.736294746,-5.661717415,2.739183664,2024-06-05 18:43:33.168601
4.208600688,-4.586143494,-6.260521412,1.711466432,2024-06-05 18:43:33.208601
4.248600688,-9.504291534,-6.36251545,1.715055585,2024-06-05 18:43:33.248601
4.288600688,-4.218546391,-7.947162151,5.261816978,2024-06-05 18:43:33.288601
4.328600688,-6.07148838,-8.361419678,2.300997972,2024-06-05 18:43:33.328601
4.368600688,-5.579164982,-5.577968597,3.812364578,2024-06-05 18:43:33.368601
4.408600688,-5.579164982,-5.577968597,3.812364578,2024-06-05 18:43:33.408601
4.448600688,-5.579164982,-5.577968597,3.812364578,2024-06-05 18:43:33.448601
4.488600688,-5.579164982,-5.577968597,3.812364578,2024-06-05 18:43:33.488601
4.528600688,-5.579164982,-5.577968597,3.812364578,2024-06-05 18:43:33.528601
4.568600688,-5.579164982,-5.577968597,3.812364578,2024-06-05 18:43:33.568601
4.608600688,-4.777868748,-4.567001343,5.649753571,2024-06-05 18:43:33.608601
4.648600688,-7.130312443,-5.983851433,3.055335522,2024-06-05 18:43:33.648601
4.688600688,-7.759026527,-5.326423168,6.988836765,2024-06-05 18:43:33.688601
4.728600688,-4.947759151,-2.478066921,5.769693375,2024-06-05 18:43:33.728601
4.768600688,-7.205686092,0.1666002721,4.448556423,2024-06-05 18:43:33.768601
4.808600688,-6.195915222,-0.07058826834,5.555236816,2024-06-05 18:43:33.808601
4.848600688,-11.77268696,-10.05643559,4.123730659,2024-06-05 18:43:33.848601
4.888600688,-7.079763889,-3.556033611,4.171886444,2024-06-05 18:43:33.888601
4.928600688,-7.154240608,-3.992125511,3.017050266,2024-06-05 18:43:33.928601
4.968600688,-6.791129589,-3.97776866,2.571686029,2024-06-05 18:43:33.968601
5.008600688,-4.516751766,-2.14157629,3.285345554,2024-06-05 18:43:34.008601
5.048600688,-3.860221148,0.5641079545,2.793022156,2024-06-05 18:43:34.048601
5.088600688,-6.637989044,-1.972583175,3.851846218,2024-06-05 18:43:34.088601
5.128600688,-3.636492252,-1.364207983,3.321237803,2024-06-05 18:43:34.128601
5.168600688,-6.216254234,-2.817249537,2.800200701,2024-06-05 18:43:34.168601
5.208600688,-4.260420799,-3.158525944,2.778665304,2024-06-05 18:43:34.208601
5.248600688,-7.749455452,-10.31396294,2.615953445,2024-06-05 18:43:34.248601
5.288600688,-7.072585583,-9.453742981,2.227717876,2024-06-05 18:43:34.288601
5.328600688,-6.39601469,-10.14975548,1.622931957,2024-06-05 18:43:34.328601
5.368600688,-5.424529076,-11.75234795,1.692323804,2024-06-05 18:43:34.368601
5.408600688,-6.122933865,-11.50917816,2.202593327,2024-06-05 18:43:34.408601
5.448600688,-9.317352295,-13.64955807,-0.08973085135,2024-06-05 18:43:34.448601
5.488600688,-7.877471447,-3.824328899,4.861617565,2024-06-05 18:43:34.488601
5.528600688,-9.720842361,-5.868995667,2.822035313,2024-06-05 18:43:34.528601
5.568600688,-8.075178146,-7.441678524,1.652842283,2024-06-05 18:43:34.568601
5.608600688,-6.197111607,-6.829713821,1.668395638,2024-06-05 18:43:34.608601
5.648600688,-6.21505785,-7.296613693,1.367797256,2024-06-05 18:43:34.648601
5.688600688,-6.370890141,-6.992425919,1.646860242,2024-06-05 18:43:34.688601
5.728600688,-7.346862793,-8.64167881,3.157329559,2024-06-05 18:43:34.728601
5.768600688,-6.694220543,-8.630910873,3.601497173,2024-06-05 18:43:34.768601
5.808600688,-4.087838173,-8.534002304,2.090130568,2024-06-05 18:43:34.808601
5.848600688,-8.498109818,-1.557129383,3.436392307,2024-06-05 18:43:34.848601
5.888600688,-9.828818321,-0.5976074338,-0.09810572863,2024-06-05 18:43:34.888601
5.928600688,-11.01685429,-10.04925728,2.413460732,2024-06-05 18:43:34.928601
5.968600688,-12.81715488,-12.29970646,0.855134964,2024-06-05 18:43:34.968601
6.008600688,-7.184150696,-5.649753571,1.104287624,2024-06-05 18:43:35.008601
6.048600688,-7.446464062,-4.724030018,2.64227438,2024-06-05 18:43:35.048601
6.088600688,-7.446464062,-4.724030018,2.64227438,2024-06-05 18:43:35.088601
6.128600688,-7.446464062,-4.724030018,2.64227438,2024-06-05 18:43:35.128601
6.168600688,-7.446464062,-4.724030018,2.64227438,2024-06-05 18:43:35.168601
6.208600688,-7.446464062,-4.724030018,2.64227438,2024-06-05 18:43:35.208601
6.248600688,-7.446464062,-4.724030018,2.64227438,2024-06-05 18:43:35.248601
6.288600688,-10.50419235,-4.724030018,0.8419744968,2024-06-05 18:43:35.288601
6.328600688,-7.321738243,-1.437189102,3.169293642,2024-06-05 18:43:35.328601
6.368600688,-7.321738243,-1.437189102,3.169293642,2024-06-05 18:43:35.368601
6.408600688,-2.728415966,-1.431207061,1.511665702,2024-06-05 18:43:35.408601
6.448600688,-2.728415966,-1.431207061,1.511665702,2024-06-05 18:43:35.448601
6.488600688,-10.34865856,-2.002493382,2.002493382,2024-06-05 18:43:35.488601
6.528600688,-12.16899872,-2.920140982,1.717448473,2024-06-05 18:43:35.528601
6.568600688,-8.642875671,-2.95603323,0.8814560175,2024-06-05 18:43:35.568601
6.608600688,-9.610772133,-3.401696444,2.848356247,2024-06-05 18:43:35.608601
6.648600688,-9.728020668,-6.22582531,2.556132793,2024-06-05 18:43:35.648601
6.688600688,-8.973683357,-7.998608112,0.5006981492,2024-06-05 18:43:35.688601
6.728600688,-6.762415886,-6.103791237,1.284048438,2024-06-05 18:43:35.728601
6.768600688,-7.550551891,-6.642774582,1.842174292,2024-06-05 18:43:35.768601
6.808600688,-8.882456779,-7.703991413,-0.4193421602,2024-06-05 18:43:35.808601
6.848600688,-7.680063248,-9.028717995,0.4959124923,2024-06-05 18:43:35.848601
6.888600688,-7.53858757,-6.084649086,1.547558069,2024-06-05 18:43:35.888601
6.928600688,-9.323334694,-7.2535429,1.068395257,2024-06-05 18:43:35.928601
6.968600688,-8.542376518,-9.450154305,0.1893320978,2024-06-05 18:43:35.968601
7.008600688,-6.142076492,-6.863213539,1.010967612,2024-06-05 18:43:36.008601
7.048600688,-5.854638577,-6.815057755,0.9583254457,2024-06-05 18:43:36.048601
7.088600688,-7.392625332,-6.779165745,1.97138679,2024-06-05 18:43:36.088601
7.128600688,-8.614161491,-6.273681641,0.6876373887,2024-06-05 18:43:36.128601
7.168600688,-7.047461033,-5.349154949,1.118644595,2024-06-05 18:43:36.168601
7.208600688,-9.359226227,-5.51934433,0.1462612897,2024-06-05 18:43:36.208601
7.248600688,-10.80120182,-5.806782246,0.9559326172,2024-06-05 18:43:36.248601
7.288600688,-8.676374435,-4.970789909,1.075573802,2024-06-05 18:43:36.288601
7.328600688,-10.64327526,-5.993422508,0.9750752449,2024-06-05 18:43:36.328601
7.368600688,-7.747062206,-5.981458187,1.051645517,2024-06-05 18:43:36.368601
7.408600688,-7.794919014,-5.164608479,1.21704936,2024-06-05 18:43:36.408601
7.448600688,-10.20957565,-4.237689018,0.8623134494,2024-06-05 18:43:36.448601
7.488600688,-8.48973465,-2.009970903,2.182254314,2024-06-05 18:43:36.488601
7.528600688,-7.021139622,-3.499802113,2.086541414,2024-06-05 18:43:36.528601
7.568600688,-7.021139622,-3.499802113,2.086541414,2024-06-05 18:43:36.568601
7.608600688,-6.873981476,-1.65762794,1.270887971,2024-06-05 18:43:36.608601
7.648600688,-6.873981476,-1.65762794,1.270887971,2024-06-05 18:43:36.648601
7.688600688,-6.873981476,-1.65762794,1.270887971,2024-06-05 18:43:36.688601
7.728600688,-6.873981476,-1.65762794,1.270887971,2024-06-05 18:43:36.728601
7.768600688,-6.873981476,-1.65762794,1.270887971,2024-06-05 18:43:36.768601
7.808600688,-6.873981476,-1.65762794,1.270887971,2024-06-05 18:43:36.808601
7.848600688,-6.873981476,-1.65762794,1.270887971,2024-06-05 18:43:36.848601
7.888600688,-6.873981476,-1.65762794,1.270887971,2024-06-05 18:43:36.888601
7.928600688,-6.873981476,-1.65762794,1.270887971,2024-06-05 18:43:36.928601
7.968600688,-9.458528519,-5.925227165,0.9726824164,2024-06-05 18:43:36.968601
8.008600688,-8.704191208,-6.152844429,0.4600201547,2024-06-05 18:43:37.008601
8.048600688,-8.293224335,-7.247560501,0.04905286431,2024-06-05 18:43:37.048601
8.088600688,-8.660821915,-8.25254631,0.2874378264,2024-06-05 18:43:37.088601
8.128600688,-9.08853817,-7.984251022,1.511665702,2024-06-05 18:43:37.128601
8.168600688,-8.496912956,-7.562515736,1.285244823,2024-06-05 18:43:37.168601
8.208600688,-8.14696312,-7.563712597,1.317547917,2024-06-05 18:43:37.208601
8.248600688,-8.14696312,-7.563712597,1.317547917,2024-06-05 18:43:37.248601
8.288600688,-8.14696312,-7.563712597,1.317547917,2024-06-05 18:43:37.288601
8.328600688,-8.14696312,-7.563712597,1.317547917,2024-06-05 18:43:37.328601
8.368600688,-8.282456398,-5.767300606,1.31276238,2024-06-05 18:43:37.368601
8.408600688,-8.282456398,-5.767300606,1.31276238,2024-06-05 18:43:37.408601
8.448600688,-8.282456398,-5.767300606,1.31276238,2024-06-05 18:43:37.448601
8.488600688,-8.282456398,-5.767300606,1.31276238,2024-06-05 18:43:37.488601
8.528600688,-8.282456398,-5.767300606,1.31276238,2024-06-05 18:43:37.528601
8.568600688,-8.282456398,-5.767300606,1.31276238,2024-06-05 18:43:37.568601
8.608600688,-8.5148592,-6.867999077,0.8012964725,2024-06-05 18:43:37.608601
8.648600688,-8.5148592,-6.867999077,0.8012964725,2024-06-05 18:43:37.648601
8.688600688,-8.5148592,-6.867999077,0.8012964725,2024-06-05 18:43:37.688601
8.728600688,-8.5148592,-6.867999077,0.8012964725,2024-06-05 18:43:37.728601
8.768600688,-8.5148592,-6.867999077,0.8012964725,2024-06-05 18:43:37.768601
8.808600688,-8.5148592,-6.867999077,0.8012964725,2024-06-05 18:43:37.808601
8.848600688,-8.5148592,-6.867999077,0.8012964725,2024-06-05 18:43:37.848601
8.888600688,-8.5148592,-6.867999077,0.8012964725,2024-06-05 18:43:37.888601
8.928600688,-8.5148592,-6.867999077,0.8012964725,2024-06-05 18:43:37.928601
8.968600688,-8.5148592,-6.867999077,0.8012964725,2024-06-05 18:43:37.968601
9.008600688,-8.5148592,-6.867999077,0.8012964725,2024-06-05 18:43:38.008601
9.048600688,-8.5148592,-6.867999077,0.8012964725,2024-06-05 18:43:38.048601
9.088600688,-8.5148592,-6.867999077,0.8012964725,2024-06-05 18:43:38.088601
9.128600688,-8.5148592,-6.867999077,0.8012964725,2024-06-05 18:43:38.128601
9.168600688,-8.5148592,-6.867999077,0.8012964725,2024-06-05 18:43:38.168601
9.208600688,-8.5148592,-6.867999077,0.8012964725,2024-06-05 18:43:38.208601
9.248600688,-8.5148592,-6.867999077,0.8012964725,2024-06-05 18:43:38.248601
9.288600688,-8.5148592,-6.867999077,0.8012964725,2024-06-05 18:43:38.288601
9.328600688,-8.5148592,-6.867999077,0.8012964725,2024-06-05 18:43:38.328601
9.368600688,-8.5148592,-6.867999077,0.8012964725,2024-06-05 18:43:38.368601
9.408600688,-8.5148592,-6.867999077,0.8012964725,2024-06-05 18:43:38.408601
9.448600688,-8.5148592,-6.867999077,0.8012964725,2024-06-05 18:43:38.448601
9.488600688,-8.5148592,-6.867999077,0.8012964725,2024-06-05 18:43:38.488601
9.528600688,-8.5148592,-6.867999077,0.8012964725,2024-06-05 18:43:38.528601
9.568600688,-8.5148592,-6.867999077,0.8012964725,2024-06-05 18:43:38.568601
9.608600688,-9.125627518,-7.220043182,2.445763826,2024-06-05 18:43:38.608601
9.648600688,-8.982057571,-7.023532867,0.9245268703,2024-06-05 18:43:38.648601
9.688600688,-9.192625999,-6.588936329,1.983350873,2024-06-05 18:43:38.688601
9.728600688,-11.72004509,-6.591329098,-0.01674975827,2024-06-05 18:43:38.728601
9.768600688,-9.477671623,-5.182554722,0.5641079545,2024-06-05 18:43:38.768601
9.808600688,-8.69551754,-4.366901398,1.292423368,2024-06-05 18:43:38.808601
9.848600688,-9.602396965,-5.617450237,2.93090868,2024-06-05 18:43:38.848601
9.888600688,-9.001200676,-6.46421051,-0.7917252183,2024-06-05 18:43:38.888601
9.928600688,-9.001200676,-6.46421051,-0.7917252183,2024-06-05 18:43:38.928601
9.968600688,-9.001200676,-6.46421051,-0.7917252183,2024-06-05 18:43:38.968601
10.00860069,-9.001200676,-6.46421051,-0.7917252183,2024-06-05 18:43:39.008601
10.04860069,-9.001200676,-6.46421051,-0.7917252183,2024-06-05 18:43:39.048601
10.08860069,-9.001200676,-6.46421051,-0.7917252183,2024-06-05 18:43:39.088601
10.12860069,-9.001200676,-6.46421051,-0.7917252183,2024-06-05 18:43:39.128601
10.16860069,-9.001200676,-6.46421051,-0.7917252183,2024-06-05 18:43:39.168601
10.20860069,-9.001200676,-6.46421051,-0.7917252183,2024-06-05 18:43:39.208601
10.24860069,-9.001200676,-6.46421051,-0.7917252183,2024-06-05 18:43:39.248601
10.28860069,-9.001200676,-6.46421051,-0.7917252183,2024-06-05 18:43:39.288601
10.32860069,-9.001200676,-6.46421051,-0.7917252183,2024-06-05 18:43:39.328601
10.36860069,-9.001200676,-6.46421051,-0.7917252183,2024-06-05 18:43:39.368601
10.40860069,-9.001200676,-6.46421051,-0.7917252183,2024-06-05 18:43:39.408601
10.44860069,-9.001200676,-6.46421051,-0.7917252183,2024-06-05 18:43:39.448601
10.48860069,-9.001200676,-6.46421051,-0.7917252183,2024-06-05 18:43:39.488601
10.52860069,-9.001200676,-6.46421051,-0.7917252183,2024-06-05 18:43:39.528601
10.56860069,-9.001200676,-6.46421051,-0.7917252183,2024-06-05 18:43:39.568601
10.60860069,-6.948158741,-9.325727463,1.394118309,2024-06-05 18:43:39.608601
10.64860069,-6.948158741,-9.325727463,1.394118309,2024-06-05 18:43:39.648601
10.68860069,-6.948158741,-9.325727463,1.394118309,2024-06-05 18:43:39.688601
10.72860069,-6.948158741,-9.325727463,1.394118309,2024-06-05 18:43:39.728601
10.76860069,-6.948158741,-9.325727463,1.394118309,2024-06-05 18:43:39.768601
10.80860069,-6.948158741,-9.325727463,1.394118309,2024-06-05 18:43:39.808601
10.84860069,-6.948158741,-9.325727463,1.394118309,2024-06-05 18:43:39.848601
10.88860069,-6.948158741,-9.325727463,1.394118309,2024-06-05 18:43:39.888601
10.92860069,-6.948158741,-9.325727463,1.394118309,2024-06-05 18:43:39.928601
10.96860069,-6.948158741,-9.325727463,1.394118309,2024-06-05 18:43:39.968601
11.00860069,-6.948158741,-9.325727463,1.394118309,2024-06-05 18:43:40.008601
11.04860069,-6.948158741,-9.325727463,1.394118309,2024-06-05 18:43:40.048601
11.08860069,-6.948158741,-9.325727463,1.394118309,2024-06-05 18:43:40.088601
11.12860069,-6.948158741,-9.325727463,1.394118309,2024-06-05 18:43:40.128601
11.16860069,-6.948158741,-9.325727463,1.394118309,2024-06-05 18:43:40.168601
11.20860069,-6.948158741,-9.325727463,1.394118309,2024-06-05 18:43:40.208601
11.24860069,-6.948158741,-9.325727463,1.394118309,2024-06-05 18:43:40.248601
11.28860069,-6.979265213,-1.850549221,0.856331408,2024-06-05 18:43:40.288601
11.32860069,-5.618646622,-1.027717352,1.395314693,2024-06-05 18:43:40.328601
11.36860069,-5.562415123,-1.159322619,1.855334878,2024-06-05 18:43:40.368601
11.40860069,-4.977968216,-3.018246651,1.579861164,2024-06-05 18:43:40.408601
11.44860069,-8.280063629,-5.082056046,1.880459547,2024-06-05 18:43:40.448601
11.48860069,-10.45513916,-6.169594288,1.933101535,2024-06-05 18:43:40.488601
11.52860069,-9.318549156,-6.152844429,0.94277215,2024-06-05 18:43:40.528601
11.56860069,-7.759026527,-5.480760098,0.908973515,2024-06-05 18:43:40.568601
11.60860069,-10.15813065,-5.744269848,0.2886342406,2024-06-05 18:43:40.608601
11.64860069,-10.15813065,-5.744269848,0.2886342406,2024-06-05 18:43:40.648601
11.68860069,-10.15813065,-5.744269848,0.2886342406,2024-06-05 18:43:40.688601
11.72860069,-10.15813065,-5.744269848,0.2886342406,2024-06-05 18:43:40.728601
11.76860069,-10.15813065,-5.744269848,0.2886342406,2024-06-05 18:43:40.768601
11.80860069,-10.15813065,-5.744269848,0.2886342406,2024-06-05 18:43:40.808601
11.84860069,-10.15813065,-5.744269848,0.2886342406,2024-06-05 18:43:40.848601
11.88860069,-10.15813065,-5.744269848,0.2886342406,2024-06-05 18:43:40.888601
11.92860069,-10.15813065,-5.744269848,0.2886342406,2024-06-05 18:43:40.928601
11.96860069,-10.15813065,-5.744269848,0.2886342406,2024-06-05 18:43:40.968601
12.00860069,-10.15813065,-5.744269848,0.2886342406,2024-06-05 18:43:41.008601
12.04860069,-10.15813065,-5.744269848,0.2886342406,2024-06-05 18:43:41.048601
12.08860069,-10.15813065,-5.744269848,0.2886342406,2024-06-05 18:43:41.088601
12.12860069,-10.15813065,-5.744269848,0.2886342406,2024-06-05 18:43:41.128601
12.16860069,-10.15813065,-5.744269848,0.2886342406,2024-06-05 18:43:41.168601
12.20860069,-10.15813065,-5.744269848,0.2886342406,2024-06-05 18:43:41.208601
12.24860069,-10.15813065,-5.744269848,0.2886342406,2024-06-05 18:43:41.248601
12.28860069,-10.15813065,-5.744269848,0.2886342406,2024-06-05 18:43:41.288601
12.32860069,-10.15813065,-5.744269848,0.2886342406,2024-06-05 18:43:41.328601
12.36860069,-10.15813065,-5.744269848,0.2886342406,2024-06-05 18:43:41.368601
12.40860069,-10.15813065,-5.744269848,0.2886342406,2024-06-05 18:43:41.408601
12.44860069,-10.15813065,-5.744269848,0.2886342406,2024-06-05 18:43:41.448601
12.48860069,-10.15813065,-5.744269848,0.2886342406,2024-06-05 18:43:41.488601
12.52860069,-10.15813065,-5.744269848,0.2886342406,2024-06-05 18:43:41.528601
12.56860069,-10.15813065,-5.744269848,0.2886342406,2024-06-05 18:43:41.568601
12.60860069,-7.55294466,-6.207879066,0.7701897621,2024-06-05 18:43:41.608601
12.64860069,-7.55294466,-6.207879066,0.7701897621,2024-06-05 18:43:41.648601
12.68860069,-7.55294466,-6.207879066,0.7701897621,2024-06-05 18:43:41.688601
12.72860069,-7.55294466,-6.207879066,0.7701897621,2024-06-05 18:43:41.728601
12.76860069,-7.55294466,-6.207879066,0.7701897621,2024-06-05 18:43:41.768601
12.80860069,-7.55294466,-6.207879066,0.7701897621,2024-06-05 18:43:41.808601
12.84860069,-7.55294466,-6.207879066,0.7701897621,2024-06-05 18:43:41.848601
12.88860069,-7.55294466,-6.207879066,0.7701897621,2024-06-05 18:43:41.888601
12.92860069,-7.55294466,-6.207879066,0.7701897621,2024-06-05 18:43:41.928601
12.96860069,-7.392625332,-8.522037506,0.804885745,2024-06-05 18:43:41.968601
13.00860069,-7.114758968,-8.315956116,0.752243638,2024-06-05 18:43:42.008601
13.04860069,-7.482356548,-8.950652122,1.256531,2024-06-05 18:43:42.048601
13.08860069,-7.864310741,-5.45085001,0.4336991012,2024-06-05 18:43:42.088601
13.12860069,-6.138487339,-5.466403484,1.057627559,2024-06-05 18:43:42.128601
13.16860069,-7.561319351,-7.563712597,0.3879363835,2024-06-05 18:43:42.168601
13.20860069,-9.364012718,-6.851249218,-0.2515454888,2024-06-05 18:43:42.208601
13.24860069,-12.61466217,-7.544569969,0.5760720372,2024-06-05 18:43:42.248601
13.28860069,-12.61466217,-7.544569969,0.5760720372,2024-06-05 18:43:42.288601
13.32860069,-12.61466217,-7.544569969,0.5760720372,2024-06-05 18:43:42.328601
13.36860069,-8.492127419,-5.953940868,-0.9173483849,2024-06-05 18:43:42.368601
13.40860069,-8.492127419,-5.953940868,-0.9173483849,2024-06-05 18:43:42.408601
13.44860069,-8.492127419,-5.953940868,-0.9173483849,2024-06-05 18:43:42.448601
13.48860069,-8.492127419,-5.953940868,-0.9173483849,2024-06-05 18:43:42.488601
13.52860069,-8.492127419,-5.953940868,-0.9173483849,2024-06-05 18:43:42.528601
13.56860069,-8.492127419,-5.953940868,-0.9173483849,2024-06-05 18:43:42.568601
13.60860069,-4.781457901,-1.897209287,1.527219057,2024-06-05 18:43:42.608601
13.64860069,-4.781457901,-1.897209287,1.527219057,2024-06-05 18:43:42.648601
13.68860069,-4.781457901,-1.897209287,1.527219057,2024-06-05 18:43:42.688601
13.72860069,-4.781457901,-1.897209287,1.527219057,2024-06-05 18:43:42.728601
13.76860069,-4.781457901,-1.897209287,1.527219057,2024-06-05 18:43:42.768601
13.80860069,-4.781457901,-1.897209287,1.527219057,2024-06-05 18:43:42.808601
13.84860069,-9.294620514,-8.367402077,-0.02871387079,2024-06-05 18:43:42.848601
13.88860069,-9.294620514,-8.367402077,-0.02871387079,2024-06-05 18:43:42.888601
13.92860069,-9.294620514,-8.367402077,-0.02871387079,2024-06-05 18:43:42.928601
13.96860069,-9.294620514,-8.367402077,-0.02871387079,2024-06-05 18:43:42.968601
14.00860069,-9.294620514,-8.367402077,-0.02871387079,2024-06-05 18:43:43.008601
14.04860069,-9.294620514,-8.367402077,-0.02871387079,2024-06-05 18:43:43.048601
14.08860069,-9.294620514,-8.367402077,-0.02871387079,2024-06-05 18:43:43.088601
14.12860069,-9.294620514,-8.367402077,-0.02871387079,2024-06-05 18:43:43.128601
14.16860069,-9.294620514,-8.367402077,-0.02871387079,2024-06-05 18:43:43.168601
14.20860069,-9.294620514,-8.367402077,-0.02871387079,2024-06-05 18:43:43.208601
14.24860069,-9.294620514,-8.367402077,-0.02871387079,2024-06-05 18:43:43.248601
14.28860069,-9.294620514,-8.367402077,-0.02871387079,2024-06-05 18:43:43.288601
14.32860069,-9.294620514,-8.367402077,-0.02871387079,2024-06-05 18:43:43.328601
14.36860069,-9.294620514,-8.367402077,-0.02871387079,2024-06-05 18:43:43.368601
14.40860069,-9.294620514,-8.367402077,-0.02871387079,2024-06-05 18:43:43.408601
14.44860069,-9.294620514,-8.367402077,-0.02871387079,2024-06-05 18:43:43.448601
14.48860069,-9.294620514,-8.367402077,-0.02871387079,2024-06-05 18:43:43.488601
14.52860069,-9.294620514,-8.367402077,-0.02871387079,2024-06-05 18:43:43.528601
14.56860069,-9.294620514,-8.367402077,-0.02871387079,2024-06-05 18:43:43.568601
14.60860069,-5.373083115,-0.8012964725,1.493719578,2024-06-05 18:43:43.608601
14.64860069,3.093919754,-3.503391504,0.3005983531,2024-06-05 18:43:43.648601
14.68860069,-10.50538826,-0.2024926096,2.721237659,2024-06-05 18:43:43.688601
14.72860069,-5.423332691,-2.914158821,2.396710873,2024-06-05 18:43:43.728601
14.76860069,-4.471288204,-3.445963621,-0.3532404304,2024-06-05 18:43:43.768601
14.80860069,-6.099005699,0.2922234535,1.290030479,2024-06-05 18:43:43.808601
14.84860069,0.418145746,-2.347658157,0.3436691463,2024-06-05 18:43:43.848601
14.88860069,-10.25384331,-5.14785862,-0.8096713424,2024-06-05 18:43:43.888601
14.92860069,-16.06541061,-11.63001537,-2.770290375,2024-06-05 18:43:43.928601
14.96860069,-16.06541061,-11.63001537,-2.770290375,2024-06-05 18:43:43.968601
15.00860069,-16.06541061,-11.63001537,-2.770290375,2024-06-05 18:43:44.008601
15.04860069,-16.06541061,-11.63001537,-2.770290375,2024-06-05 18:43:44.048601
15.08860069,-16.06541061,-11.63001537,-2.770290375,2024-06-05 18:43:44.088601
15.12860069,-16.06541061,-11.63001537,-2.770290375,2024-06-05 18:43:44.128601
15.16860069,-16.06541061,-11.63001537,-2.770290375,2024-06-05 18:43:44.168601
15.20860069,-16.06541061,-11.63001537,-2.770290375,2024-06-05 18:43:44.208601
15.24860069,-16.06541061,-11.63001537,-2.770290375,2024-06-05 18:43:44.248601
15.28860069,-16.06541061,-11.63001537,-2.770290375,2024-06-05 18:43:44.288601
15.32860069,-16.06541061,-11.63001537,-2.770290375,2024-06-05 18:43:44.328601
15.36860069,-7.194918633,-7.884649754,-0.5306084156,2024-06-05 18:43:44.368601
15.40860069,-7.194918633,-7.884649754,-0.5306084156,2024-06-05 18:43:44.408601
15.44860069,-7.194918633,-7.884649754,-0.5306084156,2024-06-05 18:43:44.448601
15.48860069,-7.194918633,-7.884649754,-0.5306084156,2024-06-05 18:43:44.488601
15.52860069,-7.194918633,-7.884649754,-0.5306084156,2024-06-05 18:43:44.528601
15.56860069,-7.194918633,-7.884649754,-0.5306084156,2024-06-05 18:43:44.568601
15.60860069,-9.800104141,-3.769293785,0.3149552941,2024-06-05 18:43:44.608601
15.64860069,-9.800104141,-3.769293785,0.3149552941,2024-06-05 18:43:44.648601
15.68860069,-9.800104141,-3.769293785,0.3149552941,2024-06-05 18:43:44.688601
15.72860069,-9.800104141,-3.769293785,0.3149552941,2024-06-05 18:43:44.728601
15.76860069,-9.800104141,-3.769293785,0.3149552941,2024-06-05 18:43:44.768601
15.80860069,-9.800104141,-3.769293785,0.3149552941,2024-06-05 18:43:44.808601
15.84860069,-9.800104141,-3.769293785,0.3149552941,2024-06-05 18:43:44.848601
15.88860069,-9.800104141,-3.769293785,0.3149552941,2024-06-05 18:43:44.888601
15.92860069,-9.800104141,-3.769293785,0.3149552941,2024-06-05 18:43:44.928601
15.96860069,-9.800104141,-3.769293785,0.3149552941,2024-06-05 18:43:44.968601
16.00860069,-9.800104141,-3.769293785,0.3149552941,2024-06-05 18:43:45.008601
16.04860069,-9.800104141,-3.769293785,0.3149552941,2024-06-05 18:43:45.048601
16.08860069,-9.800104141,-3.769293785,0.3149552941,2024-06-05 18:43:45.088601
16.12860069,-9.800104141,-3.769293785,0.3149552941,2024-06-05 18:43:45.128601
16.16860069,-9.800104141,-3.769293785,0.3149552941,2024-06-05 18:43:45.168601
16.20860069,-9.800104141,-3.769293785,0.3149552941,2024-06-05 18:43:45.208601
16.24860069,-9.800104141,-3.769293785,0.3149552941,2024-06-05 18:43:45.248601
16.28860069,-8.764012337,-8.668000221,1.329512119,2024-06-05 18:43:45.288601
16.32860069,-7.258328438,-7.500302792,0.456430912,2024-06-05 18:43:45.328601
16.36860069,-5.883352757,-7.422535896,0.3364906907,2024-06-05 18:43:45.368601
16.40860069,-6.355337143,-7.906484127,0.6864410043,2024-06-05 18:43:45.408601
16.44860069,-7.100401878,-7.179365158,0.16181463,2024-06-05 18:43:45.448601
16.48860069,-8.920742035,-5.896512985,-0.3664009571,2024-06-05 18:43:45.488601
16.52860069,-9.185447693,-7.005586624,0.1594218016,2024-06-05 18:43:45.528601
16.56860069,-10.6480608,-7.342077255,-0.6502495408,2024-06-05 18:43:45.568601
16.60860069,-8.511270523,-8.27767086,0.2838485837,2024-06-05 18:43:45.608601
16.64860069,-8.511270523,-8.27767086,0.2838485837,2024-06-05 18:43:45.648601
16.68860069,-8.511270523,-8.27767086,0.2838485837,2024-06-05 18:43:45.688601
16.72860069,-8.511270523,-8.27767086,0.2838485837,2024-06-05 18:43:45.728601
16.76860069,-8.511270523,-8.27767086,0.2838485837,2024-06-05 18:43:45.768601
16.80860069,-8.511270523,-8.27767086,0.2838485837,2024-06-05 18:43:45.808601
16.84860069,-8.511270523,-8.27767086,0.2838485837,2024-06-05 18:43:45.848601
16.88860069,-8.511270523,-8.27767086,0.2838485837,2024-06-05 18:43:45.888601
16.92860069,-8.511270523,-8.27767086,0.2838485837,2024-06-05 18:43:45.928601
16.96860069,-8.511270523,-8.27767086,0.2838485837,2024-06-05 18:43:45.968601
17.00860069,-8.511270523,-8.27767086,0.2838485837,2024-06-05 18:43:46.008601
17.04860069,-8.511270523,-8.27767086,0.2838485837,2024-06-05 18:43:46.048601
17.08860069,-8.511270523,-8.27767086,0.2838485837,2024-06-05 18:43:46.088601
17.12860069,-8.511270523,-8.27767086,0.2838485837,2024-06-05 18:43:46.128601
17.16860069,-8.511270523,-8.27767086,0.2838485837,2024-06-05 18:43:46.168601
17.20860069,-8.511270523,-8.27767086,0.2838485837,2024-06-05 18:43:46.208601
17.24860069,-8.511270523,-8.27767086,0.2838485837,2024-06-05 18:43:46.248601
17.28860069,-8.511270523,-8.27767086,0.2838485837,2024-06-05 18:43:46.288601
17.32860069,-8.511270523,-8.27767086,0.2838485837,2024-06-05 18:43:46.328601
17.36860069,-8.511270523,-8.27767086,0.2838485837,2024-06-05 18:43:46.368601
17.40860069,-8.511270523,-8.27767086,0.2838485837,2024-06-05 18:43:46.408601
17.44860069,-8.511270523,-8.27767086,0.2838485837,2024-06-05 18:43:46.448601
17.48860069,-8.511270523,-8.27767086,0.2838485837,2024-06-05 18:43:46.488601
17.52860069,-8.511270523,-8.27767086,0.2838485837,2024-06-05 18:43:46.528601
17.56860069,-8.511270523,-8.27767086,0.2838485837,2024-06-05 18:43:46.568601
17.60860069,-11.21097183,-8.396115303,-0.2300100774,2024-06-05 18:43:46.608601
17.64860069,-11.21097183,-8.396115303,-0.2300100774,2024-06-05 18:43:46.648601
17.68860069,-11.21097183,-8.396115303,-0.2300100774,2024-06-05 18:43:46.688601
17.72860069,-11.21097183,-8.396115303,-0.2300100774,2024-06-05 18:43:46.728601
17.76860069,-11.21097183,-8.396115303,-0.2300100774,2024-06-05 18:43:46.768601
17.80860069,-11.21097183,-8.396115303,-0.2300100774,2024-06-05 18:43:46.808601
17.84860069,-11.21097183,-8.396115303,-0.2300100774,2024-06-05 18:43:46.848601
17.88860069,-11.21097183,-8.396115303,-0.2300100774,2024-06-05 18:43:46.888601
17.92860069,-11.21097183,-8.396115303,-0.2300100774,2024-06-05 18:43:46.928601
17.96860069,-6.534798622,-3.054138899,0.913759172,2024-06-05 18:43:46.968601
18.00860069,-5.83310318,-2.032702923,1.439581871,2024-06-05 18:43:47.008601
18.04860069,-5.119144917,-2.273181438,1.327119231,2024-06-05 18:43:47.048601
18.08860069,-4.654339314,-2.46371007,0.4169493318,2024-06-05 18:43:47.088601
18.12860069,-5.263013363,-3.060121059,0.02153540403,2024-06-05 18:43:47.128601
18.16860069,-6.409175396,-4.688137531,0.3269194067,2024-06-05 18:43:47.168601
18.20860069,-10.55803108,-7.676474094,0.2551347017,2024-06-05 18:43:47.208601
18.24860069,-10.93789101,-8.528019905,-0.4887340367,2024-06-05 18:43:47.248601
18.28860069,-9.448957443,-9.77378273,-0.3819543123,2024-06-05 18:43:47.288601
18.32860069,-9.448957443,-9.77378273,-0.3819543123,2024-06-05 18:43:47.328601
18.36860069,-7.22482872,-5.566004753,-0.7247261405,2024-06-05 18:43:47.368601
18.40860069,-7.22482872,-5.566004753,-0.7247261405,2024-06-05 18:43:47.408601
18.44860069,-7.22482872,-5.566004753,-0.7247261405,2024-06-05 18:43:47.448601
18.48860069,-7.22482872,-5.566004753,-0.7247261405,2024-06-05 18:43:47.488601
18.52860069,-7.22482872,-5.566004753,-0.7247261405,2024-06-05 18:43:47.528601
18.56860069,-7.22482872,-5.566004753,-0.7247261405,2024-06-05 18:43:47.568601
18.60860069,-6.608078957,-7.67527771,1.089930773,2024-06-05 18:43:47.608601
18.64860069,-6.608078957,-7.67527771,1.089930773,2024-06-05 18:43:47.648601
18.68860069,-6.608078957,-7.67527771,1.089930773,2024-06-05 18:43:47.688601
18.72860069,-6.608078957,-7.67527771,1.089930773,2024-06-05 18:43:47.728601
18.76860069,-6.608078957,-7.67527771,1.089930773,2024-06-05 18:43:47.768601
18.80860069,-6.608078957,-7.67527771,1.089930773,2024-06-05 18:43:47.808601
18.84860069,-6.608078957,-7.67527771,1.089930773,2024-06-05 18:43:47.848601
18.88860069,-6.608078957,-7.67527771,1.089930773,2024-06-05 18:43:47.888601
18.92860069,-6.608078957,-7.67527771,1.089930773,2024-06-05 18:43:47.928601
18.96860069,-6.608078957,-7.67527771,1.089930773,2024-06-05 18:43:47.968601
19.00860069,-6.608078957,-7.67527771,1.089930773,2024-06-05 18:43:48.008601
19.04860069,-6.608078957,-7.67527771,1.089930773,2024-06-05 18:43:48.048601
19.08860069,-6.608078957,-7.67527771,1.089930773,2024-06-05 18:43:48.088601
19.12860069,-6.608078957,-7.67527771,1.089930773,2024-06-05 18:43:48.128601
19.16860069,-6.608078957,-7.67527771,1.089930773,2024-06-05 18:43:48.168601
19.20860069,-6.608078957,-7.67527771,1.089930773,2024-06-05 18:43:48.208601
19.24860069,-6.608078957,-7.67527771,1.089930773,2024-06-05 18:43:48.248601
19.28860069,-6.608078957,-7.67527771,1.089930773,2024-06-05 18:43:48.288601
19.32860069,-6.608078957,-7.67527771,1.089930773,2024-06-05 18:43:48.328601
19.36860069,-6.608078957,-7.67527771,1.089930773,2024-06-05 18:43:48.368601
19.40860069,-6.608078957,-7.67527771,1.089930773,2024-06-05 18:43:48.408601
19.44860069,-6.608078957,-7.67527771,1.089930773,2024-06-05 18:43:48.448601
19.48860069,-6.608078957,-7.67527771,1.089930773,2024-06-05 18:43:48.488601
19.52860069,-6.608078957,-7.67527771,1.089930773,2024-06-05 18:43:48.528601
19.56860069,-6.608078957,-7.67527771,1.089930773,2024-06-05 18:43:48.568601
19.60860069,-7.900502205,-8.839385986,0.456430912,2024-06-05 18:43:48.608601
19.64860069,-7.576872826,-7.255935669,0.3173480928,2024-06-05 18:43:48.648601
19.68860069,-6.677470684,-7.512266636,0.5210371017,2024-06-05 18:43:48.688601
19.72860069,-8.805886269,-8.1759758,-0.7546364665,2024-06-05 18:43:48.728601
19.76860069,-7.573283672,-6.746862411,0.8766704202,2024-06-05 18:43:48.768601
19.80860069,-10.48385334,-7.812865257,-1.694716692,2024-06-05 18:43:48.808601
19.84860069,-8.059624672,-7.61755085,0.5054838061,2024-06-05 18:43:48.848601
19.88860069,-8.62014389,-6.667899609,-0.994217813,2024-06-05 18:43:48.888601
19.92860069,-9.344869614,-4.738387108,0.3125624657,2024-06-05 18:43:48.928601
19.96860069,-9.344869614,-4.738387108,0.3125624657,2024-06-05 18:43:48.968601
20.00860069,-9.344869614,-4.738387108,0.3125624657,2024-06-05 18:43:49.008601
20.04860069,-9.344869614,-4.738387108,0.3125624657,2024-06-05 18:43:49.048601
20.08860069,-9.344869614,-4.738387108,0.3125624657,2024-06-05 18:43:49.088601
20.12860069,-9.344869614,-4.738387108,0.3125624657,2024-06-05 18:43:49.128601
20.16860069,-3.019443035,-1.68275249,2.043470621,2024-06-05 18:43:49.168601
20.20860069,-3.717848301,-1.45633173,0.8276175261,2024-06-05 18:43:49.208601
20.24860069,-5.374279499,-3.081955671,0.06340979785,2024-06-05 18:43:49.248601
20.28860069,-9.265906334,-5.513362408,-0.05503492057,2024-06-05 18:43:49.288601
20.32860069,-9.265906334,-5.513362408,-0.05503492057,2024-06-05 18:43:49.328601
20.36860069,-6.879963398,-6.725327015,-0.147457689,2024-06-05 18:43:49.368601
20.40860069,-10.32712364,-8.207082748,1.219442248,2024-06-05 18:43:49.408601
20.44860069,-8.361419678,-7.768597603,-0.5581258535,2024-06-05 18:43:49.448601
20.48860069,-8.041678429,-8.052446365,-0.1989033818,2024-06-05 18:43:49.488601
20.52860069,-8.041678429,-8.052446365,-0.1989033818,2024-06-05 18:43:49.528601
20.56860069,-6.243771553,-9.45972538,-0.7342974544,2024-06-05 18:43:49.568601
20.60860069,-6.951747894,-8.295617104,-0.7295117974,2024-06-05 18:43:49.608601
20.64860069,-5.949155331,-6.897909641,0.4217349887,2024-06-05 18:43:49.648601
20.68860069,-8.453842163,-3.640081406,1.207478166,2024-06-05 18:43:49.688601
20.72860069,-5.003093243,-9.37717247,-1.470688581,2024-06-05 18:43:49.728601
20.76860069,-4.954040051,-10.30558777,-1.233799219,2024-06-05 18:43:49.768601
20.80860069,-5.080859661,-5.013860703,0.3807578981,2024-06-05 18:43:49.808601
20.84860069,-1.16769743,-5.536094189,-2.91655159,2024-06-05 18:43:49.848601
20.88860069,-1.392921925,-5.841478348,0.4731806815,2024-06-05 18:43:49.888601
20.92860069,-12.71306705,-12.65414333,1.882852316,2024-06-05 18:43:49.928601
20.96860069,-9.925727844,-8.920742035,0.5473581553,2024-06-05 18:43:49.968601
21.00860069,-11.13081264,-4.317848682,-1.173679471,2024-06-05 18:43:50.008601
21.04860069,-8.921937943,-15.82941914,-1.196411371,2024-06-05 18:43:50.048601
21.08860069,-1.855334878,-6.591329098,0.4695914388,2024-06-05 18:43:50.088601
21.12860069,-2.322533369,-5.677270889,-0.5042873621,2024-06-05 18:43:50.128601
21.16860069,-6.201897144,-6.25453949,0.1977069676,2024-06-05 18:43:50.168601
21.20860069,-7.997411251,-6.551548481,0.3113660514,2024-06-05 18:43:50.208601
21.24860069,-5.818746567,-8.220243454,-1.395314693,2024-06-05 18:43:50.248601
21.28860069,-6.748058796,-9.11725235,1.232602715,2024-06-05 18:43:50.288601
21.32860069,-10.25743294,-8.402097702,-0.590429008,2024-06-05 18:43:50.328601
21.36860069,-8.189136505,-7.544569969,0.3101696372,2024-06-05 18:43:50.368601
21.40860069,-11.20738316,-7.8810606,0.3077768087,2024-06-05 18:43:50.408601
21.44860069,-9.065806389,-7.724330425,0.2108674943,2024-06-05 18:43:50.448601
21.48860069,-7.327720165,-6.133701801,0.2359921336,2024-06-05 18:43:50.488601
21.52860069,-8.379365921,-5.9515481,-0.9571290612,2024-06-05 18:43:50.528601
21.56860069,-9.356833458,-4.504787922,0.4875376225,2024-06-05 18:43:50.568601
21.60860069,-8.433503151,-4.092624187,1.202393413,2024-06-05 18:43:50.608601
21.64860069,-4.486841679,-3.214757204,1.532004714,2024-06-05 18:43:50.648601
21.68860069,-2.48045969,-2.391925335,1.177268744,2024-06-05 18:43:50.688601
21.72860069,-4.235296249,-0.1486541033,2.376372099,2024-06-05 18:43:50.728601
21.76860069,-4.895116806,-0.6119644046,1.612164259,2024-06-05 18:43:50.768601
21.80860069,-3.357429266,-2.335694075,1.117448211,2024-06-05 18:43:50.808601
21.84860069,-7.53858757,-4.98275423,0.4492524564,2024-06-05 18:43:50.848601
21.88860069,-7.956733704,-7.272685528,0.9918249846,2024-06-05 18:43:50.888601
21.92860069,-7.956733704,-7.272685528,0.9918249846,2024-06-05 18:43:50.928601
21.96860069,-9.677771568,-6.593721867,1.010967612,2024-06-05 18:43:50.968601
22.00860069,-7.671688557,-7.060621262,-0.1486541033,2024-06-05 18:43:51.008601
22.04860069,-7.7398839,-8.396115303,-0.03469592705,2024-06-05 18:43:51.048601
22.08860069,-10.75813103,-9.525827408,0.03708875179,2024-06-05 18:43:51.088601
22.12860069,-11.98594761,-9.968798637,0.4755735099,2024-06-05 18:43:51.128601
22.16860069,-7.96391201,-6.937391281,0.8647062778,2024-06-05 18:43:51.168601
22.20860069,-7.96391201,-6.937391281,0.8647062778,2024-06-05 18:43:51.208601
22.24860069,-6.485745907,-6.697809696,0.513858676,2024-06-05 18:43:51.248601
22.24860069,-6.485745907,-6.697809696,0.513858676,2024-06-05 18:43:51.248601
22.32860069,-8.189136505,-8.752047539,0.2120639086,2024-06-05 18:43:51.328601
22.36860069,-8.913563728,-8.825029373,0.2826521695,2024-06-05 18:43:51.368601
22.40860069,-7.870292664,-8.581858635,0.01914258115,2024-06-05 18:43:51.408601
22.44860069,-7.533802032,-6.027221203,-0.9101698995,2024-06-05 18:43:51.448601
22.48860069,-7.533802032,-6.027221203,-0.9101698995,2024-06-05 18:43:51.488601
22.52860069,-10.64327526,-7.378268719,-2.45533514,2024-06-05 18:43:51.528601
22.56860069,-10.46829987,-7.677670479,4.063910007,2024-06-05 18:43:51.568601
22.60860069,-5.261816978,-2.861516714,-1.275673628,2024-06-05 18:43:51.608601
22.64860069,-7.021139622,-3.293720484,-0.3747758567,2024-06-05 18:43:51.648601
22.68860069,-6.233004093,-3.84706068,-0.1220339537,2024-06-05 18:43:51.688601
22.72860069,-2.484049082,-0.6394818425,0.6574280262,2024-06-05 18:43:51.728601
22.76860069,-4.513162613,-1.144965649,1.319940805,2024-06-05 18:43:51.768601
22.80860069,-6.264110565,-2.460120678,1.506880045,2024-06-05 18:43:51.808601
22.84860069,-6.817451,-2.221735716,0.8754739761,2024-06-05 18:43:51.848601
22.88860069,-5.100002289,-3.897608995,0.3879363835,2024-06-05 18:43:51.888601
22.92860069,-5.208875656,-4.67228508,-0.323330164,2024-06-05 18:43:51.928601
22.96860069,-5.721538067,-4.975575447,-0.2694916427,2024-06-05 18:43:51.968601
23.00860069,-7.878667831,-5.717948914,0.3628117442,2024-06-05 18:43:52.008601
23.04860069,-11.35095215,-7.585247993,0.375972271,2024-06-05 18:43:52.048601
23.08860069,-10.32353401,-10.75813103,0.02273181453,2024-06-05 18:43:52.088601
23.12860069,-9.932906151,-9.068199158,-0.7259225845,2024-06-05 18:43:52.128601
23.16860069,-9.701699257,-8.556734085,-1.506880045,2024-06-05 18:43:52.168601
23.20860069,-6.236593246,-5.429314613,1.327119231,2024-06-05 18:43:52.208601
23.24860069,-6.236593246,-5.429314613,1.327119231,2024-06-05 18:43:52.248601
23.28860069,-10.1330061,-9.364012718,-0.06460621208,2024-06-05 18:43:52.288601
23.32860069,-8.823832512,-8.72811985,0.6669993401,2024-06-05 18:43:52.328601
23.36860069,-6.045167446,-8.387741089,0.2455634177,2024-06-05 18:43:52.368601
23.40860069,-5.719145298,-6.972086906,0.6622136831,2024-06-05 18:43:52.408601
23.44860069,-5.719145298,-6.972086906,0.6622136831,2024-06-05 18:43:52.448601
23.48860069,-8.62014389,-7.768597603,0.06699903309,2024-06-05 18:43:52.488601
23.52860069,-8.62014389,-7.768597603,0.06699903309,2024-06-05 18:43:52.528601
23.56860069,-9.525827408,-9.075378418,-0.4492524564,2024-06-05 18:43:52.568601
23.60860069,-6.713363171,-4.929812908,0.509073019,2024-06-05 18:43:52.608601
23.64860069,-6.623631954,-4.035196304,-0.1064806059,2024-06-05 18:43:52.648601
23.68860069,-8.771190643,-4.946562767,-0.5772684813,2024-06-05 18:43:52.688601
23.72860069,-7.282256603,-5.36111927,-0.2383849621,2024-06-05 18:43:52.728601
23.76860069,-4.230510235,-0.9619147182,1.249352574,2024-06-05 18:43:52.768601
23.80860069,-4.230510235,-0.9619147182,1.249352574,2024-06-05 18:43:52.808601
23.84860069,-2.515155792,-0.07058826834,0.9786644578,2024-06-05 18:43:52.848601
23.88860069,-3.040978432,-0.5114658475,0.5533402562,2024-06-05 18:43:52.888601
23.92860069,-7.901698589,-2.507977247,1.821835399,2024-06-05 18:43:52.928601
23.96860069,-8.263314247,-6.780362129,-0.2431706041,2024-06-05 18:43:52.968601
24.00860069,-9.984351158,-7.63579607,-0.003589233849,2024-06-05 18:43:53.008601
24.04860069,-7.928019524,-6.549155712,0.6239284873,2024-06-05 18:43:53.048601
24.08860069,-8.379365921,-7.85234642,0.04785645381,2024-06-05 18:43:53.088601
24.12860069,-6.819843769,-8.428419113,-0.1172483116,2024-06-05 18:43:53.128601
24.16860069,-8.80708313,-7.514659405,-0.09451649338,2024-06-05 18:43:53.168601
24.20860069,-11.82413292,-9.528220177,0.4313062727,2024-06-05 18:43:53.208601
24.24860069,-9.312566757,-8.167600632,0.4671986103,2024-06-05 18:43:53.248601
24.28860069,-8.498109818,-9.360423088,0.7869395614,2024-06-05 18:43:53.288601
24.32860069,-8.268099785,-7.879864216,0.7642077208,2024-06-05 18:43:53.328601
24.36860069,-5.874977589,-7.241578579,0.8383852243,2024-06-05 18:43:53.368601
24.40860069,-5.128716469,-7.904091358,-0.3675973713,2024-06-05 18:43:53.408601
24.44860069,-6.234200478,-7.024729252,0.2742772996,2024-06-05 18:43:53.448601
24.48860069,-9.932906151,-7.210472107,-0.1414756328,2024-06-05 18:43:53.488601
24.52860069,-9.835996628,-6.851249218,-0.7989036441,2024-06-05 18:43:53.528601
24.56860069,-10.43719292,-7.272685528,-0.7151548862,2024-06-05 18:43:53.568601
24.60860069,-10.32114124,-7.52782011,-0.3245265782,2024-06-05 18:43:53.608601
24.64860069,-8.947062492,-7.723134041,-0.470787853,2024-06-05 18:43:53.648601
24.68860069,-8.225028992,-6.211468697,-0.6047859192,2024-06-05 18:43:53.688601
24.72860069,-7.352844715,-3.53330183,-1.547558069,2024-06-05 18:43:53.728601
24.76860069,-5.333601475,-2.692523718,0.1088734269,2024-06-05 18:43:53.768601
24.80860069,-2.300997972,-2.553740025,0.5341976285,2024-06-05 18:43:53.808601
24.84860069,-4.030410767,-1.003789067,1.453938842,2024-06-05 18:43:53.848601
24.88860069,-5.967101574,-1.256531,1.019342422,2024-06-05 18:43:53.888601
24.92860069,-4.871188641,-2.214557409,1.80508554,2024-06-05 18:43:53.928601
24.96860069,-5.420939922,-2.448156595,1.140179992,2024-06-05 18:43:53.968601
25.00860069,-5.695217133,-3.565604925,0.6454638839,2024-06-05 18:43:54.008601
25.04860069,-7.851150036,-6.102594852,0.3364906907,2024-06-05 18:43:54.048601
25.08860069,-8.651249886,-6.75284481,-0.2958126962,2024-06-05 18:43:54.088601
25.12860069,-10.0022974,-8.117053032,-0.6311069727,2024-06-05 18:43:54.128601
25.16860069,-9.005986214,-9.904191971,-0.78095752,2024-06-05 18:43:54.168601
25.20860069,-7.922037601,-9.053842545,0.08255238086,2024-06-05 18:43:54.208601
25.24860069,-8.544769287,-6.582954407,0.6059823632,2024-06-05 18:43:54.248601
25.28860069,-8.233403206,-6.522834301,1.439581871,2024-06-05 18:43:54.288601
25.32860069,-9.216554642,-8.949456215,-0.09092725813,2024-06-05 18:43:54.328601
25.36860069,-9.021539688,-9.330513,0.7498508096,2024-06-05 18:43:54.368601
25.40860069,-9.021539688,-9.330513,0.7498508096,2024-06-05 18:43:54.408601
25.44860069,-5.595914841,-7.747062206,0.4348955154,2024-06-05 18:43:54.448601
25.48860069,-5.532505035,-5.988636971,0.9726824164,2024-06-05 18:43:54.488601
25.52860069,-7.939983845,-5.296513081,-0.04426721856,2024-06-05 18:43:54.528601
25.56860069,-9.684949875,-6.388836384,0.1268195957,2024-06-05 18:43:54.568601
25.60860069,-11.65304661,-8.865707397,-0.7857431173,2024-06-05 18:43:54.608601
25.64860069,-10.20957565,-9.862318039,-0.2024926096,2024-06-05 18:43:54.648601
25.68860069,-9.489635468,-6.722934246,0.4265206456,2024-06-05 18:43:54.688601
25.72860069,-8.202297211,-5.379065514,0.2898306549,2024-06-05 18:43:54.728601
25.76860069,-5.842674732,-4.859224796,-2.366800785,2024-06-05 18:43:54.768601
25.80860069,-5.015057087,-1.896012783,0.7677969933,2024-06-05 18:43:54.808601
25.84860069,-5.488237858,-1.113858938,0.7331010103,2024-06-05 18:43:54.848601
25.88860069,-5.641378403,-3.369393349,0.6382854581,2024-06-05 18:43:54.888601
25.92860069,-1.694716692,-1.004985452,1.823031783,2024-06-05 18:43:54.928601
25.96860069,-4.807778835,-0.07058826834,0.09810572863,2024-06-05 18:43:54.968601
26.00860069,-8.390133858,-4.840082169,1.602592945,2024-06-05 18:43:55.008601
26.04860069,-8.704191208,-6.209075451,0.5174478889,2024-06-05 18:43:55.048601
26.08860069,-5.93719101,-5.456831932,-0.03110669367,2024-06-05 18:43:55.088601
26.12860069,-5.93719101,-5.456831932,-0.03110669367,2024-06-05 18:43:55.128601
26.12860069,-7.618747234,-6.197111607,0.2324029058,2024-06-05 18:43:55.128601
26.20860069,-8.550751686,-8.283653259,0.4073780477,2024-06-05 18:43:55.208601
26.24860069,-12.01825047,-8.654839516,-0.9750752449,2024-06-05 18:43:55.248601
26.28860069,-10.51496029,-8.370990753,-0.2300100774,2024-06-05 18:43:55.288601
26.32860069,-6.806683064,-7.76500845,0.8503493667,2024-06-05 18:43:55.328601
26.36860069,-7.980661869,-9.21535778,0.4169493318,2024-06-05 18:43:55.368601
26.40860069,-9.490832329,-7.534998417,0.4408775866,2024-06-05 18:43:55.408601
26.44860069,-7.054639339,-7.120740891,0.3317050338,2024-06-05 18:43:55.448601
26.48860069,-5.279763222,-6.731309414,1.458724499,2024-06-05 18:43:55.488601
26.52860069,-5.481956482,-8.269295692,-0.1701895148,2024-06-05 18:43:55.528601
26.56860069,-9.87787056,-6.972086906,-0.2455634177,2024-06-05 18:43:55.568601
26.60860069,-9.923335075,-6.970890522,0.4540380836,2024-06-05 18:43:55.608601
26.64860069,-9.677771568,-8.411668777,-1.165304661,2024-06-05 18:43:55.648601
26.68860069,-8.668000221,-8.710173607,-0.1414756328,2024-06-05 18:43:55.688601
26.72860069,-8.859724998,-6.138487339,0.04905286431,2024-06-05 18:43:55.728601
26.76860069,-7.009175777,-5.170590401,0.294616282,2024-06-05 18:43:55.768601
26.80860069,-9.08853817,-4.663910389,-1.420439363,2024-06-05 18:43:55.808601
26.84860069,-7.24995327,-3.863810301,0.1654038578,2024-06-05 18:43:55.848601
26.88860069,-4.745565414,-3.085544825,0.09212367237,2024-06-05 18:43:55.888601
26.92860069,-4.998307228,-1.452742457,0.804885745,2024-06-05 18:43:55.928601
26.96860069,-6.144469261,-1.401296735,0.7941179872,2024-06-05 18:43:55.968601
27.00860069,-4.587339878,-0.7773682475,0.9269196987,2024-06-05 18:43:56.008601
27.04860069,-4.296313286,-1.691127419,1.458724499,2024-06-05 18:43:56.048601
27.08860069,-3.889234066,-3.003889799,0.3771686554,2024-06-05 18:43:56.088601
27.12860069,-7.990232944,-5.225924492,0.6083751321,2024-06-05 18:43:56.128601
27.16860069,-10.30169964,-7.701598644,0.5437689424,2024-06-05 18:43:56.168601
27.20860069,-10.52812099,-8.744869232,-0.36161533,2024-06-05 18:43:56.208601
27.24860069,-9.638289452,-9.369994164,-0.3257229924,2024-06-05 18:43:56.248601
27.28860069,-7.066603661,-10.62054348,-0.6334998012,2024-06-05 18:43:56.288601
27.32860069,-8.652446747,-6.634399891,0.3963112533,2024-06-05 18:43:56.328601
27.36860069,-7.039085865,-8.46102047,0.2216351926,2024-06-05 18:43:56.368601
27.40860069,-7.707581043,-6.615257263,0.3161516786,2024-06-05 18:43:56.408601
27.44860069,-10.44317532,-8.539983749,-0.2048854381,2024-06-05 18:43:56.448601
27.48860069,-11.93330574,-8.143373489,0.7115656137,2024-06-05 18:43:56.488601
27.52860069,-7.496713161,-7.63579607,-0.06580262631,2024-06-05 18:43:56.528601
27.56860069,-5.408975601,-10.51974583,-0.8228318691,2024-06-05 18:43:56.568601
27.60860069,-3.24466753,-6.980462074,0.2886342406,2024-06-05 18:43:56.608601
27.64860069,-5.925227165,-4.820939541,0.9978070259,2024-06-05 18:43:56.648601
27.68860069,-12.53450203,-4.763511658,-0.2036890239,2024-06-05 18:43:56.688601
27.72860069,-12.01107216,-8.37816906,0.6538388133,2024-06-05 18:43:56.728601
27.76860069,-10.15813065,-9.978369713,-1.6181463,2024-06-05 18:43:56.768601
27.80860069,-6.197111607,-5.9515481,1.430010676,2024-06-05 18:43:56.808601
27.84860069,-5.971887112,-4.140480518,-0.7534400225,2024-06-05 18:43:56.848601
27.88860069,-8.366205215,-4.186243057,-0.2539383173,2024-06-05 18:43:56.888601
27.92860069,-5.831906796,-2.954836845,-0.1845464408,2024-06-05 18:43:56.928601
27.96860069,-3.044567823,-1.366600871,-0.4683950245,2024-06-05 18:43:56.968601
28.00860069,-5.120341301,-0.2288136631,0.4480560422,2024-06-05 18:43:57.008601
28.04860069,-5.060520649,-2.184647083,0.9463613629,2024-06-05 18:43:57.048601
28.08860069,-2.68175602,-0.6538388133,1.386939883,2024-06-05 18:43:57.088601
28.12860069,-5.780461311,-1.679163337,0.2539383173,2024-06-05 18:43:57.128601
28.16860069,-9.349655151,-5.943173409,0.4899304509,2024-06-05 18:43:57.168601
28.20860069,-7.847560883,-7.612765312,0.03948157281,2024-06-05 18:43:57.208601
28.24860069,-6.614060879,-6.624828815,0.1148554832,2024-06-05 18:43:57.248601
28.28860069,-7.806882858,-8.593822479,-0.2838485837,2024-06-05 18:43:57.288601
28.32860069,-6.697809696,-8.553144455,0.7055835724,2024-06-05 18:43:57.328601
28.36860069,-8.960223198,-8.845368385,-0.5473581553,2024-06-05 18:43:57.368601
28.40860069,-7.708777428,-7.659724236,-0.7558328509,2024-06-05 18:43:57.408601
28.44860069,-8.557929993,-12.42293739,-2.292623281,2024-06-05 18:43:57.448601
28.48860069,-8.409276009,-8.900403023,-1.196411371,2024-06-05 18:43:57.488601
28.52860069,-6.091827393,-8.747262001,-0.3939184248,2024-06-05 18:43:57.528601
28.56860069,-6.258128643,-8.239385605,0.132801652,2024-06-05 18:43:57.568601
28.60860069,-3.410071373,-7.24995327,-0.2647060156,2024-06-05 18:43:57.608601
28.64860069,-4.392025948,-11.87677479,-1.468295813,2024-06-05 18:43:57.648601
28.68860069,-3.830310822,-5.71435976,-0.699601531,2024-06-05 18:43:57.688601
28.72860069,-3.830310822,-5.71435976,-0.699601531,2024-06-05 18:43:57.728601
28.76860069,-4.443770885,-8.420043945,-0.7175477147,2024-06-05 18:43:57.768601
28.80860069,-4.669892311,-7.930412292,-1.052842021,2024-06-05 18:43:57.808601
28.84860069,-7.350451946,-8.445467949,-1.298405409,2024-06-05 18:43:57.848601
28.88860069,-2.928515911,-9.867103577,0.2635096014,2024-06-05 18:43:57.888601
28.92860069,-2.928515911,-9.867103577,0.2635096014,2024-06-05 18:43:57.928601
28.96860069,-3.81595397,-10.9366951,-0.7570292354,2024-06-05 18:43:57.968601
29.00860069,-3.885644913,-11.32702446,-0.7139584422,2024-06-05 18:43:58.008601
29.04860069,-3.984946966,-7.439285755,-0.6047859192,2024-06-05 18:43:58.048601
29.08860069,-0.3137588799,-6.86082077,-1.177268744,2024-06-05 18:43:58.088601
29.12860069,-1.994118571,-9.141180992,-0.6382854581,2024-06-05 18:43:58.128601
29.16860069,-3.311666489,-6.005386829,-0.6514459848,2024-06-05 18:43:58.168601
29.20860069,-5.2737813,-12.22433281,-1.170090318,2024-06-05 18:43:58.208601
29.24860069,-4.599304199,-7.939983845,0.07298108935,2024-06-05 18:43:58.248601
29.28860069,-5.531308651,-10.0899353,-0.9499505758,2024-06-05 18:43:58.288601
29.32860069,-5.925227165,-10.21077251,-1.238584876,2024-06-05 18:43:58.328601
29.36860069,-3.102294445,-7.872685432,-0.3771686554,2024-06-05 18:43:58.368601
29.40860069,-3.696312666,-8.323134422,-1.552343726,2024-06-05 18:43:58.408601
29.44860069,-4.127319813,-13.20269775,-1.101894855,2024-06-05 18:43:58.448601
29.48860069,-3.911965847,-10.73898792,-2.124826431,2024-06-05 18:43:58.488601
29.52860069,-2.225325108,-11.79302597,-0.5653043389,2024-06-05 18:43:58.528601
29.56860069,-2.963211775,-5.33240509,-0.7354938388,2024-06-05 18:43:58.568601
29.60860069,-2.723630428,-9.929316521,-0.4887340367,2024-06-05 18:43:58.608601
29.64860069,-13.71177101,-18.16750526,-2.687737942,2024-06-05 18:43:58.648601
29.68860069,-6.000600815,-8.216653824,-0.1244267747,2024-06-05 18:43:58.688601
29.72860069,-6.944569588,-16.12164307,-0.007178467698,2024-06-05 18:43:58.728601
29.76860069,1.008574724,-6.824928284,0.7235297561,2024-06-05 18:43:58.768601
29.80860069,2.503191471,-4.431806564,0.4097708762,2024-06-05 18:43:58.808601
29.84860069,-4.41984272,-5.873781204,1.851745605,2024-06-05 18:43:58.848601
29.88860069,-6.398407936,-4.482056141,-1.935494423,2024-06-05 18:43:58.888601
29.92860069,-5.871388435,-5.83310318,-2.594418049,2024-06-05 18:43:58.928601
29.96860069,-8.099106789,-7.186543941,-1.468295813,2024-06-05 18:43:58.968601
30.00860069,-11.03121185,-6.899106026,1.410868049,2024-06-05 18:43:59.008601
30.04860069,-12.30090332,-7.066603661,1.878066659,2024-06-05 18:43:59.048601
30.08860069,-5.778068542,-9.857531548,0.03349951655,2024-06-05 18:43:59.088601
30.12860069,-0.4432703853,-9.977172852,1.973779559,2024-06-05 18:43:59.128601
30.16860069,-6.982854843,-10.13779163,0.5772684813,2024-06-05 18:43:59.168601
30.20860069,-9.735198975,-8.027321815,-0.6394818425,2024-06-05 18:43:59.208601
30.24860069,-12.2482605,-6.819843769,0.4911268353,2024-06-05 18:43:59.248601
30.28860069,-8.547162056,-5.58395052,-0.6107679605,2024-06-05 18:43:59.288601
30.32860069,-7.526623726,-4.779065132,1.195214868,2024-06-05 18:43:59.328601
30.36860069,-3.701098442,-2.412264347,-1.499701619,2024-06-05 18:43:59.368601
30.40860069,-8.420043945,-5.013860703,0.8718847632,2024-06-05 18:43:59.408601
30.44860069,-10.35823059,-4.788636208,1.753639936,2024-06-05 18:43:59.448601
30.48860069,-10.35823059,-4.788636208,1.753639936,2024-06-05 18:43:59.488601
30.52860069,-10.35823059,-4.788636208,1.753639936,2024-06-05 18:43:59.528601
30.56860069,-10.35823059,-4.788636208,1.753639936,2024-06-05 18:43:59.568601
30.60860069,-5.230710506,-1.177268744,1.195214868,2024-06-05 18:43:59.608601
30.64860069,-5.230710506,-1.177268744,1.195214868,2024-06-05 18:43:59.648601
30.68860069,-5.230710506,-1.177268744,1.195214868,2024-06-05 18:43:59.688601
30.72860069,-5.230710506,-1.177268744,1.195214868,2024-06-05 18:43:59.728601
30.76860069,-5.230710506,-1.177268744,1.195214868,2024-06-05 18:43:59.768601
30.80860069,-5.230710506,-1.177268744,1.195214868,2024-06-05 18:43:59.808601
30.84860069,-5.230710506,-1.177268744,1.195214868,2024-06-05 18:43:59.848601
30.88860069,-5.230710506,-1.177268744,1.195214868,2024-06-05 18:43:59.888601
30.92860069,-5.230710506,-1.177268744,1.195214868,2024-06-05 18:43:59.928601
30.96860069,-5.230710506,-1.177268744,1.195214868,2024-06-05 18:43:59.968601
31.00860069,-5.230710506,-1.177268744,1.195214868,2024-06-05 18:44:00.008601
31.04860069,-5.230710506,-1.177268744,1.195214868,2024-06-05 18:44:00.048601
31.08860069,-5.230710506,-1.177268744,1.195214868,2024-06-05 18:44:00.088601
31.12860069,-5.230710506,-1.177268744,1.195214868,2024-06-05 18:44:00.128601
31.16860069,-5.230710506,-1.177268744,1.195214868,2024-06-05 18:44:00.168601
31.20860069,-5.230710506,-1.177268744,1.195214868,2024-06-05 18:44:00.208601
31.24860069,-5.230710506,-1.177268744,1.195214868,2024-06-05 18:44:00.248601
31.28860069,-8.656036377,-7.983054638,0.1040877849,2024-06-05 18:44:00.288601
31.32860069,-8.656036377,-7.983054638,0.1040877849,2024-06-05 18:44:00.328601
31.36860069,-8.677571297,-6.791129589,-0.1510469317,2024-06-05 18:44:00.368601
31.40860069,-8.677571297,-6.791129589,-0.1510469317,2024-06-05 18:44:00.408601
31.44860069,-8.677571297,-6.791129589,-0.1510469317,2024-06-05 18:44:00.448601
31.48860069,-8.677571297,-6.791129589,-0.1510469317,2024-06-05 18:44:00.488601
31.52860069,-8.677571297,-6.791129589,-0.1510469317,2024-06-05 18:44:00.528601
31.56860069,-8.677571297,-6.791129589,-0.1510469317,2024-06-05 18:44:00.568601
31.60860069,-7.170990467,-3.461517096,0.9065806866,2024-06-05 18:44:00.608601
31.64860069,-7.170990467,-3.461517096,0.9065806866,2024-06-05 18:44:00.648601
31.68860069,-7.170990467,-3.461517096,0.9065806866,2024-06-05 18:44:00.688601
31.72860069,-7.170990467,-3.461517096,0.9065806866,2024-06-05 18:44:00.728601
31.76860069,-7.170990467,-3.461517096,0.9065806866,2024-06-05 18:44:00.768601
31.80860069,-7.170990467,-3.461517096,0.9065806866,2024-06-05 18:44:00.808601
31.84860069,-7.170990467,-3.461517096,0.9065806866,2024-06-05 18:44:00.848601
31.88860069,-7.170990467,-3.461517096,0.9065806866,2024-06-05 18:44:00.888601
31.92860069,-7.170990467,-3.461517096,0.9065806866,2024-06-05 18:44:00.928601
31.96860069,-7.170990467,-3.461517096,0.9065806866,2024-06-05 18:44:00.968601
32.00860069,-7.170990467,-3.461517096,0.9065806866,2024-06-05 18:44:01.008601
32.04860069,-7.170990467,-3.461517096,0.9065806866,2024-06-05 18:44:01.048601
32.08860069,-7.170990467,-3.461517096,0.9065806866,2024-06-05 18:44:01.088601
32.12860069,-7.170990467,-3.461517096,0.9065806866,2024-06-05 18:44:01.128601
32.16860069,-7.170990467,-3.461517096,0.9065806866,2024-06-05 18:44:01.168601
32.16860069,-9.476474762,-8.664410591,0.2635096014,2024-06-05 18:44:01.168601
32.24860069,-9.476474762,-8.664410591,0.2635096014,2024-06-05 18:44:01.248601
32.28860069,-9.476474762,-8.664410591,0.2635096014,2024-06-05 18:44:01.288601
32.32860069,-9.476474762,-8.664410591,0.2635096014,2024-06-05 18:44:01.328601
32.36860069,-9.476474762,-8.664410591,0.2635096014,2024-06-05 18:44:01.368601
32.40860069,-9.476474762,-8.664410591,0.2635096014,2024-06-05 18:44:01.408601
32.44860069,-9.476474762,-8.664410591,0.2635096014,2024-06-05 18:44:01.448601
32.48860069,-9.476474762,-8.664410591,0.2635096014,2024-06-05 18:44:01.488601
32.52860069,-9.476474762,-8.664410591,0.2635096014,2024-06-05 18:44:01.528601
32.56860069,-9.476474762,-8.664410591,0.2635096014,2024-06-05 18:44:01.568601
32.60860069,-6.821040154,-3.862613916,-0.7307082415,2024-06-05 18:44:01.608601
32.64860069,-6.821040154,-3.862613916,-0.7307082415,2024-06-05 18:44:01.648601
32.68860069,-6.821040154,-3.862613916,-0.7307082415,2024-06-05 18:44:01.688601
32.72860069,-6.821040154,-3.862613916,-0.7307082415,2024-06-05 18:44:01.728601
32.76860069,-6.821040154,-3.862613916,-0.7307082415,2024-06-05 18:44:01.768601
32.80860069,-6.821040154,-3.862613916,-0.7307082415,2024-06-05 18:44:01.808601
32.84860069,-6.821040154,-3.862613916,-0.7307082415,2024-06-05 18:44:01.848601
32.88860069,-6.821040154,-3.862613916,-0.7307082415,2024-06-05 18:44:01.888601
32.92860069,-6.821040154,-3.862613916,-0.7307082415,2024-06-05 18:44:01.928601
32.96860069,-6.821040154,-3.862613916,-0.7307082415,2024-06-05 18:44:01.968601
33.00860069,-8.575876236,-7.355237484,-0.1666002721,2024-06-05 18:44:02.008601
33.00860069,-8.575876236,-7.355237484,-0.1666002721,2024-06-05 18:44:02.008601
33.08860069,-8.575876236,-7.355237484,-0.1666002721,2024-06-05 18:44:02.088601
33.12860069,-8.575876236,-7.355237484,-0.1666002721,2024-06-05 18:44:02.128601
33.16860069,-8.575876236,-7.355237484,-0.1666002721,2024-06-05 18:44:02.168601
33.20860069,-8.575876236,-7.355237484,-0.1666002721,2024-06-05 18:44:02.208601
33.24860069,-8.575876236,-7.355237484,-0.1666002721,2024-06-05 18:44:02.248601
33.28860069,-8.575876236,-7.355237484,-0.1666002721,2024-06-05 18:44:02.288601
33.32860069,-8.575876236,-7.355237484,-0.1666002721,2024-06-05 18:44:02.328601
33.36860069,-8.561519623,-6.075077534,-0.513858676,2024-06-05 18:44:02.368601
33.40860069,-8.561519623,-6.075077534,-0.513858676,2024-06-05 18:44:02.408601
33.44860069,-8.561519623,-6.075077534,-0.513858676,2024-06-05 18:44:02.448601
33.48860069,-8.561519623,-6.075077534,-0.513858676,2024-06-05 18:44:02.488601
33.52860069,-8.561519623,-6.075077534,-0.513858676,2024-06-05 18:44:02.528601
33.56860069,-8.561519623,-6.075077534,-0.513858676,2024-06-05 18:44:02.568601
33.60860069,-7.205686092,-4.071088791,-0.589232564,2024-06-05 18:44:02.608601
33.64860069,-7.205686092,-4.071088791,-0.589232564,2024-06-05 18:44:02.648601
33.68860069,-7.205686092,-4.071088791,-0.589232564,2024-06-05 18:44:02.688601
33.72860069,-7.205686092,-4.071088791,-0.589232564,2024-06-05 18:44:02.728601
33.76860069,-7.205686092,-4.071088791,-0.589232564,2024-06-05 18:44:02.768601
33.80860069,-7.205686092,-4.071088791,-0.589232564,2024-06-05 18:44:02.808601
33.84860069,-7.205686092,-4.071088791,-0.589232564,2024-06-05 18:44:02.848601
33.88860069,-7.205686092,-4.071088791,-0.589232564,2024-06-05 18:44:02.888601
33.92860069,-7.205686092,-4.071088791,-0.589232564,2024-06-05 18:44:02.928601
33.96860069,-7.205686092,-4.071088791,-0.589232564,2024-06-05 18:44:02.968601
34.00860069,-7.205686092,-4.071088791,-0.589232564,2024-06-05 18:44:03.008601
34.04860069,-7.205686092,-4.071088791,-0.589232564,2024-06-05 18:44:03.048601
34.08860069,-7.205686092,-4.071088791,-0.589232564,2024-06-05 18:44:03.088601
34.12860069,-7.205686092,-4.071088791,-0.589232564,2024-06-05 18:44:03.128601
34.16860069,-7.205686092,-4.071088791,-0.589232564,2024-06-05 18:44:03.168601
34.20860069,-7.205686092,-4.071088791,-0.589232564,2024-06-05 18:44:03.208601
34.24860069,-7.205686092,-4.071088791,-0.589232564,2024-06-05 18:44:03.248601
34.28860069,-7.205686092,-4.071088791,-0.589232564,2024-06-05 18:44:03.288601
34.32860069,-7.205686092,-4.071088791,-0.589232564,2024-06-05 18:44:03.328601
34.36860069,-7.205686092,-4.071088791,-0.589232564,2024-06-05 18:44:03.368601
34.40860069,-7.205686092,-4.071088791,-0.589232564,2024-06-05 18:44:03.408601
34.44860069,-7.205686092,-4.071088791,-0.589232564,2024-06-05 18:44:03.448601
34.48860069,-7.205686092,-4.071088791,-0.589232564,2024-06-05 18:44:03.488601
34.52860069,-7.205686092,-4.071088791,-0.589232564,2024-06-05 18:44:03.528601
34.56860069,-7.205686092,-4.071088791,-0.589232564,2024-06-05 18:44:03.568601
34.60860069,-6.844070911,-6.237789631,-1.412064433,2024-06-05 18:44:03.608601
34.64860069,-6.844070911,-6.237789631,-1.412064433,2024-06-05 18:44:03.648601
34.68860069,-6.844070911,-6.237789631,-1.412064433,2024-06-05 18:44:03.688601
34.72860069,-6.844070911,-6.237789631,-1.412064433,2024-06-05 18:44:03.728601
34.76860069,-6.844070911,-6.237789631,-1.412064433,2024-06-05 18:44:03.768601
34.80860069,-6.844070911,-6.237789631,-1.412064433,2024-06-05 18:44:03.808601
34.84860069,-5.447260857,-1.288834095,0.9583254457,2024-06-05 18:44:03.848601
34.88860069,-5.447260857,-1.288834095,0.9583254457,2024-06-05 18:44:03.888601
34.92860069,-5.447260857,-1.288834095,0.9583254457,2024-06-05 18:44:03.928601
34.96860069,-5.447260857,-1.288834095,0.9583254457,2024-06-05 18:44:03.968601
35.00860069,-5.447260857,-1.288834095,0.9583254457,2024-06-05 18:44:04.008601
35.04860069,-5.447260857,-1.288834095,0.9583254457,2024-06-05 18:44:04.048601
35.08860069,-5.447260857,-1.288834095,0.9583254457,2024-06-05 18:44:04.088601
35.12860069,-5.447260857,-1.288834095,0.9583254457,2024-06-05 18:44:04.128601
35.16860069,-5.447260857,-1.288834095,0.9583254457,2024-06-05 18:44:04.168601
35.20860069,-5.447260857,-1.288834095,0.9583254457,2024-06-05 18:44:04.208601
35.24860069,-5.447260857,-1.288834095,0.9583254457,2024-06-05 18:44:04.248601
35.28860069,-5.447260857,-1.288834095,0.9583254457,2024-06-05 18:44:04.288601
35.32860069,-5.447260857,-1.288834095,0.9583254457,2024-06-05 18:44:04.328601
35.36860069,-6.783951283,-6.76361227,-0.3424727321,2024-06-05 18:44:04.368601
35.40860069,-6.783951283,-6.76361227,-0.3424727321,2024-06-05 18:44:04.408601
35.44860069,-6.783951283,-6.76361227,-0.3424727321,2024-06-05 18:44:04.448601
35.48860069,-6.783951283,-6.76361227,-0.3424727321,2024-06-05 18:44:04.488601
35.52860069,-6.783951283,-6.76361227,-0.3424727321,2024-06-05 18:44:04.528601
35.56860069,-6.783951283,-6.76361227,-0.3424727321,2024-06-05 18:44:04.568601
35.60860069,-7.980661869,-7.205686092,-0.6191428304,2024-06-05 18:44:04.608601
35.64860069,-7.980661869,-7.205686092,-0.6191428304,2024-06-05 18:44:04.648601
35.68860069,-7.980661869,-7.205686092,-0.6191428304,2024-06-05 18:44:04.688601
35.72860069,-7.980661869,-7.205686092,-0.6191428304,2024-06-05 18:44:04.728601
35.76860069,-7.980661869,-7.205686092,-0.6191428304,2024-06-05 18:44:04.768601
35.80860069,-7.980661869,-7.205686092,-0.6191428304,2024-06-05 18:44:04.808601
35.84860069,-7.980661869,-7.205686092,-0.6191428304,2024-06-05 18:44:04.848601
35.88860069,-7.980661869,-7.205686092,-0.6191428304,2024-06-05 18:44:04.888601
35.92860069,-7.980661869,-7.205686092,-0.6191428304,2024-06-05 18:44:04.928601
35.96860069,-7.980661869,-7.205686092,-0.6191428304,2024-06-05 18:44:04.968601
36.00860069,-7.980661869,-7.205686092,-0.6191428304,2024-06-05 18:44:05.008601
36.04860069,-7.980661869,-7.205686092,-0.6191428304,2024-06-05 18:44:05.048601
36.08860069,-7.980661869,-7.205686092,-0.6191428304,2024-06-05 18:44:05.088601
36.12860069,-7.980661869,-7.205686092,-0.6191428304,2024-06-05 18:44:05.128601
36.16860069,-7.980661869,-7.205686092,-0.6191428304,2024-06-05 18:44:05.168601
36.20860069,-7.980661869,-7.205686092,-0.6191428304,2024-06-05 18:44:05.208601
36.24860069,-7.980661869,-7.205686092,-0.6191428304,2024-06-05 18:44:05.248601
36.28860069,-7.980661869,-7.205686092,-0.6191428304,2024-06-05 18:44:05.288601
36.32860069,-7.980661869,-7.205686092,-0.6191428304,2024-06-05 18:44:05.328601
36.36860069,-7.452445984,-8.500502586,-0.5246263742,2024-06-05 18:44:05.368601
36.40860069,-7.452445984,-8.500502586,-0.5246263742,2024-06-05 18:44:05.408601
36.44860069,-7.452445984,-8.500502586,-0.5246263742,2024-06-05 18:44:05.448601
36.48860069,-7.452445984,-8.500502586,-0.5246263742,2024-06-05 18:44:05.488601
36.52860069,-7.452445984,-8.500502586,-0.5246263742,2024-06-05 18:44:05.528601
36.56860069,-7.452445984,-8.500502586,-0.5246263742,2024-06-05 18:44:05.568601
36.60860069,-8.387741089,-8.984451294,-0.9822536707,2024-06-05 18:44:05.608601
36.64860069,-8.387741089,-8.984451294,-0.9822536707,2024-06-05 18:44:05.648601
36.68860069,-8.387741089,-8.984451294,-0.9822536707,2024-06-05 18:44:05.688601
36.72860069,-8.387741089,-8.984451294,-0.9822536707,2024-06-05 18:44:05.728601
36.76860069,-8.387741089,-8.984451294,-0.9822536707,2024-06-05 18:44:05.768601
36.80860069,-8.387741089,-8.984451294,-0.9822536707,2024-06-05 18:44:05.808601
36.84860069,-8.387741089,-8.984451294,-0.9822536707,2024-06-05 18:44:05.848601
36.88860069,-8.387741089,-8.984451294,-0.9822536707,2024-06-05 18:44:05.888601
36.92860069,-8.387741089,-8.984451294,-0.9822536707,2024-06-05 18:44:05.928601
36.96860069,-8.387741089,-8.984451294,-0.9822536707,2024-06-05 18:44:05.968601
37.00860069,-8.387741089,-8.984451294,-0.9822536707,2024-06-05 18:44:06.008601
37.04860069,-8.387741089,-8.984451294,-0.9822536707,2024-06-05 18:44:06.048601
37.08860069,-8.387741089,-8.984451294,-0.9822536707,2024-06-05 18:44:06.088601
37.12860069,-8.387741089,-8.984451294,-0.9822536707,2024-06-05 18:44:06.128601
37.16860069,-8.387741089,-8.984451294,-0.9822536707,2024-06-05 18:44:06.168601
37.20860069,-8.387741089,-8.984451294,-0.9822536707,2024-06-05 18:44:06.208601
37.24860069,-8.387741089,-8.984451294,-0.9822536707,2024-06-05 18:44:06.248601
37.28860069,-8.387741089,-8.984451294,-0.9822536707,2024-06-05 18:44:06.288601
37.32860069,-8.387741089,-8.984451294,-0.9822536707,2024-06-05 18:44:06.328601
37.36860069,-7.202096939,-6.501298904,-0.332901448,2024-06-05 18:44:06.368601
37.40860069,-7.202096939,-6.501298904,-0.332901448,2024-06-05 18:44:06.408601
37.44860069,-7.202096939,-6.501298904,-0.332901448,2024-06-05 18:44:06.448601
37.48860069,-7.202096939,-6.501298904,-0.332901448,2024-06-05 18:44:06.488601
37.52860069,-7.202096939,-6.501298904,-0.332901448,2024-06-05 18:44:06.528601
37.56860069,-7.202096939,-6.501298904,-0.332901448,2024-06-05 18:44:06.568601
37.60860069,-9.202198029,-6.863213539,-1.849352837,2024-06-05 18:44:06.608601
37.64860069,-9.202198029,-6.863213539,-1.849352837,2024-06-05 18:44:06.648601
37.68860069,-9.202198029,-6.863213539,-1.849352837,2024-06-05 18:44:06.688601
37.72860069,-9.202198029,-6.863213539,-1.849352837,2024-06-05 18:44:06.728601
37.76860069,-9.202198029,-6.863213539,-1.849352837,2024-06-05 18:44:06.768601
37.80860069,-9.202198029,-6.863213539,-1.849352837,2024-06-05 18:44:06.808601
37.84860069,-9.202198029,-6.863213539,-1.849352837,2024-06-05 18:44:06.848601
37.88860069,-9.202198029,-6.863213539,-1.849352837,2024-06-05 18:44:06.888601
37.92860069,-9.202198029,-6.863213539,-1.849352837,2024-06-05 18:44:06.928601
37.96860069,-9.202198029,-6.863213539,-1.849352837,2024-06-05 18:44:06.968601
38.00860069,-9.202198029,-6.863213539,-1.849352837,2024-06-05 18:44:07.008601
38.04860069,-9.202198029,-6.863213539,-1.849352837,2024-06-05 18:44:07.048601
38.08860069,-9.202198029,-6.863213539,-1.849352837,2024-06-05 18:44:07.088601
38.12860069,-9.202198029,-6.863213539,-1.849352837,2024-06-05 18:44:07.128601
38.16860069,-9.202198029,-6.863213539,-1.849352837,2024-06-05 18:44:07.168601
38.20860069,-9.202198029,-6.863213539,-1.849352837,2024-06-05 18:44:07.208601
38.24860069,-9.202198029,-6.863213539,-1.849352837,2024-06-05 18:44:07.248601
38.28860069,-9.202198029,-6.863213539,-1.849352837,2024-06-05 18:44:07.288601
38.32860069,-9.202198029,-6.863213539,-1.849352837,2024-06-05 18:44:07.328601
38.36860069,-8.313563347,-8.150551796,0.3987040818,2024-06-05 18:44:07.368601
38.40860069,-8.313563347,-8.150551796,0.3987040818,2024-06-05 18:44:07.408601
38.44860069,-8.313563347,-8.150551796,0.3987040818,2024-06-05 18:44:07.448601
38.48860069,-8.313563347,-8.150551796,0.3987040818,2024-06-05 18:44:07.488601
38.52860069,-8.313563347,-8.150551796,0.3987040818,2024-06-05 18:44:07.528601
38.56860069,-8.313563347,-8.150551796,0.3987040818,2024-06-05 18:44:07.568601
38.60860069,-10.95823002,-6.460621357,-0.2694916427,2024-06-05 18:44:07.608601
38.64860069,-10.95823002,-6.460621357,-0.2694916427,2024-06-05 18:44:07.648601
38.68860069,-10.95823002,-6.460621357,-0.2694916427,2024-06-05 18:44:07.688601
38.72860069,-10.95823002,-6.460621357,-0.2694916427,2024-06-05 18:44:07.728601
38.76860069,-10.95823002,-6.460621357,-0.2694916427,2024-06-05 18:44:07.768601
38.80860069,-10.95823002,-6.460621357,-0.2694916427,2024-06-05 18:44:07.808601
38.84860069,-10.95823002,-6.460621357,-0.2694916427,2024-06-05 18:44:07.848601
38.88860069,-10.95823002,-6.460621357,-0.2694916427,2024-06-05 18:44:07.888601
38.92860069,-10.95823002,-6.460621357,-0.2694916427,2024-06-05 18:44:07.928601
38.96860069,-10.95823002,-6.460621357,-0.2694916427,2024-06-05 18:44:07.968601
39.00860069,-10.95823002,-6.460621357,-0.2694916427,2024-06-05 18:44:08.008601
39.04860069,-10.95823002,-6.460621357,-0.2694916427,2024-06-05 18:44:08.048601
39.08860069,-10.95823002,-6.460621357,-0.2694916427,2024-06-05 18:44:08.088601
39.12860069,-10.95823002,-6.460621357,-0.2694916427,2024-06-05 18:44:08.128601
39.16860069,-10.95823002,-6.460621357,-0.2694916427,2024-06-05 18:44:08.168601
39.20860069,-10.95823002,-6.460621357,-0.2694916427,2024-06-05 18:44:08.208601
39.24860069,-10.95823002,-6.460621357,-0.2694916427,2024-06-05 18:44:08.248601
39.28860069,-10.95823002,-6.460621357,-0.2694916427,2024-06-05 18:44:08.288601
39.32860069,-10.95823002,-6.460621357,-0.2694916427,2024-06-05 18:44:08.328601
39.36860069,-10.95823002,-6.460621357,-0.2694916427,2024-06-05 18:44:08.368601
39.40860069,-10.95823002,-6.460621357,-0.2694916427,2024-06-05 18:44:08.408601
39.44860069,-10.95823002,-6.460621357,-0.2694916427,2024-06-05 18:44:08.448601
39.48860069,-10.95823002,-6.460621357,-0.2694916427,2024-06-05 18:44:08.488601
39.52860069,-10.95823002,-6.460621357,-0.2694916427,2024-06-05 18:44:08.528601
39.56860069,-10.95823002,-6.460621357,-0.2694916427,2024-06-05 18:44:08.568601
39.60860069,-8.56271553,-7.200900555,-1.075573802,2024-06-05 18:44:08.608601
39.64860069,-8.56271553,-7.200900555,-1.075573802,2024-06-05 18:44:08.648601
39.68860069,-8.56271553,-7.200900555,-1.075573802,2024-06-05 18:44:08.688601
39.72860069,-8.56271553,-7.200900555,-1.075573802,2024-06-05 18:44:08.728601
39.76860069,-8.56271553,-7.200900555,-1.075573802,2024-06-05 18:44:08.768601
39.80860069,-8.56271553,-7.200900555,-1.075573802,2024-06-05 18:44:08.808601
39.84860069,-8.56271553,-7.200900555,-1.075573802,2024-06-05 18:44:08.848601
39.88860069,-8.56271553,-7.200900555,-1.075573802,2024-06-05 18:44:08.888601
39.92860069,-8.56271553,-7.200900555,-1.075573802,2024-06-05 18:44:08.928601
39.96860069,-8.56271553,-7.200900555,-1.075573802,2024-06-05 18:44:08.968601
40.00860069,-8.56271553,-7.200900555,-1.075573802,2024-06-05 18:44:09.008601
40.04860069,-8.56271553,-7.200900555,-1.075573802,2024-06-05 18:44:09.048601
40.08860069,-8.56271553,-7.200900555,-1.075573802,2024-06-05 18:44:09.088601
40.12860069,-8.56271553,-7.200900555,-1.075573802,2024-06-05 18:44:09.128601
40.16860069,-8.56271553,-7.200900555,-1.075573802,2024-06-05 18:44:09.168601
40.20860069,-8.56271553,-7.200900555,-1.075573802,2024-06-05 18:44:09.208601
40.24860069,-8.56271553,-7.200900555,-1.075573802,2024-06-05 18:44:09.248601
40.28860069,-8.56271553,-7.200900555,-1.075573802,2024-06-05 18:44:09.288601
40.32860069,-8.56271553,-7.200900555,-1.075573802,2024-06-05 18:44:09.328601
40.36860069,-8.165207863,-7.106384277,-0.7857431173,2024-06-05 18:44:09.368601
40.40860069,-8.165207863,-7.106384277,-0.7857431173,2024-06-05 18:44:09.408601
40.44860069,-8.165207863,-7.106384277,-0.7857431173,2024-06-05 18:44:09.448601
40.48860069,-8.165207863,-7.106384277,-0.7857431173,2024-06-05 18:44:09.488601
40.52860069,-8.165207863,-7.106384277,-0.7857431173,2024-06-05 18:44:09.528601
40.56860069,-8.165207863,-7.106384277,-0.7857431173,2024-06-05 18:44:09.568601
40.60860069,-8.165207863,-7.106384277,-0.7857431173,2024-06-05 18:44:09.608601
40.64860069,-8.165207863,-7.106384277,-0.7857431173,2024-06-05 18:44:09.648601
40.68860069,-8.165207863,-7.106384277,-0.7857431173,2024-06-05 18:44:09.688601
40.72860069,-8.165207863,-7.106384277,-0.7857431173,2024-06-05 18:44:09.728601
40.76860069,-8.165207863,-7.106384277,-0.7857431173,2024-06-05 18:44:09.768601
40.80860069,-8.165207863,-7.106384277,-0.7857431173,2024-06-05 18:44:09.808601
40.84860069,-8.165207863,-7.106384277,-0.7857431173,2024-06-05 18:44:09.848601
40.88860069,-8.165207863,-7.106384277,-0.7857431173,2024-06-05 18:44:09.888601
40.92860069,-8.165207863,-7.106384277,-0.7857431173,2024-06-05 18:44:09.928601
40.96860069,-8.165207863,-7.106384277,-0.7857431173,2024-06-05 18:44:09.968601
41.00860069,-8.165207863,-7.106384277,-0.7857431173,2024-06-05 18:44:10.008601
41.04860069,-8.165207863,-7.106384277,-0.7857431173,2024-06-05 18:44:10.048601
41.08860069,-8.165207863,-7.106384277,-0.7857431173,2024-06-05 18:44:10.088601
41.12860069,-8.165207863,-7.106384277,-0.7857431173,2024-06-05 18:44:10.128601
41.16860069,-8.165207863,-7.106384277,-0.7857431173,2024-06-05 18:44:10.168601
41.20860069,-8.165207863,-7.106384277,-0.7857431173,2024-06-05 18:44:10.208601
41.24860069,-8.165207863,-7.106384277,-0.7857431173,2024-06-05 18:44:10.248601
41.28860069,-8.481359482,-7.695616722,-0.3723830283,2024-06-05 18:44:10.288601
41.32860069,-8.481359482,-7.695616722,-0.3723830283,2024-06-05 18:44:10.328601
41.36860069,-9.040681839,-7.812865257,0.1076770201,2024-06-05 18:44:10.368601
41.40860069,-9.040681839,-7.812865257,0.1076770201,2024-06-05 18:44:10.408601
41.44860069,-9.040681839,-7.812865257,0.1076770201,2024-06-05 18:44:10.448601
41.48860069,-9.040681839,-7.812865257,0.1076770201,2024-06-05 18:44:10.488601
41.52860069,-9.040681839,-7.812865257,0.1076770201,2024-06-05 18:44:10.528601
41.56860069,-9.040681839,-7.812865257,0.1076770201,2024-06-05 18:44:10.568601
41.60860069,-9.040681839,-7.812865257,0.1076770201,2024-06-05 18:44:10.608601
41.64860069,-9.040681839,-7.812865257,0.1076770201,2024-06-05 18:44:10.648601
41.68860069,-9.040681839,-7.812865257,0.1076770201,2024-06-05 18:44:10.688601
41.72860069,-9.040681839,-7.812865257,0.1076770201,2024-06-05 18:44:10.728601
41.76860069,-9.040681839,-7.812865257,0.1076770201,2024-06-05 18:44:10.768601
41.80860069,-9.040681839,-7.812865257,0.1076770201,2024-06-05 18:44:10.808601
41.84860069,-9.040681839,-7.812865257,0.1076770201,2024-06-05 18:44:10.848601
41.88860069,-9.040681839,-7.812865257,0.1076770201,2024-06-05 18:44:10.888601
41.92860069,-9.040681839,-7.812865257,0.1076770201,2024-06-05 18:44:10.928601
41.96860069,-9.040681839,-7.812865257,0.1076770201,2024-06-05 18:44:10.968601
42.00860069,-9.040681839,-7.812865257,0.1076770201,2024-06-05 18:44:11.008601
42.04860069,-9.040681839,-7.812865257,0.1076770201,2024-06-05 18:44:11.048601
42.08860069,-9.040681839,-7.812865257,0.1076770201,2024-06-05 18:44:11.088601
42.12860069,-9.040681839,-7.812865257,0.1076770201,2024-06-05 18:44:11.128601
42.16860069,-9.040681839,-7.812865257,0.1076770201,2024-06-05 18:44:11.168601
42.20860069,-9.040681839,-7.812865257,0.1076770201,2024-06-05 18:44:11.208601
42.24860069,-9.040681839,-7.812865257,0.1076770201,2024-06-05 18:44:11.248601
42.28860069,-9.040681839,-7.812865257,0.1076770201,2024-06-05 18:44:11.288601
42.32860069,-9.040681839,-7.812865257,0.1076770201,2024-06-05 18:44:11.328601
42.36860069,-9.040681839,-7.812865257,0.1076770201,2024-06-05 18:44:11.368601
42.40860069,-9.040681839,-7.812865257,0.1076770201,2024-06-05 18:44:11.408601
42.44860069,-9.040681839,-7.812865257,0.1076770201,2024-06-05 18:44:11.448601
42.48860069,-9.040681839,-7.812865257,0.1076770201,2024-06-05 18:44:11.488601
42.52860069,-9.040681839,-7.812865257,0.1076770201,2024-06-05 18:44:11.528601
42.56860069,-9.040681839,-7.812865257,0.1076770201,2024-06-05 18:44:11.568601
42.60860069,-5.320441246,-2.817249537,-1.989332914,2024-06-05 18:44:11.608601
42.64860069,-5.320441246,-2.817249537,-1.989332914,2024-06-05 18:44:11.648601
42.68860069,-5.320441246,-2.817249537,-1.989332914,2024-06-05 18:44:11.688601
42.72860069,-5.320441246,-2.817249537,-1.989332914,2024-06-05 18:44:11.728601
42.76860069,-5.320441246,-2.817249537,-1.989332914,2024-06-05 18:44:11.768601
42.80860069,-5.320441246,-2.817249537,-1.989332914,2024-06-05 18:44:11.808601
42.84860069,-5.320441246,-2.817249537,-1.989332914,2024-06-05 18:44:11.848601
42.88860069,-5.320441246,-2.817249537,-1.989332914,2024-06-05 18:44:11.888601
42.92860069,-5.320441246,-2.817249537,-1.989332914,2024-06-05 18:44:11.928601
42.96860069,-5.320441246,-2.817249537,-1.989332914,2024-06-05 18:44:11.968601
43.00860069,-5.320441246,-2.817249537,-1.989332914,2024-06-05 18:44:12.008601
43.04860069,-5.320441246,-2.817249537,-1.989332914,2024-06-05 18:44:12.048601
43.08860069,-5.320441246,-2.817249537,-1.989332914,2024-06-05 18:44:12.088601
43.12860069,-9.417850494,-9.289834976,-1.339083314,2024-06-05 18:44:12.128601
43.16860069,-9.417850494,-9.289834976,-1.339083314,2024-06-05 18:44:12.168601
43.20860069,-9.417850494,-9.289834976,-1.339083314,2024-06-05 18:44:12.208601
43.24860069,-9.417850494,-9.289834976,-1.339083314,2024-06-05 18:44:12.248601
43.28860069,-9.417850494,-9.289834976,-1.339083314,2024-06-05 18:44:12.288601
43.32860069,-9.417850494,-9.289834976,-1.339083314,2024-06-05 18:44:12.328601
43.36860069,-9.423832893,-7.699205875,-1.395314693,2024-06-05 18:44:12.368601
43.40860069,-9.423832893,-7.699205875,-1.395314693,2024-06-05 18:44:12.408601
43.44860069,-9.423832893,-7.699205875,-1.395314693,2024-06-05 18:44:12.448601
43.48860069,-9.423832893,-7.699205875,-1.395314693,2024-06-05 18:44:12.488601
43.52860069,-9.423832893,-7.699205875,-1.395314693,2024-06-05 18:44:12.528601
43.56860069,-9.423832893,-7.699205875,-1.395314693,2024-06-05 18:44:12.568601
43.60860069,-6.845267296,-2.433799744,0.5629115105,2024-06-05 18:44:12.608601
43.64860069,-6.845267296,-2.433799744,0.5629115105,2024-06-05 18:44:12.648601
43.68860069,-6.845267296,-2.433799744,0.5629115105,2024-06-05 18:44:12.688601
43.72860069,-6.845267296,-2.433799744,0.5629115105,2024-06-05 18:44:12.728601
43.76860069,-6.845267296,-2.433799744,0.5629115105,2024-06-05 18:44:12.768601
43.80860069,-6.845267296,-2.433799744,0.5629115105,2024-06-05 18:44:12.808601
43.84860069,-6.845267296,-2.433799744,0.5629115105,2024-06-05 18:44:12.848601
43.88860069,-6.845267296,-2.433799744,0.5629115105,2024-06-05 18:44:12.888601
43.92860069,-6.845267296,-2.433799744,0.5629115105,2024-06-05 18:44:12.928601
43.96860069,-6.845267296,-2.433799744,0.5629115105,2024-06-05 18:44:12.968601
44.00860069,-6.845267296,-2.433799744,0.5629115105,2024-06-05 18:44:13.008601
44.04860069,-6.845267296,-2.433799744,0.5629115105,2024-06-05 18:44:13.048601
44.08860069,-6.845267296,-2.433799744,0.5629115105,2024-06-05 18:44:13.088601
44.12860069,-6.845267296,-2.433799744,0.5629115105,2024-06-05 18:44:13.128601
44.16860069,-6.845267296,-2.433799744,0.5629115105,2024-06-05 18:44:13.168601
44.20860069,-6.845267296,-2.433799744,0.5629115105,2024-06-05 18:44:13.208601
44.24860069,-6.845267296,-2.433799744,0.5629115105,2024-06-05 18:44:13.248601
44.28860069,-6.845267296,-2.433799744,0.5629115105,2024-06-05 18:44:13.288601
44.32860069,-6.845267296,-2.433799744,0.5629115105,2024-06-05 18:44:13.328601
44.36860069,-6.845267296,-2.433799744,0.5629115105,2024-06-05 18:44:13.368601
44.40860069,-6.845267296,-2.433799744,0.5629115105,2024-06-05 18:44:13.408601
44.44860069,-6.845267296,-2.433799744,0.5629115105,2024-06-05 18:44:13.448601
44.48860069,-6.845267296,-2.433799744,0.5629115105,2024-06-05 18:44:13.488601
44.52860069,-6.845267296,-2.433799744,0.5629115105,2024-06-05 18:44:13.528601
44.56860069,-6.845267296,-2.433799744,0.5629115105,2024-06-05 18:44:13.568601
44.60860069,-5.103591442,-3.87218523,-0.2036890239,2024-06-05 18:44:13.608601
44.64860069,-5.103591442,-3.87218523,-0.2036890239,2024-06-05 18:44:13.648601
44.68860069,-5.103591442,-3.87218523,-0.2036890239,2024-06-05 18:44:13.688601
44.72860069,-5.103591442,-3.87218523,-0.2036890239,2024-06-05 18:44:13.728601
44.76860069,-5.103591442,-3.87218523,-0.2036890239,2024-06-05 18:44:13.768601
44.80860069,-5.103591442,-3.87218523,-0.2036890239,2024-06-05 18:44:13.808601
44.84860069,-5.103591442,-3.87218523,-0.2036890239,2024-06-05 18:44:13.848601
44.88860069,-5.103591442,-3.87218523,-0.2036890239,2024-06-05 18:44:13.888601
44.92860069,-5.103591442,-3.87218523,-0.2036890239,2024-06-05 18:44:13.928601
44.96860069,-5.103591442,-3.87218523,-0.2036890239,2024-06-05 18:44:13.968601
45.00860069,-5.103591442,-3.87218523,-0.2036890239,2024-06-05 18:44:14.008601
45.04860069,-5.103591442,-3.87218523,-0.2036890239,2024-06-05 18:44:14.048601
45.08860069,-5.103591442,-3.87218523,-0.2036890239,2024-06-05 18:44:14.088601
45.12860069,-5.103591442,-3.87218523,-0.2036890239,2024-06-05 18:44:14.128601
45.16860069,-5.103591442,-3.87218523,-0.2036890239,2024-06-05 18:44:14.168601
45.20860069,-5.103591442,-3.87218523,-0.2036890239,2024-06-05 18:44:14.208601
45.24860069,-5.103591442,-3.87218523,-0.2036890239,2024-06-05 18:44:14.248601
45.28860069,-5.103591442,-3.87218523,-0.2036890239,2024-06-05 18:44:14.288601
45.32860069,-5.103591442,-3.87218523,-0.2036890239,2024-06-05 18:44:14.328601
45.36860069,-10.82512951,-7.638188839,-0.4576273263,2024-06-05 18:44:14.368601
45.40860069,-10.82512951,-7.638188839,-0.4576273263,2024-06-05 18:44:14.408601
45.44860069,-10.82512951,-7.638188839,-0.4576273263,2024-06-05 18:44:14.448601
45.48860069,-10.82512951,-7.638188839,-0.4576273263,2024-06-05 18:44:14.488601
45.52860069,-10.82512951,-7.638188839,-0.4576273263,2024-06-05 18:44:14.528601
45.56860069,-10.82512951,-7.638188839,-0.4576273263,2024-06-05 18:44:14.568601
45.60860069,-4.95015192,-3.87218523,-0.05144568533,2024-06-05 18:44:14.608601
45.64860069,-4.95015192,-3.87218523,-0.05144568533,2024-06-05 18:44:14.648601
45.68860069,-4.95015192,-3.87218523,-0.05144568533,2024-06-05 18:44:14.688601
45.72860069,-4.95015192,-3.87218523,-0.05144568533,2024-06-05 18:44:14.728601
45.76860069,-4.95015192,-3.87218523,-0.05144568533,2024-06-05 18:44:14.768601
45.80860069,-4.95015192,-3.87218523,-0.05144568533,2024-06-05 18:44:14.808601
45.84860069,-4.95015192,-3.87218523,-0.05144568533,2024-06-05 18:44:14.848601
45.88860069,-4.95015192,-3.87218523,-0.05144568533,2024-06-05 18:44:14.888601
45.92860069,-4.95015192,-3.87218523,-0.05144568533,2024-06-05 18:44:14.928601
45.96860069,-4.95015192,-3.87218523,-0.05144568533,2024-06-05 18:44:14.968601
46.00860069,-4.95015192,-3.87218523,-0.05144568533,2024-06-05 18:44:15.008601
46.04860069,-4.95015192,-3.87218523,-0.05144568533,2024-06-05 18:44:15.048601
46.08860069,-4.95015192,-3.87218523,-0.05144568533,2024-06-05 18:44:15.088601
46.12860069,-4.95015192,-3.87218523,-0.05144568533,2024-06-05 18:44:15.128601
46.16860069,-4.95015192,-3.87218523,-0.05144568533,2024-06-05 18:44:15.168601
46.20860069,-4.95015192,-3.87218523,-0.05144568533,2024-06-05 18:44:15.208601
46.24860069,-4.95015192,-3.87218523,-0.05144568533,2024-06-05 18:44:15.248601
46.28860069,-7.064210415,-6.938587666,-0.3520440459,2024-06-05 18:44:15.288601
46.32860069,-7.064210415,-6.938587666,-0.3520440459,2024-06-05 18:44:15.328601
46.36860069,-8.66680336,-5.266602516,0.323330164,2024-06-05 18:44:15.368601
46.40860069,-8.66680336,-5.266602516,0.323330164,2024-06-05 18:44:15.408601
46.44860069,-8.66680336,-5.266602516,0.323330164,2024-06-05 18:44:15.448601
46.48860069,-8.66680336,-5.266602516,0.323330164,2024-06-05 18:44:15.488601
46.52860069,-8.66680336,-5.266602516,0.323330164,2024-06-05 18:44:15.528601
46.56860069,-8.66680336,-5.266602516,0.323330164,2024-06-05 18:44:15.568601
46.60860069,-8.66680336,-5.266602516,0.323330164,2024-06-05 18:44:15.608601
46.64860069,-8.66680336,-5.266602516,0.323330164,2024-06-05 18:44:15.648601
46.68860069,-8.66680336,-5.266602516,0.323330164,2024-06-05 18:44:15.688601
46.72860069,-8.66680336,-5.266602516,0.323330164,2024-06-05 18:44:15.728601
46.76860069,-8.66680336,-5.266602516,0.323330164,2024-06-05 18:44:15.768601
46.80860069,-8.66680336,-5.266602516,0.323330164,2024-06-05 18:44:15.808601
46.84860069,-8.66680336,-5.266602516,0.323330164,2024-06-05 18:44:15.848601
46.88860069,-8.66680336,-5.266602516,0.323330164,2024-06-05 18:44:15.888601
46.92860069,-8.66680336,-5.266602516,0.323330164,2024-06-05 18:44:15.928601
46.96860069,-8.66680336,-5.266602516,0.323330164,2024-06-05 18:44:15.968601
47.00860069,-8.66680336,-5.266602516,0.323330164,2024-06-05 18:44:16.008601
47.04860069,-8.66680336,-5.266602516,0.323330164,2024-06-05 18:44:16.048601
47.08860069,-8.66680336,-5.266602516,0.323330164,2024-06-05 18:44:16.088601
47.12860069,-8.66680336,-5.266602516,0.323330164,2024-06-05 18:44:16.128601
47.16860069,-8.66680336,-5.266602516,0.323330164,2024-06-05 18:44:16.168601
47.20860069,-8.66680336,-5.266602516,0.323330164,2024-06-05 18:44:16.208601
47.24860069,-8.66680336,-5.266602516,0.323330164,2024-06-05 18:44:16.248601
47.28860069,-8.66680336,-5.266602516,0.323330164,2024-06-05 18:44:16.288601
47.32860069,-8.66680336,-5.266602516,0.323330164,2024-06-05 18:44:16.328601
47.36860069,-10.43599701,-7.712366581,-0.5330012441,2024-06-05 18:44:16.368601
47.40860069,-10.43599701,-7.712366581,-0.5330012441,2024-06-05 18:44:16.408601
47.44860069,-10.43599701,-7.712366581,-0.5330012441,2024-06-05 18:44:16.448601
47.48860069,-10.43599701,-7.712366581,-0.5330012441,2024-06-05 18:44:16.488601
47.52860069,-10.43599701,-7.712366581,-0.5330012441,2024-06-05 18:44:16.528601
47.56860069,-10.43599701,-7.712366581,-0.5330012441,2024-06-05 18:44:16.568601
47.60860069,-10.43599701,-7.712366581,-0.5330012441,2024-06-05 18:44:16.608601
47.64860069,-10.43599701,-7.712366581,-0.5330012441,2024-06-05 18:44:16.648601
47.68860069,-10.43599701,-7.712366581,-0.5330012441,2024-06-05 18:44:16.688601
47.72860069,-10.43599701,-7.712366581,-0.5330012441,2024-06-05 18:44:16.728601
47.76860069,-10.43599701,-7.712366581,-0.5330012441,2024-06-05 18:44:16.768601
47.80860069,-10.43599701,-7.712366581,-0.5330012441,2024-06-05 18:44:16.808601
47.84860069,-10.43599701,-7.712366581,-0.5330012441,2024-06-05 18:44:16.848601
47.88860069,-10.43599701,-7.712366581,-0.5330012441,2024-06-05 18:44:16.888601
47.92860069,-10.43599701,-7.712366581,-0.5330012441,2024-06-05 18:44:16.928601
47.96860069,-13.0268259,-7.71475935,-1.224227905,2024-06-05 18:44:16.968601
48.00860069,-13.0268259,-7.71475935,-1.224227905,2024-06-05 18:44:17.008601
48.04860069,-13.0268259,-7.71475935,-1.224227905,2024-06-05 18:44:17.048601
48.08860069,-13.0268259,-7.71475935,-1.224227905,2024-06-05 18:44:17.088601
48.12860069,-7.957930088,-4.140480518,1.276870012,2024-06-05 18:44:17.128601
48.16860069,-7.957930088,-4.140480518,1.276870012,2024-06-05 18:44:17.168601
48.20860069,-7.957930088,-4.140480518,1.276870012,2024-06-05 18:44:17.208601
48.24860069,-7.957930088,-4.140480518,1.276870012,2024-06-05 18:44:17.248601
48.28860069,-7.957930088,-4.140480518,1.276870012,2024-06-05 18:44:17.288601
48.32860069,-7.957930088,-4.140480518,1.276870012,2024-06-05 18:44:17.328601
48.36860069,-14.05693531,-5.857031822,-1.156929731,2024-06-05 18:44:17.368601
48.40860069,-14.05693531,-5.857031822,-1.156929731,2024-06-05 18:44:17.408601
48.44860069,-14.05693531,-5.857031822,-1.156929731,2024-06-05 18:44:17.448601
48.48860069,-14.05693531,-5.857031822,-1.156929731,2024-06-05 18:44:17.488601
48.52860069,-14.05693531,-5.857031822,-1.156929731,2024-06-05 18:44:17.528601
48.56860069,-14.05693531,-5.857031822,-1.156929731,2024-06-05 18:44:17.568601
48.60860069,-14.05693531,-5.857031822,-1.156929731,2024-06-05 18:44:17.608601
48.64860069,-14.05693531,-5.857031822,-1.156929731,2024-06-05 18:44:17.648601
48.68860069,-14.05693531,-5.857031822,-1.156929731,2024-06-05 18:44:17.688601
48.72860069,-14.05693531,-5.857031822,-1.156929731,2024-06-05 18:44:17.728601
48.76860069,-14.05693531,-5.857031822,-1.156929731,2024-06-05 18:44:17.768601
48.80860069,-14.05693531,-5.857031822,-1.156929731,2024-06-05 18:44:17.808601
48.84860069,-14.05693531,-5.857031822,-1.156929731,2024-06-05 18:44:17.848601
48.88860069,-14.05693531,-5.857031822,-1.156929731,2024-06-05 18:44:17.888601
48.92860069,-14.05693531,-5.857031822,-1.156929731,2024-06-05 18:44:17.928601
48.96860069,-14.05693531,-5.857031822,-1.156929731,2024-06-05 18:44:17.968601
49.00860069,-14.05693531,-5.857031822,-1.156929731,2024-06-05 18:44:18.008601
49.04860069,-14.05693531,-5.857031822,-1.156929731,2024-06-05 18:44:18.048601
49.08860069,-14.05693531,-5.857031822,-1.156929731,2024-06-05 18:44:18.088601
49.12860069,-14.05693531,-5.857031822,-1.156929731,2024-06-05 18:44:18.128601
49.16860069,-14.05693531,-5.857031822,-1.156929731,2024-06-05 18:44:18.168601
49.20860069,-14.05693531,-5.857031822,-1.156929731,2024-06-05 18:44:18.208601
49.24860069,-14.05693531,-5.857031822,-1.156929731,2024-06-05 18:44:18.248601
49.28860069,-14.05693531,-5.857031822,-1.156929731,2024-06-05 18:44:18.288601
49.32860069,-14.05693531,-5.857031822,-1.156929731,2024-06-05 18:44:18.328601
49.36860069,-14.05693531,-5.857031822,-1.156929731,2024-06-05 18:44:18.368601
49.40860069,-14.05693531,-5.857031822,-1.156929731,2024-06-05 18:44:18.408601
49.44860069,-14.05693531,-5.857031822,-1.156929731,2024-06-05 18:44:18.448601
49.48860069,-14.05693531,-5.857031822,-1.156929731,2024-06-05 18:44:18.488601
49.52860069,-14.05693531,-5.857031822,-1.156929731,2024-06-05 18:44:18.528601
49.56860069,-14.05693531,-5.857031822,-1.156929731,2024-06-05 18:44:18.568601
49.60860069,-1.843370795,-0.7761718631,0.7115656137,2024-06-05 18:44:18.608601
49.64860069,-1.843370795,-0.7761718631,0.7115656137,2024-06-05 18:44:18.648601
49.68860069,-1.843370795,-0.7761718631,0.7115656137,2024-06-05 18:44:18.688601
49.72860069,-1.843370795,-0.7761718631,0.7115656137,2024-06-05 18:44:18.728601
49.76860069,-1.843370795,-0.7761718631,0.7115656137,2024-06-05 18:44:18.768601
49.80860069,-1.843370795,-0.7761718631,0.7115656137,2024-06-05 18:44:18.808601
49.84860069,-1.843370795,-0.7761718631,0.7115656137,2024-06-05 18:44:18.848601
49.88860069,-1.843370795,-0.7761718631,0.7115656137,2024-06-05 18:44:18.888601
49.92860069,-1.843370795,-0.7761718631,0.7115656137,2024-06-05 18:44:18.928601
49.96860069,-1.843370795,-0.7761718631,0.7115656137,2024-06-05 18:44:18.968601
50.00860069,-1.843370795,-0.7761718631,0.7115656137,2024-06-05 18:44:19.008601
50.04860069,-1.843370795,-0.7761718631,0.7115656137,2024-06-05 18:44:19.048601
50.08860069,-1.843370795,-0.7761718631,0.7115656137,2024-06-05 18:44:19.088601
50.12860069,-1.843370795,-0.7761718631,0.7115656137,2024-06-05 18:44:19.128601
50.16860069,-1.843370795,-0.7761718631,0.7115656137,2024-06-05 18:44:19.168601
50.20860069,-1.843370795,-0.7761718631,0.7115656137,2024-06-05 18:44:19.208601
50.24860069,-1.843370795,-0.7761718631,0.7115656137,2024-06-05 18:44:19.248601
50.28860069,-1.843370795,-0.7761718631,0.7115656137,2024-06-05 18:44:19.288601
50.32860069,-1.843370795,-0.7761718631,0.7115656137,2024-06-05 18:44:19.328601
50.36860069,-8.970093727,-6.667899609,-1.171286702,2024-06-05 18:44:19.368601
50.40860069,-8.970093727,-6.667899609,-1.171286702,2024-06-05 18:44:19.408601
50.44860069,-8.970093727,-6.667899609,-1.171286702,2024-06-05 18:44:19.448601
50.48860069,-8.970093727,-6.667899609,-1.171286702,2024-06-05 18:44:19.488601
50.52860069,-8.970093727,-6.667899609,-1.171286702,2024-06-05 18:44:19.528601
50.56860069,-8.970093727,-6.667899609,-1.171286702,2024-06-05 18:44:19.568601
50.60860069,-8.970093727,-6.667899609,-1.171286702,2024-06-05 18:44:19.608601
50.64860069,-8.970093727,-6.667899609,-1.171286702,2024-06-05 18:44:19.648601
50.68860069,-8.970093727,-6.667899609,-1.171286702,2024-06-05 18:44:19.688601
50.72860069,-8.970093727,-6.667899609,-1.171286702,2024-06-05 18:44:19.728601
50.76860069,-8.970093727,-6.667899609,-1.171286702,2024-06-05 18:44:19.768601
50.80860069,-8.970093727,-6.667899609,-1.171286702,2024-06-05 18:44:19.808601
50.84860069,-8.970093727,-6.667899609,-1.171286702,2024-06-05 18:44:19.848601
50.88860069,-8.970093727,-6.667899609,-1.171286702,2024-06-05 18:44:19.888601
50.92860069,-8.970093727,-6.667899609,-1.171286702,2024-06-05 18:44:19.928601
50.96860069,-8.970093727,-6.667899609,-1.171286702,2024-06-05 18:44:19.968601
51.00860069,-8.970093727,-6.667899609,-1.171286702,2024-06-05 18:44:20.008601
51.04860069,-8.970093727,-6.667899609,-1.171286702,2024-06-05 18:44:20.048601
51.08860069,-8.970093727,-6.667899609,-1.171286702,2024-06-05 18:44:20.088601
51.12860069,-8.970093727,-6.667899609,-1.171286702,2024-06-05 18:44:20.128601
51.16860069,-8.970093727,-6.667899609,-1.171286702,2024-06-05 18:44:20.168601
51.20860069,-8.970093727,-6.667899609,-1.171286702,2024-06-05 18:44:20.208601
51.24860069,-8.970093727,-6.667899609,-1.171286702,2024-06-05 18:44:20.248601
51.28860069,-8.970093727,-6.667899609,-1.171286702,2024-06-05 18:44:20.288601
51.32860069,-8.970093727,-6.667899609,-1.171286702,2024-06-05 18:44:20.328601
51.36860069,-8.402097702,-5.156233788,-1.341476202,2024-06-05 18:44:20.368601
51.40860069,-8.402097702,-5.156233788,-1.341476202,2024-06-05 18:44:20.408601
51.44860069,-8.402097702,-5.156233788,-1.341476202,2024-06-05 18:44:20.448601
51.48860069,-8.402097702,-5.156233788,-1.341476202,2024-06-05 18:44:20.488601
51.52860069,-8.402097702,-5.156233788,-1.341476202,2024-06-05 18:44:20.528601
51.56860069,-8.402097702,-5.156233788,-1.341476202,2024-06-05 18:44:20.568601
51.60860069,-3.540480137,-1.983350873,-0.3388835192,2024-06-05 18:44:20.608601
51.64860069,-3.540480137,-1.983350873,-0.3388835192,2024-06-05 18:44:20.648601
51.68860069,-3.540480137,-1.983350873,-0.3388835192,2024-06-05 18:44:20.688601
51.72860069,-3.540480137,-1.983350873,-0.3388835192,2024-06-05 18:44:20.728601
51.76860069,-3.540480137,-1.983350873,-0.3388835192,2024-06-05 18:44:20.768601
51.80860069,-3.540480137,-1.983350873,-0.3388835192,2024-06-05 18:44:20.808601
51.84860069,-3.540480137,-1.983350873,-0.3388835192,2024-06-05 18:44:20.848601
51.88860069,-3.540480137,-1.983350873,-0.3388835192,2024-06-05 18:44:20.888601
51.92860069,-3.540480137,-1.983350873,-0.3388835192,2024-06-05 18:44:20.928601
51.96860069,-3.540480137,-1.983350873,-0.3388835192,2024-06-05 18:44:20.968601
52.00860069,-3.540480137,-1.983350873,-0.3388835192,2024-06-05 18:44:21.008601
52.04860069,-3.540480137,-1.983350873,-0.3388835192,2024-06-05 18:44:21.048601
52.08860069,-3.540480137,-1.983350873,-0.3388835192,2024-06-05 18:44:21.088601
52.12860069,-3.540480137,-1.983350873,-0.3388835192,2024-06-05 18:44:21.128601
52.16860069,-3.540480137,-1.983350873,-0.3388835192,2024-06-05 18:44:21.168601
52.20860069,-3.540480137,-1.983350873,-0.3388835192,2024-06-05 18:44:21.208601
52.24860069,-3.540480137,-1.983350873,-0.3388835192,2024-06-05 18:44:21.248601
52.28860069,-3.540480137,-1.983350873,-0.3388835192,2024-06-05 18:44:21.288601
52.32860069,-3.540480137,-1.983350873,-0.3388835192,2024-06-05 18:44:21.328601
52.36860069,-3.35862565,-2.285444736,0.6299105883,2024-06-05 18:44:21.368601
52.40860069,-3.35862565,-2.285444736,0.6299105883,2024-06-05 18:44:21.408601
52.44860069,-3.35862565,-2.285444736,0.6299105883,2024-06-05 18:44:21.448601
52.48860069,-3.35862565,-2.285444736,0.6299105883,2024-06-05 18:44:21.488601
52.52860069,-3.35862565,-2.285444736,0.6299105883,2024-06-05 18:44:21.528601
52.56860069,-3.35862565,-2.285444736,0.6299105883,2024-06-05 18:44:21.568601
52.60860069,-8.696713448,-7.220043182,-1.215852976,2024-06-05 18:44:21.608601
52.64860069,-8.696713448,-7.220043182,-1.215852976,2024-06-05 18:44:21.648601
52.68860069,-8.696713448,-7.220043182,-1.215852976,2024-06-05 18:44:21.688601
52.72860069,-8.696713448,-7.220043182,-1.215852976,2024-06-05 18:44:21.728601
52.76860069,-8.696713448,-7.220043182,-1.215852976,2024-06-05 18:44:21.768601
52.80860069,-8.696713448,-7.220043182,-1.215852976,2024-06-05 18:44:21.808601
52.84860069,-8.696713448,-7.220043182,-1.215852976,2024-06-05 18:44:21.848601
52.88860069,-8.696713448,-7.220043182,-1.215852976,2024-06-05 18:44:21.888601
52.92860069,-8.696713448,-7.220043182,-1.215852976,2024-06-05 18:44:21.928601
52.96860069,-8.696713448,-7.220043182,-1.215852976,2024-06-05 18:44:21.968601
53.00860069,-8.696713448,-7.220043182,-1.215852976,2024-06-05 18:44:22.008601
53.04860069,-8.696713448,-7.220043182,-1.215852976,2024-06-05 18:44:22.048601
53.08860069,-8.696713448,-7.220043182,-1.215852976,2024-06-05 18:44:22.088601
53.12860069,-8.325527191,-8.073982239,0.5545366406,2024-06-05 18:44:22.128601
53.16860069,-8.325527191,-8.073982239,0.5545366406,2024-06-05 18:44:22.168601
53.20860069,-8.325527191,-8.073982239,0.5545366406,2024-06-05 18:44:22.208601
53.24860069,-8.325527191,-8.073982239,0.5545366406,2024-06-05 18:44:22.248601
53.28860069,-8.325527191,-8.073982239,0.5545366406,2024-06-05 18:44:22.288601
53.32860069,-8.325527191,-8.073982239,0.5545366406,2024-06-05 18:44:22.328601
53.36860069,-7.609176159,-3.908376694,1.834995866,2024-06-05 18:44:22.368601
53.40860069,-7.609176159,-3.908376694,1.834995866,2024-06-05 18:44:22.408601
53.44860069,-7.609176159,-3.908376694,1.834995866,2024-06-05 18:44:22.448601
53.48860069,-7.609176159,-3.908376694,1.834995866,2024-06-05 18:44:22.488601
53.52860069,-7.609176159,-3.908376694,1.834995866,2024-06-05 18:44:22.528601
53.56860069,-7.609176159,-3.908376694,1.834995866,2024-06-05 18:44:22.568601
53.60860069,-10.31396294,-10.07438183,-0.8012964725,2024-06-05 18:44:22.608601
53.64860069,-10.31396294,-10.07438183,-0.8012964725,2024-06-05 18:44:22.648601
53.68860069,-10.31396294,-10.07438183,-0.8012964725,2024-06-05 18:44:22.688601
53.72860069,-10.31396294,-10.07438183,-0.8012964725,2024-06-05 18:44:22.728601
53.76860069,-10.31396294,-10.07438183,-0.8012964725,2024-06-05 18:44:22.768601
53.80860069,-10.31396294,-10.07438183,-0.8012964725,2024-06-05 18:44:22.808601
53.84860069,-10.31396294,-10.07438183,-0.8012964725,2024-06-05 18:44:22.848601
53.88860069,-10.31396294,-10.07438183,-0.8012964725,2024-06-05 18:44:22.888601
53.92860069,-10.31396294,-10.07438183,-0.8012964725,2024-06-05 18:44:22.928601
53.96860069,-10.31396294,-10.07438183,-0.8012964725,2024-06-05 18:44:22.968601
54.00860069,-10.31396294,-10.07438183,-0.8012964725,2024-06-05 18:44:23.008601
54.04860069,-10.31396294,-10.07438183,-0.8012964725,2024-06-05 18:44:23.048601
54.08860069,-10.31396294,-10.07438183,-0.8012964725,2024-06-05 18:44:23.088601
54.12860069,-10.31396294,-10.07438183,-0.8012964725,2024-06-05 18:44:23.128601
54.16860069,-10.31396294,-10.07438183,-0.8012964725,2024-06-05 18:44:23.168601
54.20860069,-10.31396294,-10.07438183,-0.8012964725,2024-06-05 18:44:23.208601
54.24860069,-10.31396294,-10.07438183,-0.8012964725,2024-06-05 18:44:23.248601
54.28860069,-10.31396294,-10.07438183,-0.8012964725,2024-06-05 18:44:23.288601
54.32860069,-10.31396294,-10.07438183,-0.8012964725,2024-06-05 18:44:23.328601
54.36860069,-3.044567823,0.01794617064,-0.2264208496,2024-06-05 18:44:23.368601
54.40860069,-3.044567823,0.01794617064,-0.2264208496,2024-06-05 18:44:23.408601
54.44860069,-3.044567823,0.01794617064,-0.2264208496,2024-06-05 18:44:23.448601
54.48860069,-3.044567823,0.01794617064,-0.2264208496,2024-06-05 18:44:23.488601
54.52860069,-3.044567823,0.01794617064,-0.2264208496,2024-06-05 18:44:23.528601
54.56860069,-3.044567823,0.01794617064,-0.2264208496,2024-06-05 18:44:23.568601
54.60860069,-11.25164986,-8.107481003,-0.6047859192,2024-06-05 18:44:23.608601
54.64860069,-11.25164986,-8.107481003,-0.6047859192,2024-06-05 18:44:23.648601
54.68860069,-11.25164986,-8.107481003,-0.6047859192,2024-06-05 18:44:23.688601
54.72860069,-11.25164986,-8.107481003,-0.6047859192,2024-06-05 18:44:23.728601
54.76860069,-11.25164986,-8.107481003,-0.6047859192,2024-06-05 18:44:23.768601
54.80860069,-11.25164986,-8.107481003,-0.6047859192,2024-06-05 18:44:23.808601
54.84860069,-11.25164986,-8.107481003,-0.6047859192,2024-06-05 18:44:23.848601
54.88860069,-11.25164986,-8.107481003,-0.6047859192,2024-06-05 18:44:23.888601
54.92860069,-11.25164986,-8.107481003,-0.6047859192,2024-06-05 18:44:23.928601
54.96860069,-11.25164986,-8.107481003,-0.6047859192,2024-06-05 18:44:23.968601
55.00860069,-11.25164986,-8.107481003,-0.6047859192,2024-06-05 18:44:24.008601
55.04860069,-11.25164986,-8.107481003,-0.6047859192,2024-06-05 18:44:24.048601
55.08860069,-11.25164986,-8.107481003,-0.6047859192,2024-06-05 18:44:24.088601
55.12860069,-10.26819992,-9.863513947,-1.379761338,2024-06-05 18:44:24.128601
55.16860069,-10.26819992,-9.863513947,-1.379761338,2024-06-05 18:44:24.168601
55.20860069,-10.26819992,-9.863513947,-1.379761338,2024-06-05 18:44:24.208601
55.24860069,-10.26819992,-9.863513947,-1.379761338,2024-06-05 18:44:24.248601
55.28860069,-10.26819992,-9.863513947,-1.379761338,2024-06-05 18:44:24.288601
55.32860069,-10.26819992,-9.863513947,-1.379761338,2024-06-05 18:44:24.328601
55.36860069,-6.400800705,-3.399303675,-0.2276172489,2024-06-05 18:44:24.368601
55.40860069,-6.400800705,-3.399303675,-0.2276172489,2024-06-05 18:44:24.408601
55.44860069,-6.400800705,-3.399303675,-0.2276172489,2024-06-05 18:44:24.448601
55.48860069,-6.400800705,-3.399303675,-0.2276172489,2024-06-05 18:44:24.488601
55.52860069,-6.400800705,-3.399303675,-0.2276172489,2024-06-05 18:44:24.528601
55.56860069,-6.400800705,-3.399303675,-0.2276172489,2024-06-05 18:44:24.568601
55.60860069,-7.663313389,-6.615257263,-0.1630110443,2024-06-05 18:44:24.608601
55.64860069,-7.663313389,-6.615257263,-0.1630110443,2024-06-05 18:44:24.648601
55.68860069,-7.663313389,-6.615257263,-0.1630110443,2024-06-05 18:44:24.688601
55.72860069,-7.663313389,-6.615257263,-0.1630110443,2024-06-05 18:44:24.728601
55.76860069,-7.663313389,-6.615257263,-0.1630110443,2024-06-05 18:44:24.768601
55.80860069,-7.663313389,-6.615257263,-0.1630110443,2024-06-05 18:44:24.808601
55.84860069,-7.663313389,-6.615257263,-0.1630110443,2024-06-05 18:44:24.848601
55.88860069,-7.663313389,-6.615257263,-0.1630110443,2024-06-05 18:44:24.888601
55.92860069,-7.663313389,-6.615257263,-0.1630110443,2024-06-05 18:44:24.928601
55.96860069,-7.663313389,-6.615257263,-0.1630110443,2024-06-05 18:44:24.968601
56.00860069,-7.663313389,-6.615257263,-0.1630110443,2024-06-05 18:44:25.008601
56.04860069,-7.663313389,-6.615257263,-0.1630110443,2024-06-05 18:44:25.048601
56.08860069,-7.663313389,-6.615257263,-0.1630110443,2024-06-05 18:44:25.088601
56.12860069,-7.663313389,-6.615257263,-0.1630110443,2024-06-05 18:44:25.128601
56.16860069,-7.663313389,-6.615257263,-0.1630110443,2024-06-05 18:44:25.168601
56.20860069,-7.663313389,-6.615257263,-0.1630110443,2024-06-05 18:44:25.208601
56.24860069,-7.663313389,-6.615257263,-0.1630110443,2024-06-05 18:44:25.248601
56.28860069,-7.663313389,-6.615257263,-0.1630110443,2024-06-05 18:44:25.288601
56.32860069,-7.663313389,-6.615257263,-0.1630110443,2024-06-05 18:44:25.328601
56.36860069,-4.887938499,-4.083052635,1.272084355,2024-06-05 18:44:25.368601
56.40860069,-4.887938499,-4.083052635,1.272084355,2024-06-05 18:44:25.408601
56.44860069,-4.887938499,-4.083052635,1.272084355,2024-06-05 18:44:25.448601
56.48860069,-4.887938499,-4.083052635,1.272084355,2024-06-05 18:44:25.488601
56.52860069,-4.887938499,-4.083052635,1.272084355,2024-06-05 18:44:25.528601
56.56860069,-4.887938499,-4.083052635,1.272084355,2024-06-05 18:44:25.568601
56.60860069,-4.855635166,-3.365804195,0.1366899908,2024-06-05 18:44:25.608601
56.64860069,-4.855635166,-3.365804195,0.1366899908,2024-06-05 18:44:25.648601
56.68860069,-4.855635166,-3.365804195,0.1366899908,2024-06-05 18:44:25.688601
56.72860069,-4.855635166,-3.365804195,0.1366899908,2024-06-05 18:44:25.728601
56.76860069,-4.855635166,-3.365804195,0.1366899908,2024-06-05 18:44:25.768601
56.80860069,-4.855635166,-3.365804195,0.1366899908,2024-06-05 18:44:25.808601
56.84860069,-4.855635166,-3.365804195,0.1366899908,2024-06-05 18:44:25.848601
56.88860069,-4.855635166,-3.365804195,0.1366899908,2024-06-05 18:44:25.888601
56.92860069,-4.855635166,-3.365804195,0.1366899908,2024-06-05 18:44:25.928601
56.96860069,-4.855635166,-3.365804195,0.1366899908,2024-06-05 18:44:25.968601
57.00860069,-4.855635166,-3.365804195,0.1366899908,2024-06-05 18:44:26.008601
57.04860069,-4.855635166,-3.365804195,0.1366899908,2024-06-05 18:44:26.048601
57.08860069,-4.855635166,-3.365804195,0.1366899908,2024-06-05 18:44:26.088601
57.12860069,-4.855635166,-3.365804195,0.1366899908,2024-06-05 18:44:26.128601
57.16860069,-4.855635166,-3.365804195,0.1366899908,2024-06-05 18:44:26.168601
57.20860069,-4.855635166,-3.365804195,0.1366899908,2024-06-05 18:44:26.208601
57.24860069,-4.855635166,-3.365804195,0.1366899908,2024-06-05 18:44:26.248601
57.28860069,-4.855635166,-3.365804195,0.1366899908,2024-06-05 18:44:26.288601
57.32860069,-4.855635166,-3.365804195,0.1366899908,2024-06-05 18:44:26.328601
57.36860069,-5.434100151,-6.264110565,-1.695913076,2024-06-05 18:44:26.368601
57.40860069,-5.434100151,-6.264110565,-1.695913076,2024-06-05 18:44:26.408601
57.44860069,-5.434100151,-6.264110565,-1.695913076,2024-06-05 18:44:26.448601
57.48860069,-5.434100151,-6.264110565,-1.695913076,2024-06-05 18:44:26.488601
57.52860069,-5.434100151,-6.264110565,-1.695913076,2024-06-05 18:44:26.528601
57.56860069,-5.434100151,-6.264110565,-1.695913076,2024-06-05 18:44:26.568601
57.60860069,-5.434100151,-6.264110565,-1.695913076,2024-06-05 18:44:26.608601
57.64860069,-5.434100151,-6.264110565,-1.695913076,2024-06-05 18:44:26.648601
57.68860069,-5.434100151,-6.264110565,-1.695913076,2024-06-05 18:44:26.688601
57.72860069,-5.434100151,-6.264110565,-1.695913076,2024-06-05 18:44:26.728601
57.76860069,-5.434100151,-6.264110565,-1.695913076,2024-06-05 18:44:26.768601
57.80860069,-5.434100151,-6.264110565,-1.695913076,2024-06-05 18:44:26.808601
57.84860069,-5.434100151,-6.264110565,-1.695913076,2024-06-05 18:44:26.848601
57.88860069,-5.434100151,-6.264110565,-1.695913076,2024-06-05 18:44:26.888601
57.92860069,-5.434100151,-6.264110565,-1.695913076,2024-06-05 18:44:26.928601
57.96860069,-5.434100151,-6.264110565,-1.695913076,2024-06-05 18:44:26.968601
58.00860069,-5.434100151,-6.264110565,-1.695913076,2024-06-05 18:44:27.008601
58.04860069,-5.434100151,-6.264110565,-1.695913076,2024-06-05 18:44:27.048601
58.08860069,-5.434100151,-6.264110565,-1.695913076,2024-06-05 18:44:27.088601
58.12860069,-10.00588703,-7.490731239,-0.5748756528,2024-06-05 18:44:27.128601
58.16860069,-10.00588703,-7.490731239,-0.5748756528,2024-06-05 18:44:27.168601
58.20860069,-10.00588703,-7.490731239,-0.5748756528,2024-06-05 18:44:27.208601
58.24860069,-10.00588703,-7.490731239,-0.5748756528,2024-06-05 18:44:27.248601
58.28860069,-10.00588703,-7.490731239,-0.5748756528,2024-06-05 18:44:27.288601
58.32860069,-10.00588703,-7.490731239,-0.5748756528,2024-06-05 18:44:27.328601
58.36860069,-5.16221571,-2.791825771,-0.1677966863,2024-06-05 18:44:27.368601
58.40860069,-5.16221571,-2.791825771,-0.1677966863,2024-06-05 18:44:27.408601
58.44860069,-5.16221571,-2.791825771,-0.1677966863,2024-06-05 18:44:27.448601
58.48860069,-5.16221571,-2.791825771,-0.1677966863,2024-06-05 18:44:27.488601
58.52860069,-5.16221571,-2.791825771,-0.1677966863,2024-06-05 18:44:27.528601
58.56860069,-5.16221571,-2.791825771,-0.1677966863,2024-06-05 18:44:27.568601
58.60860069,-5.16221571,-2.791825771,-0.1677966863,2024-06-05 18:44:27.608601
58.64860069,-5.16221571,-2.791825771,-0.1677966863,2024-06-05 18:44:27.648601
58.68860069,-5.16221571,-2.791825771,-0.1677966863,2024-06-05 18:44:27.688601
58.72860069,-5.16221571,-2.791825771,-0.1677966863,2024-06-05 18:44:27.728601
58.76860069,-5.16221571,-2.791825771,-0.1677966863,2024-06-05 18:44:27.768601
58.80860069,-5.16221571,-2.791825771,-0.1677966863,2024-06-05 18:44:27.808601
58.84860069,-5.16221571,-2.791825771,-0.1677966863,2024-06-05 18:44:27.848601
58.88860069,-5.16221571,-2.791825771,-0.1677966863,2024-06-05 18:44:27.888601
58.92860069,-5.16221571,-2.791825771,-0.1677966863,2024-06-05 18:44:27.928601
58.96860069,-5.16221571,-2.791825771,-0.1677966863,2024-06-05 18:44:27.968601
59.00860069,-5.16221571,-2.791825771,-0.1677966863,2024-06-05 18:44:28.008601
59.04860069,-5.16221571,-2.791825771,-0.1677966863,2024-06-05 18:44:28.048601
59.08860069,-5.16221571,-2.791825771,-0.1677966863,2024-06-05 18:44:28.088601
59.12860069,-5.16221571,-2.791825771,-0.1677966863,2024-06-05 18:44:28.128601
59.16860069,-5.16221571,-2.791825771,-0.1677966863,2024-06-05 18:44:28.168601
59.20860069,-5.16221571,-2.791825771,-0.1677966863,2024-06-05 18:44:28.208601
59.24860069,-5.16221571,-2.791825771,-0.1677966863,2024-06-05 18:44:28.248601
59.28860069,-5.16221571,-2.791825771,-0.1677966863,2024-06-05 18:44:28.288601
59.32860069,-5.16221571,-2.791825771,-0.1677966863,2024-06-05 18:44:28.328601
59.36860069,-2.266003132,-1.691127419,0.9786644578,2024-06-05 18:44:28.368601
59.40860069,-2.266003132,-1.691127419,0.9786644578,2024-06-05 18:44:28.408601
59.44860069,-2.266003132,-1.691127419,0.9786644578,2024-06-05 18:44:28.448601
59.48860069,-2.266003132,-1.691127419,0.9786644578,2024-06-05 18:44:28.488601
59.52860069,-2.266003132,-1.691127419,0.9786644578,2024-06-05 18:44:28.528601
59.56860069,-2.266003132,-1.691127419,0.9786644578,2024-06-05 18:44:28.568601
59.60860069,-7.89930582,-8.544769287,-0.5246263742,2024-06-05 18:44:28.608601
59.64860069,-7.983054638,-8.759226799,-1.045663476,2024-06-05 18:44:28.648601
59.68860069,-7.983054638,-8.759226799,-1.045663476,2024-06-05 18:44:28.688601
59.72860069,-7.983054638,-8.759226799,-1.045663476,2024-06-05 18:44:28.728601
59.76860069,-7.983054638,-8.759226799,-1.045663476,2024-06-05 18:44:28.768601
59.80860069,-7.983054638,-8.759226799,-1.045663476,2024-06-05 18:44:28.808601
59.84860069,-7.983054638,-8.759226799,-1.045663476,2024-06-05 18:44:28.848601
59.88860069,-7.983054638,-8.759226799,-1.045663476,2024-06-05 18:44:28.888601
59.92860069,-7.983054638,-8.759226799,-1.045663476,2024-06-05 18:44:28.928601
59.96860069,-7.983054638,-8.759226799,-1.045663476,2024-06-05 18:44:28.968601
60.00860069,-7.983054638,-8.759226799,-1.045663476,2024-06-05 18:44:29.008601
60.04860069,-7.983054638,-8.759226799,-1.045663476,2024-06-05 18:44:29.048601
60.08860069,-7.983054638,-8.759226799,-1.045663476,2024-06-05 18:44:29.088601
60.12860069,-6.088238239,-5.139483929,-3.768097401,2024-06-05 18:44:29.128601
60.16860069,-6.088238239,-5.139483929,-3.768097401,2024-06-05 18:44:29.168601
60.20860069,-6.088238239,-5.139483929,-3.768097401,2024-06-05 18:44:29.208601
60.24860069,-6.088238239,-5.139483929,-3.768097401,2024-06-05 18:44:29.248601
60.28860069,-6.088238239,-5.139483929,-3.768097401,2024-06-05 18:44:29.288601
60.32860069,-6.088238239,-5.139483929,-3.768097401,2024-06-05 18:44:29.328601
60.36860069,-3.945465326,-4.522733688,-0.08853443712,2024-06-05 18:44:29.368601
60.40860069,-3.945465326,-4.522733688,-0.08853443712,2024-06-05 18:44:29.408601
60.44860069,-3.945465326,-4.522733688,-0.08853443712,2024-06-05 18:44:29.448601
60.48860069,-3.945465326,-4.522733688,-0.08853443712,2024-06-05 18:44:29.488601
60.52860069,-3.945465326,-4.522733688,-0.08853443712,2024-06-05 18:44:29.528601
60.56860069,-3.945465326,-4.522733688,-0.08853443712,2024-06-05 18:44:29.568601
60.60860069,-9.403493881,-11.38714409,-2.440978289,2024-06-05 18:44:29.608601
60.64860069,-9.403493881,-11.38714409,-2.440978289,2024-06-05 18:44:29.648601
60.68860069,-9.403493881,-11.38714409,-2.440978289,2024-06-05 18:44:29.688601
60.72860069,-9.403493881,-11.38714409,-2.440978289,2024-06-05 18:44:29.728601
60.76860069,-9.403493881,-11.38714409,-2.440978289,2024-06-05 18:44:29.768601
60.80860069,-9.403493881,-11.38714409,-2.440978289,2024-06-05 18:44:29.808601
60.84860069,-9.403493881,-11.38714409,-2.440978289,2024-06-05 18:44:29.848601
60.88860069,-9.403493881,-11.38714409,-2.440978289,2024-06-05 18:44:29.888601
60.92860069,-9.403493881,-11.38714409,-2.440978289,2024-06-05 18:44:29.928601
60.96860069,-9.403493881,-11.38714409,-2.440978289,2024-06-05 18:44:29.968601
61.00860069,-9.403493881,-11.38714409,-2.440978289,2024-06-05 18:44:30.008601
61.04860069,-9.403493881,-11.38714409,-2.440978289,2024-06-05 18:44:30.048601
61.08860069,-9.403493881,-11.38714409,-2.440978289,2024-06-05 18:44:30.088601
61.12860069,-9.403493881,-11.38714409,-2.440978289,2024-06-05 18:44:30.128601
61.16860069,-9.403493881,-11.38714409,-2.440978289,2024-06-05 18:44:30.168601
61.20860069,-9.403493881,-11.38714409,-2.440978289,2024-06-05 18:44:30.208601
61.24860069,-9.403493881,-11.38714409,-2.440978289,2024-06-05 18:44:30.248601
61.28860069,-9.403493881,-11.38714409,-2.440978289,2024-06-05 18:44:30.288601
61.32860069,-9.403493881,-11.38714409,-2.440978289,2024-06-05 18:44:30.328601
61.36860069,-2.989532709,-10.1772728,0.06460621208,2024-06-05 18:44:30.368601
61.40860069,-2.989532709,-10.1772728,0.06460621208,2024-06-05 18:44:30.408601
61.44860069,-2.989532709,-10.1772728,0.06460621208,2024-06-05 18:44:30.448601
61.48860069,-2.989532709,-10.1772728,0.06460621208,2024-06-05 18:44:30.488601
61.52860069,-2.989532709,-10.1772728,0.06460621208,2024-06-05 18:44:30.528601
61.56860069,-2.989532709,-10.1772728,0.06460621208,2024-06-05 18:44:30.568601
