Time (s),Gyroscope x (rad/s),Gyroscope y (rad/s),Gyroscope z (rad/s),Datetime
0.018843605,-0.6978607774,-0.7789516449,0.2509955168,2024-06-05 18:43:29.018844
0.059327615,-0.2623136342,-0.5197005868,-0.04074516147,2024-06-05 18:43:29.059328
0.11463225,-0.2194380015,-1.793186665,-0.06204982474,2024-06-05 18:43:29.114632
0.155127667,-0.3520595133,-1.340196252,-0.133154124,2024-06-05 18:43:29.155128
0.195598865,-0.6501916051,-1.416360497,-0.2892107666,2024-06-05 18:43:29.195599
0.236099698,-0.6480611563,-1.529275179,-0.3001294136,2024-06-05 18:43:29.236100
0.276571313,-0.01651111245,-0.6079817414,0.108920075,2024-06-05 18:43:29.276571
0.317043657,0.0005326165119,-0.599193573,-0.1762960702,2024-06-05 18:43:29.317044
0.357532303,-0.1288931966,-0.9158340693,-0.06311506033,2024-06-05 18:43:29.357532
0.398032355,-0.1169093251,-0.8588441014,-0.169372052,2024-06-05 18:43:29.398032
0.438516261,-0.999987483,-0.5872097015,-0.239144817,2024-06-05 18:43:29.438516
0.478995584,-2.171077967,-0.9826774597,0.4070521593,2024-06-05 18:43:29.478996
0.51949074,-2.782388687,-0.4866783321,1.430874228,2024-06-05 18:43:29.519491
0.559979178,-2.04218483,-1.127815485,1.668820739,2024-06-05 18:43:29.559979
0.600463188,-0.5641740561,-1.242727518,2.263087511,2024-06-05 18:43:29.600463
0.640946313,1.432205796,-0.9041165113,1.654972672,2024-06-05 18:43:29.640946
0.681418761,1.954569459,2.721404076,0.990933001,2024-06-05 18:43:29.681419
0.721953969,2.6664114,0.652854681,1.65257585,2024-06-05 18:43:29.721954
0.76241548,2.390649319,1.613295436,2.375203371,2024-06-05 18:43:29.762415
0.802883188,1.370688558,4.023385048,4.401143551,2024-06-05 18:43:29.802883
0.84337298,0.09826774895,3.637371302,5.733350277,2024-06-05 18:43:29.843373
0.883868761,0.55778265,1.581338406,3.533644199,2024-06-05 18:43:29.883869
0.924361157,0.3087844253,1.356307983,3.745625734,2024-06-05 18:43:29.924361
0.964847875,-0.6547188759,0.7316819429,3.086912155,2024-06-05 18:43:29.964848
1.005333813,-2.321142673,2.404630423,1.943650842,2024-06-05 18:43:30.005334
1.045819646,-1.011172414,0.4671046734,-0.9505873322,2024-06-05 18:43:30.045820
1.086274282,0.6267564893,-1.56496048,-0.9749545455,2024-06-05 18:43:30.086274
1.126786417,-0.3770924807,-0.7145050764,0.6552514434,2024-06-05 18:43:30.126786
1.16729173,-1.179745555,1.111703873,1.167761683,2024-06-05 18:43:30.167292
1.207749282,-0.1560566425,1.894117475,0.4685693681,2024-06-05 18:43:30.207749
1.248263709,0.1438064575,2.366814613,0.3740299344,2024-06-05 18:43:30.248264
1.28876225,-0.288944453,2.134327412,0.5665708184,2024-06-05 18:43:30.288762
1.329175219,-0.2159759998,1.745384336,0.04260931909,2024-06-05 18:43:30.329175
1.369723136,0.4890751243,0.8872059584,-0.8262213469,2024-06-05 18:43:30.369723
1.410176261,-0.07616416365,1.34192729,-1.070825458,2024-06-05 18:43:30.410176
1.450687303,-0.1438064575,0.5142412186,-0.8011884093,2024-06-05 18:43:30.450687
1.491145532,0.4113130867,-1.53087306,-0.4576507509,2024-06-05 18:43:30.491146
1.531647823,-0.3637770712,-0.8508548737,0.1563229412,2024-06-05 18:43:30.531648
1.572157719,0.009853405878,-1.666423917,0.2885449827,2024-06-05 18:43:30.572158
1.612616834,0.4587159753,-1.063368917,-0.01038602181,2024-06-05 18:43:30.612617
1.653193917,0.4009270668,0.3648423254,0.1643121988,2024-06-05 18:43:30.653194
1.693599959,0.4083836973,1.309171438,0.4952002168,2024-06-05 18:43:30.693600
1.734066157,0.9890688658,0.8523195982,1.057510138,2024-06-05 18:43:30.734066
1.774574907,0.8222267628,0.5193011165,1.933264732,2024-06-05 18:43:30.774575
1.81506225,-0.8888037801,0.7002575397,1.32488358,2024-06-05 18:43:30.815062
1.855489594,-0.5833482146,0.104392834,1.531139374,2024-06-05 18:43:30.855490
1.895976938,-0.5548532605,0.4710993171,0.380687654,2024-06-05 18:43:30.895977
1.936522407,-0.5295539498,0.158986032,-0.8768199086,2024-06-05 18:43:30.936522
1.976983605,-0.1027949899,0.6539199352,-0.5492607951,2024-06-05 18:43:30.976984
2.017481365,0.7756227851,-0.2142449915,0.0487344116,2024-06-05 18:43:31.017481
2.057957459,-2.478797197,0.233286038,0.2933385372,2024-06-05 18:43:31.057957
2.098444803,-1.184006453,-0.6194329858,0.01837527007,2024-06-05 18:43:31.098445
2.138953084,-0.9383371472,-2.545773745,-0.1928071827,2024-06-05 18:43:31.138953
2.179423657,-2.29637599,-0.590139091,0.2380795777,2024-06-05 18:43:31.179424
2.219926053,-0.2229000032,0.1842853129,0.04660394415,2024-06-05 18:43:31.219926
2.260390792,-0.4880098701,2.073076725,-0.5476629138,2024-06-05 18:43:31.260391
2.300900948,0.1704372764,0.9612396359,-0.2162422985,2024-06-05 18:43:31.300901
2.34133074,-0.5633751154,1.901041508,-0.07430000603,2024-06-05 18:43:31.341331
2.381846053,-0.3158415854,2.017950773,-0.5356790423,2024-06-05 18:43:31.381846
2.422342563,-0.2018616647,1.031811357,-0.2527265251,2024-06-05 18:43:31.422343
2.46286798,0.03914731368,-0.7461957335,-0.1914756298,2024-06-05 18:43:31.462868
2.503306521,0.02077204362,-0.4699009061,-0.1459369212,2024-06-05 18:43:31.503307
2.543801573,0.4738955498,-0.5050535798,-0.03994623944,2024-06-05 18:43:31.543802
2.584280792,0.5876091719,-0.4730966091,-0.6118432283,2024-06-05 18:43:31.584281
2.624785115,-0.3206351399,-0.9211602807,-0.5817503929,2024-06-05 18:43:31.624785
2.665270896,-0.4659062922,-1.004248381,-1.241795421,2024-06-05 18:43:31.665271
2.705757303,0.1571218669,-0.1841521561,-1.127549171,2024-06-05 18:43:31.705757
2.746243344,0.1509967744,0.5078498721,-1.512364626,2024-06-05 18:43:31.746243
2.786724594,-0.1808233112,0.2772268951,-0.9802806973,2024-06-05 18:43:31.786725
2.827202459,-0.8099765778,0.937271893,-1.079879999,2024-06-05 18:43:31.827202
2.867692719,-0.7391385436,0.6077154279,-0.9106410742,2024-06-05 18:43:31.867693
2.90817574,-0.9615059495,0.5643072128,-0.6983934045,2024-06-05 18:43:31.908176
2.948665428,-1.77720809,0.1677742004,-1.077749491,2024-06-05 18:43:31.948665
2.989165323,-1.294790745,1.185737491,-1.358971,2024-06-05 18:43:31.989165
3.02962949,-0.790536046,1.958830357,-1.568022966,2024-06-05 18:43:32.029629
3.070131938,-0.2918738425,3.32179594,-2.057630777,2024-06-05 18:43:32.070132
3.110611938,0.3644428551,4.035635471,-2.485188723,2024-06-05 18:43:32.110612
3.151091157,-0.5138418078,3.555881023,-1.939656138,2024-06-05 18:43:32.151091
3.191575219,-0.3707011044,2.040320635,-1.466293216,2024-06-05 18:43:32.191575
3.232067459,0.4587159753,2.292514563,-1.380808353,2024-06-05 18:43:32.232067
3.272588813,1.889590263,3.337241888,-0.7215622067,2024-06-05 18:43:32.272589
3.313064646,1.679473042,2.235258341,-0.3995955288,2024-06-05 18:43:32.313065
3.353519125,0.4922707975,1.349650264,-0.6627081037,2024-06-05 18:43:32.353519
3.39397699,0.2258294076,-0.1458037645,-0.1118494645,2024-06-05 18:43:32.393977
3.434462875,-0.3765598834,0.1126483902,0.7971937656,2024-06-05 18:43:32.434463
3.474948709,-0.6507242322,1.469755292,0.8360747695,2024-06-05 18:43:32.474949
3.515434542,-0.2937380075,0.3259612918,0.3636439145,2024-06-05 18:43:32.515435
3.555920323,-0.4083836973,-1.063901424,0.8216941357,2024-06-05 18:43:32.555920
3.596439334,0.7540518045,0.5949326158,1.020759583,2024-06-05 18:43:32.596439
3.636941782,2.368545532,0.6125090122,2.77027154,2024-06-05 18:43:32.636942
3.677395375,0.9291495085,0.872559011,1.800377011,2024-06-05 18:43:32.677395
3.717870688,1.564161539,0.2945369184,1.470154762,2024-06-05 18:43:32.717871
3.75838673,1.3107692,0.5677692294,0.9302147627,2024-06-05 18:43:32.758387
3.798882875,0.3601819277,-0.8801487684,2.636718035,2024-06-05 18:43:32.798883
3.839338813,-0.9702941179,-0.6798849702,1.812360883,2024-06-05 18:43:32.839339
3.87978298,-0.524227798,-0.5023905039,0.719964385,2024-06-05 18:43:32.879783
3.920291573,0.3141105771,-0.2818872929,-1.189865232,2024-06-05 18:43:32.920292
3.960796938,0.5604457259,0.07003907114,-3.164940357,2024-06-05 18:43:32.960797
4.001272407,0.9768186808,-0.8034520149,-4.371050358,2024-06-05 18:43:33.001272
4.041765584,-0.5428693891,1.144193411,-4.851603985,2024-06-05 18:43:33.041766
4.082270532,-0.3099828064,3.179054737,-1.797980189,2024-06-05 18:43:33.082271
4.122722094,0.5005263686,1.06616509,-0.4605801404,2024-06-05 18:43:33.122722
4.163218032,0.1368824393,0.6244928837,-0.471232444,2024-06-05 18:43:33.163218
4.203705948,-0.3886769116,-0.1580539495,-1.026884675,2024-06-05 18:43:33.203706
4.244207667,-0.8264876604,-0.6391398311,-1.210104704,2024-06-05 18:43:33.244208
4.284681105,-1.127549171,-0.8268871307,-0.4936023653,2024-06-05 18:43:33.284681
4.325156469,-0.223698929,-0.2672403455,-0.4288894534,2024-06-05 18:43:33.325156
4.365628605,0.5932016373,-0.4190360308,0.117974557,2024-06-05 18:43:33.365629
4.406134907,0.6488600373,-0.6979939342,-0.02529928461,2024-06-05 18:43:33.406135
4.44662074,0.7524539828,-1.134473205,0.02130465955,2024-06-05 18:43:33.446621
4.487128969,1.091597557,-0.4999937415,0.5330159664,2024-06-05 18:43:33.487129
4.527582667,1.323019385,-0.3308880031,0.9413996935,2024-06-05 18:43:33.527583
4.568082771,0.8798824549,-0.3061213493,0.7079805136,2024-06-05 18:43:33.568083
4.608567407,1.023156285,-0.7099778056,0.5721632838,2024-06-05 18:43:33.608567
4.64904699,0.2786915898,0.5619103909,-0.04633763805,2024-06-05 18:43:33.649047
4.689515115,1.021025896,-0.1849510819,0.4741618633,2024-06-05 18:43:33.689515
4.730047615,1.546052575,-0.2848166823,1.038335919,2024-06-05 18:43:33.730048
4.770516938,0.96563375,1.954303145,1.091597557,2024-06-05 18:43:33.770517
4.810990011,-0.03568530455,2.494775772,0.7276872993,2024-06-05 18:43:33.810990
4.851483084,1.03540647,1.672415853,0.9390029311,2024-06-05 18:43:33.851483
4.891969021,1.05990684,1.071224928,-0.2058562785,2024-06-05 18:43:33.891969
4.932562875,0.388410598,0.06817491353,-0.09320788831,2024-06-05 18:43:33.932563
4.972966,-0.1701709777,0.1592523307,-0.005326164886,2024-06-05 18:43:33.972966
5.013451834,-0.222367391,0.1424749196,0.05752258375,2024-06-05 18:43:34.013452
5.053938136,-0.8009220958,0.73221457,-0.7162360549,2024-06-05 18:43:34.053938
5.09444173,-0.5633751154,0.7708292603,-1.361900449,2024-06-05 18:43:34.094442
5.134872042,-0.2881455421,0.5509917736,-2.215950966,2024-06-05 18:43:34.134872
5.175349907,-0.7572475076,0.8909342885,-2.723800898,2024-06-05 18:43:34.175350
5.215829646,-0.5737611651,0.3983971477,-2.800098181,2024-06-05 18:43:34.215830
5.256315948,0.03115806542,-0.1434070021,-2.959616899,2024-06-05 18:43:34.256316
5.296879386,-0.480286926,-0.2496639937,-2.663615227,2024-06-05 18:43:34.296879
5.33733225,-0.5157059431,-0.3734973371,-1.645918131,2024-06-05 18:43:34.337332
5.377800323,-1.37308538,0.3030588031,-0.0117175635,2024-06-05 18:43:34.377800
5.41828673,-1.713560462,0.725823164,3.001959801,2024-06-05 18:43:34.418287
5.458781365,-1.467624784,-2.30463171,3.273594141,2024-06-05 18:43:34.458781
5.49926798,-0.1153114736,-0.2470009029,0.2098509073,2024-06-05 18:43:34.499268
5.539742094,1.176816225,0.5983946323,-0.3603150845,2024-06-05 18:43:34.539742
5.580218969,1.006112576,0.163513273,-0.3376788795,2024-06-05 18:43:34.580219
5.620703605,0.08122401685,0.2900096774,-0.4440690279,2024-06-05 18:43:34.620704
5.661189646,0.4017260075,0.2687050402,-0.09161003679,2024-06-05 18:43:34.661190
5.701659282,0.2197043151,-0.1532603949,0.2274272442,2024-06-05 18:43:34.701659
5.742195219,0.8200962543,0.0708379969,-0.3169068098,2024-06-05 18:43:34.742195
5.782685063,0.8609746099,0.1731003672,0.3463338912,2024-06-05 18:43:34.782685
5.823130428,0.7087793946,-0.4182371199,-0.2260957062,2024-06-05 18:43:34.823130
5.863652615,0.5876091719,-0.0432750918,0.1707035899,2024-06-05 18:43:34.863653
5.904138657,0.0980014354,0.4820179343,0.7889382243,2024-06-05 18:43:34.904139
5.944621105,-0.2135792226,1.13593781,1.468823195,2024-06-05 18:43:34.944621
5.985128344,-0.3485974967,0.2926727831,2.156830549,2024-06-05 18:43:34.985128
6.025614803,-0.60678339,-0.2853493094,1.567623496,2024-06-05 18:43:35.025615
6.066101313,0.4331503808,-1.100119352,1.954036832,2024-06-05 18:43:35.066101
6.106537615,-0.2545906901,-0.2355496585,2.548569918,2024-06-05 18:43:35.106538
6.147050271,-0.04953333735,-0.7701634765,2.558423519,2024-06-05 18:43:35.147050
6.18750475,0.1853505522,-0.03288906813,2.708488226,2024-06-05 18:43:35.187505
6.227998292,0.1115831584,-0.3205019832,1.678674102,2024-06-05 18:43:35.227998
6.268510219,-0.226894632,-0.1250317246,0.08628387749,2024-06-05 18:43:35.268510
6.309000115,-0.3773587942,-0.9911993146,-0.06178351492,2024-06-05 18:43:35.309000
6.349481365,-0.3126458824,-0.6298190355,-0.3195699155,2024-06-05 18:43:35.349481
6.389908605,-0.2218347788,0.1685731262,-0.8488575816,2024-06-05 18:43:35.389909
6.430395115,0.2659088075,1.082676172,-1.53420186,2024-06-05 18:43:35.430395
6.470911782,0.2592510879,1.051784515,-1.271089315,2024-06-05 18:43:35.470912
6.511414594,-0.2974663079,0.5451329947,-1.56535995,2024-06-05 18:43:35.511415
6.551851209,-0.2945369184,0.1158440933,-1.410901189,2024-06-05 18:43:35.551851
6.592334386,-0.5702991486,-0.1260969639,-1.767887354,2024-06-05 18:43:35.592334
6.632855792,-0.5950657725,0.3608476818,-1.896247983,2024-06-05 18:43:35.632856
6.673306105,-0.6371424794,0.5898727775,-1.429010153,2024-06-05 18:43:35.673306
6.713789542,-0.6270228028,0.09533835202,-1.369357109,2024-06-05 18:43:35.713790
6.754288448,-0.5037220716,0.1374150664,-1.388264894,2024-06-05 18:43:35.754288
6.794763657,-0.4315525293,-0.06511236727,-1.083075643,2024-06-05 18:43:35.794764
6.83529475,-0.4057206213,-0.004660394508,-0.6177020073,2024-06-05 18:43:35.835295
6.875778553,-0.190676704,-0.05632419512,-0.1752308309,2024-06-05 18:43:35.875779
6.916275011,-0.1262301207,-0.0952052027,0.04740286991,2024-06-05 18:43:35.916275
6.956746261,-0.1914756298,-0.0467370972,0.1667089611,2024-06-05 18:43:35.956746
6.997206261,-0.1592523307,-0.1295589656,0.2605826259,2024-06-05 18:43:35.997206
7.037688188,0.001331541222,0.04846810177,0.2573869228,2024-06-05 18:43:36.037688
7.078172303,0.1736329794,0.007323476952,0.3143768907,2024-06-05 18:43:36.078172
7.118673344,0.4704335332,0.137681365,0.6802844405,2024-06-05 18:43:36.118673
7.159140532,0.5343475342,0.1395455301,1.020493269,2024-06-05 18:43:36.159141
7.199630375,0.4438027143,-0.1125152409,1.146190763,2024-06-05 18:43:36.199630
7.240144907,0.07216953486,-0.2403431982,1.097190022,2024-06-05 18:43:36.240145
7.280630844,0.01757634431,-0.05499265343,1.022889972,2024-06-05 18:43:36.280631
7.321122771,-0.06497921795,-0.01637795754,1.181876063,2024-06-05 18:43:36.321123
7.36160574,-0.01997311972,0.2583190203,1.370155931,2024-06-05 18:43:36.361606
7.402137563,0.05619104207,0.2367480397,1.412765265,2024-06-05 18:43:36.402138
7.442588813,0.1858831644,-0.2896102369,1.216229796,2024-06-05 18:43:36.442589
7.483065948,0.3234313726,-0.6343462467,1.012237668,2024-06-05 18:43:36.483066
7.523566469,0.2531259954,-0.6929340959,0.7210295796,2024-06-05 18:43:36.523566
7.564034021,0.1874810159,-0.3553883731,0.4640421271,2024-06-05 18:43:36.564034
7.604527771,0.2031932026,-0.1053249165,0.539673686,2024-06-05 18:43:36.604528
7.645008188,-0.03648423031,-0.1380808353,0.116643019,2024-06-05 18:43:36.645008
7.685472771,-0.1233007237,0.294803232,-0.4355471432,2024-06-05 18:43:36.685473
7.725956,-0.1217028722,0.4580501914,-0.6382077336,2024-06-05 18:43:36.725956
7.766429282,-0.1563229412,0.4332835376,-1.061771035,2024-06-05 18:43:36.766429
7.806911417,-0.223698929,0.5315513015,-1.320090055,2024-06-05 18:43:36.806911
7.847399178,-0.09560466558,0.5214315653,-1.296921253,2024-06-05 18:43:36.847399
7.887886782,-0.1430075318,0.5280892849,-1.582137346,2024-06-05 18:43:36.887887
7.928405948,-0.1968017966,0.3240971565,-1.584667325,2024-06-05 18:43:36.928406
7.968886053,-0.1746982187,0.1086537689,-1.497983932,2024-06-05 18:43:36.968886
8.009341938,-0.2583190203,0.2308892608,-1.608368754,2024-06-05 18:43:37.009342
8.049831782,-0.2386122048,0.6002588272,-1.486000061,2024-06-05 18:43:37.049832
8.090317355,-0.1701709777,0.2729659677,-1.138201475,2024-06-05 18:43:37.090317
8.13079423,-0.137681365,0.1350182891,-0.7734923363,2024-06-05 18:43:37.130794
8.171332928,-0.1307573467,-0.1671084315,-0.2932053804,2024-06-05 18:43:37.171333
8.211777355,-0.01917419396,-0.2765611112,0.02050573565,2024-06-05 18:43:37.211777
8.252262511,0.09693620354,-0.1069227681,0.1874810159,2024-06-05 18:43:37.252263
8.292763448,0.2312887162,0.1025286764,0.2619141638,2024-06-05 18:43:37.292763
8.333258188,0.2568543255,0.1414096802,0.3886769116,2024-06-05 18:43:37.333258
8.373748553,0.3508611321,0.06071828306,0.5489944816,2024-06-05 18:43:37.373749
8.414222771,0.367105931,-0.0685743764,0.7263557911,2024-06-05 18:43:37.414223
8.454709125,0.4922707975,0.03195698932,0.9544488192,2024-06-05 18:43:37.454709
8.495200584,0.3095833361,-0.3372794092,0.9693620801,2024-06-05 18:43:37.495201
8.535681417,0.2515281439,0.195203945,1.050586104,2024-06-05 18:43:37.535681
8.576146313,0.09613727778,0.007057168987,1.150185347,2024-06-05 18:43:37.576146
8.616636469,-0.0298265256,-0.09627043456,1.215164542,2024-06-05 18:43:37.616636
8.657133188,0.05725627393,-0.1372819096,1.096657395,2024-06-05 18:43:37.657133
8.697630584,0.4113130867,-0.5141080618,1.515693426,2024-06-05 18:43:37.697631
8.738109125,0.2239652425,-0.8194305301,1.359237313,2024-06-05 18:43:37.738109
8.778582823,0.3402087986,-0.889469564,1.047922969,2024-06-05 18:43:37.778583
8.819085844,0.3114475012,-0.5026568174,0.570032835,2024-06-05 18:43:37.819086
8.859550167,0.1738992929,-0.3849485815,0.5399399996,2024-06-05 18:43:37.859550
8.900079073,0.006924014539,-0.1316894293,0.2149107605,2024-06-05 18:43:37.900079
8.940538657,-0.2109161317,0.3209014535,-0.3804213405,2024-06-05 18:43:37.940539
8.981020896,-0.2833519876,0.4497946501,-0.7316819429,2024-06-05 18:43:37.981021
9.02150824,-0.4017260075,0.3579182923,-1.092929125,2024-06-05 18:43:38.021508
9.061989594,-0.5002600551,0.3954677582,-1.48892951,2024-06-05 18:43:38.061990
9.102466053,-0.3760272563,0.6512568593,-1.634466887,2024-06-05 18:43:38.102466
9.142969178,-0.2535254657,0.8009220958,-1.652842164,2024-06-05 18:43:38.142969
9.183478188,-0.06551183015,0.09693620354,-1.447917938,2024-06-05 18:43:38.183478
9.223936209,-0.00798924733,0.1664426625,-1.560832739,2024-06-05 18:43:38.223936
9.264453605,0.2901428342,1.496119738,-1.430075288,2024-06-05 18:43:38.264454
9.304927719,0.3077192008,0.9774844646,-1.102782488,2024-06-05 18:43:38.304928
9.345399855,0.1978670359,0.3778914213,-0.993596077,2024-06-05 18:43:38.345400
9.385887719,0.1723014414,-0.0904116556,-0.6267564893,2024-06-05 18:43:38.385888
9.426369334,0.2358159572,-0.3122464418,-0.02556559257,2024-06-05 18:43:38.426369
9.46683725,0.01970681176,-0.05046541616,0.2037258148,2024-06-05 18:43:38.466837
9.507318761,0.001065233024,-0.1165098622,0.4986622036,2024-06-05 18:43:38.507319
9.54780975,0.2802894413,-0.2960016131,0.6736267209,2024-06-05 18:43:38.547810
9.588296105,0.5082492828,-0.1828206182,0.8535179496,2024-06-05 18:43:38.588296
9.628781678,0.5673697591,0.2455362082,0.760176897,2024-06-05 18:43:38.628782
9.669261886,0.5473966002,0.1374150664,0.7252905369,2024-06-05 18:43:38.669262
9.709757146,0.4525908828,-0.3018604219,0.9856068492,2024-06-05 18:43:38.709757
9.750238969,0.16031757,-0.855914712,0.984541595,2024-06-05 18:43:38.750239
9.790720688,0.386546433,-0.8047835231,0.9911993146,2024-06-05 18:43:38.790721
9.831207094,0.4608464241,-0.6276885867,1.077749491,2024-06-05 18:43:38.831207
9.871692563,0.3452686667,-0.9773513079,1.193593621,2024-06-05 18:43:38.871693
9.912177771,0.1832200736,-1.302646875,1.214365602,2024-06-05 18:43:38.912178
9.952672198,0.4003944695,-0.8660344481,1.329943419,2024-06-05 18:43:38.952672
9.99315199,0.2991973162,-0.5647066832,0.9531172514,2024-06-05 18:43:38.993152
10.03363824,0.1326215118,-0.7006570101,0.89586097,2024-06-05 18:43:39.033638
10.07412777,-0.1627143472,-0.4555202723,0.518369019,2024-06-05 18:43:39.074128
10.1146473,-0.4286231399,0.1627143472,-0.05858781561,2024-06-05 18:43:39.114647
10.15508386,-0.3222329915,1.271621943,-0.4930697381,2024-06-05 18:43:39.155084
10.1956185,-0.4030575454,2.06748414,-0.8605751395,2024-06-05 18:43:39.195619
10.23606293,-0.4323514402,1.357373238,-1.231409431,2024-06-05 18:43:39.236063
10.27656131,-0.4581833482,0.4929365814,-1.42581439,2024-06-05 18:43:39.276561
10.31705782,-0.6770887375,0.3472659588,-1.939922452,2024-06-05 18:43:39.317058
10.3575634,-0.6075822711,0.8579120636,-1.980933905,2024-06-05 18:43:39.357563
10.39805662,-0.6006582975,0.4146419466,-1.979069829,2024-06-05 18:43:39.398057
10.43851027,-0.6714962721,0.0705716908,-1.803040028,2024-06-05 18:43:39.438510
10.47902199,-0.281221509,0.504121542,-1.368558168,2024-06-05 18:43:39.479022
10.51948449,-0.1288931966,-0.02463351376,-0.7798837423,2024-06-05 18:43:39.519484
10.55996532,0.2776263654,0.3448691964,0.1291595101,2024-06-05 18:43:39.559965
10.60045439,0.02663082629,0.3752283454,0.1350182891,2024-06-05 18:43:39.600454
10.64098022,0.01997311972,0.1233007237,0.3647091687,2024-06-05 18:43:39.640980
10.68146423,-0.02822867595,0.5150401592,0.2170412242,2024-06-05 18:43:39.681464
10.72187584,0.5836145282,-1.171756268,0.944329083,2024-06-05 18:43:39.721876
10.7623673,0.3777582645,0.955380857,1.225550652,2024-06-05 18:43:39.762367
10.80288736,0.3612471521,0.1158440933,0.9541825056,2024-06-05 18:43:39.802887
10.84336334,0.2997299433,-0.2848166823,0.6901378632,2024-06-05 18:43:39.843363
10.88381381,0.1944050342,-0.1199718714,0.1198387146,2024-06-05 18:43:39.883814
10.92434824,0.1430075318,-0.5055862069,0.3532578945,2024-06-05 18:43:39.924348
10.96484246,0.5194342732,-0.2107829899,1.288931966,2024-06-05 18:43:39.964842
11.00534397,0.3061213493,0.2828193605,1.906633973,2024-06-05 18:43:40.005344
11.04580907,0.1019960642,-0.1713693589,2.039255381,2024-06-05 18:43:40.045809
11.0863034,0.4616453648,-0.9432638288,2.124873638,2024-06-05 18:43:40.086303
11.12678069,0.356187284,-1.014900804,1.453510404,2024-06-05 18:43:40.126781
11.16728053,0.1717688292,-0.718765974,0.766035676,2024-06-05 18:43:40.167281
11.20772788,-0.01944050193,0.447930485,0.240476355,2024-06-05 18:43:40.207728
11.24828168,-0.266308248,0.5541874766,-0.08042509109,2024-06-05 18:43:40.248282
11.28869595,-0.392937839,0.3664401472,-0.4635095298,2024-06-05 18:43:40.288696
11.32922486,-0.3051892519,0.24234052,-0.8893364072,2024-06-05 18:43:40.329225
11.3696836,-0.3086512685,0.3560541272,-1.180544496,2024-06-05 18:43:40.369684
11.41016418,-0.2516613007,0.4191691875,-1.424216509,2024-06-05 18:43:40.410164
11.450656,-0.1677742004,0.7532529235,-1.637928963,2024-06-05 18:43:40.450656
11.49112886,-0.07962616533,0.2961347699,-1.757767677,2024-06-05 18:43:40.491129
11.53160871,-0.1355509013,0.1762960702,-1.796648622,2024-06-05 18:43:40.531609
11.57214095,-0.1190397888,0.4300878346,-2.0118258,2024-06-05 18:43:40.572141
11.61255605,-0.3533910513,0.2274272442,-1.74232173,2024-06-05 18:43:40.612556
11.65306772,-0.3571193814,-0.03715000302,-1.340862036,2024-06-05 18:43:40.653068
11.69357225,-0.3794892728,-0.07283531129,-0.8965267539,2024-06-05 18:43:40.693572
11.7340685,-0.2695039511,-0.1692388952,-0.3587172329,2024-06-05 18:43:40.734068
11.7745622,-0.1003982127,-0.2965342402,0.1584534049,2024-06-05 18:43:40.774562
11.81502715,0.06018566713,-0.3641765416,0.6099790335,2024-06-05 18:43:40.815027
11.85549902,0.1150451675,-0.04460663348,0.7433995008,2024-06-05 18:43:40.855499
11.89598662,0.3567199111,0.08122401685,0.9286168814,2024-06-05 18:43:40.895987
11.93649762,0.09374050796,-0.3330184817,0.579087317,2024-06-05 18:43:40.936498
11.97697845,0.2459356785,-0.2515281439,0.5958647132,2024-06-05 18:43:40.976978
12.01747949,0.1355509013,0.06045197323,1.0316782,2024-06-05 18:43:41.017479
12.05796246,0.06471290439,-0.01770949923,1.340063095,2024-06-05 18:43:41.057962
12.09844298,-0.06284874678,-0.2057231218,1.149386406,2024-06-05 18:43:41.098443
12.13890267,-0.04740286991,0.0166442655,1.434336305,2024-06-05 18:43:41.138903
12.17940433,-0.07456631213,-0.06085143611,1.6555053,2024-06-05 18:43:41.179404
12.21988058,0.06950645149,-0.5856118798,1.542057991,2024-06-05 18:43:41.219881
12.26038532,0.04713656008,-0.3266270757,1.127282858,2024-06-05 18:43:41.260385
12.30087465,0.06178351492,-0.3383446336,1.161370277,2024-06-05 18:43:41.300875
12.3413334,-0.06524552405,-0.4203675687,0.722627461,2024-06-05 18:43:41.341333
12.38178803,-0.1786928326,-0.2515281439,0.2266283184,2024-06-05 18:43:41.381788
12.42227694,-0.1898777932,0.1387466043,-0.03488638252,2024-06-05 18:43:41.422277
12.46279053,-0.3696358502,0.3493964374,-0.5343475342,2024-06-05 18:43:41.462791
12.50327996,-0.266308248,0.8238245845,-0.8592435718,2024-06-05 18:43:41.503280
12.54377189,-0.1709699035,1.06616509,-1.312899709,2024-06-05 18:43:41.543772
12.58430293,-0.06364767253,0.8121070266,-1.694652557,2024-06-05 18:43:41.584303
12.62480871,0.1003982127,0.3635107577,-1.949775934,2024-06-05 18:43:41.624809
12.66523902,0.1446053833,0.2969337106,-1.943384528,2024-06-05 18:43:41.665239
12.7057161,0.172567755,0.2420742065,-1.815556526,2024-06-05 18:43:41.705716
12.74621334,0.08868064731,0.05885412544,-1.73193574,2024-06-05 18:43:41.746213
12.7866784,0.1307573467,0.3006620109,-1.446053863,2024-06-05 18:43:41.786678
12.82715157,0.07909355313,0.03754946589,-1.125152349,2024-06-05 18:43:41.827152
12.86762611,-0.0074566314,-0.1860163212,-0.7141056061,2024-06-05 18:43:41.867626
12.908126,-0.07350108027,-0.4248948097,-0.1259638071,2024-06-05 18:43:41.908126
12.94863543,-0.03142437339,-0.3481980562,0.2893439233,2024-06-05 18:43:41.948635
12.98912959,0.03169068322,-0.2089188248,0.3415403366,2024-06-05 18:43:41.989130
13.02959381,0.1187734827,0.06524552405,0.5191679597,2024-06-05 18:43:42.029594
13.07007241,0.2603163123,-0.244337827,0.7002575397,2024-06-05 18:43:42.070072
13.11053782,0.2366148829,-0.09360735118,0.8459281921,2024-06-05 18:43:42.110538
13.15104241,0.3308880031,-0.2014621943,0.9994548559,2024-06-05 18:43:42.151042
13.1915298,0.3601819277,-0.09147688746,1.352046967,2024-06-05 18:43:42.191530
13.23199673,0.3921388984,0.3651086092,1.716756225,2024-06-05 18:43:42.231997
13.27247663,-0.06338136643,-0.1772281379,1.719152927,2024-06-05 18:43:42.272477
13.3130048,0.04766917601,0.2447372824,1.553509235,2024-06-05 18:43:42.313005
13.35349006,0.06710968167,-0.8255556226,1.605172992,2024-06-05 18:43:42.353490
13.39395027,-0.052196417,-0.6223623753,1.306241989,2024-06-05 18:43:42.393950
13.43450887,-0.2612484097,-0.4962654412,1.295589685,2024-06-05 18:43:42.434509
13.47499402,-0.3685706258,-0.06431344151,0.9387366176,2024-06-05 18:43:42.474994
13.51546689,-0.3860138059,-0.1532603949,0.4677704573,2024-06-05 18:43:42.515467
13.55590798,-0.3778914213,-0.2736317217,-0.1424749196,2024-06-05 18:43:42.555908
13.59641105,-0.2817541361,0.4593817294,-0.7015891075,2024-06-05 18:43:42.596411
13.63689626,-0.2239652425,0.7223611474,-0.9962592125,2024-06-05 18:43:42.636896
13.67736209,-0.1275616586,0.7732260227,-1.357639432,2024-06-05 18:43:42.677362
13.71785178,-0.02742975019,0.5714974999,-1.695984125,2024-06-05 18:43:42.717852
13.75832621,0.006657706574,0.2418078929,-1.869617105,2024-06-05 18:43:42.758326
13.7988072,-0.04953333735,0.1552577168,-1.941786647,2024-06-05 18:43:42.798807
13.83933147,-0.2226337045,0.07722939551,-1.78093648,2024-06-05 18:43:42.839331
13.8797698,-0.2045247406,0.2711018026,-1.754838228,2024-06-05 18:43:42.879770
13.92025991,-0.3001294136,0.1432738453,-1.520353794,2024-06-05 18:43:42.920260
13.96075579,-0.222367391,-0.08215609938,-1.126483917,2024-06-05 18:43:42.960756
14.0012322,-0.1930734813,-0.002263620263,-0.5468640327,2024-06-05 18:43:43.001232
14.04172376,-0.04660394415,-0.2089188248,-0.09134373069,2024-06-05 18:43:43.041724
14.08219225,0.1222354919,-0.1042596847,0.1991985738,2024-06-05 18:43:43.082192
14.12268678,0.08282186836,0.02330197208,0.4203675687,2024-06-05 18:43:43.122687
14.16317709,0.1185071766,0.1003982127,0.5950657725,2024-06-05 18:43:43.163177
14.2036572,0.2989310026,0.05539211631,0.852452755,2024-06-05 18:43:43.203657
14.2441398,0.3247629106,-0.1625811905,0.8416672349,2024-06-05 18:43:43.244140
14.28465715,0.3633776009,-0.04061200842,0.8921326399,2024-06-05 18:43:43.284657
14.32511829,0.412378341,-0.04167724028,1.160571337,2024-06-05 18:43:43.325118
14.36560902,0.3274259865,0.2567211688,1.361634135,2024-06-05 18:43:43.365609
14.4060947,0.01438064594,0.3893426657,1.6073035,2024-06-05 18:43:43.406095
14.44655762,0.09933298081,0.2660419345,1.882399917,2024-06-05 18:43:43.446558
14.48705845,0.03382114694,-0.6196992993,1.628608108,2024-06-05 18:43:43.487058
14.52754069,0.14993155,-0.7235595584,1.600113153,2024-06-05 18:43:43.527541
14.56802517,0.0114512546,-0.7230269313,1.410368562,2024-06-05 18:43:43.568025
14.60851038,0.05379426852,-0.8876054287,0.7697640061,2024-06-05 18:43:43.608510
14.6489961,-0.08601756394,0.8097102642,0.006125089712,2024-06-05 18:43:43.648996
14.68951819,0.006657706574,-0.1753639877,0.05299534276,2024-06-05 18:43:43.689518
14.72996772,-0.1675078869,0.3355484009,-0.8536511064,2024-06-05 18:43:43.729968
14.77047996,-0.2106498331,0.8656349778,-0.9516525269,2024-06-05 18:43:43.770480
14.81094319,-0.01251648832,-0.1748313755,-1.324350953,2024-06-05 18:43:43.810943
14.85142131,-0.4507267177,0.4194355011,-2.366415262,2024-06-05 18:43:43.851421
14.89190746,0.1970681101,0.8967930675,-1.399183631,2024-06-05 18:43:43.891907
14.93239975,-0.4009270668,0.06870753318,-2.250837326,2024-06-05 18:43:43.932400
14.97288157,-0.08335448056,0.4623111188,-2.061625481,2024-06-05 18:43:43.972882
15.01337209,0.1057243794,0.323830843,-1.557370663,2024-06-05 18:43:44.013372
15.05385288,-0.5308855176,0.3501953483,-1.852839708,2024-06-05 18:43:44.053853
15.09434532,-0.08548495173,-0.3505948186,-0.9911993146,2024-06-05 18:43:44.094345
15.13483491,-0.2838846147,-0.2693707943,-0.4171718955,2024-06-05 18:43:44.134835
15.17532876,-0.2202369273,-0.1159772426,0.3191704452,2024-06-05 18:43:44.175329
15.21582256,0.08894696087,-0.2286256403,0.6131747365,2024-06-05 18:43:44.215823
15.25630907,0.3340837061,0.06657706201,0.8493902087,2024-06-05 18:43:44.256309
15.29676767,0.3466002047,-0.1785596907,0.8392704725,2024-06-05 18:43:44.296768
15.33724913,0.3591166735,-0.2086525112,0.1675078869,2024-06-05 18:43:44.337249
15.3777435,0.3053224087,0.1110505462,0.4888088107,2024-06-05 18:43:44.377743
15.41823673,0.4283568263,0.2567211688,1.078814745,2024-06-05 18:43:44.418237
15.45872887,0.07296846062,0.02410089783,1.48107338,2024-06-05 18:43:44.458729
15.49921418,-0.09933298081,0.258585304,1.560965896,2024-06-05 18:43:44.499214
15.53971881,-0.07323476672,0.1970681101,1.895715356,2024-06-05 18:43:44.539719
15.58018147,0.01517957076,-0.2765611112,2.030999899,2024-06-05 18:43:44.580181
15.62067881,0.0074566314,-0.5410051942,1.593721747,2024-06-05 18:43:44.620679
15.66114986,0.0410114713,-0.6982602477,1.217827678,2024-06-05 18:43:44.661150
15.70163241,0.05139749497,-0.3434045017,0.7809489369,2024-06-05 18:43:44.701632
15.74211798,0.02183727734,-0.4145087898,0.8822792768,2024-06-05 18:43:44.742118
15.78259262,-0.1294258088,-0.03395430371,0.1320888996,2024-06-05 18:43:44.782593
15.82309334,-0.1371487528,0.2370143533,-0.5527228117,2024-06-05 18:43:44.823093
15.86355543,-0.05459319428,0.6220960617,-0.9729571939,2024-06-05 18:43:44.863555
15.90408142,-0.04979964346,0.531817615,-1.375215888,2024-06-05 18:43:44.904081
15.94457652,0.03621792421,0.8219604492,-1.632869124,2024-06-05 18:43:44.944577
15.98510647,0.1632469594,0.7162360549,-1.87893784,2024-06-05 18:43:44.985106
16.02558069,0.1299584359,0.06231613085,-1.91009593,2024-06-05 18:43:45.025581
16.06603933,-0.009054481052,-0.1093195379,-1.928471208,2024-06-05 18:43:45.066039
16.10650699,-0.06204982474,0.1930734813,-1.90636766,2024-06-05 18:43:45.106507
16.14700189,-0.2604494691,0.1270290315,-1.624879837,2024-06-05 18:43:45.147002
16.1874785,-0.4150414169,-0.06777545065,-1.217561364,2024-06-05 18:43:45.187479
16.22794918,-0.3611139953,-0.07576470077,-0.6051855087,2024-06-05 18:43:45.227949
16.26844595,-0.2271609455,-0.2326202542,0.005059856921,2024-06-05 18:43:45.268446
16.30893319,0.04633763805,-0.2062557489,0.5079829693,2024-06-05 18:43:45.308933
16.34942834,0.1280942708,-0.1354177445,0.5857450366,2024-06-05 18:43:45.349428
16.38991058,0.2912080884,-0.02703028731,0.6232944727,2024-06-05 18:43:45.389911
16.43037965,0.4699009061,-0.001464695437,0.7191654444,2024-06-05 18:43:45.430380
16.4708635,0.5814840794,-0.06298190355,0.7391385436,2024-06-05 18:43:45.470864
16.51138522,0.6714962721,0.04633763805,1.138467789,2024-06-05 18:43:45.511385
16.55184022,0.4177044928,0.09640359133,1.333139181,2024-06-05 18:43:45.551840
16.59230204,0.09453943372,0.3909405172,1.673614264,2024-06-05 18:43:45.592302
16.63280194,-0.0149132628,0.3033251166,1.909030676,2024-06-05 18:43:45.632802
16.673306,-0.1991985738,-0.09706936032,1.758566618,2024-06-05 18:43:45.673306
16.71379709,-0.1938724071,-0.9163666964,1.727408528,2024-06-05 18:43:45.713797
16.75429027,-0.2796236575,-0.7081136703,1.573748589,2024-06-05 18:43:45.754290
16.79481834,-0.4046553969,-0.4243622124,0.8761541843,2024-06-05 18:43:45.794818
16.83527116,-0.3017272651,-0.01797580719,0.4680367708,2024-06-05 18:43:45.835271
16.8757134,-0.1491326243,-0.03022598661,-0.03009283356,2024-06-05 18:43:45.875713
16.91623558,-0.07243584841,0.1185071766,-0.4398080707,2024-06-05 18:43:45.916236
16.95671621,0.01571218669,0.5206326246,-1.071624398,2024-06-05 18:43:45.956716
16.9972086,0.003462007269,0.9268859029,-1.496918678,2024-06-05 18:43:45.997209
17.03766704,0.2587184608,0.5773562789,-1.614227533,2024-06-05 18:43:46.037667
17.07816475,0.09853405505,0.517170608,-1.673880577,2024-06-05 18:43:46.078165
17.11863293,0.03914731368,-0.07150376588,-2.115952253,2024-06-05 18:43:46.118633
17.1591285,0.1914756298,0.4652405083,-1.982531786,2024-06-05 18:43:46.159129
17.19961444,0.1035939083,-0.395600915,-1.504109025,2024-06-05 18:43:46.199614
17.24013345,-0.1880136281,-0.079493016,-1.564294696,2024-06-05 18:43:46.240133
17.2805772,-0.04500609636,0.02170412242,-0.8893364072,2024-06-05 18:43:46.280577
17.32107215,-0.1113168523,-0.2493976802,-0.307053417,2024-06-05 18:43:46.321072
17.36157996,-0.06977276504,-0.2057231218,-0.2511286736,2024-06-05 18:43:46.361580
17.40200412,0.01917419396,-0.377491951,-0.2069215178,2024-06-05 18:43:46.402004
17.44251303,0.03408745676,-0.4126446545,-0.09347419441,2024-06-05 18:43:46.442513
17.48299564,0.05139749497,-0.07656362653,0.433683008,2024-06-05 18:43:46.482996
17.52351293,0.01118494663,-0.04726971686,1.07322228,2024-06-05 18:43:46.523513
17.56399913,0.3346163332,0.4489957094,1.57241714,2024-06-05 18:43:46.563999
17.60448538,0.2069215178,0.6258243918,1.695984125,2024-06-05 18:43:46.604485
17.64494642,-0.08415340632,0.1858831644,1.10145092,2024-06-05 18:43:46.644946
17.68544423,0.1113168523,-0.4432700872,1.276415467,2024-06-05 18:43:46.685444
17.72592392,0.0221035853,-0.1575213373,1.438597202,2024-06-05 18:43:46.725924
17.76646298,-0.1169093251,-0.3756277859,1.636064768,2024-06-05 18:43:46.766463
17.80691517,0.04074516147,-1.021824837,1.607569814,2024-06-05 18:43:46.806915
17.84740324,0.0977351293,-0.6122426987,1.474681973,2024-06-05 18:43:46.847403
17.88782584,-0.03941362351,-0.4390091598,1.263898969,2024-06-05 18:43:46.887826
17.92839173,-0.2455362082,-0.1143793985,0.5170374513,2024-06-05 18:43:46.928392
17.96885845,-0.2298240215,0.03675054014,-0.1784265339,2024-06-05 18:43:46.968858
18.00931636,-0.2362154275,0.2050573528,-0.7399374843,2024-06-05 18:43:47.009316
18.04984142,-0.1549914032,0.3648423254,-1.101184607,2024-06-05 18:43:47.049841
18.09030157,-0.08069140464,0.5507254601,-1.410102248,2024-06-05 18:43:47.090302
18.13077387,-0.005059856921,0.9023855329,-1.601444721,2024-06-05 18:43:47.130774
18.171251,0.08814803511,0.4319519997,-2.047777414,2024-06-05 18:43:47.171251
18.21172855,0.09666989744,0.3153089881,-2.05629921,2024-06-05 18:43:47.211729
18.25221454,0.03808208182,0.1733666807,-1.807034612,2024-06-05 18:43:47.252215
18.29270845,-0.1728340536,0.1667089611,-1.870149732,2024-06-05 18:43:47.292708
18.33320194,-0.08415340632,0.2596505582,-1.661630392,2024-06-05 18:43:47.333202
18.3736973,-0.307053417,0.09374050796,-1.423683882,2024-06-05 18:43:47.373697
18.41419772,-0.07536523789,-0.1822880059,-0.6659038067,2024-06-05 18:43:47.414198
18.45469522,0.07483261824,-0.4573844373,0.04553871229,2024-06-05 18:43:47.454695
18.49515387,0.1552577168,-0.3676385581,0.8059819341,2024-06-05 18:43:47.495154
18.53565069,0.2106498331,-0.06191666797,1.147788525,2024-06-05 18:43:47.535651
18.57615741,0.4075847864,0.3286243975,1.038868546,2024-06-05 18:43:47.576157
18.61671647,0.3828181326,0.07163692266,0.8713606,2024-06-05 18:43:47.616716
18.65708991,0.6491263509,-0.04114462435,1.299850583,2024-06-05 18:43:47.657090
18.69759355,0.6416697502,-0.7898702621,1.072689652,2024-06-05 18:43:47.697594
18.73807142,0.4094489515,-0.01344856713,0.8224930763,2024-06-05 18:43:47.738071
18.77856762,0.06045197323,0.3379451632,1.123554587,2024-06-05 18:43:47.778568
18.8190398,-0.08308817446,0.1102516204,1.755104542,2024-06-05 18:43:47.819040
18.85952428,-0.2489982247,-0.1679073572,2.227934837,2024-06-05 18:43:47.859524
18.90001538,-0.4347482324,-0.8599093556,1.833399177,2024-06-05 18:43:47.900015
18.94050824,-0.3435376585,-0.9794817567,1.348318696,2024-06-05 18:43:47.940508
18.98098621,-0.4275579154,-0.2163754553,1.036205411,2024-06-05 18:43:47.980986
19.02147147,-0.3846822679,-0.005459319334,0.6376751065,2024-06-05 18:43:48.021471
19.06194402,-0.3539236784,-0.1857500076,-0.1014634445,2024-06-05 18:43:48.061944
19.10240371,-0.2556559145,0.3027924895,-0.8781514764,2024-06-05 18:43:48.102404
19.14294621,-0.1414096802,0.6637732983,-1.128880739,2024-06-05 18:43:48.142946
19.18347209,-0.1400781423,0.5424699187,-1.576278567,2024-06-05 18:43:48.183472
19.2239486,-0.1019960642,0.6284874678,-1.881334662,2024-06-05 18:43:48.223949
19.26441319,0.02130465955,0.5190348029,-2.034994602,2024-06-05 18:43:48.264413
19.30489236,-0.05246272683,-0.2568543255,-2.052837133,2024-06-05 18:43:48.304892
19.34537314,-0.2194380015,0.163513273,-1.880003095,2024-06-05 18:43:48.345373
19.38583876,-0.2005301118,0.2756290436,-1.874144316,2024-06-05 18:43:48.385839
19.42632178,-0.2868140042,0.03701684624,-1.538995385,2024-06-05 18:43:48.426322
19.46682413,-0.09453943372,-0.01424749196,-0.8741568327,2024-06-05 18:43:48.466824
19.50729866,-0.1278279573,-0.3005288541,-0.2468677461,2024-06-05 18:43:48.507299
19.54779225,0.02023942769,-0.3226324618,0.359382987,2024-06-05 18:43:48.547792
19.58827256,0.01438064594,-0.109585844,0.6720288992,2024-06-05 18:43:48.588273
19.62875178,0.0330222249,-0.1761629134,0.7612421513,2024-06-05 18:43:48.628752
19.66925006,0.2023942769,-0.04061200842,0.8716269135,2024-06-05 18:43:48.669250
19.70975262,0.2973331809,0.04181039706,0.8873391151,2024-06-05 18:43:48.709753
19.75023376,0.3031919599,-0.1087869257,1.050319791,2024-06-05 18:43:48.750234
19.79071913,0.2427399755,0.004660394508,1.291861296,2024-06-05 18:43:48.790719
19.83120298,-0.1283605844,0.1885462403,1.451912642,2024-06-05 18:43:48.831203
19.87168673,-0.05326165259,0.2790910602,1.945514917,2024-06-05 18:43:48.871687
19.91217267,-0.1206376404,-0.1335535944,2.030999899,2024-06-05 18:43:48.912173
19.95263032,-0.12117026,-0.264310956,1.566292048,2024-06-05 18:43:48.952630
19.99310704,0.05885412544,-0.5069177747,1.267094731,2024-06-05 18:43:48.993107
20.03362236,0.03648423031,-0.7635057569,0.8942631483,2024-06-05 18:43:49.033622
20.07409611,-0.03754946589,-0.5786878467,0.6134410501,2024-06-05 18:43:49.074096
20.1145759,-0.1198387146,-0.06351451576,0.2090519816,2024-06-05 18:43:49.114576
20.15506512,-0.1142462417,0.2095845938,-0.3427387178,2024-06-05 18:43:49.155065
20.19555746,-0.09214265645,0.5009258389,-0.8845428824,2024-06-05 18:43:49.195557
20.23604074,-0.07962616533,0.8232919574,-1.46070075,2024-06-05 18:43:49.236041
20.27652168,-0.117974557,0.8294170499,-1.768686295,2024-06-05 18:43:49.276522
20.31700032,-0.09001219273,0.6453980803,-1.968683839,2024-06-05 18:43:49.317000
20.35747189,-0.1978670359,0.1366161406,-2.556026697,2024-06-05 18:43:49.357472
20.39796105,-0.05086487532,0.6087806821,-2.442579269,2024-06-05 18:43:49.397961
20.43845569,0.02663082629,0.6106448174,-2.061359167,2024-06-05 18:43:49.438456
20.47893569,-0.05459319428,0.2282261699,-1.731669426,2024-06-05 18:43:49.478936
20.51941907,0.1472684592,0.513176024,-1.325416207,2024-06-05 18:43:49.519419
20.55991954,0.008788172156,0.2018616647,-1.100918293,2024-06-05 18:43:49.559920
20.60039652,0.001065233024,0.07882724702,-0.8888037801,2024-06-05 18:43:49.600397
20.64086314,-0.03435376659,0.1307573467,-0.7886719108,2024-06-05 18:43:49.640863
20.68136553,0.148067385,-0.4030575454,-0.3126458824,2024-06-05 18:43:49.681366
20.72187954,-0.004527240526,0.5691007376,-0.1347519755,2024-06-05 18:43:49.721880
20.76237683,0.1805569977,-0.1207707971,0.6917356849,2024-06-05 18:43:49.762377
20.8028523,0.4083836973,-0.4115794003,0.8631050587,2024-06-05 18:43:49.802852
20.8433211,-0.004793548491,-0.1087869257,0.609446466,2024-06-05 18:43:49.843321
20.88378897,0.145404309,-0.693466723,0.2010627389,2024-06-05 18:43:49.883789
20.92430387,0.2007964253,1.172688365,0.1845516264,2024-06-05 18:43:49.924304
20.96481032,0.1283605844,-0.1431406885,0.5255593657,2024-06-05 18:43:49.964810
21.00529777,0.1946713328,0.02676397935,0.7828131318,2024-06-05 18:43:50.005298
21.04578225,0.1291595101,-0.7773538232,0.83314538,2024-06-05 18:43:50.045782
21.08623699,-0.002130466048,-0.2382127345,0.5543206334,2024-06-05 18:43:50.086237
21.12670762,-0.00798924733,-0.837805748,0.3063876629,2024-06-05 18:43:50.126708
21.1671936,-0.2910749316,-0.7941312194,0.1366161406,2024-06-05 18:43:50.167194
21.20770715,-0.1826874614,-0.7254236937,0.3559209704,2024-06-05 18:43:50.207707
21.24817709,-0.1006645188,-0.09653674066,0.6115769148,2024-06-05 18:43:50.248177
21.28864756,0.1057243794,0.3973319232,0.7607095242,2024-06-05 18:43:50.288648
21.32910558,0.03035914153,0.2181064636,0.9086437821,2024-06-05 18:43:50.329106
21.36959058,0.04127778113,-0.213978678,0.9001219273,2024-06-05 18:43:50.369591
21.41007548,-0.09400681406,-0.0621829778,1.269757748,2024-06-05 18:43:50.410075
21.45059282,-0.01198387146,0.2308892608,1.548183084,2024-06-05 18:43:50.450593
21.49109512,-0.08069140464,-0.006524552125,1.783066869,2024-06-05 18:43:50.491095
21.53156116,0.09001219273,-0.6279548407,1.879470468,2024-06-05 18:43:50.531561
21.57205183,0.1994648874,-0.6796186566,1.578808546,2024-06-05 18:43:50.572052
21.61256959,0.08362079412,-0.923024416,1.22315383,2024-06-05 18:43:50.612570
21.65302986,0.1182408631,-0.6298190355,0.6557840705,2024-06-05 18:43:50.653030
21.69353121,0.05938674137,-0.3199693561,0.3508611321,2024-06-05 18:43:50.693531
21.73401496,-0.01944050193,0.1592523307,-0.1616491079,2024-06-05 18:43:50.734015
21.77451355,-0.1270290315,0.8342106342,-0.771894455,2024-06-05 18:43:50.774514
21.81498881,-0.137681365,1.267094731,-1.357639432,2024-06-05 18:43:50.814989
21.85546366,-0.1169093251,1.331008673,-1.552044511,2024-06-05 18:43:50.855464
21.8959209,0.06151720881,0.9204944968,-1.726076961,2024-06-05 18:43:50.895921
21.93642881,0.2207695395,0.5097140074,-2.226070642,2024-06-05 18:43:50.936429
21.97691111,0.2221010923,0.451126188,-2.173474789,2024-06-05 18:43:50.976911
22.01742449,0.1517957002,0.6501916051,-2.001173496,2024-06-05 18:43:51.017424
22.0578959,0.06204982474,0.2695039511,-1.71569097,2024-06-05 18:43:51.057896
22.09838168,0.02529928461,0.05565842614,-1.244192123,2024-06-05 18:43:51.098382
22.13881923,-0.02157096937,-0.08908011019,-0.5841471553,2024-06-05 18:43:51.138819
22.17932694,0.04127778113,-0.3705679476,0.0977351293,2024-06-05 18:43:51.179327
22.21981256,0.1882799417,-0.3481980562,0.4661726058,2024-06-05 18:43:51.219813
22.260296,0.235283345,-0.2038589716,0.5710980296,2024-06-05 18:43:51.260296
22.30078782,0.2906754613,-0.02969337068,0.6856105924,2024-06-05 18:43:51.300788
22.3412784,0.4669715166,-0.1692388952,0.7796174288,2024-06-05 18:43:51.341278
22.3817361,0.4754934013,0.01904104091,0.9730903506,2024-06-05 18:43:51.381736
22.4222298,0.5204994678,-0.02463351376,1.145391822,2024-06-05 18:43:51.422230
22.46271491,0.3130453527,-0.1229012609,1.157375693,2024-06-05 18:43:51.462715
22.50322001,0.2589847744,0.128626883,1.764159083,2024-06-05 18:43:51.503220
22.54371215,-0.1496652365,-0.3207682967,2.260957003,2024-06-05 18:43:51.543712
22.5841959,0.2053236663,0.02223674022,2.364284754,2024-06-05 18:43:51.584196
22.62470256,-0.1174419373,-0.258452177,1.465627432,2024-06-05 18:43:51.624703
22.66525876,-0.07722939551,-0.4046553969,1.312899709,2024-06-05 18:43:51.665259
22.70566236,-0.2758953571,-0.4725640118,0.759378016,2024-06-05 18:43:51.705662
22.74618121,-0.2809551954,-0.2078536004,0.1067896113,2024-06-05 18:43:51.746181
22.78664465,-0.2055899799,0.1976007223,-0.2817541361,2024-06-05 18:43:51.786645
22.82711704,-0.1246322617,0.4663057625,-0.7673672438,2024-06-05 18:43:51.827117
22.86760058,-0.02503297664,0.4809527099,-1.134206891,2024-06-05 18:43:51.867601
22.90803522,0.02077204362,0.6683005691,-1.706902742,2024-06-05 18:43:51.908035
22.94854084,0.06657706201,0.6306179762,-1.890655518,2024-06-05 18:43:51.948541
22.98900918,0.1320888996,0.2543243766,-2.133794785,2024-06-05 18:43:51.989009
23.02950939,0.09027849883,0.07003907114,-2.202369213,2024-06-05 18:43:52.029509
23.07001595,-0.1272953451,-0.01291595027,-2.015553951,2024-06-05 18:43:52.070016
23.11050006,-0.1808233112,-0.1077216864,-1.84325254,2024-06-05 18:43:52.110500
23.1509784,-0.2681724131,-0.3346163332,-1.366693974,2024-06-05 18:43:52.150978
23.19148022,-0.279889971,-0.3452686667,-0.9164998531,2024-06-05 18:43:52.191480
23.23195762,-0.1797580719,-0.2440715134,-0.3772256374,2024-06-05 18:43:52.231958
23.2724509,-0.1704372764,-0.2842840552,0.1555240154,2024-06-05 18:43:52.272451
23.31293241,0.03169068322,-0.2504629195,0.6033213735,2024-06-05 18:43:52.312932
23.35339642,0.1328878254,-0.2344844192,1.013569236,2024-06-05 18:43:52.353396
23.39387584,0.3442034125,-0.02649767138,1.11183691,2024-06-05 18:43:52.393876
23.43440751,0.3647091687,0.1632469594,1.161370277,2024-06-05 18:43:52.434408
23.47490064,0.3764267266,-0.06271559745,1.398917317,2024-06-05 18:43:52.474901
23.51536173,0.2323539555,-0.06537867337,1.650445461,2024-06-05 18:43:52.515362
23.55586496,0.1304910481,0.1240996495,2.070812941,2024-06-05 18:43:52.555865
23.59635428,-0.08947957307,0.1675078869,1.914889574,2024-06-05 18:43:52.596354
23.63682913,-0.02370143496,-0.2174406946,1.727408528,2024-06-05 18:43:52.636829
23.67730673,0.1651111245,-0.5410051942,1.33447063,2024-06-05 18:43:52.677307
23.71777569,-0.01704372838,-0.5564510822,1.166163802,2024-06-05 18:43:52.717776
23.75825887,-0.03142437339,-0.3862801194,0.6872084737,2024-06-05 18:43:52.758259
23.79874652,0.02183727734,-0.08082455397,0.2354165018,2024-06-05 18:43:52.798747
23.83922262,-0.04766917601,-0.2326202542,-0.2055899799,2024-06-05 18:43:52.839223
23.87969866,-0.05858781561,0.4748276174,-0.8824124336,2024-06-05 18:43:52.879699
23.92020621,-0.09027849883,1.047789812,-1.194925189,2024-06-05 18:43:52.920206
23.96069548,-0.1336867511,0.8400694132,-1.802241087,2024-06-05 18:43:52.960695
24.00119553,-0.05379426852,0.5027899742,-1.968683839,2024-06-05 18:43:53.001196
24.04167491,0.02396774292,0.1283605844,-2.306495905,2024-06-05 18:43:53.041675
24.08214475,-0.2886781394,-0.084020257,-2.325936317,2024-06-05 18:43:53.082145
24.12262631,-0.2474003732,0.5842803121,-1.958297729,2024-06-05 18:43:53.122626
24.16313756,-0.181622237,0.04340824485,-1.587064028,2024-06-05 18:43:53.163138
24.20363605,-0.1757634431,-0.1149120107,-1.078015804,2024-06-05 18:43:53.203636
24.24412288,-0.1501978636,-0.2645772398,-0.4888088107,2024-06-05 18:43:53.244123
24.2845973,-0.06924014539,-0.2997299433,0.1752308309,2024-06-05 18:43:53.284597
24.32508965,0.05379426852,-0.4131772518,0.5527228117,2024-06-05 18:43:53.325090
24.3655273,0.3133116663,-0.1878804713,0.741269052,2024-06-05 18:43:53.365527
24.40606142,0.378823489,-0.08748225868,0.9459269047,2024-06-05 18:43:53.406061
24.44654256,0.5718969703,-0.001731003635,0.7420679331,2024-06-05 18:43:53.446543
24.48700189,0.5290213227,0.09507204592,1.022091031,2024-06-05 18:43:53.487002
24.52750116,0.4131772518,-0.07496577501,1.484002709,2024-06-05 18:43:53.527501
24.567991,0.1563229412,0.05406057462,1.742588043,2024-06-05 18:43:53.567991
24.60844074,0.07536523789,-0.1045259908,1.949509621,2024-06-05 18:43:53.608441
24.64890959,-0.04793548584,0.004660394508,1.811828256,2024-06-05 18:43:53.648910
24.68940829,-0.1001319066,-0.4006607831,1.742588043,2024-06-05 18:43:53.689408
24.72991595,-0.1720351279,-0.8489907384,1.301714778,2024-06-05 18:43:53.729916
24.77044642,-0.1659100503,-0.7664351463,0.9621717334,2024-06-05 18:43:53.770446
24.81089616,-0.292140156,-0.3202356696,0.5351464152,2024-06-05 18:43:53.810896
24.85139162,-0.3504616618,0.113447316,0.199731186,2024-06-05 18:43:53.851392
24.89183881,-0.3118469715,0.3304885328,-0.3764267266,2024-06-05 18:43:53.891839
24.93238449,-0.2111824453,0.5709648728,-0.8690969944,2024-06-05 18:43:53.932384
24.97282798,-0.1238333359,0.7095783353,-1.319024801,2024-06-05 18:43:53.972828
25.01332892,-0.1398118287,0.8067808747,-1.803838968,2024-06-05 18:43:54.013329
25.0538359,-0.07483261824,0.5619103909,-2.011559486,2024-06-05 18:43:54.053836
25.09430418,-0.08947957307,0.2567211688,-2.105566263,2024-06-05 18:43:54.094304
25.13479032,-0.1539261788,0.1715025157,-2.078402758,2024-06-05 18:43:54.134790
25.175261,-0.2905423045,0.2090519816,-1.887726068,2024-06-05 18:43:54.175261
25.21576689,-0.1810896099,-0.03741630912,-1.586265087,2024-06-05 18:43:54.215767
25.25635032,-0.1685731262,-0.2227668613,-1.108641267,2024-06-05 18:43:54.256350
25.29672475,-0.1278279573,-0.1684399694,-0.6294195652,2024-06-05 18:43:54.296725
25.33719751,-0.1347519755,-0.3205019832,-0.03062544949,2024-06-05 18:43:54.337198
25.37766267,0.1323551983,-0.0573894307,0.3279586136,2024-06-05 18:43:54.377663
25.41819621,0.2127802968,-0.03475322574,0.6768224239,2024-06-05 18:43:54.418196
25.45864288,0.244337827,0.0166442655,0.7420679331,2024-06-05 18:43:54.458643
25.49912256,0.4584496617,0.08548495173,0.8798824549,2024-06-05 18:43:54.499123
25.53960027,0.4728302956,-0.08828118443,1.274551272,2024-06-05 18:43:54.539600
25.58013032,0.5559184551,-0.07603100687,1.700245023,2024-06-05 18:43:54.580130
25.62061642,0.347132802,-0.1961360276,1.944716096,2024-06-05 18:43:54.620616
25.66106225,0.2752295732,0.2639114857,1.847513556,2024-06-05 18:43:54.661062
25.70157975,0.05512581021,0.143540144,1.738060832,2024-06-05 18:43:54.701580
25.74205433,0.09640359133,-0.3268933892,1.697582006,2024-06-05 18:43:54.742054
25.78255111,0.04527240247,-1.083341956,1.441260338,2024-06-05 18:43:54.782551
25.82304303,-0.1283605844,-0.6761566401,1.102782488,2024-06-05 18:43:54.823043
25.86352491,-0.3086512685,-0.2089188248,0.6813496947,2024-06-05 18:43:54.863525
25.90399689,-0.3730978668,0.01025286783,0.2485987544,2024-06-05 18:43:54.903997
25.94452725,-0.2644441128,0.3366136253,-0.5726959109,2024-06-05 18:43:54.944527
25.98500491,-0.2703028917,0.7103772759,-1.113168478,2024-06-05 18:43:54.985005
26.02548501,-0.02130465955,0.9370055795,-1.427412271,2024-06-05 18:43:55.025485
26.06593652,0.01251648832,0.2213021666,-1.822214246,2024-06-05 18:43:55.065937
26.10643959,-0.05406057462,0.3728315532,-2.135126352,2024-06-05 18:43:55.106440
26.14692548,-0.03035914153,0.3326190114,-2.243647099,2024-06-05 18:43:55.146925
26.18743532,-0.1696383655,-0.133819893,-2.039255381,2024-06-05 18:43:55.187435
26.22787251,-0.1483336985,0.2657756507,-1.793186665,2024-06-05 18:43:55.227873
26.26838933,-0.2774932086,-0.342605561,-1.588129282,2024-06-05 18:43:55.268389
26.30889017,-0.3395430148,-0.01238333434,-0.9943950176,2024-06-05 18:43:55.308890
26.34937605,-0.2553896308,-0.04034570232,-0.3595161438,2024-06-05 18:43:55.349376
26.38981824,-0.1259638071,-0.1031944528,0.018907886,2024-06-05 18:43:55.389818
26.43032209,0.001065233024,-0.2438052148,0.3985303044,2024-06-05 18:43:55.430322
26.47082782,0.1715025157,-0.203592658,0.6461969614,2024-06-05 18:43:55.470828
26.51129215,0.2728328109,0.1102516204,0.7769543529,2024-06-05 18:43:55.511292
26.55179157,0.3663070202,0.2852161527,0.9760197401,2024-06-05 18:43:55.551792
26.59226501,0.3308880031,0.1709699035,1.294524431,2024-06-05 18:43:55.592265
26.63275595,0.4150414169,-0.3545894325,1.565226793,2024-06-05 18:43:55.632756
26.67323574,0.1848179251,0.05778888986,1.724212766,2024-06-05 18:43:55.673236
26.71371996,0.1765623689,0.1901440918,1.943384528,2024-06-05 18:43:55.713720
26.75423579,-0.01757634431,0.1131810099,1.807300925,2024-06-05 18:43:55.754236
26.79471944,0.07776200771,-0.6042534113,1.728473783,2024-06-05 18:43:55.794719
26.83518631,0.1760297567,-0.7728265524,1.342726231,2024-06-05 18:43:55.835186
26.87566986,0.009320789017,-0.7291520238,0.8400694132,2024-06-05 18:43:55.875670
26.91613236,-0.1051917598,-0.1252980381,0.6057181358,2024-06-05 18:43:55.916132
26.95662975,-0.1840189993,0.01770949923,0.2007964253,2024-06-05 18:43:55.956630
26.99710475,-0.2788247466,0.1448716968,-0.4219654202,2024-06-05 18:43:55.997105
27.03760178,-0.2703028917,0.7247579098,-0.9989222884,2024-06-05 18:43:56.037602
27.0781034,-0.2175738513,0.6403381824,-1.4154284,2024-06-05 18:43:56.078103
27.11857621,-0.2162422985,0.7671009302,-1.771349311,2024-06-05 18:43:56.118576
27.15903736,-0.05379426852,0.7426005602,-2.275337696,2024-06-05 18:43:56.159037
27.19951116,-0.09427312016,-0.164179042,-2.489715815,2024-06-05 18:43:56.199511
27.23999954,-0.1035939083,0.3083849549,-1.99398303,2024-06-05 18:43:56.240000
27.28051178,-0.2029268891,0.2897433937,-1.899443626,2024-06-05 18:43:56.280512
27.32100668,-0.1299584359,0.004127778113,-1.681603432,2024-06-05 18:43:56.321007
27.36144225,-0.09746882319,0.1994648874,-1.18906641,2024-06-05 18:43:56.361442
27.40196288,-0.05645735189,-0.1545919478,-0.6576482654,2024-06-05 18:43:56.401963
27.44245136,-0.0330222249,0.1374150664,0.1677742004,2024-06-05 18:43:56.442451
27.48293334,0.2411421239,-0.01904104091,1.061771035,2024-06-05 18:43:56.482933
27.52342668,0.4584496617,-0.08668334037,1.515427113,2024-06-05 18:43:56.523427
27.56392371,0.329023838,-0.347132802,1.15790832,2024-06-05 18:43:56.563924
27.60441756,0.1099853069,-0.151928857,0.753519237,2024-06-05 18:43:56.604418
27.64492626,0.2685718834,-0.150597319,0.7987915874,2024-06-05 18:43:56.644926
27.68540069,0.3463338912,-0.4390091598,1.376014709,2024-06-05 18:43:56.685401
27.72589277,0.09853405505,0.03808208182,1.89678061,2024-06-05 18:43:56.725893
27.76637553,-0.06631075591,0.2474003732,1.995847225,2024-06-05 18:43:56.766376
27.8068435,-0.1880136281,0.4244953692,1.632602811,2024-06-05 18:43:56.806843
27.84731959,-0.07430000603,-0.2762948275,1.301182151,2024-06-05 18:43:56.847320
27.88780402,0.1070559174,-0.5636414289,1.339530468,2024-06-05 18:43:56.887804
27.92827689,0.06471290439,-0.8889369369,1.02129221,2024-06-05 18:43:56.928277
27.96876001,-0.1123820841,-0.218505919,0.616104126,2024-06-05 18:43:56.968760
28.00924824,-0.1701709777,0.268971324,0.345801264,2024-06-05 18:43:57.009248
28.0497236,-0.1328878254,-0.0243672058,-0.3083849549,2024-06-05 18:43:57.049724
28.09022319,-0.04074516147,0.4282236695,-1.193593621,2024-06-05 18:43:57.090223
28.1307097,-0.05379426852,1.145524979,-1.480141282,2024-06-05 18:43:57.130710
28.17120262,0.02716344222,0.4356803,-1.89305222,2024-06-05 18:43:57.171203
28.21169454,-0.2047910541,0.413044095,-2.294778347,2024-06-05 18:43:57.211695
28.25217824,-0.1049254537,0.2644441128,-2.625533104,2024-06-05 18:43:57.252178
28.29265501,-0.4153077304,0.7186328173,-2.481460333,2024-06-05 18:43:57.292655
28.33314824,-0.1248985752,0.955380857,-2.291316271,2024-06-05 18:43:57.333148
28.37360095,0.06284874678,0.3549889028,-1.988390565,2024-06-05 18:43:57.373601
28.41421975,0.1118494645,0.8203625679,-1.501445889,2024-06-05 18:43:57.414220
28.45459881,0.112115778,0.2127802968,-0.9577776194,2024-06-05 18:43:57.454599
28.49508996,-0.002663082443,0.05645735189,-0.7489919662,2024-06-05 18:43:57.495090
28.53559605,0.03435376659,0.2202369273,-0.4347482324,2024-06-05 18:43:57.535596
28.57607308,0.2994636297,0.1781602204,0.01517957076,2024-06-05 18:43:57.576073
28.61652829,0.2371474952,0.3768261969,0.09054480493,2024-06-05 18:43:57.616528
28.65704949,0.1597849578,0.148067385,0.1600512564,2024-06-05 18:43:57.657049
28.69751506,0.1818885356,0.2545906901,0.08042509109,2024-06-05 18:43:57.697515
28.73798381,-0.0490007177,0.1731003672,-0.3395430148,2024-06-05 18:43:57.737984
28.77846944,-0.01944050193,0.330222249,-0.3655080795,2024-06-05 18:43:57.778469
28.81894527,-0.2135792226,-0.07123745978,-0.4456668794,2024-06-05 18:43:57.818945
28.85943527,-0.2316881865,-0.2286256403,-0.3687037826,2024-06-05 18:43:57.859435
28.89990183,-0.1683068126,-0.2563216984,-0.2548570037,2024-06-05 18:43:57.899902
28.9404084,-0.02343512699,-0.03262276202,-0.01198387146,2024-06-05 18:43:57.940408
28.98095397,-0.1278279573,0.06844121963,0.03382114694,2024-06-05 18:43:57.980954
29.02139163,0.05033225939,0.01691057347,0.1675078869,2024-06-05 18:43:58.021392
29.06189433,0.07163692266,0.03834838793,0.2085193694,2024-06-05 18:43:58.061894
29.10236996,-0.06098458916,0.1579207927,0.07829462737,2024-06-05 18:43:58.102370
29.14284595,0.05352795869,0.1973344237,0.03541899845,2024-06-05 18:43:58.142846
29.18335084,-0.1738992929,0.3861469626,-0.04766917601,2024-06-05 18:43:58.183351
29.22382236,-0.1019960642,0.117974557,-0.07430000603,2024-06-05 18:43:58.223822
29.26433881,-0.08947957307,0.037815772,-0.02316881903,2024-06-05 18:43:58.264339
29.30480751,-0.07962616533,0.01877473295,0.1102516204,2024-06-05 18:43:58.304808
29.34528074,-0.05459319428,0.05805519968,0.3636439145,2024-06-05 18:43:58.345281
29.38572741,0.08415340632,0.002263620263,0.4568518102,2024-06-05 18:43:58.385727
29.42623006,-0.1371487528,0.1326215118,0.2890776098,2024-06-05 18:43:58.426230
29.46674741,-0.03169068322,-0.08961272985,0.3862801194,2024-06-05 18:43:58.466747
29.50727793,0.1312899739,0.4274247587,0.7620410919,2024-06-05 18:43:58.507278
29.54769012,0.4629769027,0.05432688445,0.6840127707,2024-06-05 18:43:58.547690
29.58817064,0.2276935577,0.7386059761,0.3663070202,2024-06-05 18:43:58.588171
29.62865694,0.003462007269,0.8187647462,0.137681365,2024-06-05 18:43:58.628657
29.66912631,-0.0007989247679,0.4047885537,0.08814803511,2024-06-05 18:43:58.669126
29.70963741,0.07270215452,0.08042509109,0.169372052,2024-06-05 18:43:58.709637
29.75012715,0.4195686579,-0.4722976983,-0.03728315607,2024-06-05 18:43:58.750127
29.79059319,0.4898740351,-0.007323476952,-0.4222317338,2024-06-05 18:43:58.790593
29.83107918,0.4936023653,0.1653774232,-0.4086500108,2024-06-05 18:43:58.831079
29.87159975,0.6733604074,0.5147738457,0.1214365661,2024-06-05 18:43:58.871600
29.91207397,0.4624442756,0.3672390878,0.3705679476,2024-06-05 18:43:58.912074
29.9525384,0.1219691783,-0.04940018058,0.7580464482,2024-06-05 18:43:58.952538
29.99307355,-0.01384802908,-0.6700315475,1.457238793,2024-06-05 18:43:58.993074
30.03356824,0.08761541545,-0.7757559419,2.022744417,2024-06-05 18:43:59.033568
30.07404522,0.1379476786,-0.7653699517,2.047511101,2024-06-05 18:43:59.074045
30.11452475,0.1933397949,-0.3724320829,1.023955226,2024-06-05 18:43:59.114525
30.15503496,0.1411433816,0.1395455301,0.4461994767,2024-06-05 18:43:59.155035
30.19552584,0.5013253093,0.222367391,0.7961285114,2024-06-05 18:43:59.195526
30.23598465,0.2501966059,0.1073222235,1.215697169,2024-06-05 18:43:59.235985
30.27644871,0.1443390697,0.3368799388,1.114500046,2024-06-05 18:43:59.276449
30.31694611,0.1334204376,0.2292914093,1.342459917,2024-06-05 18:43:59.316946
30.35742782,-0.003462007269,-0.3375457227,1.516492367,2024-06-05 18:43:59.357428
30.39792475,0.02236989327,-0.7523208261,1.614493847,2024-06-05 18:43:59.397925
30.43837965,0.3189041317,0.04047885537,1.728473783,2024-06-05 18:43:59.438380
30.47891683,0.1837527007,-0.1769618392,1.085738778,2024-06-05 18:43:59.478917
30.51939084,0.2496639937,0.09001219273,0.2491313666,2024-06-05 18:43:59.519391
30.55982626,0.3175725937,0.02143781446,0.02742975019,2024-06-05 18:43:59.559826
30.60036907,0.1113168523,-0.1050586104,0.07163692266,2024-06-05 18:43:59.600369
30.64082949,0.02583190054,0.4761591554,-0.5905385613,2024-06-05 18:43:59.640829
30.68130246,-0.1195724085,0.9465926886,-0.9423317909,2024-06-05 18:43:59.681302
30.72178043,0.1046591476,0.9588428736,-1.153913617,2024-06-05 18:43:59.721780
30.76226933,0.1464695334,0.9085106254,-1.62727654,2024-06-05 18:43:59.762269
30.80274199,0.2226337045,0.7426005602,-2.118881702,2024-06-05 18:43:59.802742
30.84325683,0.21784015,0.77748698,-2.426600933,2024-06-05 18:43:59.843257
30.88372095,0.1177082509,0.1917419434,-1.863758326,2024-06-05 18:43:59.883721
30.92419079,0.03142437339,0.2782921195,-1.640858293,2024-06-05 18:43:59.924191
30.96468637,-0.2154433727,0.08868064731,-1.638195276,2024-06-05 18:43:59.964686
31.00516845,-0.2402100414,0.08388710022,-1.123554587,2024-06-05 18:44:00.005168
31.04564173,-0.3017272651,-0.00998655986,-0.6054518223,2024-06-05 18:44:00.045642
31.08615366,-0.1664426625,-0.02729659714,0.09081111848,2024-06-05 18:44:00.086154
31.12663564,0.09027849883,-0.008122402243,0.6837464571,2024-06-05 18:44:00.126636
31.16713683,0.1757634431,0.3033251166,0.7202306986,2024-06-05 18:44:00.167137
31.20764303,0.3663070202,0.5904054046,0.7173013091,2024-06-05 18:44:00.207643
31.24806657,0.6009245515,0.535279572,0.8078460693,2024-06-05 18:44:00.248067
31.28857314,0.7186328173,0.517170608,1.102516174,2024-06-05 18:44:00.288573
31.32904314,0.7753564715,0.4127778113,1.293192863,2024-06-05 18:44:00.329043
31.36952532,0.5958647132,0.4378107786,1.483203888,2024-06-05 18:44:00.369525
31.41001907,0.6304848194,0.7274209857,1.941786647,2024-06-05 18:44:00.410019
31.45052189,0.634745717,0.3459344208,2.363752127,2024-06-05 18:44:00.450522
31.49100329,0.235283345,0.3898752928,2.279066086,2024-06-05 18:44:00.491003
31.53149012,0.5005263686,-0.2675066292,1.829404593,2024-06-05 18:44:00.531490
31.57199236,0.2406095117,-0.3676385581,1.066298246,2024-06-05 18:44:00.571992
31.61246668,0.3103822768,-0.3734973371,0.8078460693,2024-06-05 18:44:00.612467
31.65295834,0.2082530558,-0.1985328048,0.3758940995,2024-06-05 18:44:00.652958
31.69342975,0.1057243794,-0.0576557368,0.0490007177,2024-06-05 18:44:00.693430
31.73391637,0.05565842614,0.2788247466,-0.4741618633,2024-06-05 18:44:00.733916
31.77442553,0.07776200771,0.8805482388,-1.050586104,2024-06-05 18:44:00.774426
31.81491314,0.2624467909,1.00012064,-1.311568141,2024-06-05 18:44:00.814913
31.8553772,0.3362141848,0.7519213557,-1.736995578,2024-06-05 18:44:00.855377
31.89585886,0.4129109383,0.6459306479,-2.137523174,2024-06-05 18:44:00.895859
31.93636027,0.398796618,0.5003932118,-2.150305986,2024-06-05 18:44:00.936360
31.97684215,0.1794917583,0.3296896219,-2.048310041,2024-06-05 18:44:00.976842
32.01732043,0.04340824485,0.5240946412,-1.710098505,2024-06-05 18:44:01.017320
32.05780517,0.07696308941,0.4548544884,-1.442325473,2024-06-05 18:44:01.057805
32.0982823,-0.151263088,0.1643121988,-0.9481905699,2024-06-05 18:44:01.098282
32.13877626,0.1371487528,0.3195699155,-0.01944050193,2024-06-05 18:44:01.138776
32.1792561,0.1691057384,0.02223674022,0.8046503663,2024-06-05 18:44:01.179256
32.21974277,0.3023930192,0.266308248,0.9014534354,2024-06-05 18:44:01.219743
32.26027762,0.5375432372,0.7910686731,0.8916000128,2024-06-05 18:44:01.260278
32.30073939,0.7604432106,0.5248935819,1.212235212,2024-06-05 18:44:01.300739
32.34119548,0.8748226166,0.1624480337,1.654972672,2024-06-05 18:44:01.341195
32.38167949,0.7210295796,0.6029219031,1.392259598,2024-06-05 18:44:01.381679
32.42217209,0.2047910541,0.7130403519,1.517557621,2024-06-05 18:44:01.422172
32.46266079,0.5892069936,0.3198362291,2.635652781,2024-06-05 18:44:01.462661
32.5031448,0.5910711884,0.01797580719,2.445242405,2024-06-05 18:44:01.503145
32.54364834,0.7929328084,0.2814878225,1.98359704,2024-06-05 18:44:01.543648
32.58411782,0.8881380558,-0.5047873259,1.536199212,2024-06-05 18:44:01.584118
32.6245909,0.7639052272,-0.6718957424,1.073488593,2024-06-05 18:44:01.624591
32.66507709,0.7127740383,-0.5734948516,0.5652392507,2024-06-05 18:44:01.665077
32.70555439,0.5564510822,-0.4403406978,0.09320788831,2024-06-05 18:44:01.705554
32.74603829,0.4182371199,0.1808233112,-0.4046553969,2024-06-05 18:44:01.746038
32.78652225,0.3689700961,0.6975944638,-0.8467270732,2024-06-05 18:44:01.786522
32.82701168,0.388410598,0.6997249722,-1.293192863,2024-06-05 18:44:01.827012
32.86748642,0.5710980296,1.019561172,-1.714093089,2024-06-05 18:44:01.867486
32.90799022,0.7311493158,0.3549889028,-1.903704524,2024-06-05 18:44:01.907990
32.94848449,0.5649729371,0.1954702586,-2.209825993,2024-06-05 18:44:01.948484
32.98898225,0.4509930313,0.4708330035,-2.225538015,2024-06-05 18:44:01.988982
33.02946043,0.4856131077,0.3509942889,-1.980401397,2024-06-05 18:44:02.029460
33.06992548,0.4198349714,-0.1599181145,-1.464695454,2024-06-05 18:44:02.069925
33.11044866,0.2866808474,-0.1639127284,-0.9455274343,2024-06-05 18:44:02.110449
33.15090454,0.2952027023,-0.359382987,-0.1991985738,2024-06-05 18:44:02.150905
33.1914186,0.3074528873,-0.4331503808,0.4166392684,2024-06-05 18:44:02.191419
33.23187907,0.4432700872,-0.2350170314,0.6129084229,2024-06-05 18:44:02.231879
33.27237199,0.5130428672,-0.0736342296,0.6379414201,2024-06-05 18:44:02.272372
33.31286413,0.570032835,-0.1918751001,0.6912030578,2024-06-05 18:44:02.312864
33.35334038,0.5521901846,-0.3268933892,0.8475260139,2024-06-05 18:44:02.353340
33.39382564,0.4006607831,-0.1545919478,1.01463449,2024-06-05 18:44:02.393826
33.43431553,0.4400743842,0.1155777797,1.270290375,2024-06-05 18:44:02.434316
33.47477855,0.2063889056,-0.09094426781,1.649113894,2024-06-05 18:44:02.474779
33.51528897,0.01438064594,0.2524602413,1.973743677,2024-06-05 18:44:02.515289
33.5557586,-0.04473978654,-0.2986647189,1.950841188,2024-06-05 18:44:02.555759
33.5962335,0.04314193875,-1.179745555,1.633401632,2024-06-05 18:44:02.596233
33.63675303,0.08255556226,-0.8127728105,1.215963483,2024-06-05 18:44:02.636753
33.67721168,-0.2551233172,-0.4264926612,0.9131709933,2024-06-05 18:44:02.677212
33.71771767,-0.3267602324,-0.3332847953,0.5761579275,2024-06-05 18:44:02.717718
33.75818642,-0.3616466224,-0.2952027023,-0.02636451647,2024-06-05 18:44:02.758186
33.79866933,-0.2692376375,0.1153114736,-0.55778265,2024-06-05 18:44:02.798669
33.83914965,-0.1837527007,0.7678998709,-0.955380857,2024-06-05 18:44:02.839150
33.87962293,0.06950645149,0.9697614908,-1.415961027,2024-06-05 18:44:02.879623
33.92011928,0.238479048,0.5081161261,-1.800110698,2024-06-05 18:44:02.920119
33.96066064,0.2074541301,0.1842853129,-1.959629297,2024-06-05 18:44:02.960661
34.00110631,0.1206376404,-0.0685743764,-2.110359669,2024-06-05 18:44:03.001106
34.04158772,-0.02902759984,-0.1378145218,-2.022478104,2024-06-05 18:44:03.041588
34.08207819,-0.2703028917,-0.1577876359,-1.849910259,2024-06-05 18:44:03.082078
34.12257183,-0.4645747542,-0.542336762,-1.497451305,2024-06-05 18:44:03.122572
34.16306564,-0.7010564804,-0.4667052329,-1.0316782,2024-06-05 18:44:03.163066
34.20353376,-0.4115794003,-0.4544550478,-0.3424724042,2024-06-05 18:44:03.203534
34.24403152,-0.24234052,-0.378823489,0.1877473146,2024-06-05 18:44:03.244032
34.28452381,0.02663082629,-0.1106510833,0.5804188251,2024-06-05 18:44:03.284524
34.32498386,0.2279598713,0.3280917704,0.851254344,2024-06-05 18:44:03.324984
34.36550975,0.3854812086,0.5541874766,0.9153015018,2024-06-05 18:44:03.365510
34.40599074,0.3279586136,0.5744268894,1.053781748,2024-06-05 18:44:03.405991
34.44645683,0.5295539498,0.426625818,1.389063835,2024-06-05 18:44:03.446457
34.48692426,0.2882786989,0.1869483888,1.354177475,2024-06-05 18:44:03.486924
34.52742645,0.1874810159,0.2247641683,1.777740717,2024-06-05 18:44:03.527426
34.56791228,-0.04527240247,0.1810896099,1.789191961,2024-06-05 18:44:03.567912
34.60839218,-0.1717688292,0.3837502003,2.002504826,2024-06-05 18:44:03.608392
34.64890395,-0.1677742004,-0.412378341,2.041385889,2024-06-05 18:44:03.648904
34.6893577,-0.1563229412,-0.5402063131,1.696516752,2024-06-05 18:44:03.689358
34.72983389,-0.1643121988,-0.3519263566,1.157375693,2024-06-05 18:44:03.729834
34.77032853,-0.1392792165,-0.1202381775,0.5604457259,2024-06-05 18:44:03.770329
34.81082936,-0.02716344222,0.1190397888,-0.1336867511,2024-06-05 18:44:03.810829
34.85129952,0.06098458916,0.4095821083,-0.8264876604,2024-06-05 18:44:03.851300
34.89176796,0.2154433727,0.7647041678,-1.372286439,2024-06-05 18:44:03.891768
34.93225822,0.2797568142,0.7644378543,-1.895981669,2024-06-05 18:44:03.932258
34.97275681,0.4557865858,0.7196980715,-2.16095829,2024-06-05 18:44:03.972757
35.0132603,0.4816184938,0.3973319232,-2.230065346,2024-06-05 18:44:04.013260
35.05375176,0.4339492917,0.1443390697,-2.506227016,2024-06-05 18:44:04.053752
35.09424858,0.2896102369,0.03275591508,-2.049375296,2024-06-05 18:44:04.094249
35.13471233,-0.05938674137,-0.6157047153,-1.491326213,2024-06-05 18:44:04.134712
35.17518186,-0.3868127465,-1.039667487,-1.674679518,2024-06-05 18:44:04.175182
35.21568238,-0.3227656186,-0.6335473657,-0.8211615086,2024-06-05 18:44:04.215682
35.25614837,-0.2029268891,-0.5220973492,0.1238333359,2024-06-05 18:44:04.256148
35.29664389,-0.07536523789,-0.2904091477,0.4182371199,2024-06-05 18:44:04.296644
35.33713009,0.04127778113,-0.004926702939,0.5527228117,2024-06-05 18:44:04.337130
35.37762744,0.1432738453,-0.08908011019,0.7599105835,2024-06-05 18:44:04.377627
35.41809895,0.2130466104,-0.05579157919,0.8852086663,2024-06-05 18:44:04.418099
35.45858249,0.250729233,-0.2371474952,1.100119352,2024-06-05 18:44:04.458582
35.49906629,0.005858781748,0.001731003635,1.466692686,2024-06-05 18:44:04.499066
35.53957035,-0.06444659829,-0.2155765295,1.637928963,2024-06-05 18:44:04.539570
35.58005827,-0.1083874628,0.1086537689,1.754571915,2024-06-05 18:44:04.580058
35.62054004,-0.1765623689,0.146735847,2.001706123,2024-06-05 18:44:04.620540
35.66100275,-0.103061296,0.06524552405,2.149640322,2024-06-05 18:44:04.661003
35.70149447,-0.1446053833,-0.2371474952,1.821681619,2024-06-05 18:44:04.701494
35.74199171,-0.1773612946,-0.1426080763,1.511432528,2024-06-05 18:44:04.741992
35.78248634,-0.1866820902,-0.1838858575,1.104114056,2024-06-05 18:44:04.782486
35.82297004,-0.2250304818,-0.4083836973,0.3412740231,2024-06-05 18:44:04.822970
35.86344488,-0.3294233084,0.3619129062,-0.5322170258,2024-06-05 18:44:04.863445
35.90394936,-0.5252930522,0.9394024014,-0.9513862729,2024-06-05 18:44:04.903949
35.94445441,-0.1382139921,1.512897253,-1.391460657,2024-06-05 18:44:04.944454
35.98492129,0.2034595013,1.598382115,-1.584667325,2024-06-05 18:44:04.984921
36.02539738,0.2802894413,0.9583102465,-2.503031254,2024-06-05 18:44:05.025397
36.06586624,0.4600475132,0.302526176,-2.76774168,2024-06-05 18:44:05.065866
36.10634759,0.4896077216,-0.1788259894,-2.566146374,2024-06-05 18:44:05.106348
36.14684973,0.3223661482,-0.159651801,-2.440448761,2024-06-05 18:44:05.146850
36.18733353,0.277892679,0.02489982173,-1.894117475,2024-06-05 18:44:05.187334
36.22780353,0.1800243855,-0.6766892672,-0.7423342466,2024-06-05 18:44:05.227804
36.26826275,0.0596530512,-0.3801550269,-0.172567755,2024-06-05 18:44:05.268263
36.30877207,0.08921326697,-0.2749632597,0.3724320829,2024-06-05 18:44:05.308772
36.34925717,0.0980014354,-0.0432750918,0.8713606,2024-06-05 18:44:05.349257
36.38975306,0.2752295732,0.2601831555,0.9781502485,2024-06-05 18:44:05.389753
36.43023322,0.5031894445,0.4431369305,1.079879999,2024-06-05 18:44:05.430233
36.47074884,0.112115778,0.122501798,1.039933681,2024-06-05 18:44:05.470749
36.5111966,0.2260957062,0.04447348043,1.439396143,2024-06-05 18:44:05.511197
36.55167754,0.1776276082,-0.07896039635,1.68373394,2024-06-05 18:44:05.551678
36.5921754,-0.1185071766,-0.4560528994,1.734598875,2024-06-05 18:44:05.592175
36.63271483,-0.2545906901,0.3187709749,1.785996318,2024-06-05 18:44:05.632715
36.6731416,-0.06631075591,-0.2640446424,1.78173542,2024-06-05 18:44:05.673142
36.71361999,0.09933298081,-0.6769555807,1.551378727,2024-06-05 18:44:05.713620
36.75416629,0.2853493094,-0.6862763762,1.253512979,2024-06-05 18:44:05.754166
36.79463384,0.2234326303,-0.7890713811,0.6179683208,2024-06-05 18:44:05.794634
36.83513046,0.2408758104,-0.7264889479,0.01251648832,2024-06-05 18:44:05.835130
36.87556785,0.07430000603,0.00998655986,-0.741269052,2024-06-05 18:44:05.875568
36.91606572,-0.007190322969,0.4729634523,-1.145125508,2024-06-05 18:44:05.916066
36.95654764,0.06391397864,0.6701647043,-1.434069991,2024-06-05 18:44:05.956548
36.99703384,0.1195724085,0.9548482299,-1.900508881,2024-06-05 18:44:05.997034
37.03749098,0.1832200736,1.119959354,-1.767887354,2024-06-05 18:44:06.037491
37.07797619,0.003462007269,-0.1766955256,-2.136191607,2024-06-05 18:44:06.077976
37.11846473,-0.002929390874,0.3251623809,-2.223407745,2024-06-05 18:44:06.118465
37.15895431,-0.1651111245,-0.008122402243,-1.946047544,2024-06-05 18:44:06.158954
37.1994517,-0.09374050796,-0.06937330216,-1.611031771,2024-06-05 18:44:06.199452
37.23995301,0.3276923001,0.142208606,-0.5785546899,2024-06-05 18:44:06.239953
37.28043577,-0.06471290439,-0.162847504,-0.1877473146,2024-06-05 18:44:06.280436
37.32095077,-0.0146469539,-0.1130478531,0.3487306535,2024-06-05 18:44:06.320951
37.36143957,0.04660394415,-0.4179708064,0.3798887134,2024-06-05 18:44:06.361440
37.40186905,0.08388710022,-0.235283345,0.6065170765,2024-06-05 18:44:06.401869
37.44238379,0.168040514,-0.2382127345,0.8483249545,2024-06-05 18:44:06.442384
37.48289764,0.268838197,-0.04194355011,1.191196799,2024-06-05 18:44:06.482898
37.52334848,0.2077204436,0.3123795986,1.449782133,2024-06-05 18:44:06.523348
37.56383197,-0.05698996782,-0.03475322574,1.59239018,2024-06-05 18:44:06.563832
37.60432129,-0.1573881805,0.1307573467,1.980401397,2024-06-05 18:44:06.604321
37.64477551,-0.5303528905,-0.004660394508,2.023543358,2024-06-05 18:44:06.644776
37.6852828,-0.2290250957,-0.5684349537,2.021679163,2024-06-05 18:44:06.685283
37.72577889,0.03808208182,-1.148587465,1.51595974,2024-06-05 18:44:06.725779
37.76626499,0.09533835202,-1.102782488,0.9469921589,2024-06-05 18:44:06.766265
37.80674744,0.1011971384,-0.4057206213,0.4659062922,2024-06-05 18:44:06.806747
37.84723822,-0.0705716908,-0.07256899774,0.005059856921,2024-06-05 18:44:06.847238
37.88769712,-0.117974557,0.4226312041,-0.5468640327,2024-06-05 18:44:06.887697
37.92819842,-0.01704372838,0.8584446907,-1.028748751,2024-06-05 18:44:06.928198
37.96869082,0.02263620123,0.9441959262,-1.629140735,2024-06-05 18:44:06.968691
38.00918441,0.1533935517,0.9998543262,-1.877872705,2024-06-05 18:44:07.009184
38.04967056,0.3053224087,0.7039858699,-2.235924006,2024-06-05 18:44:07.049671
38.09015004,0.1230344176,0.1896114796,-2.499036789,2024-06-05 18:44:07.090150
38.1306442,0.1733666807,0.1541924775,-1.980135083,2024-06-05 18:44:07.130644
38.17112119,-0.03595161438,-0.04407401755,-1.829138279,2024-06-05 18:44:07.171121
38.21159572,-0.08601756394,-0.05712312087,-1.394389987,2024-06-05 18:44:07.211596
38.2520928,-0.1131810099,-0.2509955168,-0.7327471375,2024-06-05 18:44:07.252093
38.29259441,-0.03462007269,-0.4824174047,-0.01358172111,2024-06-05 18:44:07.292594
38.33306952,0.01438064594,-0.4043890834,0.5489944816,2024-06-05 18:44:07.333070
38.37356144,0.1201050207,-0.0384815447,0.8384715319,2024-06-05 18:44:07.373561
38.41404061,0.2250304818,-0.01957365684,1.109706521,2024-06-05 18:44:07.414041
38.45453608,0.2427399755,-0.2467346042,1.10145092,2024-06-05 18:44:07.454536
38.49505077,0.216508612,0.1600512564,1.008243084,2024-06-05 18:44:07.495051
38.53549467,0.1193061024,0.2066552043,1.538862228,2024-06-05 18:44:07.535495
38.57596504,-0.1387466043,-0.04593817517,1.826475143,2024-06-05 18:44:07.575965
38.6164477,-0.1818885356,0.1789591461,2.00809741,2024-06-05 18:44:07.616448
38.6569279,-0.143540144,-0.3332847953,1.970281601,2024-06-05 18:44:07.656928
38.69741035,0.1483336985,-1.274684429,1.699712396,2024-06-05 18:44:07.697410
38.73791233,0.0490007177,-0.9195623994,1.203979611,2024-06-05 18:44:07.737912
38.77838212,-0.08814803511,-0.2730991244,0.7119750977,2024-06-05 18:44:07.778382
38.81887332,-0.02370143496,-0.2589847744,0.369769007,2024-06-05 18:44:07.818873
38.85936348,-0.1560566425,0.1781602204,-0.4254274368,2024-06-05 18:44:07.859363
38.8998691,-0.07616416365,0.8288844228,-0.9404675961,2024-06-05 18:44:07.899869
38.94036072,-0.03328853101,1.092529655,-1.428211212,2024-06-05 18:44:07.940361
38.9808402,0.1073222235,1.073089123,-1.795583367,2024-06-05 18:44:07.980840
39.02131426,0.3442034125,0.4841484129,-2.177735806,2024-06-05 18:44:08.021314
39.06181863,0.2451367527,0.00998655986,-2.513683558,2024-06-05 18:44:08.061819
39.10228717,0.02583190054,0.1347519755,-2.152436495,2024-06-05 18:44:08.102287
39.14277592,-0.1240996495,0.1696383655,-1.912759066,2024-06-05 18:44:08.142776
39.18326947,-0.1240996495,0.0410114713,-1.512098312,2024-06-05 18:44:08.183269
39.22375254,-0.2221010923,-0.2669740319,-0.824090898,2024-06-05 18:44:08.223753
39.2642367,-0.1296921223,-0.4163729548,-0.1057243794,2024-06-05 18:44:08.264237
39.30471144,-0.02316881903,-0.4683030546,0.5079829693,2024-06-05 18:44:08.304711
39.34520967,0.1062569916,-0.07017222792,0.8577789068,2024-06-05 18:44:08.345210
39.38567681,0.2866808474,-0.02569874749,0.9496552348,2024-06-05 18:44:08.385677
39.4261554,0.376160413,0.03382114694,0.8601756692,2024-06-05 18:44:08.426155
39.46666264,0.2858819067,0.1129147038,1.250849843,2024-06-05 18:44:08.466663
39.5071379,0.07243584841,0.2058562785,1.588129282,2024-06-05 18:44:08.507138
39.5476154,-0.1864157766,0.2226337045,1.737261891,2024-06-05 18:44:08.547615
39.58808311,-0.273498565,-0.1623148769,1.923145056,2024-06-05 18:44:08.588083
39.62860613,-0.07935985923,-0.6489931941,1.93832469,2024-06-05 18:44:08.628606
39.66909473,0.1275616586,-1.033276081,1.575080156,2024-06-05 18:44:08.669095
39.70955483,0.07696308941,-0.6636402011,1.22022438,2024-06-05 18:44:08.709555
39.75007311,0.0596530512,-0.4512593448,0.9589760303,2024-06-05 18:44:08.750073
39.79054686,0.04553871229,-0.389742136,0.356187284,2024-06-05 18:44:08.790547
39.83104889,0.03462007269,-0.1007976755,-0.3536573648,2024-06-05 18:44:08.831049
39.87147072,-0.002396774245,0.5691007376,-1.116364241,2024-06-05 18:44:08.871471
39.91199691,-0.006125089712,1.067496657,-1.448450565,2024-06-05 18:44:08.911997
39.95250327,0.1097190008,0.9902672768,-1.779871225,2024-06-05 18:44:08.952503
39.99298478,0.1416759938,0.4306204617,-2.232462168,2024-06-05 18:44:08.992985
40.0334402,0.1001319066,0.06204982474,-2.518477201,2024-06-05 18:44:09.033440
40.0739404,-0.09161003679,-0.08801487833,-2.297441244,2024-06-05 18:44:09.073940
40.11442639,-0.1355509013,-0.04940018058,-1.880269408,2024-06-05 18:44:09.114426
40.15494973,-0.1304910481,-0.2312887162,-1.448983192,2024-06-05 18:44:09.154950
40.19540103,-0.2244978547,-0.127961114,-0.8874722719,2024-06-05 18:44:09.195401
40.2359027,-0.1291595101,-0.6681674123,-0.1765623689,2024-06-05 18:44:09.235903
40.27636452,-0.1432738453,-0.3825518191,0.3766930401,2024-06-05 18:44:09.276365
40.31682967,-0.06684337556,-0.3234313726,0.6576482654,2024-06-05 18:44:09.316830
40.35732994,0.0037283157,-0.04007939249,0.7849435806,2024-06-05 18:44:09.357330
40.39778348,0.06524552405,-0.2864145339,0.9062470198,2024-06-05 18:44:09.397783
40.43828827,0.2276935577,0.05086487532,1.305975676,2024-06-05 18:44:09.438288
40.47877728,0.03115806542,0.1973344237,1.400248766,2024-06-05 18:44:09.478777
40.51925165,-0.3022598624,0.2199706137,1.780403852,2024-06-05 18:44:09.519252
40.55976941,-0.258585304,1.006778359,2.220478296,2024-06-05 18:44:09.559769
40.60022895,-0.5564510822,-0.3623123765,2.474536419,2024-06-05 18:44:09.600229
40.64069999,0.01837527007,-0.4382102489,2.327001572,2024-06-05 18:44:09.640700
40.68120504,-0.2703028917,-1.017031193,0.9752208591,2024-06-05 18:44:09.681205
40.72168598,-0.0181089621,-0.6926677823,0.3766930401,2024-06-05 18:44:09.721686
40.76222348,0.01917419396,-0.3711005449,0.1531272531,2024-06-05 18:44:09.762223
40.80266467,-0.03754946589,0.1035939083,-0.3185046613,2024-06-05 18:44:09.802665
40.84316264,0.02077204362,0.7647041678,-0.8592435718,2024-06-05 18:44:09.843163
40.88362733,0.02316881903,0.9812127948,-1.374949574,2024-06-05 18:44:09.883627
40.92412181,0.1611164957,0.9362066984,-1.78173542,2024-06-05 18:44:09.924122
40.96460707,0.2587184608,1.02541995,-2.456693649,2024-06-05 18:44:09.964607
41.0051692,0.02849498391,-0.04220985994,-2.409290791,2024-06-05 18:44:10.005169
41.04565441,0.02716344222,0.139012903,-1.91755259,2024-06-05 18:44:10.045654
41.08606113,0.005592473317,0.05299534276,-1.538196445,2024-06-05 18:44:10.086061
41.12655405,-0.1019960642,-0.4539224207,-1.244991064,2024-06-05 18:44:10.126554
41.16703072,-0.09746882319,-0.3151758313,-0.7303503752,2024-06-05 18:44:10.167031
41.20749816,-0.01438064594,-0.1695052087,0.02343512699,2024-06-05 18:44:10.207498
41.24799072,0.148067385,0.02383458801,0.5053198934,2024-06-05 18:44:10.247991
41.28847509,0.1568555683,0.1123820841,0.7423342466,2024-06-05 18:44:10.288475
41.32897207,0.1541924775,0.5632419586,0.8902685046,2024-06-05 18:44:10.328972
41.36947426,0.1488663107,1.103181958,1.223686457,2024-06-05 18:44:10.369474
41.4099617,0.02423405088,1.327280402,1.474948287,2024-06-05 18:44:10.409962
41.45044681,-0.01384802908,-0.4278241992,1.756968737,2024-06-05 18:44:10.450447
41.49092134,-0.4501941204,-0.0842865631,2.075872898,2024-06-05 18:44:10.490921
41.53141082,-0.327026546,-0.6189003587,2.135792255,2024-06-05 18:44:10.531411
41.57190259,-0.03275591508,-0.7920007706,1.779338598,2024-06-05 18:44:10.571903
41.61235629,0.04793548584,-0.4866783321,1.568422437,2024-06-05 18:44:10.612356
41.65287952,0.01544587873,-0.6183677912,0.9318125844,2024-06-05 18:44:10.652880
41.69334207,-0.1067896113,-0.4805532396,0.5420704484,2024-06-05 18:44:10.693342
41.73382389,-0.1986659616,-0.3535242081,-0.08069140464,2024-06-05 18:44:10.733824
41.77431999,-0.2034595013,0.0980014354,-0.2849498391,2024-06-05 18:44:10.774320
41.81480217,-0.01118494663,0.5150401592,-1.281741619,2024-06-05 18:44:10.814802
41.85528124,0.1001319066,0.793199122,-2.05629921,2024-06-05 18:44:10.855281
41.89576384,0.2368811965,0.6242265701,-2.544309139,2024-06-05 18:44:10.895764
41.93624754,0.1842853129,0.6509905457,-2.205564976,2024-06-05 18:44:10.936248
41.9767153,0.3175725937,0.1113168523,-1.925275564,2024-06-05 18:44:10.976715
42.01721546,-0.1185071766,0.03648423031,-2.11568594,2024-06-05 18:44:11.017215
42.0577327,0.03275591508,-0.4262263775,-1.765224218,2024-06-05 18:44:11.057733
42.0982115,-0.08095771074,-0.8577789068,-1.552310824,2024-06-05 18:44:11.098211
42.13867952,0.08894696087,-0.4296883643,-0.388410598,2024-06-05 18:44:11.138680
42.17916967,-0.5524564981,-0.5143743753,-0.0458050184,2024-06-05 18:44:11.179170
42.21966806,-0.1304910481,0.2740311921,0.8769530654,2024-06-05 18:44:11.219668
42.26016551,0.08015878499,-0.0733679235,0.8368737102,2024-06-05 18:44:11.260166
42.30064764,-0.04181039706,-0.112781547,0.883610785,2024-06-05 18:44:11.300648
42.34111264,0.2904091477,-0.4145087898,1.06363523,2024-06-05 18:44:11.341113
42.38159004,0.2730991244,-0.5527228117,1.266029477,2024-06-05 18:44:11.381590
42.4221491,0.4182371199,-1.052183867,1.956699967,2024-06-05 18:44:11.422149
42.46261754,0.3604482114,-0.2201037705,2.156830549,2024-06-05 18:44:11.462618
42.50306915,0.367105931,0.1414096802,1.86109519,2024-06-05 18:44:11.503069
42.54355223,0.3591166735,0.446598947,1.320622683,2024-06-05 18:44:11.543552
42.58406858,0.2723001838,0.2327534109,1.471486211,2024-06-05 18:44:11.584069
42.6245691,0.0929415822,-0.5287550688,0.8950620294,2024-06-05 18:44:11.624569
42.66501983,0.07163692266,-0.6303516626,0.4416722357,2024-06-05 18:44:11.665020
42.70550983,-0.08868064731,-0.04141093418,0.1813559234,2024-06-05 18:44:11.705510
42.74598327,-0.270835489,0.4364792407,-0.6816160083,2024-06-05 18:44:11.745983
42.78645827,-0.07935985923,0.1709699035,-1.739658713,2024-06-05 18:44:11.786458
42.82693072,0.07696308941,0.7138392925,-1.788659453,2024-06-05 18:44:11.826931
42.86738176,-0.03195698932,0.9236901999,-2.073875427,2024-06-05 18:44:11.867382
42.90786566,0.1065233052,0.1470021605,-1.972678423,2024-06-05 18:44:11.907866
42.94838186,0.04979964346,-0.2057231218,-1.699446082,2024-06-05 18:44:11.948382
42.98885124,-0.03089175746,-0.3287575543,-1.900775194,2024-06-05 18:44:11.988851
43.02935957,-0.1773612946,-0.07390054315,-0.9511199594,2024-06-05 18:44:12.029360
43.0698641,-0.1840189993,0.7457962632,-0.7500572205,2024-06-05 18:44:12.069864
43.11033046,0.1049254537,0.2418078929,-0.771628201,2024-06-05 18:44:12.110330
43.1508153,0.07802832127,-0.2051905096,-0.3014609516,2024-06-05 18:44:12.150815
43.19130551,0.1046591476,-0.2432725877,0.004260932095,2024-06-05 18:44:12.191306
43.23177644,0.09853405505,-0.3527252972,0.3961335421,2024-06-05 18:44:12.231776
43.27228645,0.1451379955,-0.08748225868,0.6576482654,2024-06-05 18:44:12.272286
43.31275249,0.253392309,-0.1378145218,0.9914656281,2024-06-05 18:44:12.312752
43.35323733,0.1885462403,-0.376160413,1.229278922,2024-06-05 18:44:12.353237
43.39370212,0.3292901516,-0.6945319176,1.501579046,2024-06-05 18:44:12.393702
43.43421134,0.04527240247,-0.167374745,1.561498404,2024-06-05 18:44:12.434211
43.47471436,-0.04553871229,-0.2342181057,1.689326406,2024-06-05 18:44:12.474714
43.51518645,-0.003195699072,-0.04886756465,2.373072863,2024-06-05 18:44:12.515186
43.55570806,-0.005059856921,-0.2773600519,2.073476076,2024-06-05 18:44:12.555708
43.59616889,-0.01757634431,0.06710968167,1.547117829,2024-06-05 18:44:12.596169
43.63666035,-0.1560566425,0.2492645234,0.8572462797,2024-06-05 18:44:12.636660
43.67712212,-0.190676704,-0.1889457107,0.2023942769,2024-06-05 18:44:12.677122
43.71763285,-0.1142462417,-0.1255643368,-0.340608269,2024-06-05 18:44:12.717633
43.75807754,-0.09933298081,0.3624455333,-0.9765523672,2024-06-05 18:44:12.758078
43.79857244,0.09240896255,1.118627787,-1.376281023,2024-06-05 18:44:12.798572
43.83904629,-0.002130466048,1.064300895,-1.92713964,2024-06-05 18:44:12.839046
43.87953754,0.0410114713,0.701322794,-1.713294148,2024-06-05 18:44:12.879538
43.9200379,0.1493989378,0.3363473415,-2.068549395,2024-06-05 18:44:12.920038
43.96054009,0.07749570161,-0.1671084315,-2.223141432,2024-06-05 18:44:12.960540
44.0010352,0.0330222249,-0.5601794124,-1.933531046,2024-06-05 18:44:13.001035
44.04149348,-0.317972064,-0.05632419512,-1.539794326,2024-06-05 18:44:13.041493
44.08198233,-0.2796236575,-0.02623136342,-0.7212958932,2024-06-05 18:44:13.081982
44.12246379,-0.2234326303,-0.0544600375,-0.2055899799,2024-06-05 18:44:13.122464
44.16294254,0.02663082629,0.001198387123,0.2853493094,2024-06-05 18:44:13.162943
44.20342816,0.09427312016,0.008921326138,0.6579145193,2024-06-05 18:44:13.203428
44.24392853,0.233951807,0.3477985859,0.8865401745,2024-06-05 18:44:13.243929
44.28445592,0.3860138059,0.2431394309,1.143527627,2024-06-05 18:44:13.284456
44.3249453,0.4493951797,0.2969337106,1.474149346,2024-06-05 18:44:13.324945
44.36538436,0.3271597028,0.1304910481,1.476013541,2024-06-05 18:44:13.365384
44.40586988,0.1459369212,-0.04567186534,1.249784589,2024-06-05 18:44:13.405870
44.44635566,-0.08708280325,-0.3500621915,1.565226793,2024-06-05 18:44:13.446356
44.48684577,-0.1672415882,-0.8029193878,1.613162279,2024-06-05 18:44:13.486846
44.52731363,-0.04021254554,-0.5949326158,1.79505074,2024-06-05 18:44:13.527314
44.56779931,-0.09613727778,0.03648423031,1.876807451,2024-06-05 18:44:13.567799
44.60828494,-0.09666989744,-0.3822855055,1.345123053,2024-06-05 18:44:13.608285
44.64875869,-0.04660394415,-0.3828181326,0.4877435565,2024-06-05 18:44:13.648759
44.68926436,-0.09693620354,-0.07869409025,0.05619104207,2024-06-05 18:44:13.689264
44.72975119,-0.1086537689,0.1430075318,-0.8224930763,2024-06-05 18:44:13.729751
44.77025259,-0.07909355313,0.528621912,-1.578941703,2024-06-05 18:44:13.770253
44.81071874,0.1592523307,0.6605776548,-1.855502725,2024-06-05 18:44:13.810719
44.8511978,0.2592510879,0.4090494812,-2.103435755,2024-06-05 18:44:13.851198
44.891679,0.2053236663,0.3336842358,-2.254565716,2024-06-05 18:44:13.891679
44.93217733,0.1991985738,0.05832150951,-2.219146729,2024-06-05 18:44:13.932177
44.97265457,0.08548495173,0.1182408631,-2.179067373,2024-06-05 18:44:13.972655
45.01315296,-0.01624480449,0.05512581021,-1.746582747,2024-06-05 18:44:14.013153
45.05365103,-0.2074541301,0.02596505545,-1.345921874,2024-06-05 18:44:14.053651
45.09414473,-0.2231663167,-0.2400768995,-0.6222292185,2024-06-05 18:44:14.094145
45.13464994,-0.2181064636,-0.4832163453,0.02689713426,2024-06-05 18:44:14.134650
45.17511572,-0.009054481052,-0.6519225836,0.6246260405,2024-06-05 18:44:14.175116
45.21556582,0.001597849536,-0.2174406946,0.7543181181,2024-06-05 18:44:14.215566
45.25605744,0.1968017966,-0.02569874749,0.5878754854,2024-06-05 18:44:14.256057
45.29655483,0.3766930401,0.04553871229,0.5817503929,2024-06-05 18:44:14.296555
45.33705947,0.2117150575,0.04287562892,1.744718552,2024-06-05 18:44:14.337059
45.37753665,0.1251648813,0.0599193573,2.004635334,2024-06-05 18:44:14.377537
45.41802207,-0.133154124,0.1446053833,1.84777987,2024-06-05 18:44:14.418022
45.45847301,-0.2157096863,0.2327534109,2.136058569,2024-06-05 18:44:14.458473
45.49895962,-0.2157096863,-0.8242240548,2.232195854,2024-06-05 18:44:14.498960
45.53945259,-0.3536573648,-0.08162347972,1.451646328,2024-06-05 18:44:14.539453
45.57993254,-0.2500634491,-0.3127790391,1.127815485,2024-06-05 18:44:14.579933
45.62038035,-0.3150426745,-0.8055824637,0.4914718866,2024-06-05 18:44:14.620380
45.66089613,-0.3403419554,-0.4699009061,0.1288931966,2024-06-05 18:44:14.660896
45.701389,-0.2002638131,0.1989322603,-0.3110480309,2024-06-05 18:44:14.701389
45.74186999,-0.06577813625,0.6388735175,-0.8206288815,2024-06-05 18:44:14.741870
45.78235462,0.08788172156,0.9455274343,-1.321954131,2024-06-05 18:44:14.782355
45.82285197,0.2818872929,0.9599081278,-1.602243662,2024-06-05 18:44:14.822852
45.86329707,0.3868127465,0.3110480309,-2.277201891,2024-06-05 18:44:14.863297
45.90379983,0.3924052119,-0.03715000302,-2.463883877,2024-06-05 18:44:14.903800
45.94432217,0.07403369248,0.2322207987,-2.154034376,2024-06-05 18:44:14.944322
45.98481467,-0.07270215452,0.1856168509,-1.880269408,2024-06-05 18:44:14.984815
46.0252965,-0.230090335,0.07216953486,-1.572283983,2024-06-05 18:44:15.025297
46.06577723,-0.2796236575,-0.1423417628,-1.148321152,2024-06-05 18:44:15.065777
46.10624728,-0.1914756298,-0.3623123765,-0.4576507509,2024-06-05 18:44:15.106247
46.14672207,-0.1856168509,-0.5997262001,0.4054543078,2024-06-05 18:44:15.146722
46.18721697,0.04553871229,-0.07789516449,0.8147701025,2024-06-05 18:44:15.187217
46.22770853,0.1472684592,0.1339530498,0.8414009213,2024-06-05 18:44:15.227709
46.26819441,0.08974587917,0.0166442655,0.8705616593,2024-06-05 18:44:15.268194
46.3086378,0.3138442934,-0.1660431921,1.014368176,2024-06-05 18:44:15.308638
46.34915999,0.1374150664,-0.1061238423,1.379476786,2024-06-05 18:44:15.349160
46.38962665,0.2776263654,0.3925383687,1.903970838,2024-06-05 18:44:15.389627
46.43017337,-0.03515268862,0.8179658055,1.851241827,2024-06-05 18:44:15.430173
46.47062577,0.06125089899,0.3525921404,1.706636429,2024-06-05 18:44:15.470626
46.51110686,0.02263620123,-0.2898765504,1.423950195,2024-06-05 18:44:15.511107
46.55160144,0.06098458916,-0.7935985923,1.559634328,2024-06-05 18:44:15.551601
46.59206759,-0.14993155,-0.6953308582,1.229545236,2024-06-05 18:44:15.592068
46.63254811,-0.1699046642,-0.213978678,0.7559159994,2024-06-05 18:44:15.632548
46.67302379,-0.04154408723,-0.1540593207,0.1736329794,2024-06-05 18:44:15.673024
46.71357629,0.06817491353,0.3824186623,-0.6475285292,2024-06-05 18:44:15.713576
46.75400441,0.2603163123,0.9207608104,-1.07322228,2024-06-05 18:44:15.754004
46.79451051,0.143540144,0.8917331696,-1.66589129,2024-06-05 18:44:15.794511
46.83502124,0.3489969671,0.5485950112,-2.045646906,2024-06-05 18:44:15.835021
46.87545744,0.3982639909,0.02569874749,-2.190518618,2024-06-05 18:44:15.875457
46.91596129,0.2231663167,-0.2544575334,-2.485987663,2024-06-05 18:44:15.915961
46.95643337,0.000266308256,0.2639114857,-2.369078159,2024-06-05 18:44:15.956433
46.996919,-0.01091863867,0.2673735023,-1.838725328,2024-06-05 18:44:15.996919
47.03740608,-0.1464695334,-0.2773600519,-1.334204316,2024-06-05 18:44:16.037406
47.07786895,-0.162181735,-0.177760765,-0.518369019,2024-06-05 18:44:16.077869
47.1183542,-0.04713656008,-0.4331503808,0.351660043,2024-06-05 18:44:16.118354
47.15883962,0.09027849883,-0.4041227698,0.7519213557,2024-06-05 18:44:16.158840
47.19934514,0.1744319052,-0.3372794092,0.7772206664,2024-06-05 18:44:16.199345
47.2398517,0.222367391,-0.04007939249,0.594533205,2024-06-05 18:44:16.239852
47.28036462,0.345801264,-0.06351451576,1.031944513,2024-06-05 18:44:16.280365
47.32081363,0.3908073604,-0.05499265343,1.462964416,2024-06-05 18:44:16.320814
47.36132827,0.2010627389,-0.009187635034,1.820350051,2024-06-05 18:44:16.361328
47.40176785,0.06178351492,0.235949114,2.020880222,2024-06-05 18:44:16.401768
47.44228363,-0.06604444981,0.2103835195,2.00729847,2024-06-05 18:44:16.442284
47.48277009,-0.1962691844,-0.5583152771,1.854970098,2024-06-05 18:44:16.482770
47.52325561,-0.2956021726,-0.4296883643,1.489062667,2024-06-05 18:44:16.523256
47.56376566,-0.5194342732,-0.5023905039,1.034873843,2024-06-05 18:44:16.563766
47.60423509,-0.2205032408,-0.5713643432,0.7111762166,2024-06-05 18:44:16.604235
47.64469967,-0.146735847,-0.6473953724,0.1238333359,2024-06-05 18:44:16.644700
47.68520311,-0.1137136221,0.7356765866,-0.7452636361,2024-06-05 18:44:16.685203
47.72568228,0.1536598653,0.7255568504,-0.8981245756,2024-06-05 18:44:16.725682
47.76613363,0.134485662,0.7817478776,-1.410634875,2024-06-05 18:44:16.766134
47.80662405,0.1507304758,0.7878729701,-2.003836393,2024-06-05 18:44:16.806624
47.84712358,0.2619141638,0.3781577349,-2.166284561,2024-06-05 18:44:16.847124
47.88759056,0.1691057384,-0.2054568231,-2.28599,2024-06-05 18:44:16.887591
47.92808134,0.04340824485,-0.03741630912,-2.239652395,2024-06-05 18:44:16.928081
47.9685379,-0.1155777797,-0.02383458801,-1.887193441,2024-06-05 18:44:16.968538
48.00906098,-0.3041240275,-0.05073172227,-1.353644848,2024-06-05 18:44:17.009061
48.04956962,-0.4126446545,-0.2225005478,-0.6962629557,2024-06-05 18:44:17.049570
48.09005259,-0.3110480309,-0.8079792261,0.05059856921,2024-06-05 18:44:17.090053
48.13054603,-0.1709699035,-0.2853493094,0.4773575366,2024-06-05 18:44:17.130546
48.17098327,-0.009853405878,0.1856168509,0.7540518045,2024-06-05 18:44:17.170983
48.21147618,0.1813559234,0.03169068322,1.018895388,2024-06-05 18:44:17.211476
48.25196181,0.3772256374,0.02995967865,1.011971354,2024-06-05 18:44:17.251962
48.2924703,0.2773600519,0.8203625679,1.282007933,2024-06-05 18:44:17.292470
48.33296342,0.1608501822,0.2716344297,1.563096285,2024-06-05 18:44:17.332963
48.37344004,0.03169068322,-0.02623136342,1.915155768,2024-06-05 18:44:17.373440
48.41388249,0.04021254554,0.3054555655,2.039255381,2024-06-05 18:44:17.413882
48.4543929,0.03328853101,-0.2326202542,2.003037453,2024-06-05 18:44:17.454393
48.49489957,0.1826874614,-0.5786878467,1.73273468,2024-06-05 18:44:17.494900
48.53537707,0.09427312016,-0.2043915838,1.161902905,2024-06-05 18:44:17.535377
48.57585275,0.09027849883,-0.4102478623,0.6837464571,2024-06-05 18:44:17.575853
48.61632874,0.06071828306,-0.6652380228,0.2645772398,2024-06-05 18:44:17.616329
48.65683275,-0.1027949899,0.0487344116,-0.4608464241,2024-06-05 18:44:17.656833
48.69734374,-0.1190397888,0.5440677404,-0.9050486088,2024-06-05 18:44:17.697344
48.73782884,-0.03994623944,0.8262213469,-1.484668493,2024-06-05 18:44:17.737829
48.77831389,0.1672415882,0.8272866011,-1.854703903,2024-06-05 18:44:17.778314
48.81877467,0.4158403277,0.5669702888,-2.060027599,2024-06-05 18:44:17.818775
48.85924837,0.1416759938,-0.2240983993,-2.445242405,2024-06-05 18:44:17.859248
48.89974988,0.1888125539,0.302526176,-2.170279026,2024-06-05 18:44:17.899750
48.94025452,-0.1432738453,-0.1223686412,-1.891188025,2024-06-05 18:44:17.940255
48.9807266,-0.005592473317,-0.253392309,-1.663228154,2024-06-05 18:44:17.980727
49.02122087,-0.1917419434,-0.2422073632,-0.869363308,2024-06-05 18:44:18.021221
49.06169405,-0.2908086181,-0.8021204472,0.003462007269,2024-06-05 18:44:18.061694
49.102169,-0.009054481052,-0.1234338731,0.5734948516,2024-06-05 18:44:18.102169
49.14265457,0.08282186836,0.03808208182,0.7396711707,2024-06-05 18:44:18.142655
49.18314061,0.2741643488,-0.2206363827,0.9957265854,2024-06-05 18:44:18.183141
49.22367082,0.1139799356,-0.01824211515,0.9917319417,2024-06-05 18:44:18.223671
49.26411754,0.1848179251,0.06604444981,0.977883935,2024-06-05 18:44:18.264118
49.30458244,-0.07722939551,0.09613727778,1.454043031,2024-06-05 18:44:18.304582
49.34506572,-0.2106498331,0.4260932207,2.052304506,2024-06-05 18:44:18.345066
49.38554754,-0.301194638,0.09693620354,1.914356947,2024-06-05 18:44:18.385548
49.42603514,-0.2215684652,-0.2872134447,1.79505074,2024-06-05 18:44:18.426035
49.46651858,-0.08521863818,-0.706515789,1.601444721,2024-06-05 18:44:18.466519
49.50702947,-0.3531247377,-0.4691019952,1.46482861,2024-06-05 18:44:18.507029
49.54752832,-0.1938724071,-0.3023930192,0.8588441014,2024-06-05 18:44:18.547528
49.58796785,-0.103061296,-0.5410051942,0.3175725937,2024-06-05 18:44:18.587968
49.62845785,-0.06924014539,0.02037258074,-0.3809539676,2024-06-05 18:44:18.628458
49.66895832,0.04287562892,0.5392742157,-1.091597557,2024-06-05 18:44:18.668958
49.70942785,0.164844811,0.8547163606,-1.630472302,2024-06-05 18:44:18.709428
49.74994072,0.2880123854,0.6525883675,-1.901307821,2024-06-05 18:44:18.749941
49.79040051,0.3966661394,0.2548570037,-2.21035862,2024-06-05 18:44:18.790401
49.8308978,0.412378341,0.02969337068,-2.407160282,2024-06-05 18:44:18.830898
49.87138577,0.2730991244,0.1070559174,-2.253766775,2024-06-05 18:44:18.871386
49.91189212,-0.037815772,-0.07869409025,-2.047777414,2024-06-05 18:44:18.911892
49.95237447,-0.1352845877,-0.1740324497,-1.341128349,2024-06-05 18:44:18.952374
49.99284702,-0.3054555655,-0.4464657903,-0.674159348,2024-06-05 18:44:18.992847
50.03331426,-0.3552552164,-0.7347444892,0.04047885537,2024-06-05 18:44:19.033314
50.07382775,-0.2900096774,-0.7616416216,0.5010589957,2024-06-05 18:44:19.073828
50.11428889,-0.139012903,-0.4616453648,0.6472622156,2024-06-05 18:44:19.114289
50.1547741,0.1515294015,0.2023942769,0.8251561522,2024-06-05 18:44:19.154774
50.19528004,0.4645747542,0.2489982247,1.136869907,2024-06-05 18:44:19.195280
50.23576525,0.2603163123,0.1802906841,1.468290567,2024-06-05 18:44:19.235765
50.27622244,0.04846810177,0.6109111309,1.696250439,2024-06-05 18:44:19.276222
50.31671077,-0.3828181326,0.8195636868,1.976939321,2024-06-05 18:44:19.316711
50.35719926,-0.2769605815,-0.1529940963,2.079334974,2024-06-05 18:44:19.357199
50.39766014,0.07376738638,-0.7605763674,1.786795259,2024-06-05 18:44:19.397660
50.4381453,-0.1549914032,-0.9027850032,1.788659453,2024-06-05 18:44:19.438145
50.47864592,-0.1661763489,-0.7419347763,1.10517931,2024-06-05 18:44:19.478646
50.51913119,-0.1227681041,-0.7235595584,0.3370130956,2024-06-05 18:44:19.519131
50.55962665,-0.1880136281,-0.4448679388,-0.1171756312,2024-06-05 18:44:19.559627
50.6001467,-0.2231663167,0.5403394699,-0.597196281,2024-06-05 18:44:19.600147
50.64059066,0.0146469539,0.8320801258,-1.278279662,2024-06-05 18:44:19.640591
50.68107999,0.09613727778,0.8706948161,-1.758300304,2024-06-05 18:44:19.681080
50.72158691,0.3631113172,0.583747685,-2.176137924,2024-06-05 18:44:19.721587
50.76205848,-0.02476666868,0.2681724131,-2.612217665,2024-06-05 18:44:19.762058
50.8025679,0.3556546867,0.5291544795,-2.369344473,2024-06-05 18:44:19.802568
50.8430415,-0.1115831584,0.2189053893,-2.32540369,2024-06-05 18:44:19.843041
50.88349306,0.04793548584,0.1597849578,-1.742588043,2024-06-05 18:44:19.883493
50.92407056,-0.1278279573,-0.5103797913,-1.098255277,2024-06-05 18:44:19.924071
50.96453712,-0.09161003679,-0.06910699606,-0.3227656186,2024-06-05 18:44:19.964537
51.00497238,-0.2415415943,-0.7070484161,0.5481955409,2024-06-05 18:44:20.004972
51.04549889,-0.037815772,-0.3476654291,0.9730903506,2024-06-05 18:44:20.045499
51.0859441,-0.07776200771,0.006524552125,1.363498211,2024-06-05 18:44:20.085944
51.12643499,0.1523283273,-0.01957365684,1.317959547,2024-06-05 18:44:20.126435
51.16691436,0.1083874628,-0.3322195411,0.990933001,2024-06-05 18:44:20.166914
51.20747832,-0.1717688292,-0.0384815447,1.209572077,2024-06-05 18:44:20.207478
51.24796368,0.01970681176,0.6493926644,1.807300925,2024-06-05 18:44:20.247964
51.28833233,-0.06870753318,0.5776225924,2.115818977,2024-06-05 18:44:20.288332
51.32883447,-0.07190322876,-0.3005288541,2.130465984,2024-06-05 18:44:20.328834
51.36931827,-0.2998631001,-0.4901403487,1.842453718,2024-06-05 18:44:20.369318
51.40980723,-0.2386122048,-0.8764204979,1.145391822,2024-06-05 18:44:20.409807
51.4502978,-0.1595186442,-0.7752233148,0.4499278069,2024-06-05 18:44:20.450298
51.49079259,0.05912043154,-0.1961360276,-0.05086487532,2024-06-05 18:44:20.490793
51.53130217,0.1813559234,0.6485937834,-0.5178363919,2024-06-05 18:44:20.531302
51.57180009,0.377491951,0.8153027296,-1.095059514,2024-06-05 18:44:20.571800
51.61224744,0.3162410557,1.10850811,-1.664559722,2024-06-05 18:44:20.612247
51.65272436,0.3612471521,0.8813471794,-2.153768063,2024-06-05 18:44:20.652724
51.69321608,0.1033276021,0.2330197245,-2.735518456,2024-06-05 18:44:20.693216
51.73371514,0.1185071766,-0.2898765504,-2.641777992,2024-06-05 18:44:20.733715
51.77423499,-0.06364767253,0.5858781338,-2.027537823,2024-06-05 18:44:20.774235
51.8147227,0.04447348043,0.02623136342,-1.470287919,2024-06-05 18:44:20.814723
51.85517889,0.2661750913,-0.01504641678,-0.7263557911,2024-06-05 18:44:20.855179
51.89563785,0.2189053893,-0.3386109471,-0.1254311949,2024-06-05 18:44:20.895638
51.93613259,0.116643019,-0.5633751154,0.411046803,2024-06-05 18:44:20.936133
51.97660238,0.2336854935,-0.1924077123,0.990933001,2024-06-05 18:44:20.976602
52.01709155,0.2459356785,0.06737598777,1.42501545,2024-06-05 18:44:21.017092
52.05758379,0.2975994647,-0.3045234978,1.138734102,2024-06-05 18:44:21.057584
52.09806905,0.2829525173,0.1198387146,1.435934067,2024-06-05 18:44:21.098069
52.13854796,0.1411433816,0.09693620354,1.761229634,2024-06-05 18:44:21.138548
52.17904858,-0.08069140464,-0.1711030602,1.980933905,2024-06-05 18:44:21.179049
52.21954009,-0.1659100503,0.3240971565,2.070280313,2024-06-05 18:44:21.219540
52.26003572,-0.1270290315,-0.6314168572,1.967085958,2024-06-05 18:44:21.260036
52.30049848,-0.1238333359,-0.8609746099,1.707967997,2024-06-05 18:44:21.300498
52.34098249,-0.14993155,-1.006645203,1.240463853,2024-06-05 18:44:21.340982
52.38147457,-0.1656437367,-0.3660407066,0.2954690158,2024-06-05 18:44:21.381475
52.42193848,-0.1067896113,-0.1926740259,-0.1613828093,2024-06-05 18:44:21.421938
52.46244384,-0.06338136643,0.2431394309,-0.9330109954,2024-06-05 18:44:21.462444
52.5029267,-0.1163767055,1.054181218,-1.572550297,2024-06-05 18:44:21.502927
52.54339947,-0.02929390781,0.6690995097,-1.84112215,2024-06-05 18:44:21.543399
52.58390895,-0.03621792421,0.2074541301,-2.130066633,2024-06-05 18:44:21.583909
52.62434327,-0.05938674137,0.03888100386,-2.532591581,2024-06-05 18:44:21.624343
52.66486676,-0.2575200796,-0.1431406885,-2.3989048,2024-06-05 18:44:21.664867
52.70536186,-0.07350108027,0.4191691875,-1.876008511,2024-06-05 18:44:21.705362
52.74583957,-0.03808208182,-0.04434032366,-1.58946085,2024-06-05 18:44:21.745840
52.78633077,-0.05033225939,-0.04513924941,-0.9058475494,2024-06-05 18:44:21.786331
52.82680624,-0.056723658,-0.5074504018,-0.03595161438,2024-06-05 18:44:21.826806
52.86725822,-0.06631075591,-0.4190360308,0.4922707975,2024-06-05 18:44:21.867258
52.90774691,0.1083874628,-0.4584496617,0.9030513167,2024-06-05 18:44:21.907747
52.94821884,0.239810586,0.052196417,0.9278179407,2024-06-05 18:44:21.948219
52.98872619,0.3359478712,0.3621792197,1.120358825,2024-06-05 18:44:21.988726
53.02922119,0.2149107605,0.2061225921,1.566824675,2024-06-05 18:44:22.029221
53.06970629,0.1059906855,0.2497971505,1.872013927,2024-06-05 18:44:22.069706
53.11021551,-0.1560566425,-0.05978620425,1.831534982,2024-06-05 18:44:22.110216
53.15066848,-0.1877473146,0.2774932086,2.27187562,2024-06-05 18:44:22.150668
53.19117676,-0.254058063,0.08388710022,2.242848158,2024-06-05 18:44:22.191177
53.23168478,-0.2489982247,-0.8178326488,2.067750454,2024-06-05 18:44:22.231685
53.27214129,-0.01997311972,-0.850055933,1.140331984,2024-06-05 18:44:22.272141
53.31262207,-0.1784265339,0.08255556226,0.2818872929,2024-06-05 18:44:22.312622
53.35311634,-0.1214365661,-0.1300915778,0.226894632,2024-06-05 18:44:22.353116
53.39360202,-0.2013290375,0.1565892547,-0.7481930256,2024-06-05 18:44:22.393602
53.4340902,0.0713706091,0.6055849791,-1.29665494,2024-06-05 18:44:22.434090
53.47459426,0.06710968167,0.8374063373,-1.808099866,2024-06-05 18:44:22.474594
53.51506129,0.1696383655,0.7894708514,-1.73273468,2024-06-05 18:44:22.515061
53.55554702,0.4334166944,0.5616441369,-2.43964982,2024-06-05 18:44:22.555547
53.59603832,0.2183727771,-0.1117163152,-2.218614101,2024-06-05 18:44:22.596038
53.63652394,0.1957365721,0.07616416365,-2.098109484,2024-06-05 18:44:22.636524
53.67700572,-0.001597849536,-0.04007939249,-1.986260176,2024-06-05 18:44:22.677006
53.71745384,0.1107842326,-0.1753639877,-1.52381587,2024-06-05 18:44:22.717454
53.757924,-0.04953333735,-0.4781564772,-0.8507217169,2024-06-05 18:44:22.757924
53.79841238,-0.1398118287,-0.2403431982,-0.2181064636,2024-06-05 18:44:22.798412
53.83894327,-0.02742975019,-0.3724320829,0.4904066622,2024-06-05 18:44:22.838943
53.87943165,0.2021279633,-0.08002562821,0.986938417,2024-06-05 18:44:22.879432
53.91991363,0.2368811965,-0.2011958808,0.9643021822,2024-06-05 18:44:22.919914
53.96040691,0.1744319052,-0.151928857,0.5673697591,2024-06-05 18:44:22.960407
54.00086801,0.3913399875,-0.06191666797,1.068961382,2024-06-05 18:44:23.000868
54.04136431,0.01358172111,0.14993155,2.012358427,2024-06-05 18:44:23.041364
54.08186342,-0.1315562725,-0.1356840581,1.980401397,2024-06-05 18:44:23.081863
54.12233509,-0.2697702646,0.1022623703,1.917019963,2024-06-05 18:44:23.122335
54.16281962,-0.2143781483,-0.2187722325,1.992651582,2024-06-05 18:44:23.162820
54.20331275,-0.4440690279,-0.3473991156,1.719951868,2024-06-05 18:44:23.203313
54.24379129,-0.1954702586,-0.703320086,1.175484657,2024-06-05 18:44:23.243791
54.28428447,-0.2711018026,-0.3785571754,0.6869421601,2024-06-05 18:44:23.284284
54.32476462,-0.2719007432,-0.3487306535,0.5356790423,2024-06-05 18:44:23.324765
54.36521676,-0.2135792226,0.001198387123,0.01704372838,2024-06-05 18:44:23.365217
54.40570212,-0.1177082509,0.5062519908,-0.5314181447,2024-06-05 18:44:23.405702
54.44622999,0.01358172111,0.7817478776,-1.018096447,2024-06-05 18:44:23.446230
54.48672285,0.1608501822,0.8754884005,-1.552310824,2024-06-05 18:44:23.486723
54.52718556,0.1768286824,0.7979927063,-1.952705264,2024-06-05 18:44:23.527186
54.56764358,0.2371474952,0.143540144,-2.180132627,2024-06-05 18:44:23.567644
54.6081129,0.2573869228,-0.118640326,-2.309425116,2024-06-05 18:44:23.608113
54.64862926,-0.06311506033,0.0171768833,-2.049375296,2024-06-05 18:44:23.648629
54.68913504,0.02902759984,0.3898752928,-1.747647882,2024-06-05 18:44:23.689135
54.72964634,0.08468602598,-0.1998643428,-1.490527272,2024-06-05 18:44:23.729646
54.77009337,-0.1424749196,0.2601831555,-0.9359403849,2024-06-05 18:44:23.770093
54.81057962,-0.2170412242,-0.6764229536,-0.2412752807,2024-06-05 18:44:23.810580
54.85106639,-0.05645735189,-0.1934729517,0.1400781423,2024-06-05 18:44:23.851066
54.89154967,-0.004793548491,-0.2395442724,0.4677704573,2024-06-05 18:44:23.891550
54.93204186,0.3583177626,0.1288931966,0.5316844583,2024-06-05 18:44:23.932042
54.97255275,0.2949363887,-0.4395417869,0.4224980474,2024-06-05 18:44:23.972553
55.01303744,0.3266270757,0.03595161438,0.4640421271,2024-06-05 18:44:24.013037
55.05351113,0.2162422985,0.2029268891,1.294258118,2024-06-05 18:44:24.053511
55.09402384,0.07003907114,0.03701684624,2.374138117,2024-06-05 18:44:24.094024
55.13449686,-0.05246272683,-0.2310224175,1.943118215,2024-06-05 18:44:24.134497
55.17498644,-0.1067896113,-0.151928857,1.9827981,2024-06-05 18:44:24.174986
55.2154729,-0.1579207927,-0.3396761715,2.242049217,2024-06-05 18:44:24.215473
55.25593905,-0.2213021666,-0.5340812206,1.420221925,2024-06-05 18:44:24.255939
55.29642014,-0.4118457139,-0.5850792527,0.7157034278,2024-06-05 18:44:24.296420
55.33690394,-0.2772268951,-0.3545894325,0.7103772759,2024-06-05 18:44:24.336904
55.37737098,-0.349662751,-0.5687012672,0.3636439145,2024-06-05 18:44:24.377371
55.41782191,-0.2788247466,-0.1647116542,-0.3262276053,2024-06-05 18:44:24.417822
55.45831337,-0.2402100414,0.3248960674,-0.5300865769,2024-06-05 18:44:24.458313
55.49880535,-0.2244978547,0.9537830353,-0.8078460693,2024-06-05 18:44:24.498805
55.53930655,0.0149132628,1.019028544,-1.213034153,2024-06-05 18:44:24.539307
55.57984316,0.06231613085,0.9196955562,-1.624879837,2024-06-05 18:44:24.579843
55.62027514,0.3173062801,0.4833494723,-1.850176573,2024-06-05 18:44:24.620275
55.66077301,0.3271597028,-0.04726971686,-2.165751934,2024-06-05 18:44:24.660773
55.70127483,0.1041265279,-0.357518822,-2.172143221,2024-06-05 18:44:24.701275
55.74177738,-0.08947957307,0.1912093312,-1.831268668,2024-06-05 18:44:24.741777
55.78224848,-0.1691057384,-0.1055912226,-1.529674649,2024-06-05 18:44:24.782248
55.82274072,-0.2673735023,0.005193010904,-0.9532504082,2024-06-05 18:44:24.822741
55.86322744,-0.2034595013,-0.4587159753,-0.4318188429,2024-06-05 18:44:24.863227
55.90369796,-0.08655018359,-0.2270277888,0.1169093251,2024-06-05 18:44:24.903698
55.94418264,0.1217028722,-0.03901416063,0.3772256374,2024-06-05 18:44:24.944183
55.98465827,0.3481980562,-0.1431406885,0.6232944727,2024-06-05 18:44:24.984658
56.0251378,0.2901428342,0.000932078925,0.4624442756,2024-06-05 18:44:25.025138
56.0656166,0.2477998286,0.1051917598,0.839004159,2024-06-05 18:44:25.065617
56.10609889,0.2707023323,0.2229000032,1.289464593,2024-06-05 18:44:25.106099
56.14658645,0.08655018359,-0.1990654171,1.455374599,2024-06-05 18:44:25.146586
56.18708462,0.05725627393,-0.03874785081,1.701576591,2024-06-05 18:44:25.187085
56.22755582,-0.139012903,-0.3066539466,2.081731558,2024-06-05 18:44:25.227556
56.26803233,-0.4483299553,-0.2107829899,2.117683172,2024-06-05 18:44:25.268032
56.30850244,-0.4134435654,-0.6330147386,2.003037453,2024-06-05 18:44:25.308502
56.34903004,-0.5231625438,-0.7954627872,1.317693233,2024-06-05 18:44:25.349030
56.38951525,-0.5593804717,-0.4177044928,0.7516550422,2024-06-05 18:44:25.389515
56.42999827,-0.5940005779,0.052196417,0.4928034246,2024-06-05 18:44:25.429998
56.47047707,-0.391073674,0.223698929,-0.1475347728,2024-06-05 18:44:25.470477
56.51098134,-0.1707035899,0.1901440918,-0.6222292185,2024-06-05 18:44:25.510981
56.55144754,0.05406057462,0.4902735054,-1.020759583,2024-06-05 18:44:25.551448
56.59192962,0.2419410497,0.8919994831,-1.5267452,2024-06-05 18:44:25.591930
56.632389,0.3657743931,0.8941299915,-1.802773714,2024-06-05 18:44:25.632389
56.67293301,0.4515256584,0.3547225893,-1.987857938,2024-06-05 18:44:25.672933
56.71340645,0.3567199111,-0.3356815577,-2.138854742,2024-06-05 18:44:25.713406
56.7538927,-0.08015878499,-0.2683055699,-2.163887739,2024-06-05 18:44:25.753893
56.79445712,-0.1555240154,0.2537917793,-1.904237151,2024-06-05 18:44:25.794457
56.834849,-0.2159759998,0.04473978654,-1.583335757,2024-06-05 18:44:25.834849
56.87532202,-0.327026546,-0.2304897904,-1.211436272,2024-06-05 18:44:25.875322
56.91581259,-0.2442046702,-0.265642494,-0.4885424972,2024-06-05 18:44:25.915813
56.95628973,-0.04260931909,-0.1202381775,0.2063889056,2024-06-05 18:44:25.956290
56.99677691,0.2344844192,-0.06804175675,0.7572475076,2024-06-05 18:44:25.996777
57.03728994,0.4243622124,0.2029268891,1.207974195,2024-06-05 18:44:26.037290
57.07777494,0.3841496706,-0.07603100687,0.9408670664,2024-06-05 18:44:26.077775
57.11825988,0.4901403487,0.3906742036,0.781481564,2024-06-05 18:44:26.118260
57.15874488,0.2197043151,-0.0355521515,1.675212026,2024-06-05 18:44:26.158745
57.19920634,0.157654494,-0.2592510879,1.5508461,2024-06-05 18:44:26.199206
57.23973051,-0.04633763805,-0.05019910634,1.667222857,2024-06-05 18:44:26.239731
57.28020176,-0.05565842614,-0.05605788901,1.964422822,2024-06-05 18:44:26.280202
57.32067285,-0.133154124,-0.4967980385,2.12354207,2024-06-05 18:44:26.320673
57.36117723,-0.5074504018,-0.5808182955,1.208506823,2024-06-05 18:44:26.361177
57.40161051,-0.4094489515,-0.4749607742,1.013835549,2024-06-05 18:44:26.401611
57.44211181,-0.3515268862,-0.3963998258,0.7159697413,2024-06-05 18:44:26.442112
57.48260707,-0.3715000153,-0.1577876359,0.02263620123,2024-06-05 18:44:26.482607
57.52315395,-0.1187734827,0.2181064636,-0.6014571786,2024-06-05 18:44:26.523154
57.5635767,-0.1427412182,0.8475260139,-0.977883935,2024-06-05 18:44:26.563577
57.60406764,0.04687025398,0.7809489369,-1.411433816,2024-06-05 18:44:26.604068
57.64453577,0.1201050207,0.73221457,-1.931134343,2024-06-05 18:44:26.644536
57.68507358,0.1999974996,0.3952014446,-2.125805616,2024-06-05 18:44:26.685074
57.72554092,0.1936061084,-0.1593854874,-2.292115211,2024-06-05 18:44:26.725541
57.76599738,0.08814803511,-0.3018604219,-2.121544838,2024-06-05 18:44:26.765997
57.8065265,-0.1347519755,-0.01983996481,-1.893584847,2024-06-05 18:44:26.806526
57.84697238,-0.297998935,-0.07017222792,-1.442591786,2024-06-05 18:44:26.846972
57.8874315,-0.3802881837,-0.146070078,-0.7822805047,2024-06-05 18:44:26.887431
57.92791629,-0.1491326243,-0.01611164957,-0.1549914032,2024-06-05 18:44:26.927916
57.96840108,0.07722939551,-0.1090532318,0.3772256374,2024-06-05 18:44:26.968401
58.00890056,0.2288919389,-0.3058550358,0.8110417724,2024-06-05 18:44:27.008901
58.04943452,0.3026593328,0.04740286991,1.014368176,2024-06-05 18:44:27.049435
58.08993905,0.3668396175,0.2090519816,1.412232637,2024-06-05 18:44:27.089939
58.13040363,0.3258281648,-0.2371474952,1.670152187,2024-06-05 18:44:27.130404
58.17087931,0.2355496585,0.06418029219,1.697049379,2024-06-05 18:44:27.170879
58.21135233,-0.04260931909,-0.1567224115,2.043250084,2024-06-05 18:44:27.211352
58.25185452,-0.1629806459,-0.1708367467,2.112623453,2024-06-05 18:44:27.251855
58.29234202,-0.3781577349,-0.09334104508,1.882932544,2024-06-05 18:44:27.292342
58.33280952,-0.4640421271,-0.6766892672,1.695451498,2024-06-05 18:44:27.332810
58.37328452,-0.3720326424,-0.641802907,1.191729426,2024-06-05 18:44:27.373285
58.41375525,-0.3822855055,-0.5561847687,0.4944012761,2024-06-05 18:44:27.413755
58.45426144,-0.2205032408,0.1587197185,-0.225563094,2024-06-05 18:44:27.454261
58.49477848,-0.1363498271,0.4021254778,-0.7713618875,2024-06-05 18:44:27.494778
58.53525431,0.009320789017,0.7047848105,-1.407439113,2024-06-05 18:44:27.535254
58.57573212,0.1776276082,0.7979927063,-1.874943256,2024-06-05 18:44:27.575732
58.61619374,0.1744319052,0.4721645415,-2.189719677,2024-06-05 18:44:27.616194
58.65666384,0.1419423074,0.2503297627,-2.423937798,2024-06-05 18:44:27.656664
58.69716025,0.03515268862,-0.5388747454,-2.431394339,2024-06-05 18:44:27.697160
58.73763551,-0.2524602413,0.05113118514,-2.073343039,2024-06-05 18:44:27.737636
58.77811348,-0.2260957062,0.1968017966,-1.709565878,2024-06-05 18:44:27.778113
58.81861577,-0.2788247466,-0.2754958868,-0.9904004335,2024-06-05 18:44:27.818616
58.85911358,-0.2013290375,-0.0733679235,-0.3643096983,2024-06-05 18:44:27.859114
58.89958962,-0.1142462417,-0.2406095117,0.3521926701,2024-06-05 18:44:27.899590
58.94007566,-0.03754946589,-0.4315525293,0.7351439595,2024-06-05 18:44:27.940076
58.9805552,0.09107742459,-0.07416684926,0.9398018122,2024-06-05 18:44:27.980555
59.02105759,0.2226337045,-0.00998655986,1.311834455,2024-06-05 18:44:28.021058
59.06154389,0.08095771074,0.405321151,1.834198117,2024-06-05 18:44:28.061544
59.10203827,0.04207670316,-0.72142905,1.942851901,2024-06-05 18:44:28.102038
59.14250848,-0.1541924775,0.3683043122,2.208494425,2024-06-05 18:44:28.142508
59.1830065,-0.03115806542,0.08894696087,2.310224056,2024-06-05 18:44:28.183006
59.22349051,-0.1022623703,-0.2853493094,2.166417599,2024-06-05 18:44:28.223491
59.26401895,-0.3198362291,-0.6918688416,1.405308723,2024-06-05 18:44:28.264019
59.30449733,-0.1451379955,-0.7078473568,0.637408793,2024-06-05 18:44:28.304497
59.34497629,-0.04260931909,-0.3500621915,0.3111811876,2024-06-05 18:44:28.344976
59.38546697,-0.1520620137,0.06577813625,-0.3531247377,2024-06-05 18:44:28.385467
59.42591816,-0.04447348043,0.7340787053,-0.9744219184,2024-06-05 18:44:28.425918
59.46641978,0.08575125784,1.170291662,-1.609966516,2024-06-05 18:44:28.466420
59.50688379,0.3119801283,0.6818822622,-1.974009991,2024-06-05 18:44:28.506884
59.54735072,0.3649754524,0.06551183015,-2.502498627,2024-06-05 18:44:28.547351
59.58782504,0.1733666807,-0.4427374899,-2.717941999,2024-06-05 18:44:28.587825
59.62830525,-0.09666989744,0.2106498331,-2.469742775,2024-06-05 18:44:28.628305
59.66881228,-0.09187635034,0.03115806542,-2.015021324,2024-06-05 18:44:28.668812
59.70931176,-0.2308892608,-0.1742987484,-1.37681365,2024-06-05 18:44:28.709312
59.7497991,-0.1760297567,-0.2470009029,-0.4733629227,2024-06-05 18:44:28.749799
59.79029077,-0.04340824485,-0.2448704392,0.4179708064,2024-06-05 18:44:28.790291
59.83075733,0.108920075,-0.2328865677,1.047656655,2024-06-05 18:44:28.830757
59.87124561,0.2999962568,-0.2014621943,1.297986388,2024-06-05 18:44:28.871246
59.91172301,0.4115794003,-0.3244965971,1.413830519,2024-06-05 18:44:28.911723
59.95221686,0.2669740319,0.1416759938,1.888791323,2024-06-05 18:44:28.952217
59.99269134,-0.04633763805,-0.2350170314,2.044847965,2024-06-05 18:44:28.992691
60.03323613,-0.02370143496,-0.3468665183,2.154167414,2024-06-05 18:44:29.033236
60.07368119,-0.07296846062,0.2106498331,2.216483593,2024-06-05 18:44:29.073681
60.1141553,-0.08628387749,-0.1692388952,1.740457654,2024-06-05 18:44:29.114155
60.15464061,-0.3078523576,-0.5247604251,1.339264274,2024-06-05 18:44:29.154641
60.19514967,-0.3597824574,-0.6668358445,0.8019872904,2024-06-05 18:44:29.195150
60.23561165,-0.2719007432,-0.2051905096,0.1174419373,2024-06-05 18:44:29.235612
60.2760828,-0.1786928326,0.440207541,-0.6951977015,2024-06-05 18:44:29.276083
60.31656822,0.06817491353,0.8030525446,-1.57281661,2024-06-05 18:44:29.316568
60.35709759,0.1419423074,0.7433995008,-2.270277977,2024-06-05 18:44:29.357098
60.39758337,0.1315562725,0.1930734813,-3.012345791,2024-06-05 18:44:29.397583
60.43800754,-0.4565854967,0.2940043211,-3.651618719,2024-06-05 18:44:29.438008
60.47851478,-0.2439383566,0.3856143653,-3.054156303,2024-06-05 18:44:29.478515
60.51901103,-0.2527265251,0.09986559302,-2.282261848,2024-06-05 18:44:29.519011
60.55948858,-0.04340824485,0.6797518134,-1.883198857,2024-06-05 18:44:29.559489
60.59997072,-0.04527240247,0.4452674091,-1.392792225,2024-06-05 18:44:29.599971
60.64043556,-0.03408745676,0.5856118798,-0.967631042,2024-06-05 18:44:29.640436
60.68097285,0.08575125784,0.510512948,-0.4286231399,2024-06-05 18:44:29.680973
60.72143254,0.3284912407,0.4854799509,0.03169068322,2024-06-05 18:44:29.721433
