Time (s),Linear Acceleration x (m/s^2),Linear Acceleration y (m/s^2),Linear Acceleration z (m/s^2),Datetime
0.039084803,0.0,0.0,0.0,2024-06-05 18:43:29.039085
0.11463225,0.0,0.0,0.0,2024-06-05 18:43:29.114632
0.155127667,-0.7108875513,-0.2274899483,0.304060936,2024-06-05 18:43:29.155128
0.195598865,-0.5843043923,0.1933188438,-0.6932072639,2024-06-05 18:43:29.195599
0.236099698,-0.2160288393,-0.5192322731,1.701568604,2024-06-05 18:43:29.236100
0.276571313,0.1178698689,-0.4128103256,1.297234535,2024-06-05 18:43:29.276571
0.317043657,0.8000589609,0.7449407578,-1.620904446,2024-06-05 18:43:29.317044
0.357532303,-0.5105654597,-0.4137516022,-0.9988260269,2024-06-05 18:43:29.357532
0.398032355,0.0007479190826,-0.1024007797,-0.09855270386,2024-06-05 18:43:29.398032
0.438516261,-0.8646427393,-0.2360405922,-1.928309441,2024-06-05 18:43:29.438516
0.478995584,-2.265868187,-0.3694663048,-1.053343296,2024-06-05 18:43:29.478996
0.51949074,-0.3753890991,-0.02658867836,1.830769539,2024-06-05 18:43:29.519491
0.559979178,0.04332900047,-1.278207898,3.147652626,2024-06-05 18:43:29.559979
0.600463188,0.2709345818,-1.830272794,1.468197823,2024-06-05 18:43:29.600463
0.640946313,1.599602461,-1.883688688,2.070405006,2024-06-05 18:43:29.640946
0.681418761,-0.006253957748,-3.551959515,0.994890213,2024-06-05 18:43:29.681419
0.721953969,-3.873374462,-3.577642441,-2.393266678,2024-06-05 18:43:29.721954
0.76241548,-2.295631409,-5.608561993,1.353692055,2024-06-05 18:43:29.762415
0.802883188,-0.8129566908,-6.886715412,0.5735015869,2024-06-05 18:43:29.802883
0.84337298,2.644273996,-1.587335229,-0.5224523544,2024-06-05 18:43:29.843373
0.883868761,3.100539207,1.54068923,0.608092308,2024-06-05 18:43:29.883869
0.924361157,0.8970043659,-0.6011903286,-1.640061855,2024-06-05 18:43:29.924361
0.964847875,5.057067871,0.3122375011,-2.91200161,2024-06-05 18:43:29.964848
1.005333813,11.97274017,4.426343918,-1.45565033,2024-06-05 18:43:30.005334
1.045819646,12.1745863,2.161314249,3.493127823,2024-06-05 18:43:30.045820
1.086274282,-3.092486382,-3.104511738,1.529517174,2024-06-05 18:43:30.086274
1.126786417,-5.708929539,-1.206329942,-2.248599529,2024-06-05 18:43:30.126786
1.16729173,0.2115998864,1.182167649,1.430970192,2024-06-05 18:43:30.167292
1.207749282,3.117808342,1.218025208,3.350131035,2024-06-05 18:43:30.207749
1.248263709,0.8664592505,-0.9650680423,-2.369200706,2024-06-05 18:43:30.248264
1.28876225,1.412859797,-0.1095632315,-2.200276375,2024-06-05 18:43:30.288762
1.329175219,3.141376019,1.836613774,-0.4707107544,2024-06-05 18:43:30.329175
1.369723136,3.212542295,1.133866429,0.5880155563,2024-06-05 18:43:30.369723
1.410176261,-0.6518425941,-0.1029647589,-1.556243896,2024-06-05 18:43:30.410176
1.450687303,-2.422983646,-0.1988559961,1.322562218,2024-06-05 18:43:30.450687
1.491145532,-4.162536144,1.03658092,-0.6495695114,2024-06-05 18:43:30.491146
1.531647823,-3.862761736,1.4974581,0.7675924301,2024-06-05 18:43:30.531648
1.572157719,-1.229870915,-0.1638771296,-0.9466228485,2024-06-05 18:43:30.572158
1.612616834,-1.286174417,0.9586360455,-0.6497869492,2024-06-05 18:43:30.612617
1.653193917,-1.170773745,-0.5957833529,0.1963367462,2024-06-05 18:43:30.653194
1.693599959,-2.0598979,0.3481247425,0.7803277969,2024-06-05 18:43:30.693600
1.734066157,-3.754339457,0.8115818501,2.200164795,2024-06-05 18:43:30.734066
1.774574907,-1.876458645,1.296824217,-2.277870655,2024-06-05 18:43:30.774575
1.81506225,1.473898172,0.09986186028,-1.364163876,2024-06-05 18:43:30.815062
1.855489594,2.076524258,-1.209115267,0.03444671631,2024-06-05 18:43:30.855490
1.895976938,6.822317123,0.9114377499,0.1449661255,2024-06-05 18:43:30.895977
1.936522407,0.9701573849,1.422202587,-0.3002567291,2024-06-05 18:43:30.936522
1.976983605,-1.320276022,-0.1012134552,0.4581193924,2024-06-05 18:43:30.976984
2.017481365,-1.544506788,-1.370071173,-3.274141312,2024-06-05 18:43:31.017481
2.057957459,0.2021985054,0.3123954535,-4.229070663,2024-06-05 18:43:31.057957
2.098444803,-0.03172087669,1.312210679,1.448925972,2024-06-05 18:43:31.098445
2.138953084,-0.5757336617,0.5787467957,-5.435807705,2024-06-05 18:43:31.138953
2.179423657,-1.655550838,-1.486661792,1.831484795,2024-06-05 18:43:31.179424
2.219926053,0.8393691778,2.616271496,8.671983719,2024-06-05 18:43:31.219926
2.260390792,0.708837986,1.04595077,1.587542534,2024-06-05 18:43:31.260391
2.300900948,-0.3691780567,-0.9945168495,-0.85359478,2024-06-05 18:43:31.300901
2.34133074,2.083044767,-0.0552496016,-0.8272562027,2024-06-05 18:43:31.341331
2.381846053,1.702621222,0.5406832099,1.687633514,2024-06-05 18:43:31.381846
2.422342563,-1.181409836,-1.137560129,-1.334300041,2024-06-05 18:43:31.422343
2.46286798,-0.3788251877,0.01619327068,0.03694629669,2024-06-05 18:43:31.462868
2.503306521,-0.01660633087,-0.9837783575,-0.3627243042,2024-06-05 18:43:31.503307
2.543801573,2.438113213,0.5551897287,1.837121964,2024-06-05 18:43:31.543802
2.584280792,2.614752531,-0.6862311959,-1.04131031,2024-06-05 18:43:31.584281
2.624785115,0.9943819046,0.7847200036,-2.001836777,2024-06-05 18:43:31.624785
2.665270896,0.05366396904,-1.329999447,3.985710144,2024-06-05 18:43:31.665271
2.705757303,-0.6844820976,0.5529507399,2.847988129,2024-06-05 18:43:31.705757
2.746243344,0.02120447159,-1.09378922,0.6349382401,2024-06-05 18:43:31.746243
2.786724594,-1.966312885,-1.470059037,-3.077594757,2024-06-05 18:43:31.786725
2.827202459,1.051023006,0.1548273563,-2.74794817,2024-06-05 18:43:31.827202
2.867692719,0.09213805199,-0.9150440693,-2.665862083,2024-06-05 18:43:31.867693
2.90817574,0.8453452587,-0.5095200539,-3.655435085,2024-06-05 18:43:31.908176
2.948665428,1.467580318,0.3378522396,-5.112137794,2024-06-05 18:43:31.948665
2.989165323,1.643599987,-2.15886879,0.8791790009,2024-06-05 18:43:31.989165
3.02962949,0.7686219215,-0.9600162506,-1.410924911,2024-06-05 18:43:32.029629
3.070131938,1.315494537,-1.341592789,2.529256344,2024-06-05 18:43:32.070132
3.110611938,-0.3476581573,-2.553012848,-2.058698654,2024-06-05 18:43:32.110612
3.151091157,-3.13728857,-2.602819443,-4.310709953,2024-06-05 18:43:32.151091
3.191575219,-1.163272381,-0.5465846062,-0.5079708099,2024-06-05 18:43:32.191575
3.232067459,-2.522526264,0.5709176064,2.786958218,2024-06-05 18:43:32.232067
3.272588813,-3.040914059,-0.2132759094,5.661831379,2024-06-05 18:43:32.272589
3.313064646,0.6175761223,1.288980007,-3.179580927,2024-06-05 18:43:32.313065
3.353519125,-2.234603882,-0.3776340485,0.4628088474,2024-06-05 18:43:32.353519
3.39397699,-5.515743732,-1.522358894,0.02484798431,2024-06-05 18:43:32.393977
3.434462875,-6.091180325,-1.478209972,-2.267730951,2024-06-05 18:43:32.434463
3.474948709,0.5535292625,1.430026054,2.22437501,2024-06-05 18:43:32.474949
3.515434542,2.298348904,2.170581818,1.455717087,2024-06-05 18:43:32.515435
3.555920323,-0.5337677002,3.437312126,0.4366703033,2024-06-05 18:43:32.555920
3.596439334,-2.240763664,3.062610626,8.226730347,2024-06-05 18:43:32.596439
3.636941782,-2.157203674,-1.04787159,0.8886806965,2024-06-05 18:43:32.636942
3.677395375,3.173754692,-3.130764723,-5.188566208,2024-06-05 18:43:32.677395
3.717870688,3.548606873,-4.219222069,2.386613369,2024-06-05 18:43:32.717871
3.75838673,0.136256218,-1.898365498,1.847393036,2024-06-05 18:43:32.758387
3.798882875,-8.838308334,-3.171652317,-2.948409557,2024-06-05 18:43:32.798883
3.839338813,3.100500107,-0.3451997638,-2.071769238,2024-06-05 18:43:32.839339
3.87978298,9.112493515,0.3739148974,0.7425436974,2024-06-05 18:43:32.879783
3.920291573,11.91208553,2.644977093,1.237602711,2024-06-05 18:43:32.920292
3.960796938,11.07510948,0.6772084236,1.32610321,2024-06-05 18:43:32.960797
4.001272407,4.894170761,-3.387979507,-1.498268127,2024-06-05 18:43:33.001272
4.041765584,-4.828822613,-3.942959785,-0.9940519333,2024-06-05 18:43:33.041766
4.082270532,-18.34253502,-7.733421326,3.466263533,2024-06-05 18:43:33.082271
4.122722094,0.7665042877,-1.21250391,1.321903467,2024-06-05 18:43:33.122722
4.163218032,0.06295824051,-1.025688171,0.2625756264,2024-06-05 18:43:33.163218
4.203705948,2.52328968,1.191799641,-1.955604792,2024-06-05 18:43:33.203706
4.244207667,-1.4909482,-0.06910705566,-0.5877697468,2024-06-05 18:43:33.244208
4.284681105,0.4677033424,-0.7803182602,0.4081704617,2024-06-05 18:43:33.284681
4.325156469,1.569283009,-1.182284355,0.4982988834,2024-06-05 18:43:33.325156
4.365628605,-0.1122198105,-0.1603326797,0.6695814133,2024-06-05 18:43:33.365629
4.406134907,0.3022041321,2.783570766,0.1109657288,2024-06-05 18:43:33.406135
4.44662074,-2.935298443,-0.1211676598,1.160454273,2024-06-05 18:43:33.446621
4.487128969,-2.606377125,-2.688624382,0.4998989105,2024-06-05 18:43:33.487129
4.527582667,0.6381421089,-2.555353165,0.3084697723,2024-06-05 18:43:33.527583
4.568082771,-0.2626986504,-0.7687392235,0.09177684784,2024-06-05 18:43:33.568083
4.608567407,1.216479301,-0.3312888145,0.0622344017,2024-06-05 18:43:33.608567
4.64904699,-0.9867897034,-1.01486969,-1.254983902,2024-06-05 18:43:33.649047
4.689515115,-0.4187784195,-0.4491119385,0.3152198792,2024-06-05 18:43:33.689515
4.730047615,2.118817329,2.278546333,0.5392055511,2024-06-05 18:43:33.730048
4.770516938,-0.02372360229,4.670796394,-1.468750954,2024-06-05 18:43:33.770517
4.810990011,1.766060829,-0.6434206963,0.6725034714,2024-06-05 18:43:33.810990
4.851483084,-0.6291503906,-5.067774773,-0.252497673,2024-06-05 18:43:33.851483
4.891969021,0.2424430847,-0.7326843739,-0.7402291298,2024-06-05 18:43:33.891969
4.932562875,1.748382568,-1.466425896,-1.216417789,2024-06-05 18:43:33.932563
4.972966,2.196677208,-1.575447798,-0.7921383381,2024-06-05 18:43:33.972966
5.013451834,3.366802216,1.467816234,-0.738792181,2024-06-05 18:43:34.013452
5.053938136,3.506820202,2.6547153,-0.05835938454,2024-06-05 18:43:34.053938
5.09444173,2.395530701,2.333276033,0.5022177696,2024-06-05 18:43:34.094442
5.134872042,2.663532257,1.884393454,0.3778140545,2024-06-05 18:43:34.134872
5.175349907,1.577932358,1.868758202,0.3454031944,2024-06-05 18:43:34.175350
5.215829646,2.253054142,0.6397604942,0.2725770473,2024-06-05 18:43:34.215830
5.256315948,-0.1872634888,-2.950539112,-0.2931060791,2024-06-05 18:43:34.256316
5.296879386,-0.1413125992,-0.9905133247,0.3638398647,2024-06-05 18:43:34.296879
5.33733225,-0.8741521835,-2.734932899,-0.05092811584,2024-06-05 18:43:34.337332
5.377800323,-0.5348949432,-2.921497345,0.7667498589,2024-06-05 18:43:34.377800
5.41828673,-0.6023306847,-4.886949539,0.2785006762,2024-06-05 18:43:34.418287
5.458781365,-0.5746760368,-3.41481781,-0.2570490241,2024-06-05 18:43:34.458781
5.49926798,-1.322966099,2.028999805,2.703016281,2024-06-05 18:43:34.499268
5.539742094,-2.51616621,0.9926986694,1.485218883,2024-06-05 18:43:34.539742
5.580218969,-0.9353542328,-0.1767086983,-0.1801711321,2024-06-05 18:43:34.580219
5.620703605,0.1542253494,-0.114815712,0.3056679964,2024-06-05 18:43:34.620704
5.661189646,-0.04442977905,-0.130048275,-0.5576238632,2024-06-05 18:43:34.661190
5.701659282,0.0928440094,-0.3018212318,0.2999989986,2024-06-05 18:43:34.701659
5.742195219,-1.323476315,-2.053208828,0.7964293957,2024-06-05 18:43:34.742195
5.782685063,1.34880352,-1.704577923,0.380687952,2024-06-05 18:43:34.782685
5.823130428,0.9900817871,-1.065136433,-0.4319889545,2024-06-05 18:43:34.823130
5.863652615,-1.462917805,6.472332001,0.1206157207,2024-06-05 18:43:34.863653
5.904138657,-3.34029007,3.451491833,-2.287815332,2024-06-05 18:43:34.904139
5.944621105,-3.82760334,-5.331143379,-0.1867645979,2024-06-05 18:43:34.944621
5.985128344,-2.66298008,-4.939686775,-0.9095258713,2024-06-05 18:43:34.985128
6.025614803,0.1361646652,0.1172628403,-1.356554627,2024-06-05 18:43:35.025615
6.066101313,1.362272739,0.926473856,-0.4306653738,2024-06-05 18:43:35.066101
6.106537615,3.969368935,-0.8515262604,-2.596666813,2024-06-05 18:43:35.106538
6.147050271,3.66564703,-1.642640591,-2.49407649,2024-06-05 18:43:35.147050
6.18750475,-5.993076324,-0.2916988134,0.9268107414,2024-06-05 18:43:35.187505
6.227998292,3.686594009,-1.758143663,-1.428315163,2024-06-05 18:43:35.227998
6.268510219,1.421704292,-2.983830452,-2.292348385,2024-06-05 18:43:35.268510
6.309000115,0.04563999176,-1.487861276,-0.8023469448,2024-06-05 18:43:35.309000
6.349481365,3.355165958,1.056812525,0.4566950798,2024-06-05 18:43:35.349481
6.389908605,5.482780457,0.5452557802,-0.8190736771,2024-06-05 18:43:35.389909
6.430395115,5.486470222,-0.2503119707,-0.6842596531,2024-06-05 18:43:35.430395
6.470911782,2.980269432,1.883152843,0.06945681572,2024-06-05 18:43:35.470912
6.511414594,-1.76149559,1.312927961,-0.1814293861,2024-06-05 18:43:35.511415
6.551851209,-1.32550621,0.4833812714,-0.9755892754,2024-06-05 18:43:35.551851
6.592334386,-1.061187744,1.124814272,-1.006829977,2024-06-05 18:43:35.592334
6.632855792,-2.28410244,0.6508312225,-0.5093895197,2024-06-05 18:43:35.632856
6.673306105,-1.876225948,-1.941241264,-0.663004458,2024-06-05 18:43:35.673306
6.713789542,-0.2896113396,-1.123756886,-0.3518619537,2024-06-05 18:43:35.713790
6.754288448,-0.5397386551,-0.3247642517,-0.1662791967,2024-06-05 18:43:35.754288
6.794763657,-0.5075731277,-0.09464025497,-0.8796936274,2024-06-05 18:43:35.794764
6.83529475,-1.39582634,-1.683364868,0.4270523787,2024-06-05 18:43:35.835295
6.875778553,-0.7747216225,-0.1806998253,0.4970875978,2024-06-05 18:43:35.875779
6.916275011,-2.097062588,0.2460203171,0.3787579536,2024-06-05 18:43:35.916275
6.956746261,-2.422334671,-1.979559422,-0.3964263797,2024-06-05 18:43:35.956746
6.997206261,0.3758144379,-0.9371342659,-0.3969220519,2024-06-05 18:43:35.997206
7.037688188,1.190609455,0.2169952393,0.1759547591,2024-06-05 18:43:36.037688
7.078172303,0.4122066498,-0.06133413315,0.2692335248,2024-06-05 18:43:36.078172
7.118673344,-1.3545084,-0.1144080162,0.1783026457,2024-06-05 18:43:36.118673
7.159140532,0.1315145493,0.5446805954,-0.02574813366,2024-06-05 18:43:36.159141
7.199630375,-0.9993991852,0.2617964745,-0.8428968787,2024-06-05 18:43:36.199630
7.240144907,-2.430445671,-0.3203988075,-0.8632211089,2024-06-05 18:43:36.240145
7.280630844,-0.7126274109,-0.01732254028,-0.6397268772,2024-06-05 18:43:36.280631
7.321122771,-1.808362007,-0.9818205833,-0.7954710126,2024-06-05 18:43:36.321123
7.36160574,-0.4257097244,-2.145202637,0.1566244364,2024-06-05 18:43:36.361606
7.402137563,0.5477457047,-1.962106705,-0.2967120409,2024-06-05 18:43:36.402138
7.442588813,0.04078006744,-1.144738674,-0.9381253719,2024-06-05 18:43:36.442589
7.483065948,-0.4145202637,-0.2203161716,-0.61840868,2024-06-05 18:43:36.483066
7.523566469,2.314734459,-0.7075641155,-0.3664629459,2024-06-05 18:43:36.523566
7.564034021,4.704436779,0.7282021046,-0.4585001469,2024-06-05 18:43:36.564034
7.604527771,2.841805458,0.4690005779,-0.4310811758,2024-06-05 18:43:36.604528
7.645008188,4.349291325,1.278337002,-0.3288185596,2024-06-05 18:43:36.645008
7.685472771,3.772686481,2.209640265,0.1575031281,2024-06-05 18:43:36.685473
7.725956,0.9945726395,0.9384585619,0.3660396338,2024-06-05 18:43:36.725956
7.766429282,1.612380505,0.2675955296,0.596555233,2024-06-05 18:43:36.766429
7.806911417,1.692168236,0.04961442947,0.3534212112,2024-06-05 18:43:36.806911
7.847399178,0.6796693802,0.07820105553,0.5854359865,2024-06-05 18:43:36.847399
7.887886782,-0.5099821091,-0.2901515961,0.4366412163,2024-06-05 18:43:36.887887
7.928405948,-1.16793251,-0.06622123718,0.186758101,2024-06-05 18:43:36.928406
7.968886053,-1.022650242,-0.5610933304,0.0939424634,2024-06-05 18:43:36.968886
8.009341938,-0.8593492508,-0.3799405098,0.4226222634,2024-06-05 18:43:37.009342
8.049831782,-1.429286003,-1.385572433,0.02444472909,2024-06-05 18:43:37.049832
8.090317355,-1.822590828,-1.35820055,-0.3742467165,2024-06-05 18:43:37.090317
8.13079423,-2.094063282,-1.058773518,0.8855186701,2024-06-05 18:43:37.130794
8.171332928,-1.899917126,-0.4610824585,0.8950167894,2024-06-05 18:43:37.171333
8.211777355,-1.094888687,-0.4564294815,0.7097927332,2024-06-05 18:43:37.211777
8.252262511,0.5904145241,-0.3245668411,1.004622459,2024-06-05 18:43:37.252263
8.292763448,-0.1563863754,-1.248542309,0.7826977968,2024-06-05 18:43:37.292763
8.333258188,-0.5584111214,0.1463756561,0.5174101591,2024-06-05 18:43:37.333258
8.373748553,-1.4374156,0.6721129417,0.5544692874,2024-06-05 18:43:37.373749
8.414222771,-1.875184536,-0.04810619354,0.2122958899,2024-06-05 18:43:37.414223
8.454709125,-0.3533916473,0.4824023247,0.1187239289,2024-06-05 18:43:37.454709
8.495200584,-0.4323654175,-0.581510067,-0.9479959607,2024-06-05 18:43:37.495201
8.535681417,-2.067955017,-1.363354206,-0.6647671461,2024-06-05 18:43:37.535681
8.576146313,-1.784454346,-1.739789486,-0.5585011244,2024-06-05 18:43:37.576146
8.616636469,0.7212181091,-1.906274319,-0.2717318535,2024-06-05 18:43:37.616636
8.657133188,1.750669003,-0.7316532135,-0.8778599501,2024-06-05 18:43:37.657133
8.697630584,-1.793747902,-1.543888807,-0.5059095621,2024-06-05 18:43:37.697631
8.738109125,-0.06586742401,-0.4601399899,-1.661008,2024-06-05 18:43:37.738109
8.778582823,2.414066315,0.8467298746,-0.8433386087,2024-06-05 18:43:37.778583
8.819085844,4.231466293,-0.02458572388,-0.7783608437,2024-06-05 18:43:37.819086
8.859550167,4.001254082,0.3939242363,-1.231214523,2024-06-05 18:43:37.859550
8.900079073,3.729824066,0.7652677298,-0.7212750912,2024-06-05 18:43:37.900079
8.940538657,2.96369791,2.439939022,-0.2378714085,2024-06-05 18:43:37.940539
8.981020896,0.66132164,1.110929012,-0.4290094376,2024-06-05 18:43:37.981021
9.02150824,2.524573803,0.1532506943,-0.4218015671,2024-06-05 18:43:38.021508
9.061989594,3.493692398,0.7462852001,-0.4416136742,2024-06-05 18:43:38.061990
9.102466053,1.175971985,0.7988910675,0.4945610762,2024-06-05 18:43:38.102466
9.142969178,-2.119840622,-0.6758284569,0.9732449055,2024-06-05 18:43:38.142969
9.183478188,-1.883028984,-2.699216843,0.7490016222,2024-06-05 18:43:38.183478
9.223936209,0.9959077835,-1.539114952,0.6081573963,2024-06-05 18:43:38.223936
9.264453605,-0.4372882843,-1.538139343,1.643192053,2024-06-05 18:43:38.264454
9.304927719,-2.369534969,-1.607046127,-0.002545446157,2024-06-05 18:43:38.304928
9.345399855,-3.495641708,0.06984996796,-1.138034344,2024-06-05 18:43:38.345400
9.385887719,-3.292819023,0.05251646042,-0.8011743426,2024-06-05 18:43:38.385888
9.426369334,-2.666492462,0.4441161156,-0.07642680407,2024-06-05 18:43:38.426369
9.46683725,-0.363216877,1.053911686,-0.5127443075,2024-06-05 18:43:38.466837
9.507318761,0.133067131,0.2961626053,0.1747464538,2024-06-05 18:43:38.507319
9.54780975,0.6901659966,-1.180403709,1.35025847,2024-06-05 18:43:38.547810
9.588296105,-1.412724495,-0.9608998299,1.313670993,2024-06-05 18:43:38.588296
9.628781678,-1.790875435,-0.9912428856,-0.01239931583,2024-06-05 18:43:38.628782
9.669261886,-1.139526844,-0.5785045624,0.5576263666,2024-06-05 18:43:38.669262
9.709757146,-3.417691231,-1.021297455,-0.7396685481,2024-06-05 18:43:38.709757
9.750238969,-1.762718201,-0.2391810417,-1.570258856,2024-06-05 18:43:38.750239
9.790720688,-0.6859893799,0.4037361145,-0.6212714911,2024-06-05 18:43:38.790721
9.831207094,-0.799695015,-0.8055701256,0.03105592728,2024-06-05 18:43:38.831207
9.871692563,-1.397411346,-2.269235611,-1.902101994,2024-06-05 18:43:38.871693
9.912177771,0.2431735992,-3.05941987,-2.063968182,2024-06-05 18:43:38.912178
9.952672198,2.029778004,-1.240098238,-1.669897795,2024-06-05 18:43:38.952672
9.99315199,2.334750175,0.3982486725,-0.2883222103,2024-06-05 18:43:38.993152
10.03363824,2.840387821,-0.05083799362,-1.477343082,2024-06-05 18:43:39.033638
10.07412777,6.74243021,1.073554039,-2.08015275,2024-06-05 18:43:39.074128
10.1146473,6.84624958,2.098870754,-1.67769599,2024-06-05 18:43:39.114647
10.15508386,5.720010757,2.056275845,-0.2926907539,2024-06-05 18:43:39.155084
10.1956185,2.891561508,2.305754185,0.473637104,2024-06-05 18:43:39.195619
10.23606293,-1.513914108,0.3972649574,1.074275017,2024-06-05 18:43:39.236063
10.27656131,-2.661092758,-1.657106876,0.3464702368,2024-06-05 18:43:39.276561
10.31705782,0.3403158188,-1.527169228,-0.0478041172,2024-06-05 18:43:39.317058
10.3575634,0.04938030243,-2.274454594,0.4343634844,2024-06-05 18:43:39.357563
10.39805662,0.05078125,-0.9662370682,-0.4611434937,2024-06-05 18:43:39.398057
10.43851027,-1.128208637,3.247985363,0.3042913675,2024-06-05 18:43:39.438510
10.47902199,-2.086425304,-0.7430944443,1.744679689,2024-06-05 18:43:39.479022
10.51948449,-4.317187309,-5.216867447,0.334525466,2024-06-05 18:43:39.519484
10.55996532,-2.816235065,0.03371286392,1.209356308,2024-06-05 18:43:39.559965
10.60045439,-0.728454113,-1.63872242,0.8474381566,2024-06-05 18:43:39.600454
10.64098022,1.647713661,0.2083706856,-0.007771074772,2024-06-05 18:43:39.640980
10.68146423,5.760291576,3.551419735,0.7239767313,2024-06-05 18:43:39.681464
10.72187584,-4.376762867,-0.8291125298,1.696985006,2024-06-05 18:43:39.721876
10.7623673,-4.957327843,-2.955735683,1.264997005,2024-06-05 18:43:39.762367
10.80288736,-2.431501389,1.265821457,0.6149395108,2024-06-05 18:43:39.802887
10.84336334,-3.862113476,-4.368322849,-1.039954662,2024-06-05 18:43:39.843363
10.88381381,1.229651451,-2.649011612,0.5114315748,2024-06-05 18:43:39.883814
10.92434824,1.840078831,0.2585377693,-0.7232040763,2024-06-05 18:43:39.924348
10.96484246,-1.61944294,-0.3082265854,0.5682448149,2024-06-05 18:43:39.964842
11.00534397,0.5500116348,0.3602876663,-0.949008584,2024-06-05 18:43:40.005344
11.04580907,1.339653969,-3.288002253,-1.62143755,2024-06-05 18:43:40.045809
11.0863034,0.2829189301,-1.389705896,-1.706268311,2024-06-05 18:43:40.086303
11.12678069,0.1082735062,0.3698940277,-0.1274578571,2024-06-05 18:43:40.126781
11.16728053,2.880711555,1.361919165,-0.7006788254,2024-06-05 18:43:40.167281
11.20772788,5.096513748,0.2725300789,-0.03965401649,2024-06-05 18:43:40.207728
11.24828168,4.168433666,0.01936244965,-1.133845329,2024-06-05 18:43:40.248282
11.28869595,2.339459896,0.8412966728,-0.7954961061,2024-06-05 18:43:40.288696
11.32922486,3.573114395,1.779600143,0.08157122135,2024-06-05 18:43:40.329225
11.3696836,3.705112457,1.66977942,-0.01507794857,2024-06-05 18:43:40.369684
11.41016418,2.477369785,-0.2662422657,0.2421447039,2024-06-05 18:43:40.410164
11.450656,0.1470108032,-0.9163975716,0.4233435392,2024-06-05 18:43:40.450656
11.49112886,-2.234524727,-1.487931728,0.2347350121,2024-06-05 18:43:40.491129
11.53160871,-0.9004497528,-0.3694329262,0.0001776218414,2024-06-05 18:43:40.531609
11.57214095,-1.136211395,0.6094641685,-0.3740433156,2024-06-05 18:43:40.572141
11.61255605,-2.765229225,-0.1560535431,-0.5282512307,2024-06-05 18:43:40.612556
11.65306772,-1.617215157,-1.997314453,-0.979249239,2024-06-05 18:43:40.653068
11.69357225,-2.20557642,-0.9781970978,-0.2705919147,2024-06-05 18:43:40.693572
11.7340685,-1.885819912,-0.3090133667,0.5505968928,2024-06-05 18:43:40.734068
11.7745622,-3.337126732,-1.903059483,0.775120616,2024-06-05 18:43:40.774562
11.81502715,-1.289054871,0.08123922348,0.3822840452,2024-06-05 18:43:40.815027
11.85549902,-0.972140789,-0.2151699066,1.085420847,2024-06-05 18:43:40.855499
11.89598662,0.2123122215,-0.1222052574,0.1584826112,2024-06-05 18:43:40.895987
11.93649762,2.261254311,1.443011761,-0.4283467829,2024-06-05 18:43:40.936498
11.97697845,-1.217500687,-0.8015007973,-0.2993453145,2024-06-05 18:43:40.976978
12.01747949,-5.410262108,-2.264388084,-0.4575496912,2024-06-05 18:43:41.017479
12.05796246,-1.922057152,-1.062245369,-1.12362957,2024-06-05 18:43:41.057962
12.09844298,0.4660692215,-1.986791611,-1.340799332,2024-06-05 18:43:41.098443
12.13890267,0.1596221924,-1.983843803,-0.0557128191,2024-06-05 18:43:41.138903
12.17940433,0.9074692726,-1.602297783,-0.6641083956,2024-06-05 18:43:41.179404
12.21988058,0.04012012482,-0.8919975758,-1.619036674,2024-06-05 18:43:41.219881
12.26038532,1.717839718,-0.3889286518,-0.7347892523,2024-06-05 18:43:41.260385
12.30087465,0.7344169617,-1.187902689,-0.6073271632,2024-06-05 18:43:41.300875
12.3413334,3.577084541,0.8495168686,-0.7211637497,2024-06-05 18:43:41.341333
12.38178803,6.680831909,1.524158239,-1.048575044,2024-06-05 18:43:41.381788
12.42227694,3.769757271,1.653163433,0.2339500189,2024-06-05 18:43:41.422277
12.46279053,4.016861439,1.997251987,-0.04305791855,2024-06-05 18:43:41.462791
12.50327996,3.598319054,0.7336807251,0.4714472294,2024-06-05 18:43:41.503280
12.54377189,1.349330425,0.148879528,0.2556251287,2024-06-05 18:43:41.543772
12.58430293,-0.2575292587,-1.190273285,0.5796247721,2024-06-05 18:43:41.584303
12.62480871,0.6262521744,-1.620209694,0.3700403869,2024-06-05 18:43:41.624809
12.66523902,-1.827737808,-1.209283829,0.7150191665,2024-06-05 18:43:41.665239
12.7057161,-2.184649467,-1.414107323,0.1997970641,2024-06-05 18:43:41.705716
12.74621334,-0.9376220703,-1.600424767,-0.2693603039,2024-06-05 18:43:41.746213
12.7866784,-0.4593696594,-0.7187709808,-0.005034968257,2024-06-05 18:43:41.786678
12.82715157,-2.105319023,0.5187001228,-0.4347542524,2024-06-05 18:43:41.827152
12.86762611,-3.354860783,0.9487161636,0.6381429434,2024-06-05 18:43:41.867626
12.908126,-4.2259655,0.1733102798,0.5653065443,2024-06-05 18:43:41.908126
12.94863543,-1.934197903,-1.281234741,0.2300353348,2024-06-05 18:43:41.948635
12.98912959,-0.4306893349,-0.690782547,0.5915612578,2024-06-05 18:43:41.989130
13.02959381,-0.8175373077,-1.778608799,0.5113978386,2024-06-05 18:43:42.029594
13.07007241,-0.8254237175,0.6915140152,-0.358199954,2024-06-05 18:43:42.070072
13.11053782,-0.06001520157,1.362941742,-0.04231864214,2024-06-05 18:43:42.110538
13.15104241,0.6370892525,-0.5008444786,-0.4839425087,2024-06-05 18:43:42.151042
13.1915298,-1.770235062,-1.180008888,-1.061022401,2024-06-05 18:43:42.191530
13.23199673,-3.205408096,-1.681438446,-0.3820477128,2024-06-05 18:43:42.231997
13.27247663,-3.859081268,-3.373534203,-1.441868186,2024-06-05 18:43:42.272477
13.3130048,1.003090858,-1.925694942,0.4713197351,2024-06-05 18:43:42.313005
13.35349006,0.3062238693,-1.936312437,-2.139807224,2024-06-05 18:43:42.353490
13.39395027,2.259314537,-0.2618925571,-2.199864149,2024-06-05 18:43:42.393950
13.43450887,3.43969059,0.2897326946,-0.9957409501,2024-06-05 18:43:42.434509
13.47499402,2.607931137,0.7664749622,-0.4360935688,2024-06-05 18:43:42.474994
13.51546689,3.736985207,0.3004286289,-0.4705116749,2024-06-05 18:43:42.515467
13.55590798,5.198458672,1.010837913,-0.08393347263,2024-06-05 18:43:42.555908
13.59641105,4.827825546,1.26978302,0.2156176567,2024-06-05 18:43:42.596411
13.63689626,2.54250288,0.1875934601,0.372510314,2024-06-05 18:43:42.636896
13.67736209,0.3851308823,-0.3868219852,0.3043415546,2024-06-05 18:43:42.677362
13.71785178,1.293913841,-0.1184692383,0.1532045603,2024-06-05 18:43:42.717852
13.75832621,1.627527714,0.1330399513,-0.1768267155,2024-06-05 18:43:42.758326
13.7988072,0.02823781967,-0.4023180008,-0.5314007401,2024-06-05 18:43:42.798807
13.83933147,-1.575874329,-1.793736458,-0.6614263058,2024-06-05 18:43:42.839331
13.8797698,-1.867957592,-1.202608585,0.4015022814,2024-06-05 18:43:42.879770
13.92025991,-3.03898716,-1.099441528,-0.01008549333,2024-06-05 18:43:42.920260
13.96075579,-2.932612419,-2.202568054,0.1072395742,2024-06-05 18:43:42.960756
14.0012322,-2.630778313,-0.6747689247,0.6189702153,2024-06-05 18:43:43.001232
14.04172376,-1.093357086,1.271971226,0.9750578403,2024-06-05 18:43:43.041724
14.08219225,-0.357419014,1.365276337,0.7078726292,2024-06-05 18:43:43.082192
14.12268678,-1.125571251,-0.8238134384,0.2593997419,2024-06-05 18:43:43.122687
14.16317709,-1.999098301,-0.9556965828,0.6009949446,2024-06-05 18:43:43.163177
14.2036572,-1.15619421,0.01625728607,0.660723567,2024-06-05 18:43:43.203657
14.2441398,-0.9510359764,-1.340334415,-0.1163656116,2024-06-05 18:43:43.244140
14.28465715,-0.5279517174,-0.6644558907,0.09887057543,2024-06-05 18:43:43.284657
14.32511829,-0.2615332603,-0.3351812363,-0.3038586974,2024-06-05 18:43:43.325118
14.36560902,-1.407869816,-1.447311878,-0.9833400249,2024-06-05 18:43:43.365609
14.4060947,-1.420347214,-2.439531326,-0.1639986932,2024-06-05 18:43:43.406095
14.44655762,0.002376556396,-2.117200375,-0.09186580777,2024-06-05 18:43:43.446558
14.48705845,0.1350927353,-0.7664284706,-1.950293064,2024-06-05 18:43:43.487058
14.52754069,-0.4897003174,-0.1759154797,-0.5632234812,2024-06-05 18:43:43.527541
14.56802517,0.6630840302,-1.110394001,-0.3760894537,2024-06-05 18:43:43.568025
14.60851038,6.127202511,2.231121778,0.2412344217,2024-06-05 18:43:43.608510
14.6489961,5.866281986,-0.9338345528,-0.5397712588,2024-06-05 18:43:43.648996
14.68951819,1.596031189,0.7018994093,-0.3572080731,2024-06-05 18:43:43.689518
14.72996772,3.974314213,0.9515300989,0.4903614521,2024-06-05 18:43:43.729968
14.77047996,2.82806015,-0.6687264442,-0.2717505097,2024-06-05 18:43:43.770480
14.81094319,4.166840553,3.537185192,0.159016788,2024-06-05 18:43:43.810943
14.85142131,8.468166351,1.704035044,-0.7537012696,2024-06-05 18:43:43.851421
14.89190746,-5.328072548,-1.802942753,2.083240032,2024-06-05 18:43:43.891907
14.93239975,-6.703726768,-4.408633709,-0.8422204852,2024-06-05 18:43:43.932400
14.97288157,0.02971124649,0.6747889519,0.3756399751,2024-06-05 18:43:43.972882
15.01337209,-5.250487328,-4.795246601,-1.173996568,2024-06-05 18:43:44.013372
15.05385288,4.479153633,0.02260351181,-0.1049211919,2024-06-05 18:43:44.053853
15.09434532,-4.161391735,2.043723583,-0.8257290721,2024-06-05 18:43:44.094345
15.13483491,-6.77711916,-0.6740889549,1.186246395,2024-06-05 18:43:44.134835
15.17532876,-0.246099472,1.620443821,1.016783714,2024-06-05 18:43:44.175329
15.21582256,-0.5016570091,-1.712272167,0.7487792373,2024-06-05 18:43:44.215823
15.25630907,-3.724155426,-3.511320114,0.9182544947,2024-06-05 18:43:44.256309
15.29676767,2.261946678,1.876706123,-0.5666846633,2024-06-05 18:43:44.296768
15.33724913,2.484375477,0.0142865181,0.4929867983,2024-06-05 18:43:44.337249
15.3777435,-1.004326344,-1.019731998,-1.298375607,2024-06-05 18:43:44.377743
15.41823673,-2.522859573,0.3322138786,-0.294147253,2024-06-05 18:43:44.418237
15.45872887,-3.921954632,0.2380251884,-1.151157379,2024-06-05 18:43:44.458729
15.49921418,-0.2574472427,-1.969353199,-0.0443867743,2024-06-05 18:43:44.499214
15.53971881,0.5429635048,-2.724935055,-0.7838824987,2024-06-05 18:43:44.539719
15.58018147,-1.16886425,-2.127682209,-0.5701067448,2024-06-05 18:43:44.580181
15.62067881,-0.4464769363,0.4735629559,-0.2728583217,2024-06-05 18:43:44.620679
15.66114986,1.742062569,-0.5555918217,-0.2128217816,2024-06-05 18:43:44.661150
15.70163241,6.00338316,-1.676452398,-0.6884356737,2024-06-05 18:43:44.701632
15.74211798,3.339277267,0.8692033291,-0.5977250338,2024-06-05 18:43:44.742118
15.78259262,3.063480377,1.991661787,0.7235269547,2024-06-05 18:43:44.782593
15.82309334,4.659407616,1.3711586,0.007932901382,2024-06-05 18:43:44.823093
15.86355543,4.230269909,0.9238116741,0.4386728406,2024-06-05 18:43:44.863555
15.90408142,4.1766119,0.5603775978,0.6637305021,2024-06-05 18:43:44.904081
15.94457652,-0.03772640228,-0.1938319206,0.6420862675,2024-06-05 18:43:44.944577
15.98510647,-2.357515335,-0.721634388,0.2215688229,2024-06-05 18:43:44.985106
16.02558069,-0.9420957565,-1.858198166,0.1909736097,2024-06-05 18:43:45.025581
16.06603933,0.4104533195,-1.617325783,-0.6979019046,2024-06-05 18:43:45.066039
16.10650699,-0.7623634338,-1.178941727,0.08436816186,2024-06-05 18:43:45.106507
16.14700189,-2.745925903,-0.3440852165,-0.09442445636,2024-06-05 18:43:45.147002
16.1874785,-3.472119331,-1.302230358,-0.5800782442,2024-06-05 18:43:45.187479
16.22794918,-4.286380291,0.04133749008,1.425918341,2024-06-05 18:43:45.227949
16.26844595,-2.767729282,-0.6328892708,1.456740618,2024-06-05 18:43:45.268446
16.30893319,-1.343228817,-0.4256768227,0.8167325854,2024-06-05 18:43:45.308933
16.34942834,0.3700699806,-0.05655908585,0.5394874811,2024-06-05 18:43:45.349428
16.38991058,0.09864187241,-0.628262043,0.706479907,2024-06-05 18:43:45.389911
16.43037965,0.2444524765,-0.5471291542,0.31579265,2024-06-05 18:43:45.430380
16.4708635,-0.8573265076,0.677822113,-0.3481615186,2024-06-05 18:43:45.470864
16.51138522,-1.688303947,-0.05997276306,-0.1793692261,2024-06-05 18:43:45.511385
16.55184022,-2.570936203,-1.477396488,-0.7362217903,2024-06-05 18:43:45.551840
16.59230204,-0.9235401154,-2.288323879,-0.6089705825,2024-06-05 18:43:45.592302
16.63280194,-0.6571655273,-2.45885849,-0.572655499,2024-06-05 18:43:45.632802
16.673306,0.753537178,-0.9142284393,-0.7101919651,2024-06-05 18:43:45.673306
16.71379709,0.6559438705,-0.9778878689,-3.12547946,2024-06-05 18:43:45.713797
16.75429027,0.3124799728,-0.3385500908,-0.3789736331,2024-06-05 18:43:45.754290
16.79481834,4.632536888,0.2740015984,0.3918516636,2024-06-05 18:43:45.794818
16.83527116,4.198511124,0.8157906532,0.2524339557,2024-06-05 18:43:45.835271
16.8757134,3.381042004,-0.7895140648,-0.08149844408,2024-06-05 18:43:45.875713
16.91623558,4.242847919,1.166560292,0.4075824618,2024-06-05 18:43:45.916236
16.95671621,4.353078842,2.742303133,0.6250641942,2024-06-05 18:43:45.956716
16.9972086,4.386724472,1.323655605,-0.7605558634,2024-06-05 18:43:45.997209
17.03766704,-1.206373215,-2.582211494,-0.06201016158,2024-06-05 18:43:46.037667
17.07816475,-3.808559418,-4.264546871,0.5111636519,2024-06-05 18:43:46.078165
17.11863293,-2.396974564,-0.6980662346,0.3310351968,2024-06-05 18:43:46.118633
17.1591285,-2.711184978,0.8727712631,1.06053412,2024-06-05 18:43:46.159129
17.19961444,-2.278948307,0.2541427612,-0.681347549,2024-06-05 18:43:46.199614
17.24013345,-0.7940526009,-1.179901123,0.07142724842,2024-06-05 18:43:46.240133
17.2805772,-8.105927467,-3.746775627,-1.193285465,2024-06-05 18:43:46.280577
17.32107215,-2.390438557,-2.848570824,-0.1882880479,2024-06-05 18:43:46.321072
17.36157996,4.324199677,0.4792227745,0.05129684508,2024-06-05 18:43:46.361580
17.40200412,5.008051872,1.562389374,-0.001189827919,2024-06-05 18:43:46.402004
17.44251303,1.642968655,2.975888729,0.7863243222,2024-06-05 18:43:46.442513
17.48299564,-2.2281847,4.383360386,0.5758758783,2024-06-05 18:43:46.482996
17.52351293,-3.1902318,1.594819546,-0.8545917273,2024-06-05 18:43:46.523513
17.56399913,-1.389656544,-1.961959839,-0.1860664487,2024-06-05 18:43:46.563999
17.60448538,-2.932891846,-2.112318993,-0.5283766389,2024-06-05 18:43:46.604485
17.64494642,-3.694241047,-2.837119102,-0.7498520017,2024-06-05 18:43:46.644946
17.68544423,-1.605899811,-3.119986057,-0.4992089868,2024-06-05 18:43:46.685444
17.72592392,0.120174408,-3.154810429,-0.4320099354,2024-06-05 18:43:46.725924
17.76646298,1.521358013,-0.5330576897,-0.3495079279,2024-06-05 18:43:46.766463
17.80691517,3.741555214,1.056022644,-1.990285397,2024-06-05 18:43:46.806915
17.84740324,4.244600773,0.7752349377,-1.112342358,2024-06-05 18:43:46.847403
17.88782584,2.924705982,0.1730606556,-0.2056465149,2024-06-05 18:43:46.887826
17.92839173,2.115107536,0.5554997921,-0.5481160879,2024-06-05 18:43:46.928392
17.96885845,2.668935299,-0.01254534721,-0.1982070804,2024-06-05 18:43:46.968858
18.00931636,3.397987366,0.8496105671,0.2912747264,2024-06-05 18:43:47.009316
18.04984142,3.821081161,1.199890614,0.3653877974,2024-06-05 18:43:47.049841
18.09030157,4.386702061,1.342197418,0.0200766325,2024-06-05 18:43:47.090302
18.13077387,2.683983326,1.1095047,-0.177744925,2024-06-05 18:43:47.130774
18.171251,0.9376478195,-0.175219059,0.1592060328,2024-06-05 18:43:47.171251
18.21172855,-3.06620121,-2.078714848,0.3505532146,2024-06-05 18:43:47.211729
18.25221454,-3.179504871,-2.543080807,-0.6186880469,2024-06-05 18:43:47.252215
18.29270845,-2.410337925,-2.700155258,-0.3875462115,2024-06-05 18:43:47.292708
18.33320194,-2.881477356,-0.5574550629,0.4644549489,2024-06-05 18:43:47.333202
18.3736973,-1.032048225,2.09007597,-0.1722876728,2024-06-05 18:43:47.373697
18.41419772,-2.121406078,-0.3144397736,0.5656163692,2024-06-05 18:43:47.414198
18.45469522,-4.273003578,-0.6572160721,0.8590593338,2024-06-05 18:43:47.454695
18.49515387,-2.699529171,-2.336313725,-0.116080679,2024-06-05 18:43:47.495154
18.53565069,0.09065532684,0.2531456947,0.8962005973,2024-06-05 18:43:47.535651
18.57615741,3.151519299,1.295087814,0.2965787053,2024-06-05 18:43:47.576157
18.61671647,-2.449334621,-1.040885925,0.4928553104,2024-06-05 18:43:47.616716
18.65708991,-7.254122257,-2.384906292,-0.3483970165,2024-06-05 18:43:47.657090
18.69759355,-1.158022404,-1.720481396,-0.8480690718,2024-06-05 18:43:47.697594
18.73807142,1.135697365,-3.404364109,-2.3783288,2024-06-05 18:43:47.738071
18.77856762,1.567514896,-1.206258774,-0.6498532891,2024-06-05 18:43:47.778568
18.8190398,0.6266307831,0.6871361732,-1.109269738,2024-06-05 18:43:47.819040
18.85952428,-1.168533325,0.09640836716,-1.677624822,2024-06-05 18:43:47.859524
18.90001538,0.7325735092,-0.7790458202,-2.148673296,2024-06-05 18:43:47.900015
18.94050824,3.901686192,0.1932587624,-1.481169462,2024-06-05 18:43:47.940508
18.98098621,4.804390907,-0.1880602837,-1.072959304,2024-06-05 18:43:47.980986
19.02147147,1.087790489,0.3201715946,-0.1517333984,2024-06-05 18:43:48.021471
19.06194402,2.065676689,0.8921203613,-0.1676647663,2024-06-05 18:43:48.061944
19.10240371,5.737949371,1.551991463,0.05071020126,2024-06-05 18:43:48.102404
19.14294621,4.018427372,0.8187074661,0.001148939133,2024-06-05 18:43:48.142946
19.18347209,3.90893364,0.2180171013,-0.09060931206,2024-06-05 18:43:48.183472
19.2239486,0.6101579666,0.1430845261,0.003952890635,2024-06-05 18:43:48.223949
19.26441319,-3.773117065,-0.959084034,0.2024971545,2024-06-05 18:43:48.264413
19.30489236,-1.072018147,-2.180624485,-1.261765957,2024-06-05 18:43:48.304892
19.34537314,0.1036171913,-2.552519798,-0.1663244367,2024-06-05 18:43:48.345373
19.38583876,-1.918883801,-1.061675549,-0.2739542127,2024-06-05 18:43:48.385839
19.42632178,-2.632861137,0.08193397522,-0.07260027528,2024-06-05 18:43:48.426322
19.46682413,-2.936800957,-0.1517381668,0.4428910017,2024-06-05 18:43:48.466824
19.50729866,-3.56072855,-0.365380764,0.3701742291,2024-06-05 18:43:48.507299
19.54779225,-2.307425022,0.4944291115,0.4037542343,2024-06-05 18:43:48.547792
19.58827256,-1.594681263,-1.094752312,0.2434767634,2024-06-05 18:43:48.588273
19.62875178,-0.8886590004,-0.26040411,0.1779910624,2024-06-05 18:43:48.628752
19.66925006,-0.2059626579,-0.4670357704,0.3970456123,2024-06-05 18:43:48.669250
19.70975262,-1.108611107,-1.359285355,-0.549691081,2024-06-05 18:43:48.709753
19.75023376,-0.9263906479,-0.6067733765,-0.07281300426,2024-06-05 18:43:48.750234
19.79071913,-1.87302494,-1.125445366,-1.350344181,2024-06-05 18:43:48.790719
19.83120298,-0.817281723,-2.195237637,-0.525698185,2024-06-05 18:43:48.831203
19.87168673,-0.1924009323,-1.711980343,-0.5994580984,2024-06-05 18:43:48.871687
19.91217267,-0.4984807968,-1.232135773,-0.5056011081,2024-06-05 18:43:48.912173
19.95263032,1.521474361,-0.1162164211,-0.5562570095,2024-06-05 18:43:48.952630
19.99310704,1.502678394,-1.464032173,-0.8396203518,2024-06-05 18:43:48.993107
20.03362236,2.678480625,-1.463156223,-1.146486521,2024-06-05 18:43:49.033622
20.07409611,4.964055538,0.5895075798,-0.7501978874,2024-06-05 18:43:49.074096
20.1145759,4.178738594,1.827534199,0.2652692795,2024-06-05 18:43:49.114576
20.15506512,4.841460228,1.119039178,0.4043704867,2024-06-05 18:43:49.155065
20.19555746,5.244888306,1.716069221,-0.03850120306,2024-06-05 18:43:49.195557
20.23604074,4.053486824,1.053435802,0.01487442851,2024-06-05 18:43:49.236041
20.27652168,0.324467659,-0.3902583122,-0.2379665077,2024-06-05 18:43:49.276522
20.31700032,-1.590468407,-2.482195377,0.6930225492,2024-06-05 18:43:49.317000
20.35747189,0.6524868011,-1.013079643,0.005366295576,2024-06-05 18:43:49.357472
20.39796105,-1.956334591,-1.235586643,1.398281455,2024-06-05 18:43:49.397961
20.43845569,-2.448982239,-0.8937411308,0.3875468969,2024-06-05 18:43:49.438456
20.47893569,-1.928366184,-0.3723359108,0.3843881488,2024-06-05 18:43:49.478936
20.51941907,-2.833924294,-0.6261248589,0.1482868791,2024-06-05 18:43:49.519419
20.55991954,-2.005056381,-1.713829994,-0.1094344258,2024-06-05 18:43:49.559920
20.60039652,-1.201382637,0.09216594696,0.2300642133,2024-06-05 18:43:49.600397
20.64086314,-1.874380112,0.9641928673,1.102861762,2024-06-05 18:43:49.640863
20.68136553,-3.505582333,3.734856129,1.759909868,2024-06-05 18:43:49.681366
20.72187954,0.656671524,2.168351173,-0.04885101318,2024-06-05 18:43:49.721880
20.76237683,-1.065052986,-3.943638802,-1.153274298,2024-06-05 18:43:49.762377
20.8028523,-0.2915649414,2.463711739,0.5109119415,2024-06-05 18:43:49.802852
20.8433211,3.448499441,2.591723442,-1.892921686,2024-06-05 18:43:49.843321
20.88378897,4.096416473,2.205172539,0.4807929993,2024-06-05 18:43:49.883789
20.92430387,0.1499152184,-2.145501137,2.217568159,2024-06-05 18:43:49.924304
20.96481032,-8.761724472,-6.038107395,-0.6668251753,2024-06-05 18:43:49.964810
21.00529777,-3.133854389,3.404839039,-0.4663249254,2024-06-05 18:43:50.005298
21.04578225,-4.204805851,-6.629805565,-1.062153101,2024-06-05 18:43:50.045782
21.08623699,2.445636988,-1.226205826,0.1182542667,2024-06-05 18:43:50.086237
21.12670762,5.072646141,1.435961723,-0.5618236661,2024-06-05 18:43:50.126708
21.1671936,1.18718195,1.346099377,-0.1937596053,2024-06-05 18:43:50.167194
21.20770715,-1.478820801,0.6937417984,-0.2387741655,2024-06-05 18:43:50.207707
21.24817709,0.6520962715,-0.7383217812,-0.9858272672,2024-06-05 18:43:50.248177
21.28864756,-0.6807990074,-2.072811127,0.7248997688,2024-06-05 18:43:50.288648
21.32910558,-2.988668919,-1.781048775,-0.2685765624,2024-06-05 18:43:50.329106
21.36959058,-1.391886711,-1.205837727,-0.4214161336,2024-06-05 18:43:50.369591
21.41007548,-3.277720928,-1.886048794,-0.1224481463,2024-06-05 18:43:50.410075
21.45059282,0.02344989777,-1.938665867,0.2071836293,2024-06-05 18:43:50.450593
21.49109512,0.9935846329,-0.95707798,-0.3759702146,2024-06-05 18:43:50.491095
21.53156116,0.2599811554,-1.267613888,-2.113472462,2024-06-05 18:43:50.531561
21.57205183,-0.3440237045,-0.4103300571,-0.5527980328,2024-06-05 18:43:50.572052
21.61256959,1.315132618,-0.9671435356,-0.4589432478,2024-06-05 18:43:50.612570
21.65302986,6.169363022,-0.145421505,-0.1203346252,2024-06-05 18:43:50.653030
21.69353121,6.050537586,1.240829945,-0.3348821402,2024-06-05 18:43:50.693531
21.73401496,5.074434757,2.529770374,0.6973147392,2024-06-05 18:43:50.734015
21.77451355,3.991451263,2.189468861,0.3960924149,2024-06-05 18:43:50.774514
21.81498881,4.500944614,0.2316858768,0.4135354757,2024-06-05 18:43:50.814989
21.85546366,1.438389778,-1.258502007,0.5622495413,2024-06-05 18:43:50.855464
21.8959209,-0.4983024597,-2.446234226,1.185098886,2024-06-05 18:43:50.895921
21.93642881,-0.67557621,-0.4566345215,1.032251358,2024-06-05 18:43:50.936429
21.97691111,-1.9960742,-0.5325055122,1.042354822,2024-06-05 18:43:50.976911
22.01742449,-0.4515771866,-0.5088820457,0.3067008853,2024-06-05 18:43:51.017424
22.0578959,-2.32765007,-1.452511787,0.1843366921,2024-06-05 18:43:51.057896
22.09838168,-5.367362022,-2.295851707,0.1011863649,2024-06-05 18:43:51.098382
22.13881923,-5.155453682,-1.424422741,1.092042565,2024-06-05 18:43:51.138819
22.17932694,-1.272322655,1.086615562,1.69615221,2024-06-05 18:43:51.179327
22.21981256,-1.059304237,0.7044429779,1.035856366,2024-06-05 18:43:51.219813
22.260296,-0.2997636795,0.737862587,0.7608619928,2024-06-05 18:43:51.260296
22.30078782,-1.422083378,-0.6338701248,0.4134679735,2024-06-05 18:43:51.300788
22.3412784,-1.490697861,-1.547554493,0.1623243839,2024-06-05 18:43:51.341278
22.3817361,-2.419237137,-2.30000782,-0.4143975377,2024-06-05 18:43:51.381736
22.4222298,-0.03137111664,-1.299492836,-0.4673630297,2024-06-05 18:43:51.422230
22.46271491,-0.06730461121,0.3051710129,-0.9052049518,2024-06-05 18:43:51.462715
22.50322001,-0.8817844391,-0.7071299553,-0.5632334948,2024-06-05 18:43:51.503220
22.54371215,-2.103440285,-3.067162514,-2.957344294,2024-06-05 18:43:51.543712
22.5841959,-1.233769417,-2.371709347,1.574012756,2024-06-05 18:43:51.584196
22.62470256,4.015969753,0.6322813034,-1.794220924,2024-06-05 18:43:51.624703
22.66525876,1.517958641,-0.4987957478,-0.8341326118,2024-06-05 18:43:51.665259
22.70566236,4.686253071,-0.5250549316,-1.112529159,2024-06-05 18:43:51.705662
22.74618121,7.107508183,2.293300629,-0.09385597706,2024-06-05 18:43:51.746181
22.78664465,2.907146454,1.781872034,0.5978898406,2024-06-05 18:43:51.786645
22.82711704,3.123467922,0.3501822948,0.5515127182,2024-06-05 18:43:51.827117
22.86760058,2.381714821,0.9227805138,0.3441547155,2024-06-05 18:43:51.867601
22.90803522,3.747610092,-0.07663536072,-0.1206304729,2024-06-05 18:43:51.908035
22.94854084,2.813146114,-0.0908241272,-0.4729546309,2024-06-05 18:43:51.948541
22.98900918,0.6840677261,-0.1571178436,0.2889201939,2024-06-05 18:43:51.989009
23.02950939,-4.084931374,-1.33684063,0.1872707754,2024-06-05 18:43:52.029509
23.07001595,-3.721199036,-3.288747787,-0.8201482892,2024-06-05 18:43:52.070016
23.11050006,-2.913087368,-2.219247818,-0.6224245429,2024-06-05 18:43:52.110500
23.1509784,-3.801743031,-1.155490398,-0.8871836066,2024-06-05 18:43:52.150978
23.19148022,-1.250629902,1.682670116,1.159134507,2024-06-05 18:43:52.191480
23.23195762,-0.2486410141,2.397699356,0.9649193883,2024-06-05 18:43:52.231958
23.2724509,-4.061259747,-0.9953584671,0.1064939201,2024-06-05 18:43:52.272451
23.31293241,-2.902934551,-1.160250664,0.4727294445,2024-06-05 18:43:52.312932
23.35339642,-0.8428912163,-0.9650073051,0.2236149609,2024-06-05 18:43:52.353396
23.39387584,0.8951506615,-0.1696901321,0.4287009537,2024-06-05 18:43:52.393876
23.43440751,-0.9734740257,-0.08611011505,-0.5447151065,2024-06-05 18:43:52.434408
23.47490064,-2.117207527,-1.354179859,-0.7189964652,2024-06-05 18:43:52.474901
23.51536173,-2.649062157,-1.904301643,-0.8382457495,2024-06-05 18:43:52.515362
23.55586496,-2.510890007,-3.874316692,-1.189018011,2024-06-05 18:43:52.555865
23.59635428,1.373198509,-1.496774673,-0.228913784,2024-06-05 18:43:52.596354
23.63682913,2.587805748,-0.06021356583,-0.8269019723,2024-06-05 18:43:52.636829
23.67730673,0.7639217377,-0.8247392178,-1.355733633,2024-06-05 18:43:52.677307
23.71777569,1.399213791,-2.626894236,-0.7984844446,2024-06-05 18:43:52.717776
23.75825887,4.165104389,0.802315712,0.0638282299,2024-06-05 18:43:52.758259
23.79874652,4.818267822,1.380722761,-0.5924129486,2024-06-05 18:43:52.798747
23.83922262,6.027293205,2.320030451,-0.5327769518,2024-06-05 18:43:52.839223
23.87969866,6.792172909,3.002216816,-0.0234348774,2024-06-05 18:43:52.879699
23.92020621,1.106637478,1.780819416,0.4892896414,2024-06-05 18:43:52.920206
23.96069548,0.8883581161,-1.995564938,-0.3320250809,2024-06-05 18:43:52.960695
24.00119553,-0.7006959915,-2.029587746,-0.1261201203,2024-06-05 18:43:53.001196
24.04167491,-0.890610218,-1.43730402,0.5368865132,2024-06-05 18:43:53.041675
24.08214475,-1.461623192,-0.983455658,-0.5451868176,2024-06-05 18:43:53.082145
24.12262631,-0.1238737106,-1.232357025,0.3225794435,2024-06-05 18:43:53.122626
24.16313756,-2.104295254,-0.2957134247,-0.1239361912,2024-06-05 18:43:53.163138
24.20363605,-5.738471031,-1.30996418,0.236664921,2024-06-05 18:43:53.203636
24.24412288,-4.125115395,-0.7465906143,0.518632412,2024-06-05 18:43:53.244123
24.2845973,-2.756301403,-0.9999880791,0.8571638465,2024-06-05 18:43:53.284597
24.32508965,-2.935954094,-1.085276604,0.4267824888,2024-06-05 18:43:53.325090
24.3655273,0.3650193214,0.3759131432,0.952234149,2024-06-05 18:43:53.365527
24.40606142,1.223041058,-0.5759658813,-0.4165206254,2024-06-05 18:43:53.406061
24.44654256,0.8679351807,-0.4885263443,-0.3449985981,2024-06-05 18:43:53.446543
24.48700189,-1.91277504,-0.4209022522,-0.2023901343,2024-06-05 18:43:53.487002
24.52750116,-2.683382988,-0.7466211319,-1.554423332,2024-06-05 18:43:53.527501
24.567991,-2.225102901,-1.242789268,-1.457420707,2024-06-05 18:43:53.567991
24.60844074,-1.600002289,-2.514448166,-0.8059695959,2024-06-05 18:43:53.608441
24.64890959,0.04162216187,-2.751505852,-0.9200714231,2024-06-05 18:43:53.648910
24.68940829,1.067416668,-1.849997044,-0.9826745391,2024-06-05 18:43:53.689408
24.72991595,2.549091339,-0.3671550751,-2.122254848,2024-06-05 18:43:53.729916
24.77044642,4.526585579,1.258957028,-1.025236011,2024-06-05 18:43:53.770446
24.81089616,5.843504429,1.008995652,-1.092607498,2024-06-05 18:43:53.810896
24.85139162,4.695595741,1.211480379,0.2284588814,2024-06-05 18:43:53.851392
24.89183881,3.194561481,1.523726225,0.3213335276,2024-06-05 18:43:53.891839
24.93238449,4.378619194,1.284716725,0.4047879577,2024-06-05 18:43:53.932384
24.97282798,2.870753765,0.8487288952,0.4155591726,2024-06-05 18:43:53.972828
25.01332892,2.097438335,0.08573389053,0.1895236671,2024-06-05 18:43:54.013329
25.0538359,0.06515884399,-1.112778664,0.1658029854,2024-06-05 18:43:54.053836
25.09430418,-1.307597637,-1.243878841,-0.2888376415,2024-06-05 18:43:54.094304
25.13479032,-2.850224018,-2.327517986,-0.352236867,2024-06-05 18:43:54.134790
25.175261,-2.087562084,-3.16531086,-0.02528220415,2024-06-05 18:43:54.175261
25.21576689,-2.021064281,-0.8922381401,0.1787103564,2024-06-05 18:43:54.215767
25.25635032,-2.599276543,1.164857864,0.7849369049,2024-06-05 18:43:54.256350
25.29672475,-2.740296364,0.5322318077,1.12044096,2024-06-05 18:43:54.296725
25.33719751,-3.381305695,-1.440321922,0.2669172883,2024-06-05 18:43:54.337198
25.37766267,-2.816060066,-1.673239708,0.6581196785,2024-06-05 18:43:54.377663
25.41819621,-1.074345589,-1.199940205,0.2132899761,2024-06-05 18:43:54.418196
25.45864288,0.9988293648,-0.04269838333,0.2518826723,2024-06-05 18:43:54.458643
25.49912256,0.6328787804,1.342513561,0.6422271729,2024-06-05 18:43:54.499123
25.53960027,-1.497666359,1.333223343,-0.09377513826,2024-06-05 18:43:54.539600
25.58013032,-2.729506016,-0.6504554749,-0.3924981356,2024-06-05 18:43:54.580130
25.62061642,-3.432649612,-3.885606766,-1.066372395,2024-06-05 18:43:54.620616
25.66106225,-1.63821125,-3.847626686,-1.112410307,2024-06-05 18:43:54.661062
25.70157975,-0.5194072723,-1.578139782,-0.2028918862,2024-06-05 18:43:54.701580
25.74205433,1.608743668,-1.537303448,-0.8348586559,2024-06-05 18:43:54.742054
25.78255111,3.172500134,-0.5768749714,-2.766870499,2024-06-05 18:43:54.782551
25.82304303,3.923262596,1.336709976,-0.5143507719,2024-06-05 18:43:54.823043
25.86352491,4.335167885,0.6442801952,-0.8123500943,2024-06-05 18:43:54.863525
25.90399689,4.08145237,0.2929565907,-0.456692338,2024-06-05 18:43:54.903997
25.94452725,7.061106205,2.08100009,0.4009706974,2024-06-05 18:43:54.944527
25.98500491,3.727903843,2.28291893,-0.005731344223,2024-06-05 18:43:54.985005
26.02548501,-0.4791307449,-1.219813824,0.6929693222,2024-06-05 18:43:55.025485
26.06593652,0.5023722649,-1.69186306,0.2845881581,2024-06-05 18:43:55.065937
26.10643959,1.288937569,-0.65762043,-0.2136827409,2024-06-05 18:43:55.106440
26.14692548,0.1798586845,-0.6359143257,-0.2464720309,2024-06-05 18:43:55.146925
26.18743532,-1.029463768,-2.070891857,-0.8180511594,2024-06-05 18:43:55.187435
26.22787251,-3.262257099,-1.229264259,0.14393197,2024-06-05 18:43:55.227873
26.26838933,-5.081809998,-1.077517986,-0.6062924266,2024-06-05 18:43:55.268389
26.30889017,-1.771569252,-0.007337093353,0.31474334,2024-06-05 18:43:55.308890
26.34937605,-1.563673496,-1.319482803,0.8069829345,2024-06-05 18:43:55.349376
26.38981824,-3.454111099,-0.2164616585,0.7116242647,2024-06-05 18:43:55.389818
26.43032209,-1.942986965,0.4270563126,0.5196371078,2024-06-05 18:43:55.430322
26.47082782,0.5094156265,0.8487062454,1.05474937,2024-06-05 18:43:55.470828
26.51129215,1.207596302,-0.7152543068,-0.007074773312,2024-06-05 18:43:55.511292
26.55179157,-1.857929707,-0.4272294044,0.1723560691,2024-06-05 18:43:55.551792
26.59226501,-3.1229105,-0.0787563324,0.1654428989,2024-06-05 18:43:55.592265
26.63275595,-1.86629343,-1.860797882,-1.210290074,2024-06-05 18:43:55.632756
26.67323574,-0.6972794533,-3.258819103,-0.6641163826,2024-06-05 18:43:55.673236
26.71371996,-0.2916975021,-1.809511185,-0.6684173346,2024-06-05 18:43:55.713720
26.75423579,1.01213932,-0.5384287834,-0.09820729494,2024-06-05 18:43:55.754236
26.79471944,0.5957393646,-0.6449363232,-1.836880207,2024-06-05 18:43:55.794719
26.83518631,0.6790142059,-0.8400607109,-0.7246217132,2024-06-05 18:43:55.835186
26.87566986,3.992120743,-0.06777834892,-1.10139513,2024-06-05 18:43:55.875670
26.91613236,4.750718117,1.079287529,-0.7122597694,2024-06-05 18:43:55.916132
26.95662975,3.37948513,1.159247875,-0.36793226,2024-06-05 18:43:55.956630
26.99710475,4.184553146,2.065288067,-0.04562443495,2024-06-05 18:43:55.997105
27.03760178,4.755985737,1.831412792,0.265817821,2024-06-05 18:43:56.037602
27.0781034,4.744325638,1.106828213,-0.02195176482,2024-06-05 18:43:56.078103
27.11857621,1.790774822,-0.4403190613,0.2551996708,2024-06-05 18:43:56.118576
27.15903736,-1.276236534,-1.744282722,0.7366171479,2024-06-05 18:43:56.159037
27.19951116,-2.778785706,-2.246293068,-0.00390086323,2024-06-05 18:43:56.199511
27.23999954,-3.335174561,-2.929356575,0.002895519137,2024-06-05 18:43:56.240000
27.28051178,-1.39595747,-3.483540058,-0.3210220337,2024-06-05 18:43:56.280512
27.32100668,-2.410727978,0.205532074,0.6521484256,2024-06-05 18:43:56.321007
27.36144225,-1.865528107,0.05046129227,0.3496211171,2024-06-05 18:43:56.361442
27.40196288,-2.27746439,0.6308708191,0.4917273521,2024-06-05 18:43:56.401963
27.44245136,-3.378250122,0.4102444649,0.6806221604,2024-06-05 18:43:56.442451
27.48293334,-6.767464638,-1.416782379,0.8285425305,2024-06-05 18:43:56.482933
27.52342668,-1.987680912,0.2227816582,0.7671519518,2024-06-05 18:43:56.523427
27.56392371,1.193329811,-3.148180485,-0.4025979042,2024-06-05 18:43:56.563924
27.60441756,3.599789619,-0.9787459373,-0.5820721388,2024-06-05 18:43:56.604418
27.64492626,2.290409565,1.329916,0.8198314905,2024-06-05 18:43:56.644926
27.68540069,-3.592164993,1.475559235,-0.3592177927,2024-06-05 18:43:56.685401
27.72589277,-4.73248291,-1.787728786,-1.052208662,2024-06-05 18:43:56.725893
27.76637553,-2.266827583,-5.095365524,-1.427261233,2024-06-05 18:43:56.766376
27.8068435,1.793420792,-2.809564114,1.02729857,2024-06-05 18:43:56.806843
27.84731959,3.334232807,0.04994320869,-0.6387799978,2024-06-05 18:43:56.847320
27.88780402,0.8867692947,-0.5482654572,-0.6766353846,2024-06-05 18:43:56.887804
27.92827689,2.707010746,-0.7265982628,-0.7096204162,2024-06-05 18:43:56.928277
27.96876001,6.257816792,2.096449137,-0.288982451,2024-06-05 18:43:56.968760
28.00924824,3.449400902,1.219680071,-0.179949671,2024-06-05 18:43:57.009248
28.0497236,5.115207195,1.421910763,0.6243802309,2024-06-05 18:43:57.049724
28.09022319,6.03541708,2.499491215,0.6252284646,2024-06-05 18:43:57.090223
28.1307097,1.067891121,1.16515255,0.6228938103,2024-06-05 18:43:57.130710
28.17120262,0.2884864807,-2.057656765,0.3383854926,2024-06-05 18:43:57.171203
28.21169454,0.703335762,-1.972878456,0.1299545616,2024-06-05 18:43:57.211695
28.25217824,0.4455723763,-1.033814907,-0.02791079879,2024-06-05 18:43:57.252178
28.29265501,-0.7819271088,-1.91050005,0.662594378,2024-06-05 18:43:57.292655
28.33314824,-1.767704487,-1.411846638,1.431637049,2024-06-05 18:43:57.333148
28.37360095,-3.465301037,-0.6746883392,0.9816241264,2024-06-05 18:43:57.373601
28.41421975,-2.888605118,-0.5745811462,0.2635074258,2024-06-05 18:43:57.414220
28.45459881,-3.954830647,-3.602369308,-0.9057291746,2024-06-05 18:43:57.454599
28.49508996,-3.240672112,0.0116519928,0.2821460962,2024-06-05 18:43:57.495090
28.53559605,-1.695625305,-0.4623937607,1.124230146,2024-06-05 18:43:57.535596
28.57607308,-1.377736092,1.182061195,1.306689262,2024-06-05 18:43:57.576073
28.61652829,0.977073431,0.4095802307,0.1606512666,2024-06-05 18:43:57.616528
28.65704949,-0.4306545258,-2.675900459,-0.2005611658,2024-06-05 18:43:57.657049
28.69751506,2.057169437,3.477888107,0.3236338496,2024-06-05 18:43:57.697515
28.73798381,3.85827446,-1.047473907,0.07283127308,2024-06-05 18:43:57.737984
28.77846944,-0.4356999397,1.5392766,-0.1810162067,2024-06-05 18:43:57.778469
28.81894527,-1.028191805,0.2251749039,-0.2265200615,2024-06-05 18:43:57.818945
28.85943527,-3.054395437,0.478638649,-0.1982799768,2024-06-05 18:43:57.859435
28.89990183,0.1778261662,-0.7908668518,0.8853279948,2024-06-05 18:43:57.899902
28.9404084,-0.8819506168,0.204864502,0.8336133957,2024-06-05 18:43:57.940408
28.98095397,-0.06000590324,-1.773501396,0.3166127205,2024-06-05 18:43:57.980954
29.02139163,-0.1527760029,-1.739109039,0.09841454029,2024-06-05 18:43:58.021392
29.06189433,0.7892482281,1.784138203,1.127471209,2024-06-05 18:43:58.061894
29.10236996,3.094970703,0.4880962372,-0.03330183029,2024-06-05 18:43:58.102370
29.14284595,1.656514168,1.390488625,0.4753554463,2024-06-05 18:43:58.142846
29.18335084,0.3190267086,0.4272222519,0.8442133665,2024-06-05 18:43:58.183351
29.22382236,-2.221837759,-1.347125053,0.4065028429,2024-06-05 18:43:58.223822
29.26433881,-0.7544445992,0.04017829895,0.587975502,2024-06-05 18:43:58.264339
29.30480751,-1.513276815,-2.316164017,0.9745976925,2024-06-05 18:43:58.304808
29.34528074,-1.080164433,-0.5686788559,0.9315313101,2024-06-05 18:43:58.345281
29.38572741,0.8490335941,0.6280298233,1.090168238,2024-06-05 18:43:58.385727
29.42623006,0.9810469151,-1.455449104,0.4382369518,2024-06-05 18:43:58.426230
29.46674741,0.3748736382,-3.407741547,-0.0831400156,2024-06-05 18:43:58.466747
29.50727793,0.7799129486,-2.393069267,1.929105997,2024-06-05 18:43:58.507278
29.54769012,2.122173071,-1.3567276,1.345733047,2024-06-05 18:43:58.547690
29.58817064,2.081553459,2.203294754,1.399757504,2024-06-05 18:43:58.588171
29.62865694,-1.322730541,-3.794681549,0.7525702715,2024-06-05 18:43:58.628657
29.66912631,-5.064430714,-6.063815117,-0.5939984322,2024-06-05 18:43:58.669126
29.70963741,-0.955373764,-1.787602425,1.018707633,2024-06-05 18:43:58.709637
29.75012715,2.315655947,-3.701651573,0.6182712317,2024-06-05 18:43:58.750127
29.79059319,6.694551945,2.708735943,2.171639919,2024-06-05 18:43:58.790593
29.83107918,4.684390068,3.865623474,1.724157453,2024-06-05 18:43:58.831079
29.87159975,-0.9967989922,2.661098003,2.03499794,2024-06-05 18:43:58.871600
29.91207397,-1.382059097,4.098685265,-0.3175597787,2024-06-05 18:43:58.912074
29.9525384,-1.55173254,1.655480385,-0.9944686294,2024-06-05 18:43:58.952538
29.99307355,-3.550712585,1.079375744,-0.2802507877,2024-06-05 18:43:58.993074
30.03356824,-5.603749752,0.4132342339,1.88995254,2024-06-05 18:43:59.033568
30.07404522,-1.638210773,-2.313956261,-0.3588975668,2024-06-05 18:43:59.074045
30.11452475,6.121014595,-3.099509239,1.420726299,2024-06-05 18:43:59.114525
30.15503496,3.299713373,-3.652923107,-0.104026258,2024-06-05 18:43:59.155035
30.19552584,-1.051644802,-2.253454208,0.4192736149,2024-06-05 18:43:59.195526
30.23598465,-4.483730793,-1.410653114,-0.4550270438,2024-06-05 18:43:59.235985
30.27644871,-0.6428956985,-0.0607008934,-0.4604083598,2024-06-05 18:43:59.276449
30.31694611,0.4135437012,-0.1392116547,0.5525105,2024-06-05 18:43:59.316946
30.35742782,3.868246555,1.714389563,-0.1690915823,2024-06-05 18:43:59.357428
30.39792475,1.827319145,-0.1019763947,-1.715925574,2024-06-05 18:43:59.397925
30.43837965,-0.3720035553,-1.582776308,0.2478081584,2024-06-05 18:43:59.438380
30.47891683,-1.19179821,-0.7050492764,0.9394071102,2024-06-05 18:43:59.478917
30.51939084,4.491687298,0.8075351715,0.1622094214,2024-06-05 18:43:59.519391
30.55982626,4.622968197,-0.8846640587,0.1290967464,2024-06-05 18:43:59.559826
30.60036907,1.795227528,1.753839135,0.5944334269,2024-06-05 18:43:59.600369
30.64082949,5.663873672,2.675682783,0.691187799,2024-06-05 18:43:59.640829
30.68130246,5.494849205,2.373836517,0.01655002311,2024-06-05 18:43:59.681302
30.72178043,2.646956444,1.123102427,0.4269759059,2024-06-05 18:43:59.721780
30.76226933,1.052044868,-0.7058129311,1.208039522,2024-06-05 18:43:59.762269
30.80274199,0.3117303848,-1.388323307,1.186489224,2024-06-05 18:43:59.802742
30.84325683,-4.751705647,-1.663054466,1.267981648,2024-06-05 18:43:59.843257
30.88372095,-5.248355865,-2.227974892,0.447807014,2024-06-05 18:43:59.883721
30.92419079,-1.203985214,-1.545763016,0.2558871508,2024-06-05 18:43:59.924191
30.96468637,-0.6065745354,-0.3209314346,-0.01128101349,2024-06-05 18:43:59.964686
31.00516845,-3.243503571,0.5089073181,0.9948438406,2024-06-05 18:44:00.005168
31.04564173,-2.472317696,0.793451786,1.407230735,2024-06-05 18:44:00.045642
31.08615366,-2.117434502,-1.075818062,2.206463814,2024-06-05 18:44:00.086154
31.12663564,-1.546474457,-0.2786121368,2.004344463,2024-06-05 18:44:00.126636
31.16713683,0.1474947929,0.5424766541,2.339502573,2024-06-05 18:44:00.167137
31.20764303,-0.7649407387,-3.246997833,1.919771671,2024-06-05 18:44:00.207643
31.24806657,-0.7618956566,-1.221964359,1.803158522,2024-06-05 18:44:00.248067
31.28857314,-2.285850525,-1.420435429,1.276507616,2024-06-05 18:44:00.288573
31.32904314,-1.529421329,-1.044740677,1.271724105,2024-06-05 18:44:00.329043
31.36952532,-0.5640234947,-0.64087677,1.040616155,2024-06-05 18:44:00.369525
31.41001907,-0.1338133812,-1.2672019,1.26012671,2024-06-05 18:44:00.410019
31.45052189,-2.246510506,-3.339991093,-0.2170174122,2024-06-05 18:44:00.450522
31.49100329,-1.307955742,-4.020632744,0.871912837,2024-06-05 18:44:00.491003
31.53149012,0.8131446838,0.4416749477,0.9425240159,2024-06-05 18:44:00.531490
31.57199236,2.632980824,0.4016759396,-0.1442401409,2024-06-05 18:44:00.571992
31.61246668,3.735314846,-0.5451748371,1.124601245,2024-06-05 18:44:00.612467
31.65295834,4.188927174,1.077628016,1.070956588,2024-06-05 18:44:00.652958
31.69342975,5.251211643,1.461904526,1.256547809,2024-06-05 18:44:00.693430
31.73391637,5.504033089,1.839710832,1.270337343,2024-06-05 18:44:00.733916
31.77442553,4.146532059,1.490682364,1.456982613,2024-06-05 18:44:00.774426
31.81491314,0.8110222816,0.08889389038,1.554237962,2024-06-05 18:44:00.814913
31.8553772,-0.04660129547,-1.342437744,1.569951892,2024-06-05 18:44:00.855377
31.89585886,1.430122375,-0.5895633698,1.361536026,2024-06-05 18:44:00.895859
31.93636027,-0.4016537666,-0.7481813431,1.392410755,2024-06-05 18:44:00.936360
31.97684215,-2.049804211,-2.055779934,0.2450232506,2024-06-05 18:44:00.976842
32.01732043,-3.542766094,-3.186315536,0.8862934709,2024-06-05 18:44:01.017320
32.05780517,-2.702525616,-0.5252485275,1.505140781,2024-06-05 18:44:01.057805
32.0982823,-3.924998283,0.1751508713,0.7416037321,2024-06-05 18:44:01.098282
32.13877626,-2.857860088,-3.366502285,2.053032637,2024-06-05 18:44:01.138776
32.1792561,-3.104290962,-0.3286776543,2.290549517,2024-06-05 18:44:01.179256
32.21974277,0.1771473885,1.637006283,3.090906143,2024-06-05 18:44:01.219743
32.26027762,-0.1389818192,-1.267029285,2.476161718,2024-06-05 18:44:01.260278
32.30073939,-4.157398224,-4.071365833,2.357755184,2024-06-05 18:44:01.300739
32.34119548,-4.531824112,-5.633808136,0.9467253089,2024-06-05 18:44:01.341195
32.38167949,1.529488087,-0.5974154472,1.128422141,2024-06-05 18:44:01.381679
32.42217209,0.2597761154,-1.338400841,1.412152529,2024-06-05 18:44:01.422172
32.46266079,-4.711942673,-3.685159683,2.239794254,2024-06-05 18:44:01.462661
32.5031448,-1.025240898,-4.658439636,0.487344861,2024-06-05 18:44:01.503145
32.54364834,-0.260477066,-3.981962204,1.907758951,2024-06-05 18:44:01.543648
32.58411782,1.350289345,-4.304729939,0.6058573127,2024-06-05 18:44:01.584118
32.6245909,2.892513275,-0.1107478142,0.3638025522,2024-06-05 18:44:01.624591
32.66507709,4.872719765,1.180492043,0.6143147349,2024-06-05 18:44:01.665077
32.70555439,5.833638191,1.419397354,0.383805126,2024-06-05 18:44:01.705554
32.74603829,7.189850807,1.337543964,0.5414997339,2024-06-05 18:44:01.746038
32.78652225,5.067500114,0.8511760235,1.342171788,2024-06-05 18:44:01.786522
32.82701168,1.540271759,0.357735157,1.25219059,2024-06-05 18:44:01.827012
32.86748642,-0.5381212234,-1.499483347,2.110688686,2024-06-05 18:44:01.867486
32.90799022,-0.9280157089,-3.404817104,1.24288404,2024-06-05 18:44:01.907990
32.94848449,-0.3793621063,-1.599145412,0.8715637326,2024-06-05 18:44:01.948484
32.98898225,-0.9971342087,-1.264869213,1.057599783,2024-06-05 18:44:01.988982
33.02946043,-1.421989441,-0.6927881241,0.8167439699,2024-06-05 18:44:02.029460
33.06992548,-3.004477501,-0.01573038101,0.5958706141,2024-06-05 18:44:02.069925
33.11044866,-4.268035889,-1.583065987,0.3010562062,2024-06-05 18:44:02.110449
33.15090454,-3.50841713,-1.88627243,0.3658751249,2024-06-05 18:44:02.150905
33.1914186,-1.47795105,-1.200717926,0.7822066545,2024-06-05 18:44:02.191419
33.23187907,0.2905545235,-0.04417896271,0.3911922574,2024-06-05 18:44:02.231879
33.27237199,0.596244812,-0.7878217697,0.4322644472,2024-06-05 18:44:02.272372
33.31286413,0.8006997108,-0.1386156082,-0.4186514616,2024-06-05 18:44:02.312864
33.35334038,-0.6512818336,0.374771595,-1.048365831,2024-06-05 18:44:02.353340
33.39382564,-0.8821530342,-0.5355367661,-1.468590975,2024-06-05 18:44:02.393826
33.43431553,-0.4075455666,-2.069061279,-1.244873047,2024-06-05 18:44:02.434316
33.47477855,-2.330102921,-2.666498184,-1.512751341,2024-06-05 18:44:02.474779
33.51528897,-1.233678818,-2.158264637,-1.213401794,2024-06-05 18:44:02.515289
33.5557586,0.006183624268,-2.290898323,-1.631031752,2024-06-05 18:44:02.555759
33.5962335,1.517271996,-1.27450037,-2.261369228,2024-06-05 18:44:02.596233
33.63675303,3.22877264,-1.125215054,-1.88228631,2024-06-05 18:44:02.636753
33.67721168,4.193274975,0.1729922295,-1.893080831,2024-06-05 18:44:02.677212
33.71771767,3.288452148,0.0292339325,-1.373108149,2024-06-05 18:44:02.717718
33.75818642,4.858336449,0.4970964193,-0.8972693086,2024-06-05 18:44:02.758186
33.79866933,6.838282108,1.397227883,-0.288005352,2024-06-05 18:44:02.798669
33.83914965,5.034596443,1.668567181,0.1601094007,2024-06-05 18:44:02.839150
33.87962293,1.418309689,-0.2799522877,0.1836339235,2024-06-05 18:44:02.879623
33.92011928,-0.1281318665,-1.085415363,-0.2719169259,2024-06-05 18:44:02.920119
33.96066064,-0.7393760681,-0.8970413208,-0.3508514464,2024-06-05 18:44:02.960661
34.00110631,-0.07794570923,-0.07068872452,-1.179227114,2024-06-05 18:44:03.001106
34.04158772,-1.731128216,-1.069908142,-1.380556345,2024-06-05 18:44:03.041588
34.08207819,-2.539654255,-1.508375645,-1.784170389,2024-06-05 18:44:03.082078
34.12257183,-2.799951077,-0.632789135,-1.421508312,2024-06-05 18:44:03.122572
34.16306564,-2.035134792,-1.294616222,-0.9815058708,2024-06-05 18:44:03.163066
34.20353376,-1.885439396,-1.785409451,0.248359561,2024-06-05 18:44:03.203534
34.24403152,-1.353146553,-0.4346556664,0.1431404948,2024-06-05 18:44:03.244032
34.28452381,0.1282868385,-0.4422392845,-0.3682675064,2024-06-05 18:44:03.284524
34.32498386,1.441856384,-2.098851204,-0.7807179689,2024-06-05 18:44:03.324984
34.36550975,0.6210107803,-0.5520424843,-0.4451137781,2024-06-05 18:44:03.365510
34.40599074,-2.630095005,0.05613040924,-0.4195283055,2024-06-05 18:44:03.405991
34.44645683,-1.664523125,-0.9778580666,-0.6711858511,2024-06-05 18:44:03.446457
34.48692426,-2.156239033,-1.90824604,-1.341571093,2024-06-05 18:44:03.486924
34.52742645,-2.764012337,-2.357346535,-1.106016874,2024-06-05 18:44:03.527426
34.56791228,1.165513039,-1.932295322,-1.514699817,2024-06-05 18:44:03.567912
34.60839218,2.301756859,-2.415177584,-1.576177001,2024-06-05 18:44:03.608392
34.64890395,1.230358124,-1.945270777,-2.521089077,2024-06-05 18:44:03.648904
34.6893577,2.543399811,-0.9711272717,-1.137219548,2024-06-05 18:44:03.689358
34.72983389,5.346225739,-0.165803194,-0.3541837335,2024-06-05 18:44:03.729834
34.77032853,4.23500824,-0.05868303776,-0.290145874,2024-06-05 18:44:03.770329
34.81082915,4.288313866,0.5184781551,0.1271880269,2024-06-05 18:44:03.810829
34.85129952,3.506509781,0.928571701,0.5844343901,2024-06-05 18:44:03.851300
34.89176796,3.090082645,0.2097861767,0.4297868013,2024-06-05 18:44:03.891768
34.93225822,2.517217159,-0.02574467659,0.2602429986,2024-06-05 18:44:03.932258
34.97275681,0.571144104,-0.3433494568,0.3346863389,2024-06-05 18:44:03.972757
35.0132603,0.5635251999,0.06114006042,-0.3133456111,2024-06-05 18:44:04.013260
35.05375176,-0.7863941193,1.378456593,-1.294817209,2024-06-05 18:44:04.053752
35.09424858,-3.785133362,-4.054916382,-0.8399260044,2024-06-05 18:44:04.094249
35.13471233,-1.866091251,-2.392808437,-1.840554237,2024-06-05 18:44:04.134712
35.17518186,-2.514007568,-1.164076328,-2.024941683,2024-06-05 18:44:04.175182
35.21568238,-4.398901463,-1.845790386,0.6113741398,2024-06-05 18:44:04.215682
35.25614837,-1.834047318,-0.1525506973,-0.3733136058,2024-06-05 18:44:04.256148
35.29664389,0.1101651192,0.4212050438,-0.2360206544,2024-06-05 18:44:04.296644
35.33713009,-0.1587443352,0.07064199448,-0.6191284657,2024-06-05 18:44:04.337130
35.37762744,-0.4612350464,0.1189360619,-0.7320779562,2024-06-05 18:44:04.377627
35.41809895,-2.693514347,-1.365889072,-0.6257098913,2024-06-05 18:44:04.418099
35.45858249,-1.870008945,-1.587741852,-2.06335187,2024-06-05 18:44:04.458582
35.49906629,-1.191547871,-1.182643414,-1.357778668,2024-06-05 18:44:04.499066
35.53957035,-1.738809586,-2.080905914,-1.37020278,2024-06-05 18:44:04.539570
35.58005827,0.5618948936,-1.979986668,-0.4867714942,2024-06-05 18:44:04.580058
35.62054004,0.8331651688,-3.302463055,-1.137647033,2024-06-05 18:44:04.620540
35.66100275,1.188129902,-2.753266096,-1.392948747,2024-06-05 18:44:04.661003
35.70149447,3.73884964,-0.5507004261,-0.9033139944,2024-06-05 18:44:04.701494
35.74199171,2.445076466,-0.03262495995,-0.4238548279,2024-06-05 18:44:04.741992
35.78248634,3.958516121,-0.6650903225,-0.2790306211,2024-06-05 18:44:04.782486
35.82297004,5.941846848,1.048449039,-0.1529741883,2024-06-05 18:44:04.822970
35.86344488,6.761168957,2.048783302,0.2336659431,2024-06-05 18:44:04.863445
35.90394936,4.309774876,1.828477859,0.6360266209,2024-06-05 18:44:04.903949
35.94445441,2.096153259,-1.272480965,-0.03637740016,2024-06-05 18:44:04.944454
35.98492129,-0.8901376724,-2.403697968,0.4131435156,2024-06-05 18:44:04.984921
36.02539738,-0.2112531662,-1.640433311,-0.135633707,2024-06-05 18:44:05.025397
36.06586624,-0.1438803673,-1.561436653,-0.6088167429,2024-06-05 18:44:05.065866
36.10634759,-2.936153412,-1.390467644,0.1187024117,2024-06-05 18:44:05.106348
36.14684973,-1.818523407,0.3151583672,-0.1081119776,2024-06-05 18:44:05.146850
36.18733353,-3.433231831,-0.7300624847,-0.03749740124,2024-06-05 18:44:05.187334
36.22780353,-4.611131191,-1.885772228,-1.082741499,2024-06-05 18:44:05.227804
36.26826275,-0.7689366341,-0.7207298279,0.279481411,2024-06-05 18:44:05.268263
36.30877207,-0.7568483353,0.1364378929,0.4227167368,2024-06-05 18:44:05.308772
36.34925717,-0.3996119499,-0.9581708908,-0.01554378867,2024-06-05 18:44:05.349257
36.38975306,-0.8949775696,-0.7087087631,-0.3895007372,2024-06-05 18:44:05.389753
36.43023322,-1.739202976,-0.7367448807,0.2818260789,2024-06-05 18:44:05.430233
36.47074884,-2.809578896,-0.3796977997,-0.5076315403,2024-06-05 18:44:05.470749
36.5111966,-2.315019608,-0.5944032669,-0.5688236952,2024-06-05 18:44:05.511197
36.55167754,-1.992348671,-2.436004639,-2.389811516,2024-06-05 18:44:05.551678
36.5921754,-1.205547333,-4.138097763,-0.7992713451,2024-06-05 18:44:05.592175
36.63271483,2.547842979,-2.286205769,-0.4290934801,2024-06-05 18:44:05.632715
36.6731416,2.785531044,-1.57554698,-1.241357446,2024-06-05 18:44:05.673142
36.71361999,3.497970581,-0.8742070198,-1.278541446,2024-06-05 18:44:05.713620
36.75416629,0.4875679016,-1.686511278,-0.7647213936,2024-06-05 18:44:05.754166
36.79463384,2.774991035,-1.731403112,-0.3237801194,2024-06-05 18:44:05.794634
36.83513046,5.622046471,1.374164939,0.1246324182,2024-06-05 18:44:05.835130
36.87556785,7.388166428,2.489226341,0.7235649824,2024-06-05 18:44:05.875568
36.91606572,6.121273994,3.272959232,0.2974315286,2024-06-05 18:44:05.916066
36.95654764,3.807112694,2.494677544,0.1271664798,2024-06-05 18:44:05.956548
36.99703384,0.3723192215,0.4521753788,-0.09324520826,2024-06-05 18:44:05.997034
37.03749098,-4.041687012,-2.928866863,-0.1143544912,2024-06-05 18:44:06.037491
37.07797619,2.443600178,-1.310227394,-1.198824406,2024-06-05 18:44:06.077976
37.11846473,-1.658158779,0.5172023773,1.065284014,2024-06-05 18:44:06.118465
37.15895431,-3.228826046,-2.674792767,-0.7550519705,2024-06-05 18:44:06.158954
37.1994517,-1.40290308,-0.2222695351,-0.0822160244,2024-06-05 18:44:06.199452
37.23995301,-7.081190109,-2.676776409,-0.5468406677,2024-06-05 18:44:06.239953
37.28043577,-2.781256199,-2.988920689,0.0911873728,2024-06-05 18:44:06.280436
37.32095077,-1.309650421,-0.156124115,0.5087697506,2024-06-05 18:44:06.320951
37.36143957,-0.889093399,0.4579262733,-0.135555774,2024-06-05 18:44:06.361440
37.40186905,-0.8376221657,0.8353862762,0.07371579111,2024-06-05 18:44:06.401869
37.44238379,-0.340886116,0.03009605408,-0.5166625381,2024-06-05 18:44:06.442384
37.48289764,-1.994935513,-0.5196480751,-1.096375704,2024-06-05 18:44:06.482898
37.52334848,-1.601645947,-1.504940033,-1.387761354,2024-06-05 18:44:06.523348
37.56383197,-1.529623508,-4.075211525,-1.996405482,2024-06-05 18:44:06.563832
37.60432129,-0.9549179077,-2.352863312,-1.260792851,2024-06-05 18:44:06.604321
37.64477551,-0.1793031693,-1.823956966,-1.689983606,2024-06-05 18:44:06.644776
37.6852828,0.1043300629,-0.6344959736,-0.8373783827,2024-06-05 18:44:06.685283
37.72577889,2.551122665,-1.445466995,-1.242839813,2024-06-05 18:44:06.725779
37.76626499,5.028897285,-1.056612015,-0.5150822997,2024-06-05 18:44:06.766265
37.80674744,5.707326889,0.9412806034,-0.7821180224,2024-06-05 18:44:06.806747
37.84723822,6.584431648,0.883215189,-0.804941833,2024-06-05 18:44:06.847238
37.88769712,5.394275188,1.826194644,0.02721554041,2024-06-05 18:44:06.887697
37.92819842,2.759640694,1.686204672,0.531905055,2024-06-05 18:44:06.928198
37.96869082,3.406229973,0.163772583,0.2959219813,2024-06-05 18:44:06.968691
38.00918441,1.854375362,-0.7015762329,0.3818991482,2024-06-05 18:44:07.009184
38.04967056,0.1149706841,-1.092676163,0.127417773,2024-06-05 18:44:07.049671
38.09015004,-2.263015747,-2.324084282,-0.9752905369,2024-06-05 18:44:07.090150
38.1306442,-3.363272667,-2.362863541,-0.4453445077,2024-06-05 18:44:07.130644
38.17112119,-2.54886055,-0.8578138351,-0.5746234655,2024-06-05 18:44:07.171121
38.21159572,-2.827102661,-0.7618198395,-0.5263698101,2024-06-05 18:44:07.211596
38.2520928,-4.634178162,-1.246604919,0.07475946844,2024-06-05 18:44:07.252093
38.29259441,-2.804983616,0.06301879883,0.07068894804,2024-06-05 18:44:07.292594
38.33306952,-2.258935928,0.2218008041,-9.048730135e-05,2024-06-05 18:44:07.333070
38.37356144,-1.467529297,-0.9447975159,0.4257593155,2024-06-05 18:44:07.373561
38.41404061,-0.2653727531,-0.4327783585,-0.4197644591,2024-06-05 18:44:07.414041
38.45453608,0.3248238564,-0.4211931229,-1.042002082,2024-06-05 18:44:07.454536
38.49505077,-1.11006403,-1.706643105,-1.032904625,2024-06-05 18:44:07.495051
38.53549467,-2.560463905,-2.53450346,-1.299443364,2024-06-05 18:44:07.535495
38.57596504,-2.122169495,-1.903141022,-2.011779785,2024-06-05 18:44:07.575965
38.6164477,-1.402601242,-1.572360516,-0.3918176293,2024-06-05 18:44:07.616448
38.6569279,1.754801273,-2.584704399,-1.790678501,2024-06-05 18:44:07.656928
38.69741035,1.125443459,-1.209180832,-2.198210239,2024-06-05 18:44:07.697410
38.73791233,3.145299911,-0.5376102924,-0.6866223812,2024-06-05 18:44:07.737912
38.77838212,4.511547089,0.2079901695,-0.9993366003,2024-06-05 18:44:07.778382
38.81887332,5.842413425,1.354025364,-0.0631069541,2024-06-05 18:44:07.818873
38.85936348,7.099591255,1.915037394,0.05808854103,2024-06-05 18:44:07.859363
38.8998691,5.649296761,2.119663715,0.415779531,2024-06-05 18:44:07.899869
38.94036072,3.923038006,0.7211654186,0.3530168533,2024-06-05 18:44:07.940361
38.9808402,0.6408848763,-0.5839157104,0.3874720037,2024-06-05 18:44:07.980840
39.02131426,-0.4209470749,-1.395773888,0.1296245456,2024-06-05 18:44:08.021314
39.06181863,-1.327143192,-1.474432468,-0.5344286561,2024-06-05 18:44:08.061819
39.10228717,-3.051558495,-2.477573872,-0.8788331747,2024-06-05 18:44:08.102287
39.14277592,-2.362139225,-1.887377739,-0.3842241168,2024-06-05 18:44:08.142776
39.18326947,-3.313293457,-0.1303243637,-0.5041396618,2024-06-05 18:44:08.183269
39.22375254,-4.051271915,-0.9038162231,-0.02582588792,2024-06-05 18:44:08.223753
39.2642367,-3.286854267,-0.6883187294,0.5982426405,2024-06-05 18:44:08.264237
39.30471144,-3.38874054,-0.440764904,0.2508648634,2024-06-05 18:44:08.304711
39.34520967,-1.58828783,-1.112230778,0.3032529056,2024-06-05 18:44:08.345210
39.38567681,2.180433273,-0.07712602615,-0.03028996848,2024-06-05 18:44:08.385677
39.4261554,1.057248592,-0.02910089493,-0.02346254885,2024-06-05 18:44:08.426155
39.46666264,-2.501964092,-1.06539917,-1.406911969,2024-06-05 18:44:08.466663
39.5071379,-3.359035969,-1.577160835,-1.062295675,2024-06-05 18:44:08.507138
39.5476154,-2.071213722,-2.701525211,-0.8768615723,2024-06-05 18:44:08.547615
39.58808311,-0.9749794006,-3.618980885,-1.447038054,2024-06-05 18:44:08.588083
39.62860613,0.5444526672,-2.291435719,-1.681956887,2024-06-05 18:44:08.628606
39.66909473,2.386921406,-1.02402401,-1.148961067,2024-06-05 18:44:08.669095
39.70955483,3.781705379,-1.101638794,-1.270646095,2024-06-05 18:44:08.709555
39.75007311,4.410978317,0.1529583931,-0.4240170121,2024-06-05 18:44:08.750073
39.79054686,5.207720757,1.400652885,-0.7988269925,2024-06-05 18:44:08.790547
39.83104889,6.114550591,1.64000535,-0.1597250104,2024-06-05 18:44:08.831049
39.87147072,6.370653152,2.522471905,0.01592117548,2024-06-05 18:44:08.871471
39.91199691,3.54203701,1.336907387,-0.05762711167,2024-06-05 18:44:08.911997
39.95250327,0.388045311,-1.283854961,-0.2934855819,2024-06-05 18:44:08.952503
39.99298478,-0.6389379501,-1.754918575,-0.4747800529,2024-06-05 18:44:08.992985
40.0334402,-0.6821260452,-0.8279833794,-0.4487861991,2024-06-05 18:44:09.033440
40.0739404,-2.42402029,-1.680259705,-0.8012768626,2024-06-05 18:44:09.073940
40.11442639,-2.661464214,-1.540485382,-0.3227974176,2024-06-05 18:44:09.114426
40.15494973,-2.848577499,-0.3930921555,-0.9229959249,2024-06-05 18:44:09.154950
40.19540103,-3.536001682,-2.525826454,-0.1238292083,2024-06-05 18:44:09.195401
40.2359027,-3.686198711,-1.428317547,0.02543239295,2024-06-05 18:44:09.235903
40.27636452,-2.420074463,2.480838299,0.08196876943,2024-06-05 18:44:09.276365
40.31682967,-0.1110501289,0.9012479782,0.3473436236,2024-06-05 18:44:09.316830
40.35732994,-1.285797119,0.3373985291,-0.4266749918,2024-06-05 18:44:09.357330
40.39778348,-2.827985764,-1.349505424,-0.3231947124,2024-06-05 18:44:09.397783
40.43828827,-1.564027786,-3.14783144,-1.451247454,2024-06-05 18:44:09.438288
40.47877728,0.5623111725,-1.920336246,-1.192945719,2024-06-05 18:44:09.478777
40.51925165,-1.904089451,-0.9917163849,-1.020677686,2024-06-05 18:44:09.519252
40.55976941,1.392146111,-0.01140451431,0.685931623,2024-06-05 18:44:09.559769
40.60022895,3.107971191,-1.456936359,-4.122138977,2024-06-05 18:44:09.600229
40.64069999,-3.187579155,-1.048497915,0.421541959,2024-06-05 18:44:09.640700
40.68120504,0.5501928329,-3.644104004,-0.6477885842,2024-06-05 18:44:09.681205
40.72168598,4.67730999,0.8059301376,0.20556885,2024-06-05 18:44:09.721686
40.76222348,5.629811764,0.2407484055,0.3467118144,2024-06-05 18:44:09.762223
40.80266467,6.896981239,1.160982251,0.4066752791,2024-06-05 18:44:09.802665
40.84316264,7.239733696,2.306776762,0.2294228375,2024-06-05 18:44:09.843163
40.88362733,5.97807312,2.000729799,-0.2093113661,2024-06-05 18:44:09.883627
40.92412181,0.7222194672,-0.06105041504,-0.5156586766,2024-06-05 18:44:09.924122
40.96460707,-2.274563789,-2.071502209,0.00489705801,2024-06-05 18:44:09.964607
41.0051692,-4.506766796,-3.754224777,-0.8314771652,2024-06-05 18:44:10.005169
41.04565441,-3.756287098,-3.270737648,0.1330073476,2024-06-05 18:44:10.045654
41.08606113,-2.038498402,-1.278320312,-0.1953781247,2024-06-05 18:44:10.086061
41.12655405,-1.327927589,0.3454322815,-0.4519087076,2024-06-05 18:44:10.126554
41.16703072,-1.783952236,0.9689445496,0.766916275,2024-06-05 18:44:10.167031
41.20749816,-1.946596146,0.3501787186,0.4157598615,2024-06-05 18:44:10.207498
41.24799072,-2.230990887,-1.281382084,0.699552536,2024-06-05 18:44:10.247991
41.28847509,-1.789307594,-0.5772147179,-0.03614109755,2024-06-05 18:44:10.288475
41.32897207,-1.644489765,-1.251779079,0.0928503871,2024-06-05 18:44:10.328972
41.36947426,-2.225010395,-0.8637652397,0.4937338531,2024-06-05 18:44:10.369474
41.4099617,-0.9051165581,-0.6023826599,0.09859383106,2024-06-05 18:44:10.409962
41.45044681,-1.305157661,-1.494468689,-2.016452312,2024-06-05 18:44:10.450447
41.49092134,-3.289913177,-2.040811539,-0.2591844797,2024-06-05 18:44:10.490921
41.53141082,1.391821384,-2.473748684,-1.925277233,2024-06-05 18:44:10.531411
41.57190259,0.09466266632,-1.978700638,-0.3720411658,2024-06-05 18:44:10.571903
41.61235629,0.7526302338,-2.291845083,-0.6681449413,2024-06-05 18:44:10.612356
41.65287952,4.439026356,-0.0995926857,-0.5161377192,2024-06-05 18:44:10.652880
41.69334207,6.270512581,1.327072978,0.1164461225,2024-06-05 18:44:10.693342
41.73382389,6.894266129,0.9957149029,-0.09495519102,2024-06-05 18:44:10.733824
41.77431999,1.715974808,0.6505029202,-0.09777604789,2024-06-05 18:44:10.774320
41.81480217,6.221234322,1.114770412,0.281666249,2024-06-05 18:44:10.814802
41.85528124,3.550535202,1.529341698,1.467454791,2024-06-05 18:44:10.855281
41.89576384,0.9028940201,-0.138874054,0.5694102049,2024-06-05 18:44:10.895764
41.93624754,-2.939123154,-0.476954937,0.3594168425,2024-06-05 18:44:10.936248
41.9767153,-2.254590511,-3.832774162,-1.336009502,2024-06-05 18:44:10.976715
42.01721546,-3.580224037,-3.610795021,-1.02566576,2024-06-05 18:44:11.017215
42.0577327,0.2736430168,-1.461342335,-0.893404007,2024-06-05 18:44:11.057733
42.0982115,0.8096585274,2.158713818,-0.1859570742,2024-06-05 18:44:11.098211
42.13867952,-2.913652897,4.688436508,0.6158053875,2024-06-05 18:44:11.138680
42.17916967,-4.955509663,-3.183492661,-0.8191539645,2024-06-05 18:44:11.179170
42.21966806,-2.074444771,0.1875748634,1.379201174,2024-06-05 18:44:11.219668
42.26016551,-2.2577281,-4.982268333,-0.6677841544,2024-06-05 18:44:11.260166
42.30064764,-2.377150059,-2.33797121,-0.5165740848,2024-06-05 18:44:11.300648
42.34111264,-0.5584669113,-0.3784451485,-0.1145271957,2024-06-05 18:44:11.341113
42.38159004,-1.423921108,-0.1727275848,-0.271335721,2024-06-05 18:44:11.381590
42.4221491,-0.9125065804,0.7918848991,-0.6047581434,2024-06-05 18:44:11.422149
42.46261754,-2.27753067,-1.585148335,0.4364059567,2024-06-05 18:44:11.462618
42.50306915,-2.332817078,-5.152922153,-0.08007308841,2024-06-05 18:44:11.503069
42.54355223,2.308822632,-3.403940678,-0.1515499949,2024-06-05 18:44:11.543552
42.58406858,2.08566761,-1.447838783,-1.301789284,2024-06-05 18:44:11.584069
42.6245691,5.04996109,0.5199813843,-1.831694484,2024-06-05 18:44:11.624569
42.66501983,6.465531349,2.417281151,-0.3474155664,2024-06-05 18:44:11.665020
42.70550983,5.105065346,1.251093149,-0.4519540668,2024-06-05 18:44:11.705510
42.74598327,6.220973969,0.0155351162,-0.222399056,2024-06-05 18:44:11.745983
42.78645827,3.150271893,1.063482523,0.4116104543,2024-06-05 18:44:11.786458
42.82693072,-0.6574630737,2.520414829,0.7746373415,2024-06-05 18:44:11.826931
42.86738176,-0.329659462,0.8405566216,0.362909317,2024-06-05 18:44:11.867382
42.90786566,0.1307959557,-0.9720311165,0.332426548,2024-06-05 18:44:11.907866
42.94838186,-0.8191514015,-2.540051937,-0.6836310625,2024-06-05 18:44:11.948382
42.98885124,0.05322790146,-1.25526762,-0.3006236553,2024-06-05 18:44:11.988851
43.02935957,-2.699870586,-0.7827448845,0.3222781718,2024-06-05 18:44:12.029360
43.0698641,-1.274307728,-0.1442914009,0.6336739063,2024-06-05 18:44:12.069864
43.11033046,-2.776100636,-1.210941315,-0.598115623,2024-06-05 18:44:12.110330
43.1508153,-3.109749317,-0.8814444542,0.4194878638,2024-06-05 18:44:12.150815
43.19130551,-1.637259007,-0.6745605469,-0.06878132373,2024-06-05 18:44:12.191306
43.23177644,-1.997139454,0.1406292915,-0.08264949918,2024-06-05 18:44:12.231776
43.27228645,-1.526449203,-0.4033122063,-0.1828483343,2024-06-05 18:44:12.272286
43.31275249,-1.281821728,-0.5130991936,-0.07225008309,2024-06-05 18:44:12.312752
43.35323733,-2.099976063,-0.902431488,-1.532479763,2024-06-05 18:44:12.353237
43.39370212,-1.866225243,0.2308278084,-0.4422065616,2024-06-05 18:44:12.393702
43.43421134,-2.907093048,-2.895616531,-1.469289899,2024-06-05 18:44:12.434211
43.47471436,0.2793197632,-2.648794174,-1.331980824,2024-06-05 18:44:12.474714
43.51518645,1.379094601,-2.062697887,-0.1190313697,2024-06-05 18:44:12.515186
43.55570806,3.918115616,-2.077339649,-2.954352617,2024-06-05 18:44:12.555708
43.59616889,2.356516838,0.1479139328,-0.04812115431,2024-06-05 18:44:12.596169
43.63666035,2.385632515,0.583947897,-0.3350717127,2024-06-05 18:44:12.636660
43.67712212,4.439584255,0.3262314796,0.04461020231,2024-06-05 18:44:12.677122
43.71763285,6.224286079,1.893529773,-0.1036269665,2024-06-05 18:44:12.717633
43.75807754,5.994990826,1.837254047,0.3892884851,2024-06-05 18:44:12.758078
43.79857244,2.92369175,0.8518400192,0.5456731915,2024-06-05 18:44:12.798572
43.83904629,2.21192646,-0.7531261444,-0.2094634175,2024-06-05 18:44:12.839046
43.87953754,-0.5631847382,-0.7374582291,-0.3269363642,2024-06-05 18:44:12.879538
43.9200379,-0.6765236855,-1.00066328,-0.6344346404,2024-06-05 18:44:12.920038
43.96054009,-1.373746872,-0.9441628456,-0.3334252834,2024-06-05 18:44:12.960540
44.0010352,-2.715636253,0.03041505814,-0.1056560278,2024-06-05 18:44:13.001035
44.04149348,-3.917272091,-1.876232624,0.1734327525,2024-06-05 18:44:13.041493
44.08198233,-4.445769787,-3.961657524,-0.2977897525,2024-06-05 18:44:13.081982
44.12246379,-2.39860487,-1.786502361,0.4533977807,2024-06-05 18:44:13.122464
44.16294254,-0.7003774643,0.4420642853,0.8124037981,2024-06-05 18:44:13.162943
44.20342816,0.4384803772,0.4152112007,0.3792360425,2024-06-05 18:44:13.203428
44.24392853,-0.8485617638,-0.9158406258,0.2382358015,2024-06-05 18:44:13.243929
44.28445592,-1.741127968,0.09855031967,0.7567698956,2024-06-05 18:44:13.284456
44.3249453,-3.306093216,-0.8328881264,0.4141867757,2024-06-05 18:44:13.324945
44.36538436,-2.449447155,-2.161140442,-0.3128262758,2024-06-05 18:44:13.365384
44.40586988,-4.374377251,-2.527590275,-1.51219511,2024-06-05 18:44:13.405870
44.44635566,-0.6447439194,-2.182408333,-0.4341073334,2024-06-05 18:44:13.446356
44.48684577,3.117083549,-1.260350704,-1.94010973,2024-06-05 18:44:13.486846
44.52731363,2.859684944,-0.5913078785,-1.573854685,2024-06-05 18:44:13.527314
44.56779931,1.46837616,-0.4974968433,-0.59542346,2024-06-05 18:44:13.567799
44.60828494,3.087191105,-1.601266146,-0.9290837049,2024-06-05 18:44:13.608285
44.64875869,5.445595741,0.6461737156,-0.427067399,2024-06-05 18:44:13.648759
44.68926436,4.800205231,2.323310375,0.515959084,2024-06-05 18:44:13.689264
44.72975119,6.586146355,1.970307589,0.3895564079,2024-06-05 18:44:13.729751
44.77025259,4.429273605,1.468070745,0.05669155717,2024-06-05 18:44:13.770253
44.81071874,0.2867498398,-0.3919992447,0.3105730116,2024-06-05 18:44:13.810719
44.8511978,0.289973259,-1.891441345,0.6130843163,2024-06-05 18:44:13.851198
44.891679,-0.3101005554,-0.6423530579,0.1924182177,2024-06-05 18:44:13.891679
44.93217733,-1.857411385,-0.9077606201,0.003048449755,2024-06-05 18:44:13.932177
44.97265457,-0.01972866058,-0.2219963074,-0.2564777434,2024-06-05 18:44:13.972655
45.01315296,-2.248017311,0.1524686813,-0.6572318077,2024-06-05 18:44:14.013153
45.05365103,-4.635323048,-0.5978717804,-0.6586595774,2024-06-05 18:44:14.053651
45.09414473,-5.403281212,-1.060416698,0.6019370556,2024-06-05 18:44:14.094145
45.13464994,-3.418405533,-1.006151199,0.4441978633,2024-06-05 18:44:14.134650
45.17511572,-2.524334431,-0.05885028839,0.2157736719,2024-06-05 18:44:14.175116
45.21556582,1.301520348,1.195821762,-0.02494372427,2024-06-05 18:44:14.215566
45.25605744,3.156802654,-0.6963553429,-0.7156088352,2024-06-05 18:44:14.256057
45.29655483,-2.221989632,-0.7778263092,0.2772885263,2024-06-05 18:44:14.296555
45.33705947,-6.455064774,-0.9536800385,-1.914966822,2024-06-05 18:44:14.337059
45.37753665,-2.010642529,-1.912193298,-1.178842783,2024-06-05 18:44:14.377537
45.41802207,1.275243282,-2.886728764,-0.7416753769,2024-06-05 18:44:14.418022
45.45847301,-0.9529285431,-2.225619793,-0.2009579241,2024-06-05 18:44:14.458473
45.49895962,-0.725851059,-2.199414492,-3.740825415,2024-06-05 18:44:14.498960
45.53945259,0.8395614624,-0.4835410118,-1.384907722,2024-06-05 18:44:14.539453
45.57993254,-0.6729288101,-1.31223774,0.2165228128,2024-06-05 18:44:14.579933
45.62038035,4.89513588,-0.4392952919,-0.7729405165,2024-06-05 18:44:14.620380
45.66089613,7.592690468,1.660062909,0.5851370096,2024-06-05 18:44:14.660896
45.701389,8.027293205,2.070763588,0.8267912865,2024-06-05 18:44:14.701389
45.74186999,6.622543335,1.79796958,0.6044311523,2024-06-05 18:44:14.741870
45.78235462,4.203026295,1.299056768,0.3457608819,2024-06-05 18:44:14.782355
45.82285197,0.08416366577,0.3333828449,0.6929116249,2024-06-05 18:44:14.822852
45.86329707,0.3054366112,-1.091541767,0.3057283163,2024-06-05 18:44:14.863297
45.90379983,-3.515543938,-1.999828815,-0.3171457648,2024-06-05 18:44:14.903800
45.94432217,-4.907721519,-3.020592213,-0.9733952284,2024-06-05 18:44:14.944322
45.98481467,-1.597700596,-0.9141345024,-0.4187212884,2024-06-05 18:44:14.984815
46.0252965,-2.80318737,0.8404750824,-0.4959961474,2024-06-05 18:44:15.025297
46.06577723,-1.28053236,0.4543581009,0.1048845351,2024-06-05 18:44:15.065777
46.10624728,-2.219486237,1.418552399,1.21270442,2024-06-05 18:44:15.106247
46.14672207,-5.437064171,-2.021931171,0.4812735021,2024-06-05 18:44:15.146722
46.18721697,-1.662243843,-1.321953773,-0.0994464159,2024-06-05 18:44:15.187217
46.22770853,0.2946734428,-2.367477417,0.792050004,2024-06-05 18:44:15.227709
46.26819441,-0.03823184967,-0.6967635155,-0.3898943663,2024-06-05 18:44:15.268194
46.3086378,-0.337521553,1.257779598,0.4212419689,2024-06-05 18:44:15.308638
46.34915999,-1.847511292,1.225699902,0.1929296553,2024-06-05 18:44:15.349160
46.38962665,-0.5089583397,-1.764937401,-0.7819945812,2024-06-05 18:44:15.389627
46.43017337,-1.959007263,-5.894025803,-0.2921223938,2024-06-05 18:44:15.430173
46.47062577,-0.6860361099,-1.555254936,-0.4688095152,2024-06-05 18:44:15.470626
46.51110686,0.7799520493,-1.121252537,-0.7373439074,2024-06-05 18:44:15.511107
46.55160144,1.806874752,-0.7300570011,-1.508954048,2024-06-05 18:44:15.551601
46.59206759,2.979868889,-0.2391076088,-0.6743860245,2024-06-05 18:44:15.592068
46.63254811,5.411307812,2.005691051,0.7277585268,2024-06-05 18:44:15.632548
46.67302379,8.050335884,0.8907763958,0.3812367916,2024-06-05 18:44:15.673024
46.71357629,8.664067268,2.05029273,0.5529446006,2024-06-05 18:44:15.713576
46.75400441,-1.449507713,2.828137398,1.784906626,2024-06-05 18:44:15.754004
46.79451051,-0.01626968384,-1.263203144,0.5703129768,2024-06-05 18:44:15.794511
46.83502124,1.417492867,-1.968770981,0.2597998083,2024-06-05 18:44:15.835021
46.87545744,0.05186319351,-1.187436581,0.3867781162,2024-06-05 18:44:15.875457
46.91596129,-1.216240406,-1.585754395,-0.2772583365,2024-06-05 18:44:15.915961
46.95643337,-1.432107925,-1.123244762,-0.02870559692,2024-06-05 18:44:15.956433
46.996919,-3.372193813,0.1103057861,-0.05622076988,2024-06-05 18:44:15.996919
47.03740608,-4.023173809,-1.008646965,-0.2986828685,2024-06-05 18:44:16.037406
47.07786895,-4.947798252,-1.88928318,0.4544580579,2024-06-05 18:44:16.077869
47.1183542,-4.524355888,-0.6892790794,0.5728628635,2024-06-05 18:44:16.118354
47.15883962,-2.856354237,0.1424002647,0.2735414505,2024-06-05 18:44:16.158840
47.19934514,1.57004261,-0.2265491486,0.1760300994,2024-06-05 18:44:16.199345
47.2398517,2.302461624,-0.8255558014,0.207554996,2024-06-05 18:44:16.239852
47.28036462,-1.719610691,-0.3320131302,-1.393280864,2024-06-05 18:44:16.280365
47.32081363,-2.41910553,-0.1881279945,-0.5358662009,2024-06-05 18:44:16.320814
47.36132827,-2.668223381,-1.480041504,-1.297953844,2024-06-05 18:44:16.361328
47.40176785,-1.01534462,-3.026488781,-0.5091157556,2024-06-05 18:44:16.401768
47.44228363,-0.4022941589,-2.267455578,0.04260759801,2024-06-05 18:44:16.442284
47.48277009,1.04074955,-2.010420322,-3.645688057,2024-06-05 18:44:16.482770
47.52325561,1.934491158,-0.7614123821,-1.027189255,2024-06-05 18:44:16.523256
47.56376566,2.562527657,0.2919380665,-0.5433080792,2024-06-05 18:44:16.563766
47.60423509,2.363098145,-1.229048014,-0.361844033,2024-06-05 18:44:16.604235
47.64469967,8.367490768,1.654382229,0.7519748211,2024-06-05 18:44:16.644700
47.68520311,10.18186378,2.792743683,0.2968419194,2024-06-05 18:44:16.685203
47.72568228,3.802313328,1.658454418,0.5787498951,2024-06-05 18:44:16.725682
47.76613363,-0.9368495941,0.1023275852,0.4891616702,2024-06-05 18:44:16.766134
47.80662405,-1.290596962,-0.6906723976,0.4793053567,2024-06-05 18:44:16.806624
47.84712358,0.9554724693,0.4938483238,0.05449107289,2024-06-05 18:44:16.847124
47.88759056,1.877808094,-1.13223362,-1.31583333,2024-06-05 18:44:16.887591
47.92808134,-2.673637867,-3.004082203,0.4233489335,2024-06-05 18:44:16.928081
47.9685379,-5.947844505,-0.3154973984,-1.009561539,2024-06-05 18:44:16.968538
48.00906098,-2.507277489,0.1072683334,-0.5153167844,2024-06-05 18:44:17.009061
48.04956962,-3.530815125,-3.315518856,-0.1445907354,2024-06-05 18:44:17.049570
48.09005259,-3.642757893,-0.3322377205,0.3311193287,2024-06-05 18:44:17.090053
48.13054603,-1.445887566,2.998873711,1.519381881,2024-06-05 18:44:17.130546
48.17098327,-0.7779159546,-1.566406727,0.8038976789,2024-06-05 18:44:17.170983
48.21147618,1.024216652,0.1452207565,-0.4543011785,2024-06-05 18:44:17.211476
48.25196181,-0.06461334229,-2.029799938,0.08019576967,2024-06-05 18:44:17.251962
48.2924703,-1.203493118,-2.691699028,-0.3364186883,2024-06-05 18:44:17.292470
48.33296342,-2.023535252,0.1132760048,-0.4638073742,2024-06-05 18:44:17.332963
48.37344004,-6.730935097,-0.8642568588,-0.101403147,2024-06-05 18:44:17.373440
48.41388249,-0.3307723999,-3.109215736,0.2323362082,2024-06-05 18:44:17.413882
48.4543929,1.976091862,-4.05482769,-1.416446567,2024-06-05 18:44:17.454393
48.49489957,1.702152252,-1.756367445,-1.018832326,2024-06-05 18:44:17.494900
48.53537707,3.808491707,-0.7963225842,-0.269313693,2024-06-05 18:44:17.535377
48.57585275,4.606598377,1.94387567,-0.2003808916,2024-06-05 18:44:17.575853
48.61632874,4.618960857,2.119448185,-0.5343728065,2024-06-05 18:44:17.616329
48.65683275,7.069621086,2.158094883,0.2464811504,2024-06-05 18:44:17.656833
48.69734374,5.152198792,2.155504704,0.4689307809,2024-06-05 18:44:17.697344
48.73782884,4.881586075,1.352335215,0.717718482,2024-06-05 18:44:17.737829
48.77831389,1.557992458,-0.1762580872,0.5437489748,2024-06-05 18:44:17.778314
48.81877467,-3.613369942,-1.57296133,1.263922453,2024-06-05 18:44:17.818775
48.85924837,-0.6637153625,-1.010252953,-0.6382639408,2024-06-05 18:44:17.859248
48.89974988,-4.293552876,-2.951198101,0.03670269251,2024-06-05 18:44:17.899750
48.94025452,-1.442144394,-2.55105114,-0.3898740709,2024-06-05 18:44:17.940255
48.9807266,-0.5558757782,2.169185162,0.198158443,2024-06-05 18:44:17.980727
49.02122087,-7.391285419,-1.679236412,-0.1197241545,2024-06-05 18:44:18.021221
49.06169405,-5.915753365,-1.520432472,-0.1772421598,2024-06-05 18:44:18.061694
49.102169,-1.584982395,-1.413088799,1.036080599,2024-06-05 18:44:18.102169
49.14265457,0.6216759682,-0.04508447647,-0.2143587768,2024-06-05 18:44:18.142655
49.18314061,-0.2688837051,1.118306637,-0.02892193198,2024-06-05 18:44:18.183141
49.22367082,0.3745970726,-0.1252055168,-0.6691151857,2024-06-05 18:44:18.223671
49.26411754,1.948955536,-0.02963972092,-0.6417694092,2024-06-05 18:44:18.264118
49.30458244,-3.561168194,-1.359157085,-1.264137983,2024-06-05 18:44:18.304582
49.34506572,-5.318912506,-2.97717905,-1.224392176,2024-06-05 18:44:18.345066
49.38554754,-0.1501302719,-3.343902111,-0.4676897526,2024-06-05 18:44:18.385548
49.42603514,1.407306671,-2.638388157,-1.319835663,2024-06-05 18:44:18.426035
49.46651858,2.122656822,-0.4904677868,-1.172620296,2024-06-05 18:44:18.466519
49.50702947,2.204627037,0.3643112183,-0.9323911071,2024-06-05 18:44:18.507029
49.54752832,4.49633503,0.1724383831,0.03800411522,2024-06-05 18:44:18.547528
49.58796785,5.730405807,1.20496738,-0.2678755522,2024-06-05 18:44:18.587968
49.62845785,6.665629387,2.137049198,0.3997979164,2024-06-05 18:44:18.628458
49.66895832,4.918504715,1.911631346,0.5018362403,2024-06-05 18:44:18.668958
49.70942785,2.750009537,0.5293552876,0.4627117515,2024-06-05 18:44:18.709428
49.74994072,0.8598594666,-0.9425258636,0.4803341031,2024-06-05 18:44:18.749941
49.79040051,-0.5814123154,-1.322939396,0.3637722433,2024-06-05 18:44:18.790401
49.8308978,-1.432263851,-0.1753253937,-0.3903917074,2024-06-05 18:44:18.830898
49.87138577,-2.378179073,-1.027678013,-0.3658091128,2024-06-05 18:44:18.871386
49.91189212,-3.003489494,-0.6385703087,-0.8007549047,2024-06-05 18:44:18.911892
49.95237447,-4.454725266,-0.219291687,-0.6041489244,2024-06-05 18:44:18.952374
49.99284702,-4.727819443,-1.137064934,-0.4733420312,2024-06-05 18:44:18.992847
50.03331426,-4.058197498,-1.290582657,-0.2672556639,2024-06-05 18:44:19.033314
50.07382775,-1.008584023,0.3995614052,0.1916226149,2024-06-05 18:44:19.073828
50.11428889,1.135273933,-0.4098525047,0.2780650258,2024-06-05 18:44:19.114289
50.1547741,0.9317378998,-1.405414581,0.2594040632,2024-06-05 18:44:19.154774
50.19528004,-0.6829295158,-0.1099457741,0.3589493036,2024-06-05 18:44:19.195280
50.23576525,-3.027400494,-0.5034832954,-1.700680375,2024-06-05 18:44:19.235765
50.27622244,-1.882029057,-1.451847076,-1.630943775,2024-06-05 18:44:19.276222
50.31671077,-3.745463371,-2.660004139,-1.173979521,2024-06-05 18:44:19.316711
50.35719926,-1.073122978,-2.413415432,-0.477417767,2024-06-05 18:44:19.357199
50.39766014,2.339552879,-1.507163525,-1.493607402,2024-06-05 18:44:19.397660
50.4381453,0.9554080963,-0.6600108147,-1.368062496,2024-06-05 18:44:19.438145
50.47864592,2.030096054,-0.9922645092,-0.447480917,2024-06-05 18:44:19.478646
50.51913119,5.064689636,0.6418297291,-0.8037850857,2024-06-05 18:44:19.519131
50.55962665,8.430645943,1.262271643,-0.04114991426,2024-06-05 18:44:19.559627
50.6001467,8.355754852,1.749989152,0.5977327824,2024-06-05 18:44:19.600147
50.64059066,4.030547142,2.864292145,0.7642457485,2024-06-05 18:44:19.640591
50.68107999,2.126152515,0.6649079323,0.06055903435,2024-06-05 18:44:19.681080
50.72158691,-0.1787347794,-0.5946316719,0.699433744,2024-06-05 18:44:19.721587
50.76205848,-1.760777473,-1.225905895,-0.1350751221,2024-06-05 18:44:19.762058
50.8025679,-3.793519974,-1.45399189,1.006225348,2024-06-05 18:44:19.802568
50.8430415,-2.650352478,-1.469965935,-0.380854249,2024-06-05 18:44:19.843041
50.88349306,-3.93048954,-0.8619589806,0.02843421698,2024-06-05 18:44:19.883493
50.92407056,-3.39951086,-0.2367401123,-1.035101891,2024-06-05 18:44:19.924071
50.96453712,-2.990880013,0.5342130661,0.7164592147,2024-06-05 18:44:19.964537
51.00497238,-4.518139839,-0.3613352776,-0.05846214294,2024-06-05 18:44:20.004972
51.04549889,-1.385475636,0.4544472694,1.021449089,2024-06-05 18:44:20.045499
51.0859441,-1.971334457,-2.860467911,0.3379208148,2024-06-05 18:44:20.085944
51.12643499,0.2635445595,-2.541779041,-0.6675925851,2024-06-05 18:44:20.126435
51.16691436,0.05738067627,-0.1283912659,-0.006476402283,2024-06-05 18:44:20.166914
51.20747832,-1.146584034,-0.2458758354,-1.780916691,2024-06-05 18:44:20.207478
51.24796368,-1.43221283,-2.422341347,-0.1021174788,2024-06-05 18:44:20.247964
51.28833233,-0.910446167,-1.75829792,-0.6066104174,2024-06-05 18:44:20.288332
51.32883447,-0.4264659882,-1.065007687,-2.179522514,2024-06-05 18:44:20.328834
51.36931827,0.1022510529,-0.8138024807,-0.8581051826,2024-06-05 18:44:20.369318
51.40980723,2.245313644,-0.4878087044,0.7784496546,2024-06-05 18:44:20.409807
51.4502978,5.058830738,-0.3968777657,0.3675505519,2024-06-05 18:44:20.450298
51.49079259,8.966349602,0.9262433052,1.541773319,2024-06-05 18:44:20.490793
51.53130217,6.978838921,0.9244098663,0.6573814154,2024-06-05 18:44:20.531302
51.57180009,5.661719322,1.294285774,0.885226965,2024-06-05 18:44:20.571800
51.61224744,4.204473019,2.163481951,0.1342822313,2024-06-05 18:44:20.612247
51.65272436,-0.4097089767,1.119825363,0.3859214485,2024-06-05 18:44:20.652724
51.69321608,-2.335860252,-1.900560379,-0.09640288353,2024-06-05 18:44:20.693216
51.73371514,-3.597390652,-2.689754009,0.190510273,2024-06-05 18:44:20.733715
51.77423499,-6.255223751,-2.907551289,0.2754801512,2024-06-05 18:44:20.774235
51.8147227,-2.670474529,-3.072552681,0.5649173856,2024-06-05 18:44:20.814723
51.85517889,-3.518682957,-2.915899754,0.1108110547,2024-06-05 18:44:20.855179
51.89563785,-3.054999828,-0.02240991592,0.4359424114,2024-06-05 18:44:20.895638
51.93613259,-2.051104546,1.787361145,0.3993056417,2024-06-05 18:44:20.936133
51.97660238,-1.969491959,0.7512931824,0.7455279231,2024-06-05 18:44:20.976602
52.01709155,-1.448408127,0.008464813232,-1.271963716,2024-06-05 18:44:21.017092
52.05758379,1.021510124,-0.8936662674,-0.2486127019,2024-06-05 18:44:21.057584
52.09806905,-3.431892395,-3.630871296,-1.790017247,2024-06-05 18:44:21.098069
52.13854796,-1.611901283,-2.914993763,-1.219023943,2024-06-05 18:44:21.138548
52.17904858,-2.683740616,-2.632502079,-1.431378722,2024-06-05 18:44:21.179049
52.21954009,0.3705034256,-1.334214687,-0.04126212001,2024-06-05 18:44:21.219540
52.26003572,2.77393961,-1.955245733,-1.544298291,2024-06-05 18:44:21.260036
52.30049848,2.368562698,-1.306485415,-1.705789447,2024-06-05 18:44:21.300498
52.34098249,3.174209595,0.04531359673,-0.6556532979,2024-06-05 18:44:21.340982
52.38147457,6.327991962,0.3128292561,-0.8556481004,2024-06-05 18:44:21.381475
52.42193848,6.528907776,1.099541068,-0.573861599,2024-06-05 18:44:21.421938
52.46244384,5.37958765,2.38460207,0.6612334847,2024-06-05 18:44:21.462444
52.5029267,3.519351006,1.831431866,0.08999419212,2024-06-05 18:44:21.502927
52.54339947,2.660172462,-0.5965261459,-0.3080940247,2024-06-05 18:44:21.543399
52.58390895,1.486590385,-0.2067041397,-0.2974299192,2024-06-05 18:44:21.583909
52.62434327,-2.582867622,-2.319785118,-0.3170082569,2024-06-05 18:44:21.624343
52.66486676,-1.185671329,-2.077503681,-1.37076056,2024-06-05 18:44:21.664867
52.70536186,-1.436132908,-1.933535576,1.379827976,2024-06-05 18:44:21.705362
52.74583957,-3.959187031,-2.708295345,-0.3360881209,2024-06-05 18:44:21.745840
52.78633077,-4.774851322,-2.318601608,0.2494297922,2024-06-05 18:44:21.786331
52.82680624,-4.921441078,0.04915428162,0.5095235705,2024-06-05 18:44:21.826806
52.86725822,-2.987095356,-0.4624714851,-0.2409115136,2024-06-05 18:44:21.867258
52.90774691,0.5921235085,0.5860452652,0.452398479,2024-06-05 18:44:21.907747
52.94821884,2.691727877,2.303416252,-0.2786613107,2024-06-05 18:44:21.948219
52.98872619,-0.260840416,-0.07767868042,-0.752477169,2024-06-05 18:44:21.988726
53.02922119,-3.891866207,-2.69292593,-0.8123245239,2024-06-05 18:44:22.029221
53.06970629,-3.384114265,-3.056904793,-1.369580746,2024-06-05 18:44:22.069706
53.11021551,-0.7860679626,-3.629389763,-0.3833018243,2024-06-05 18:44:22.110216
53.15066848,-0.8426542282,-2.217103481,-0.4019266367,2024-06-05 18:44:22.150668
53.19117676,1.094561577,-2.543752909,0.02911938727,2024-06-05 18:44:22.191177
53.23168478,1.972227097,-0.9935824871,-2.152496099,2024-06-05 18:44:22.231685
53.27214129,5.897716522,1.00343287,0.1135728061,2024-06-05 18:44:22.272141
53.31262207,6.632932663,-0.6899333,-0.3200024962,2024-06-05 18:44:22.312622
53.35311634,0.9871644974,0.5362921953,0.4638850987,2024-06-05 18:44:22.353116
53.39360202,3.38544035,0.1325676441,0.005122929811,2024-06-05 18:44:22.393602
53.4340902,6.085783958,1.190011144,0.9986488819,2024-06-05 18:44:22.434090
53.47459426,8.196121216,1.42668581,0.1133142412,2024-06-05 18:44:22.474594
53.51506129,3.179032326,0.5943379402,-0.07836148143,2024-06-05 18:44:22.515061
53.55554702,-4.537528038,-2.202987671,0.941899538,2024-06-05 18:44:22.555547
53.59603832,-4.887433529,-4.240938187,-0.6291704178,2024-06-05 18:44:22.596038
53.63652394,-1.551468849,-2.470667839,-0.1904844642,2024-06-05 18:44:22.636524
53.67700572,-2.11758709,-1.490429878,-0.4735539258,2024-06-05 18:44:22.677006
53.71745384,-1.477410316,0.2696185112,-0.3990731835,2024-06-05 18:44:22.717454
53.757924,-3.82612896,2.677239418,0.1453016102,2024-06-05 18:44:22.757924
53.79841238,-3.570662498,1.506752968,0.5877703428,2024-06-05 18:44:22.798412
53.83894327,-2.984983444,-3.594430447,0.1773992181,2024-06-05 18:44:22.838943
53.87943165,-2.825172901,-1.68596077,-0.1532856375,2024-06-05 18:44:22.879432
53.91991363,2.184843063,0.4703617096,-0.8173311949,2024-06-05 18:44:22.919914
53.96040691,3.887339592,0.5983786583,-0.03221054375,2024-06-05 18:44:22.960407
54.00086801,-1.609972954,0.06222200394,-0.6948962808,2024-06-05 18:44:23.000868
54.04136431,-8.130504608,-0.6692652702,-1.831967831,2024-06-05 18:44:23.041364
54.08186342,-1.2191782,-3.528621674,-1.590114117,2024-06-05 18:44:23.081863
54.12233509,1.604207039,-3.086760044,-0.4953282475,2024-06-05 18:44:23.122335
54.16281962,-0.06670379639,-1.557404041,-0.4447200298,2024-06-05 18:44:23.162820
54.20331275,1.595149994,-1.451499462,-0.7987622023,2024-06-05 18:44:23.203313
54.24379129,3.316656113,-1.088488579,-1.298739552,2024-06-05 18:44:23.243791
54.28428447,3.23322916,-0.2173874378,-0.9384593964,2024-06-05 18:44:23.284284
54.32476462,4.883830547,0.2605731487,-0.08532047272,2024-06-05 18:44:23.324765
54.36521676,6.35701704,2.068811893,-0.2759068012,2024-06-05 18:44:23.365217
54.40570212,5.805736065,2.257231236,0.2337818444,2024-06-05 18:44:23.405702
54.44622999,4.199892998,1.341740251,1.003154874,2024-06-05 18:44:23.446230
54.48672285,2.412684917,-0.3117640018,0.506758213,2024-06-05 18:44:23.486723
54.52718556,-0.1451072693,-1.967583656,0.06280311942,2024-06-05 18:44:23.527186
54.56764358,-1.269846439,-2.667033195,-0.3893167078,2024-06-05 18:44:23.567644
54.6081129,-3.195298195,-2.158434868,-0.1443254948,2024-06-05 18:44:23.608113
54.64862926,-1.434930801,-1.814362526,-1.227222323,2024-06-05 18:44:23.648629
54.68913504,0.2292232513,-1.632026672,0.3866605461,2024-06-05 18:44:23.689135
54.72964634,-2.083071709,3.34858799,-0.05602315068,2024-06-05 18:44:23.729646
54.77009337,-4.141152859,0.1547427177,0.5737729073,2024-06-05 18:44:23.770093
54.81057962,-4.627458572,-1.013257504,0.1232144833,2024-06-05 18:44:23.810580
54.85106639,-4.391947269,-0.7484521866,0.2594403028,2024-06-05 18:44:23.851066
54.89154967,-1.308795929,-3.21414566,0.06902420521,2024-06-05 18:44:23.891550
54.93204186,2.881667614,1.861086369,0.5123956203,2024-06-05 18:44:23.932042
54.97255275,1.784579754,1.533705711,-0.2669184506,2024-06-05 18:44:23.972553
55.01303744,0.2087674141,-0.01258611679,-0.01701545715,2024-06-05 18:44:24.013037
55.05351113,-2.173251629,0.5055241585,-0.9141366482,2024-06-05 18:44:24.053511
55.09402384,-7.140858173,-2.85871315,-1.517793298,2024-06-05 18:44:24.094024
55.13449686,-0.6498398781,-2.748055458,-0.8897687793,2024-06-05 18:44:24.134497
55.17498644,1.030261993,-0.423842907,-0.6263822913,2024-06-05 18:44:24.174986
55.2154729,-1.570216179,-2.328125,-0.9889963269,2024-06-05 18:44:24.215473
55.25593905,2.111884594,-0.9327437878,-0.2953265011,2024-06-05 18:44:24.255939
55.29642014,4.948394775,-0.6409268379,-1.586055994,2024-06-05 18:44:24.296420
55.33690394,1.776814461,-0.1628324986,-1.479713678,2024-06-05 18:44:24.336904
55.37737098,3.067932129,1.058417797,0.1981767416,2024-06-05 18:44:24.377371
55.41782191,6.57748127,2.919636965,-0.1170938015,2024-06-05 18:44:24.417822
55.45831337,6.567090034,2.164212704,-0.5393489003,2024-06-05 18:44:24.458313
55.49880535,4.494745255,0.7628059387,0.4039584994,2024-06-05 18:44:24.498805
55.53930655,0.4051961899,0.484957695,0.5704349279,2024-06-05 18:44:24.539307
55.57984316,-0.6127309799,-1.317112446,0.8703716993,2024-06-05 18:44:24.579843
55.62027514,0.7135391235,-1.219937801,0.3346346915,2024-06-05 18:44:24.620275
55.66077301,-1.457916737,-1.04625845,0.1238837838,2024-06-05 18:44:24.660773
55.70127483,-2.1495924,-1.257111073,-1.342192173,2024-06-05 18:44:24.701275
55.74177738,-3.100213528,-1.531406879,0.03101372719,2024-06-05 18:44:24.741777
55.78224848,-3.038666248,-0.6677746773,-0.758035779,2024-06-05 18:44:24.782248
55.82274072,-4.239497185,-2.929340363,-0.481120944,2024-06-05 18:44:24.822741
55.86322744,-3.894302368,-0.8051671982,0.4844351709,2024-06-05 18:44:24.863227
55.90369796,-2.707805157,2.055693626,1.376817226,2024-06-05 18:44:24.903698
55.94418264,1.018715858,1.03345871,1.37956655,2024-06-05 18:44:24.944183
55.98465827,2.249654293,1.986150265,0.02658967674,2024-06-05 18:44:24.984658
56.0251378,-1.136884212,-2.68914032,-0.5137469769,2024-06-05 18:44:25.025138
56.0656166,-3.578866482,-1.124838352,-1.047587633,2024-06-05 18:44:25.065617
56.10609889,-0.4522018433,0.4392938614,-0.3483968079,2024-06-05 18:44:25.106099
56.14658645,-1.505836964,0.9042935371,-1.024458647,2024-06-05 18:44:25.146586
56.18708462,-1.447444439,0.1238155365,-0.04630788788,2024-06-05 18:44:25.187085
56.22755582,-3.722823143,-2.902458668,-1.615249395,2024-06-05 18:44:25.227556
56.26803233,0.3922433853,-4.389307976,-2.128026724,2024-06-05 18:44:25.268032
56.30850244,0.1944999695,0.06155228615,-1.656123877,2024-06-05 18:44:25.308502
56.34903004,3.128602505,-0.8083252907,-0.1608870775,2024-06-05 18:44:25.349030
56.38951525,6.735607147,1.936218381,-0.05908620358,2024-06-05 18:44:25.389515
56.42999827,5.414675236,2.461335421,0.2325972021,2024-06-05 18:44:25.429998
56.47047707,3.16767931,-0.4055600166,0.6740109921,2024-06-05 18:44:25.470477
56.51098134,2.597752571,0.5383467674,0.9513750672,2024-06-05 18:44:25.510981
56.55144754,3.73989439,1.261548519,1.067308187,2024-06-05 18:44:25.551448
56.59192962,3.772449493,0.893736124,0.7191508412,2024-06-05 18:44:25.591930
56.632389,1.980606079,-0.1714696884,0.128105998,2024-06-05 18:44:25.632389
56.67293301,0.08496904373,-1.203433037,-0.5921382904,2024-06-05 18:44:25.672933
56.71340645,-3.234565258,-2.274929047,-0.7344377041,2024-06-05 18:44:25.713406
56.7538927,-2.48400259,-1.11091423,-1.448529243,2024-06-05 18:44:25.753893
56.79445712,-1.153041363,0.2941470146,0.01675498486,2024-06-05 18:44:25.794457
56.834849,-2.815005302,-0.6996483803,-0.6862368584,2024-06-05 18:44:25.834849
56.87532202,-4.837777615,-1.753817558,0.3264327347,2024-06-05 18:44:25.875322
56.91581259,-3.534473896,0.05781745911,0.945276022,2024-06-05 18:44:25.915813
56.95628973,-3.152146339,-0.6751098633,0.6565064192,2024-06-05 18:44:25.956290
56.99677691,-2.499361992,1.002880573,1.330626726,2024-06-05 18:44:25.996777
57.03728994,-1.262240887,0.4796819687,0.8076441884,2024-06-05 18:44:26.037290
57.07777494,2.826276779,-0.7657766342,-0.3241289258,2024-06-05 18:44:26.077775
57.11825988,-1.616579533,-2.627428532,-0.2379437983,2024-06-05 18:44:26.118260
57.15874488,-6.173624039,-1.915311337,-1.323027372,2024-06-05 18:44:26.158745
57.19920634,-1.944935799,1.573741913,-1.070088148,2024-06-05 18:44:26.199206
57.23973051,1.410979271,-1.092541695,-0.1657209396,2024-06-05 18:44:26.239731
57.28020176,0.566488266,-2.09030056,-0.8948265314,2024-06-05 18:44:26.280202
57.32067285,-2.992512703,-1.255023479,-2.627606153,2024-06-05 18:44:26.320673
57.36117723,2.243500233,-1.84949398,-1.657847881,2024-06-05 18:44:26.361177
57.40161051,6.043451786,0.02354359627,-0.8166127205,2024-06-05 18:44:26.401611
57.44211181,5.969546318,2.95521307,0.262596637,2024-06-05 18:44:26.442112
57.48260707,5.464717865,2.854794025,0.8632467985,2024-06-05 18:44:26.482607
57.52315395,6.301829815,2.157032013,0.9449337721,2024-06-05 18:44:26.523154
57.5635767,2.625219345,0.8974022865,0.3781391084,2024-06-05 18:44:26.563577
57.60406764,0.7658071518,-1.409455776,0.2600360215,2024-06-05 18:44:26.604068
57.64453577,0.5936536789,-0.9586763382,-0.0788051784,2024-06-05 18:44:26.644536
57.68507358,0.6927242279,-0.590241909,-0.1153271794,2024-06-05 18:44:26.685074
57.72554092,1.756767273,0.6721496582,-0.01576456428,2024-06-05 18:44:26.725541
57.76599738,-2.364346027,0.09762620926,-0.7417134047,2024-06-05 18:44:26.765997
57.8065265,-7.111270905,-1.238638401,-0.8198164701,2024-06-05 18:44:26.806526
57.84697238,-4.268490791,-4.267928123,-0.6587916613,2024-06-05 18:44:26.846972
57.8874315,-2.263021469,-1.689905643,0.678041935,2024-06-05 18:44:26.887431
57.92791629,-4.756102085,-0.6901187897,0.854901433,2024-06-05 18:44:26.927916
57.96840108,-1.910477638,1.511890888,1.005350113,2024-06-05 18:44:26.968401
58.00890056,-0.7386169434,1.528970718,0.8893643618,2024-06-05 18:44:27.008901
58.04943452,-0.7703914642,-0.03722715378,-0.09535589814,2024-06-05 18:44:27.049435
58.08993905,-2.381361008,-1.583735943,-0.1218182147,2024-06-05 18:44:27.089939
58.13040363,-2.903790474,-0.7547225952,-1.051196814,2024-06-05 18:44:27.130404
58.17087931,-2.700397491,-2.473255634,-0.7859345078,2024-06-05 18:44:27.170879
58.21135233,-2.713477135,-4.192708015,-1.375165939,2024-06-05 18:44:27.211352
58.25185452,-0.8561992645,-1.427176476,-1.296395779,2024-06-05 18:44:27.251855
58.29234202,2.627493382,-0.5623502731,-0.8047458529,2024-06-05 18:44:27.292342
58.33280952,4.364981174,-0.1096689701,-1.603169322,2024-06-05 18:44:27.332810
58.37328452,3.155099392,1.430639386,-0.8544418812,2024-06-05 18:44:27.373285
58.41375525,5.174217701,0.3950030804,0.03020316362,2024-06-05 18:44:27.413755
58.45426144,6.428405762,1.078453541,0.588755846,2024-06-05 18:44:27.454261
58.49477848,4.374621391,1.101092577,0.4179638028,2024-06-05 18:44:27.494778
58.53525431,4.892569542,1.060093641,0.3240554929,2024-06-05 18:44:27.535254
58.57573212,2.208599091,1.347332001,0.554433763,2024-06-05 18:44:27.575732
58.61619374,2.124952793,-0.6740312576,-0.6416239142,2024-06-05 18:44:27.616194
58.65666384,-0.003619194031,-1.638282776,-0.5353096128,2024-06-05 18:44:27.656664
58.69716025,-5.296980858,-3.491582394,-0.7000228167,2024-06-05 18:44:27.697160
58.73763551,-3.862646103,-2.142575264,-0.4393846095,2024-06-05 18:44:27.737636
58.77811348,-2.158238411,-1.029818058,-0.04158592224,2024-06-05 18:44:27.778113
58.81861577,-6.222894192,-0.846224308,-0.049713552,2024-06-05 18:44:27.818616
58.85911358,-2.505186558,-1.158903122,0.4550201297,2024-06-05 18:44:27.859114
58.89958962,-3.589823246,2.211540699,0.6081641912,2024-06-05 18:44:27.899590
58.94007566,-2.233408928,1.089644909,0.1426729262,2024-06-05 18:44:27.940076
58.9805552,0.2602481842,-0.1283121109,0.4097620547,2024-06-05 18:44:27.980555
59.02105759,-2.883111954,-2.024452209,-0.488122493,2024-06-05 18:44:28.021058
59.06154389,-5.016997814,-5.845239162,-1.13684392,2024-06-05 18:44:28.061544
59.10203827,1.120462418,-1.504768372,-0.7274768949,2024-06-05 18:44:28.102038
59.14250848,-0.4961681366,0.9490156174,0.3606449962,2024-06-05 18:44:28.142508
59.1830065,2.537660599,-1.410888672,-0.5489642024,2024-06-05 18:44:28.183006
59.22349051,-1.598014832,-2.026090384,-1.462170839,2024-06-05 18:44:28.223491
59.26401895,-0.9354610443,-2.756857872,-1.282502413,2024-06-05 18:44:28.264019
59.30449733,8.740530968,-2.161371231,-1.192652702,2024-06-05 18:44:28.304497
59.34497629,6.661664963,6.485754013,0.8440085649,2024-06-05 18:44:28.344976
59.38546697,6.94194603,1.43312943,0.8905078769,2024-06-05 18:44:28.385467
59.42591816,6.067507744,2.384777546,0.980989933,2024-06-05 18:44:28.425918
59.46641978,4.22436285,0.4770283699,0.581251502,2024-06-05 18:44:28.466420
59.50688379,0.4112272263,-1.818902493,0.02740234137,2024-06-05 18:44:28.506884
59.54735072,-1.743409634,-2.806725025,-0.109634757,2024-06-05 18:44:28.547351
59.58782504,-1.524887562,-1.651487827,-0.5508541465,2024-06-05 18:44:28.587825
59.62830525,-1.567247391,-1.526920319,-0.2463730574,2024-06-05 18:44:28.628305
59.66881228,-4.080496311,-1.03108263,-0.05934590101,2024-06-05 18:44:28.668812
59.70931176,-5.66528511,-0.4403543472,-0.4330632091,2024-06-05 18:44:28.709312
59.7497991,-4.357887268,-0.6076717377,0.9687544107,2024-06-05 18:44:28.749799
59.79029077,-4.653536797,0.4883546829,1.125350714,2024-06-05 18:44:28.790291
59.83075733,-3.215878963,-0.4559011459,0.7323934436,2024-06-05 18:44:28.830757
59.87124561,-0.1988315582,0.01047182083,0.8519890308,2024-06-05 18:44:28.871246
59.91172301,-1.200030804,-0.08680438995,-0.7261814475,2024-06-05 18:44:28.911723
59.95221686,-3.398686886,-2.434796333,-0.5497075915,2024-06-05 18:44:28.952217
59.99269134,-2.423047543,-4.347221851,-1.245236874,2024-06-05 18:44:28.992691
60.03323613,-0.7149429321,-2.149251461,-0.4943744242,2024-06-05 18:44:29.033236
60.07368119,0.9253401756,-0.9991383553,-0.5513088703,2024-06-05 18:44:29.073681
60.1141553,3.363572598,-1.415872335,-2.149012327,2024-06-05 18:44:29.114155
60.15464061,2.577252865,-0.2606377602,-2.004430294,2024-06-05 18:44:29.154641
60.19514967,5.009118557,1.092143774,-0.7794253826,2024-06-05 18:44:29.195150
60.23561165,7.560343266,1.395650387,0.3833892345,2024-06-05 18:44:29.235612
60.2760828,7.096500397,1.675620079,0.819381237,2024-06-05 18:44:29.276083
60.31656822,6.72525835,1.696340799,0.7558144331,2024-06-05 18:44:29.316568
60.35709759,5.357081413,0.7403044701,0.3084977567,2024-06-05 18:44:29.357098
60.39758337,0.6986489296,-1.532779694,-0.1701872945,2024-06-05 18:44:29.397583
60.43800754,-3.873734951,-5.700107574,-0.7807471752,2024-06-05 18:44:29.438008
60.47851478,-8.61583519,-3.641194344,0.6258827448,2024-06-05 18:44:29.478515
60.51901103,-4.511201859,-0.1500101089,1.197664857,2024-06-05 18:44:29.519011
60.55948858,-0.3763494492,-1.956093788,0.08688032627,2024-06-05 18:44:29.559489
60.59997072,-2.664043427,-3.346316338,-1.114466906,2024-06-05 18:44:29.599971
60.64043556,-4.85844326,-0.3216791153,-0.367226243,2024-06-05 18:44:29.640436
60.68097285,-3.458355904,1.081165791,1.159095287,2024-06-05 18:44:29.680973
60.72143254,-0.3395376205,1.263959885,1.521127462,2024-06-05 18:44:29.721433
60.76192405,0.893992424,-0.394452095,0.10548985,2024-06-05 18:44:29.761924
60.80240087,2.359330416,1.944254875,-0.5310208797,2024-06-05 18:44:29.802401
60.84291645,1.879783392,0.6712207794,-0.03616464138,2024-06-05 18:44:29.842916
60.8833641,0.1705698967,1.757907867,-0.5838744044,2024-06-05 18:44:29.883364
60.92386806,-0.0510187149,0.1869926453,-0.8127645254,2024-06-05 18:44:29.923868
60.96437014,-0.9842989445,-0.7541980743,0.5529773235,2024-06-05 18:44:29.964370
61.00484983,-0.6659295559,-1.170038223,1.067927837,2024-06-05 18:44:30.004850
61.04535212,-1.612428188,-0.6957406998,0.899587512,2024-06-05 18:44:30.045352
61.08578301,0.4007971287,-2.304429054,1.318304539,2024-06-05 18:44:30.085783
61.12630598,0.6400828362,0.3018531799,0.2389239073,2024-06-05 18:44:30.126306
61.16674046,0.6180357933,0.3312120438,0.6655150652,2024-06-05 18:44:30.166740
61.20725077,0.1875708103,2.836366653,-0.05865722895,2024-06-05 18:44:30.207251
61.24772994,1.548462987,0.8223199844,-0.1319314241,2024-06-05 18:44:30.247730
61.28821431,0.3170950413,-0.7795372009,0.9508028626,2024-06-05 18:44:30.288214
61.32869066,-1.024272919,-1.96309948,0.8098275065,2024-06-05 18:44:30.328691
61.3691791,0.1525809765,-0.1451482773,0.4691585302,2024-06-05 18:44:30.369179
61.40967561,-0.4220442772,0.4397277832,0.185008347,2024-06-05 18:44:30.409676
61.45014994,-0.896074295,-1.548219681,0.6976822615,2024-06-05 18:44:30.450150
61.49066098,-0.9818873405,0.6023893356,-0.2937530577,2024-06-05 18:44:30.490661
61.53114467,0.003041505814,-0.1083469391,-0.3443394005,2024-06-05 18:44:30.531145
