Time (s),Acceleration x (m/s^2),Acceleration y (m/s^2),Acceleration z (m/s^2),Datetime
0.002148,-1.600322113,5.275329895,9.127569122,2024-06-04 18:07:03.002148
0.042451,-3.149600372,4.978946228,7.539072418,2024-06-04 18:07:03.042451
0.082755,-1.923500061,5.439987488,7.695347443,2024-06-04 18:07:03.082755
0.123059,-1.59598114,5.100343781,8.250842285,2024-06-04 18:07:03.123059
0.163362,-1.95403656,4.97520401,8.381969604,2024-06-04 18:07:03.163362
0.203666,-2.046993256,5.036426697,7.964188385,2024-06-04 18:07:03.203666
0.243969,-1.537003784,4.891228638,8.512498169,2024-06-04 18:07:03.243969
0.284273,-2.080074463,4.760400696,8.157137146,2024-06-04 18:07:03.284273
0.324577,-1.467099152,5.026547241,8.551267548,2024-06-04 18:07:03.324577
0.36488,-1.517843628,4.74124054,8.346343689,2024-06-04 18:07:03.364880
0.405184,-1.111289062,4.681664429,8.084538116,2024-06-04 18:07:03.405184
0.445487,-0.8906478882,4.671335907,8.485703888,2024-06-04 18:07:03.445487
0.485791,-0.6167175293,4.216282196,7.366331635,2024-06-04 18:07:03.485791
0.526095,0.6926097107,3.770509186,7.925568695,2024-06-04 18:07:03.526095
0.566398,1.074315948,3.807781677,6.968459015,2024-06-04 18:07:03.566398
0.606702,3.284619598,2.072140961,6.07511673,2024-06-04 18:07:03.606702
0.647005,2.963387604,1.156944122,4.352648621,2024-06-04 18:07:03.647005
0.687309,2.181264038,0.3173400879,3.759132843,2024-06-04 18:07:03.687309
0.727613,2.684367828,-1.490300903,5.964646454,2024-06-04 18:07:03.727613
0.767916,6.249504089,-0.3396437073,7.329657898,2024-06-04 18:07:03.767916
0.80822,9.719288635,1.123862915,8.165070648,2024-06-04 18:07:03.808220
0.848524,8.05130722,0.199385376,10.41279648,2024-06-04 18:07:03.848524
0.88882675,10.18092865,0.7593708801,7.14449295,2024-06-04 18:07:03.888827
0.92913075,14.63207245,2.6303302,7.699239349,2024-06-04 18:07:03.929131
0.96943475,12.21789276,-0.1851649475,4.667743378,2024-06-04 18:07:03.969435
1.00973775,14.82726654,-0.09684860229,1.884730682,2024-06-04 18:07:04.009738
1.05004175,8.083789673,-1.14077774,1.417552185,2024-06-04 18:07:04.050042
1.09034575,9.073232117,-3.853436737,1.948049011,2024-06-04 18:07:04.090346
1.13064875,7.000941467,-6.156098328,0.227227478,2024-06-04 18:07:04.130649
1.17095275,3.543730774,-7.873626709,2.053429871,2024-06-04 18:07:04.170953
1.21125675,8.654852142,-7.754324799,4.595593414,2024-06-04 18:07:04.211257
1.25155975,8.948990479,-7.026538239,4.884642334,2024-06-04 18:07:04.251560
1.29186375,5.920787659,-7.357050934,3.280428314,2024-06-04 18:07:04.291864
1.33216775,4.79737381,-9.369466095,0.09310638428,2024-06-04 18:07:04.332168
1.37247075,3.705993347,-12.09499832,6.499633942,2024-06-04 18:07:04.372471
1.41025675,3.054398346,-10.92383377,9.306297455,2024-06-04 18:07:04.410257
1.45056075,1.3549823,-12.17957245,4.893923035,2024-06-04 18:07:04.450561
1.49086475,8.844507751,-9.298214264,5.746699677,2024-06-04 18:07:04.490865
1.53116775,7.582033081,-9.962832184,1.825453949,2024-06-04 18:07:04.531168
1.57147175,5.554050293,-7.756121063,0.9795629883,2024-06-04 18:07:04.571472
1.61177575,6.477030945,-8.908724213,4.236490173,2024-06-04 18:07:04.611776
1.65207975,4.288132782,-9.551188202,1.139879608,2024-06-04 18:07:04.652080
1.69238275,1.356778564,-12.70917114,4.179608459,2024-06-04 18:07:04.692383
1.73268675,3.469485168,-9.646839294,6.747368774,2024-06-04 18:07:04.732687
1.77299075,5.987099762,-6.809190216,2.879112854,2024-06-04 18:07:04.772991
1.81329375,9.031319275,-4.630919952,2.401156769,2024-06-04 18:07:04.813294
1.85359775,7.496560822,-7.402406616,2.642754364,2024-06-04 18:07:04.853598
1.8939015,7.363188171,-7.880662079,7.202871552,2024-06-04 18:07:04.893901
1.9342045,5.78726532,-9.27531189,8.133186951,2024-06-04 18:07:04.934205
1.9745085,3.621269531,-9.130263519,4.816533966,2024-06-04 18:07:04.974508
2.0148125,-2.643502808,-6.334976349,0.7807763672,2024-06-04 18:07:05.014813
2.0551165,0.07634124756,-4.467010803,-1.41695343,2024-06-04 18:07:05.055117
2.0954195,1.833237762,-4.349954224,-0.9018745422,2024-06-04 18:07:05.095420
2.1357235,9.305099945,-13.097314,-2.110910339,2024-06-04 18:07:05.135724
2.1760275,19.51731354,-30.79965179,3.968996429,2024-06-04 18:07:05.176028
2.2163305,4.462969208,-6.498885498,0.623303833,2024-06-04 18:07:05.216331
2.2566345,1.954934692,-5.50285675,-0.3565585327,2024-06-04 18:07:05.256635
2.2969385,0.6442602539,-6.557413788,-0.5132826233,2024-06-04 18:07:05.296938
2.3372425,1.205592957,-5.434898071,-1.837728424,2024-06-04 18:07:05.337242
2.3775455,0.1529818726,-3.776945801,-2.625240784,2024-06-04 18:07:05.377546
2.4178495,3.427272949,-6.301895142,-3.770658875,2024-06-04 18:07:05.417850
2.4581535,4.056564331,-11.21737335,-8.827592926,2024-06-04 18:07:05.458153
2.4984575,7.889493713,-13.2020961,-6.974446564,2024-06-04 18:07:05.498458
2.5387605,5.153932343,-4.962480469,-5.126688995,2024-06-04 18:07:05.538760
2.5790645,-1.128353577,-13.8683606,-2.698588257,2024-06-04 18:07:05.579064
2.6193685,2.696043549,-10.54137909,-3.416794739,2024-06-04 18:07:05.619369
2.6596725,-2.039957886,-5.520220642,0.8912466431,2024-06-04 18:07:05.659673
2.6999755,7.050039368,-11.9957547,4.389921112,2024-06-04 18:07:05.699975
2.7402795,2.311792603,-9.199120331,3.682791595,2024-06-04 18:07:05.740280
2.7805835,-0.2472857666,-15.40746002,-2.567460938,2024-06-04 18:07:05.780584
2.8208875,4.150419159,-15.49697388,-0.592767334,2024-06-04 18:07:05.820888
2.8611905,1.567839661,-11.21198456,-0.5824388123,2024-06-04 18:07:05.861191
2.901495958,-4.309987335,0.2100132751,-1.138981476,2024-06-04 18:07:05.901496
2.941799958,4.24157959,-0.0853225708,0.1839674377,2024-06-04 18:07:05.941800
2.982103958,2.161804504,-2.61865448,0.3318598938,2024-06-04 18:07:05.982104
3.022406958,-3.919000397,-2.025587769,0.4776567078,2024-06-04 18:07:06.022407
3.062710958,7.711962891,-19.28574509,1.432071991,2024-06-04 18:07:06.062711
3.103014958,3.478466492,-17.1781279,1.326391754,2024-06-04 18:07:06.103015
3.143317958,-7.791746979,-15.50101547,-1.924697571,2024-06-04 18:07:06.143318
3.183621958,2.445913696,-14.85974899,0.6978488159,2024-06-04 18:07:06.183622
3.223925958,4.233646088,-11.85624481,0.7186555481,2024-06-04 18:07:06.223926
3.264229958,-4.286785583,-10.56188644,1.766326904,2024-06-04 18:07:06.264230
3.304532958,-1.262923737,-8.310418396,2.489024048,2024-06-04 18:07:06.304533
3.344836958,-6.415658569,-15.39892776,0.09235794067,2024-06-04 18:07:06.344837
3.385140958,-9.303453369,-11.5844101,1.644779663,2024-06-04 18:07:06.385141
3.425444958,-7.825127563,-8.548124084,2.435435486,2024-06-04 18:07:06.425445
3.465747958,-7.427404633,-5.168751526,0.4031117249,2024-06-04 18:07:06.465748
3.506051958,3.802093506,-6.754254456,-1.943408661,2024-06-04 18:07:06.506052
3.546355958,1.638193359,-4.437671814,-0.9494755554,2024-06-04 18:07:06.546356
3.586659958,0.6867718506,-6.383625183,-0.9633966064,2024-06-04 18:07:06.586660
3.626962958,-1.957479401,-6.798562317,-1.142124939,2024-06-04 18:07:06.626963
3.667266958,-2.604733429,-5.073998566,-2.967728577,2024-06-04 18:07:06.667267
3.707570958,0.01871109009,-10.56577835,-4.139342194,2024-06-04 18:07:06.707571
3.747874958,3.870501251,-12.45035934,0.3959266663,2024-06-04 18:07:06.747875
3.788177958,8.319250031,-17.30251923,2.393223267,2024-06-04 18:07:06.788178
3.828481958,4.029620361,-12.50065475,0.3297642517,2024-06-04 18:07:06.828482
3.868785958,-0.5255570984,-9.015302582,1.127754822,2024-06-04 18:07:06.868786
3.909089125,2.444566498,-9.657467194,1.558409271,2024-06-04 18:07:06.909089
3.949392125,2.745889893,-10.74750046,5.658832397,2024-06-04 18:07:06.949392
3.989696125,-6.204148407,-12.0276384,5.984255676,2024-06-04 18:07:06.989696
4.030000125,2.978356476,-4.851561127,2.806663513,2024-06-04 18:07:07.030000
4.070304125,0.9015751648,-5.827830963,-4.99047226,2024-06-04 18:07:07.070304
4.110607125,-0.5689668274,-5.299130402,3.180136871,2024-06-04 18:07:07.110607
4.150911125,-4.233945465,-10.2027832,7.259004822,2024-06-04 18:07:07.150911
4.191215125,5.69251236,-14.70646774,-8.341703339,2024-06-04 18:07:07.191215
4.231519125,-12.2120549,-4.62298645,1.184337158,2024-06-04 18:07:07.231519
4.271823125,-7.45105545,-9.168434143,1.082848206,2024-06-04 18:07:07.271823
4.312126125,-3.613934784,-3.802692261,2.701881409,2024-06-04 18:07:07.312126
4.352430125,-0.4372407532,-5.092410278,-8.729546814,2024-06-04 18:07:07.352430
4.392734125,-3.235521698,-12.72369095,5.024900665,2024-06-04 18:07:07.392734
4.433038125,-12.96992889,-31.12642227,15.60564789,2024-06-04 18:07:07.433038
4.473341125,-4.206702118,-11.86986649,-2.490820312,2024-06-04 18:07:07.473341
4.513645125,-1.160386963,-11.52318741,2.203867035,2024-06-04 18:07:07.513645
4.553949125,3.001857605,-7.972121887,1.123713226,2024-06-04 18:07:07.553949
4.594253125,0.8316705322,-13.61583572,0.9958790588,2024-06-04 18:07:07.594253
4.634557125,2.779120789,-14.62383957,3.643273773,2024-06-04 18:07:07.634557
4.674860125,2.553689575,-10.1138681,1.886526947,2024-06-04 18:07:07.674860
4.715164125,0.4581971741,-8.837322693,-0.01901046753,2024-06-04 18:07:07.715164
4.755468125,-1.942211151,-8.639583893,1.983225861,2024-06-04 18:07:07.755468
4.795772125,-0.2450404358,-7.450307007,1.812281342,2024-06-04 18:07:07.795772
4.836076125,2.066003723,-4.488715668,1.306782532,2024-06-04 18:07:07.836076
4.876378708,2.512674866,-2.796784058,1.941762085,2024-06-04 18:07:07.876379
4.916682708,0.4896318054,-3.176843719,3.774251404,2024-06-04 18:07:07.916683
4.956986708,0.06556365967,-6.968758392,5.425916748,2024-06-04 18:07:07.956987
4.997290708,0.09415420532,-12.29153961,11.17231705,2024-06-04 18:07:07.997291
5.037593708,-4.489015045,-14.30395477,12.62175293,2024-06-04 18:07:08.037594
5.077897708,1.272653503,-8.66682724,7.802973633,2024-06-04 18:07:08.077898
5.118201708,8.424930267,-16.35678589,3.363804932,2024-06-04 18:07:08.118202
5.158505708,3.265609131,-1.932780762,-1.101858673,2024-06-04 18:07:08.158506
5.198809708,1.593735809,-4.167333984,-1.714983673,2024-06-04 18:07:08.198810
5.239112708,1.424587555,-10.7204068,-3.396586761,2024-06-04 18:07:08.239113
5.279416708,-9.336833954,-17.25626541,4.619992676,2024-06-04 18:07:08.279417
5.319720708,-2.190245361,-8.280630341,3.417243805,2024-06-04 18:07:08.319721
5.360024708,0.1408570862,-8.507408752,1.342707825,2024-06-04 18:07:08.360025
5.400327708,-0.06960525513,-8.622220001,1.393302612,2024-06-04 18:07:08.400328
5.440631708,-0.45984375,-8.771160278,1.825004883,2024-06-04 18:07:08.440632
5.480935708,-0.7078779602,-8.896449738,1.175505524,2024-06-04 18:07:08.480936
5.521239708,-0.4355941772,-8.879684601,0.4489164734,2024-06-04 18:07:08.521240
5.561543708,0.2644999695,-9.461374969,2.778821411,2024-06-04 18:07:08.561544
5.601846708,-1.888772278,-10.99313965,0.5477110291,2024-06-04 18:07:08.601847
5.642150708,-4.864434357,-12.38389755,2.617307281,2024-06-04 18:07:08.642151
5.682454708,-3.875890045,-12.0780835,3.418740692,2024-06-04 18:07:08.682455
5.722758708,-3.690874786,-9.682614899,3.763773193,2024-06-04 18:07:08.722759
5.763062708,-3.261417847,-12.69659729,2.208657074,2024-06-04 18:07:08.763063
5.803365708,-1.554517365,-10.6805896,-2.755619659,2024-06-04 18:07:08.803366
5.843669708,3.513343964,-15.76386887,3.394341431,2024-06-04 18:07:08.843670
5.883973333,2.714455261,-13.19955139,2.517764282,2024-06-04 18:07:08.883973
5.924277333,-0.9500743103,-9.926757202,1.416354675,2024-06-04 18:07:08.924277
5.964581333,-1.401834869,-8.689879303,-0.7029382324,2024-06-04 18:07:08.964581
6.004884333,-2.988834686,-7.749684448,0.6523434448,2024-06-04 18:07:09.004884
6.045188333,0.6114784241,-4.87221817,0.6015989685,2024-06-04 18:07:09.045188
6.085492333,2.886447601,-3.277135162,1.458417206,2024-06-04 18:07:09.085492
6.125796333,1.335373077,-3.97004425,2.261048126,2024-06-04 18:07:09.125796
6.166100333,0.2902464294,-4.482428741,3.703448639,2024-06-04 18:07:09.166100
6.206403333,0.1290316772,-9.386231232,9.053024139,2024-06-04 18:07:09.206403
6.246707333,-8.580606537,-19.26643524,15.30237854,2024-06-04 18:07:09.246707
6.287011333,-1.629361725,-5.623206482,8.813671875,2024-06-04 18:07:09.287011
6.327315333,0.3381468201,-8.34035614,7.836803284,2024-06-04 18:07:09.327315
6.367619333,6.598278809,-15.75458817,0.4752616882,2024-06-04 18:07:09.367619
6.407923333,0.3791615295,-4.48377594,-4.20415741,2024-06-04 18:07:09.407923
6.448226333,0.980760498,-5.987249451,-1.813329163,2024-06-04 18:07:09.448226
6.488530333,1.539249115,-10.5332959,-3.916755066,2024-06-04 18:07:09.488530
6.528834333,-8.741072845,-16.06653946,6.678212585,2024-06-04 18:07:09.528834
6.569138333,-2.24772583,-9.038803711,1.813329163,2024-06-04 18:07:09.569138
6.609442333,1.673968964,-8.359665985,0.4683760071,2024-06-04 18:07:09.609442
6.649745333,0.2692900085,-9.176217957,1.246607666,2024-06-04 18:07:09.649745
6.690049333,-0.5780978394,-8.663683777,0.8021818542,2024-06-04 18:07:09.690049
6.730353333,-1.616787872,-9.219927063,0.4833448792,2024-06-04 18:07:09.730353
6.770657333,-2.063608704,-8.817114716,2.578537903,2024-06-04 18:07:09.770657
6.810961333,-2.77313324,-10.67235672,2.749332733,2024-06-04 18:07:09.810961
6.851265333,-3.176394653,-11.34655472,0.799637146,2024-06-04 18:07:09.851265
6.89156875,-1.992506561,-11.26033401,3.373834076,2024-06-04 18:07:09.891569
6.93187275,-2.462080078,-12.54735764,0.6896159363,2024-06-04 18:07:09.931873
6.97217675,-4.797224121,-14.11220352,1.919009399,2024-06-04 18:07:09.972177
7.01248075,0.5474116516,-9.435179443,0.3421884155,2024-06-04 18:07:10.012481
7.05278475,3.873195648,-15.19310577,1.505718842,2024-06-04 18:07:10.052785
7.09308875,3.612737274,-13.21122711,2.885699158,2024-06-04 18:07:10.093089
7.13339175,1.361418915,-9.016500092,0.5676196289,2024-06-04 18:07:10.133392
7.17369575,-1.845512238,-8.888516235,-1.379980316,2024-06-04 18:07:10.173696
7.21399975,-1.156495056,-6.8133815,1.486558685,2024-06-04 18:07:10.214000
7.25430375,0.7908055115,-5.03957016,2.177970886,2024-06-04 18:07:10.254304
7.29460775,1.970502319,-5.000052338,2.905458069,2024-06-04 18:07:10.294608
7.33491175,1.900148621,-4.838987274,2.707419891,2024-06-04 18:07:10.334912
7.37521575,0.3457809448,-5.842350769,3.388353882,2024-06-04 18:07:10.375216
7.41551875,-0.6598278809,-6.069428558,4.533173218,2024-06-04 18:07:10.415519
7.45582275,0.1576222229,-7.720794525,5.489085388,2024-06-04 18:07:10.455823
7.49612675,-2.526745605,-13.0760582,11.11872849,2024-06-04 18:07:10.496127
7.53643075,-0.4275109863,-11.60222305,10.88177124,2024-06-04 18:07:10.536431
7.57673475,1.87559967,-4.320315857,8.512947235,2024-06-04 18:07:10.576735
7.61703875,4.821024628,-16.96556992,7.466174011,2024-06-04 18:07:10.617039
7.65734275,5.21276001,-12.01506454,7.535779266,2024-06-04 18:07:10.657343
7.69764575,-6.095474396,-3.879781952,-0.8381071472,2024-06-04 18:07:10.697646
7.73794975,-3.671864319,-8.700656891,-5.188959503,2024-06-04 18:07:10.737950
7.77825375,0.6373745728,-15.57301575,-1.059496765,2024-06-04 18:07:10.778254
7.81855775,0.8997789001,-11.44624741,5.091362457,2024-06-04 18:07:10.818558
7.85886175,3.251388702,-8.272098083,2.050436096,2024-06-04 18:07:10.858862
7.899165958,0.5857319641,-8.053851929,1.578018494,2024-06-04 18:07:10.899166
7.939469958,-0.7367678833,-9.087003479,1.034648438,2024-06-04 18:07:10.939470
7.979773958,-1.426683197,-8.930429077,1.347198486,2024-06-04 18:07:10.979774
8.020076958,-1.987716522,-7.258256378,1.387464752,2024-06-04 18:07:11.020077
8.060380958,-1.197659454,-7.721692657,1.277293854,2024-06-04 18:07:11.060381
8.100684958,-1.548529816,-8.999435577,0.9979747009,2024-06-04 18:07:11.100685
8.140988958,-1.554068298,-8.984915771,-0.222437439,2024-06-04 18:07:11.140989
8.181292958,-0.8553213501,-10.40516235,3.781586151,2024-06-04 18:07:11.181293
8.221596958,0.06182144165,-11.76238998,3.88352417,2024-06-04 18:07:11.221597
8.261900958,-1.391805725,-11.64563278,5.221142578,2024-06-04 18:07:11.261901
8.302204958,-4.560266876,-13.15539322,2.828218689,2024-06-04 18:07:11.302205
8.342508958,-6.280789032,-11.92076065,-4.714895325,2024-06-04 18:07:11.342509
8.382812958,0.4707710266,-16.88458832,2.519710236,2024-06-04 18:07:11.382813
8.423116958,-0.639919281,-12.96424072,3.658092957,2024-06-04 18:07:11.423117
8.463419958,-3.008743286,-7.667804718,-0.02350112915,2024-06-04 18:07:11.463420
8.503723958,-4.288132782,-9.712402954,2.59994339,2024-06-04 18:07:11.503724
8.544027958,-2.973716125,-10.73777069,0.4676275635,2024-06-04 18:07:11.544028
8.584331958,1.794019318,-6.546486511,1.346599731,2024-06-04 18:07:11.584332
8.624635958,2.654729462,-4.060755615,3.236868896,2024-06-04 18:07:11.624636
8.664939958,1.183738403,-5.419330444,3.518882446,2024-06-04 18:07:11.664940
8.705243958,0.4614903259,-2.95919632,3.907923431,2024-06-04 18:07:11.705244
8.745547958,-1.53984787,-4.465962982,4.291425934,2024-06-04 18:07:11.745548
8.785851958,-2.906805267,-6.717281342,7.291786652,2024-06-04 18:07:11.785852
8.826155958,-3.400927734,-9.442663879,10.46728317,2024-06-04 18:07:11.826156
8.866459958,-1.294208679,-8.509055328,10.31849258,2024-06-04 18:07:11.866460
8.906763708,5.900429993,-15.44533127,8.080795898,2024-06-04 18:07:11.906764
8.947067708,-2.071841583,-17.57165955,7.884553986,2024-06-04 18:07:11.947068
8.987371708,2.574496307,2.239942017,-3.490291901,2024-06-04 18:07:11.987372
9.027674708,-0.5507048035,-7.392227783,-4.519102478,2024-06-04 18:07:12.027675
9.067978708,-3.112627258,-17.51373001,-0.3993695068,2024-06-04 18:07:12.067979
9.108282708,-1.753004608,-8.995693359,4.129313049,2024-06-04 18:07:12.108283
9.148586708,0.9485774231,-8.316705322,1.442999268,2024-06-04 18:07:12.148587
9.188890708,0.4728666687,-8.860075378,2.278561707,2024-06-04 18:07:12.188891
9.229194708,-1.520837402,-9.041348419,1.007105713,2024-06-04 18:07:12.229195
9.269498708,-1.034049683,-9.140142975,0.1534309387,2024-06-04 18:07:12.269499
9.309802708,0.5855822754,-8.924740906,2.419269104,2024-06-04 18:07:12.309803
9.350106708,0.4317022705,-8.8305867,0.8107141113,2024-06-04 18:07:12.350107
9.390410708,-0.3399430847,-9.562564545,2.283052368,2024-06-04 18:07:12.390411
9.430714708,-4.424648895,-10.92577972,0.7926017761,2024-06-04 18:07:12.430715
9.471018708,-5.944139099,-10.65214874,2.016905823,2024-06-04 18:07:12.471019
9.511322708,-4.702471161,-12.29558121,2.49576004,2024-06-04 18:07:12.511323
9.551626708,-5.10513382,-13.02636154,2.603236542,2024-06-04 18:07:12.551627
9.591930708,0.9357041931,-11.11094467,0.9714797974,2024-06-04 18:07:12.591931
9.632234708,7.4464151,-16.99580704,1.902244263,2024-06-04 18:07:12.632235
9.672538708,2.218835907,-13.08788361,1.152004395,2024-06-04 18:07:12.672539
9.712842708,-0.3239263916,-8.587043152,1.820963287,2024-06-04 18:07:12.712843
9.753146708,-0.425565033,-8.722062378,-1.365909576,2024-06-04 18:07:12.753147
9.793450708,-0.4138893127,-8.208330688,0.545615387,2024-06-04 18:07:12.793451
9.833754708,-0.6319857788,-6.442752228,1.988315277,2024-06-04 18:07:12.833755
9.874058708,1.018482056,-4.859195251,1.299447784,2024-06-04 18:07:12.874059
9.914362208,0.9104067993,-4.042792969,1.253792725,2024-06-04 18:07:12.914362
9.954666208,0.3718267822,-3.247796173,3.408112793,2024-06-04 18:07:12.954666
9.994970208,-1.096469879,-8.261769562,8.03843399,2024-06-04 18:07:12.994970
10.03527421,-6.528523865,-15.82404373,14.15740952,2024-06-04 18:07:13.035274
10.07557821,-2.187850342,-9.696835327,9.086105347,2024-06-04 18:07:13.075578
10.11588221,2.496059418,-5.233866119,6.025569763,2024-06-04 18:07:13.115882
10.15618621,6.321354675,-17.03367828,7.317233734,2024-06-04 18:07:13.156186
10.19649021,-1.726360016,-9.538764038,0.6557862854,2024-06-04 18:07:13.196490
10.23679421,2.290686493,-3.290607147,-1.598525848,2024-06-04 18:07:13.236794
10.27709821,2.899171143,-9.062753906,-2.162253571,2024-06-04 18:07:13.277098
10.31740221,-1.665736084,-13.44818436,-4.301006012,2024-06-04 18:07:13.317402
10.35770621,-4.702770538,-8.400680695,2.763852539,2024-06-04 18:07:13.357706
10.39801021,-0.5993536377,-8.539142761,1.672621765,2024-06-04 18:07:13.398010
10.43831421,0.06227050781,-8.212521973,1.43925705,2024-06-04 18:07:13.438314
10.47861821,-0.5295986938,-8.950337677,1.231938171,2024-06-04 18:07:13.478618
10.51892221,-0.1207987976,-8.748856659,0.9184899902,2024-06-04 18:07:13.518922
10.55922621,0.3656895447,-8.921597443,2.351310425,2024-06-04 18:07:13.559226
10.59953021,-2.395917664,-10.53569092,1.561552734,2024-06-04 18:07:13.599530
10.63983521,-5.28880188,-11.03550156,1.211430817,2024-06-04 18:07:13.639835
10.68013921,-5.903723145,-11.96701447,1.254541168,2024-06-04 18:07:13.680139
10.72044321,-3.716770935,-12.44003082,2.667902069,2024-06-04 18:07:13.720443
10.76074721,-3.487597504,-12.58283386,1.966311035,2024-06-04 18:07:13.760747
10.80105121,1.445993042,-10.76695999,2.552641754,2024-06-04 18:07:13.801051
10.84135521,3.877835999,-14.65811829,0.3189866638,2024-06-04 18:07:13.841355
10.88165975,2.856060791,-15.2790271,3.883224792,2024-06-04 18:07:13.881660
10.92196375,0.4797523499,-8.914562073,1.53041748,2024-06-04 18:07:13.921964
10.96226775,-0.7711962891,-9.161398773,-0.8535250854,2024-06-04 18:07:13.962268
11.00257175,-1.790576477,-7.178771667,2.995121613,2024-06-04 18:07:14.002572
11.04287575,-0.8903485107,-7.046596527,1.437460785,2024-06-04 18:07:14.042876
11.08317975,2.163750458,-3.770958252,0.8798703003,2024-06-04 18:07:14.083180
11.12348375,1.652862854,-2.30969696,1.680704956,2024-06-04 18:07:14.123484
11.16378775,-0.9734257507,-3.369493103,5.002447357,2024-06-04 18:07:14.163788
11.20409175,-1.580114136,-9.163943481,8.776399384,2024-06-04 18:07:14.204092
11.24439575,-1.957629089,-13.44339432,14.86483841,2024-06-04 18:07:14.244396
11.28469975,-2.24772583,-9.929002533,9.914333038,2024-06-04 18:07:14.284700
11.32500375,3.192411346,-20.96600098,8.0794487,2024-06-04 18:07:14.325004
11.36530775,6.24471405,0.1802252197,-3.645070038,2024-06-04 18:07:14.365308
11.40561175,-1.878294067,-6.426436157,1.05889801,2024-06-04 18:07:14.405612
11.44591675,0.03667373657,-10.51877609,-4.352947998,2024-06-04 18:07:14.445917
11.48622075,-4.634362793,-13.8378241,1.495839386,2024-06-04 18:07:14.486221
11.52652475,-2.534230042,-8.70305191,2.255809021,2024-06-04 18:07:14.526525
11.56682875,0.8107141113,-8.155640259,0.6623725891,2024-06-04 18:07:14.566829
11.60713275,0.185464325,-8.000113678,2.187401276,2024-06-04 18:07:14.607133
11.64743675,-0.5803431702,-8.725804596,1.517095184,2024-06-04 18:07:14.647437
11.68774075,-0.2290237427,-9.034313049,2.08037384,2024-06-04 18:07:14.687741
11.72804475,-0.7584727478,-8.567433929,1.363215179,2024-06-04 18:07:14.728045
11.76834875,-1.656904449,-8.932375031,1.220262451,2024-06-04 18:07:14.768349
11.80865275,-2.743195496,-10.87353836,0.726738739,2024-06-04 18:07:14.808653
11.84895675,-3.940405884,-11.12232101,1.716929626,2024-06-04 18:07:14.848957
11.88926083,-3.64596817,-13.0269603,3.287014618,2024-06-04 18:07:14.889261
11.92956483,-2.361339569,-11.40283768,3.659140778,2024-06-04 18:07:14.929565
11.96986983,-4.002377014,-12.07314377,1.593286743,2024-06-04 18:07:14.969870
12.01017383,-2.997666321,-9.434580688,-0.7794291687,2024-06-04 18:07:15.010174
12.05047783,1.109492798,-13.81327515,-1.047371979,2024-06-04 18:07:15.050478
12.09078183,0.9391470337,-16.66484528,3.696113892,2024-06-04 18:07:15.090782
12.13108583,-0.6053411865,-10.5093457,1.975741425,2024-06-04 18:07:15.131086
12.17138983,-1.936972046,-8.454269257,-0.8728349304,2024-06-04 18:07:15.171390
12.21169383,-3.73024292,-8.285719757,1.576521606,2024-06-04 18:07:15.211694
12.25199783,-1.278641052,-6.467301178,0.6755451965,2024-06-04 18:07:15.251998
12.29230183,2.082020416,-4.054917755,-0.3378474426,2024-06-04 18:07:15.292302
12.33260583,2.744093628,-3.623365173,0.9210346985,2024-06-04 18:07:15.332606
12.37291083,-0.237406311,-4.599036255,4.844974823,2024-06-04 18:07:15.372911
12.41321483,-1.042731628,-8.479117584,8.412506104,2024-06-04 18:07:15.413215
12.45351883,-2.736758881,-11.97225357,12.19633759,2024-06-04 18:07:15.453519
12.49382283,-4.332590332,-9.837991791,8.568631439,2024-06-04 18:07:15.493823
12.53412683,-0.2915936279,-10.18003052,7.641160126,2024-06-04 18:07:15.534127
12.57443083,7.260501709,-15.58723618,1.487905884,2024-06-04 18:07:15.574431
12.61473483,2.350112915,-5.992787933,-1.221759338,2024-06-04 18:07:15.614735
12.65503883,0.6424639893,-7.01935318,-2.940485229,2024-06-04 18:07:15.655039
12.69534283,-2.759960632,-12.37386841,-4.825066223,2024-06-04 18:07:15.695343
12.73564683,-5.010979614,-9.499545593,2.045047302,2024-06-04 18:07:15.735647
12.77595183,-0.4402345276,-8.324788513,1.87095932,2024-06-04 18:07:15.775952
12.81625583,1.474134521,-8.466543732,1.199006653,2024-06-04 18:07:15.816256
12.85655983,0.1133143616,-8.560248871,2.828667755,2024-06-04 18:07:15.856560
12.89686483,-1.955982513,-8.585246887,0.8152047729,2024-06-04 18:07:15.896865
12.93716883,-0.4695735168,-8.415050812,-0.3308120728,2024-06-04 18:07:15.937169
12.97747283,0.3580554199,-10.52940399,2.080673218,2024-06-04 18:07:15.977473
13.01777683,-3.456911316,-11.39640106,2.424358521,2024-06-04 18:07:16.017777
13.05808083,-5.023403778,-11.4914534,0.7990383911,2024-06-04 18:07:16.058081
13.09838583,-5.170248413,-11.80714691,4.433181152,2024-06-04 18:07:16.098386
13.13868983,-5.518574066,-13.93093048,-0.8493338013,2024-06-04 18:07:16.138690
13.17899383,-2.20326828,-10.60170364,-0.5716612244,2024-06-04 18:07:16.178994
13.21929783,4.818030853,-12.88849823,0.7144642639,2024-06-04 18:07:16.219298
13.25960183,1.225202179,-15.77749054,1.446891174,2024-06-04 18:07:16.259602
13.29990583,1.373244324,-11.11423782,2.151176605,2024-06-04 18:07:16.299906
13.34020983,0.9144483948,-8.978628845,0.6060896301,2024-06-04 18:07:16.340210
13.38051383,-0.6819818115,-8.037236481,-0.07708969116,2024-06-04 18:07:16.380514
13.42081883,-3.280128937,-7.239994354,1.103954315,2024-06-04 18:07:16.420819
13.46112283,-0.003891906738,-4.97759903,0.6035449219,2024-06-04 18:07:16.461123
13.50142683,1.702110443,-2.979404297,0.746048584,2024-06-04 18:07:16.501427
13.54173083,0.2302212524,-2.480641479,2.699486389,2024-06-04 18:07:16.541731
13.58203483,-1.719923401,-7.803572388,6.923103333,2024-06-04 18:07:16.582035
13.62233883,-1.002016296,-15.3706366,15.28142212,2024-06-04 18:07:16.622339
13.66264283,-3.154091034,-9.557026062,8.26551178,2024-06-04 18:07:16.662643
13.70294683,-2.139351196,-3.566782837,7.223977661,2024-06-04 18:07:16.702947
13.74325183,6.190077667,-11.52902527,-0.2969824219,2024-06-04 18:07:16.743252
13.78355583,-2.162552948,-24.91404099,10.67639832,2024-06-04 18:07:16.783556
13.82385983,-0.615819397,-2.977608032,-3.286864929,2024-06-04 18:07:16.823860
13.86416383,1.331630859,-6.844367065,-3.406615906,2024-06-04 18:07:16.864164
13.90446671,-7.586523743,-17.49232452,-7.12937439,2024-06-04 18:07:16.904467
13.94477071,-2.391726379,-8.477171631,4.546046448,2024-06-04 18:07:16.944771
13.98507471,1.991907806,-7.670948181,0.9050180054,2024-06-04 18:07:16.985075
14.02537971,2.079475708,-9.280700684,1.499282227,2024-06-04 18:07:17.025380
14.06568371,-1.411864014,-8.847950592,0.757275238,2024-06-04 18:07:17.065684
14.10598771,-1.560355225,-8.578810272,-0.05777984619,2024-06-04 18:07:17.105988
14.14629171,-0.4553530884,-9.513616333,0.1068777466,2024-06-04 18:07:17.146292
14.18659571,-1.625918884,-11.09822113,3.632645874,2024-06-04 18:07:17.186596
14.22689971,-4.424948273,-10.96769257,-0.009131011963,2024-06-04 18:07:17.226900
14.26720371,-5.603896637,-12.77563293,3.293600922,2024-06-04 18:07:17.267204
14.30750871,-6.828350372,-14.61111603,-2.132465515,2024-06-04 18:07:17.307509
14.34781271,1.953437805,-11.53516251,6.54079834,2024-06-04 18:07:17.347813
14.38811671,3.757635956,-9.390721893,-0.90681427,2024-06-04 18:07:17.388117
14.42842071,1.611848145,-15.86984848,3.453917542,2024-06-04 18:07:17.428421
14.46872471,0.4331991577,-12.39901611,4.055067444,2024-06-04 18:07:17.468725
14.50902871,-0.1586700439,-9.089548187,-0.3430865479,2024-06-04 18:07:17.509029
14.54933271,-3.461851044,-7.818241882,0.2023791504,2024-06-04 18:07:17.549333
14.58963771,-3.729943542,-7.915240173,1.228195953,2024-06-04 18:07:17.589638
14.62994171,1.276844788,-4.744533691,0.2900967407,2024-06-04 18:07:17.629942
14.67024571,3.50556015,-2.794688416,0.5665718079,2024-06-04 18:07:17.670246
14.71054971,0.4787045288,-3.38745575,2.830763397,2024-06-04 18:07:17.710550
14.75085371,-1.215023346,-6.290818176,7.340285797,2024-06-04 18:07:17.750854
14.79115771,-0.1507365417,-11.02367615,11.77122162,2024-06-04 18:07:17.791158
14.83146271,-3.402424622,-12.73536667,11.43187729,2024-06-04 18:07:17.831463
14.87176671,0.1567240906,-10.68927155,9.813143463,2024-06-04 18:07:17.871767
14.91207071,5.527256012,-15.64411789,1.659898224,2024-06-04 18:07:17.912071
14.95237471,1.761686554,0.629740448,-4.51655777,2024-06-04 18:07:17.952375
14.99267871,-2.864143982,-7.754025421,-5.987848206,2024-06-04 18:07:17.992679
15.03298271,-3.16397049,-19.56760895,-6.4179039,2024-06-04 18:07:18.032983
15.07328671,-2.074685669,-9.947264557,3.45286972,2024-06-04 18:07:18.073287
15.11359171,0.9487271118,-8.890162811,2.91354126,2024-06-04 18:07:18.113592
15.15389571,0.6471043396,-7.58218277,0.8297245789,2024-06-04 18:07:18.153896
15.19419971,-0.4017645264,-7.67573822,0.2034269714,2024-06-04 18:07:18.194200
15.23450371,-0.6902146912,-7.968828735,1.346899109,2024-06-04 18:07:18.234504
15.27480771,-0.001646575928,-8.220904541,0.3547622681,2024-06-04 18:07:18.274808
15.31511171,0.1701960754,-8.46444809,1.899400177,2024-06-04 18:07:18.315112
15.35541671,-2.377955017,-11.79053146,2.838696899,2024-06-04 18:07:18.355417
15.39572071,-6.542594604,-12.28420486,-0.7436535645,2024-06-04 18:07:18.395721
15.43602471,-4.339925079,-12.46622635,4.805457001,2024-06-04 18:07:18.436025
15.47632871,-5.898184662,-11.71194489,1.346150665,2024-06-04 18:07:18.476329
15.51663271,-4.02273468,-12.0077298,2.884052582,2024-06-04 18:07:18.516633
15.55693771,4.000431061,-10.54287598,0.6447093201,2024-06-04 18:07:18.556938
15.59724171,3.632645874,-17.11121704,2.652184753,2024-06-04 18:07:18.597242
15.63754571,-0.7861651611,-12.46742386,2.69589386,2024-06-04 18:07:18.637546
15.67784971,-0.7461982727,-8.978778534,1.038540344,2024-06-04 18:07:18.677850
15.71815371,-0.1369651794,-7.886799316,-0.8602610779,2024-06-04 18:07:18.718154
15.75845771,-2.716401215,-7.787406006,0.7421566772,2024-06-04 18:07:18.758458
15.79876271,0.9678872681,-4.21927597,0.4505630493,2024-06-04 18:07:18.798763
15.83906671,3.418441315,-3.516188049,0.9467811584,2024-06-04 18:07:18.839067
15.87937071,0.4704716492,-3.477418671,2.93928772,2024-06-04 18:07:18.879371
15.91967425,-0.4715194702,-7.128775635,6.74901535,2024-06-04 18:07:18.919674
15.95997825,-1.642085266,-13.13772995,14.15666107,2024-06-04 18:07:18.959978
16.00028225,-4.784350891,-10.95931,10.50889664,2024-06-04 18:07:19.000282
16.04058725,-2.720143433,-4.28723465,7.781717834,2024-06-04 18:07:19.040587
16.08089125,8.028554535,-12.40530304,0.1266366577,2024-06-04 18:07:19.080891
16.12119525,2.173330536,-20.75763428,12.73072632,2024-06-04 18:07:19.121195
16.16149925,-1.423539734,-3.246898041,-5.326523438,2024-06-04 18:07:19.161499
16.20180325,1.375190277,-7.418572998,-3.732787628,2024-06-04 18:07:19.201803
16.24210725,-9.472152557,-19.86728577,-8.763077087,2024-06-04 18:07:19.242107
16.28241225,-3.416046295,-9.771979065,2.57883728,2024-06-04 18:07:19.282412
16.32271625,2.024839325,-8.392148438,3.11008255,2024-06-04 18:07:19.322716
16.36302025,1.655108185,-8.824150085,0.9392967224,2024-06-04 18:07:19.363020
16.40332425,-1.696871338,-8.436156921,0.4315525818,2024-06-04 18:07:19.403324
16.44362825,-1.472338257,-9.048832855,0.3697311401,2024-06-04 18:07:19.443628
16.48393325,-0.04460723877,-8.792715454,1.770518188,2024-06-04 18:07:19.483933
16.52423725,-2.23021225,-11.13998428,2.735561371,2024-06-04 18:07:19.524237
16.56454125,-6.068680115,-12.00174225,-0.004790039062,2024-06-04 18:07:19.564541
16.60484525,-5.530100098,-11.8457666,4.450245667,2024-06-04 18:07:19.604845
16.64514925,-3.696562958,-11.5219899,1.533411255,2024-06-04 18:07:19.645149
16.68545325,-2.986888733,-11.47169449,1.983824615,2024-06-04 18:07:19.685453
16.72575825,3.342249756,-11.03610031,1.218316498,2024-06-04 18:07:19.725758
16.76606225,2.16000824,-17.44337631,2.968626709,2024-06-04 18:07:19.766062
16.80636625,-0.2791694641,-11.02921463,2.281405792,2024-06-04 18:07:19.806366
16.84667025,-1.190175018,-7.411088562,0.1038839722,2024-06-04 18:07:19.846670
16.88697433,-0.8708889771,-9.096134491,-0.1847158813,2024-06-04 18:07:19.886974
16.92727933,-2.094145203,-8.151149597,-0.1663041687,2024-06-04 18:07:19.927279
16.96758333,1.327140198,-4.055815887,0.7186555481,2024-06-04 18:07:19.967583
17.00788733,2.254461823,-3.851640472,0.8294252014,2024-06-04 18:07:20.007887
17.04819133,0.2384541321,-3.746858368,2.613115997,2024-06-04 18:07:20.048191
17.08849533,0.3547622681,-7.613318024,6.744075623,2024-06-04 18:07:20.088495
17.12880033,-2.452949066,-14.49780167,14.15636169,2024-06-04 18:07:20.128800
17.16910433,-4.3807901,-10.77204941,8.906029816,2024-06-04 18:07:20.169104
17.20940833,-0.03861968994,-5.628894653,7.608078918,2024-06-04 18:07:20.209408
17.24971233,6.577472076,-11.96057785,2.834056549,2024-06-04 18:07:20.249712
17.29001633,2.490221558,-17.60893204,6.474785614,2024-06-04 18:07:20.290016
17.33032033,1.19466568,-3.303031311,-3.980073395,2024-06-04 18:07:20.330320
17.37062533,1.499731293,-7.782166901,-3.362308044,2024-06-04 18:07:20.370625
17.41092933,-7.272776184,-18.615439,-6.448739777,2024-06-04 18:07:20.410929
17.45123333,-4.196074219,-8.63404541,0.2591111755,2024-06-04 18:07:20.451233
17.49153733,0.4070036316,-8.19650528,2.616858215,2024-06-04 18:07:20.491537
17.53184133,-0.009430389404,-8.782386932,-0.5013075256,2024-06-04 18:07:20.531841
17.57214633,-1.407672729,-9.025780792,1.455124054,2024-06-04 18:07:20.572146
17.61245033,-2.242935791,-9.361233215,-0.1401086426,2024-06-04 18:07:20.612450
17.65275433,-1.364712067,-10.14769775,0.1936972046,2024-06-04 18:07:20.652754
17.69305833,-2.090402985,-10.22643402,3.880081329,2024-06-04 18:07:20.693058
17.73336233,-5.388344879,-11.47453857,1.795067139,2024-06-04 18:07:20.733362
17.77366733,-5.146148529,-12.22762253,3.148552551,2024-06-04 18:07:20.773667
17.81397133,-5.336552582,-13.19116882,0.4165837097,2024-06-04 18:07:20.813971
17.85427533,-3.56872879,-11.56390274,1.457668762,2024-06-04 18:07:20.854275
17.89457946,3.175197144,-9.595196686,0.8610095215,2024-06-04 18:07:20.894579
17.93488346,-0.07379653931,-16.16653152,0.2466870117,2024-06-04 18:07:20.934883
17.97518846,3.488645325,-14.31128952,3.325035553,2024-06-04 18:07:20.975188
18.01549246,1.652862854,-10.0036972,2.229164429,2024-06-04 18:07:21.015492
18.05579646,-0.8547225952,-8.362510071,-1.310225372,2024-06-04 18:07:21.055796
18.09610046,-4.333787842,-7.403005371,-0.4342469788,2024-06-04 18:07:21.096100
18.13640446,-1.818119202,-4.508025513,0.07334747314,2024-06-04 18:07:21.136404
18.17670846,3.11128006,-2.297123108,-0.209564209,2024-06-04 18:07:21.176708
18.21701346,2.451751556,-2.002835083,2.779719543,2024-06-04 18:07:21.217013
18.25731746,-1.22864502,-7.557334442,7.696694641,2024-06-04 18:07:21.257317
18.29762146,-1.065334625,-13.85848114,14.78250961,2024-06-04 18:07:21.297621
18.33792546,-2.28634552,-9.005872192,8.991651764,2024-06-04 18:07:21.337925
18.37822946,0.1137634277,-10.71411987,9.098978577,2024-06-04 18:07:21.378229
18.41853446,6.013594666,-19.57135117,2.211201782,2024-06-04 18:07:21.418534
18.45883846,2.514321442,-1.163979492,-4.974904633,2024-06-04 18:07:21.458838
18.49914246,0.5053491211,-5.057233429,-3.132386169,2024-06-04 18:07:21.499142
18.53944646,-1.936672668,-15.65115326,-7.155719604,2024-06-04 18:07:21.539446
18.57975046,-5.04780304,-11.38023468,4.048331451,2024-06-04 18:07:21.579750
18.62005546,-1.67905838,-7.680378571,3.224444733,2024-06-04 18:07:21.620055
18.66035946,1.666783905,-8.293503571,1.349294128,2024-06-04 18:07:21.660359
18.70066346,-0.2091151428,-8.513246613,1.57143219,2024-06-04 18:07:21.700663
18.74096746,-0.6369255066,-8.68673584,0.9065148926,2024-06-04 18:07:21.740967
18.78127146,0.06182144165,-8.857830048,0.263152771,2024-06-04 18:07:21.781271
18.82157546,0.2200424194,-9.052575073,2.387086029,2024-06-04 18:07:21.821575
18.86188046,-2.082469482,-11.72077652,1.930086365,2024-06-04 18:07:21.861880
18.90218483,-4.849465485,-11.70101761,0.1740879822,2024-06-04 18:07:21.902185
18.94248883,-5.177433472,-11.42020157,4.209695892,2024-06-04 18:07:21.942489
18.98279283,-3.929478607,-11.03041214,2.623743896,2024-06-04 18:07:21.982793
19.02309683,-3.804488525,-11.8776503,3.492537231,2024-06-04 18:07:22.023097
19.06340183,-0.8005352783,-10.26265869,-2.547702026,2024-06-04 18:07:22.063402
19.10370583,3.040327606,-16.88922867,3.041674805,2024-06-04 18:07:22.103706
19.14400983,0.2504292297,-12.55798553,2.37645813,2024-06-04 18:07:22.144010
19.18431383,-2.893183594,-8.281977539,2.060165863,2024-06-04 18:07:22.184314
19.22461783,-1.443148956,-8.117319946,0.8027806091,2024-06-04 18:07:22.224618
19.26492283,-2.792592773,-8.156837769,0.48559021,2024-06-04 18:07:22.264923
19.30522683,0.03308120728,-5.824837189,-0.09924362183,2024-06-04 18:07:22.305227
19.34553083,1.723216553,-4.421954498,1.233584747,2024-06-04 18:07:22.345531
19.38583483,0.7605683899,-4.146227875,2.866539001,2024-06-04 18:07:22.385835
19.42613883,0.8063731384,-6.165828094,4.857548676,2024-06-04 18:07:22.426139
19.46644283,0.08981323242,-10.69974976,10.19185593,2024-06-04 18:07:22.466443
19.50674783,-9.087452545,-12.49391876,12.08452011,2024-06-04 18:07:22.506748
19.54705183,-4.153113556,-5.431006165,7.016359406,2024-06-04 18:07:22.547052
19.58735583,3.356470184,-7.380402374,3.506009216,2024-06-04 18:07:22.587356
19.62765983,3.257825317,-26.54983932,10.55365356,2024-06-04 18:07:22.627660
19.66796383,2.283351746,-2.209405518,-4.105063477,2024-06-04 18:07:22.667964
19.70826883,3.938609619,-7.372169495,-3.6097435,2024-06-04 18:07:22.708269
19.74857283,0.7412585449,-14.19767578,-6.137686615,2024-06-04 18:07:22.748573
19.78887683,-5.483846283,-13.84141663,10.61936691,2024-06-04 18:07:22.788877
19.82918083,-2.42795105,-9.639953613,0.5715115356,2024-06-04 18:07:22.829181
19.86948483,0.6068380737,-8.686885529,0.8448431396,2024-06-04 18:07:22.869485
19.90978983,-0.31943573,-8.69960907,2.396815796,2024-06-04 18:07:22.909790
19.95009383,-0.7089257812,-7.497758331,-0.2366578674,2024-06-04 18:07:22.950094
19.99039783,0.04520599365,-7.333250427,1.202000427,2024-06-04 18:07:22.990398
20.03070183,-2.799628143,-10.67190765,1.622625732,2024-06-04 18:07:23.030702
20.07100583,-4.100572815,-11.00855759,1.505269775,2024-06-04 18:07:23.071006
20.11131083,-4.215084686,-12.12643295,2.497406616,2024-06-04 18:07:23.111311
20.15161483,-2.017504578,-11.44879211,3.193608856,2024-06-04 18:07:23.151615
20.19191883,-3.710933075,-12.6274411,2.333796844,2024-06-04 18:07:23.191919
20.23222283,-2.251468048,-10.57760376,-2.516566772,2024-06-04 18:07:23.232223
20.27252683,2.253264313,-14.41367661,1.750010834,2024-06-04 18:07:23.272527
20.31283083,2.451452179,-18.24945007,3.336112518,2024-06-04 18:07:23.312831
20.35313583,1.855092316,-10.2652034,2.680775299,2024-06-04 18:07:23.353136
20.39343983,-0.05104385376,-8.085436249,-0.1490899658,2024-06-04 18:07:23.393440
20.43374383,-2.657423859,-8.465645599,-0.9773176575,2024-06-04 18:07:23.433744
20.47404783,-1.340013428,-6.811285858,0.2462379456,2024-06-04 18:07:23.474048
20.51435183,1.974543915,-3.19196228,0.7150630188,2024-06-04 18:07:23.514352
20.55465683,2.69125351,-2.805466003,1.424587555,2024-06-04 18:07:23.554657
20.59496083,-0.1919009399,-3.642076263,3.278033295,2024-06-04 18:07:23.594961
20.63526483,-0.3079096985,-7.3774086,6.807843018,2024-06-04 18:07:23.635265
20.67556883,-4.588707733,-18.15245178,15.38246201,2024-06-04 18:07:23.675569
20.71587283,-5.312003632,-10.74585388,10.89224945,2024-06-04 18:07:23.715873
20.75617783,3.424728241,-4.126319275,6.478827209,2024-06-04 18:07:23.756178
20.79648183,6.577771454,-18.13164505,2.036664734,2024-06-04 18:07:23.796482
20.83678583,-0.2210902405,-3.76302475,-4.773124237,2024-06-04 18:07:23.836786
20.87708983,2.483784943,-5.830974426,-3.258274384,2024-06-04 18:07:23.877090
20.91739408,1.24960144,-12.95016998,-3.458258514,2024-06-04 18:07:23.917394
20.95769808,-8.962612152,-14.21129745,9.255253601,2024-06-04 18:07:23.957698
20.99800308,-0.9119036865,-8.735085297,2.331252136,2024-06-04 18:07:23.998003
21.03830708,1.732646942,-8.507558441,1.686542816,2024-06-04 18:07:24.038307
21.07861108,-0.6951544189,-8.821755066,0.970581665,2024-06-04 18:07:24.078611
21.11891508,-0.51717453,-8.883576508,1.447938995,2024-06-04 18:07:24.118915
21.15921908,-0.2788700867,-9.176667023,0.9524693298,2024-06-04 18:07:24.159219
21.19952408,-0.6411167908,-9.341025238,2.831811218,2024-06-04 18:07:24.199524
21.23982808,-3.81332016,-10.77189972,1.774559784,2024-06-04 18:07:24.239828
21.28013208,-5.582341461,-11.90175018,1.871857452,2024-06-04 18:07:24.280132
21.32043608,-2.294279022,-11.51315826,3.892355804,2024-06-04 18:07:24.320436
21.36074008,-3.993844757,-11.53097122,0.8138575745,2024-06-04 18:07:24.360740
21.40104408,-2.767744446,-12.57295441,0.2891986084,2024-06-04 18:07:24.401044
21.44134908,3.560346222,-10.59242294,0.1877096558,2024-06-04 18:07:24.441349
21.48165308,3.487747192,-17.41957581,3.526815948,2024-06-04 18:07:24.481653
21.52195708,0.4282594299,-11.66539169,1.532363434,2024-06-04 18:07:24.521957
21.56226108,-0.4297563171,-8.802145844,0.8038284302,2024-06-04 18:07:24.562261
21.60256508,-1.170865173,-8.343050537,-0.6155200195,2024-06-04 18:07:24.602565
21.64287008,-1.850751343,-8.525371399,0.6649172974,2024-06-04 18:07:24.642870
21.68317408,1.739682312,-4.678970032,1.060694275,2024-06-04 18:07:24.683174
21.72347808,2.524500275,-3.855532379,1.50122818,2024-06-04 18:07:24.723478
21.76378208,1.138233032,-2.914289703,2.25012085,2024-06-04 18:07:24.763782
21.80408608,0.1300794983,-5.495522003,4.914280701,2024-06-04 18:07:24.804086
21.84439008,-2.253863068,-13.59428055,11.902798,2024-06-04 18:07:24.844390
21.88469508,-4.694238281,-13.86267242,10.8093219,2024-06-04 18:07:24.884695
21.92499858,1.342408447,-7.960745544,8.50651062,2024-06-04 18:07:24.924999
21.96530258,4.574636993,-19.30475555,5.433251495,2024-06-04 18:07:24.965303
22.00560658,1.609752502,0.03008743286,-5.221441956,2024-06-04 18:07:25.005607
22.04591058,1.829645233,-5.055736542,-0.7761360168,2024-06-04 18:07:25.045911
22.08621558,0.4918771362,-13.92658951,-5.384602661,2024-06-04 18:07:25.086216
22.12651958,-6.062991943,-12.39886642,6.947502594,2024-06-04 18:07:25.126520
22.16682358,-0.292641449,-8.978628845,3.00829422,2024-06-04 18:07:25.166824
22.20712758,1.112486572,-8.115523682,1.475182343,2024-06-04 18:07:25.207128
22.24743158,-1.685944061,-8.762029266,0.3656895447,2024-06-04 18:07:25.247432
22.28773558,0.9056167603,-9.453591156,1.82530426,2024-06-04 18:07:25.287736
22.32804058,0.5227130127,-8.873247986,0.08487350464,2024-06-04 18:07:25.328041
22.36834458,1.425485687,-8.493188324,1.182091827,2024-06-04 18:07:25.368345
22.40864858,-1.541644135,-10.43929138,3.092718658,2024-06-04 18:07:25.408649
22.44895258,-3.813619537,-11.43427231,0.8479866028,2024-06-04 18:07:25.448953
22.48925658,-5.447621613,-11.77616135,2.055675201,2024-06-04 18:07:25.489257
22.52956158,-4.267026672,-13.56554031,2.041155396,2024-06-04 18:07:25.529562
22.56986558,-4.348457336,-12.32477051,1.634002075,2024-06-04 18:07:25.569866
22.61016958,3.478466492,-9.049880676,1.675016785,2024-06-04 18:07:25.610170
22.65047358,4.40893158,-16.37040756,0.9538165283,2024-06-04 18:07:25.650474
22.69077758,3.484004974,-14.49540665,3.372337189,2024-06-04 18:07:25.690778
22.73108158,1.560205536,-9.553583221,2.275268555,2024-06-04 18:07:25.731082
22.77138658,-0.780327301,-8.566984863,-1.03315155,2024-06-04 18:07:25.771387
22.81169058,-3.786525879,-7.946225739,0.9581575012,2024-06-04 18:07:25.811691
22.85199458,0.8740324402,-3.495531006,-0.3682342529,2024-06-04 18:07:25.851995
22.89229858,2.028581543,-1.790426788,1.250649261,2024-06-04 18:07:25.892299
22.93260233,1.439855804,-3.346890106,2.700234833,2024-06-04 18:07:25.932602
22.97290633,-1.179247742,-5.854176178,7.018904114,2024-06-04 18:07:25.972906
23.01321133,-1.557062073,-12.10278214,11.54115005,2024-06-04 18:07:26.013211
23.05351533,1.515149231,-12.07823318,13.58649673,2024-06-04 18:07:26.053515
23.09381933,-0.4065545654,-7.28729599,9.149872742,2024-06-04 18:07:26.093819
23.13412333,7.484136658,-18.71543106,7.537575531,2024-06-04 18:07:26.134123
23.17442733,1.458117828,-5.066663818,-0.6938072205,2024-06-04 18:07:26.174427
23.21473133,0.5939648438,-3.64596817,0.7171586609,2024-06-04 18:07:26.214731
23.25503633,0.7940986633,-9.131161652,-3.891307983,2024-06-04 18:07:26.255036
23.29534033,-4.129013672,-15.1529892,-1.62876297,2024-06-04 18:07:26.295340
23.33564433,-3.308719482,-7.335046692,3.187621307,2024-06-04 18:07:26.335644
23.37594833,0.09580078125,-8.857680359,1.925595703,2024-06-04 18:07:26.375948
23.41625233,1.230740662,-7.981701965,2.325863342,2024-06-04 18:07:26.416252
23.45655633,0.1182540894,-8.746910706,1.764830017,2024-06-04 18:07:26.456556
23.49686133,-0.816252594,-8.461903381,1.516646118,2024-06-04 18:07:26.496861
23.53716533,0.3617976379,-8.048912201,0.1454974365,2024-06-04 18:07:26.537165
23.57746933,0.7114704895,-9.250014496,2.00672699,2024-06-04 18:07:26.577469
23.61777333,-2.534978485,-12.29603027,2.117496643,2024-06-04 18:07:26.617773
23.65807733,-6.234984283,-12.73686356,1.01324295,2024-06-04 18:07:26.658077
23.69838133,-3.595074005,-11.70176605,4.642745361,2024-06-04 18:07:26.698381
23.73868633,-4.221221924,-11.25284958,1.085991669,2024-06-04 18:07:26.738686
23.77899033,-3.987108765,-11.93782516,-0.7005432129,2024-06-04 18:07:26.778990
23.81929433,3.451073456,-12.91364594,-2.985990601,2024-06-04 18:07:26.819294
23.85959833,3.062631226,-16.31636993,4.800666962,2024-06-04 18:07:26.859598
23.8999025,0.9053173828,-12.26803848,3.069666595,2024-06-04 18:07:26.899902
23.9402065,-0.7273374939,-8.867410126,-1.440454559,2024-06-04 18:07:26.940206
23.9805115,-2.265538788,-8.604107666,-1.544188843,2024-06-04 18:07:26.980511
24.0208155,-2.384541321,-7.156468048,-0.2933898926,2024-06-04 18:07:27.020816
24.0611195,2.33319809,-3.072360992,-0.5361849976,2024-06-04 18:07:27.061120
24.1014235,3.022814026,-2.116448822,0.4468208313,2024-06-04 18:07:27.101423
24.1417275,0.3924838257,-3.946543121,4.093238068,2024-06-04 18:07:27.141727
24.1820315,-1.412163391,-9.34895874,8.982371063,2024-06-04 18:07:27.182032
24.2223365,-2.258802795,-14.88534576,14.45064972,2024-06-04 18:07:27.222337
24.2626405,-1.828447723,-7.98349823,7.236551514,2024-06-04 18:07:27.262640
24.3029445,3.761677551,-15.81236801,8.71128479,2024-06-04 18:07:27.302944
24.3432485,3.305576019,-11.61165344,0.1824705505,2024-06-04 18:07:27.343249
24.3835525,3.910318451,-0.07843688965,-0.3929328918,2024-06-04 18:07:27.383553
24.4238565,2.004481659,-9.391620026,-5.599256287,2024-06-04 18:07:27.423856
24.4641605,-4.732558594,-17.71057068,-7.213649139,2024-06-04 18:07:27.464160
24.5044655,-3.760330353,-9.010213165,0.5878276062,2024-06-04 18:07:27.504465
24.5447695,-1.539398804,-8.009843445,2.314636688,2024-06-04 18:07:27.544770
24.5850735,1.399739227,-7.812553711,0.6318360901,2024-06-04 18:07:27.585074
24.6253775,0.1848655701,-8.175848236,1.291963348,2024-06-04 18:07:27.625377
24.6656815,-0.160765686,-8.673563232,1.124012604,2024-06-04 18:07:27.665682
24.7059855,-0.1411564636,-9.152118073,0.8598120117,2024-06-04 18:07:27.705986
24.7462905,-2.457739105,-10.58868073,3.791016541,2024-06-04 18:07:27.746291
24.7865945,-4.30010788,-11.43412262,1.045276337,2024-06-04 18:07:27.786594
24.8268985,-6.039490814,-11.81403259,1.944456482,2024-06-04 18:07:27.826898
24.8672025,-2.601739655,-12.35575607,4.00641861,2024-06-04 18:07:27.867203
24.90750658,-4.91787323,-12.55903336,0.8129594421,2024-06-04 18:07:27.907507
24.94781058,-0.2330653381,-10.74794952,-1.032852173,2024-06-04 18:07:27.947811
24.98811558,3.559747467,-18.01249283,3.195854187,2024-06-04 18:07:27.988116
25.02841958,1.950144653,-13.18143906,2.858006744,2024-06-04 18:07:28.028420
25.06872358,0.3713777161,-8.318651276,0.9693841553,2024-06-04 18:07:28.068724
25.10902758,-0.3980223083,-7.943980408,-2.812501373,2024-06-04 18:07:28.109028
25.14933158,-3.600462799,-8.102051697,-0.1610650635,2024-06-04 18:07:28.149332
25.18963558,0.7147636414,-4.900958405,0.3778143311,2024-06-04 18:07:28.189636
25.22993958,3.059188385,-3.502416687,0.6027964783,2024-06-04 18:07:28.229940
25.27024458,0.750838623,-3.02700531,2.241438904,2024-06-04 18:07:28.270245
25.31054858,-0.5164260864,-6.669830017,5.696104889,2024-06-04 18:07:28.310549
25.35085258,-0.2112107849,-11.9971019,12.68462219,2024-06-04 18:07:28.350853
25.39115658,-5.532345428,-14.08735519,9.20735321,2024-06-04 18:07:28.391157
25.43146058,-0.168848877,-9.667496338,9.583970032,2024-06-04 18:07:28.431461
25.47176458,6.275549927,-20.61647781,4.299958191,2024-06-04 18:07:28.471765
25.51206858,5.471721497,1.523232422,-4.900060272,2024-06-04 18:07:28.512069
25.55237358,-1.421144714,-6.393654327,-2.767445068,2024-06-04 18:07:28.552374
25.59267758,0.9665400696,-15.08727585,-6.206244049,2024-06-04 18:07:28.592678
25.63298158,-4.793332214,-13.66208954,10.0939595,2024-06-04 18:07:28.632982
25.67328558,-1.343456268,-6.547534332,3.739673309,2024-06-04 18:07:28.673286
25.71358958,0.6207591248,-8.904682617,0.3025209045,2024-06-04 18:07:28.713590
25.75389358,0.8186476135,-8.677604828,2.083816681,2024-06-04 18:07:28.753894
25.79419758,-0.1360670471,-8.578061829,1.300944672,2024-06-04 18:07:28.794198
25.83450258,-0.1712438965,-8.495583344,0.7705975342,2024-06-04 18:07:28.834503
25.87480658,0.1344204712,-8.932375031,2.226020966,2024-06-04 18:07:28.874807
25.91511033,-2.173929291,-10.66442322,2.744692383,2024-06-04 18:07:28.915110
25.95541433,-5.003944244,-11.23309067,0.4361929321,2024-06-04 18:07:28.955414
25.99571833,-5.59536438,-11.61823975,3.632346497,2024-06-04 18:07:28.995718
26.03602233,-2.679727478,-10.99688187,4.003125458,2024-06-04 18:07:29.036022
26.07632633,-1.496737518,-11.65611099,2.562221832,2024-06-04 18:07:29.076326
26.11663133,2.905158691,-15.00419861,-2.153571625,2024-06-04 18:07:29.116631
26.15693533,3.95133316,-17.1914502,4.797523499,2024-06-04 18:07:29.156935
26.19723933,1.965412903,-10.97532669,2.268083496,2024-06-04 18:07:29.197239
26.23754333,-0.6979985046,-7.706873474,0.1411564636,2024-06-04 18:07:29.237543
26.27784733,-2.069596252,-9.089697876,-1.846709747,2024-06-04 18:07:29.277847
26.31815133,-1.736239471,-8.019573212,-0.3839515686,2024-06-04 18:07:29.318151
26.35845533,2.774929504,-2.903811493,0.7051835632,2024-06-04 18:07:29.358455
26.39876033,2.089504852,-2.57883728,1.539548492,2024-06-04 18:07:29.398760
26.43906433,-0.8196954346,-4.116589508,3.397035828,2024-06-04 18:07:29.439064
26.47936833,-0.506995697,-7.04509964,6.789730682,2024-06-04 18:07:29.479368
26.51967233,-0.8963360596,-13.79845596,13.94500122,2024-06-04 18:07:29.519672
26.55997633,-2.784359894,-12.03407501,9.957144012,2024-06-04 18:07:29.559976
26.60028033,0.7984396362,-4.097429352,8.095166016,2024-06-04 18:07:29.600280
26.64058433,10.81231567,-15.66163147,4.5984375,2024-06-04 18:07:29.640584
26.68088933,-0.4567002869,-14.28703995,4.378993835,2024-06-04 18:07:29.680889
26.72119333,-0.6237528992,-4.077670441,-3.986659698,2024-06-04 18:07:29.721193
26.76149733,3.250340881,-7.571554871,-2.985391846,2024-06-04 18:07:29.761497
26.80180133,-0.9906399536,-14.02972504,-4.906496887,2024-06-04 18:07:29.801801
26.84210533,-4.252357178,-9.774823151,7.250921631,2024-06-04 18:07:29.842105
26.88240933,0.03487747192,-8.422984314,3.114872589,2024-06-04 18:07:29.882409
26.92271358,0.6505471802,-8.032446442,1.043031006,2024-06-04 18:07:29.922714
26.96301758,-0.8912466431,-8.237819366,1.869612122,2024-06-04 18:07:29.963018
27.00332258,-1.787732391,-8.612490234,0.1660047913,2024-06-04 18:07:30.003323
27.04362658,-0.6075865173,-9.058712311,2.639910278,2024-06-04 18:07:30.043627
27.08393058,-2.593057709,-11.21961868,0.8523275757,2024-06-04 18:07:30.083931
27.12423458,-4.376748505,-12.90002426,2.125430145,2024-06-04 18:07:30.124235
27.16453858,-4.378245392,-12.81245636,3.105741577,2024-06-04 18:07:30.164539
27.20484258,-3.062481537,-11.20779327,1.838027802,2024-06-04 18:07:30.204843
27.24514658,-4.676724701,-11.70431076,2.56596405,2024-06-04 18:07:30.245147
27.28545158,0.8370593262,-10.37896683,-1.523382111,2024-06-04 18:07:30.285452
27.32575558,2.597398682,-14.95824417,4.342020721,2024-06-04 18:07:30.325756
27.36605958,3.665278015,-15.87418945,2.97790741,2024-06-04 18:07:30.366060
27.40636358,1.696122894,-9.951455841,2.093546448,2024-06-04 18:07:30.406364
27.44666758,-1.25783432,-7.98469574,-2.076182556,2024-06-04 18:07:30.446668
27.48697158,-4.22990387,-7.112609253,-0.05463638306,2024-06-04 18:07:30.486972
27.52727558,0.3697311401,-4.402345276,-0.06316864014,2024-06-04 18:07:30.527276
27.56758058,3.774101715,-0.5655239868,-0.187559967,2024-06-04 18:07:30.567581
27.60788458,0.1278341675,-2.223925323,3.235372009,2024-06-04 18:07:30.607885
27.64818858,-1.978735199,-8.90079071,9.1477771,2024-06-04 18:07:30.648189
27.68849258,-0.970581665,-16.45468231,16.85809341,2024-06-04 18:07:30.688493
27.72879658,-1.351988525,-7.447462921,7.386838989,2024-06-04 18:07:30.728797
27.76910058,3.474125519,-12.37476654,9.18160675,2024-06-04 18:07:30.769101
27.80940458,4.029171295,-14.44391373,-0.7954458618,2024-06-04 18:07:30.809405
27.84970858,2.072889404,0.1118174744,-1.783690796,2024-06-04 18:07:30.849709
27.89001358,2.436632996,-8.319848785,-4.581971741,2024-06-04 18:07:30.890014
27.93031825,-3.5208284,-18.46230743,-7.5154216,2024-06-04 18:07:30.930318
27.97062225,-3.735931091,-9.439670105,2.959645386,2024-06-04 18:07:30.970622
28.01092625,-0.4144880676,-8.601413269,3.107986908,2024-06-04 18:07:31.010926
28.05123025,2.132914581,-8.961414642,-0.02350112915,2024-06-04 18:07:31.051230
28.09153425,1.583706665,-8.321944427,1.960922241,2024-06-04 18:07:31.091534
28.13183825,0.3839515686,-7.953261108,1.042881317,2024-06-04 18:07:31.131838
28.17214225,-1.294358368,-9.127419434,2.209704895,2024-06-04 18:07:31.172142
28.21244725,-3.683240662,-10.5545517,2.719544678,2024-06-04 18:07:31.212447
28.25275125,-5.937702484,-12.20696548,1.64747406,2024-06-04 18:07:31.252751
28.29305525,-5.857768707,-13.68394409,3.597319336,2024-06-04 18:07:31.293055
28.33335925,-4.66864151,-11.92285629,-0.6303392029,2024-06-04 18:07:31.333359
28.37366325,4.538412323,-10.80333435,3.524570618,2024-06-04 18:07:31.373663
28.41396725,3.942950592,-17.44262787,0.6033952332,2024-06-04 18:07:31.413967
28.45427125,2.639012146,-13.60835129,3.479514313,2024-06-04 18:07:31.454271
28.49457525,1.549278259,-7.525001678,0.8872050476,2024-06-04 18:07:31.494575
28.53488025,0.4022135925,-6.962172089,-0.5596861267,2024-06-04 18:07:31.534880
28.57518425,-1.751058655,-7.082970886,0.02469863892,2024-06-04 18:07:31.575184
28.61548825,-2.933150482,-5.09450592,0.9187893677,2024-06-04 18:07:31.615488
28.65579225,1.470392303,-2.60338623,1.084494781,2024-06-04 18:07:31.655792
28.69609625,1.096469879,-3.254681854,2.382445679,2024-06-04 18:07:31.696096
28.73640025,-0.9259744263,-8.280780029,6.007008362,2024-06-04 18:07:31.736400
28.77670425,-1.569785614,-15.66267929,16.53132294,2024-06-04 18:07:31.776704
28.81700825,-1.743873596,-10.8093219,8.89734787,2024-06-04 18:07:31.817008
28.85731225,0.7307803345,-4.919370117,6.770720215,2024-06-04 18:07:31.857312
28.89761725,4.026027832,-3.942651215,0.7062313843,2024-06-04 18:07:31.897617
28.93792083,7.292086029,-18.48655701,3.907923431,2024-06-04 18:07:31.937921
28.97822483,0.2375559998,-6.232289886,-4.842430115,2024-06-04 18:07:31.978225
29.01852883,2.250569916,-6.293662262,-3.466341705,2024-06-04 18:07:32.018529
29.05883283,-1.94116333,-14.49405945,-5.023852844,2024-06-04 18:07:32.058833
29.09913683,-3.911366272,-10.6713089,8.67850296,2024-06-04 18:07:32.099137
29.13944083,1.482217712,-7.67109787,4.123924255,2024-06-04 18:07:32.139441
29.17974483,1.344653778,-9.012308807,-0.1092727661,2024-06-04 18:07:32.179745
29.22004883,0.4135899353,-7.776029663,0.5477110291,2024-06-04 18:07:32.220049
29.26035383,-0.9145980835,-7.760611725,1.373094635,2024-06-04 18:07:32.260354
29.30065783,-2.1459375,-10.89180038,3.206931152,2024-06-04 18:07:32.300658
29.34096183,-3.905528412,-11.91716812,4.022135925,2024-06-04 18:07:32.340962
29.38126583,-4.99855545,-12.4310495,0.8699908447,2024-06-04 18:07:32.381266
29.42156983,-3.268303528,-12.92232788,4.085304565,2024-06-04 18:07:32.421570
29.46187383,-4.755311279,-13.2989447,-1.512155457,2024-06-04 18:07:32.461874
29.50217783,2.091450806,-9.920170898,2.000140686,2024-06-04 18:07:32.502178
29.54248183,4.063450012,-12.29872467,-0.9452842712,2024-06-04 18:07:32.542482
29.58278583,2.324665833,-17.67823792,4.322112122,2024-06-04 18:07:32.582786
29.62308983,0.526305542,-10.33346146,1.981728973,2024-06-04 18:07:32.623090
29.66339483,-1.331481171,-7.995473328,-2.475701752,2024-06-04 18:07:32.663395
29.70369883,-3.006947021,-7.248227234,-0.5369334412,2024-06-04 18:07:32.703699
29.74400283,0.6505471802,-4.50248703,-0.4254153442,2024-06-04 18:07:32.744003
29.78430683,3.059487762,-2.357447662,0.6015989685,2024-06-04 18:07:32.784307
29.82461083,1.104253693,-2.625989227,2.527194672,2024-06-04 18:07:32.824611
29.86491483,-1.640887756,-6.142177277,6.641838226,2024-06-04 18:07:32.864915
29.90521975,-0.2526745605,-13.64577347,14.5623175,2024-06-04 18:07:32.905220
29.94552375,-2.461331635,-12.60334122,9.006021881,2024-06-04 18:07:32.945524
29.98582775,1.695374451,-9.125323792,9.040450287,2024-06-04 18:07:32.985828
30.02613175,6.570586395,-17.91564423,2.6993367,2024-06-04 18:07:33.026132
30.06643575,3.936663666,-1.49419281,-4.072131958,2024-06-04 18:07:33.066436
30.10674075,0.4004173279,-5.995632019,-1.94355835,2024-06-04 18:07:33.106741
30.14704475,1.322350159,-12.68836441,-5.580844574,2024-06-04 18:07:33.147045
30.18734875,-8.672066345,-17.18351669,9.9188237,2024-06-04 18:07:33.187349
30.22765275,-2.130070496,-7.769293671,3.351680145,2024-06-04 18:07:33.227653
30.26795675,1.407223663,-7.676037598,0.3728746033,2024-06-04 18:07:33.267957
30.30826075,0.4728666687,-8.330925751,1.678459625,2024-06-04 18:07:33.308261
30.34856475,1.06249054,-8.306227112,2.257904663,2024-06-04 18:07:33.348565
30.38886875,-0.08068222046,-8.969647522,0.6713539124,2024-06-04 18:07:33.388869
30.42917275,-2.714455261,-10.58029816,2.95096344,2024-06-04 18:07:33.429173
30.46947675,-5.355113983,-12.13676147,2.092798004,2024-06-04 18:07:33.469477
30.50978075,-4.587210846,-12.80811539,2.069446564,2024-06-04 18:07:33.509781
30.55008575,-3.218307495,-12.61067596,2.625839539,2024-06-04 18:07:33.550086
30.59038975,-2.973566437,-11.33428024,0.4463717651,2024-06-04 18:07:33.590390
30.63069375,0.5667214966,-10.22643402,1.056952057,2024-06-04 18:07:33.630694
30.67099775,3.443738708,-11.88543411,-2.849923553,2024-06-04 18:07:33.670998
30.71130175,2.400707703,-17.06211914,5.144352264,2024-06-04 18:07:33.711302
30.75160575,1.483115845,-10.19410126,2.593506775,2024-06-04 18:07:33.751606
30.79190975,0.1546284485,-7.85132309,-0.409997406,2024-06-04 18:07:33.791910
30.83221375,-2.292333069,-7.388934631,-0.7337741089,2024-06-04 18:07:33.832214
30.87251775,-1.398990784,-5.857319641,0.6792874146,2024-06-04 18:07:33.872518
30.91282071,2.241289215,-2.808908844,0.6119274902,2024-06-04 18:07:33.912821
30.95312471,2.154918823,-2.745440826,2.084714813,2024-06-04 18:07:33.953125
30.99342871,-0.9500743103,-5.608686676,5.286706238,2024-06-04 18:07:33.993429
31.03373271,-1.399888916,-11.86672302,11.67661835,2024-06-04 18:07:34.033733
31.07403771,-2.142045593,-13.97568741,12.56337433,2024-06-04 18:07:34.074038
31.11434171,0.04999603271,-9.774074707,9.19223465,2024-06-04 18:07:34.114342
31.15464571,5.39059021,-18.5025737,1.827998657,2024-06-04 18:07:34.154646
31.19494971,3.782035217,-1.313368835,-3.393443298,2024-06-04 18:07:34.194950
31.23525371,-1.369352417,-6.716981964,-2.576891327,2024-06-04 18:07:34.235254
31.27555771,0.6349795532,-12.71426056,-6.257736969,2024-06-04 18:07:34.275558
31.31586171,-7.184609528,-15.96190704,9.484576721,2024-06-04 18:07:34.315862
31.35616571,-0.06092330933,-7.843539276,4.627327423,2024-06-04 18:07:34.356166
31.39646971,0.2257305908,-7.111860809,0.9928852844,2024-06-04 18:07:34.396470
31.43677371,-0.7807763672,-7.573351135,1.410666504,2024-06-04 18:07:34.436774
31.47707771,-0.2830613708,-9.743987274,3.756438446,2024-06-04 18:07:34.477078
31.51738171,0.02320175171,-9.195527802,1.719624023,2024-06-04 18:07:34.517382
31.55768571,0.7045848083,-8.355774078,0.2350112915,2024-06-04 18:07:34.557686
31.59798971,-1.863325195,-10.96529755,2.803070984,2024-06-04 18:07:34.597990
31.63829371,-5.132377167,-12.39557327,0.553099823,2024-06-04 18:07:34.638294
31.67859771,-3.420536957,-12.78087204,4.337230682,2024-06-04 18:07:34.678598
31.71890271,-3.861968994,-12.12119385,1.509610748,2024-06-04 18:07:34.718903
31.75920671,-3.772155762,-12.4070993,2.834505615,2024-06-04 18:07:34.759207
31.79951071,-0.04924758911,-9.686806183,-2.294728088,2024-06-04 18:07:34.799511
31.83981471,3.400179291,-15.37901917,2.604733429,2024-06-04 18:07:34.839815
31.88011871,2.462678833,-14.2226738,3.419788513,2024-06-04 18:07:34.880119
31.92042296,-0.01242416382,-9.422605591,1.347348175,2024-06-04 18:07:34.920423
31.96072696,-0.7798782349,-7.474855957,-2.011666718,2024-06-04 18:07:34.960727
32.00103096,-3.163820801,-8.171507263,0.01107696533,2024-06-04 18:07:35.001031
32.04133496,-0.1872605896,-5.673651581,0.4447251892,2024-06-04 18:07:35.041335
32.08163896,2.840044098,-3.231480103,1.025068359,2024-06-04 18:07:35.081639
32.12194296,1.177002411,-3.502416687,2.110161896,2024-06-04 18:07:35.121943
32.16224696,-0.5791456604,-7.119045868,6.070177002,2024-06-04 18:07:35.162247
32.20255096,-1.407073975,-11.27874573,12.72623566,2024-06-04 18:07:35.202551
32.24285496,-3.191662903,-13.51763992,10.58149567,2024-06-04 18:07:35.242855
32.28315896,-1.87679718,-7.146139526,7.876770172,2024-06-04 18:07:35.283159
32.32346296,4.717589722,-7.766299896,4.600533142,2024-06-04 18:07:35.323463
32.36376696,6.562952271,-15.43919403,3.650608521,2024-06-04 18:07:35.363767
32.40407096,0.5704637146,-5.939199371,-2.711461487,2024-06-04 18:07:35.404071
32.44437496,1.539249115,-6.803502045,-3.667373657,2024-06-04 18:07:35.444375
32.48467996,-0.6948550415,-11.33936966,-5.302573242,2024-06-04 18:07:35.484680
32.52498396,-3.78517868,-11.39176071,5.630840607,2024-06-04 18:07:35.524984
32.56528796,1.228345642,-8.656798096,2.205363922,2024-06-04 18:07:35.565288
32.60559196,1.509760437,-8.107590179,1.669178925,2024-06-04 18:07:35.605592
32.64589596,-0.3459306335,-8.271499329,1.983225861,2024-06-04 18:07:35.645896
32.68619996,-2.075134735,-8.881181488,0.7246430969,2024-06-04 18:07:35.686200
32.72650396,-0.7608677673,-8.697812805,1.101559296,2024-06-04 18:07:35.726504
32.76680796,-0.8553213501,-10.05354355,3.269501038,2024-06-04 18:07:35.766808
32.80711196,-2.739004211,-11.99874847,1.653461609,2024-06-04 18:07:35.807112
32.84741596,-4.582570496,-13.2047905,2.497107239,2024-06-04 18:07:35.847416
32.88771996,-1.986968079,-11.95938034,3.835474091,2024-06-04 18:07:35.887720
32.92802338,-3.908671875,-12.02030365,0.7773335266,2024-06-04 18:07:35.928023
32.96832737,-2.24652832,-10.11506561,0.3866459656,2024-06-04 18:07:35.968327
33.00863137,2.653232574,-11.771521,-2.984793091,2024-06-04 18:07:36.008631
33.04893538,2.97431488,-16.48147659,3.46574295,2024-06-04 18:07:36.048935
33.08923937,1.895957336,-11.77511353,2.257904663,2024-06-04 18:07:36.089239
33.12954337,0.7420069885,-8.11687088,0.2070195007,2024-06-04 18:07:36.129543
33.16984738,-1.551373901,-7.473059692,-1.025816803,2024-06-04 18:07:36.169847
33.21015138,-1.288670197,-6.210734711,0.1293310547,2024-06-04 18:07:36.210151
33.25045537,1.714983673,-3.536994781,0.6497987366,2024-06-04 18:07:36.250455
33.29075937,1.62053009,-2.886148224,1.25783432,2024-06-04 18:07:36.290759
33.33106338,-0.6315367126,-5.647306366,4.977000275,2024-06-04 18:07:36.331063
33.37136738,-2.408341827,-11.18728592,11.44475052,2024-06-04 18:07:36.371367
33.41167137,-1.893562317,-12.87607407,11.28383514,2024-06-04 18:07:36.411671
33.45197537,-1.045276337,-7.772437134,8.285719757,2024-06-04 18:07:36.451975
33.49227938,4.709955597,-7.89578064,6.938820648,2024-06-04 18:07:36.492279
33.53258338,7.320377197,-15.24609558,0.75353302,2024-06-04 18:07:36.532583
33.57288737,-1.937870178,-7.455097046,-2.452350311,2024-06-04 18:07:36.572887
33.61319137,1.269060974,-4.184847565,-3.141816559,2024-06-04 18:07:36.613191
33.65349538,0.5254074097,-10.86530548,-5.076842651,2024-06-04 18:07:36.653495
33.69379938,-6.177952881,-14.00487671,11.26991409,2024-06-04 18:07:36.693799
33.73410337,1.565893707,-7.640860748,4.661157074,2024-06-04 18:07:36.734103
33.77440738,1.333277435,-8.351732483,0.9494755554,2024-06-04 18:07:36.774407
33.81471138,0.3362008667,-8.701405334,1.136436768,2024-06-04 18:07:36.814711
33.85501537,-1.143023071,-8.33212326,1.514400787,2024-06-04 18:07:36.855015
33.89531937,-0.5090913391,-9.118288422,0.2151026917,2024-06-04 18:07:36.895319
33.93562338,0.1754351807,-8.848549347,1.806293793,2024-06-04 18:07:36.935623
33.97592738,-1.673669586,-11.6427887,1.71303772,2024-06-04 18:07:36.975927
34.01623137,-5.662424927,-12.15397568,0.307610321,2024-06-04 18:07:37.016231
34.05653537,-2.602637787,-12.33345245,4.264631653,2024-06-04 18:07:37.056535
34.09683938,-2.721340942,-10.04037094,3.64132782,2024-06-04 18:07:37.096839
34.13714338,-2.942131805,-11.66853516,1.06249054,2024-06-04 18:07:37.137143
34.17744737,-0.3894900513,-11.61779068,-3.205733643,2024-06-04 18:07:37.177447
34.21775137,5.257966003,-16.69343582,2.705324249,2024-06-04 18:07:37.217751
34.25805538,3.867657166,-13.09102707,4.346661072,2024-06-04 18:07:37.258055
34.29835938,-0.1154100037,-9.218579865,0.9943821716,2024-06-04 18:07:37.298359
34.33866337,-1.325792999,-8.816216583,-2.193837891,2024-06-04 18:07:37.338663
34.37896737,-1.739532623,-8.143066406,-0.163460083,2024-06-04 18:07:37.378967
34.41927138,1.603615265,-3.789819031,1.410067749,2024-06-04 18:07:37.419271
34.45957537,2.301913147,-2.611170044,0.8208929443,2024-06-04 18:07:37.459575
34.49987937,-0.2329156494,-2.892884216,1.816622314,2024-06-04 18:07:37.499879
34.54018338,-0.5498066711,-6.230493622,5.581143951,2024-06-04 18:07:37.540183
34.58048738,-0.479153595,-13.51404739,14.04993301,2024-06-04 18:07:37.580487
34.62079137,-0.5514532471,-12.36788086,10.37971527,2024-06-04 18:07:37.620791
34.66109537,1.198557587,-5.434149628,7.635322266,2024-06-04 18:07:37.661095
34.70139938,4.929848328,-7.958350525,6.884034576,2024-06-04 18:07:37.701399
34.74170338,4.642745361,-20.66467758,5.882467346,2024-06-04 18:07:37.741703
34.78200737,0.7503895569,-2.261048126,-5.838608551,2024-06-04 18:07:37.782007
34.82231137,2.466870117,-6.336922302,-1.735940094,2024-06-04 18:07:37.822311
34.86261538,2.084714813,-12.33435059,-5.075645142,2024-06-04 18:07:37.862615
34.90291938,-9.231902161,-17.60758484,7.498506775,2024-06-04 18:07:37.902919
34.94322396,-1.219663696,-6.677015076,2.851420441,2024-06-04 18:07:37.943224
34.98352796,1.764979706,-8.275690613,1.02267334,2024-06-04 18:07:37.983528
35.02383196,0.8738827515,-8.737180939,1.8194664,2024-06-04 18:07:38.023832
35.06413596,-0.9165440369,-8.029452667,0.6710545349,2024-06-04 18:07:38.064136
35.10443996,-0.9439370728,-8.505462799,0.7493417358,2024-06-04 18:07:38.104440
35.14474396,-1.521585846,-9.802814941,3.473826141,2024-06-04 18:07:38.144744
35.18504796,-2.813100128,-11.37754028,2.205214233,2024-06-04 18:07:38.185048
35.22535196,-4.615651703,-13.32768494,2.688559113,2024-06-04 18:07:38.225352
35.26565596,-0.6218069458,-12.69390289,4.261039124,2024-06-04 18:07:38.265656
35.30595996,-2.430795135,-12.31519043,0.9467811584,2024-06-04 18:07:38.305960
35.34626296,-1.913470917,-10.39498352,-0.7113208008,2024-06-04 18:07:38.346263
35.38656696,3.180735626,-14.88654327,1.183588715,2024-06-04 18:07:38.386567
35.42687096,3.99579071,-17.18426514,3.849095764,2024-06-04 18:07:38.426871
35.46717496,0.121098175,-10.61128372,0.9618997192,2024-06-04 18:07:38.467175
35.50747896,-1.577569427,-8.786727905,-1.612895966,2024-06-04 18:07:38.507479
35.54778296,-3.069217529,-9.226064301,-0.1502874756,2024-06-04 18:07:38.547783
35.58808696,0.02335144043,-6.015091553,0.1255888367,2024-06-04 18:07:38.588087
35.62839096,3.569177856,-2.689756622,0.1437011719,2024-06-04 18:07:38.628391
35.66869496,2.292482758,-2.968776398,1.295406189,2024-06-04 18:07:38.668695
35.70899896,0.0173638916,-4.019441528,4.832550659,2024-06-04 18:07:38.708999
35.74930296,-0.5816903687,-7.575895844,9.026529236,2024-06-04 18:07:38.749303
35.78960696,-0.8478369141,-10.70753357,12.06326431,2024-06-04 18:07:38.789607
35.82991096,-2.031425629,-9.347162476,8.821755066,2024-06-04 18:07:38.829911
35.87021496,3.618724823,-18.746716,11.22725281,2024-06-04 18:07:38.870215
35.91051896,4.855453033,-10.70888077,1.145118713,2024-06-04 18:07:38.910519
35.95082296,3.059936829,0.6152206421,-2.551593933,2024-06-04 18:07:38.950823
35.99112696,1.53865036,-8.024213562,-6.174210663,2024-06-04 18:07:38.991127
36.03143096,-2.424657898,-17.16794907,-4.240082703,2024-06-04 18:07:39.031431
36.07173496,-2.245779877,-6.90349411,3.439098358,2024-06-04 18:07:39.071735
36.11203796,0.1453477478,-8.484805756,0.7559280396,2024-06-04 18:07:39.112038
36.15234196,1.64627655,-7.054679718,1.929188232,2024-06-04 18:07:39.152342
36.19264596,-0.4144880676,-9.181007996,2.171384583,2024-06-04 18:07:39.192646
36.23294996,-0.3423381042,-8.776549072,1.053509216,2024-06-04 18:07:39.232950
36.27325396,-0.0672102356,-8.241411896,0.6294410706,2024-06-04 18:07:39.273254
36.31355796,0.2935395813,-9.758656769,3.024610291,2024-06-04 18:07:39.313558
36.35386196,-2.523751831,-11.61973663,1.862576752,2024-06-04 18:07:39.353862
36.39416596,-5.71825882,-12.23825043,2.044448547,2024-06-04 18:07:39.394166
36.43446996,-3.011287994,-12.15652039,4.747377777,2024-06-04 18:07:39.434470
36.47477396,-6.347550201,-12.01476517,-0.6406677246,2024-06-04 18:07:39.474774
36.51507796,1.945953369,-9.180259552,2.346670074,2024-06-04 18:07:39.515078
36.55538196,2.966082001,-14.66530334,-0.646355896,2024-06-04 18:07:39.555382
36.59568496,2.932701416,-19.94168106,4.732708282,2024-06-04 18:07:39.595685
36.63598896,1.607956238,-11.78663956,1.561552734,2024-06-04 18:07:39.635989
36.67629296,-0.1519340515,-8.65155899,-0.9134005737,2024-06-04 18:07:39.676293
36.71659696,-2.697241058,-7.38908432,-0.4643344116,2024-06-04 18:07:39.716597
36.75690096,0.1589694214,-5.769152985,-0.4682263184,2024-06-04 18:07:39.756901
36.79720496,3.64013031,-1.711091766,-0.4254153442,2024-06-04 18:07:39.797205
36.83750896,1.725461884,-2.833158417,1.048569489,2024-06-04 18:07:39.837509
36.87781296,0.3438349915,-3.796704712,6.181395721,2024-06-04 18:07:39.877813
36.91811721,-1.06129303,-12.23810074,12.24618393,2024-06-04 18:07:39.918117
36.95842121,-0.7641609192,-10.49407745,11.86881866,2024-06-04 18:07:39.958421
36.99872521,1.973346405,-10.12509476,9.660011902,2024-06-04 18:07:39.998725
37.03902821,7.870333557,-21.6053215,6.058950348,2024-06-04 18:07:40.039028
37.07933221,3.479364624,0.5701643372,-4.549189911,2024-06-04 18:07:40.079332
37.11963621,-0.9439370728,-6.692283325,-3.233575745,2024-06-04 18:07:40.119636
37.15994021,-0.5649252319,-14.34541855,-6.516099701,2024-06-04 18:07:40.159940
37.20024421,-3.705095215,-11.09432922,4.579576721,2024-06-04 18:07:40.200244
37.24054821,0.2092648315,-8.586444397,3.281625824,2024-06-04 18:07:40.240548
37.28085221,2.189796295,-8.140970764,1.093027039,2024-06-04 18:07:40.280852
37.32115621,1.098116455,-8.147706757,1.494791565,2024-06-04 18:07:40.321156
37.36146021,-0.1166075134,-8.240364075,0.7879614258,2024-06-04 18:07:40.361460
37.40176321,-0.07020401001,-8.755442963,1.248104553,2024-06-04 18:07:40.401763
37.44206721,-0.5158273315,-8.814120941,2.824775848,2024-06-04 18:07:40.442067
37.48237121,-1.775607605,-11.21363113,1.228046265,2024-06-04 18:07:40.482371
37.52267521,-5.931565247,-12.201427,1.68729126,2024-06-04 18:07:40.522675
37.56297921,-3.525019684,-11.86926773,4.794529724,2024-06-04 18:07:40.562979
37.60328321,-4.471950531,-13.41076218,0.2103126526,2024-06-04 18:07:40.603283
37.64358721,-2.258802795,-10.84973785,-0.6237528992,2024-06-04 18:07:40.643587
37.68389121,5.666017456,-13.76732071,1.272503815,2024-06-04 18:07:40.683891
37.72419521,3.355272675,-17.2365065,1.489402771,2024-06-04 18:07:40.724195
37.76449821,-0.3098556519,-10.06147705,2.249821472,2024-06-04 18:07:40.764498
37.80480221,-0.04535568237,-7.793842621,-0.7587721252,2024-06-04 18:07:40.804802
37.84510621,-1.414259033,-8.628955994,-1.232686615,2024-06-04 18:07:40.845106
37.88541021,-1.565893707,-6.71743103,-0.5689668274,2024-06-04 18:07:40.885410
37.92571421,2.032174072,-3.384312286,0.7737409973,2024-06-04 18:07:40.925714
37.96601821,1.986668701,-2.89483017,1.288520508,2024-06-04 18:07:40.966018
38.00632221,1.148711243,-5.736820221,4.766388245,2024-06-04 18:07:41.006322
38.04662521,-0.3996688843,-12.7588678,12.1577179,2024-06-04 18:07:41.046625
38.08692921,-2.498005371,-12.25875778,10.98221237,2024-06-04 18:07:41.086929
38.12723321,-0.9187893677,-6.243815918,8.473130035,2024-06-04 18:07:41.127233
38.16753721,5.075345764,-8.51234848,4.03560791,2024-06-04 18:07:41.167537
38.20784121,3.806883545,-17.84603897,2.784210205,2024-06-04 18:07:41.207841
38.24814521,2.031725006,-4.639302521,-2.707719269,2024-06-04 18:07:41.248145
38.28844921,3.16397049,-6.526877289,-2.021396484,2024-06-04 18:07:41.288449
38.32875221,-0.08262817383,-12.03886505,-5.736520844,2024-06-04 18:07:41.328752
38.36905621,-4.916975098,-11.44969025,10.82324295,2024-06-04 18:07:41.369056
38.40936021,-0.2580633545,-8.460556183,3.375330963,2024-06-04 18:07:41.409360
38.44966421,2.071841583,-8.769364014,0.1199006653,2024-06-04 18:07:41.449664
38.48996821,0.79215271,-8.623267822,0.9175918579,2024-06-04 18:07:41.489968
38.53027221,-0.5227130127,-8.139773254,0.9708810425,2024-06-04 18:07:41.530272
38.57057621,-1.375789032,-9.435179443,2.121089172,2024-06-04 18:07:41.570576
38.61087921,-2.806962891,-11.37843842,2.616109772,2024-06-04 18:07:41.610879
38.65118321,-5.101840668,-12.54526199,1.133592682,2024-06-04 18:07:41.651183
38.69148721,-3.986659698,-11.63904648,4.0251297,2024-06-04 18:07:41.691487
38.73179121,-4.484524384,-13.65235977,0.4114942932,2024-06-04 18:07:41.731791
38.77209521,0.6068380737,-10.52955368,1.765877838,2024-06-04 18:07:41.772095
38.81239821,6.044580231,-15.55939407,1.517993317,2024-06-04 18:07:41.812398
38.85270221,2.848576355,-17.32197876,2.777474213,2024-06-04 18:07:41.852702
38.89300621,1.059796143,-8.965007172,2.546953583,2024-06-04 18:07:41.893006
38.93330971,0.1764830017,-8.476872253,-1.49419281,2024-06-04 18:07:41.933310
38.97361371,-1.302591248,-7.261250153,-1.206790466,2024-06-04 18:07:41.973614
39.01391771,-1.138981476,-5.588927765,-1.103505249,2024-06-04 18:07:42.013918
39.05422071,2.112706604,-3.096610565,1.022224274,2024-06-04 18:07:42.054221
39.09452471,1.478475494,-3.108286285,2.163600769,2024-06-04 18:07:42.094525
39.13482871,0.2421963501,-6.054908752,6.068530426,2024-06-04 18:07:42.134829
39.17513271,-0.5310955811,-12.51472549,11.80085999,2024-06-04 18:07:42.175133
39.21543671,-4.019890594,-13.41854599,10.76785812,2024-06-04 18:07:42.215437
39.25574071,-0.535436554,-19.79992584,10.78387482,2024-06-04 18:07:42.255741
39.29604371,2.636317749,-10.68118835,-3.622467041,2024-06-04 18:07:42.296044
39.33634771,9.625583496,6.954837341,1.024469604,2024-06-04 18:07:42.336348
39.37665171,0.7333250427,-8.818761292,-4.097429352,2024-06-04 18:07:42.376652
39.41695571,2.069147186,-17.4620874,-5.655688934,2024-06-04 18:07:42.416956
39.45725971,-7.80566803,-14.64958603,5.450615387,2024-06-04 18:07:42.457260
39.49756271,-3.955225067,-8.63868576,1.026415558,2024-06-04 18:07:42.497563
39.53786671,1.034648438,-8.269703064,-0.1916015625,2024-06-04 18:07:42.537867
39.57817071,2.077380066,-9.136999512,0.2423460388,2024-06-04 18:07:42.578171
39.61847471,2.59874588,-8.581953735,0.8711883545,2024-06-04 18:07:42.618475
39.65877871,1.37953125,-9.432335358,1.562600555,2024-06-04 18:07:42.658779
39.69908171,-3.67875,-10.19200562,3.549269257,2024-06-04 18:07:42.699082
39.73938571,-5.623356171,-11.73155411,0.9568103027,2024-06-04 18:07:42.739386
39.77968971,-5.573210449,-11.85055664,2.53797226,2024-06-04 18:07:42.779690
39.81999371,-3.262615356,-11.89651108,2.829715576,2024-06-04 18:07:42.819994
39.86029771,-2.535128174,-11.97210388,1.753753052,2024-06-04 18:07:42.860298
39.90060071,4.559069366,-11.97345108,1.67905838,2024-06-04 18:07:42.900601
39.94090521,3.301235046,-17.76026733,3.315904541,2024-06-04 18:07:42.940905
39.98120921,3.536695404,-12.70018982,4.555027771,2024-06-04 18:07:42.981209
40.02151321,0.7960446167,-9.008566589,1.874701538,2024-06-04 18:07:43.021513
40.06181621,-3.466790771,-10.26640091,-2.100132751,2024-06-04 18:07:43.061816
40.10212021,-1.597028961,-7.884404297,-0.3400927734,2024-06-04 18:07:43.102120
40.14242421,4.17721344,-2.291584625,-0.007035369873,2024-06-04 18:07:43.142424
40.18272821,2.969824219,-4.070635071,3.480113068,2024-06-04 18:07:43.182728
40.22303221,-0.4312532043,-4.809498596,7.967631226,2024-06-04 18:07:43.223032
40.26333521,-0.1381626892,-4.091591492,11.85310135,2024-06-04 18:07:43.263335
40.30363921,-0.6023474121,-4.808600464,11.0760672,2024-06-04 18:07:43.303639
40.34394321,-0.9590556335,-19.08546158,13.02082306,2024-06-04 18:07:43.343943
40.38424721,8.057743835,-1.546284485,-0.03338058472,2024-06-04 18:07:43.384247
40.42455021,-1.09048233,-4.961881714,1.852547607,2024-06-04 18:07:43.424550
40.46485421,-1.179547119,-11.56809402,3.215762787,2024-06-04 18:07:43.464854
40.50515821,1.913770294,-10.33720367,1.149459686,2024-06-04 18:07:43.505158
40.54546221,-1.076561279,-9.988878021,-0.922381897,2024-06-04 18:07:43.545462
40.58576621,-1.987566833,-10.35052597,-1.361718292,2024-06-04 18:07:43.585766
40.62606921,-4.567302246,-10.58553726,2.053429871,2024-06-04 18:07:43.626069
40.66637321,0.6607260132,-9.248068542,1.039288788,2024-06-04 18:07:43.666373
40.70667721,1.677561493,-9.588161316,0.283510437,2024-06-04 18:07:43.706677
40.74698121,1.144669647,-8.48899704,1.735341339,2024-06-04 18:07:43.746981
40.78728421,0.05942642212,-9.51167038,1.336420898,2024-06-04 18:07:43.787284
40.82758821,-1.769470367,-10.60873901,3.093616791,2024-06-04 18:07:43.827588
40.86789221,-5.679040375,-10.88596252,4.400998077,2024-06-04 18:07:43.867892
40.90819621,-3.708987122,-12.06685684,3.742816772,2024-06-04 18:07:43.908196
40.94849921,-5.763464813,-12.7349176,1.807640991,2024-06-04 18:07:43.948499
40.98880321,-1.815724182,-9.876611481,-0.02230361938,2024-06-04 18:07:43.988803
41.02910721,5.064867554,-13.58724518,0.9729766846,2024-06-04 18:07:44.029107
41.06941121,1.984573059,-17.09969101,2.75082962,2024-06-04 18:07:44.069411
41.10971421,1.967807922,-11.43666733,2.936593323,2024-06-04 18:07:44.109714
41.15001821,0.5637277222,-7.493117981,-0.3885919189,2024-06-04 18:07:44.150018
41.19032221,-2.353555756,-8.050259399,-1.935774536,2024-06-04 18:07:44.190322
41.23062621,-1.288520508,-5.870791626,-0.0252973938,2024-06-04 18:07:44.230626
41.27092921,1.605710907,-3.341950378,0.2002835083,2024-06-04 18:07:44.270929
41.31123321,2.905607758,-2.992127838,1.122515717,2024-06-04 18:07:44.311233
41.35153721,-0.4505630493,-4.362977142,4.439019012,2024-06-04 18:07:44.351537
41.39184021,-1.832639008,-10.92293564,11.4423555,2024-06-04 18:07:44.391840
41.43214421,-1.45677063,-12.66636017,13.89231079,2024-06-04 18:07:44.432144
41.47244821,-0.927171936,-10.44991928,7.66990036,2024-06-04 18:07:44.472448
41.51275221,4.243824921,-21.40009827,8.525970154,2024-06-04 18:07:44.512752
41.55305521,6.966063995,2.2056633,-5.766608276,2024-06-04 18:07:44.553055
41.59335921,1.188977509,-5.483846283,-0.4264631653,2024-06-04 18:07:44.593359
41.63366321,2.635569305,-11.46001877,-5.926625519,2024-06-04 18:07:44.633663
41.67396721,-12.05069046,-22.58712982,3.760030975,2024-06-04 18:07:44.673967
41.71427021,-4.995861053,-4.73884552,3.526067505,2024-06-04 18:07:44.714270
41.75457421,-0.5324427795,-8.753197632,0.1922003174,2024-06-04 18:07:44.754574
41.79487821,1.803898773,-7.743996277,1.553020477,2024-06-04 18:07:44.794878
41.83518121,1.348246307,-8.860823822,1.190773773,2024-06-04 18:07:44.835181
41.87548521,0.6562353516,-8.520431671,0.03742218018,2024-06-04 18:07:44.875485
41.91578912,1.022523651,-9.69294342,2.636018372,2024-06-04 18:07:44.915789
41.95609313,-3.782184906,-12.01686081,2.217788086,2024-06-04 18:07:44.956093
41.99639613,-5.659880219,-12.47835114,2.493814087,2024-06-04 18:07:44.996396
42.03670012,-5.925577698,-12.93325516,3.657494202,2024-06-04 18:07:45.036700
42.07700412,-5.025050354,-13.34879105,-1.162332916,2024-06-04 18:07:45.077004
42.11730713,1.046773224,-10.03947281,2.502496033,2024-06-04 18:07:45.117307
42.15761113,4.283941498,-14.34302353,0.2583627319,2024-06-04 18:07:45.157611
42.19791512,2.838996277,-16.09093872,2.934347992,2024-06-04 18:07:45.197915
42.23821812,3.6097435,-8.895551605,2.82687149,2024-06-04 18:07:45.238218
42.27852213,-0.6502478027,-8.76277771,-1.288819885,2024-06-04 18:07:45.278522
42.31882613,-3.551664276,-8.08768158,-0.8568182373,2024-06-04 18:07:45.318826
42.35913012,-0.8973838806,-5.512736206,-0.9065148926,2024-06-04 18:07:45.359130
42.39943312,3.724105682,-2.045945435,0.3155438232,2024-06-04 18:07:45.399433
42.43973713,1.979932709,-2.517015839,1.495540009,2024-06-04 18:07:45.439737
42.48004113,-0.9086105347,-5.739664307,5.703439636,2024-06-04 18:07:45.480041
42.52034412,-1.792971497,-12.00668198,14.70107895,2024-06-04 18:07:45.520344
42.56064812,-0.6424639893,-11.21363113,11.18234619,2024-06-04 18:07:45.560648
42.60095213,-1.063089294,-8.046217804,8.023165741,2024-06-04 18:07:45.600952
42.64125513,7.820636902,-21.22496246,8.671916656,2024-06-04 18:07:45.641255
42.68155912,2.716101837,-5.895639954,-2.215393066,2024-06-04 18:07:45.681559
42.72186312,0.06481521606,-2.258802795,-0.583636322,2024-06-04 18:07:45.721863
42.76216613,4.445455627,-9.214987335,-3.449277191,2024-06-04 18:07:45.762166
42.80247013,-1.927691345,-16.84626801,-6.142326965,2024-06-04 18:07:45.802470
42.84277412,-4.478686523,-8.284971313,2.822680206,2024-06-04 18:07:45.842774
42.88307712,-0.6403683472,-7.727829895,1.436712341,2024-06-04 18:07:45.883077
42.92338108,1.547182617,-7.648644562,1.805994415,2024-06-04 18:07:45.923381
42.96368508,0.5942642212,-8.729846191,1.484912109,2024-06-04 18:07:45.963685
43.00398808,-0.3161425781,-8.308322754,0.5869294739,2024-06-04 18:07:46.003988
43.04429208,-0.3689826965,-9.741891632,2.405497742,2024-06-04 18:07:46.044292
43.08459608,-1.940115509,-11.24506577,1.894460449,2024-06-04 18:07:46.084596
43.12489908,-4.899910583,-12.90391617,1.865271149,2024-06-04 18:07:46.124899
43.16520308,-4.544998627,-11.94022018,4.136049042,2024-06-04 18:07:46.165203
43.20550708,-4.964426422,-12.06311462,1.636397095,2024-06-04 18:07:46.205507
43.24581008,-3.704646149,-11.37319931,-1.136736145,2024-06-04 18:07:46.245810
43.28611408,4.254303131,-13.64996475,0.4755610657,2024-06-04 18:07:46.286114
43.32641808,2.766696625,-16.28553406,2.439776459,2024-06-04 18:07:46.326418
43.36672108,2.078427887,-12.60962814,2.490520935,2024-06-04 18:07:46.366721
43.40702508,0.3266207886,-10.01357666,1.835483093,2024-06-04 18:07:46.407025
43.44732908,-1.013093262,-8.887767792,-1.34914444,2024-06-04 18:07:46.447329
43.48763208,-3.106789398,-8.481662292,-1.447938995,2024-06-04 18:07:46.487632
43.52793608,1.648072815,-2.875670013,-0.4885839844,2024-06-04 18:07:46.527936
43.56824008,3.256478119,-0.8008346558,0.6221063232,2024-06-04 18:07:46.568240
43.60854308,0.5029541016,-3.048710175,2.851420441,2024-06-04 18:07:46.608543
43.64884708,-1.200204163,-9.707463226,9.922565918,2024-06-04 18:07:46.648847
43.68915008,-1.839375,-14.6274321,15.69276672,2024-06-04 18:07:46.689150
43.72945408,-1.892664185,-8.358767853,7.620952148,2024-06-04 18:07:46.729454
43.76975808,5.611081696,-15.78317871,12.23286163,2024-06-04 18:07:46.769758
43.81006108,3.363206177,-10.98939743,-0.3332070923,2024-06-04 18:07:46.810061
43.85036508,3.249742126,0.2402503967,-2.5812323,2024-06-04 18:07:46.850365
43.89066908,0.9650431824,-7.64654892,-4.762646027,2024-06-04 18:07:46.890669
43.9309715,-2.038910065,-17.86400162,-4.923411713,2024-06-04 18:07:46.930971
43.9712755,-1.519041138,-9.129814453,2.125579834,2024-06-04 18:07:46.971275
44.0115795,0.5408253479,-8.515791321,1.70719986,2024-06-04 18:07:47.011580
44.0518825,1.876497803,-7.760761414,0.8232879639,2024-06-04 18:07:47.051882
44.0921865,0.3432362366,-8.642577667,1.093625793,2024-06-04 18:07:47.092186
44.1324895,-0.9488768005,-8.854985962,0.639919281,2024-06-04 18:07:47.132489
44.1727935,0.002993774414,-8.966653748,0.8415499878,2024-06-04 18:07:47.172793
44.2130975,-1.141077118,-10.70139633,2.26643692,2024-06-04 18:07:47.213098
44.2534005,-2.611319733,-11.68455185,2.206112366,2024-06-04 18:07:47.253400
44.2937045,-5.250481567,-11.81193695,1.13493988,2024-06-04 18:07:47.293704
44.3340075,-4.639901276,-11.96566727,3.169958038,2024-06-04 18:07:47.334007
44.3743115,-4.736749878,-12.98684372,-1.786834259,2024-06-04 18:07:47.374311
44.4146155,-0.2588117981,-11.23383911,2.328258362,2024-06-04 18:07:47.414615
44.4549185,3.711681519,-11.18923187,-2.490371246,2024-06-04 18:07:47.454918
44.4952225,3.374133453,-17.39158401,4.172872467,2024-06-04 18:07:47.495222
44.5355265,4.097279663,-10.48255142,3.600163422,2024-06-04 18:07:47.535527
44.5758295,0.5876779175,-9.508676605,1.069825287,2024-06-04 18:07:47.575829
44.6161335,-1.692680054,-8.530760193,-0.8828640747,2024-06-04 18:07:47.616133
44.6564365,-3.510350189,-6.890171814,-0.3276686096,2024-06-04 18:07:47.656436
44.6967405,2.321821747,-3.623514862,0.2188449097,2024-06-04 18:07:47.696740
44.7370435,3.118165741,-2.853216705,1.286873932,2024-06-04 18:07:47.737043
44.7773475,0.292641449,-4.053869934,4.019142151,2024-06-04 18:07:47.777347
44.8176515,-0.5445675659,-7.465275879,8.589438171,2024-06-04 18:07:47.817651
44.8579545,0.1026864624,-11.38068375,13.7143309,2024-06-04 18:07:47.857954
44.8982585,-1.593436432,-9.974358215,9.556876373,2024-06-04 18:07:47.898258
44.93856171,0.3790118408,-16.50752243,10.8172554,2024-06-04 18:07:47.938562
44.97886571,4.920567627,-8.932824097,-0.8711883545,2024-06-04 18:07:47.978866
45.01916971,5.713319092,1.050964508,0.3101550293,2024-06-04 18:07:48.019170
45.05947271,2.527793427,-9.531129913,-4.768034821,2024-06-04 18:07:48.059473
45.09977671,0.8746311951,-14.07433228,-3.996239777,2024-06-04 18:07:48.099777
45.14007971,-6.763235779,-12.77862671,3.921096039,2024-06-04 18:07:48.140080
45.18038371,-1.642234955,-8.118966522,3.008144531,2024-06-04 18:07:48.180384
45.22068771,1.755848694,-7.677384796,1.634750519,2024-06-04 18:07:48.220688
45.26099071,0.1883084106,-8.638236694,1.604513397,2024-06-04 18:07:48.260991
45.30129471,0.4480183411,-8.536298676,1.052760773,2024-06-04 18:07:48.301295
45.34159771,0.5361849976,-8.681347046,1.573976898,2024-06-04 18:07:48.341598
45.38190171,-0.3909869385,-9.595346375,2.441423035,2024-06-04 18:07:48.381902
45.42220471,-3.122357025,-11.09881989,1.217568054,2024-06-04 18:07:48.422205
45.46250871,-5.319787445,-12.32462082,2.61625946,2024-06-04 18:07:48.462509
45.50281271,-3.615281982,-11.85444855,3.959865417,2024-06-04 18:07:48.502813
45.54311571,-3.989503784,-11.53665939,0.4827461243,2024-06-04 18:07:48.543116
45.58341971,-2.43139389,-11.94695618,1.26951004,2024-06-04 18:07:48.583420
45.62372271,4.228107605,-13.78812744,0.5068460083,2024-06-04 18:07:48.623723
45.66402671,4.048930206,-17.87462952,3.604055328,2024-06-04 18:07:48.664027
45.70432971,2.846630402,-10.90078171,2.478994904,2024-06-04 18:07:48.704330
45.74463371,-0.003442840576,-8.537496185,-0.07768844604,2024-06-04 18:07:48.744634
45.78493671,-3.419938202,-8.755293274,-1.299597473,2024-06-04 18:07:48.784937
45.82524071,-1.464404755,-6.015091553,-0.4677772522,2024-06-04 18:07:48.825241
45.86554371,4.355792084,-1.669927368,-0.2881507874,2024-06-04 18:07:48.865544
45.90584771,2.06286026,-3.636088715,1.344803467,2024-06-04 18:07:48.905848
45.94615208,0.45984375,-4.316873016,7.889493713,2024-06-04 18:07:48.946152
45.98645508,-1.4730867,-12.44497055,14.54420517,2024-06-04 18:07:48.986455
46.02675908,-1.449884949,-10.64032333,11.49729126,2024-06-04 18:07:49.026759
46.06706208,3.261717224,-21.10820526,7.272177429,2024-06-04 18:07:49.067062
46.10736608,6.568041687,2.213147736,-3.504811707,2024-06-04 18:07:49.107366
46.14766908,-0.502205658,-8.566086731,-2.159559174,2024-06-04 18:07:49.147669
46.18797308,2.966082001,-13.3175061,-1.782942352,2024-06-04 18:07:49.187973
46.22827608,-4.736300812,-15.9876535,-0.5649252319,2024-06-04 18:07:49.228276
46.26858008,-4.716392212,-7.16679657,0.9211843872,2024-06-04 18:07:49.268580
46.30888308,0.6896159363,-8.864416351,1.59134079,2024-06-04 18:07:49.308883
46.34918708,2.208058319,-7.732021179,1.729653168,2024-06-04 18:07:49.349187
46.38949008,1.426982574,-8.964109039,0.7325765991,2024-06-04 18:07:49.389490
46.42979408,1.064137115,-8.333620148,2.441273346,2024-06-04 18:07:49.429794
46.47009808,-0.6623725891,-9.200766907,2.043400726,2024-06-04 18:07:49.470098
46.51040108,-4.965025177,-11.03580093,2.953059082,2024-06-04 18:07:49.510401
46.55070508,-7.444469147,-12.50544479,3.178041229,2024-06-04 18:07:49.550705
46.59100808,-4.542453918,-11.68604874,6.279292145,2024-06-04 18:07:49.591008
46.63131208,0.5685177612,-9.942474518,4.728816376,2024-06-04 18:07:49.631312
46.67161508,-1.785636749,-14.18046158,-9.117539978,2024-06-04 18:07:49.671615
46.71191908,3.821702728,-20.68862778,6.77715683,2024-06-04 18:07:49.711919
46.75222208,4.334985352,-11.97839081,2.017803955,2024-06-04 18:07:49.752222
46.79252608,-0.7144642639,-7.558232574,-0.7509883118,2024-06-04 18:07:49.792526
46.83282908,-4.960983582,-8.727451172,-1.532213745,2024-06-04 18:07:49.832829
46.87313308,-1.228495331,-7.743397522,-2.646047516,2024-06-04 18:07:49.873133
46.91343608,4.629273376,-2.368524628,0.2950364685,2024-06-04 18:07:49.913436
46.95373983,2.971620483,-2.069745941,2.259102173,2024-06-04 18:07:49.953740
46.99404283,0.5304968262,-6.917115784,5.422623596,2024-06-04 18:07:49.994043
47.03434683,0.2311193848,-10.62715073,10.7880661,2024-06-04 18:07:50.034347
47.07464983,-4.56565567,-14.18195847,11.76044403,2024-06-04 18:07:50.074650
47.11495383,-2.075583801,-7.188351746,9.069639587,2024-06-04 18:07:50.114954
47.15525683,1.44853775,1.944306793,0.1381626892,2024-06-04 18:07:50.155257
47.19556083,11.83873123,-14.86124588,-3.110830994,2024-06-04 18:07:50.195561
47.23586383,0.9113049316,-14.83355347,-5.796396332,2024-06-04 18:07:50.235864
47.27616783,4.001179504,-5.693410492,-2.502196655,2024-06-04 18:07:50.276168
47.31647083,1.809886322,-9.171577606,-4.334985352,2024-06-04 18:07:50.316471
47.35677483,-3.137325897,-16.27385834,-4.115691376,2024-06-04 18:07:50.356775
47.39707783,-1.250349884,-8.426427155,1.197958832,2024-06-04 18:07:50.397078
47.43738183,0.9407936096,-9.231153717,0.902024231,2024-06-04 18:07:50.437382
47.47768483,0.567020874,-7.595056,1.647174683,2024-06-04 18:07:50.477685
47.51798883,-1.342558136,-7.550897827,0.5315446472,2024-06-04 18:07:50.517989
47.55829183,-3.113525391,-10.50784882,3.231629791,2024-06-04 18:07:50.558292
47.59859583,-3.137475586,-11.58261383,3.136128387,2024-06-04 18:07:50.598596
47.63889883,-5.331463165,-12.48478775,3.713028717,2024-06-04 18:07:50.638899
47.67920183,-4.27780426,-13.41794724,3.38042038,2024-06-04 18:07:50.679202
47.71950583,-1.955533447,-10.97951797,0.06810836792,2024-06-04 18:07:50.719506
47.75980883,6.416257324,-13.00974609,1.968556366,2024-06-04 18:07:50.759809
47.80011283,2.58242981,-19.46402435,1.582509155,2024-06-04 18:07:50.800113
47.84041583,1.906884613,-11.14402588,1.515448608,2024-06-04 18:07:50.840416
47.88071983,-0.03637435913,-8.68089798,0.3644920349,2024-06-04 18:07:50.880720
47.92102308,-2.172282715,-8.341254272,-0.0896635437,2024-06-04 18:07:50.921023
47.96132708,-0.6625222778,-5.190606079,-0.6429130554,2024-06-04 18:07:50.961327
48.00163008,2.985541534,-2.416574707,-0.2151026917,2024-06-04 18:07:51.001630
48.04193408,2.828967133,-2.884801025,1.325942688,2024-06-04 18:07:51.041934
48.08223708,0.7975415039,-3.843557281,4.620142365,2024-06-04 18:07:51.082237
48.12254108,-0.3135978699,-10.35067566,9.542655945,2024-06-04 18:07:51.122541
48.16284408,-2.948269043,-15.72794357,14.82008148,2024-06-04 18:07:51.162844
48.20314708,-3.040028229,-6.948700104,9.346863098,2024-06-04 18:07:51.203147
48.24345108,5.549260254,-14.57938202,4.760849762,2024-06-04 18:07:51.243451
48.28375408,6.899751892,-10.78641953,2.380948792,2024-06-04 18:07:51.283754
48.32405808,1.027164001,-3.490591278,-2.634970551,2024-06-04 18:07:51.324058
48.36436108,3.287014618,-8.231083374,-3.188968506,2024-06-04 18:07:51.364361
48.40466508,-0.6420149231,-13.75534561,-5.448220367,2024-06-04 18:07:51.404665
48.44496808,-5.116959229,-10.11880783,2.11435318,2024-06-04 18:07:51.444968
48.48527208,-1.530567169,-9.096433868,2.643951874,2024-06-04 18:07:51.485272
48.52557508,2.045496368,-7.843539276,1.081501007,2024-06-04 18:07:51.525575
48.56587908,1.299597473,-8.577762451,1.689536591,2024-06-04 18:07:51.565879
48.60618208,0.1679507446,-8.912316742,0.1582209778,2024-06-04 18:07:51.606182
48.64648508,-0.5144801331,-9.526639252,1.505718842,2024-06-04 18:07:51.646485
48.68678908,-2.293979645,-10.99763031,3.313210144,2024-06-04 18:07:51.686789
48.72709208,-3.630699921,-12.41099121,1.821711731,2024-06-04 18:07:51.727092
48.76739608,-5.030888214,-12.86335052,3.257226562,2024-06-04 18:07:51.767396
48.80769908,-3.434607697,-12.29228806,2.796784058,2024-06-04 18:07:51.807699
48.84800208,-3.819307709,-10.7921077,2.66071701,2024-06-04 18:07:51.848002
48.88830608,-0.05328918457,-10.17104919,-2.468367004,2024-06-04 18:07:51.888306
48.92860833,2.703078918,-16.89252182,2.529589691,2024-06-04 18:07:51.928608
48.96891233,3.663032684,-13.71927063,2.387235718,2024-06-04 18:07:51.968912
49.00921533,1.810485077,-8.853040009,2.037263489,2024-06-04 18:07:52.009215
49.04951933,-1.236877899,-8.176896057,-1.182241516,2024-06-04 18:07:52.049519
49.08982233,-3.798500977,-7.462282104,-1.108145599,2024-06-04 18:07:52.089822
49.13012533,1.247655487,-3.234324188,-0.7134164429,2024-06-04 18:07:52.130125
49.17042933,4.452790375,-1.935924225,0.3077600098,2024-06-04 18:07:52.170429
49.21073233,0.8434959412,-3.910318451,3.346291351,2024-06-04 18:07:52.210732
49.25103633,-0.5800437927,-8.432115326,7.680079193,2024-06-04 18:07:52.251036
49.29133933,-0.8493338013,-13.94140869,15.19056107,2024-06-04 18:07:52.291339
49.33164233,-3.503314819,-11.12306946,8.254434814,2024-06-04 18:07:52.331642
49.37194633,1.633852386,-6.984026642,7.00528244,2024-06-04 18:07:52.371946
49.41224933,7.135062561,-13.46734451,1.788630524,2024-06-04 18:07:52.412249
49.45255333,-0.1983375549,-9.906100159,2.182012482,2024-06-04 18:07:52.452553
49.49285633,1.814376984,-4.567302246,-2.398013306,2024-06-04 18:07:52.492856
49.53315933,2.613115997,-8.822204132,-3.303779755,2024-06-04 18:07:52.533159
49.57346333,-5.27473114,-16.8104924,-4.807253265,2024-06-04 18:07:52.573463
49.61376633,-2.766247559,-5.929918671,1.950144653,2024-06-04 18:07:52.613766
49.65407033,0.7044351196,-8.558751984,2.213297424,2024-06-04 18:07:52.654070
49.69437333,0.8803193665,-8.273894348,1.622476044,2024-06-04 18:07:52.694373
49.73467633,-0.2893482971,-9.128616943,1.121467896,2024-06-04 18:07:52.734676
49.77498033,-0.3239263916,-8.599766693,0.3760180664,2024-06-04 18:07:52.774980
49.81528333,0.9279203796,-9.27995224,1.69193161,2024-06-04 18:07:52.815283
49.85558733,-1.204096069,-10.9645491,3.143163757,2024-06-04 18:07:52.855587
49.89589033,-4.558021545,-12.41458374,1.101259918,2024-06-04 18:07:52.895890
49.93619383,-5.861660614,-11.68994064,2.89123764,2024-06-04 18:07:52.936194
49.97649783,-3.608695679,-13.26421692,1.6416362,2024-06-04 18:07:52.976498
50.01680083,-3.175346832,-10.346185,1.340013428,2024-06-04 18:07:53.016801
50.05710483,3.92334137,-12.03482346,2.618504791,2024-06-04 18:07:53.057105
50.09740783,2.360441437,-17.93690002,0.8131091309,2024-06-04 18:07:53.097408
50.13771083,3.381917267,-11.67167862,2.914589081,2024-06-04 18:07:53.137711
50.17801483,1.542542267,-8.388705597,0.8884025574,2024-06-04 18:07:53.178015
50.21831783,-0.398770752,-8.141868896,-1.676064606,2024-06-04 18:07:53.218318
50.25862083,-2.940934296,-7.775879974,0.08577163696,2024-06-04 18:07:53.258621
50.29892483,-0.6872209167,-6.281088409,0.8342152405,2024-06-04 18:07:53.298925
50.33922783,2.977009277,-3.661835175,0.06765930176,2024-06-04 18:07:53.339228
50.37953183,2.106569366,-1.981279907,2.056273956,2024-06-04 18:07:53.379532
50.41983483,1.006207581,-5.111420746,6.113137665,2024-06-04 18:07:53.419835
50.46013783,-1.853296051,-14.18076096,13.39264984,2024-06-04 18:07:53.460138
50.50044183,-5.20332962,-13.95862289,10.51218979,2024-06-04 18:07:53.500442
50.54074483,-0.796942749,-4.325255585,8.52761673,2024-06-04 18:07:53.540745
50.58104783,5.605992279,-9.107810211,3.658691711,2024-06-04 18:07:53.581048
50.62135183,3.558999023,-19.31628159,5.489384766,2024-06-04 18:07:53.621352
50.66165483,1.416204987,-2.141446838,-3.680995331,2024-06-04 18:07:53.661655
50.70195783,2.901715851,-6.939718781,-2.242786102,2024-06-04 18:07:53.701958
50.74226183,1.016386414,-11.71209457,-4.629123688,2024-06-04 18:07:53.742262
50.78256483,-6.162534943,-12.59196487,6.861281891,2024-06-04 18:07:53.782565
50.82286783,0.2995271301,-8.583151245,3.011138306,2024-06-04 18:07:53.822868
50.86317183,2.287992096,-7.789202271,0.01601669312,2024-06-04 18:07:53.863172
50.90347483,1.014141083,-8.688083038,1.653611298,2024-06-04 18:07:53.903475
50.94377858,-0.9599537659,-8.641380157,0.1652563477,2024-06-04 18:07:53.943779
50.98408258,-0.2841091919,-9.521849213,2.299518127,2024-06-04 18:07:53.984083
51.02438558,-2.050286407,-11.45313309,2.304158478,2024-06-04 18:07:54.024386
51.06468858,-4.391417999,-12.69674698,1.175206146,2024-06-04 18:07:54.064689
51.10499258,-4.475093994,-12.22163498,3.186423798,2024-06-04 18:07:54.104993
51.14529558,-1.605561218,-11.87660248,2.266586609,2024-06-04 18:07:54.145296
51.18559858,-3.40257431,-11.95024933,3.660787354,2024-06-04 18:07:54.185599
51.22590258,-0.3646417236,-9.377549286,-2.126477966,2024-06-04 18:07:54.225903
51.26620558,3.38506073,-15.96235611,2.875670013,2024-06-04 18:07:54.266206
51.30650858,3.28207489,-13.66717896,2.6210495,2024-06-04 18:07:54.306509
51.34681258,0.9855505371,-9.470356293,1.855242004,2024-06-04 18:07:54.346813
51.38711558,-0.8164022827,-8.451874237,-1.555415497,2024-06-04 18:07:54.387116
51.42741858,-3.596121826,-7.89578064,-0.4694238281,2024-06-04 18:07:54.427419
51.46772258,1.06249054,-4.857099609,0.1992356873,2024-06-04 18:07:54.467723
51.50802558,4.30235321,-2.534828796,0.4472698975,2024-06-04 18:07:54.508026
51.54832858,1.167871399,-3.170856171,2.258802795,2024-06-04 18:07:54.548329
51.58863258,-0.4014651489,-5.824537811,6.369255066,2024-06-04 18:07:54.588633
51.62893558,-1.811383209,-14.67308716,14.75272156,2024-06-04 18:07:54.628936
51.66923858,-2.554587708,-12.19678665,8.929680634,2024-06-04 18:07:54.669239
51.70954258,0.04655319214,-4.722679138,7.762108612,2024-06-04 18:07:54.709543
51.74984558,5.227728882,-12.1921463,5.711822205,2024-06-04 18:07:54.749846
51.79014858,2.270328827,-15.43365555,4.825365601,2024-06-04 18:07:54.790149
51.83045158,2.884950714,-2.907254333,-1.796713715,2024-06-04 18:07:54.830452
51.87075558,3.20139267,-8.425978088,-3.503464508,2024-06-04 18:07:54.870756
51.91105858,-0.6718029785,-13.83183655,-5.166506195,2024-06-04 18:07:54.911059
51.95136021,-4.065096588,-8.459059296,2.169887695,2024-06-04 18:07:54.951360
51.99166421,0.7464976501,-8.619076538,1.36082016,2024-06-04 18:07:54.991664
52.03196721,2.01256485,-7.75537262,1.177900543,2024-06-04 18:07:55.031967
52.07227021,0.5939648438,-8.804391174,1.256487122,2024-06-04 18:07:55.072270
52.11257421,0.1995350647,-8.10280014,1.296753387,2024-06-04 18:07:55.112574
52.15287721,0.4520599365,-9.712702332,1.833836517,2024-06-04 18:07:55.152877
52.19318021,-2.775378571,-11.27215942,2.424657898,2024-06-04 18:07:55.193180
52.23348321,-4.557123413,-12.52355713,0.7780819702,2024-06-04 18:07:55.233483
52.27378721,-4.579427032,-12.50888763,3.687431946,2024-06-04 18:07:55.273787
52.31409021,-4.530029755,-13.6466716,0.827479248,2024-06-04 18:07:55.314090
52.35439321,-1.617536316,-12.97486862,2.958148499,2024-06-04 18:07:55.354393
52.39469721,4.628375244,-9.773326263,-1.250200195,2024-06-04 18:07:55.394697
52.43500021,2.390379181,-16.86183563,2.263293457,2024-06-04 18:07:55.435000
52.47530321,4.046834564,-12.43015137,2.837200012,2024-06-04 18:07:55.475303
52.51560621,2.105072479,-8.884175262,1.62053009,2024-06-04 18:07:55.515606
52.55591021,-0.5525010681,-8.980574799,-0.9764195251,2024-06-04 18:07:55.555910
52.59621321,-3.554208984,-7.385192413,-0.05777984619,2024-06-04 18:07:55.596213
52.63651621,0.9723779297,-4.280348969,0.263152771,2024-06-04 18:07:55.636516
52.67682021,3.463946686,-2.593806152,0.5861810303,2024-06-04 18:07:55.676820
52.71712321,0.2469863892,-2.37765564,2.413431244,2024-06-04 18:07:55.717123
52.75742621,-0.8951385498,-6.935677185,6.742279358,2024-06-04 18:07:55.757426
52.79772921,-1.759141846,-16.12207397,15.44143936,2024-06-04 18:07:55.797729
52.83803321,-1.907932434,-10.3102597,7.893834686,2024-06-04 18:07:55.838033
52.87833621,3.605103149,-13.92419449,9.149872742,2024-06-04 18:07:55.878336
52.91863921,5.32742157,-12.23929825,-0.1710942078,2024-06-04 18:07:55.918639
52.95894221,4.644990692,1.625469818,-0.8051756287,2024-06-04 18:07:55.958942
52.99924621,-0.3662882996,-8.634344788,-3.457360382,2024-06-04 18:07:55.999246
53.03954921,2.006427612,-13.89530457,-4.654271393,2024-06-04 18:07:56.039549
53.07985221,-9.076076202,-16.84477112,1.506766663,2024-06-04 18:07:56.079852
53.12015521,-1.706900482,-7.950417023,3.241808624,2024-06-04 18:07:56.120155
53.16045921,1.573078766,-8.190817108,0.6132746887,2024-06-04 18:07:56.160459
53.20076221,1.354084167,-8.19530777,2.011816406,2024-06-04 18:07:56.200762
53.24106521,0.4813989258,-9.013656006,0.7414082336,2024-06-04 18:07:56.241065
53.28136821,-0.7065307617,-8.363108826,1.998943176,2024-06-04 18:07:56.281368
53.32167221,-0.9226812744,-9.5233461,1.702260132,2024-06-04 18:07:56.321672
53.36197521,-1.887125702,-12.11595474,1.661095734,2024-06-04 18:07:56.361975
53.40227821,-4.453688507,-12.80991165,2.431842957,2024-06-04 18:07:56.402278
53.44258121,-2.850971375,-11.00451599,3.102149048,2024-06-04 18:07:56.442581
53.48288521,-1.621128845,-10.74076447,2.101929016,2024-06-04 18:07:56.482885
53.52318821,-2.21733902,-11.80250656,2.42211319,2024-06-04 18:07:56.523188
53.56349121,-0.1950444031,-11.57976974,-2.024689636,2024-06-04 18:07:56.563491
53.60379421,3.852388916,-16.57727737,1.942809906,2024-06-04 18:07:56.603794
53.64409821,2.918630676,-12.15951416,3.298091583,2024-06-04 18:07:56.644098
53.68440121,-0.6716532898,-8.435707855,1.089733887,2024-06-04 18:07:56.684401
53.72470421,-2.022593994,-8.984466705,-1.610800323,2024-06-04 18:07:56.724704
53.76500721,-2.093097382,-7.524702301,-0.6658154297,2024-06-04 18:07:56.765007
53.80531021,1.893562317,-4.697830811,-0.3022215271,2024-06-04 18:07:56.805310
53.84561421,3.507506104,-3.371738434,1.061891785,2024-06-04 18:07:56.845614
53.88591721,1.725312195,-4.750820618,2.309996338,2024-06-04 18:07:56.885917
53.92622088,2.057920532,-7.220534821,6.043382721,2024-06-04 18:07:56.926221
53.96652388,-0.785716095,-14.04993301,14.15052383,2024-06-04 18:07:56.966524
54.00682787,-3.272794189,-14.1948317,12.68821472,2024-06-04 18:07:57.006828
54.04713087,2.448159027,-19.0706424,7.782466278,2024-06-04 18:07:57.047131
54.08743387,6.386918335,6.128705292,-6.112389221,2024-06-04 18:07:57.087434
54.12773688,1.885928192,-3.425925751,1.083596649,2024-06-04 18:07:57.127737
54.16803988,2.794688416,-14.38029602,-6.971602478,2024-06-04 18:07:57.168040
54.20834387,-12.57115814,-21.44275955,6.98312851,2024-06-04 18:07:57.208344
54.24864687,-5.044509888,-5.769003296,4.5984375,2024-06-04 18:07:57.248647
54.28894988,0.4887336731,-8.957373047,-1.173110504,2024-06-04 18:07:57.288950
54.32925288,1.678759003,-7.742200012,2.681224365,2024-06-04 18:07:57.329253
54.36955687,0.493074646,-9.416917419,0.1239422607,2024-06-04 18:07:57.369557
54.40985987,0.3240760803,-8.888366547,0.7970924377,2024-06-04 18:07:57.409860
54.45016288,0.7897576904,-8.732091522,2.206561432,2024-06-04 18:07:57.450163
54.49046588,-1.539249115,-10.49228119,2.282004547,2024-06-04 18:07:57.490466
54.53076888,-4.450545044,-11.45178589,2.232756958,2024-06-04 18:07:57.530769
54.57107187,-4.947960663,-12.02135147,1.977388,2024-06-04 18:07:57.571072
54.61137587,-3.872447205,-14.75840973,1.677561493,2024-06-04 18:07:57.611376
54.65167888,-3.360661469,-11.08729385,1.24376358,2024-06-04 18:07:57.651679
54.69198188,4.365072784,-11.6135994,1.561702423,2024-06-04 18:07:57.691982
54.73228487,1.374741211,-18.53984619,1.304387512,2024-06-04 18:07:57.732285
54.77258787,3.769161987,-12.39856705,2.174528046,2024-06-04 18:07:57.772588
54.81289188,2.382595367,-8.980275421,1.02387085,2024-06-04 18:07:57.812892
54.85319488,-0.4079017639,-8.695567474,-2.33664093,2024-06-04 18:07:57.853195
54.89349787,-3.434008942,-6.222709808,-1.518442383,2024-06-04 18:07:57.893498
54.93380046,1.037492523,-2.379601593,-0.2056723022,2024-06-04 18:07:57.933800
54.97410346,3.085683289,-1.357676697,0.5010081482,2024-06-04 18:07:57.974103
55.01440746,0.7333250427,-2.710862732,2.668051758,2024-06-04 18:07:58.014407
55.05471046,-1.207239532,-9.165140991,9.639055481,2024-06-04 18:07:58.054710
55.09501346,-4.141437836,-19.7978302,16.75884979,2024-06-04 18:07:58.095013
55.13531646,-1.795965271,-6.798712006,8.371042328,2024-06-04 18:07:58.135316
55.17561946,7.129075012,-12.48628464,7.42770401,2024-06-04 18:07:58.175619
55.21592246,4.450395355,-12.22762253,2.790048065,2024-06-04 18:07:58.215922
55.25622646,-0.00853225708,-2.188598785,-3.12415329,2024-06-04 18:07:58.256226
55.29652946,3.015030212,-9.011560364,-5.524860992,2024-06-04 18:07:58.296529
55.33683246,-2.484683075,-18.21262665,-6.21552475,2024-06-04 18:07:58.336832
55.37713546,-2.702779541,-8.805139618,0.6418652344,2024-06-04 18:07:58.377135
55.41743846,0.9413923645,-9.082512817,1.883233795,2024-06-04 18:07:58.417438
55.45774146,3.298840027,-7.671996002,0.5120851135,2024-06-04 18:07:58.457741
55.49804546,1.336420898,-7.529642029,1.390608215,2024-06-04 18:07:58.498045
55.53834846,0.2080673218,-7.436385956,0.2999761963,2024-06-04 18:07:58.538348
55.57865146,-1.185235291,-10.88506439,1.501677246,2024-06-04 18:07:58.578651
55.61895446,-2.491269379,-11.01080292,3.47517334,2024-06-04 18:07:58.618954
55.65925746,-5.723647614,-13.0455217,1.42518631,2024-06-04 18:07:58.659257
55.69956046,-4.731660461,-12.13331863,4.578229523,2024-06-04 18:07:58.699560
55.73986346,-3.752995605,-10.95871124,1.988165588,2024-06-04 18:07:58.739863
55.78016746,-2.514920197,-11.11842911,-2.347119141,2024-06-04 18:07:58.780167
55.82047046,5.636229401,-17.26898895,0.6191125488,2024-06-04 18:07:58.820470
55.86077346,4.223467255,-17.15911743,1.370998993,2024-06-04 18:07:58.860773
55.90107646,1.609453125,-10.97906891,2.452649689,2024-06-04 18:07:58.901076
55.94137971,0.2347119141,-7.651488647,-0.5093907166,2024-06-04 18:07:58.941380
55.98168271,-2.212249603,-8.478219452,-1.870809631,2024-06-04 18:07:58.981683
56.02198671,-1.835183716,-6.747817841,-0.7641609192,2024-06-04 18:07:59.021987
56.06228971,3.506009216,-1.995350647,-0.1544787598,2024-06-04 18:07:59.062290
56.10259271,2.896177368,-2.473755798,0.833915863,2024-06-04 18:07:59.102593
56.14289571,1.098266144,-5.650000763,5.075645142,2024-06-04 18:07:59.142896
56.18319871,-0.00209564209,-13.83213593,12.65288818,2024-06-04 18:07:59.183199
56.22350171,-4.663552094,-15.84769455,12.33195557,2024-06-04 18:07:59.223502
56.26380471,0.06167175293,-3.710933075,8.195756836,2024-06-04 18:07:59.263805
56.30410771,5.829926605,-8.277037811,-0.4599934387,2024-06-04 18:07:59.304108
56.34441171,1.76677597,-20.26650558,8.717871094,2024-06-04 18:07:59.344412
56.38471471,2.218386841,-6.116879883,-3.757785645,2024-06-04 18:07:59.384715
56.42501771,2.17632431,-7.781268768,-3.539988556,2024-06-04 18:07:59.425018
56.46532071,-5.977669373,-16.24152557,-3.59806778,2024-06-04 18:07:59.465321
56.50562371,-0.8496331787,-7.478598175,2.168390808,2024-06-04 18:07:59.505624
56.54592671,1.516496429,-8.895102539,1.282233582,2024-06-04 18:07:59.545927
56.58622971,1.113833771,-8.583450623,1.609752502,2024-06-04 18:07:59.586230
56.62653271,-0.3384461975,-7.93440033,1.185534668,2024-06-04 18:07:59.626533
56.66683671,-0.4279600525,-8.974437561,0.7397616577,2024-06-04 18:07:59.666837
56.70713971,-2.864593048,-10.61891785,3.238066406,2024-06-04 18:07:59.707140
56.74744271,-3.415148163,-12.02434525,1.808239746,2024-06-04 18:07:59.747443
56.78774571,-4.262086945,-12.71186554,3.167113953,2024-06-04 18:07:59.787746
56.82804871,-2.459235992,-13.69786514,1.046623535,2024-06-04 18:07:59.828049
56.86835171,-2.920876007,-12.15876572,1.666933594,2024-06-04 18:07:59.868352
56.90865471,3.926484833,-11.68739594,0.8222401428,2024-06-04 18:07:59.908655
56.94895821,1.994452515,-16.85450089,1.684746552,2024-06-04 18:07:59.948958
56.98926121,3.314108276,-12.23884918,1.820065155,2024-06-04 18:07:59.989261
57.02956521,1.609902191,-8.078700256,0.9749226379,2024-06-04 18:08:00.029565
57.06986821,-0.8376580811,-8.264463959,-2.80232254,2024-06-04 18:08:00.069868
57.11017121,-3.107837219,-6.651418304,-0.8768765259,2024-06-04 18:08:00.110171
57.15047421,0.7113208008,-4.109853516,-0.03936813354,2024-06-04 18:08:00.150474
57.19077721,2.763104095,-2.482288055,0.742306366,2024-06-04 18:08:00.190777
57.23108021,0.9672885132,-3.249143372,3.52307373,2024-06-04 18:08:00.231080
57.27138321,-0.590072937,-8.700507202,9.166787567,2024-06-04 18:08:00.271383
57.31168621,-3.116070099,-16.63161438,15.23980865,2024-06-04 18:08:00.311686
57.35198921,-1.583407288,-8.362210693,7.028933258,2024-06-04 18:08:00.351989
57.39229221,3.255579987,-4.241878967,4.733307037,2024-06-04 18:08:00.392292
57.43259621,9.701775055,-17.20911346,-0.1148112488,2024-06-04 18:08:00.432596
57.47289921,-1.422491913,-7.065906372,-5.225932617,2024-06-04 18:08:00.472899
57.51320221,3.27159668,-6.008804626,-3.013832703,2024-06-04 18:08:00.513202
57.55350521,1.364861755,-10.50126251,-3.99579071,2024-06-04 18:08:00.553505
57.59380821,-5.778882751,-14.30934357,7.850874023,2024-06-04 18:08:00.593808
57.63411121,0.7444020081,-7.739206238,2.979404297,2024-06-04 18:08:00.634111
57.67441421,2.424358521,-7.97646286,1.047521667,2024-06-04 18:08:00.674414
57.71471721,0.9306147766,-8.112529907,1.002914429,2024-06-04 18:08:00.714717
57.75502021,-0.6842271423,-9.003477173,1.401834869,2024-06-04 18:08:00.755020
57.79532321,-1.177301788,-9.136251068,2.15417038,2024-06-04 18:08:00.795323
57.83562621,-1.667682037,-10.23691223,2.396217041,2024-06-04 18:08:00.835626
57.87592921,-2.377056885,-11.82930084,2.448757782,2024-06-04 18:08:00.875929
57.91623221,-5.152734833,-11.65835632,2.157014465,2024-06-04 18:08:00.916232
57.95653521,-1.7504599,-11.96087723,2.907254333,2024-06-04 18:08:00.956535
57.99683821,-3.247646484,-13.35837112,3.960464172,2024-06-04 18:08:00.996838
58.03714121,-1.056802368,-11.81942139,-2.569107513,2024-06-04 18:08:01.037141
58.07744421,5.394332428,-18.03898773,4.311035156,2024-06-04 18:08:01.077444
58.11774721,3.35931427,-11.69158722,1.40991806,2024-06-04 18:08:01.117747
58.15805021,0.06406677246,-8.109685822,1.015039215,2024-06-04 18:08:01.158050
58.19835321,-0.9154962158,-9.134454803,-2.383194122,2024-06-04 18:08:01.198353
58.23865621,-1.163680115,-7.380102997,-0.5490582275,2024-06-04 18:08:01.238656
58.27895921,1.657802582,-3.629053345,0.7044351196,2024-06-04 18:08:01.278959
58.31926221,2.890189819,-3.425326996,0.6312373352,2024-06-04 18:08:01.319262
58.35956521,1.09991272,-3.685186615,2.594853973,2024-06-04 18:08:01.359565
58.39986821,0.9027726746,-6.923851776,6.920708313,2024-06-04 18:08:01.399868
58.44017121,-2.853067017,-17.6478511,16.17970413,2024-06-04 18:08:01.440171
58.48047421,-4.003125458,-10.43315414,9.654623108,2024-06-04 18:08:01.480474
58.52077721,1.636696472,0.3884422302,6.176006927,2024-06-04 18:08:01.520777
58.56108021,10.77145065,-13.04252792,-3.058439941,2024-06-04 18:08:01.561080
58.60138321,-4.803810425,-23.5283725,3.275937653,2024-06-04 18:08:01.601383
58.64168621,3.512296143,-5.661377106,-3.637735291,2024-06-04 18:08:01.641686
58.68198921,2.659519501,-7.523355103,-3.229983215,2024-06-04 18:08:01.681989
58.72229321,-4.204007721,-16.99999832,-5.958359528,2024-06-04 18:08:01.722293
58.76259621,-0.5243595886,-9.198820953,1.23208786,2024-06-04 18:08:01.762596
58.80289921,1.984273682,-8.247249756,1.468596039,2024-06-04 18:08:01.802899
58.84320221,0.9526190186,-8.042924652,0.3516188049,2024-06-04 18:08:01.843202
58.88350521,-0.6622229004,-7.847880249,1.787582703,2024-06-04 18:08:01.883505
58.92380821,-1.31636261,-9.495803375,0.4441264343,2024-06-04 18:08:01.923808
58.96411213,-2.002386017,-10.17793488,3.788022766,2024-06-04 18:08:01.964112
59.00441512,-1.945953369,-11.95234497,1.173858948,2024-06-04 18:08:02.004415
59.04471812,-5.623206482,-12.44721588,0.9511221313,2024-06-04 18:08:02.044718
59.08502112,-2.130369873,-12.3912323,4.26732605,2024-06-04 18:08:02.085021
59.12532413,-2.684517517,-12.5823848,2.061363373,2024-06-04 18:08:02.125324
59.16562713,-0.8168513489,-10.40710831,0.01257385254,2024-06-04 18:08:02.165627
59.20593012,5.002447357,-14.53297852,-0.6674620056,2024-06-04 18:08:02.205930
59.24623312,3.865711212,-16.50482803,4.545148315,2024-06-04 18:08:02.246233
59.28653613,1.621128845,-9.696386261,1.981579285,2024-06-04 18:08:02.286536
59.32683913,-0.6698570251,-8.973090363,-0.9964778137,2024-06-04 18:08:02.326839
59.36714212,-1.87559967,-7.905660095,0.1986369324,2024-06-04 18:08:02.367142
59.40744512,0.1327738953,-4.58316925,-0.03218307495,2024-06-04 18:08:02.407445
59.44774812,2.851719818,-2.020648041,0.2875520325,2024-06-04 18:08:02.447748
59.48805113,1.05186264,-3.675307159,1.46141098,2024-06-04 18:08:02.488051
59.52835413,0.7463479614,-5.19045639,5.37771698,2024-06-04 18:08:02.528354
59.56865712,0.02784210205,-12.16684891,12.49436783,2024-06-04 18:08:02.568657
59.60896012,-5.639223175,-17.14819016,11.49040558,2024-06-04 18:08:02.608960
59.64926313,0.3882925415,-6.394253082,8.67146759,2024-06-04 18:08:02.649263
59.68956613,7.810607758,-16.07312576,4.509372711,2024-06-04 18:08:02.689566
59.72986913,1.754950562,-7.61376709,1.192570038,2024-06-04 18:08:02.729869
59.77017212,1.703457642,-3.416794739,-2.887495422,2024-06-04 18:08:02.770172
59.81047512,4.021686859,-10.26041336,-3.576063538,2024-06-04 18:08:02.810475
59.85077813,-6.943011932,-20.31380722,-2.965333557,2024-06-04 18:08:02.850778
59.89108113,-2.740800476,-6.560407562,3.078947296,2024-06-04 18:08:02.891081
59.93138371,1.53865036,-8.558751984,0.3963757324,2024-06-04 18:08:02.931384
59.97168671,1.295705566,-8.35786972,1.383722534,2024-06-04 18:08:02.971687
60.01198971,0.4385879517,-8.333769836,1.413660278,2024-06-04 18:08:03.011990
60.05229271,0.1616638184,-9.314230957,0.2785707092,2024-06-04 18:08:03.052293
60.09259571,-0.2103126526,-9.077273712,2.264341278,2024-06-04 18:08:03.092596
60.13289871,-2.254461823,-11.22725281,3.108585663,2024-06-04 18:08:03.132899
60.17320171,-3.859124908,-12.17792587,0.7322772217,2024-06-04 18:08:03.173202
60.21350471,-3.545676727,-12.51756958,3.901935883,2024-06-04 18:08:03.213505
60.25380771,-3.551963654,-13.30538132,0.6542893982,2024-06-04 18:08:03.253808
60.29411071,-1.383273468,-11.69218597,3.722159729,2024-06-04 18:08:03.294111
60.33441371,3.340902557,-10.68403244,-2.52390152,2024-06-04 18:08:03.334414
60.37471671,4.014501801,-18.55271942,4.316723328,2024-06-04 18:08:03.374717
60.41501971,3.352877655,-12.02449493,2.384541321,2024-06-04 18:08:03.415020
60.45532271,1.214274902,-7.563920746,1.80539566,2024-06-04 18:08:03.455323
60.49562571,-0.7764353943,-8.275540924,-1.448986816,2024-06-04 18:08:03.495626
60.53592871,-3.496129761,-6.919361115,-0.885408783,2024-06-04 18:08:03.535929
60.57623171,1.648372192,-4.047732697,0.03128494263,2024-06-04 18:08:03.576232
60.61653471,3.781137085,-2.706072693,1.104104004,2024-06-04 18:08:03.616535
60.65683771,0.1146615601,-3.710484009,2.744542694,2024-06-04 18:08:03.656838
60.69714071,-0.21061203,-7.91793457,7.040608978,2024-06-04 18:08:03.697141
60.73744371,1.974843292,-16.07058105,16.45498169,2024-06-04 18:08:03.737444
60.77774671,-2.258653107,-10.7256459,9.776619415,2024-06-04 18:08:03.777747
60.81804971,-0.7322772217,-5.034480743,7.567662964,2024-06-04 18:08:03.818050
60.85835271,6.070326691,-11.76119247,3.043770447,2024-06-04 18:08:03.858353
60.89865571,3.003504181,-11.68859344,3.326682129,2024-06-04 18:08:03.898656
60.93895858,2.340832214,-5.27009079,-2.602039032,2024-06-04 18:08:03.938959
60.97926158,3.530558167,-8.94060791,-2.829416199,2024-06-04 18:08:03.979262
61.01956358,-1.987716522,-15.26765076,-6.283633118,2024-06-04 18:08:04.019564
61.05986658,-2.117047577,-8.013136597,2.361938324,2024-06-04 18:08:04.059867
61.10016958,0.9099577332,-9.144483948,1.123563538,2024-06-04 18:08:04.100170
61.14047258,1.184187469,-8.030949554,1.155447235,2024-06-04 18:08:04.140473
61.18077558,-0.08247848511,-8.872050476,2.003882904,2024-06-04 18:08:04.180776
61.22107858,-0.5478607178,-8.690627747,1.173110504,2024-06-04 18:08:04.221079
61.26138158,0.3165916443,-9.46601532,1.809287567,2024-06-04 18:08:04.261382
61.30168458,-2.304308167,-10.95212494,3.546724548,2024-06-04 18:08:04.301685
61.34198758,-3.574267273,-12.51322861,1.293759613,2024-06-04 18:08:04.341988
61.38229058,-3.408861237,-12.52325775,4.455335083,2024-06-04 18:08:04.382291
61.42259358,-3.649710388,-13.79591125,0.3600013733,2024-06-04 18:08:04.422594
61.46289658,-3.106789398,-11.14866623,1.673519897,2024-06-04 18:08:04.462897
61.50319958,3.253634033,-10.86695206,-2.486629028,2024-06-04 18:08:04.503200
61.54350258,3.755091248,-18.61124771,3.614683228,2024-06-04 18:08:04.543503
61.58380558,3.770658875,-10.34708313,2.27347229,2024-06-04 18:08:04.583806
61.62410858,0.9613009644,-7.788753204,0.9665400696,2024-06-04 18:08:04.624109
61.66441158,-1.451232147,-8.106991425,-2.390229492,2024-06-04 18:08:04.664412
61.70471458,-3.58743988,-7.067103882,-0.7069798279,2024-06-04 18:08:04.704715
61.74501658,1.818119202,-4.449048157,-0.4757107544,2024-06-04 18:08:04.745017
61.78531958,3.204236755,-3.443888397,0.9678872681,2024-06-04 18:08:04.785320
61.82562258,1.39704483,-3.998784485,3.056493988,2024-06-04 18:08:04.825623
61.86592558,1.108894043,-8.48779953,7.644752655,2024-06-04 18:08:04.865926
61.90622858,-3.133733368,-15.37946823,16.01325027,2024-06-04 18:08:04.906229
61.946532,-2.773582306,-9.582922211,7.590116272,2024-06-04 18:08:04.946532
61.986835,3.913761292,-13.77495483,8.099656677,2024-06-04 18:08:04.986835
62.027138,4.692292328,-10.26086243,-1.951042786,2024-06-04 18:08:05.027138
62.067441,6.107000427,-0.5206173706,1.215921478,2024-06-04 18:08:05.067441
