Time (s),Acceleration x (m/s^2),Acceleration y (m/s^2),Acceleration z (m/s^2),Datetime
0.0,3.725026608,4.091427803,6.963712215,2024-06-04 14:52:10.000000
0.012453336,3.64127779,4.242474556,8.099106789,2024-06-04 14:52:10.012453
0.052453336,3.226721287,3.959822416,8.734101295,2024-06-04 14:52:10.052453
0.092453336,2.091326952,3.81595397,8.822636604,2024-06-04 14:52:10.092453
0.132453336,2.654238462,3.995714664,7.732705593,2024-06-04 14:52:10.132453
0.172453336,4.158725739,4.299902439,13.2397871,2024-06-04 14:52:10.172453
0.212453336,4.158725739,4.299902439,13.2397871,2024-06-04 14:52:10.212453
0.252453336,1.125823021,4.183850288,8.405686378,2024-06-04 14:52:10.252453
0.292453336,0.3245265782,3.278167009,9.69452095,2024-06-04 14:52:10.292453
0.332453336,-1.364207983,3.677170277,8.284849167,2024-06-04 14:52:10.332453
0.372453336,-0.07896314561,3.817150354,5.420939922,2024-06-04 14:52:10.372453
0.412453336,1.549950838,3.869792461,4.713262558,2024-06-04 14:52:10.412453
0.452453336,2.233700037,5.242674351,8.278866768,2024-06-04 14:52:10.452453
0.492453336,0.1148554832,2.799004316,6.929016113,2024-06-04 14:52:10.492453
0.532453336,-3.911965847,2.426621199,11.85045433,2024-06-04 14:52:10.532453
0.572453336,1.631306887,3.39212513,9.252745628,2024-06-04 14:52:10.572453
0.612453336,1.848156333,3.882055521,8.914759636,2024-06-04 14:52:10.612453
0.652453336,-1.882852316,3.430410385,8.185546875,2024-06-04 14:52:10.652453
0.692453336,-1.882852316,3.430410385,8.185546875,2024-06-04 14:52:10.692453
0.732453336,-1.882852316,3.430410385,8.185546875,2024-06-04 14:52:10.732453
0.772453336,-1.882852316,3.430410385,8.185546875,2024-06-04 14:52:10.772453
0.812453336,-1.882852316,3.430410385,8.185546875,2024-06-04 14:52:10.812453
0.852453336,-1.882852316,3.430410385,8.185546875,2024-06-04 14:52:10.852453
0.892453336,-1.882852316,3.430410385,8.185546875,2024-06-04 14:52:10.892453
0.932453336,-1.882852316,3.430410385,8.185546875,2024-06-04 14:52:10.932453
0.972453336,-1.882852316,3.430410385,8.185546875,2024-06-04 14:52:10.972453
1.012453336,-1.882852316,3.430410385,8.185546875,2024-06-04 14:52:11.012453
1.052453336,-1.882852316,3.430410385,8.185546875,2024-06-04 14:52:11.052453
1.092453336,-1.882852316,3.430410385,8.185546875,2024-06-04 14:52:11.092453
1.132453336,-1.882852316,3.430410385,8.185546875,2024-06-04 14:52:11.132453
1.172453336,-1.882852316,3.430410385,8.185546875,2024-06-04 14:52:11.172453
1.212453336,-1.882852316,3.430410385,8.185546875,2024-06-04 14:52:11.212453
1.252453336,-1.882852316,3.430410385,8.185546875,2024-06-04 14:52:11.252453
1.292453336,0.5784648657,-9.392725945,5.296513081,2024-06-04 14:52:11.292453
1.332453336,-3.606282711,-9.824032784,5.074877739,2024-06-04 14:52:11.332453
1.372453336,-5.022235394,-11.14995575,-1.062413216,2024-06-04 14:52:11.372453
1.412453336,-17.54955864,-14.15264893,2.002493382,2024-06-04 14:52:11.412453
1.452453336,-12.92243862,-10.71266651,8.071588516,2024-06-04 14:52:11.452453
1.492453336,-15.5934267,-10.22512913,4.465306282,2024-06-04 14:52:11.492453
1.532453336,-25.27119827,-9.38435173,1.03848505,2024-06-04 14:52:11.532453
1.572453336,-12.63021564,-5.241477966,12.56919861,2024-06-04 14:52:11.572453
1.612453336,-18.05833244,-4.581357956,8.805886269,2024-06-04 14:52:11.612453
1.652453336,-7.863114357,-4.818546772,12.75015545,2024-06-04 14:52:11.652453
1.692453336,-5.513362408,-4.922634602,-2.278266191,2024-06-04 14:52:11.692453
1.732453336,8.347063065,-5.120341301,-14.09761333,2024-06-04 14:52:11.732453
1.772453336,1.473380566,-6.195915222,4.70488739,2024-06-04 14:52:11.772453
1.812453336,-7.424928665,-10.99771214,1.15094769,2024-06-04 14:52:11.812453
1.852453336,-4.189832687,-10.95224857,2.35962224,2024-06-04 14:52:11.852453
1.892453336,-6.541976929,-11.25523949,2.825624466,2024-06-04 14:52:11.892453
1.932453336,-8.648857117,-11.89472103,1.610967875,2024-06-04 14:52:11.932453
1.972453336,-5.816353798,-12.56201935,2.751147747,2024-06-04 14:52:11.972453
2.012453336,-0.7342974544,-5.098805904,1.534397483,2024-06-04 14:52:12.012453
2.052453336,4.153940201,-6.734898567,3.049353361,2024-06-04 14:52:12.052453
2.092453336,1.916351795,-13.19791222,0.6550351977,2024-06-04 14:52:12.092453
2.132453336,-0.6816553473,-8.560322762,8.459824562,2024-06-04 14:52:12.132453
2.172453336,-3.559622765,-26.768507,0.6816553473,2024-06-04 14:52:12.172453
2.212453336,3.233899832,-4.838885784,1.015753269,2024-06-04 14:52:12.212453
2.252453336,3.685544968,-7.358827114,-1.687538147,2024-06-04 14:52:12.252453
2.292453336,3.422035456,-8.567501068,1.675574064,2024-06-04 14:52:12.292453
2.332453336,4.601696968,-8.152944565,0.7677969933,2024-06-04 14:52:12.332453
2.372453336,4.938187599,-8.771190643,2.053041935,2024-06-04 14:52:12.372453
2.412453336,4.938187599,-8.771190643,2.053041935,2024-06-04 14:52:12.412453
2.452453336,4.938187599,-8.771190643,2.053041935,2024-06-04 14:52:12.452453
2.492453336,4.938187599,-8.771190643,2.053041935,2024-06-04 14:52:12.492453
2.532453336,4.938187599,-8.771190643,2.053041935,2024-06-04 14:52:12.532453
2.572453336,4.938187599,-8.771190643,2.053041935,2024-06-04 14:52:12.572453
2.612453336,4.938187599,-8.771190643,2.053041935,2024-06-04 14:52:12.612453
2.652453336,4.938187599,-8.771190643,2.053041935,2024-06-04 14:52:12.652453
2.692453336,4.938187599,-8.771190643,2.053041935,2024-06-04 14:52:12.692453
2.732453336,4.938187599,-8.771190643,2.053041935,2024-06-04 14:52:12.732453
2.772453336,4.938187599,-8.771190643,2.053041935,2024-06-04 14:52:12.772453
2.812453336,4.938187599,-8.771190643,2.053041935,2024-06-04 14:52:12.812453
2.852453336,4.938187599,-8.771190643,2.053041935,2024-06-04 14:52:12.852453
2.892453336,4.938187599,-8.771190643,2.053041935,2024-06-04 14:52:12.892453
2.932453336,4.756333351,-9.518648148,1.155733347,2024-06-04 14:52:12.932453
2.972453336,5.419743061,-8.707780838,2.323729992,2024-06-04 14:52:12.972453
3.012453336,3.607479334,-8.62014389,-0.1184447184,2024-06-04 14:52:13.012453
3.052453336,4.868795872,-8.846564293,1.496112347,2024-06-04 14:52:13.052453
3.092453336,7.980661869,-6.570990086,0.3723830283,2024-06-04 14:52:13.092453
3.132453336,6.380461693,-8.022536278,2.706880569,2024-06-04 14:52:13.132453
3.172453336,3.807579041,-9.362815857,-0.4480560422,2024-06-04 14:52:13.172453
3.212453336,3.768097401,-8.880064011,-0.5210371017,2024-06-04 14:52:13.212453
3.252453336,3.257827997,-9.623932838,-0.3903291821,2024-06-04 14:52:13.252453
3.292453336,1.226620674,-11.11645603,-0.2395813614,2024-06-04 14:52:13.292453
3.332453336,2.784647465,-9.905388832,-0.6708876491,2024-06-04 14:52:13.332453
3.372453336,5.696413517,-8.711369514,-0.01196411345,2024-06-04 14:52:13.372453
3.412453336,7.811668396,-7.653742313,1.267298698,2024-06-04 14:52:13.412453
3.452453336,7.083353043,-6.301498413,1.118644595,2024-06-04 14:52:13.452453
3.492453336,4.388436794,-7.04387188,-0.8682954907,2024-06-04 14:52:13.492453
3.532453336,2.300997972,-10.20359421,-0.5246263742,2024-06-04 14:52:13.532453
3.572453336,2.580060959,-10.08036327,0.4516452849,2024-06-04 14:52:13.572453
3.612453336,3.135794163,-8.895617485,-0.5712863803,2024-06-04 14:52:13.612453
3.652453336,4.380061626,-10.11505985,0.3305086195,2024-06-04 14:52:13.652453
3.692453336,2.830410004,-9.737591743,-0.007178467698,2024-06-04 14:52:13.692453
3.732453336,2.505584478,-9.689735413,-0.8383852243,2024-06-04 14:52:13.732453
3.772453336,2.879462957,-9.728020668,0.446859628,2024-06-04 14:52:13.772453
3.812453336,4.363312244,-8.428419113,-0.2647060156,2024-06-04 14:52:13.812453
3.852453336,5.021039009,-8.542376518,2.220539331,2024-06-04 14:52:13.852453
3.892453336,5.435296535,-8.040482521,0.5473581553,2024-06-04 14:52:13.892453
3.932453336,4.806582451,-9.565308571,3.272184849,2024-06-04 14:52:13.932453
3.972453336,6.740880489,-7.757830143,2.906980515,2024-06-04 14:52:13.972453
4.012453336,5.858228207,-7.3540411,2.661417007,2024-06-04 14:52:14.012453
4.052453336,5.858228207,-7.3540411,2.661417007,2024-06-04 14:52:14.052453
4.092453336,5.858228207,-7.3540411,2.661417007,2024-06-04 14:52:14.092453
4.132453336,5.858228207,-7.3540411,2.661417007,2024-06-04 14:52:14.132453
4.172453336,3.159722328,-6.836892605,-0.9391828775,2024-06-04 14:52:14.172453
4.212453336,3.159722328,-6.836892605,-0.9391828775,2024-06-04 14:52:14.212453
4.252453336,3.159722328,-6.836892605,-0.9391828775,2024-06-04 14:52:14.252453
4.292453336,3.159722328,-6.836892605,-0.9391828775,2024-06-04 14:52:14.292453
4.332453336,3.159722328,-6.836892605,-0.9391828775,2024-06-04 14:52:14.332453
4.372453336,3.159722328,-6.836892605,-0.9391828775,2024-06-04 14:52:14.372453
4.412453336,3.159722328,-6.836892605,-0.9391828775,2024-06-04 14:52:14.412453
4.452453336,3.159722328,-6.836892605,-0.9391828775,2024-06-04 14:52:14.452453
4.492453336,3.159722328,-6.836892605,-0.9391828775,2024-06-04 14:52:14.492453
4.532453336,3.159722328,-6.836892605,-0.9391828775,2024-06-04 14:52:14.532453
4.572453336,3.159722328,-6.836892605,-0.9391828775,2024-06-04 14:52:14.572453
4.612453336,4.861617565,-8.260921478,0.8192426562,2024-06-04 14:52:14.612453
4.652453336,4.462913513,-9.108877182,1.424028635,2024-06-04 14:52:14.652453
4.692453336,3.921537161,-8.465806961,0.6323033571,2024-06-04 14:52:14.692453
4.732453336,4.212564468,-7.919644833,1.10309124,2024-06-04 14:52:14.732453
4.772453336,3.514159203,-9.166305542,1.149751306,2024-06-04 14:52:14.772453
4.812453336,4.563411713,-8.672785759,1.767996788,2024-06-04 14:52:14.812453
4.852453336,4.411168575,-8.881259918,1.197607756,2024-06-04 14:52:14.852453
4.892453336,5.708377361,-8.64167881,2.203789711,2024-06-04 14:52:14.892453
4.932453336,5.228317261,-8.345866203,0.803689301,2024-06-04 14:52:14.932453
4.972453336,3.818346739,-8.944669724,0.3975076675,2024-06-04 14:52:14.972453
5.012453336,3.684348583,-9.212965012,0.7402794957,2024-06-04 14:52:15.012453
5.052453336,4.042374611,-8.69551754,1.176072359,2024-06-04 14:52:15.052453
5.092453336,4.110570431,-8.559126854,0.6550351977,2024-06-04 14:52:15.092453
5.132453336,4.746761799,-8.482556343,0.7677969933,2024-06-04 14:52:15.132453
5.172453336,4.529912472,-8.538787842,0.7007979155,2024-06-04 14:52:15.172453
5.212453336,4.345366001,-8.689535141,0.6000002623,2024-06-04 14:52:15.212453
5.252453336,5.064109802,-8.253742218,1.089930773,2024-06-04 14:52:15.252453
5.292453336,4.307080746,-8.590232849,0.7977072597,2024-06-04 14:52:15.292453
5.332453336,4.254438877,-8.822636604,0.5916253924,2024-06-04 14:52:15.332453
5.372453336,4.541876316,-8.838189125,1.281655669,2024-06-04 14:52:15.372453
5.412453336,3.947858334,-9.021539688,0.8204390407,2024-06-04 14:52:15.412453
5.452453336,4.377668858,-8.431110382,1.325922847,2024-06-04 14:52:15.452453
5.492453336,4.147658825,-8.624929428,1.428814173,2024-06-04 14:52:15.492453
5.532453336,3.96939373,-9.137591362,0.9559326172,2024-06-04 14:52:15.532453
5.572453336,4.005286217,-9.239585876,0.8371888399,2024-06-04 14:52:15.572453
5.612453336,4.623232365,-8.844171524,0.5700899959,2024-06-04 14:52:15.612453
5.652453336,3.756133318,-9.299406052,0.8718847632,2024-06-04 14:52:15.652453
5.692453336,3.756133318,-9.299406052,0.8718847632,2024-06-04 14:52:15.692453
5.732453336,3.756133318,-9.299406052,0.8718847632,2024-06-04 14:52:15.732453
5.772453336,3.756133318,-9.299406052,0.8718847632,2024-06-04 14:52:15.772453
5.812453336,3.756133318,-9.299406052,0.8718847632,2024-06-04 14:52:15.812453
5.852453336,3.756133318,-9.299406052,0.8718847632,2024-06-04 14:52:15.852453
5.892453336,3.756133318,-9.299406052,0.8718847632,2024-06-04 14:52:15.892453
5.932453336,3.756133318,-9.299406052,0.8718847632,2024-06-04 14:52:15.932453
5.972453336,3.756133318,-9.299406052,0.8718847632,2024-06-04 14:52:15.972453
6.012453336,3.756133318,-9.299406052,0.8718847632,2024-06-04 14:52:16.012453
6.052453336,3.756133318,-9.299406052,0.8718847632,2024-06-04 14:52:16.052453
6.092453336,3.756133318,-9.299406052,0.8718847632,2024-06-04 14:52:16.092453
6.132453336,3.756133318,-9.299406052,0.8718847632,2024-06-04 14:52:16.132453
6.172453336,3.756133318,-9.299406052,0.8718847632,2024-06-04 14:52:16.172453
6.212453336,3.756133318,-9.299406052,0.8718847632,2024-06-04 14:52:16.212453
6.252453336,4.897509575,-8.844171524,1.421635747,2024-06-04 14:52:16.252453
6.292453336,4.281956196,-9.255139351,1.698305845,2024-06-04 14:52:16.292453
6.332453336,4.519144535,-9.544969559,3.382553816,2024-06-04 14:52:16.332453
6.372453336,4.773082733,-9.865906715,4.508377075,2024-06-04 14:52:16.372453
6.412453336,5.429314613,-9.594022751,4.726422787,2024-06-04 14:52:16.412453
6.452453336,4.780261517,-7.381857872,-0.4073780477,2024-06-04 14:52:16.452453
6.492453336,1.820638895,-8.534002304,-1.012163997,2024-06-04 14:52:16.492453
6.532453336,4.089034557,-6.333801746,1.480558991,2024-06-04 14:52:16.532453
6.572453336,4.421039104,-6.155237198,1.754836321,2024-06-04 14:52:16.572453
6.612453336,3.910769463,-6.824928284,1.887637973,2024-06-04 14:52:16.612453
6.652453336,4.289134502,-7.696813107,2.536691189,2024-06-04 14:52:16.652453
6.692453336,5.39701128,-8.754440308,3.327219963,2024-06-04 14:52:16.692453
6.732453336,4.849653244,-8.87647438,4.303491592,2024-06-04 14:52:16.732453
6.772453336,4.913063049,-9.463314056,4.64716053,2024-06-04 14:52:16.772453
6.812453336,4.868795872,-8.773583412,4.406383038,2024-06-04 14:52:16.812453
6.852453336,3.490231037,-7.458428383,3.030210733,2024-06-04 14:52:16.852453
6.892453336,3.988536358,-9.25753212,1.428814173,2024-06-04 14:52:16.892453
6.932453336,7.163811684,-9.385547638,1.484148264,2024-06-04 14:52:16.932453
6.972453336,5.165804863,-9.616754532,3.272184849,2024-06-04 14:52:16.972453
7.012453336,4.159922123,-7.086942673,2.436192513,2024-06-04 14:52:17.012453
7.052453336,4.436592102,-7.202096939,-0.7462615371,2024-06-04 14:52:17.052453
7.092453336,4.674678326,-10.34387302,2.556132793,2024-06-04 14:52:17.092453
7.132453336,2.512762785,-9.428618431,0.6490531564,2024-06-04 14:52:17.132453
7.172453336,3.243471146,-9.270691872,-0.08015955985,2024-06-04 14:52:17.172453
7.212453336,3.178864956,-9.531808853,2.391925335,2024-06-04 14:52:17.212453
7.252453336,4.274777889,-9.21535778,0.614357233,2024-06-04 14:52:17.252453
7.292453336,2.264806747,-9.955637932,0.5126622319,2024-06-04 14:52:17.292453
7.332453336,1.98813653,-8.949456215,-0.137886405,2024-06-04 14:52:17.332453
7.372453336,1.98813653,-8.949456215,-0.137886405,2024-06-04 14:52:17.372453
7.412453336,1.98813653,-8.949456215,-0.137886405,2024-06-04 14:52:17.412453
7.452453336,1.98813653,-8.949456215,-0.137886405,2024-06-04 14:52:17.452453
7.492453336,1.98813653,-8.949456215,-0.137886405,2024-06-04 14:52:17.492453
7.532453336,1.98813653,-8.949456215,-0.137886405,2024-06-04 14:52:17.532453
7.572453336,1.98813653,-8.949456215,-0.137886405,2024-06-04 14:52:17.572453
7.612453336,1.98813653,-8.949456215,-0.137886405,2024-06-04 14:52:17.612453
7.652453336,1.98813653,-8.949456215,-0.137886405,2024-06-04 14:52:17.652453
7.692453336,1.98813653,-8.949456215,-0.137886405,2024-06-04 14:52:17.692453
7.732453336,1.98813653,-8.949456215,-0.137886405,2024-06-04 14:52:17.732453
7.772453336,1.98813653,-8.949456215,-0.137886405,2024-06-04 14:52:17.772453
7.812453336,1.98813653,-8.949456215,-0.137886405,2024-06-04 14:52:17.812453
7.852453336,1.98813653,-8.949456215,-0.137886405,2024-06-04 14:52:17.852453
7.892453336,1.98813653,-8.949456215,-0.137886405,2024-06-04 14:52:17.892453
7.932453336,6.356533527,-7.60319376,1.763211131,2024-06-04 14:52:17.932453
7.972453336,3.134597778,-9.765109062,-0.1917249113,2024-06-04 14:52:17.972453
8.012453336,3.349054337,-7.632206917,2.302194595,2024-06-04 14:52:18.012453
8.052453336,3.151347399,-7.618747234,3.413660526,2024-06-04 14:52:18.052453
8.092453336,3.757329702,-8.538787842,2.776272535,2024-06-04 14:52:18.092453
8.132453336,5.591129303,-8.892027855,2.595614433,2024-06-04 14:52:18.132453
8.172453336,4.855635166,-9.387940407,2.819642305,2024-06-04 14:52:18.172453
8.212453336,4.788636208,-7.774580002,1.906780601,2024-06-04 14:52:18.212453
8.252453336,3.983750582,-8.202297211,1.219442248,2024-06-04 14:52:18.252453
8.292453336,3.92991209,-8.801100731,2.088934183,2024-06-04 14:52:18.292453
8.332453336,4.434199333,-8.748458862,2.898605585,2024-06-04 14:52:18.332453
8.372453336,5.277370453,-8.198707581,3.693919897,2024-06-04 14:52:18.372453
8.412453336,5.734698772,-7.753044605,3.410071373,2024-06-04 14:52:18.412453
8.452453336,4.625625134,-8.397312164,2.104487419,2024-06-04 14:52:18.452453
8.492453336,4.854438782,-9.203393936,2.329711914,2024-06-04 14:52:18.492453
8.532453336,5.054538727,-8.799904823,2.739183664,2024-06-04 14:52:18.532453
8.572453336,4.980361462,-7.028318405,0.2419741899,2024-06-04 14:52:18.572453
8.612453336,3.715455294,-7.040282249,0.9197412133,2024-06-04 14:52:18.612453
8.652453336,4.092624187,-7.270292282,0.7881359458,2024-06-04 14:52:18.652453
8.692453336,4.458127499,-8.630910873,1.563111424,2024-06-04 14:52:18.692453
8.732453336,4.340580463,-9.189037323,2.112862349,2024-06-04 14:52:18.732453
8.772453336,4.207778454,-8.449056625,1.633699656,2024-06-04 14:52:18.772453
8.812453336,4.886742115,-9.35204792,1.333101273,2024-06-04 14:52:18.812453
8.852453336,6.197111607,-10.31037331,2.517548561,2024-06-04 14:52:18.852453
8.892453336,4.904688358,-7.708777428,2.506780863,2024-06-04 14:52:18.892453
8.932453336,2.188236237,-8.93031311,0.9966106415,2024-06-04 14:52:18.932453
8.972453336,1.649253011,-9.783354759,0.8156534433,2024-06-04 14:52:18.972453
9.012453336,2.898605585,-10.21077251,0.3484548032,2024-06-04 14:52:19.012453
9.052453336,2.898605585,-10.21077251,0.3484548032,2024-06-04 14:52:19.052453
9.092453336,2.898605585,-10.21077251,0.3484548032,2024-06-04 14:52:19.092453
9.132453336,2.898605585,-10.21077251,0.3484548032,2024-06-04 14:52:19.132453
9.172453336,2.898605585,-10.21077251,0.3484548032,2024-06-04 14:52:19.172453
9.212453336,2.898605585,-10.21077251,0.3484548032,2024-06-04 14:52:19.212453
9.252453336,2.898605585,-10.21077251,0.3484548032,2024-06-04 14:52:19.252453
9.292453336,2.898605585,-10.21077251,0.3484548032,2024-06-04 14:52:19.292453
9.332453336,2.898605585,-10.21077251,0.3484548032,2024-06-04 14:52:19.332453
9.372453336,2.898605585,-10.21077251,0.3484548032,2024-06-04 14:52:19.372453
9.412453336,2.898605585,-10.21077251,0.3484548032,2024-06-04 14:52:19.412453
9.452453336,2.898605585,-10.21077251,0.3484548032,2024-06-04 14:52:19.452453
9.492453336,2.898605585,-10.21077251,0.3484548032,2024-06-04 14:52:19.492453
9.532453336,2.898605585,-10.21077251,0.3484548032,2024-06-04 14:52:19.532453
9.572453336,3.563211918,-9.076574326,0.589232564,2024-06-04 14:52:19.572453
9.612453336,3.46271348,-9.130413055,1.153340459,2024-06-04 14:52:19.612453
9.652453336,3.740580082,-8.977272034,1.018146038,2024-06-04 14:52:19.652453
9.692453336,3.83270359,-8.744869232,1.236191988,2024-06-04 14:52:19.692453
9.732453336,3.950251102,-9.162715912,1.46470654,2024-06-04 14:52:19.732453
9.772453336,4.091427803,-8.997611046,2.094916344,2024-06-04 14:52:19.772453
9.812453336,3.734597921,-8.766405106,1.480558991,2024-06-04 14:52:19.812453
9.852453336,4.138087749,-8.986844063,1.469492197,2024-06-04 14:52:19.852453
9.892453336,3.865006685,-8.814261436,1.068395257,2024-06-04 14:52:19.892453
9.932453336,4.353740692,-8.524430275,1.418046474,2024-06-04 14:52:19.932453
9.972453336,3.806382656,-9.007183075,2.423032045,2024-06-04 14:52:19.972453
10.01245334,3.876971006,-9.686145782,3.512962818,2024-06-04 14:52:20.012453
10.05245334,3.925126553,-10.05882835,4.496412754,2024-06-04 14:52:20.052453
10.09245334,4.018446445,-9.395118713,4.700101852,2024-06-04 14:52:20.092453
10.13245334,4.466502666,-8.755637169,2.060220242,2024-06-04 14:52:20.132453
10.17245334,3.993321896,-7.814061642,0.5341976285,2024-06-04 14:52:20.172453
10.21245334,3.121437073,-7.393822193,-0.005982056726,2024-06-04 14:52:20.212453
10.25245334,3.402892828,-6.901498795,2.01475668,2024-06-04 14:52:20.252453
10.29245334,2.799004316,-7.241578579,1.929512382,2024-06-04 14:52:20.292453
10.33245334,2.19780755,-6.847660065,1.66600275,2024-06-04 14:52:20.332453
10.37245334,3.136990547,-8.330312729,2.329711914,2024-06-04 14:52:20.372453
10.41245334,3.859024763,-10.27657509,5.202893734,2024-06-04 14:52:20.412453
10.45245334,4.414757729,-10.24187946,5.64616394,2024-06-04 14:52:20.452453
10.49245334,4.515555382,-9.770194054,4.691727161,2024-06-04 14:52:20.492453
10.53245334,4.740779877,-10.01665497,3.941876173,2024-06-04 14:52:20.532453
10.57245334,6.924230576,-6.465406895,3.821935892,2024-06-04 14:52:20.572453
10.61245334,3.758526087,-7.159026146,-0.06699903309,2024-06-04 14:52:20.612453
10.65245334,1.327119231,-11.11047363,1.533201098,2024-06-04 14:52:20.652453
10.69245334,1.327119231,-11.11047363,1.533201098,2024-06-04 14:52:20.692453
10.73245334,1.327119231,-11.11047363,1.533201098,2024-06-04 14:52:20.732453
10.77245334,1.327119231,-11.11047363,1.533201098,2024-06-04 14:52:20.772453
10.81245334,1.327119231,-11.11047363,1.533201098,2024-06-04 14:52:20.812453
10.85245334,1.327119231,-11.11047363,1.533201098,2024-06-04 14:52:20.852453
10.89245334,1.327119231,-11.11047363,1.533201098,2024-06-04 14:52:20.892453
10.93245334,1.327119231,-11.11047363,1.533201098,2024-06-04 14:52:20.932453
10.97245334,1.327119231,-11.11047363,1.533201098,2024-06-04 14:52:20.972453
11.01245334,1.327119231,-11.11047363,1.533201098,2024-06-04 14:52:21.012453
11.05245334,1.327119231,-11.11047363,1.533201098,2024-06-04 14:52:21.052453
11.09245334,1.327119231,-11.11047363,1.533201098,2024-06-04 14:52:21.092453
11.13245334,1.327119231,-11.11047363,1.533201098,2024-06-04 14:52:21.132453
11.17245334,1.327119231,-11.11047363,1.533201098,2024-06-04 14:52:21.172453
11.21245334,1.327119231,-11.11047363,1.533201098,2024-06-04 14:52:21.212453
11.25245334,3.101098061,-9.600004196,0.5880361795,2024-06-04 14:52:21.252453
11.29245334,2.10209465,-9.879067421,0.1196411327,2024-06-04 14:52:21.292453
11.33245334,1.903191328,-9.763913155,0.4719842672,2024-06-04 14:52:21.332453
11.37245334,3.345465183,-8.868100166,0.7618148923,2024-06-04 14:52:21.372453
11.41245334,2.975175858,-9.074181557,0.2539383173,2024-06-04 14:52:21.412453
11.45245334,2.487638235,-9.503094673,0.6095715761,2024-06-04 14:52:21.452453
11.49245334,3.027817965,-9.755537987,0.9726824164,2024-06-04 14:52:21.492453
11.53245334,2.444567442,-8.779565811,-0.4516452849,2024-06-04 14:52:21.532453
11.57245334,1.421635747,-9.97956562,0.4731806815,2024-06-04 14:52:21.572453
11.61245334,1.756032705,-10.72582722,0.8826524615,2024-06-04 14:52:21.612453
11.65245334,3.468695641,-8.970093727,0.2216351926,2024-06-04 14:52:21.652453
11.69245334,3.848257065,-8.235795975,2.414657116,2024-06-04 14:52:21.692453
11.73245334,4.961218834,-8.30279541,2.518744946,2024-06-04 14:52:21.732453
11.77245334,5.957530022,-10.20479012,1.820638895,2024-06-04 14:52:21.772453
11.81245334,5.729912758,-9.828818321,2.889034271,2024-06-04 14:52:21.812453
11.85245334,5.258227825,-7.220043182,0.7031907439,2024-06-04 14:52:21.852453
11.89245334,4.315455437,-7.607979774,2.001296997,2024-06-04 14:52:21.892453
11.93245334,3.678366661,-8.197511673,3.262613773,2024-06-04 14:52:21.932453
11.97245334,3.699902058,-7.786543846,3.090330362,2024-06-04 14:52:21.972453
12.01245334,3.541676521,-8.35304451,3.091526747,2024-06-04 14:52:22.012453
12.05245334,2.133201361,-8.433503151,3.489034414,2024-06-04 14:52:22.052453
12.09245334,2.595614433,-8.236992836,3.333201885,2024-06-04 14:52:22.092453
12.13245334,3.380161047,-8.72453022,3.526123285,2024-06-04 14:52:22.132453
12.17245334,2.317747831,-8.486145973,3.714258909,2024-06-04 14:52:22.172453
12.21245334,2.093719721,-7.77936554,3.859024763,2024-06-04 14:52:22.212453
12.25245334,4.001696587,-9.98913765,2.951247692,2024-06-04 14:52:22.252453
12.29245334,5.853442192,-9.209376335,3.50219512,2024-06-04 14:52:22.292453
12.33245334,4.149154663,-8.258528709,2.89142704,2024-06-04 14:52:22.332453
12.37245334,4.149154663,-8.258528709,2.89142704,2024-06-04 14:52:22.372453
12.41245334,4.149154663,-8.258528709,2.89142704,2024-06-04 14:52:22.412453
12.45245334,4.149154663,-8.258528709,2.89142704,2024-06-04 14:52:22.452453
12.49245334,4.149154663,-8.258528709,2.89142704,2024-06-04 14:52:22.492453
12.53245334,4.149154663,-8.258528709,2.89142704,2024-06-04 14:52:22.532453
12.57245334,4.149154663,-8.258528709,2.89142704,2024-06-04 14:52:22.572453
12.61245334,4.149154663,-8.258528709,2.89142704,2024-06-04 14:52:22.612453
12.65245334,4.149154663,-8.258528709,2.89142704,2024-06-04 14:52:22.652453
12.69245334,4.149154663,-8.258528709,2.89142704,2024-06-04 14:52:22.692453
12.73245334,4.149154663,-8.258528709,2.89142704,2024-06-04 14:52:22.732453
12.77245334,4.149154663,-8.258528709,2.89142704,2024-06-04 14:52:22.772453
12.81245334,4.149154663,-8.258528709,2.89142704,2024-06-04 14:52:22.812453
12.85245334,4.149154663,-8.258528709,2.89142704,2024-06-04 14:52:22.852453
12.89245334,2.175075769,-8.553144455,4.348955154,2024-06-04 14:52:22.892453
12.93245334,0.9197412133,-9.763913155,3.183650494,2024-06-04 14:52:22.932453
12.97245334,1.632503271,-8.634500504,2.63389945,2024-06-04 14:52:22.972453
13.01245334,4.329812527,-7.38664341,3.002693415,2024-06-04 14:52:23.012453
13.05245334,5.995815277,-6.779165745,3.792025566,2024-06-04 14:52:23.052453
13.09245334,4.316651821,-7.309773922,2.839981318,2024-06-04 14:52:23.092453
13.13245334,3.89043045,-8.390133858,2.791825771,2024-06-04 14:52:23.132453
13.17245334,3.97776866,-7.920841217,2.527119875,2024-06-04 14:52:23.172453
13.21245334,4.201796532,-6.800701141,1.348654628,2024-06-04 14:52:23.212453
13.25245334,4.485645294,-6.773183823,2.157129526,2024-06-04 14:52:23.252453
13.29245334,5.365904808,-8.180761337,2.921337366,2024-06-04 14:52:23.292453
13.33245334,4.732405186,-10.04447079,3.142972469,2024-06-04 14:52:23.332453
13.37245334,5.265406132,-10.48863888,2.867498875,2024-06-04 14:52:23.372453
13.41245334,5.325226784,-9.765109062,0.3317050338,2024-06-04 14:52:23.412453
13.45245334,5.325226784,-9.765109062,0.3317050338,2024-06-04 14:52:23.452453
13.49245334,5.325226784,-9.765109062,0.3317050338,2024-06-04 14:52:23.492453
13.53245334,5.325226784,-9.765109062,0.3317050338,2024-06-04 14:52:23.532453
13.57245334,5.325226784,-9.765109062,0.3317050338,2024-06-04 14:52:23.572453
13.61245334,1.966601133,-9.699306488,1.5224334,2024-06-04 14:52:23.612453
13.65245334,1.966601133,-9.699306488,1.5224334,2024-06-04 14:52:23.652453
13.69245334,1.966601133,-9.699306488,1.5224334,2024-06-04 14:52:23.692453
13.73245334,1.966601133,-9.699306488,1.5224334,2024-06-04 14:52:23.732453
13.77245334,1.966601133,-9.699306488,1.5224334,2024-06-04 14:52:23.772453
13.81245334,1.966601133,-9.699306488,1.5224334,2024-06-04 14:52:23.812453
13.85245334,1.966601133,-9.699306488,1.5224334,2024-06-04 14:52:23.852453
13.89245334,1.966601133,-9.699306488,1.5224334,2024-06-04 14:52:23.892453
13.93245334,1.765604019,-9.565308571,-0.8001000881,2024-06-04 14:52:23.932453
13.97245334,1.765604019,-9.565308571,-0.8001000881,2024-06-04 14:52:23.972453
14.01245334,1.765604019,-9.565308571,-0.8001000881,2024-06-04 14:52:24.012453
14.05245334,1.765604019,-9.565308571,-0.8001000881,2024-06-04 14:52:24.052453
14.09245334,3.536890984,-9.058628082,0.2228316069,2024-06-04 14:52:24.092453
14.13245334,3.536890984,-9.058628082,0.2228316069,2024-06-04 14:52:24.132453
14.17245334,3.536890984,-9.058628082,0.2228316069,2024-06-04 14:52:24.172453
14.21245334,3.536890984,-9.058628082,0.2228316069,2024-06-04 14:52:24.212453
14.25245334,3.536890984,-9.058628082,0.2228316069,2024-06-04 14:52:24.252453
14.29245334,3.536890984,-9.058628082,0.2228316069,2024-06-04 14:52:24.292453
14.33245334,3.536890984,-9.058628082,0.2228316069,2024-06-04 14:52:24.332453
14.37245334,3.536890984,-9.058628082,0.2228316069,2024-06-04 14:52:24.372453
14.41245334,3.536890984,-9.058628082,0.2228316069,2024-06-04 14:52:24.412453
14.45245334,3.536890984,-9.058628082,0.2228316069,2024-06-04 14:52:24.452453
14.49245334,3.536890984,-9.058628082,0.2228316069,2024-06-04 14:52:24.492453
14.53245334,3.536890984,-9.058628082,0.2228316069,2024-06-04 14:52:24.532453
14.57245334,3.536890984,-9.058628082,0.2228316069,2024-06-04 14:52:24.572453
14.61245334,3.536890984,-9.058628082,0.2228316069,2024-06-04 14:52:24.612453
14.65245334,3.536890984,-9.058628082,0.2228316069,2024-06-04 14:52:24.652453
14.69245334,3.536890984,-9.058628082,0.2228316069,2024-06-04 14:52:24.692453
14.73245334,3.536890984,-9.058628082,0.2228316069,2024-06-04 14:52:24.732453
14.77245334,3.536890984,-9.058628082,0.2228316069,2024-06-04 14:52:24.772453
14.81245334,3.536890984,-9.058628082,0.2228316069,2024-06-04 14:52:24.812453
14.85245334,3.536890984,-9.058628082,0.2228316069,2024-06-04 14:52:24.852453
14.89245334,3.536890984,-9.058628082,0.2228316069,2024-06-04 14:52:24.892453
14.93245334,3.043371201,-9.276674271,-0.9329017401,2024-06-04 14:52:24.932453
14.97245334,3.043371201,-9.276674271,-0.9329017401,2024-06-04 14:52:24.972453
15.01245334,2.900998354,-9.324530602,-0.9774680734,2024-06-04 14:52:25.012453
15.05245334,2.703291416,-9.395118713,-0.2551347017,2024-06-04 14:52:25.052453
15.09245334,2.904587507,-9.398708344,-0.5880361795,2024-06-04 14:52:25.092453
15.13245334,2.904587507,-9.398708344,-0.5880361795,2024-06-04 14:52:25.132453
15.17245334,2.904587507,-9.398708344,-0.5880361795,2024-06-04 14:52:25.172453
15.21245334,2.904587507,-9.398708344,-0.5880361795,2024-06-04 14:52:25.212453
15.25245334,2.904587507,-9.398708344,-0.5880361795,2024-06-04 14:52:25.252453
15.29245334,2.904587507,-9.398708344,-0.5880361795,2024-06-04 14:52:25.292453
15.33245334,2.904587507,-9.398708344,-0.5880361795,2024-06-04 14:52:25.332453
15.37245334,2.904587507,-9.398708344,-0.5880361795,2024-06-04 14:52:25.372453
15.41245334,2.904587507,-9.398708344,-0.5880361795,2024-06-04 14:52:25.412453
15.45245334,2.904587507,-9.398708344,-0.5880361795,2024-06-04 14:52:25.452453
15.49245334,2.904587507,-9.398708344,-0.5880361795,2024-06-04 14:52:25.492453
15.53245334,2.904587507,-9.398708344,-0.5880361795,2024-06-04 14:52:25.532453
15.57245334,2.904587507,-9.398708344,-0.5880361795,2024-06-04 14:52:25.572453
15.61245334,2.904587507,-9.398708344,-0.5880361795,2024-06-04 14:52:25.612453
15.65245334,2.904587507,-9.398708344,-0.5880361795,2024-06-04 14:52:25.652453
15.69245334,2.904587507,-9.398708344,-0.5880361795,2024-06-04 14:52:25.692453
15.73245334,2.904587507,-9.398708344,-0.5880361795,2024-06-04 14:52:25.732453
15.77245334,2.904587507,-9.398708344,-0.5880361795,2024-06-04 14:52:25.772453
15.81245334,2.904587507,-9.398708344,-0.5880361795,2024-06-04 14:52:25.812453
15.85245334,2.904587507,-9.398708344,-0.5880361795,2024-06-04 14:52:25.852453
15.89245334,2.904587507,-9.398708344,-0.5880361795,2024-06-04 14:52:25.892453
15.93245334,2.904587507,-9.398708344,-0.5880361795,2024-06-04 14:52:25.932453
15.97245334,2.904587507,-9.398708344,-0.5880361795,2024-06-04 14:52:25.972453
16.01245334,2.257628202,-10.04447079,0.7199404836,2024-06-04 14:52:26.012453
16.05245334,2.257628202,-10.04447079,0.7199404836,2024-06-04 14:52:26.052453
16.09245334,2.257628202,-10.04447079,0.7199404836,2024-06-04 14:52:26.092453
16.13245334,2.257628202,-10.04447079,0.7199404836,2024-06-04 14:52:26.132453
16.17245334,3.318845034,-9.912567139,1.791925073,2024-06-04 14:52:26.172453
16.21245334,3.318845034,-9.912567139,1.791925073,2024-06-04 14:52:26.212453
16.25245334,3.318845034,-9.912567139,1.791925073,2024-06-04 14:52:26.252453
16.29245334,3.318845034,-9.912567139,1.791925073,2024-06-04 14:52:26.292453
16.33245334,3.318845034,-9.912567139,1.791925073,2024-06-04 14:52:26.332453
16.37245334,3.318845034,-9.912567139,1.791925073,2024-06-04 14:52:26.372453
16.41245334,3.318845034,-9.912567139,1.791925073,2024-06-04 14:52:26.412453
16.45245334,3.318845034,-9.912567139,1.791925073,2024-06-04 14:52:26.452453
16.49245334,3.318845034,-9.912567139,1.791925073,2024-06-04 14:52:26.492453
16.53245334,3.318845034,-9.912567139,1.791925073,2024-06-04 14:52:26.532453
16.57245334,2.000100613,-7.712366581,-0.3508476317,2024-06-04 14:52:26.572453
16.61245334,2.000100613,-7.712366581,-0.3508476317,2024-06-04 14:52:26.612453
16.65245334,2.000100613,-7.712366581,-0.3508476317,2024-06-04 14:52:26.652453
16.69245334,2.000100613,-7.712366581,-0.3508476317,2024-06-04 14:52:26.692453
16.73245334,2.000100613,-7.712366581,-0.3508476317,2024-06-04 14:52:26.732453
16.77245334,2.000100613,-7.712366581,-0.3508476317,2024-06-04 14:52:26.772453
16.81245334,5.340780258,-8.846564293,2.752344131,2024-06-04 14:52:26.812453
16.85245334,5.340780258,-8.846564293,2.752344131,2024-06-04 14:52:26.852453
16.89245334,5.340780258,-8.846564293,2.752344131,2024-06-04 14:52:26.892453
16.93245334,3.952643871,-10.03220844,1.640878081,2024-06-04 14:52:26.932453
16.97245334,3.952643871,-10.03220844,1.640878081,2024-06-04 14:52:26.972453
17.01245334,3.952643871,-10.03220844,1.640878081,2024-06-04 14:52:27.012453
17.05245334,3.952643871,-10.03220844,1.640878081,2024-06-04 14:52:27.052453
17.09245334,3.952643871,-10.03220844,1.640878081,2024-06-04 14:52:27.092453
17.13245334,3.952643871,-10.03220844,1.640878081,2024-06-04 14:52:27.132453
17.17245334,3.952643871,-10.03220844,1.640878081,2024-06-04 14:52:27.172453
17.21245334,3.952643871,-10.03220844,1.640878081,2024-06-04 14:52:27.212453
17.25245334,3.952643871,-10.03220844,1.640878081,2024-06-04 14:52:27.252453
17.29245334,3.952643871,-10.03220844,1.640878081,2024-06-04 14:52:27.292453
17.33245334,3.952643871,-10.03220844,1.640878081,2024-06-04 14:52:27.332453
17.37245334,3.952643871,-10.03220844,1.640878081,2024-06-04 14:52:27.372453
17.41245334,1.654038668,-9.658628464,0.2479562461,2024-06-04 14:52:27.412453
17.45245334,1.654038668,-9.658628464,0.2479562461,2024-06-04 14:52:27.452453
17.49245334,1.654038668,-9.658628464,0.2479562461,2024-06-04 14:52:27.492453
17.53245334,1.654038668,-9.658628464,0.2479562461,2024-06-04 14:52:27.532453
17.57245334,1.654038668,-9.658628464,0.2479562461,2024-06-04 14:52:27.572453
17.61245334,1.654038668,-9.658628464,0.2479562461,2024-06-04 14:52:27.612453
17.65245334,1.654038668,-9.658628464,0.2479562461,2024-06-04 14:52:27.652453
17.69245334,1.654038668,-9.658628464,0.2479562461,2024-06-04 14:52:27.692453
17.73245334,1.654038668,-9.658628464,0.2479562461,2024-06-04 14:52:27.732453
17.77245334,1.654038668,-9.658628464,0.2479562461,2024-06-04 14:52:27.772453
17.81245334,1.654038668,-9.658628464,0.2479562461,2024-06-04 14:52:27.812453
17.85245334,1.654038668,-9.658628464,0.2479562461,2024-06-04 14:52:27.852453
17.89245334,1.654038668,-9.658628464,0.2479562461,2024-06-04 14:52:27.892453
17.93245334,1.654038668,-9.658628464,0.2479562461,2024-06-04 14:52:27.932453
17.97245334,1.654038668,-9.658628464,0.2479562461,2024-06-04 14:52:27.972453
18.01245334,1.654038668,-9.658628464,0.2479562461,2024-06-04 14:52:28.012453
18.05245334,1.654038668,-9.658628464,0.2479562461,2024-06-04 14:52:28.052453
18.09245334,1.654038668,-9.658628464,0.2479562461,2024-06-04 14:52:28.092453
18.13245334,1.654038668,-9.658628464,0.2479562461,2024-06-04 14:52:28.132453
18.17245334,2.629113913,-9.591629982,-0.304187566,2024-06-04 14:52:28.172453
18.21245334,3.045764208,-9.212965012,-0.1390828192,2024-06-04 14:52:28.212453
18.21245334,2.629113913,-9.591629982,-0.304187566,2024-06-04 14:52:28.212453
18.29245334,2.45533514,-9.441779137,-0.4456632137,2024-06-04 14:52:28.292453
18.33245334,2.45533514,-9.441779137,-0.4456632137,2024-06-04 14:52:28.332453
18.37245334,2.45533514,-9.441779137,-0.4456632137,2024-06-04 14:52:28.372453
18.41245334,2.45533514,-9.441779137,-0.4456632137,2024-06-04 14:52:28.412453
18.45245334,2.45533514,-9.441779137,-0.4456632137,2024-06-04 14:52:28.452453
18.49245334,2.45533514,-9.441779137,-0.4456632137,2024-06-04 14:52:28.492453
18.53245334,1.042074203,-10.30439186,0.09810572863,2024-06-04 14:52:28.532453
18.57245334,1.042074203,-10.30439186,0.09810572863,2024-06-04 14:52:28.572453
18.61245334,1.042074203,-10.30439186,0.09810572863,2024-06-04 14:52:28.612453
18.65245334,1.042074203,-10.30439186,0.09810572863,2024-06-04 14:52:28.652453
18.69245334,1.042074203,-10.30439186,0.09810572863,2024-06-04 14:52:28.692453
18.73245334,1.042074203,-10.30439186,0.09810572863,2024-06-04 14:52:28.732453
18.77245334,1.042074203,-10.30439186,0.09810572863,2024-06-04 14:52:28.772453
18.81245334,1.042074203,-10.30439186,0.09810572863,2024-06-04 14:52:28.812453
18.85245334,1.042074203,-10.30439186,0.09810572863,2024-06-04 14:52:28.852453
18.89245334,1.042074203,-10.30439186,0.09810572863,2024-06-04 14:52:28.892453
18.93245334,2.115255117,-9.318549156,0.1184447184,2024-06-04 14:52:28.932453
18.97245334,2.115255117,-9.318549156,0.1184447184,2024-06-04 14:52:28.972453
19.01245334,2.115255117,-9.318549156,0.1184447184,2024-06-04 14:52:29.012453
19.05245334,4.18145752,-8.366205215,-0.1725823283,2024-06-04 14:52:29.052453
19.09245334,3.339184046,-9.083752632,-1.128215909,2024-06-04 14:52:29.092453
19.13245334,3.339184046,-9.083752632,-1.128215909,2024-06-04 14:52:29.132453
19.17245334,3.339184046,-9.083752632,-1.128215909,2024-06-04 14:52:29.172453
19.21245334,3.339184046,-9.083752632,-1.128215909,2024-06-04 14:52:29.212453
19.25245334,3.339184046,-9.083752632,-1.128215909,2024-06-04 14:52:29.252453
19.29245334,3.339184046,-9.083752632,-1.128215909,2024-06-04 14:52:29.292453
19.33245334,3.339184046,-9.083752632,-1.128215909,2024-06-04 14:52:29.332453
19.37245334,2.653042078,-8.7532444,-1.77996099,2024-06-04 14:52:29.372453
19.41245334,2.571686029,-10.78325558,-1.403689623,2024-06-04 14:52:29.412453
19.45245334,2.571686029,-10.78325558,-1.403689623,2024-06-04 14:52:29.452453
19.49245334,2.571686029,-10.78325558,-1.403689623,2024-06-04 14:52:29.492453
19.53245334,2.571686029,-10.78325558,-1.403689623,2024-06-04 14:52:29.532453
19.57245334,2.571686029,-10.78325558,-1.403689623,2024-06-04 14:52:29.572453
19.61245334,2.571686029,-10.78325558,-1.403689623,2024-06-04 14:52:29.612453
19.65245334,2.571686029,-10.78325558,-1.403689623,2024-06-04 14:52:29.652453
19.69245334,3.362214804,-8.027321815,-0.1546361595,2024-06-04 14:52:29.692453
19.73245334,3.362214804,-8.027321815,-0.1546361595,2024-06-04 14:52:29.732453
19.77245334,3.362214804,-8.027321815,-0.1546361595,2024-06-04 14:52:29.772453
19.81245334,3.362214804,-8.027321815,-0.1546361595,2024-06-04 14:52:29.812453
19.85245334,3.362214804,-8.027321815,-0.1546361595,2024-06-04 14:52:29.852453
19.89245334,3.362214804,-8.027321815,-0.1546361595,2024-06-04 14:52:29.892453
19.93245334,-0.6059823632,-12.59791183,2.895016193,2024-06-04 14:52:29.932453
19.97245334,-0.6059823632,-12.59791183,2.895016193,2024-06-04 14:52:29.972453
20.01245334,-0.6059823632,-12.59791183,2.895016193,2024-06-04 14:52:30.012453
20.05245334,-0.6059823632,-12.59791183,2.895016193,2024-06-04 14:52:30.052453
20.09245334,-0.6059823632,-12.59791183,2.895016193,2024-06-04 14:52:30.092453
20.13245334,-0.6059823632,-12.59791183,2.895016193,2024-06-04 14:52:30.132453
20.13245334,1.754836321,-9.183054924,-0.1773679852,2024-06-04 14:52:30.132453
20.21245334,1.754836321,-9.183054924,-0.1773679852,2024-06-04 14:52:30.212453
20.25245334,1.754836321,-9.183054924,-0.1773679852,2024-06-04 14:52:30.252453
20.29245334,1.754836321,-9.183054924,-0.1773679852,2024-06-04 14:52:30.292453
20.33245334,1.754836321,-9.183054924,-0.1773679852,2024-06-04 14:52:30.332453
20.37245334,1.754836321,-9.183054924,-0.1773679852,2024-06-04 14:52:30.372453
20.41245334,1.754836321,-9.183054924,-0.1773679852,2024-06-04 14:52:30.412453
20.45245334,1.754836321,-9.183054924,-0.1773679852,2024-06-04 14:52:30.452453
20.49245334,1.754836321,-9.183054924,-0.1773679852,2024-06-04 14:52:30.492453
20.53245334,1.754836321,-9.183054924,-0.1773679852,2024-06-04 14:52:30.532453
20.57245334,1.754836321,-9.183054924,-0.1773679852,2024-06-04 14:52:30.572453
20.61245334,1.754836321,-9.183054924,-0.1773679852,2024-06-04 14:52:30.612453
20.65245334,1.754836321,-9.183054924,-0.1773679852,2024-06-04 14:52:30.652453
20.69245334,1.754836321,-9.183054924,-0.1773679852,2024-06-04 14:52:30.692453
20.73245334,1.754836321,-9.183054924,-0.1773679852,2024-06-04 14:52:30.732453
20.77245334,1.754836321,-9.183054924,-0.1773679852,2024-06-04 14:52:30.772453
20.81245334,1.754836321,-9.183054924,-0.1773679852,2024-06-04 14:52:30.812453
20.85245334,3.48783803,-10.76650524,0.08733802289,2024-06-04 14:52:30.852453
20.89245334,2.236092806,-10.70309544,1.540379524,2024-06-04 14:52:30.892453
20.93245334,2.236092806,-10.70309544,1.540379524,2024-06-04 14:52:30.932453
20.97245334,2.236092806,-10.70309544,1.540379524,2024-06-04 14:52:30.972453
21.01245334,2.236092806,-10.70309544,1.540379524,2024-06-04 14:52:31.012453
21.05245334,2.236092806,-10.70309544,1.540379524,2024-06-04 14:52:31.052453
21.09245334,2.236092806,-10.70309544,1.540379524,2024-06-04 14:52:31.092453
21.13245334,2.236092806,-10.70309544,1.540379524,2024-06-04 14:52:31.132453
21.17245334,2.109273195,-9.617950439,-0.2180459648,2024-06-04 14:52:31.172453
21.21245334,2.109273195,-9.617950439,-0.2180459648,2024-06-04 14:52:31.212453
21.25245334,2.109273195,-9.617950439,-0.2180459648,2024-06-04 14:52:31.252453
21.29245334,2.109273195,-9.617950439,-0.2180459648,2024-06-04 14:52:31.292453
21.33245334,2.109273195,-9.617950439,-0.2180459648,2024-06-04 14:52:31.332453
21.37245334,2.109273195,-9.617950439,-0.2180459648,2024-06-04 14:52:31.372453
21.41245334,2.109273195,-9.617950439,-0.2180459648,2024-06-04 14:52:31.412453
21.45245334,2.109273195,-9.617950439,-0.2180459648,2024-06-04 14:52:31.452453
21.49245334,2.109273195,-9.617950439,-0.2180459648,2024-06-04 14:52:31.492453
21.53245334,2.109273195,-9.617950439,-0.2180459648,2024-06-04 14:52:31.532453
21.57245334,2.109273195,-9.617950439,-0.2180459648,2024-06-04 14:52:31.572453
21.61245334,2.109273195,-9.617950439,-0.2180459648,2024-06-04 14:52:31.612453
21.65245334,2.109273195,-9.617950439,-0.2180459648,2024-06-04 14:52:31.652453
21.69245334,2.109273195,-9.617950439,-0.2180459648,2024-06-04 14:52:31.692453
21.73245334,2.109273195,-9.617950439,-0.2180459648,2024-06-04 14:52:31.732453
21.77245334,2.109273195,-9.617950439,-0.2180459648,2024-06-04 14:52:31.772453
21.81245334,1.842174292,-9.990333557,-0.8060821295,2024-06-04 14:52:31.812453
21.85245334,1.842174292,-9.990333557,-0.8060821295,2024-06-04 14:52:31.852453
21.89245334,1.842174292,-9.990333557,-0.8060821295,2024-06-04 14:52:31.892453
21.93245334,2.137987137,-9.273084641,1.088734269,2024-06-04 14:52:31.932453
21.97245334,2.137987137,-9.273084641,1.088734269,2024-06-04 14:52:31.972453
22.01245334,2.137987137,-9.273084641,1.088734269,2024-06-04 14:52:32.012453
22.05245334,2.137987137,-9.273084641,1.088734269,2024-06-04 14:52:32.052453
22.09245334,2.137987137,-9.273084641,1.088734269,2024-06-04 14:52:32.092453
22.13245334,2.137987137,-9.273084641,1.088734269,2024-06-04 14:52:32.132453
22.17245334,2.137987137,-9.273084641,1.088734269,2024-06-04 14:52:32.172453
22.21245334,2.137987137,-9.273084641,1.088734269,2024-06-04 14:52:32.212453
22.25245334,2.137987137,-9.273084641,1.088734269,2024-06-04 14:52:32.252453
22.29245334,2.137987137,-9.273084641,1.088734269,2024-06-04 14:52:32.292453
22.33245334,2.137987137,-9.273084641,1.088734269,2024-06-04 14:52:32.332453
22.37245334,0.9269196987,-11.75952721,3.889234066,2024-06-04 14:52:32.372453
22.41245334,0.9269196987,-11.75952721,3.889234066,2024-06-04 14:52:32.412453
22.45245334,0.9269196987,-11.75952721,3.889234066,2024-06-04 14:52:32.452453
22.49245334,0.9269196987,-11.75952721,3.889234066,2024-06-04 14:52:32.492453
22.53245334,0.9269196987,-11.75952721,3.889234066,2024-06-04 14:52:32.532453
22.57245334,1.494915962,-10.52094173,-0.9894321561,2024-06-04 14:52:32.572453
22.61245334,3.727419376,-5.767300606,-0.5258227587,2024-06-04 14:52:32.612453
22.65245334,5.352744102,-6.810272217,1.928315997,2024-06-04 14:52:32.652453
22.69245334,5.352744102,-6.810272217,1.928315997,2024-06-04 14:52:32.692453
22.73245334,5.352744102,-6.810272217,1.928315997,2024-06-04 14:52:32.732453
22.77245334,5.352744102,-6.810272217,1.928315997,2024-06-04 14:52:32.772453
22.81245334,5.352744102,-6.810272217,1.928315997,2024-06-04 14:52:32.812453
22.85245334,5.352744102,-6.810272217,1.928315997,2024-06-04 14:52:32.852453
22.89245334,5.352744102,-6.810272217,1.928315997,2024-06-04 14:52:32.892453
22.93245334,1.297209024,-6.684648991,3.548855066,2024-06-04 14:52:32.932453
22.97245334,1.297209024,-6.684648991,3.548855066,2024-06-04 14:52:32.972453
23.01245334,1.297209024,-6.684648991,3.548855066,2024-06-04 14:52:33.012453
23.05245334,1.297209024,-6.684648991,3.548855066,2024-06-04 14:52:33.052453
23.09245334,1.297209024,-6.684648991,3.548855066,2024-06-04 14:52:33.092453
23.13245334,1.297209024,-6.684648991,3.548855066,2024-06-04 14:52:33.132453
23.17245334,-0.4133601189,-9.548559189,8.35304451,2024-06-04 14:52:33.172453
23.21245334,0.03589234129,-8.165207863,7.663313389,2024-06-04 14:52:33.212453
23.25245334,2.151147604,-5.694020748,7.19970417,2024-06-04 14:52:33.252453
23.29245334,2.151147604,-5.694020748,7.19970417,2024-06-04 14:52:33.292453
23.33245334,2.151147604,-5.694020748,7.19970417,2024-06-04 14:52:33.332453
23.37245334,2.151147604,-5.694020748,7.19970417,2024-06-04 14:52:33.372453
23.41245334,2.151147604,-5.694020748,7.19970417,2024-06-04 14:52:33.412453
23.45245334,2.151147604,-5.694020748,7.19970417,2024-06-04 14:52:33.452453
23.49245334,2.151147604,-5.694020748,7.19970417,2024-06-04 14:52:33.492453
23.53245334,2.151147604,-5.694020748,7.19970417,2024-06-04 14:52:33.532453
23.57245334,2.151147604,-5.694020748,7.19970417,2024-06-04 14:52:33.572453
23.61245334,2.151147604,-5.694020748,7.19970417,2024-06-04 14:52:33.612453
23.65245334,2.151147604,-5.694020748,7.19970417,2024-06-04 14:52:33.652453
23.69245334,2.151147604,-5.694020748,7.19970417,2024-06-04 14:52:33.692453
23.73245334,2.151147604,-5.694020748,7.19970417,2024-06-04 14:52:33.732453
23.77245334,2.151147604,-5.694020748,7.19970417,2024-06-04 14:52:33.772453
23.81245334,2.151147604,-5.694020748,7.19970417,2024-06-04 14:52:33.812453
23.85245334,2.151147604,-5.694020748,7.19970417,2024-06-04 14:52:33.852453
23.89245334,2.151147604,-5.694020748,7.19970417,2024-06-04 14:52:33.892453
23.93245334,2.709273338,-9.190233231,0.6538388133,2024-06-04 14:52:33.932453
23.97245334,2.709273338,-9.190233231,0.6538388133,2024-06-04 14:52:33.972453
24.01245334,2.709273338,-9.190233231,0.6538388133,2024-06-04 14:52:34.012453
24.05245334,2.709273338,-9.190233231,0.6538388133,2024-06-04 14:52:34.052453
24.05245334,1.508076429,-9.658628464,-0.8252246976,2024-06-04 14:52:34.052453
24.13245334,5.417350292,-8.108677864,5.545665741,2024-06-04 14:52:34.132453
24.17245334,5.417350292,-8.108677864,5.545665741,2024-06-04 14:52:34.172453
24.21245334,5.417350292,-8.108677864,5.545665741,2024-06-04 14:52:34.212453
24.25245334,5.417350292,-8.108677864,5.545665741,2024-06-04 14:52:34.252453
24.29245334,5.417350292,-8.108677864,5.545665741,2024-06-04 14:52:34.292453
24.33245334,5.417350292,-8.108677864,5.545665741,2024-06-04 14:52:34.332453
24.37245334,5.417350292,-8.108677864,5.545665741,2024-06-04 14:52:34.372453
24.41245334,3.296113253,-9.11725235,0.5198407173,2024-06-04 14:52:34.412453
24.41245334,3.296113253,-9.11725235,0.5198407173,2024-06-04 14:52:34.412453
24.49245334,3.296113253,-9.11725235,0.5198407173,2024-06-04 14:52:34.492453
24.53245334,3.296113253,-9.11725235,0.5198407173,2024-06-04 14:52:34.532453
24.57245334,3.296113253,-9.11725235,0.5198407173,2024-06-04 14:52:34.572453
24.61245334,3.296113253,-9.11725235,0.5198407173,2024-06-04 14:52:34.612453
24.65245334,3.296113253,-9.11725235,0.5198407173,2024-06-04 14:52:34.652453
24.69245334,3.296113253,-9.11725235,0.5198407173,2024-06-04 14:52:34.692453
24.73245334,3.296113253,-9.11725235,0.5198407173,2024-06-04 14:52:34.732453
24.77245334,3.296113253,-9.11725235,0.5198407173,2024-06-04 14:52:34.772453
24.81245334,3.296113253,-9.11725235,0.5198407173,2024-06-04 14:52:34.812453
24.85245334,3.296113253,-9.11725235,0.5198407173,2024-06-04 14:52:34.852453
24.89245334,2.117648125,-9.579665184,-1.032503009,2024-06-04 14:52:34.892453
24.93245334,3.050549746,-9.695717812,-0.6924230456,2024-06-04 14:52:34.932453
24.97245334,1.741675735,-9.237193108,-0.3592225015,2024-06-04 14:52:34.972453
25.01245334,1.741675735,-9.237193108,-0.3592225015,2024-06-04 14:52:35.012453
25.05245334,1.741675735,-9.237193108,-0.3592225015,2024-06-04 14:52:35.052453
25.09245334,1.741675735,-9.237193108,-0.3592225015,2024-06-04 14:52:35.092453
25.13245334,1.741675735,-9.237193108,-0.3592225015,2024-06-04 14:52:35.132453
25.17245334,2.849552631,-8.898010254,-0.5210371017,2024-06-04 14:52:35.172453
25.21245334,2.248056889,-9.731609344,-1.11984098,2024-06-04 14:52:35.212453
25.25245334,2.099701881,-9.474081993,-0.1016949639,2024-06-04 14:52:35.252453
25.29245334,2.099701881,-9.474081993,-0.1016949639,2024-06-04 14:52:35.292453
25.33245334,2.099701881,-9.474081993,-0.1016949639,2024-06-04 14:52:35.332453
25.37245334,2.099701881,-9.474081993,-0.1016949639,2024-06-04 14:52:35.372453
25.41245334,2.099701881,-9.474081993,-0.1016949639,2024-06-04 14:52:35.412453
25.45245334,2.099701881,-9.474081993,-0.1016949639,2024-06-04 14:52:35.452453
25.49245334,2.099701881,-9.474081993,-0.1016949639,2024-06-04 14:52:35.492453
25.53245334,2.099701881,-9.474081993,-0.1016949639,2024-06-04 14:52:35.532453
25.57245334,2.099701881,-9.474081993,-0.1016949639,2024-06-04 14:52:35.572453
25.61245334,2.099701881,-9.474081993,-0.1016949639,2024-06-04 14:52:35.612453
25.65245334,2.099701881,-9.474081993,-0.1016949639,2024-06-04 14:52:35.652453
25.69245334,2.099701881,-9.474081993,-0.1016949639,2024-06-04 14:52:35.692453
25.73245334,2.099701881,-9.474081993,-0.1016949639,2024-06-04 14:52:35.732453
25.77245334,2.099701881,-9.474081993,-0.1016949639,2024-06-04 14:52:35.772453
25.81245334,5.804389477,-9.206983566,1.002592683,2024-06-04 14:52:35.812453
25.85245334,3.532105207,-9.887442589,1.839781523,2024-06-04 14:52:35.852453
25.89245334,3.532105207,-9.887442589,1.839781523,2024-06-04 14:52:35.892453
25.93245334,3.532105207,-9.887442589,1.839781523,2024-06-04 14:52:35.932453
25.97245334,3.532105207,-9.887442589,1.839781523,2024-06-04 14:52:35.972453
26.01245334,3.532105207,-9.887442589,1.839781523,2024-06-04 14:52:36.012453
26.05245334,3.532105207,-9.887442589,1.839781523,2024-06-04 14:52:36.052453
26.09245334,3.532105207,-9.887442589,1.839781523,2024-06-04 14:52:36.092453
26.13245334,3.532105207,-9.887442589,1.839781523,2024-06-04 14:52:36.132453
26.17245334,-0.6948158741,-7.8810606,1.563111424,2024-06-04 14:52:36.172453
26.21245334,-0.6948158741,-7.8810606,1.563111424,2024-06-04 14:52:36.212453
26.25245334,-0.6948158741,-7.8810606,1.563111424,2024-06-04 14:52:36.252453
26.29245334,-0.6948158741,-7.8810606,1.563111424,2024-06-04 14:52:36.292453
26.33245334,-0.6948158741,-7.8810606,1.563111424,2024-06-04 14:52:36.332453
26.37245334,-0.6948158741,-7.8810606,1.563111424,2024-06-04 14:52:36.372453
26.41245334,-0.6948158741,-7.8810606,1.563111424,2024-06-04 14:52:36.412453
26.45245334,-0.6948158741,-7.8810606,1.563111424,2024-06-04 14:52:36.452453
26.49245334,-0.6948158741,-7.8810606,1.563111424,2024-06-04 14:52:36.492453
26.53245334,-0.6948158741,-7.8810606,1.563111424,2024-06-04 14:52:36.532453
26.57245334,-0.6948158741,-7.8810606,1.563111424,2024-06-04 14:52:36.572453
26.61245334,-0.6948158741,-7.8810606,1.563111424,2024-06-04 14:52:36.612453
26.65245334,-0.6948158741,-7.8810606,1.563111424,2024-06-04 14:52:36.652453
26.69245334,-0.6948158741,-7.8810606,1.563111424,2024-06-04 14:52:36.692453
26.73245334,4.316651821,-8.671588898,-0.1630110443,2024-06-04 14:52:36.732453
26.77245334,4.525126934,-8.866903305,0.2647060156,2024-06-04 14:52:36.772453
26.81245334,4.525126934,-8.866903305,0.2647060156,2024-06-04 14:52:36.812453
26.85245334,4.525126934,-8.866903305,0.2647060156,2024-06-04 14:52:36.852453
26.89245334,4.525126934,-8.866903305,0.2647060156,2024-06-04 14:52:36.892453
26.93245334,1.097109199,-10.23589706,1.737787485,2024-06-04 14:52:36.932453
26.97245334,1.097109199,-10.23589706,1.737787485,2024-06-04 14:52:36.972453
27.01245334,1.097109199,-10.23589706,1.737787485,2024-06-04 14:52:37.012453
27.05245334,1.097109199,-10.23589706,1.737787485,2024-06-04 14:52:37.052453
27.09245334,1.097109199,-10.23589706,1.737787485,2024-06-04 14:52:37.092453
27.13245334,1.097109199,-10.23589706,1.737787485,2024-06-04 14:52:37.132453
27.17245334,1.097109199,-10.23589706,1.737787485,2024-06-04 14:52:37.172453
27.21245334,1.097109199,-10.23589706,1.737787485,2024-06-04 14:52:37.212453
27.25245334,1.097109199,-10.23589706,1.737787485,2024-06-04 14:52:37.252453
27.29245334,1.097109199,-10.23589706,1.737787485,2024-06-04 14:52:37.292453
27.33245334,1.097109199,-10.23589706,1.737787485,2024-06-04 14:52:37.332453
27.37245334,1.097109199,-10.23589706,1.737787485,2024-06-04 14:52:37.372453
27.41245334,1.097109199,-10.23589706,1.737787485,2024-06-04 14:52:37.412453
27.45245334,1.097109199,-10.23589706,1.737787485,2024-06-04 14:52:37.452453
27.49245334,1.097109199,-10.23589706,1.737787485,2024-06-04 14:52:37.492453
27.53245334,1.097109199,-10.23589706,1.737787485,2024-06-04 14:52:37.532453
27.57245334,1.097109199,-10.23589706,1.737787485,2024-06-04 14:52:37.572453
27.61245334,1.097109199,-10.23589706,1.737787485,2024-06-04 14:52:37.612453
27.65245334,1.097109199,-10.23589706,1.737787485,2024-06-04 14:52:37.652453
27.69245334,1.097109199,-10.23589706,1.737787485,2024-06-04 14:52:37.692453
27.73245334,1.097109199,-10.23589706,1.737787485,2024-06-04 14:52:37.732453
27.77245334,1.097109199,-10.23589706,1.737787485,2024-06-04 14:52:37.772453
27.81245334,1.097109199,-10.23589706,1.737787485,2024-06-04 14:52:37.812453
27.85245334,1.097109199,-10.23589706,1.737787485,2024-06-04 14:52:37.852453
27.89245334,1.097109199,-10.23589706,1.737787485,2024-06-04 14:52:37.892453
27.93245334,1.097109199,-10.23589706,1.737787485,2024-06-04 14:52:37.932453
27.97245334,1.097109199,-10.23589706,1.737787485,2024-06-04 14:52:37.972453
28.01245334,1.097109199,-10.23589706,1.737787485,2024-06-04 14:52:38.012453
28.05245334,1.097109199,-10.23589706,1.737787485,2024-06-04 14:52:38.052453
28.09245334,1.097109199,-10.23589706,1.737787485,2024-06-04 14:52:38.092453
28.13245334,1.097109199,-10.23589706,1.737787485,2024-06-04 14:52:38.132453
28.17245334,0.494716078,-9.531808853,-1.365404367,2024-06-04 14:52:38.172453
28.21245334,0.494716078,-9.531808853,-1.365404367,2024-06-04 14:52:38.212453
28.25245334,0.494716078,-9.531808853,-1.365404367,2024-06-04 14:52:38.252453
28.29245334,0.494716078,-9.531808853,-1.365404367,2024-06-04 14:52:38.292453
28.33245334,1.018146038,-9.753145218,-0.3580260873,2024-06-04 14:52:38.332453
28.37245334,1.018146038,-9.753145218,-0.3580260873,2024-06-04 14:52:38.372453
28.41245334,1.018146038,-9.753145218,-0.3580260873,2024-06-04 14:52:38.412453
28.45245334,1.018146038,-9.753145218,-0.3580260873,2024-06-04 14:52:38.452453
28.49245334,1.018146038,-9.753145218,-0.3580260873,2024-06-04 14:52:38.492453
28.53245334,4.601696968,-7.414160728,1.667199135,2024-06-04 14:52:38.532453
28.57245334,4.601696968,-7.414160728,1.667199135,2024-06-04 14:52:38.572453
28.61245334,4.601696968,-7.414160728,1.667199135,2024-06-04 14:52:38.612453
28.65245334,4.601696968,-7.414160728,1.667199135,2024-06-04 14:52:38.652453
28.69245334,4.601696968,-7.414160728,1.667199135,2024-06-04 14:52:38.692453
28.73245334,4.601696968,-7.414160728,1.667199135,2024-06-04 14:52:38.732453
28.77245334,4.601696968,-7.414160728,1.667199135,2024-06-04 14:52:38.772453
28.81245334,4.601696968,-7.414160728,1.667199135,2024-06-04 14:52:38.812453
28.85245334,4.601696968,-7.414160728,1.667199135,2024-06-04 14:52:38.852453
28.89245334,4.601696968,-7.414160728,1.667199135,2024-06-04 14:52:38.892453
28.93245334,0.9173483849,-10.25384331,-0.7737790346,2024-06-04 14:52:38.932453
28.97245334,0.9173483849,-10.25384331,-0.7737790346,2024-06-04 14:52:38.972453
29.01245334,0.9173483849,-10.25384331,-0.7737790346,2024-06-04 14:52:39.012453
29.05245334,2.42422843,-10.31994534,-1.591825247,2024-06-04 14:52:39.052453
29.09245334,2.42422843,-10.31994534,-1.591825247,2024-06-04 14:52:39.092453
29.13245334,2.42422843,-10.31994534,-1.591825247,2024-06-04 14:52:39.132453
29.17245334,4.104588032,-10.20837975,0.584446907,2024-06-04 14:52:39.172453
29.21245334,4.104588032,-10.20837975,0.584446907,2024-06-04 14:52:39.212453
29.25245334,4.104588032,-10.20837975,0.584446907,2024-06-04 14:52:39.252453
29.29245334,-0.0466600433,-10.48744297,-0.9511470199,2024-06-04 14:52:39.292453
29.33245334,1.294816136,-9.421440125,-0.5976074338,2024-06-04 14:52:39.332453
29.37245334,1.294816136,-9.421440125,-0.5976074338,2024-06-04 14:52:39.372453
29.41245334,1.294816136,-9.421440125,-0.5976074338,2024-06-04 14:52:39.412453
29.45245334,1.294816136,-9.421440125,-0.5976074338,2024-06-04 14:52:39.452453
29.49245334,1.294816136,-9.421440125,-0.5976074338,2024-06-04 14:52:39.492453
29.53245334,1.294816136,-9.421440125,-0.5976074338,2024-06-04 14:52:39.532453
29.57245334,1.294816136,-9.421440125,-0.5976074338,2024-06-04 14:52:39.572453
29.61245334,1.294816136,-9.421440125,-0.5976074338,2024-06-04 14:52:39.612453
29.65245334,1.294816136,-9.421440125,-0.5976074338,2024-06-04 14:52:39.652453
29.69245334,1.156929731,-9.125627518,-0.3281157911,2024-06-04 14:52:39.692453
29.73245334,1.156929731,-9.125627518,-0.3281157911,2024-06-04 14:52:39.732453
29.77245334,1.156929731,-9.125627518,-0.3281157911,2024-06-04 14:52:39.772453
29.81245334,1.156929731,-9.125627518,-0.3281157911,2024-06-04 14:52:39.812453
29.85245334,-0.6708876491,-12.71665573,4.29392004,2024-06-04 14:52:39.852453
29.89245334,-1.274477124,-11.56062317,3.239881754,2024-06-04 14:52:39.892453
29.93245334,0.05742774159,-12.02662563,6.046363831,2024-06-04 14:52:39.932453
29.97245334,0.05742774159,-12.02662563,6.046363831,2024-06-04 14:52:39.972453
30.01245334,0.05742774159,-12.02662563,6.046363831,2024-06-04 14:52:40.012453
30.05245334,0.05742774159,-12.02662563,6.046363831,2024-06-04 14:52:40.052453
30.09245334,0.05742774159,-12.02662563,6.046363831,2024-06-04 14:52:40.092453
30.13245334,3.894019842,-11.53549862,5.50857687,2024-06-04 14:52:40.132453
30.17245334,2.357229471,-8.719744682,-0.1881356835,2024-06-04 14:52:40.172453
30.21245334,2.357229471,-8.719744682,-0.1881356835,2024-06-04 14:52:40.212453
30.25245334,2.357229471,-8.719744682,-0.1881356835,2024-06-04 14:52:40.252453
30.29245334,2.357229471,-8.719744682,-0.1881356835,2024-06-04 14:52:40.292453
30.33245334,2.357229471,-8.719744682,-0.1881356835,2024-06-04 14:52:40.332453
30.37245334,2.357229471,-8.719744682,-0.1881356835,2024-06-04 14:52:40.372453
30.41245334,2.357229471,-8.719744682,-0.1881356835,2024-06-04 14:52:40.412453
30.45245334,2.357229471,-8.719744682,-0.1881356835,2024-06-04 14:52:40.452453
30.49245334,2.357229471,-8.719744682,-0.1881356835,2024-06-04 14:52:40.492453
30.53245334,2.357229471,-8.719744682,-0.1881356835,2024-06-04 14:52:40.532453
30.57245334,2.357229471,-8.719744682,-0.1881356835,2024-06-04 14:52:40.572453
30.61245334,2.357229471,-8.719744682,-0.1881356835,2024-06-04 14:52:40.612453
30.65245334,2.357229471,-8.719744682,-0.1881356835,2024-06-04 14:52:40.652453
30.69245334,2.357229471,-8.719744682,-0.1881356835,2024-06-04 14:52:40.692453
30.73245334,1.870888233,-10.1270237,-1.864906192,2024-06-04 14:52:40.732453
30.77245334,-5.03300333,-15.41276932,2.711666346,2024-06-04 14:52:40.772453
30.81245334,-1.719841242,-10.13779163,-2.824428082,2024-06-04 14:52:40.812453
30.85245334,-1.719841242,-10.13779163,-2.824428082,2024-06-04 14:52:40.852453
30.89245334,-1.719841242,-10.13779163,-2.824428082,2024-06-04 14:52:40.892453
30.93245334,-1.719841242,-10.13779163,-2.824428082,2024-06-04 14:52:40.932453
30.97245334,-1.719841242,-10.13779163,-2.824428082,2024-06-04 14:52:40.972453
31.01245334,-1.719841242,-10.13779163,-2.824428082,2024-06-04 14:52:41.012453
31.05245334,-1.719841242,-10.13779163,-2.824428082,2024-06-04 14:52:41.052453
31.09245334,-1.719841242,-10.13779163,-2.824428082,2024-06-04 14:52:41.092453
31.13245334,-1.719841242,-10.13779163,-2.824428082,2024-06-04 14:52:41.132453
31.17245334,-1.719841242,-10.13779163,-2.824428082,2024-06-04 14:52:41.172453
31.21245334,-1.719841242,-10.13779163,-2.824428082,2024-06-04 14:52:41.212453
31.25245334,-1.719841242,-10.13779163,-2.824428082,2024-06-04 14:52:41.252453
31.29245334,-1.719841242,-10.13779163,-2.824428082,2024-06-04 14:52:41.292453
31.33245334,-1.719841242,-10.13779163,-2.824428082,2024-06-04 14:52:41.332453
31.37245334,-1.719841242,-10.13779163,-2.824428082,2024-06-04 14:52:41.372453
31.41245334,-1.719841242,-10.13779163,-2.824428082,2024-06-04 14:52:41.412453
31.45245334,-1.719841242,-10.13779163,-2.824428082,2024-06-04 14:52:41.452453
31.49245334,-1.719841242,-10.13779163,-2.824428082,2024-06-04 14:52:41.492453
31.53245334,1.878066659,-5.328815937,-1.221835017,2024-06-04 14:52:41.532453
31.57245334,1.878066659,-5.328815937,-1.221835017,2024-06-04 14:52:41.572453
31.61245334,1.878066659,-5.328815937,-1.221835017,2024-06-04 14:52:41.612453
31.65245334,1.878066659,-5.328815937,-1.221835017,2024-06-04 14:52:41.652453
31.69245334,1.878066659,-5.328815937,-1.221835017,2024-06-04 14:52:41.692453
31.73245334,1.878066659,-5.328815937,-1.221835017,2024-06-04 14:52:41.732453
31.77245334,1.878066659,-5.328815937,-1.221835017,2024-06-04 14:52:41.772453
31.81245334,1.878066659,-5.328815937,-1.221835017,2024-06-04 14:52:41.812453
31.85245334,3.577569008,-3.857828379,-5.723930836,2024-06-04 14:52:41.852453
31.89245334,3.577569008,-3.857828379,-5.723930836,2024-06-04 14:52:41.892453
31.93245334,5.08684206,-5.313262463,-1.285244823,2024-06-04 14:52:41.932453
31.97245334,5.08684206,-5.313262463,-1.285244823,2024-06-04 14:52:41.972453
32.01245334,5.08684206,-5.313262463,-1.285244823,2024-06-04 14:52:42.012453
32.05245334,5.08684206,-5.313262463,-1.285244823,2024-06-04 14:52:42.052453
32.09245334,5.08684206,-5.313262463,-1.285244823,2024-06-04 14:52:42.092453
32.13245334,5.08684206,-5.313262463,-1.285244823,2024-06-04 14:52:42.132453
32.17245334,4.025625229,-8.537590981,-4.947759151,2024-06-04 14:52:42.172453
32.21245334,4.025625229,-8.537590981,-4.947759151,2024-06-04 14:52:42.212453
32.25245334,4.025625229,-8.537590981,-4.947759151,2024-06-04 14:52:42.252453
32.29245334,4.025625229,-8.537590981,-4.947759151,2024-06-04 14:52:42.292453
32.33245334,4.025625229,-8.537590981,-4.947759151,2024-06-04 14:52:42.332453
32.37245334,-2.999104023,-14.56810284,3.849453449,2024-06-04 14:52:42.372453
32.41245334,1.378564954,-12.08405304,-0.4456632137,2024-06-04 14:52:42.412453
32.45245334,3.226721287,-15.39123344,-1.176072359,2024-06-04 14:52:42.452453
32.49245334,3.226721287,-15.39123344,-1.176072359,2024-06-04 14:52:42.492453
32.53245334,3.226721287,-15.39123344,-1.176072359,2024-06-04 14:52:42.532453
32.57245334,3.226721287,-15.39123344,-1.176072359,2024-06-04 14:52:42.572453
32.61245334,3.226721287,-15.39123344,-1.176072359,2024-06-04 14:52:42.612453
32.65245334,3.226721287,-15.39123344,-1.176072359,2024-06-04 14:52:42.652453
32.69245334,3.226721287,-15.39123344,-1.176072359,2024-06-04 14:52:42.692453
32.73245334,3.226721287,-15.39123344,-1.176072359,2024-06-04 14:52:42.732453
32.77245334,3.226721287,-15.39123344,-1.176072359,2024-06-04 14:52:42.772453
32.81245334,3.226721287,-15.39123344,-1.176072359,2024-06-04 14:52:42.812453
32.85245334,3.226721287,-15.39123344,-1.176072359,2024-06-04 14:52:42.852453
32.89245334,3.226721287,-15.39123344,-1.176072359,2024-06-04 14:52:42.892453
32.93245334,3.107080221,-7.917252064,-9.420243263,2024-06-04 14:52:42.932453
32.97245334,3.107080221,-7.917252064,-9.420243263,2024-06-04 14:52:42.972453
33.01245334,3.107080221,-7.917252064,-9.420243263,2024-06-04 14:52:43.012453
33.05245334,3.107080221,-7.917252064,-9.420243263,2024-06-04 14:52:43.052453
33.09245334,3.107080221,-7.917252064,-9.420243263,2024-06-04 14:52:43.092453
33.13245334,3.107080221,-7.917252064,-9.420243263,2024-06-04 14:52:43.132453
33.17245334,0.8192426562,-9.341280937,-1.532004714,2024-06-04 14:52:43.172453
33.21245334,3.778865099,-7.119544506,-1.725823283,2024-06-04 14:52:43.212453
33.25245334,2.596810818,-8.644071579,-1.508076429,2024-06-04 14:52:43.252453
33.29245334,2.596810818,-8.644071579,-1.508076429,2024-06-04 14:52:43.292453
33.33245334,2.596810818,-8.644071579,-1.508076429,2024-06-04 14:52:43.332453
33.37245334,2.596810818,-8.644071579,-1.508076429,2024-06-04 14:52:43.372453
33.41245334,2.596810818,-8.644071579,-1.508076429,2024-06-04 14:52:43.412453
33.45245334,2.596810818,-8.644071579,-1.508076429,2024-06-04 14:52:43.452453
33.49245334,3.390928745,-11.6276226,-2.865106106,2024-06-04 14:52:43.492453
33.53245334,3.390928745,-11.6276226,-2.865106106,2024-06-04 14:52:43.532453
33.57245334,3.390928745,-11.6276226,-2.865106106,2024-06-04 14:52:43.572453
33.61245334,3.390928745,-11.6276226,-2.865106106,2024-06-04 14:52:43.612453
33.65245334,3.390928745,-11.6276226,-2.865106106,2024-06-04 14:52:43.652453
33.69245334,3.390928745,-11.6276226,-2.865106106,2024-06-04 14:52:43.692453
33.73245334,3.390928745,-11.6276226,-2.865106106,2024-06-04 14:52:43.732453
33.77245334,3.390928745,-11.6276226,-2.865106106,2024-06-04 14:52:43.772453
33.81245334,3.390928745,-11.6276226,-2.865106106,2024-06-04 14:52:43.812453
33.85245334,3.390928745,-11.6276226,-2.865106106,2024-06-04 14:52:43.852453
33.89245334,3.390928745,-11.6276226,-2.865106106,2024-06-04 14:52:43.892453
33.93245334,5.962316036,-17.81665802,1.818246126,2024-06-04 14:52:43.932453
33.97245334,5.962316036,-17.81665802,1.818246126,2024-06-04 14:52:43.972453
34.01245334,8.213064194,-0.8072785139,-2.657827854,2024-06-04 14:52:44.012453
34.05245334,8.213064194,-0.8072785139,-2.657827854,2024-06-04 14:52:44.052453
34.09245334,8.213064194,-0.8072785139,-2.657827854,2024-06-04 14:52:44.092453
34.13245334,8.213064194,-0.8072785139,-2.657827854,2024-06-04 14:52:44.132453
34.17245334,-0.6346961856,-9.390333176,11.18584728,2024-06-04 14:52:44.172453
34.21245334,-0.6346961856,-9.390333176,11.18584728,2024-06-04 14:52:44.212453
34.25245334,3.342773199,-6.358926296,-3.20518589,2024-06-04 14:52:44.252453
34.29245334,3.538087368,-8.771190643,-5.686841965,2024-06-04 14:52:44.292453
34.33245334,3.538087368,-8.771190643,-5.686841965,2024-06-04 14:52:44.332453
34.37245334,3.538087368,-8.771190643,-5.686841965,2024-06-04 14:52:44.372453
34.41245334,3.538087368,-8.771190643,-5.686841965,2024-06-04 14:52:44.412453
34.45245334,3.538087368,-8.771190643,-5.686841965,2024-06-04 14:52:44.452453
34.49245334,3.538087368,-8.771190643,-5.686841965,2024-06-04 14:52:44.492453
34.53245334,3.538087368,-8.771190643,-5.686841965,2024-06-04 14:52:44.532453
34.57245334,3.538087368,-8.771190643,-5.686841965,2024-06-04 14:52:44.572453
34.61245334,3.538087368,-8.771190643,-5.686841965,2024-06-04 14:52:44.612453
34.65245334,3.538087368,-8.771190643,-5.686841965,2024-06-04 14:52:44.652453
34.69245334,3.538087368,-8.771190643,-5.686841965,2024-06-04 14:52:44.692453
34.73245334,3.538087368,-8.771190643,-5.686841965,2024-06-04 14:52:44.732453
34.77245334,3.538087368,-8.771190643,-5.686841965,2024-06-04 14:52:44.772453
34.81245334,3.538087368,-8.771190643,-5.686841965,2024-06-04 14:52:44.812453
34.85245334,3.538087368,-8.771190643,-5.686841965,2024-06-04 14:52:44.852453
34.89245334,3.538087368,-8.771190643,-5.686841965,2024-06-04 14:52:44.892453
34.93245334,2.548954248,-0.5796613097,5.143073082,2024-06-04 14:52:44.932453
34.97245334,2.548954248,-0.5796613097,5.143073082,2024-06-04 14:52:44.972453
35.01245334,6.707380772,-21.98226357,-7.999804497,2024-06-04 14:52:45.012453
35.05245334,6.707380772,-21.98226357,-7.999804497,2024-06-04 14:52:45.052453
35.09245334,6.707380772,-21.98226357,-7.999804497,2024-06-04 14:52:45.092453
35.13245334,6.707380772,-21.98226357,-7.999804497,2024-06-04 14:52:45.132453
35.17245334,-2.129612207,-7.194918633,-7.089335442,2024-06-04 14:52:45.172453
35.21245334,-2.129612207,-7.194918633,-7.089335442,2024-06-04 14:52:45.212453
35.25245334,-2.129612207,-7.194918633,-7.089335442,2024-06-04 14:52:45.252453
35.29245334,-2.129612207,-7.194918633,-7.089335442,2024-06-04 14:52:45.292453
35.33245334,-2.129612207,-7.194918633,-7.089335442,2024-06-04 14:52:45.332453
35.37245334,-2.129612207,-7.194918633,-7.089335442,2024-06-04 14:52:45.372453
35.41245334,-2.129612207,-7.194918633,-7.089335442,2024-06-04 14:52:45.412453
35.45245334,-2.129612207,-7.194918633,-7.089335442,2024-06-04 14:52:45.452453
35.49245334,-2.129612207,-7.194918633,-7.089335442,2024-06-04 14:52:45.492453
35.53245334,-2.129612207,-7.194918633,-7.089335442,2024-06-04 14:52:45.532453
35.57245334,-2.129612207,-7.194918633,-7.089335442,2024-06-04 14:52:45.572453
35.61245334,-2.129612207,-7.194918633,-7.089335442,2024-06-04 14:52:45.612453
35.65245334,-2.129612207,-7.194918633,-7.089335442,2024-06-04 14:52:45.652453
35.69245334,-2.129612207,-7.194918633,-7.089335442,2024-06-04 14:52:45.692453
35.73245334,-2.129612207,-7.194918633,-7.089335442,2024-06-04 14:52:45.732453
35.77245334,-2.129612207,-7.194918633,-7.089335442,2024-06-04 14:52:45.772453
35.81245334,4.890331268,-2.588435888,2.550150633,2024-06-04 14:52:45.812453
35.85245334,3.469892025,-27.35893631,22.68904305,2024-06-04 14:52:45.852453
35.89245334,3.469892025,-27.35893631,22.68904305,2024-06-04 14:52:45.892453
35.93245334,3.469892025,-27.35893631,22.68904305,2024-06-04 14:52:45.932453
35.97245334,3.469892025,-27.35893631,22.68904305,2024-06-04 14:52:45.972453
36.01245334,3.469892025,-27.35893631,22.68904305,2024-06-04 14:52:46.012453
36.05245334,3.469892025,-27.35893631,22.68904305,2024-06-04 14:52:46.052453
36.09245334,3.469892025,-27.35893631,22.68904305,2024-06-04 14:52:46.092453
36.13245334,3.469892025,-27.35893631,22.68904305,2024-06-04 14:52:46.132453
36.17245334,3.469892025,-27.35893631,22.68904305,2024-06-04 14:52:46.172453
36.21245334,3.469892025,-27.35893631,22.68904305,2024-06-04 14:52:46.212453
36.25245334,3.469892025,-27.35893631,22.68904305,2024-06-04 14:52:46.252453
36.29245334,3.469892025,-27.35893631,22.68904305,2024-06-04 14:52:46.292453
36.33245334,3.469892025,-27.35893631,22.68904305,2024-06-04 14:52:46.332453
36.37245334,3.469892025,-27.35893631,22.68904305,2024-06-04 14:52:46.372453
36.41245334,3.469892025,-27.35893631,22.68904305,2024-06-04 14:52:46.412453
36.45245334,3.469892025,-27.35893631,22.68904305,2024-06-04 14:52:46.452453
36.49245334,3.469892025,-27.35893631,22.68904305,2024-06-04 14:52:46.492453
36.53245334,3.469892025,-27.35893631,22.68904305,2024-06-04 14:52:46.532453
36.57245334,6.829713821,-14.7837553,0.8515457511,2024-06-04 14:52:46.572453
36.61245334,7.798508167,-15.24257946,-1.725823283,2024-06-04 14:52:46.612453
36.65245334,7.798508167,-15.24257946,-1.725823283,2024-06-04 14:52:46.652453
36.69245334,7.798508167,-15.24257946,-1.725823283,2024-06-04 14:52:46.692453
36.73245334,7.798508167,-15.24257946,-1.725823283,2024-06-04 14:52:46.732453
36.77245334,7.798508167,-15.24257946,-1.725823283,2024-06-04 14:52:46.772453
36.81245334,7.798508167,-15.24257946,-1.725823283,2024-06-04 14:52:46.812453
36.85245334,7.798508167,-15.24257946,-1.725823283,2024-06-04 14:52:46.852453
36.89245334,-1.327119231,-30.40380287,15.50249958,2024-06-04 14:52:46.892453
36.89245334,-1.327119231,-30.40380287,15.50249958,2024-06-04 14:52:46.892453
36.97245334,-1.327119231,-30.40380287,15.50249958,2024-06-04 14:52:46.972453
37.01245334,-1.327119231,-30.40380287,15.50249958,2024-06-04 14:52:47.012453
37.05245334,-1.327119231,-30.40380287,15.50249958,2024-06-04 14:52:47.052453
37.09245334,-1.327119231,-30.40380287,15.50249958,2024-06-04 14:52:47.092453
37.13245334,-1.327119231,-30.40380287,15.50249958,2024-06-04 14:52:47.132453
37.17245334,-3.267399311,-9.794121742,-2.583650351,2024-06-04 14:52:47.172453
37.21245334,-3.267399311,-9.794121742,-2.583650351,2024-06-04 14:52:47.212453
37.25245334,-3.267399311,-9.794121742,-2.583650351,2024-06-04 14:52:47.252453
37.29245334,-3.267399311,-9.794121742,-2.583650351,2024-06-04 14:52:47.292453
37.33245334,-3.267399311,-9.794121742,-2.583650351,2024-06-04 14:52:47.332453
37.37245334,-5.303691387,-14.25673676,-6.124130249,2024-06-04 14:52:47.372453
37.41245334,-1.347458243,-12.21835041,1.7883358,2024-06-04 14:52:47.412453
37.45245334,-4.700101852,-17.04886055,1.745265007,2024-06-04 14:52:47.452453
37.49245334,-4.700101852,-17.04886055,1.745265007,2024-06-04 14:52:47.492453
37.53245334,-4.700101852,-17.04886055,1.745265007,2024-06-04 14:52:47.532453
37.57245334,-4.700101852,-17.04886055,1.745265007,2024-06-04 14:52:47.572453
37.61245334,-4.700101852,-17.04886055,1.745265007,2024-06-04 14:52:47.612453
37.65245334,-4.700101852,-17.04886055,1.745265007,2024-06-04 14:52:47.652453
37.69245334,-4.700101852,-17.04886055,1.745265007,2024-06-04 14:52:47.692453
37.73245334,-4.700101852,-17.04886055,1.745265007,2024-06-04 14:52:47.732453
37.77245334,-4.700101852,-17.04886055,1.745265007,2024-06-04 14:52:47.772453
37.81245334,-4.700101852,-17.04886055,1.745265007,2024-06-04 14:52:47.812453
37.85245334,-4.700101852,-17.04886055,1.745265007,2024-06-04 14:52:47.852453
37.89245334,-4.700101852,-17.04886055,1.745265007,2024-06-04 14:52:47.892453
37.93245334,-4.700101852,-17.04886055,1.745265007,2024-06-04 14:52:47.932453
37.97245334,-4.700101852,-17.04886055,1.745265007,2024-06-04 14:52:47.972453
38.01245334,-4.700101852,-17.04886055,1.745265007,2024-06-04 14:52:48.012453
38.05245334,-4.700101852,-17.04886055,1.745265007,2024-06-04 14:52:48.052453
38.09245334,-4.700101852,-17.04886055,1.745265007,2024-06-04 14:52:48.092453
38.13245334,-4.700101852,-17.04886055,1.745265007,2024-06-04 14:52:48.132453
38.17245334,-4.700101852,-17.04886055,1.745265007,2024-06-04 14:52:48.172453
38.21245334,2.855534792,-7.51346302,21.27937126,2024-06-04 14:52:48.212453
38.25245334,2.855534792,-7.51346302,21.27937126,2024-06-04 14:52:48.252453
38.29245334,2.855534792,-7.51346302,21.27937126,2024-06-04 14:52:48.292453
38.33245334,2.855534792,-7.51346302,21.27937126,2024-06-04 14:52:48.332453
38.37245334,2.855534792,-7.51346302,21.27937126,2024-06-04 14:52:48.372453
38.41245334,2.855534792,-7.51346302,21.27937126,2024-06-04 14:52:48.412453
38.45245334,2.855534792,-7.51346302,21.27937126,2024-06-04 14:52:48.452453
38.49245334,2.855534792,-7.51346302,21.27937126,2024-06-04 14:52:48.492453
38.53245334,1.868495345,-13.5909338,-8.14696312,2024-06-04 14:52:48.532453
38.57245334,1.868495345,-13.5909338,-8.14696312,2024-06-04 14:52:48.572453
38.61245334,1.868495345,-13.5909338,-8.14696312,2024-06-04 14:52:48.612453
38.65245334,1.868495345,-13.5909338,-8.14696312,2024-06-04 14:52:48.652453
38.69245334,1.868495345,-13.5909338,-8.14696312,2024-06-04 14:52:48.692453
38.73245334,1.868495345,-13.5909338,-8.14696312,2024-06-04 14:52:48.732453
38.77245334,1.868495345,-13.5909338,-8.14696312,2024-06-04 14:52:48.772453
38.81245334,1.868495345,-13.5909338,-8.14696312,2024-06-04 14:52:48.812453
38.85245334,1.868495345,-13.5909338,-8.14696312,2024-06-04 14:52:48.852453
38.89245334,1.868495345,-13.5909338,-8.14696312,2024-06-04 14:52:48.892453
38.93245334,3.993321896,-2.450549603,4.714458942,2024-06-04 14:52:48.932453
38.97245334,3.993321896,-2.450549603,4.714458942,2024-06-04 14:52:48.972453
39.01245334,2.01475668,-3.64127779,-13.2338047,2024-06-04 14:52:49.012453
39.05245334,5.982655048,-3.838685751,-1.960619092,2024-06-04 14:52:49.052453
39.09245334,5.982655048,-3.838685751,-1.960619092,2024-06-04 14:52:49.092453
39.13245334,5.982655048,-3.838685751,-1.960619092,2024-06-04 14:52:49.132453
39.17245334,3.681955814,-8.795118332,11.47807121,2024-06-04 14:52:49.172453
39.21245334,2.841177702,-7.822436333,-1.184447169,2024-06-04 14:52:49.212453
39.21245334,2.841177702,-7.822436333,-1.184447169,2024-06-04 14:52:49.212453
39.29245334,2.841177702,-7.822436333,-1.184447169,2024-06-04 14:52:49.292453
39.33245334,2.841177702,-7.822436333,-1.184447169,2024-06-04 14:52:49.332453
39.37245334,2.841177702,-7.822436333,-1.184447169,2024-06-04 14:52:49.372453
39.41245334,2.841177702,-7.822436333,-1.184447169,2024-06-04 14:52:49.412453
39.45245334,2.841177702,-7.822436333,-1.184447169,2024-06-04 14:52:49.452453
39.49245334,2.841177702,-7.822436333,-1.184447169,2024-06-04 14:52:49.492453
39.53245334,2.841177702,-7.822436333,-1.184447169,2024-06-04 14:52:49.532453
39.57245334,2.841177702,-7.822436333,-1.184447169,2024-06-04 14:52:49.572453
39.61245334,2.841177702,-7.822436333,-1.184447169,2024-06-04 14:52:49.612453
39.65245334,2.841177702,-7.822436333,-1.184447169,2024-06-04 14:52:49.652453
39.69245334,1.311565876,-6.998407841,-2.104487419,2024-06-04 14:52:49.692453
39.73245334,1.311565876,-6.998407841,-2.104487419,2024-06-04 14:52:49.732453
39.77245334,1.311565876,-6.998407841,-2.104487419,2024-06-04 14:52:49.772453
39.81245334,1.311565876,-6.998407841,-2.104487419,2024-06-04 14:52:49.812453
39.85245334,1.311565876,-6.998407841,-2.104487419,2024-06-04 14:52:49.852453
39.89245334,1.311565876,-6.998407841,-2.104487419,2024-06-04 14:52:49.892453
39.93245334,0.6732804775,-6.786344051,2.45533514,2024-06-04 14:52:49.932453
39.97245334,0.6732804775,-6.786344051,2.45533514,2024-06-04 14:52:49.972453
39.97245334,4.997110844,-6.655935287,-0.1196411327,2024-06-04 14:52:49.972453
40.05245334,3.374179125,-1.230209947,-10.93190956,2024-06-04 14:52:50.052453
40.09245334,3.374179125,-1.230209947,-10.93190956,2024-06-04 14:52:50.092453
40.13245334,3.374179125,-1.230209947,-10.93190956,2024-06-04 14:52:50.132453
40.17245334,-5.073681355,-14.04826164,-13.26521015,2024-06-04 14:52:50.172453
40.21245334,-5.073681355,-14.04826164,-13.26521015,2024-06-04 14:52:50.212453
40.25245334,-5.073681355,-14.04826164,-13.26521015,2024-06-04 14:52:50.252453
40.29245334,-5.073681355,-14.04826164,-13.26521015,2024-06-04 14:52:50.292453
40.33245334,-5.073681355,-14.04826164,-13.26521015,2024-06-04 14:52:50.332453
40.37245334,-5.073681355,-14.04826164,-13.26521015,2024-06-04 14:52:50.372453
40.41245334,-5.073681355,-14.04826164,-13.26521015,2024-06-04 14:52:50.412453
40.45245334,-5.073681355,-14.04826164,-13.26521015,2024-06-04 14:52:50.452453
40.49245334,-5.073681355,-14.04826164,-13.26521015,2024-06-04 14:52:50.492453
40.53245334,-5.073681355,-14.04826164,-13.26521015,2024-06-04 14:52:50.532453
40.57245334,-5.073681355,-14.04826164,-13.26521015,2024-06-04 14:52:50.572453
40.61245334,-5.073681355,-14.04826164,-13.26521015,2024-06-04 14:52:50.612453
40.65245334,4.880760193,-13.26640701,-2.007578135,2024-06-04 14:52:50.652453
40.69245334,4.880760193,-13.26640701,-2.007578135,2024-06-04 14:52:50.692453
40.73245334,4.880760193,-13.26640701,-2.007578135,2024-06-04 14:52:50.732453
40.77245334,4.880760193,-13.26640701,-2.007578135,2024-06-04 14:52:50.772453
40.81245334,4.880760193,-13.26640701,-2.007578135,2024-06-04 14:52:50.812453
40.85245334,4.880760193,-13.26640701,-2.007578135,2024-06-04 14:52:50.852453
40.89245334,4.880760193,-13.26640701,-2.007578135,2024-06-04 14:52:50.892453
40.93245334,4.880760193,-13.26640701,-2.007578135,2024-06-04 14:52:50.932453
40.93245334,-0.2276172489,-26.50978279,18.19023705,2024-06-04 14:52:50.932453
41.01245334,-0.2276172489,-26.50978279,18.19023705,2024-06-04 14:52:51.012453
41.05245334,-0.2276172489,-26.50978279,18.19023705,2024-06-04 14:52:51.052453
41.09245334,-0.2276172489,-26.50978279,18.19023705,2024-06-04 14:52:51.092453
41.13245334,-0.2276172489,-26.50978279,18.19023705,2024-06-04 14:52:51.132453
41.17245334,-0.2276172489,-26.50978279,18.19023705,2024-06-04 14:52:51.172453
41.21245334,-0.2276172489,-26.50978279,18.19023705,2024-06-04 14:52:51.212453
41.25245334,-0.2276172489,-26.50978279,18.19023705,2024-06-04 14:52:51.252453
41.29245334,-0.2276172489,-26.50978279,18.19023705,2024-06-04 14:52:51.292453
41.33245334,-0.2276172489,-26.50978279,18.19023705,2024-06-04 14:52:51.332453
41.37245334,-0.2276172489,-26.50978279,18.19023705,2024-06-04 14:52:51.372453
41.41245334,-0.2276172489,-26.50978279,18.19023705,2024-06-04 14:52:51.412453
41.45245334,-0.2276172489,-26.50978279,18.19023705,2024-06-04 14:52:51.452453
41.49245334,-4.48444891,-12.96909904,-4.486841679,2024-06-04 14:52:51.492453
41.53245334,1.770389676,-12.83390427,4.459323883,2024-06-04 14:52:51.532453
41.57245334,1.770389676,-12.83390427,4.459323883,2024-06-04 14:52:51.572453
41.61245334,1.770389676,-12.83390427,4.459323883,2024-06-04 14:52:51.612453
41.65245334,1.770389676,-12.83390427,4.459323883,2024-06-04 14:52:51.652453
41.69245334,1.770389676,-12.83390427,4.459323883,2024-06-04 14:52:51.692453
41.73245334,1.492523074,-8.24895668,1.646860242,2024-06-04 14:52:51.732453
41.77245334,1.492523074,-8.24895668,1.646860242,2024-06-04 14:52:51.772453
41.81245334,1.492523074,-8.24895668,1.646860242,2024-06-04 14:52:51.812453
41.85245334,1.492523074,-8.24895668,1.646860242,2024-06-04 14:52:51.852453
41.89245334,1.492523074,-8.24895668,1.646860242,2024-06-04 14:52:51.892453
41.93245334,3.542873144,-4.063910007,1.066002488,2024-06-04 14:52:51.932453
41.97245334,3.542873144,-4.063910007,1.066002488,2024-06-04 14:52:51.972453
42.01245334,3.542873144,-4.063910007,1.066002488,2024-06-04 14:52:52.012453
42.05245334,3.542873144,-4.063910007,1.066002488,2024-06-04 14:52:52.052453
42.09245334,3.542873144,-4.063910007,1.066002488,2024-06-04 14:52:52.092453
42.13245334,3.542873144,-4.063910007,1.066002488,2024-06-04 14:52:52.132453
42.17245334,4.650749683,-3.941876173,-1.364207983,2024-06-04 14:52:52.172453
42.21245334,4.650749683,-3.941876173,-1.364207983,2024-06-04 14:52:52.212453
42.25245334,4.650749683,-3.941876173,-1.364207983,2024-06-04 14:52:52.252453
42.29245334,4.650749683,-3.941876173,-1.364207983,2024-06-04 14:52:52.292453
42.33245334,4.650749683,-3.941876173,-1.364207983,2024-06-04 14:52:52.332453
42.37245334,4.650749683,-3.941876173,-1.364207983,2024-06-04 14:52:52.372453
42.41245334,0.9846464992,-7.397411346,-2.28903389,2024-06-04 14:52:52.412453
42.45245334,0.7893323898,-11.44816113,-4.212564468,2024-06-04 14:52:52.452453
42.49245334,-1.178465128,-12.52852058,15.69302845,2024-06-04 14:52:52.492453
42.53245334,-2.394318104,-12.38106251,-6.259325027,2024-06-04 14:52:52.532453
42.57245334,-2.394318104,-12.38106251,-6.259325027,2024-06-04 14:52:52.572453
42.61245334,-2.394318104,-12.38106251,-6.259325027,2024-06-04 14:52:52.612453
42.65245334,-2.394318104,-12.38106251,-6.259325027,2024-06-04 14:52:52.652453
42.69245334,-2.394318104,-12.38106251,-6.259325027,2024-06-04 14:52:52.692453
42.73245334,-2.394318104,-12.38106251,-6.259325027,2024-06-04 14:52:52.732453
42.77245334,-2.394318104,-12.38106251,-6.259325027,2024-06-04 14:52:52.772453
42.81245334,-2.394318104,-12.38106251,-6.259325027,2024-06-04 14:52:52.812453
42.85245334,-2.394318104,-12.38106251,-6.259325027,2024-06-04 14:52:52.852453
42.89245334,-2.394318104,-12.38106251,-6.259325027,2024-06-04 14:52:52.892453
42.93245334,4.838885784,-0.6948158741,-2.73798728,2024-06-04 14:52:52.932453
42.97245334,4.838885784,-0.6948158741,-2.73798728,2024-06-04 14:52:52.972453
43.01245334,4.838885784,-0.6948158741,-2.73798728,2024-06-04 14:52:53.012453
43.05245334,4.838885784,-0.6948158741,-2.73798728,2024-06-04 14:52:53.052453
43.09245334,4.838885784,-0.6948158741,-2.73798728,2024-06-04 14:52:53.092453
43.13245334,4.838885784,-0.6948158741,-2.73798728,2024-06-04 14:52:53.132453
43.17245334,4.838885784,-0.6948158741,-2.73798728,2024-06-04 14:52:53.172453
43.21245334,4.838885784,-0.6948158741,-2.73798728,2024-06-04 14:52:53.212453
43.25245334,3.867399693,-6.667899609,-0.3317050338,2024-06-04 14:52:53.252453
43.29245334,0.09930214286,-16.2332077,-3.115455151,2024-06-04 14:52:53.292453
43.33245334,-3.96939373,-10.40728283,-12.12233829,2024-06-04 14:52:53.332453
43.37245334,-3.96939373,-10.40728283,-12.12233829,2024-06-04 14:52:53.372453
43.41245334,-3.96939373,-10.40728283,-12.12233829,2024-06-04 14:52:53.412453
43.45245334,-3.96939373,-10.40728283,-12.12233829,2024-06-04 14:52:53.452453
43.49245334,-3.96939373,-10.40728283,-12.12233829,2024-06-04 14:52:53.492453
43.53245334,-3.96939373,-10.40728283,-12.12233829,2024-06-04 14:52:53.532453
43.57245334,-2.548954248,-12.11276722,-7.706384659,2024-06-04 14:52:53.572453
43.61245334,-2.548954248,-12.11276722,-7.706384659,2024-06-04 14:52:53.612453
43.65245334,-2.548954248,-12.11276722,-7.706384659,2024-06-04 14:52:53.652453
43.69245334,-2.548954248,-12.11276722,-7.706384659,2024-06-04 14:52:53.692453
43.73245334,-2.548954248,-12.11276722,-7.706384659,2024-06-04 14:52:53.732453
43.77245334,-2.548954248,-12.11276722,-7.706384659,2024-06-04 14:52:53.772453
43.81245334,-2.548954248,-12.11276722,-7.706384659,2024-06-04 14:52:53.812453
43.85245334,-2.548954248,-12.11276722,-7.706384659,2024-06-04 14:52:53.852453
43.89245334,-2.548954248,-12.11276722,-7.706384659,2024-06-04 14:52:53.892453
43.93245334,3.224328518,-1.697109461,-0.9870393276,2024-06-04 14:52:53.932453
43.97245334,3.224328518,-1.697109461,-0.9870393276,2024-06-04 14:52:53.972453
44.01245334,4.319045067,-3.114258766,1.552343726,2024-06-04 14:52:54.012453
44.05245334,2.594418049,-19.25145531,11.43021488,2024-06-04 14:52:54.052453
44.09245334,2.594418049,-19.25145531,11.43021488,2024-06-04 14:52:54.092453
44.13245334,2.594418049,-19.25145531,11.43021488,2024-06-04 14:52:54.132453
44.17245334,2.594418049,-19.25145531,11.43021488,2024-06-04 14:52:54.172453
44.21245334,3.617349625,-2.118844509,-13.57298756,2024-06-04 14:52:54.212453
44.25245334,6.943373203,-3.951447487,-0.7654041648,2024-06-04 14:52:54.252453
44.29245334,5.579164982,-11.86720371,-0.4396811724,2024-06-04 14:52:54.292453
44.33245334,5.579164982,-11.86720371,-0.4396811724,2024-06-04 14:52:54.332453
44.37245334,5.579164982,-11.86720371,-0.4396811724,2024-06-04 14:52:54.372453
44.41245334,5.579164982,-11.86720371,-0.4396811724,2024-06-04 14:52:54.412453
44.45245334,5.579164982,-11.86720371,-0.4396811724,2024-06-04 14:52:54.452453
44.49245334,5.579164982,-11.86720371,-0.4396811724,2024-06-04 14:52:54.492453
44.53245334,0.4875376225,-8.457431793,-2.236092806,2024-06-04 14:52:54.532453
44.57245334,0.4875376225,-8.457431793,-2.236092806,2024-06-04 14:52:54.572453
44.61245334,0.4875376225,-8.457431793,-2.236092806,2024-06-04 14:52:54.612453
44.65245334,0.4875376225,-8.457431793,-2.236092806,2024-06-04 14:52:54.652453
44.69245334,2.299801588,-11.53071308,2.195414782,2024-06-04 14:52:54.692453
44.73245334,2.299801588,-11.53071308,2.195414782,2024-06-04 14:52:54.732453
44.77245334,2.299801588,-11.53071308,2.195414782,2024-06-04 14:52:54.772453
44.81245334,2.299801588,-11.53071308,2.195414782,2024-06-04 14:52:54.812453
44.85245334,5.784050465,-13.20987606,-1.384546995,2024-06-04 14:52:54.852453
44.89245334,5.784050465,-13.20987606,-1.384546995,2024-06-04 14:52:54.892453
44.93245334,-0.1773679852,-9.308977127,0.3747758567,2024-06-04 14:52:54.932453
44.97245334,-0.1773679852,-9.308977127,0.3747758567,2024-06-04 14:52:54.972453
45.01245334,-0.1773679852,-9.308977127,0.3747758567,2024-06-04 14:52:55.012453
45.05245334,-0.1773679852,-9.308977127,0.3747758567,2024-06-04 14:52:55.052453
45.09245334,-0.1773679852,-9.308977127,0.3747758567,2024-06-04 14:52:55.092453
45.09245334,2.391925335,-4.749154568,3.332005501,2024-06-04 14:52:55.092453
45.17245334,2.391925335,-4.749154568,3.332005501,2024-06-04 14:52:55.172453
45.21245334,2.391925335,-4.749154568,3.332005501,2024-06-04 14:52:55.212453
45.25245334,2.391925335,-4.749154568,3.332005501,2024-06-04 14:52:55.252453
45.29245334,2.391925335,-4.749154568,3.332005501,2024-06-04 14:52:55.292453
45.33245334,2.391925335,-4.749154568,3.332005501,2024-06-04 14:52:55.332453
45.37245334,2.391925335,-4.749154568,3.332005501,2024-06-04 14:52:55.372453
45.41245334,2.391925335,-4.749154568,3.332005501,2024-06-04 14:52:55.412453
45.45245334,2.391925335,-4.749154568,3.332005501,2024-06-04 14:52:55.452453
45.49245334,2.391925335,-4.749154568,3.332005501,2024-06-04 14:52:55.492453
45.53245334,2.391925335,-4.749154568,3.332005501,2024-06-04 14:52:55.532453
45.57245334,2.391925335,-4.749154568,3.332005501,2024-06-04 14:52:55.572453
45.61245334,11.30309582,-4.66151762,-2.419442892,2024-06-04 14:52:55.612453
45.65245334,-1.449153185,-10.08156013,-3.92991209,2024-06-04 14:52:55.652453
45.69245334,-1.449153185,-10.08156013,-3.92991209,2024-06-04 14:52:55.692453
45.73245334,-1.449153185,-10.08156013,-3.92991209,2024-06-04 14:52:55.732453
45.77245334,-1.449153185,-10.08156013,-3.92991209,2024-06-04 14:52:55.772453
45.81245334,-1.449153185,-10.08156013,-3.92991209,2024-06-04 14:52:55.812453
45.85245334,-1.449153185,-10.08156013,-3.92991209,2024-06-04 14:52:55.852453
45.89245334,-1.449153185,-10.08156013,-3.92991209,2024-06-04 14:52:55.892453
45.93245334,-1.449153185,-10.08156013,-3.92991209,2024-06-04 14:52:55.932453
45.97245334,7.732705593,-12.85663605,0.0239282269,2024-06-04 14:52:55.972453
46.01245334,7.732705593,-12.85663605,0.0239282269,2024-06-04 14:52:56.012453
46.05245334,7.732705593,-12.85663605,0.0239282269,2024-06-04 14:52:56.052453
46.09245334,7.732705593,-12.85663605,0.0239282269,2024-06-04 14:52:56.092453
46.13245334,7.732705593,-12.85663605,0.0239282269,2024-06-04 14:52:56.132453
46.17245334,3.138186932,-5.977869034,-1.966601133,2024-06-04 14:52:56.172453
46.21245334,3.138186932,-5.977869034,-1.966601133,2024-06-04 14:52:56.212453
46.25245334,3.138186932,-5.977869034,-1.966601133,2024-06-04 14:52:56.252453
46.29245334,3.138186932,-5.977869034,-1.966601133,2024-06-04 14:52:56.292453
46.33245334,3.138186932,-5.977869034,-1.966601133,2024-06-04 14:52:56.332453
46.37245334,3.138186932,-5.977869034,-1.966601133,2024-06-04 14:52:56.372453
46.41245334,3.138186932,-5.977869034,-1.966601133,2024-06-04 14:52:56.412453
46.45245334,3.138186932,-5.977869034,-1.966601133,2024-06-04 14:52:56.452453
46.49245334,-0.3352942765,-13.28913879,1.706680775,2024-06-04 14:52:56.492453
46.53245334,-0.3352942765,-13.28913879,1.706680775,2024-06-04 14:52:56.532453
46.57245334,-0.3352942765,-13.28913879,1.706680775,2024-06-04 14:52:56.572453
46.61245334,-0.3352942765,-13.28913879,1.706680775,2024-06-04 14:52:56.612453
46.65245334,-0.3352942765,-13.28913879,1.706680775,2024-06-04 14:52:56.652453
46.69245334,-0.3352942765,-13.28913879,1.706680775,2024-06-04 14:52:56.692453
46.73245334,-1.290030479,-10.67557812,3.139383316,2024-06-04 14:52:56.732453
46.73245334,-1.290030479,-10.67557812,3.139383316,2024-06-04 14:52:56.732453
46.81245334,-1.290030479,-10.67557812,3.139383316,2024-06-04 14:52:56.812453
46.85245334,-1.290030479,-10.67557812,3.139383316,2024-06-04 14:52:56.852453
46.89245334,-1.290030479,-10.67557812,3.139383316,2024-06-04 14:52:56.892453
46.93245334,0.4624129832,-11.81695461,2.280659199,2024-06-04 14:52:56.932453
46.97245334,0.4624129832,-11.81695461,2.280659199,2024-06-04 14:52:56.972453
47.01245334,0.4624129832,-11.81695461,2.280659199,2024-06-04 14:52:57.012453
47.05245334,0.4624129832,-11.81695461,2.280659199,2024-06-04 14:52:57.052453
47.09245334,0.4624129832,-11.81695461,2.280659199,2024-06-04 14:52:57.092453
47.13245334,0.4624129832,-11.81695461,2.280659199,2024-06-04 14:52:57.132453
47.17245334,4.756333351,-14.60788345,-2.292623281,2024-06-04 14:52:57.172453
47.21245334,4.756333351,-14.60788345,-2.292623281,2024-06-04 14:52:57.212453
47.25245334,4.756333351,-14.60788345,-2.292623281,2024-06-04 14:52:57.252453
47.29245334,4.756333351,-14.60788345,-2.292623281,2024-06-04 14:52:57.292453
47.33245334,4.756333351,-14.60788345,-2.292623281,2024-06-04 14:52:57.332453
47.37245334,4.756333351,-14.60788345,-2.292623281,2024-06-04 14:52:57.372453
47.41245334,4.756333351,-14.60788345,-2.292623281,2024-06-04 14:52:57.412453
47.45245334,4.756333351,-14.60788345,-2.292623281,2024-06-04 14:52:57.452453
47.49245334,3.177668571,-3.800400496,5.874977589,2024-06-04 14:52:57.492453
47.53245334,5.274977684,-5.989833355,6.101398468,2024-06-04 14:52:57.532453
47.57245334,5.274977684,-5.989833355,6.101398468,2024-06-04 14:52:57.572453
47.61245334,5.274977684,-5.989833355,6.101398468,2024-06-04 14:52:57.612453
47.65245334,5.274977684,-5.989833355,6.101398468,2024-06-04 14:52:57.652453
47.69245334,5.274977684,-5.989833355,6.101398468,2024-06-04 14:52:57.692453
47.73245334,5.274977684,-5.989833355,6.101398468,2024-06-04 14:52:57.732453
47.77245334,5.274977684,-5.989833355,6.101398468,2024-06-04 14:52:57.772453
47.81245334,5.274977684,-5.989833355,6.101398468,2024-06-04 14:52:57.812453
47.85245334,5.274977684,-5.989833355,6.101398468,2024-06-04 14:52:57.852453
47.89245334,5.274977684,-5.989833355,6.101398468,2024-06-04 14:52:57.892453
47.93245334,5.274977684,-5.989833355,6.101398468,2024-06-04 14:52:57.932453
47.97245334,5.274977684,-5.989833355,6.101398468,2024-06-04 14:52:57.972453
48.01245334,5.274977684,-5.989833355,6.101398468,2024-06-04 14:52:58.012453
48.05245334,5.274977684,-5.989833355,6.101398468,2024-06-04 14:52:58.052453
48.09245334,5.274977684,-5.989833355,6.101398468,2024-06-04 14:52:58.092453
48.13245334,5.274977684,-5.989833355,6.101398468,2024-06-04 14:52:58.132453
48.17245334,1.922333837,-11.50917816,1.998904228,2024-06-04 14:52:58.172453
48.21245334,1.736590981,-12.34995556,2.850749016,2024-06-04 14:52:58.212453
48.25245334,4.443770885,-11.12961674,-2.203789711,2024-06-04 14:52:58.252453
48.29245334,5.825924873,-15.81147289,1.020538807,2024-06-04 14:52:58.292453
48.33245334,5.825924873,-15.81147289,1.020538807,2024-06-04 14:52:58.332453
48.37245334,5.825924873,-15.81147289,1.020538807,2024-06-04 14:52:58.372453
48.41245334,5.825924873,-15.81147289,1.020538807,2024-06-04 14:52:58.412453
48.45245334,5.825924873,-15.81147289,1.020538807,2024-06-04 14:52:58.452453
48.49245334,5.825924873,-15.81147289,1.020538807,2024-06-04 14:52:58.492453
48.53245334,5.825924873,-15.81147289,1.020538807,2024-06-04 14:52:58.532453
48.57245334,5.825924873,-15.81147289,1.020538807,2024-06-04 14:52:58.572453
48.61245334,5.825924873,-15.81147289,1.020538807,2024-06-04 14:52:58.612453
48.65245334,5.825924873,-15.81147289,1.020538807,2024-06-04 14:52:58.652453
48.69245334,5.825924873,-15.81147289,1.020538807,2024-06-04 14:52:58.692453
48.73245334,5.825924873,-15.81147289,1.020538807,2024-06-04 14:52:58.732453
48.77245334,5.825924873,-15.81147289,1.020538807,2024-06-04 14:52:58.772453
48.81245334,5.825924873,-15.81147289,1.020538807,2024-06-04 14:52:58.812453
48.85245334,5.825924873,-15.81147289,1.020538807,2024-06-04 14:52:58.852453
48.89245334,5.825924873,-15.81147289,1.020538807,2024-06-04 14:52:58.892453
48.93245334,-3.030210733,-10.0648098,-0.371186614,2024-06-04 14:52:58.932453
48.97245334,-3.030210733,-10.0648098,-0.371186614,2024-06-04 14:52:58.972453
49.01245334,-0.4193421602,-7.226025105,0.8407780528,2024-06-04 14:52:59.012453
49.05245334,7.690831184,-5.96590519,0.3939184248,2024-06-04 14:52:59.052453
49.09245334,7.690831184,-5.96590519,0.3939184248,2024-06-04 14:52:59.092453
49.13245334,7.690831184,-5.96590519,0.3939184248,2024-06-04 14:52:59.132453
49.17245334,7.690831184,-5.96590519,0.3939184248,2024-06-04 14:52:59.172453
49.21245334,7.690831184,-5.96590519,0.3939184248,2024-06-04 14:52:59.212453
49.25245334,7.690831184,-5.96590519,0.3939184248,2024-06-04 14:52:59.252453
49.29245334,7.690831184,-5.96590519,0.3939184248,2024-06-04 14:52:59.292453
49.33245334,7.690831184,-5.96590519,0.3939184248,2024-06-04 14:52:59.332453
49.37245334,7.690831184,-5.96590519,0.3939184248,2024-06-04 14:52:59.372453
49.41245334,7.690831184,-5.96590519,0.3939184248,2024-06-04 14:52:59.412453
49.45245334,7.690831184,-5.96590519,0.3939184248,2024-06-04 14:52:59.452453
49.49245334,7.690831184,-5.96590519,0.3939184248,2024-06-04 14:52:59.492453
49.53245334,7.690831184,-5.96590519,0.3939184248,2024-06-04 14:52:59.532453
49.57245334,7.690831184,-5.96590519,0.3939184248,2024-06-04 14:52:59.572453
49.61245334,7.690831184,-5.96590519,0.3939184248,2024-06-04 14:52:59.612453
49.65245334,7.690831184,-5.96590519,0.3939184248,2024-06-04 14:52:59.652453
49.69245334,2.171486616,-8.925527573,-0.3795614839,2024-06-04 14:52:59.692453
49.73245334,2.171486616,-8.925527573,-0.3795614839,2024-06-04 14:52:59.732453
49.77245334,4.273581028,-6.137290955,2.32851553,2024-06-04 14:52:59.772453
49.81245334,4.273581028,-6.137290955,2.32851553,2024-06-04 14:52:59.812453
49.85245334,4.273581028,-6.137290955,2.32851553,2024-06-04 14:52:59.852453
49.89245334,4.273581028,-6.137290955,2.32851553,2024-06-04 14:52:59.892453
49.93245334,-2.170290232,-6.367300987,6.144469261,2024-06-04 14:52:59.932453
49.97245334,-0.2156531364,-6.445067883,5.531308651,2024-06-04 14:52:59.972453
50.01245334,0.02273181453,-4.656732082,4.674678326,2024-06-04 14:53:00.012453
50.05245334,0.02273181453,-4.656732082,4.674678326,2024-06-04 14:53:00.052453
50.09245334,0.02273181453,-4.656732082,4.674678326,2024-06-04 14:53:00.092453
50.13245334,0.02273181453,-4.656732082,4.674678326,2024-06-04 14:53:00.132453
50.17245334,5.406582832,-8.386544228,-2.548954248,2024-06-04 14:53:00.172453
50.21245334,5.406582832,-8.386544228,-2.548954248,2024-06-04 14:53:00.212453
50.25245334,5.406582832,-8.386544228,-2.548954248,2024-06-04 14:53:00.252453
50.29245334,5.406582832,-8.386544228,-2.548954248,2024-06-04 14:53:00.292453
50.33245334,5.406582832,-8.386544228,-2.548954248,2024-06-04 14:53:00.332453
50.37245334,5.406582832,-8.386544228,-2.548954248,2024-06-04 14:53:00.372453
50.41245334,5.406582832,-8.386544228,-2.548954248,2024-06-04 14:53:00.412453
50.45245334,5.406582832,-8.386544228,-2.548954248,2024-06-04 14:53:00.452453
50.49245334,5.406582832,-8.386544228,-2.548954248,2024-06-04 14:53:00.492453
50.53245334,5.406582832,-8.386544228,-2.548954248,2024-06-04 14:53:00.532453
50.57245334,5.406582832,-8.386544228,-2.548954248,2024-06-04 14:53:00.572453
50.61245334,5.406582832,-8.386544228,-2.548954248,2024-06-04 14:53:00.612453
50.65245334,5.406582832,-8.386544228,-2.548954248,2024-06-04 14:53:00.652453
50.69245334,5.406582832,-8.386544228,-2.548954248,2024-06-04 14:53:00.692453
50.73245334,5.406582832,-8.386544228,-2.548954248,2024-06-04 14:53:00.732453
50.77245334,5.406582832,-8.386544228,-2.548954248,2024-06-04 14:53:00.772453
50.81245334,5.406582832,-8.386544228,-2.548954248,2024-06-04 14:53:00.812453
50.85245334,5.406582832,-8.386544228,-2.548954248,2024-06-04 14:53:00.852453
50.89245334,5.406582832,-8.386544228,-2.548954248,2024-06-04 14:53:00.892453
50.93245334,5.406582832,-8.386544228,-2.548954248,2024-06-04 14:53:00.932453
50.97245334,5.406582832,-8.386544228,-2.548954248,2024-06-04 14:53:00.972453
51.01245334,5.406582832,-8.386544228,-2.548954248,2024-06-04 14:53:01.012453
51.05245334,5.406582832,-8.386544228,-2.548954248,2024-06-04 14:53:01.052453
51.09245334,5.406582832,-8.386544228,-2.548954248,2024-06-04 14:53:01.092453
51.13245334,5.406582832,-8.386544228,-2.548954248,2024-06-04 14:53:01.132453
51.17245334,0.7881359458,-10.80120182,-0.06101697683,2024-06-04 14:53:01.172453
51.21245334,0.7881359458,-10.80120182,-0.06101697683,2024-06-04 14:53:01.212453
51.25245334,0.7881359458,-10.80120182,-0.06101697683,2024-06-04 14:53:01.252453
51.29245334,0.7881359458,-10.80120182,-0.06101697683,2024-06-04 14:53:01.292453
51.33245334,0.7881359458,-10.80120182,-0.06101697683,2024-06-04 14:53:01.332453
51.37245334,0.7881359458,-10.80120182,-0.06101697683,2024-06-04 14:53:01.372453
51.41245334,0.7881359458,-10.80120182,-0.06101697683,2024-06-04 14:53:01.412453
51.45245334,0.7881359458,-10.80120182,-0.06101697683,2024-06-04 14:53:01.452453
51.49245334,6.555137634,-7.251150131,-0.8982058167,2024-06-04 14:53:01.492453
51.53245334,1.894816399,-4.290330887,2.406282187,2024-06-04 14:53:01.532453
51.57245334,1.894816399,-4.290330887,2.406282187,2024-06-04 14:53:01.572453
51.61245334,1.894816399,-4.290330887,2.406282187,2024-06-04 14:53:01.612453
51.65245334,1.894816399,-4.290330887,2.406282187,2024-06-04 14:53:01.652453
51.69245334,1.894816399,-4.290330887,2.406282187,2024-06-04 14:53:01.692453
51.73245334,1.894816399,-4.290330887,2.406282187,2024-06-04 14:53:01.732453
51.77245334,-4.861617565,-12.34756279,2.521137714,2024-06-04 14:53:01.772453
51.81245334,-4.861617565,-12.34756279,2.521137714,2024-06-04 14:53:01.812453
51.85245334,-4.861617565,-12.34756279,2.521137714,2024-06-04 14:53:01.852453
51.89245334,-4.861617565,-12.34756279,2.521137714,2024-06-04 14:53:01.892453
51.93245334,-4.861617565,-12.34756279,2.521137714,2024-06-04 14:53:01.932453
51.97245334,-4.861617565,-12.34756279,2.521137714,2024-06-04 14:53:01.972453
52.01245334,-4.861617565,-12.34756279,2.521137714,2024-06-04 14:53:02.012453
52.05245334,-4.861617565,-12.34756279,2.521137714,2024-06-04 14:53:02.052453
52.09245334,-4.861617565,-12.34756279,2.521137714,2024-06-04 14:53:02.092453
52.13245334,-4.861617565,-12.34756279,2.521137714,2024-06-04 14:53:02.132453
52.17245334,-1.787139416,-11.4577322,1.024128079,2024-06-04 14:53:02.172453
52.21245334,0.537786901,-12.06132126,3.962215185,2024-06-04 14:53:02.212453
52.25245334,3.585943937,-12.46271801,0.1016949639,2024-06-04 14:53:02.252453
52.29245334,3.585943937,-12.46271801,0.1016949639,2024-06-04 14:53:02.292453
52.33245334,3.585943937,-12.46271801,0.1016949639,2024-06-04 14:53:02.332453
52.37245334,3.585943937,-12.46271801,0.1016949639,2024-06-04 14:53:02.372453
52.41245334,3.585943937,-12.46271801,0.1016949639,2024-06-04 14:53:02.412453
52.45245334,-1.189232826,-10.89721298,-0.3412763178,2024-06-04 14:53:02.452453
52.49245334,4.145266056,-4.992325306,-0.3496512175,2024-06-04 14:53:02.492453
52.53245334,4.145266056,-4.992325306,-0.3496512175,2024-06-04 14:53:02.532453
52.57245334,4.145266056,-4.992325306,-0.3496512175,2024-06-04 14:53:02.572453
52.61245334,4.145266056,-4.992325306,-0.3496512175,2024-06-04 14:53:02.612453
52.65245334,4.145266056,-4.992325306,-0.3496512175,2024-06-04 14:53:02.652453
52.69245334,4.145266056,-4.992325306,-0.3496512175,2024-06-04 14:53:02.692453
52.73245334,4.145266056,-4.992325306,-0.3496512175,2024-06-04 14:53:02.732453
52.77245334,4.145266056,-4.992325306,-0.3496512175,2024-06-04 14:53:02.772453
52.81245334,4.145266056,-4.992325306,-0.3496512175,2024-06-04 14:53:02.812453
52.85245334,4.145266056,-4.992325306,-0.3496512175,2024-06-04 14:53:02.852453
52.89245334,4.145266056,-4.992325306,-0.3496512175,2024-06-04 14:53:02.892453
52.93245334,3.255435228,-11.9225378,1.36899364,2024-06-04 14:53:02.932453
52.97245334,3.255435228,-11.9225378,1.36899364,2024-06-04 14:53:02.972453
53.01245334,3.255435228,-11.9225378,1.36899364,2024-06-04 14:53:03.012453
53.05245334,3.255435228,-11.9225378,1.36899364,2024-06-04 14:53:03.052453
53.09245334,0.1088734269,-13.03639698,0.931705296,2024-06-04 14:53:03.092453
53.13245334,-6.472585201,-12.84586811,0.8335995674,2024-06-04 14:53:03.132453
53.17245334,-2.024327993,-10.88524914,0.1606182158,2024-06-04 14:53:03.172453
53.21245334,-2.024327993,-10.88524914,0.1606182158,2024-06-04 14:53:03.212453
53.25245334,-2.024327993,-10.88524914,0.1606182158,2024-06-04 14:53:03.252453
53.29245334,-2.024327993,-10.88524914,0.1606182158,2024-06-04 14:53:03.292453
53.33245334,-2.024327993,-10.88524914,0.1606182158,2024-06-04 14:53:03.332453
53.37245334,-2.024327993,-10.88524914,0.1606182158,2024-06-04 14:53:03.372453
53.41245334,-2.024327993,-10.88524914,0.1606182158,2024-06-04 14:53:03.412453
53.45245334,-2.024327993,-10.88524914,0.1606182158,2024-06-04 14:53:03.452453
53.49245334,-2.024327993,-10.88524914,0.1606182158,2024-06-04 14:53:03.492453
53.53245334,-2.024327993,-10.88524914,0.1606182158,2024-06-04 14:53:03.532453
53.57245334,-2.024327993,-10.88524914,0.1606182158,2024-06-04 14:53:03.572453
53.61245334,-2.024327993,-10.88524914,0.1606182158,2024-06-04 14:53:03.612453
53.65245334,-2.024327993,-10.88524914,0.1606182158,2024-06-04 14:53:03.652453
53.69245334,-2.024327993,-10.88524914,0.1606182158,2024-06-04 14:53:03.692453
53.73245334,-2.024327993,-10.88524914,0.1606182158,2024-06-04 14:53:03.732453
53.77245334,-2.024327993,-10.88524914,0.1606182158,2024-06-04 14:53:03.772453
53.81245334,-2.024327993,-10.88524914,0.1606182158,2024-06-04 14:53:03.812453
53.85245334,-2.024327993,-10.88524914,0.1606182158,2024-06-04 14:53:03.852453
53.89245334,-2.024327993,-10.88524914,0.1606182158,2024-06-04 14:53:03.892453
53.93245334,0.6550351977,-2.444567442,4.142873287,2024-06-04 14:53:03.932453
53.97245334,0.6550351977,-2.444567442,4.142873287,2024-06-04 14:53:03.972453
54.01245334,0.6550351977,-2.444567442,4.142873287,2024-06-04 14:53:04.012453
54.05245334,0.6550351977,-2.444567442,4.142873287,2024-06-04 14:53:04.052453
54.09245334,0.6550351977,-2.444567442,4.142873287,2024-06-04 14:53:04.092453
54.13245334,0.6550351977,-2.444567442,4.142873287,2024-06-04 14:53:04.132453
54.17245334,2.438585281,-3.478266716,2.897409201,2024-06-04 14:53:04.172453
54.21245334,2.438585281,-3.478266716,2.897409201,2024-06-04 14:53:04.212453
54.25245334,2.438585281,-3.478266716,2.897409201,2024-06-04 14:53:04.252453
54.29245334,2.438585281,-3.478266716,2.897409201,2024-06-04 14:53:04.292453
54.33245334,2.438585281,-3.478266716,2.897409201,2024-06-04 14:53:04.332453
54.37245334,2.438585281,-3.478266716,2.897409201,2024-06-04 14:53:04.372453
54.41245334,2.438585281,-3.478266716,2.897409201,2024-06-04 14:53:04.412453
54.45245334,2.438585281,-3.478266716,2.897409201,2024-06-04 14:53:04.452453
54.49245334,2.438585281,-3.478266716,2.897409201,2024-06-04 14:53:04.492453
54.53245334,2.438585281,-3.478266716,2.897409201,2024-06-04 14:53:04.532453
54.57245334,2.438585281,-3.478266716,2.897409201,2024-06-04 14:53:04.572453
54.61245334,2.438585281,-3.478266716,2.897409201,2024-06-04 14:53:04.612453
54.65245334,2.438585281,-3.478266716,2.897409201,2024-06-04 14:53:04.652453
54.69245334,2.438585281,-3.478266716,2.897409201,2024-06-04 14:53:04.692453
54.73245334,2.438585281,-3.478266716,2.897409201,2024-06-04 14:53:04.732453
54.77245334,2.438585281,-3.478266716,2.897409201,2024-06-04 14:53:04.772453
54.81245334,2.438585281,-3.478266716,2.897409201,2024-06-04 14:53:04.812453
54.85245334,2.438585281,-3.478266716,2.897409201,2024-06-04 14:53:04.852453
54.89245334,2.385943174,-11.22891808,5.355136871,2024-06-04 14:53:04.892453
54.93245334,2.385943174,-11.22891808,5.355136871,2024-06-04 14:53:04.932453
54.97245334,3.218346357,-12.66849995,-1.031306505,2024-06-04 14:53:04.972453
55.01245334,3.218346357,-12.66849995,-1.031306505,2024-06-04 14:53:05.012453
55.05245334,3.218346357,-12.66849995,-1.031306505,2024-06-04 14:53:05.052453
55.09245334,3.218346357,-12.66849995,-1.031306505,2024-06-04 14:53:05.092453
55.13245334,3.218346357,-12.66849995,-1.031306505,2024-06-04 14:53:05.132453
55.17245334,2.401496649,-10.08754253,0.7701897621,2024-06-04 14:53:05.172453
55.21245334,2.401496649,-10.08754253,0.7701897621,2024-06-04 14:53:05.212453
55.25245334,2.401496649,-10.08754253,0.7701897621,2024-06-04 14:53:05.252453
55.29245334,2.401496649,-10.08754253,0.7701897621,2024-06-04 14:53:05.292453
55.33245334,2.401496649,-10.08754253,0.7701897621,2024-06-04 14:53:05.332453
55.37245334,2.401496649,-10.08754253,0.7701897621,2024-06-04 14:53:05.372453
55.41245334,2.401496649,-10.08754253,0.7701897621,2024-06-04 14:53:05.412453
55.45245334,2.401496649,-10.08754253,0.7701897621,2024-06-04 14:53:05.452453
55.49245334,2.401496649,-10.08754253,0.7701897621,2024-06-04 14:53:05.492453
55.53245334,2.401496649,-10.08754253,0.7701897621,2024-06-04 14:53:05.532453
55.57245334,2.401496649,-10.08754253,0.7701897621,2024-06-04 14:53:05.572453
55.61245334,2.401496649,-10.08754253,0.7701897621,2024-06-04 14:53:05.612453
55.65245334,2.401496649,-10.08754253,0.7701897621,2024-06-04 14:53:05.652453
55.69245334,2.401496649,-10.08754253,0.7701897621,2024-06-04 14:53:05.692453
55.73245334,2.401496649,-10.08754253,0.7701897621,2024-06-04 14:53:05.732453
55.77245334,2.401496649,-10.08754253,0.7701897621,2024-06-04 14:53:05.772453
55.81245334,-5.455635548,-14.98026657,-0.3221337497,2024-06-04 14:53:05.812453
55.85245334,-5.455635548,-14.98026657,-0.3221337497,2024-06-04 14:53:05.852453
55.89245334,-5.455635548,-14.98026657,-0.3221337497,2024-06-04 14:53:05.892453
55.93245334,-5.455635548,-14.98026657,-0.3221337497,2024-06-04 14:53:05.932453
55.97245334,-5.455635548,-14.98026657,-0.3221337497,2024-06-04 14:53:05.972453
56.01245334,-5.455635548,-14.98026657,-0.3221337497,2024-06-04 14:53:06.012453
56.05245334,-5.455635548,-14.98026657,-0.3221337497,2024-06-04 14:53:06.052453
56.09245334,-5.455635548,-14.98026657,-0.3221337497,2024-06-04 14:53:06.092453
56.13245334,-5.455635548,-14.98026657,-0.3221337497,2024-06-04 14:53:06.132453
56.17245334,-5.455635548,-14.98026657,-0.3221337497,2024-06-04 14:53:06.172453
56.21245334,-5.455635548,-14.98026657,-0.3221337497,2024-06-04 14:53:06.212453
56.25245334,-5.455635548,-14.98026657,-0.3221337497,2024-06-04 14:53:06.252453
56.29245334,-5.455635548,-14.98026657,-0.3221337497,2024-06-04 14:53:06.292453
56.33245334,-5.455635548,-14.98026657,-0.3221337497,2024-06-04 14:53:06.332453
56.37245334,-5.455635548,-14.98026657,-0.3221337497,2024-06-04 14:53:06.372453
56.41245334,-5.455635548,-14.98026657,-0.3221337497,2024-06-04 14:53:06.412453
56.45245334,-5.455635548,-14.98026657,-0.3221337497,2024-06-04 14:53:06.452453
56.49245334,-5.455635548,-14.98026657,-0.3221337497,2024-06-04 14:53:06.492453
56.53245334,2.30339098,-10.95703411,-1.178465128,2024-06-04 14:53:06.532453
56.57245334,3.229114056,-4.577768803,-2.10209465,2024-06-04 14:53:06.572453
56.61245334,3.229114056,-4.577768803,-2.10209465,2024-06-04 14:53:06.612453
56.65245334,3.229114056,-4.577768803,-2.10209465,2024-06-04 14:53:06.652453
56.69245334,3.229114056,-4.577768803,-2.10209465,2024-06-04 14:53:06.692453
56.73245334,3.229114056,-4.577768803,-2.10209465,2024-06-04 14:53:06.732453
56.77245334,3.229114056,-4.577768803,-2.10209465,2024-06-04 14:53:06.772453
56.81245334,2.389532566,-8.149355888,9.786943436,2024-06-04 14:53:06.812453
56.85245334,2.389532566,-8.149355888,9.786943436,2024-06-04 14:53:06.852453
56.89245334,2.389532566,-8.149355888,9.786943436,2024-06-04 14:53:06.892453
56.93245334,5.799603939,-6.368497372,2.436192513,2024-06-04 14:53:06.932453
56.97245334,5.799603939,-6.368497372,2.436192513,2024-06-04 14:53:06.972453
57.01245334,5.799603939,-6.368497372,2.436192513,2024-06-04 14:53:07.012453
57.05245334,5.799603939,-6.368497372,2.436192513,2024-06-04 14:53:07.052453
57.09245334,5.799603939,-6.368497372,2.436192513,2024-06-04 14:53:07.092453
57.13245334,5.799603939,-6.368497372,2.436192513,2024-06-04 14:53:07.132453
57.17245334,5.799603939,-6.368497372,2.436192513,2024-06-04 14:53:07.172453
57.21245334,5.799603939,-6.368497372,2.436192513,2024-06-04 14:53:07.212453
57.25245334,-1.23978126,-9.420243263,1.620539188,2024-06-04 14:53:07.252453
57.29245334,2.506780863,-7.037889481,-0.7977072597,2024-06-04 14:53:07.292453
57.33245334,2.506780863,-7.037889481,-0.7977072597,2024-06-04 14:53:07.332453
57.37245334,2.506780863,-7.037889481,-0.7977072597,2024-06-04 14:53:07.372453
57.41245334,2.506780863,-7.037889481,-0.7977072597,2024-06-04 14:53:07.412453
57.45245334,2.506780863,-7.037889481,-0.7977072597,2024-06-04 14:53:07.452453
57.49245334,2.506780863,-7.037889481,-0.7977072597,2024-06-04 14:53:07.492453
57.53245334,2.506780863,-7.037889481,-0.7977072597,2024-06-04 14:53:07.532453
57.57245334,2.506780863,-7.037889481,-0.7977072597,2024-06-04 14:53:07.572453
57.61245334,2.506780863,-7.037889481,-0.7977072597,2024-06-04 14:53:07.612453
57.65245334,2.506780863,-7.037889481,-0.7977072597,2024-06-04 14:53:07.652453
57.69245334,2.506780863,-7.037889481,-0.7977072597,2024-06-04 14:53:07.692453
57.73245334,2.506780863,-7.037889481,-0.7977072597,2024-06-04 14:53:07.732453
57.77245334,2.506780863,-7.037889481,-0.7977072597,2024-06-04 14:53:07.772453
57.81245334,2.506780863,-7.037889481,-0.7977072597,2024-06-04 14:53:07.812453
57.85245334,2.506780863,-7.037889481,-0.7977072597,2024-06-04 14:53:07.852453
57.89245334,2.506780863,-7.037889481,-0.7977072597,2024-06-04 14:53:07.892453
57.93245334,2.506780863,-7.037889481,-0.7977072597,2024-06-04 14:53:07.932453
57.97245334,2.506780863,-7.037889481,-0.7977072597,2024-06-04 14:53:07.972453
58.01245334,2.506780863,-7.037889481,-0.7977072597,2024-06-04 14:53:08.012453
58.05245334,-0.6119644046,-3.916751623,7.228417873,2024-06-04 14:53:08.052453
58.09245334,-3.635295868,-6.882356167,9.228518486,2024-06-04 14:53:08.092453
58.13245334,-4.325026989,-3.919144392,8.57228756,2024-06-04 14:53:08.132453
58.17245334,-4.325026989,-3.919144392,8.57228756,2024-06-04 14:53:08.172453
58.21245334,-4.325026989,-3.919144392,8.57228756,2024-06-04 14:53:08.212453
58.25245334,-4.325026989,-3.919144392,8.57228756,2024-06-04 14:53:08.252453
58.29245334,-4.325026989,-3.919144392,8.57228756,2024-06-04 14:53:08.292453
58.33245334,2.818445921,-9.004789352,1.301994562,2024-06-04 14:53:08.332453
58.37245334,0.9017950296,-9.867103577,0.2515454888,2024-06-04 14:53:08.372453
58.41245334,0.9017950296,-9.867103577,0.2515454888,2024-06-04 14:53:08.412453
58.45245334,0.9017950296,-9.867103577,0.2515454888,2024-06-04 14:53:08.452453
58.49245334,0.9017950296,-9.867103577,0.2515454888,2024-06-04 14:53:08.492453
58.53245334,0.9017950296,-9.867103577,0.2515454888,2024-06-04 14:53:08.532453
58.57245334,0.9017950296,-9.867103577,0.2515454888,2024-06-04 14:53:08.572453
58.61245334,0.9017950296,-9.867103577,0.2515454888,2024-06-04 14:53:08.612453
58.65245334,0.9017950296,-9.867103577,0.2515454888,2024-06-04 14:53:08.652453
58.69245334,0.9017950296,-9.867103577,0.2515454888,2024-06-04 14:53:08.692453
58.73245334,0.9017950296,-9.867103577,0.2515454888,2024-06-04 14:53:08.732453
58.77245334,0.9017950296,-9.867103577,0.2515454888,2024-06-04 14:53:08.772453
58.81245334,0.9017950296,-9.867103577,0.2515454888,2024-06-04 14:53:08.812453
58.85245334,0.9017950296,-9.867103577,0.2515454888,2024-06-04 14:53:08.852453
58.89245334,-0.5425725579,-16.39711571,-1.062413216,2024-06-04 14:53:08.892453
58.93245334,-0.5425725579,-16.39711571,-1.062413216,2024-06-04 14:53:08.932453
58.97245334,-0.5425725579,-16.39711571,-1.062413216,2024-06-04 14:53:08.972453
59.01245334,-0.5425725579,-16.39711571,-1.062413216,2024-06-04 14:53:09.012453
59.05245334,-0.5425725579,-16.39711571,-1.062413216,2024-06-04 14:53:09.052453
59.09245334,-0.5425725579,-16.39711571,-1.062413216,2024-06-04 14:53:09.092453
59.13245334,-0.5425725579,-16.39711571,-1.062413216,2024-06-04 14:53:09.132453
59.17245334,-2.498405933,-15.21506214,2.844767094,2024-06-04 14:53:09.172453
59.21245334,-2.498405933,-15.21506214,2.844767094,2024-06-04 14:53:09.212453
59.25245334,-2.498405933,-15.21506214,2.844767094,2024-06-04 14:53:09.252453
59.29245334,-2.498405933,-15.21506214,2.844767094,2024-06-04 14:53:09.292453
59.33245334,-2.498405933,-15.21506214,2.844767094,2024-06-04 14:53:09.332453
59.37245334,-2.498405933,-15.21506214,2.844767094,2024-06-04 14:53:09.372453
59.41245334,-2.498405933,-15.21506214,2.844767094,2024-06-04 14:53:09.412453
59.45245334,-2.498405933,-15.21506214,2.844767094,2024-06-04 14:53:09.452453
59.49245334,-2.498405933,-15.21506214,2.844767094,2024-06-04 14:53:09.492453
59.53245334,-2.498405933,-15.21506214,2.844767094,2024-06-04 14:53:09.532453
59.57245334,-2.498405933,-15.21506214,2.844767094,2024-06-04 14:53:09.572453
59.61245334,-2.498405933,-15.21506214,2.844767094,2024-06-04 14:53:09.612453
59.65245334,-2.498405933,-15.21506214,2.844767094,2024-06-04 14:53:09.652453
59.69245334,4.226921082,-8.571090698,3.653241873,2024-06-04 14:53:09.692453
59.73245334,4.226921082,-8.571090698,3.653241873,2024-06-04 14:53:09.732453
59.77245334,4.226921082,-8.571090698,3.653241873,2024-06-04 14:53:09.772453
59.81245334,4.226921082,-8.571090698,3.653241873,2024-06-04 14:53:09.812453
59.85245334,3.622135162,-10.30169964,-1.58703959,2024-06-04 14:53:09.852453
59.89245334,-1.156929731,-21.89971161,7.204489708,2024-06-04 14:53:09.892453
59.93245334,-8.947062492,-12.3798666,-5.126323223,2024-06-04 14:53:09.932453
59.97245334,-8.947062492,-12.3798666,-5.126323223,2024-06-04 14:53:09.972453
60.01245334,-8.947062492,-12.3798666,-5.126323223,2024-06-04 14:53:10.012453
60.05245334,-8.947062492,-12.3798666,-5.126323223,2024-06-04 14:53:10.052453
60.09245334,-8.947062492,-12.3798666,-5.126323223,2024-06-04 14:53:10.092453
60.13245334,-8.947062492,-12.3798666,-5.126323223,2024-06-04 14:53:10.132453
60.17245334,2.803789854,-12.46989632,1.413260818,2024-06-04 14:53:10.172453
60.21245334,2.803789854,-12.46989632,1.413260818,2024-06-04 14:53:10.212453
60.25245334,2.803789854,-12.46989632,1.413260818,2024-06-04 14:53:10.252453
60.29245334,2.803789854,-12.46989632,1.413260818,2024-06-04 14:53:10.292453
60.33245334,2.803789854,-12.46989632,1.413260818,2024-06-04 14:53:10.332453
60.37245334,2.803789854,-12.46989632,1.413260818,2024-06-04 14:53:10.372453
60.41245334,2.803789854,-12.46989632,1.413260818,2024-06-04 14:53:10.412453
60.45245334,2.803789854,-12.46989632,1.413260818,2024-06-04 14:53:10.452453
60.49245334,2.803789854,-12.46989632,1.413260818,2024-06-04 14:53:10.492453
60.53245334,2.803789854,-12.46989632,1.413260818,2024-06-04 14:53:10.532453
60.57245334,2.803789854,-12.46989632,1.413260818,2024-06-04 14:53:10.572453
60.61245334,2.803789854,-12.46989632,1.413260818,2024-06-04 14:53:10.612453
60.65245334,2.803789854,-12.46989632,1.413260818,2024-06-04 14:53:10.652453
60.69245334,2.803789854,-12.46989632,1.413260818,2024-06-04 14:53:10.692453
60.73245334,1.237388372,-1.789532185,2.984747171,2024-06-04 14:53:10.732453
60.77245334,-2.048256159,-4.538287163,5.988636971,2024-06-04 14:53:10.772453
60.81245334,-2.048256159,-4.538287163,5.988636971,2024-06-04 14:53:10.812453
60.85245334,-2.048256159,-4.538287163,5.988636971,2024-06-04 14:53:10.852453
60.89245334,-2.048256159,-4.538287163,5.988636971,2024-06-04 14:53:10.892453
60.93245334,-2.048256159,-4.538287163,5.988636971,2024-06-04 14:53:10.932453
60.97245334,-2.048256159,-4.538287163,5.988636971,2024-06-04 14:53:10.972453
61.01245334,-2.048256159,-4.538287163,5.988636971,2024-06-04 14:53:11.012453
61.05245334,-2.048256159,-4.538287163,5.988636971,2024-06-04 14:53:11.052453
61.09245334,-2.048256159,-4.538287163,5.988636971,2024-06-04 14:53:11.092453
61.13245334,-2.048256159,-4.538287163,5.988636971,2024-06-04 14:53:11.132453
61.17245334,-2.048256159,-4.538287163,5.988636971,2024-06-04 14:53:11.172453
61.21245334,-2.048256159,-4.538287163,5.988636971,2024-06-04 14:53:11.212453
61.25245334,-2.048256159,-4.538287163,5.988636971,2024-06-04 14:53:11.252453
61.29245334,-2.048256159,-4.538287163,5.988636971,2024-06-04 14:53:11.292453
61.33245334,-1.260120273,-7.857132435,1.89242363,2024-06-04 14:53:11.332453
61.37245334,-1.260120273,-7.857132435,1.89242363,2024-06-04 14:53:11.372453
61.41245334,-1.260120273,-7.857132435,1.89242363,2024-06-04 14:53:11.412453
61.45245334,-1.260120273,-7.857132435,1.89242363,2024-06-04 14:53:11.452453
61.49245334,-1.260120273,-7.857132435,1.89242363,2024-06-04 14:53:11.492453
61.53245334,-1.260120273,-7.857132435,1.89242363,2024-06-04 14:53:11.532453
61.57245334,3.35862565,-9.543772697,-1.083948612,2024-06-04 14:53:11.572453
61.57245334,3.35862565,-9.543772697,-1.083948612,2024-06-04 14:53:11.572453
61.65245334,2.402693033,-12.30568886,-3.921537161,2024-06-04 14:53:11.652453
61.69245334,2.402693033,-12.30568886,-3.921537161,2024-06-04 14:53:11.692453
61.73245334,3.806382656,-17.55195236,-2.053041935,2024-06-04 14:53:11.732453
61.77245334,6.400800705,-14.99701595,0.7642077208,2024-06-04 14:53:11.772453
61.81245334,0.3257229924,-10.31755257,0.8898309469,2024-06-04 14:53:11.812453
61.85245334,-1.437189102,-10.34506989,-1.107876897,2024-06-04 14:53:11.852453
61.89245334,-0.9221340418,-8.871688843,0.751047194,2024-06-04 14:53:11.892453
61.93245334,0.8359923959,-9.19980526,1.655235052,2024-06-04 14:53:11.932453
61.97245334,4.335794449,-10.11386299,-0.1280160099,2024-06-04 14:53:11.972453
62.01245334,4.594518661,-10.32951641,0.8395816684,2024-06-04 14:53:12.012453
62.05245334,6.158826351,-9.419047356,0.8670991063,2024-06-04 14:53:12.052453
62.09245334,4.378865242,-10.48744297,-2.290230274,2024-06-04 14:53:12.092453
62.13245334,1.94865489,-11.54028416,4.698905468,2024-06-04 14:53:12.132453
62.17245334,3.719044685,-11.12602711,1.137787223,2024-06-04 14:53:12.172453
62.21245334,2.890230656,-9.476474762,-1.558325768,2024-06-04 14:53:12.212453
62.25245334,2.890230656,-9.476474762,-1.558325768,2024-06-04 14:53:12.252453
62.29245334,2.890230656,-9.476474762,-1.558325768,2024-06-04 14:53:12.292453
62.33245334,2.890230656,-9.476474762,-1.558325768,2024-06-04 14:53:12.332453
62.37245334,-2.379961252,-2.491227388,4.413561344,2024-06-04 14:53:12.372453
