Time (s),Gyroscope x (rad/s),Gyroscope y (rad/s),Gyroscope z (rad/s),Datetime
0.11439969,-0.248199299,0.5870765448,-0.06178351492,2024-06-04 14:52:10.114400
0.154825628,-0.1768286824,0.829949677,-0.04473978654,2024-06-04 14:52:10.154826
0.239904846,0.4568518102,1.146190763,0.1749645174,2024-06-04 14:52:10.239905
0.280276826,0.03794892505,0.7047848105,-0.2882786989,2024-06-04 14:52:10.280277
0.320789898,-0.2442046702,1.704639196,0.1496652365,2024-06-04 14:52:10.320790
0.361314221,0.1167761683,0.1504641622,0.3741630912,2024-06-04 14:52:10.361314
0.40178719,-0.6290200949,-0.6539199352,0.4356803,2024-06-04 14:52:10.401787
0.441876148,-0.6750914454,1.37388432,-0.3037245572,2024-06-04 14:52:10.441876
0.482764742,-0.7676335573,0.1856168509,-0.1439396143,2024-06-04 14:52:10.482765
0.52325943,-0.6362104416,-0.8010552526,0.4865451753,2024-06-04 14:52:10.523259
0.563753023,-0.5387415886,-0.3572525382,0.3523258269,2024-06-04 14:52:10.563753
0.604194534,-0.4460663199,0.6635070443,0.1315562725,2024-06-04 14:52:10.604195
0.644743805,0.4099815488,0.9476579428,0.5985277891,2024-06-04 14:52:10.644744
0.684891096,0.568834424,1.012637138,1.463363886,2024-06-04 14:52:10.684891
0.72582594,0.09893351793,1.300116897,1.107176542,2024-06-04 14:52:10.725826
0.766279169,0.1857500076,1.720218182,0.8091776371,2024-06-04 14:52:10.766279
0.806769221,-1.284537911,1.035273314,1.109573364,2024-06-04 14:52:10.806769
0.84719844,-1.422352433,1.190930486,0.2447372824,2024-06-04 14:52:10.847198
0.887694326,-0.490539819,0.5892069936,0.0330222249,2024-06-04 14:52:10.887694
0.928161721,-0.6585803032,0.7428668737,0.5348801613,2024-06-04 14:52:10.928162
0.968671409,-0.4900071919,0.9505873322,0.8496564627,2024-06-04 14:52:10.968671
1.009142867,-0.2724333405,0.4034570158,0.5497934222,2024-06-04 14:52:11.009143
1.049691773,0.1742987484,-0.3101159632,0.3778914213,2024-06-04 14:52:11.049692
1.090112763,-0.1155777797,-0.03462007269,0.3390104175,2024-06-04 14:52:11.090113
1.130631513,-0.03821523488,-0.04846810177,0.1515294015,2024-06-04 14:52:11.130632
1.171158388,-0.2695039511,0.03808208182,-0.1758965999,2024-06-04 14:52:11.171158
1.211190055,-1.064034581,0.5527228117,-0.176429227,2024-06-04 14:52:11.211190
1.252073909,-2.93098855,1.902106762,-2.023676395,2024-06-04 14:52:11.252074
1.292557555,-3.056153536,3.020867586,-3.040041924,2024-06-04 14:52:11.292558
1.333046721,-2.382260561,2.949763298,-3.490768671,2024-06-04 14:52:11.333047
1.373548909,-3.309545755,2.756290436,-4.428706169,2024-06-04 14:52:11.373549
1.414060836,-4.040961266,1.702242374,-3.041639805,2024-06-04 14:52:11.414061
1.454535732,-3.334845066,2.702762604,-2.646172047,2024-06-04 14:52:11.454536
1.494992555,-3.014076948,4.15374279,-2.3150177,2024-06-04 14:52:11.494993
1.535512398,-2.872933388,1.11183691,0.06364767253,2024-06-04 14:52:11.535512
1.575948753,-1.05657804,0.8869396448,0.6177020073,2024-06-04 14:52:11.575949
1.616350732,0.1114500016,0.5149070024,2.071745157,2024-06-04 14:52:11.616351
1.656927242,1.667755485,2.137789488,2.492911577,2024-06-04 14:52:11.656927
1.69728469,1.400115609,0.2969337106,1.866687775,2024-06-04 14:52:11.697285
1.737836826,0.1812227666,-1.749245763,-0.01251648832,2024-06-04 14:52:11.737837
1.778346253,0.5363448262,-1.785996318,-0.7659025192,2024-06-04 14:52:11.778346
1.818818857,0.3298227787,0.005858781748,-0.7709624171,2024-06-04 14:52:11.818819
1.859304794,0.4967980385,0.1150451675,-1.429409623,2024-06-04 14:52:11.859305
1.89978719,0.429155767,0.007722939365,-1.838991642,2024-06-04 14:52:11.899787
1.940271148,-0.1041265279,0.6696321368,-0.9520519972,2024-06-04 14:52:11.940271
1.980774065,-0.3581846058,1.350182891,-1.14672339,2024-06-04 14:52:11.980774
2.02126943,0.3540568352,1.111570716,-2.92765975,2024-06-04 14:52:12.021269
2.061801305,0.5485950112,-0.4818847775,-7.075810432,2024-06-04 14:52:12.061801
2.102235836,0.4656399786,-4.193422794,-8.656482697,2024-06-04 14:52:12.102236
2.142726305,2.140053034,-2.644574165,-5.066914082,2024-06-04 14:52:12.142726
2.183189326,0.6889394522,1.12222302,1.53420186,2024-06-04 14:52:12.183189
2.22338469,0.08002562821,0.9849410653,0.652854681,2024-06-04 14:52:12.223385
2.264253284,-0.1834863871,0.07802832127,0.4247616827,2024-06-04 14:52:12.264253
2.304672138,-0.48468104,0.148067385,0.3651086092,2024-06-04 14:52:12.304672
2.345175888,-0.7346113324,0.08122401685,0.2239652425,2024-06-04 14:52:12.345176
2.385650784,-0.7543181181,-0.133819893,0.168040514,2024-06-04 14:52:12.385651
2.426073023,-0.5347470045,-0.2720338702,0.2559222281,2024-06-04 14:52:12.426073
2.466592451,-0.079493016,-0.1455374658,0.3195699155,2024-06-04 14:52:12.466592
2.507129534,0.1766955256,-0.4222317338,-0.06391397864,2024-06-04 14:52:12.507130
2.547632711,0.2512618303,-0.2842840552,-0.6246260405,2024-06-04 14:52:12.547633
2.588108128,0.2499302924,-0.3825518191,-0.661909163,2024-06-04 14:52:12.588108
2.628604638,-0.4263595045,1.375748396,-0.24753353,2024-06-04 14:52:12.628605
2.669030315,-0.7106435895,-0.03328853101,-0.03967992961,2024-06-04 14:52:12.669030
2.70943318,0.1266295761,-1.284138441,-0.01677742042,2024-06-04 14:52:12.709433
2.75006943,0.1354177445,-0.8937305212,-0.118640326,2024-06-04 14:52:12.750069
2.790570628,0.1319557428,-0.5689675808,0.006391398143,2024-06-04 14:52:12.790571
2.831067711,0.1290263534,-0.8801487684,-0.104392834,2024-06-04 14:52:12.831068
2.871557138,0.3396761715,-0.8439308405,-0.2840177417,2024-06-04 14:52:12.871557
2.912041305,0.3058550358,-0.9411333799,-0.1354177445,2024-06-04 14:52:12.912041
2.952518128,0.09760197252,-0.3878779709,0.01544587873,2024-06-04 14:52:12.952518
2.993026461,0.1404775977,-0.4105141759,-0.2195711583,2024-06-04 14:52:12.993026
3.033540836,-0.1177082509,-0.9211602807,0.1571218669,2024-06-04 14:52:13.033541
3.074016669,0.001198387123,0.2748301327,0.2306229472,2024-06-04 14:52:13.074017
3.114425576,-0.4559197426,0.4857462645,0.07430000603,2024-06-04 14:52:13.114426
3.154845419,-0.3754946291,0.6073159575,-0.1183740199,2024-06-04 14:52:13.154845
3.195384221,-0.2173075378,0.3555215299,-0.03808208182,2024-06-04 14:52:13.195384
3.236026253,0.03768261895,-0.1137136221,0.04260931909,2024-06-04 14:52:13.236026
3.276466305,0.2299571782,-0.8045172691,0.222367391,2024-06-04 14:52:13.276466
3.316924273,0.3466002047,-0.8063814044,0.5212984085,2024-06-04 14:52:13.316924
3.357417346,0.5347470045,-0.9781502485,0.6547188759,2024-06-04 14:52:13.357417
3.397900784,0.6335473657,-0.3969324529,0.5011921525,2024-06-04 14:52:13.397901
3.438285888,0.1758965999,0.4946675897,0.3001294136,2024-06-04 14:52:13.438286
3.478885315,-0.4236964285,1.470820546,-0.3916063011,2024-06-04 14:52:13.478885
3.51940318,-0.5057193637,0.7402037978,-0.6491263509,2024-06-04 14:52:13.519403
3.559891617,0.01078548469,0.8419335485,-0.3737636507,2024-06-04 14:52:13.559892
3.600382034,-0.0977351293,0.5652392507,-0.209451437,2024-06-04 14:52:13.600382
3.640890367,0.01957365684,0.1643121988,-0.2043915838,2024-06-04 14:52:13.640890
3.681294065,0.009453942999,-0.1142462417,-0.2813546658,2024-06-04 14:52:13.681294
3.721816982,0.06963960826,-0.256588012,-0.2613815665,2024-06-04 14:52:13.721817
3.762307659,0.03422060981,-0.1873478591,-0.01544587873,2024-06-04 14:52:13.762308
3.802774013,-0.005193010904,0.06071828306,0.08868064731,2024-06-04 14:52:13.802774
3.84329693,0.1527277827,-0.2541912198,0.005858781748,2024-06-04 14:52:13.843297
3.883799638,0.1671084315,0.3376788795,-0.1009308323,2024-06-04 14:52:13.883800
3.924259273,0.2680392563,0.293471694,-0.08069140464,2024-06-04 14:52:13.924259
3.964654846,0.4762923121,0.6957303286,-0.1041265279,2024-06-04 14:52:13.964655
4.005196044,0.2757622004,0.8145037889,-0.218505919,2024-06-04 14:52:14.005196
4.045650888,0.07043853402,0.9665657878,-0.1412765235,2024-06-04 14:52:14.045651
4.086275003,-0.1099853069,1.065632463,-0.01571218669,2024-06-04 14:52:14.086275
4.126695576,-0.510512948,1.447119117,0.1350182891,2024-06-04 14:52:14.126696
4.16718344,-1.084806681,1.133940578,0.2668408751,2024-06-04 14:52:14.167183
4.207552034,-1.38054204,0.4922707975,0.2615146935,2024-06-04 14:52:14.207552
4.248164846,-1.352046967,0.1659100503,0.06045197323,2024-06-04 14:52:14.248165
4.288660107,-0.710909903,-0.6965292692,-0.2704360485,2024-06-04 14:52:14.288660
4.329199013,-0.267639786,-0.773625493,-0.1918751001,2024-06-04 14:52:14.329199
4.369618023,0.3679048419,-0.597196281,-0.1340862066,2024-06-04 14:52:14.369618
4.410103544,0.4430037737,-0.5782883763,-0.3047898114,2024-06-04 14:52:14.410104
4.450665732,-0.1097190008,-0.07163692266,-0.2041252851,2024-06-04 14:52:14.450666
4.491060055,0.1527277827,0.09427312016,0.04820179567,2024-06-04 14:52:14.491060
4.531625628,0.4621779919,-0.2435389012,-0.004793548491,2024-06-04 14:52:14.531626
4.57207969,0.03182383627,0.4340824485,-0.05139749497,2024-06-04 14:52:14.572080
4.612599169,-0.3611139953,0.6075822711,-0.05299534276,2024-06-04 14:52:14.612599
4.653028648,-0.1486000121,0.1531272531,-0.09507204592,2024-06-04 14:52:14.653029
4.693420315,0.01451379992,-0.1086537689,-0.1017297506,2024-06-04 14:52:14.693420
4.734052815,-0.1605838835,-0.0822892487,-0.03195698932,2024-06-04 14:52:14.734053
4.774476201,-0.084020257,-0.1418091506,0.04447348043,2024-06-04 14:52:14.774476
4.814989013,-0.09880036116,0.228758797,0.0713706091,2024-06-04 14:52:14.814989
4.855439169,-0.08162347972,0.2412752807,0.08495233208,2024-06-04 14:52:14.855439
4.895835523,-0.04806863889,0.4625774324,0.04527240247,2024-06-04 14:52:14.895836
4.936410315,-0.08481918275,0.3038577139,0.01278279629,2024-06-04 14:52:14.936410
4.976820992,0.1213034093,-0.1631138027,0.01225017942,2024-06-04 14:52:14.976821
5.017429951,0.2222342342,-0.2821536064,0.04740286991,2024-06-04 14:52:15.017430
5.057917659,0.0731016174,-0.04287562892,0.140877068,2024-06-04 14:52:15.057918
5.098399638,0.09121058136,-0.05645735189,0.143540144,2024-06-04 14:52:15.098400
5.138948805,0.05259587988,-0.01917419396,0.08601756394,2024-06-04 14:52:15.138949
5.179376982,0.007856093347,0.03035914153,0.05725627393,2024-06-04 14:52:15.179377
5.219787607,0.06111774594,-0.003195699072,0.02849498391,2024-06-04 14:52:15.219788
5.260348909,-0.06884068251,0.2242315561,-0.018907886,2024-06-04 14:52:15.260349
5.300837034,-0.1318225861,0.2649767101,-0.02103835158,2024-06-04 14:52:15.300837
5.341324378,-0.08375394344,0.0817566365,-0.02077204362,2024-06-04 14:52:15.341324
5.38182969,-0.02782921307,-0.03035914153,-0.04181039706,2024-06-04 14:52:15.381830
5.422296773,-0.08841434121,0.01384802908,-0.004260932095,2024-06-04 14:52:15.422297
5.46284693,-0.1078548431,0.1233007237,-0.0146469539,2024-06-04 14:52:15.462847
5.503273805,-0.1912093312,0.3525921404,-0.003195699072,2024-06-04 14:52:15.503274
5.54383068,-0.172567755,0.3683043122,0.02902759984,2024-06-04 14:52:15.543831
5.584271513,-0.02303566411,0.1643121988,0.07802832127,2024-06-04 14:52:15.584272
5.624751096,-0.07789516449,-0.2872134447,0.1198387146,2024-06-04 14:52:15.624751
5.665232138,-0.1691057384,-0.4089163244,0.2175738513,2024-06-04 14:52:15.665232
5.705695836,-0.1145125479,-0.08708280325,0.1853505522,2024-06-04 14:52:15.705696
5.746229065,-0.06111774594,0.04447348043,0.06364767253,2024-06-04 14:52:15.746229
5.786691721,0.04513924941,0.08282186836,0.03941362351,2024-06-04 14:52:15.786692
5.827180628,0.08375394344,-0.2816209793,0.08468602598,2024-06-04 14:52:15.827181
5.867680159,0.150597319,-0.3756277859,0.05352795869,2024-06-04 14:52:15.867680
5.90815443,0.07070484012,0.2215684652,-0.02316881903,2024-06-04 14:52:15.908154
5.948661982,-0.08721595258,0.2774932086,-0.1106510833,2024-06-04 14:52:15.948662
5.989186305,-0.1528609395,0.1872147024,-0.06870753318,2024-06-04 14:52:15.989186
6.02967094,-0.1762960702,0.5726959109,-0.1897446364,2024-06-04 14:52:16.029671
6.070150367,-0.01504641678,0.7990579009,-0.1782933772,2024-06-04 14:52:16.070150
6.110597971,-0.03395430371,0.2149107605,-0.1740324497,2024-06-04 14:52:16.110598
6.151091253,-0.000932078925,-0.5418041348,-0.04314193875,2024-06-04 14:52:16.151091
6.191571357,0.06884068251,0.09480573982,0.1147788614,2024-06-04 14:52:16.191571
6.232043701,0.05499265343,0.2964010835,0.04926702753,2024-06-04 14:52:16.232044
6.272565576,0.2627131045,0.1864157766,-0.01757634431,2024-06-04 14:52:16.272566
6.313068805,0.64499861,0.4902735054,-0.04607132822,2024-06-04 14:52:16.313069
6.353559117,1.048988223,0.9412665367,-0.04740286991,2024-06-04 14:52:16.353559
6.394020315,1.262700558,1.129147053,-0.07616416365,2024-06-04 14:52:16.394020
6.434503284,1.095059514,0.5665708184,-0.1668421179,2024-06-04 14:52:16.434503
6.475015419,1.040732622,0.1123820841,-0.0822892487,2024-06-04 14:52:16.475015
6.51547318,0.2427399755,0.02742975019,-0.06418029219,2024-06-04 14:52:16.515473
6.55595943,-0.1821548492,-0.2225005478,-0.2067883611,2024-06-04 14:52:16.555959
6.596470367,-0.5552527308,-0.233951807,-0.2083862126,2024-06-04 14:52:16.596470
6.636978909,-0.7210295796,-0.369769007,-0.2033263594,2024-06-04 14:52:16.636979
6.677440888,-0.7143719196,-0.4784227908,-0.1809564531,2024-06-04 14:52:16.677441
6.717915419,-0.5126433969,-0.6584471464,-0.2073209733,2024-06-04 14:52:16.717915
6.758407815,-0.4335498512,-0.1447385401,0.09374050796,2024-06-04 14:52:16.758408
6.798914117,-0.2213021666,0.330222249,0.1821548492,2024-06-04 14:52:16.798914
6.83939318,-0.3129121959,0.2439383566,0.273498565,2024-06-04 14:52:16.839393
6.879866201,-0.3808208108,-0.1372819096,0.4167724252,2024-06-04 14:52:16.879866
6.920359742,-0.3568530679,-0.1599181145,0.3262276053,2024-06-04 14:52:16.920360
6.960904586,0.01531272475,-0.6230281591,0.1001319066,2024-06-04 14:52:16.960905
7.001360107,0.6276885867,-0.7334129214,0.08122401685,2024-06-04 14:52:17.001360
7.041834065,-0.4977301359,-1.166962743,0.03861469775,2024-06-04 14:52:17.041834
7.082328753,-0.2633788586,-0.4770912528,0.08042509109,2024-06-04 14:52:17.082329
7.122841513,-0.1507304758,0.0705716908,0.1563229412,2024-06-04 14:52:17.122842
7.163354065,0.04620448127,-0.2302234918,0.2279598713,2024-06-04 14:52:17.163354
7.203809586,-0.002529928461,-0.04154408723,0.3240971565,2024-06-04 14:52:17.203810
7.244254326,-0.1789591461,0.2609820962,0.34513551,2024-06-04 14:52:17.244254
7.284721982,0.03209014609,0.2095845938,0.3371462524,2024-06-04 14:52:17.284722
7.32520344,0.1287600398,0.5551195741,0.4149082601,2024-06-04 14:52:17.325203
7.365664742,0.1695052087,0.3467333615,0.2801562846,2024-06-04 14:52:17.365665
7.406218336,0.09706936032,-0.0117175635,0.2181064636,2024-06-04 14:52:17.406218
7.446698701,-0.001731003635,0.2575200796,-0.03648423031,2024-06-04 14:52:17.446699
7.487209951,-0.1169093251,0.656050384,-0.1889457107,2024-06-04 14:52:17.487210
7.527717815,-0.2492645234,1.062170506,-0.3031919599,2024-06-04 14:52:17.527718
7.568167086,-0.2652430236,0.925021708,-0.403323859,2024-06-04 14:52:17.568167
7.608685419,-0.2221010923,0.665104866,-0.3170399666,2024-06-04 14:52:17.608685
7.64917969,-0.1400781423,0.8829450011,-0.3119801283,2024-06-04 14:52:17.649180
7.689636305,-0.1198387146,1.252980351,-0.4240958989,2024-06-04 14:52:17.689636
7.730125211,-0.4069190025,0.9425980449,-0.3050560951,2024-06-04 14:52:17.730125
7.77062844,-0.3874785006,0.912771523,-0.1442059278,2024-06-04 14:52:17.770628
7.811134117,0.1157109365,0.5825493336,-0.1814890802,2024-06-04 14:52:17.811134
7.851593596,-0.04300878197,0.5157059431,-0.2310224175,2024-06-04 14:52:17.851594
7.892062919,-0.5214315653,0.9577776194,-0.3037245572,2024-06-04 14:52:17.892063
7.932568805,-0.7295514941,1.148321152,-0.5058525205,2024-06-04 14:52:17.932569
7.973055315,-0.5251598954,0.3422061205,-0.4190360308,2024-06-04 14:52:17.973055
8.013591669,-0.4500609636,0.5442008972,-0.414242506,2024-06-04 14:52:18.013592
8.054091721,-0.330222249,0.9079779983,-0.4738955498,2024-06-04 14:52:18.054092
8.094506461,-0.2023942769,0.9668321013,-0.3836170435,2024-06-04 14:52:18.094506
8.13496943,-0.2806889117,0.7633726001,-0.4533897936,2024-06-04 14:52:18.134969
8.175468492,-0.3504616618,0.7300840616,-0.3167736828,2024-06-04 14:52:18.175468
8.215931409,-0.4455337226,0.5830819011,-0.2483324558,2024-06-04 14:52:18.215931
8.256483648,-0.5400731564,0.1965354979,-0.2254299372,2024-06-04 14:52:18.256484
8.296966201,-0.4505935609,0.005592473317,-0.1521951705,2024-06-04 14:52:18.296966
8.337469378,-0.308917582,0.1102516204,-0.06364767253,2024-06-04 14:52:18.337469
8.377914742,-0.1057243794,0.4391423166,-0.03515268862,2024-06-04 14:52:18.377915
8.418428857,0.2459356785,0.6680342555,-0.06045197323,2024-06-04 14:52:18.418429
8.458898284,0.2291582525,0.4412727654,-0.03328853101,2024-06-04 14:52:18.458898
8.499415784,0.4219654202,0.2005301118,-0.0114512546,2024-06-04 14:52:18.499416
8.539906409,0.5725627542,0.588141799,0.01331541315,2024-06-04 14:52:18.539906
8.580384065,0.1782933772,-0.006657706574,-0.05139749497,2024-06-04 14:52:18.580384
8.620873701,-0.1387466043,-0.2326202542,0.03328853101,2024-06-04 14:52:18.620874
8.661346721,-0.3909405172,-0.4025249183,0.1507304758,2024-06-04 14:52:18.661347
8.70179469,-0.5797531009,-0.3631113172,0.233286038,2024-06-04 14:52:18.701795
8.742351565,-0.6303516626,-0.08521863818,0.3715000153,2024-06-04 14:52:18.742352
8.782804273,-0.593334794,-0.2198374718,0.349662751,2024-06-04 14:52:18.782804
8.823315159,-0.2703028917,-0.2877460718,0.287612915,2024-06-04 14:52:18.823315
8.86383318,0.09387365729,-0.2968005538,0.1123820841,2024-06-04 14:52:18.863833
8.904290367,0.03688369319,-0.2264951766,0.01731003635,2024-06-04 14:52:18.904290
8.944770576,-0.1414096802,0.154458791,0.1486000121,2024-06-04 14:52:18.944771
8.985242607,0.09147688746,0.5974625945,0.1517957002,2024-06-04 14:52:18.985243
9.025764378,0.2113156021,-0.1083874628,0.1901440918,2024-06-04 14:52:19.025764
9.066239534,0.06165036187,-0.3726983964,0.155790329,2024-06-04 14:52:19.066240
9.10672318,-0.03501953557,-0.4568518102,-0.04740286991,2024-06-04 14:52:19.106723
9.147218648,0.03768261895,-0.3181052208,0.01997311972,2024-06-04 14:52:19.147219
9.187716096,0.03581846133,-0.2912080884,0.07935985923,2024-06-04 14:52:19.187716
9.228192607,0.04913387448,0.02130465955,-0.03541899845,2024-06-04 14:52:19.228193
9.268683857,-0.1430075318,0.1920082569,-0.03355484083,2024-06-04 14:52:19.268684
9.309170471,-0.1443390697,0.3608476818,-0.01731003635,2024-06-04 14:52:19.309170
9.349665107,-0.0980014354,0.2894770801,-0.03621792421,2024-06-04 14:52:19.349665
9.390137451,-0.1158440933,0.4303541481,-0.04234301299,2024-06-04 14:52:19.390137
9.430643909,-0.1411433816,0.466039449,-0.05272903293,2024-06-04 14:52:19.430644
9.471138753,-0.2569874525,0.600391984,-0.06551183015,2024-06-04 14:52:19.471139
9.511606669,-0.3105154335,0.6398055553,-0.1022623703,2024-06-04 14:52:19.511607
9.552113753,-0.2732322812,0.3746957183,-0.138347134,2024-06-04 14:52:19.552114
9.592596878,-0.2705691755,0.3464670479,-0.09853405505,2024-06-04 14:52:19.592597
9.633070003,-0.2487319112,0.3754946291,-0.06045197323,2024-06-04 14:52:19.633070
9.673555784,-0.1738992929,0.3264939189,-0.04473978654,2024-06-04 14:52:19.673556
9.714020628,-0.04220985994,0.2516613007,-0.04553871229,2024-06-04 14:52:19.714021
9.754544169,0.0621829778,0.3789566457,-0.02476666868,2024-06-04 14:52:19.754544
9.795035055,0.06351451576,0.4090494812,-0.002130466048,2024-06-04 14:52:19.795035
9.835498596,0.1031944528,0.3416734934,-0.01544587873,2024-06-04 14:52:19.835499
9.876024898,0.153793022,0.3549889028,-0.001597849536,2024-06-04 14:52:19.876025
9.916506669,0.1548582464,0.2703028917,0.01864157803,2024-06-04 14:52:19.916507
9.956967138,0.2059894353,0.3171731234,0.03169068322,2024-06-04 14:52:19.956967
9.997460263,0.4643084407,0.3659075499,0.04740286991,2024-06-04 14:52:19.997460
10.03795365,0.782679975,0.5106461048,0.09507204592,2024-06-04 14:52:20.037954
10.07843615,1.037270665,0.698659718,0.1688394397,2024-06-04 14:52:20.078436
10.11895563,1.200650811,0.579886198,0.1637795717,2024-06-04 14:52:20.118956
10.1594387,1.143660784,0.1920082569,0.248199299,2024-06-04 14:52:20.159439
10.19990615,0.7352771163,0.07456631213,0.3363473415,2024-06-04 14:52:20.199906
10.24039354,0.0512643382,0.0929415822,0.3067871034,2024-06-04 14:52:20.240394
10.2808799,-0.3203688264,-0.05166380107,0.2063889056,2024-06-04 14:52:20.280880
10.32137094,-0.6593792439,-0.3953346014,0.1912093312,2024-06-04 14:52:20.321371
10.36185261,-0.6929340959,-1.243659496,0.1707035899,2024-06-04 14:52:20.361853
10.40233302,-0.2825530469,-2.209825993,0.2175738513,2024-06-04 14:52:20.402333
10.44281245,-0.3222329915,-1.26842618,0.405321151,2024-06-04 14:52:20.442812
10.48336828,-0.3621792197,-0.8676322699,0.4604469836,2024-06-04 14:52:20.483368
10.52385688,0.0954715088,-0.06311506033,0.354189992,2024-06-04 14:52:20.523857
10.56430011,0.1841521561,0.06844121963,0.1174419373,2024-06-04 14:52:20.564300
10.60475099,0.2960016131,-1.295855999,-0.3050560951,2024-06-04 14:52:20.604751
10.6452436,-0.1403444558,-1.345256209,-0.06338136643,2024-06-04 14:52:20.645244
10.68573308,-0.1744319052,-0.1282274276,0.06178351492,2024-06-04 14:52:20.685733
10.72624214,-0.2521939278,-0.3713668585,0.1190397888,2024-06-04 14:52:20.726242
10.76675021,-0.113447316,-0.84020257,-0.02849498391,2024-06-04 14:52:20.766750
10.80720641,-0.1888125539,-0.6635070443,0.0074566314,2024-06-04 14:52:20.807206
10.84771948,-0.2127802968,-0.2738980353,0.04793548584,2024-06-04 14:52:20.847719
10.88818094,-0.1009308323,-0.06577813625,0.02716344222,2024-06-04 14:52:20.888181
10.92869099,-0.09533835202,-0.3138442934,0.05725627393,2024-06-04 14:52:20.928691
10.96917495,-0.09853405505,-0.4696346223,0.07509893179,2024-06-04 14:52:20.969175
11.00970985,-0.09081111848,-0.3572525382,0.03621792421,2024-06-04 14:52:21.009710
11.05014662,-0.05339480564,-0.3109148741,-0.009853405878,2024-06-04 14:52:21.050147
11.09064318,-0.02889444493,-0.4240958989,0.01517957076,2024-06-04 14:52:21.090643
11.13118198,0.03342168778,-0.6139736772,0.07483261824,2024-06-04 14:52:21.131182
11.17161271,0.07736254483,-0.5420704484,0.142208606,2024-06-04 14:52:21.171613
11.21210547,-0.01291595027,0.02636451647,0.0221035853,2024-06-04 14:52:21.212105
11.25256381,-0.1259638071,0.8129059672,0.09933298081,2024-06-04 14:52:21.252564
11.29308912,-0.2900096774,1.056045413,0.2505960763,2024-06-04 14:52:21.293089
11.33360896,-0.2916075289,1.040599465,0.219171688,2024-06-04 14:52:21.333609
11.37413193,-0.1113168523,0.4836157858,-0.008788172156,2024-06-04 14:52:21.374132
11.41452823,-0.01957365684,0.1568555683,-0.1535267085,2024-06-04 14:52:21.414528
11.45505568,-0.05632419512,0.4010602236,-0.1524614692,2024-06-04 14:52:21.455056
11.49546302,-0.1296921223,0.8294170499,-0.2589847744,2024-06-04 14:52:21.495463
11.5359936,-0.1643121988,0.5300865769,-0.4664389193,2024-06-04 14:52:21.535994
11.57650875,-0.223698929,0.6118432283,-0.4326177537,2024-06-04 14:52:21.576509
11.61699042,-0.2511286736,1.125684977,-0.160983339,2024-06-04 14:52:21.616990
11.65744849,-0.1752308309,1.491326213,0.04553871229,2024-06-04 14:52:21.657448
11.69791365,-0.09640359133,2.236057281,-0.04846810177,2024-06-04 14:52:21.697914
11.73845745,0.1340862066,2.298373461,-0.2547238469,2024-06-04 14:52:21.738457
11.77892037,0.08854749799,2.02807045,-0.2810883522,2024-06-04 14:52:21.778920
11.81941969,0.2264951766,2.237921476,-0.2240983993,2024-06-04 14:52:21.819420
11.85991313,0.1284937263,2.232328892,-0.3809539676,2024-06-04 14:52:21.859913
11.90037662,0.03155753016,1.634600043,-0.5175700784,2024-06-04 14:52:21.900377
11.94086334,-0.1174419373,1.341660976,-0.518369019,2024-06-04 14:52:21.940863
11.98136219,-0.1922745556,1.244458437,-0.5375432372,2024-06-04 14:52:21.981362
12.02188313,-0.2492645234,0.8624392748,-0.5908048749,2024-06-04 14:52:22.021883
12.06236979,-0.2860150635,0.6350120306,-0.4547213614,2024-06-04 14:52:22.062370
12.10283011,-0.4013265371,0.5282224417,-0.3154421151,2024-06-04 14:52:22.102830
12.1433211,-0.4332835376,0.4450010955,-0.2715012729,2024-06-04 14:52:22.143321
12.18385886,-0.3171731234,0.1110505462,-0.3239639997,2024-06-04 14:52:22.183859
12.22434282,-0.5177032351,0.04314193875,-0.3687037826,2024-06-04 14:52:22.224343
12.26482672,-0.5576494932,0.3994623721,0.06418029219,2024-06-04 14:52:22.264827
12.30529823,-0.3600487709,0.8957278132,0.107588537,2024-06-04 14:52:22.305298
12.34578214,-0.273498565,0.7194317579,-0.1077216864,2024-06-04 14:52:22.345782
12.38626787,-0.04141093418,0.2402100414,-0.1782933772,2024-06-04 14:52:22.386268
12.42674292,0.07603100687,-0.2691044807,-0.1649779677,2024-06-04 14:52:22.426743
12.46721219,-0.04913387448,-0.05352795869,0.04820179567,2024-06-04 14:52:22.467212
12.50769724,-0.164844811,0.2252967805,0.2050573528,2024-06-04 14:52:22.507697
12.54819625,-0.1384802908,0.2170412242,0.1869483888,2024-06-04 14:52:22.548196
12.58869063,0.01318225823,0.02956021577,0.1459369212,2024-06-04 14:52:22.588691
12.62918198,0.06165036187,-0.171901986,0.04740286991,2024-06-04 14:52:22.629182
12.66966922,0.06138405204,0.03089175746,0.04687025398,2024-06-04 14:52:22.669669
12.71015729,0.1854836941,-0.3130453527,0.1733666807,2024-06-04 14:52:22.710157
12.75065172,-0.1067896113,0.08814803511,-0.007722939365,2024-06-04 14:52:22.750652
12.79114052,-0.05232957378,0.4575175941,-0.06924014539,2024-06-04 14:52:22.791141
12.83161896,-0.1009308323,0.2681724131,-0.3527252972,2024-06-04 14:52:22.831619
12.87210474,-0.1206376404,0.3304885328,-0.4656399786,2024-06-04 14:52:22.872105
12.91260922,0.1524614692,0.2284924835,-0.3979976773,2024-06-04 14:52:22.912609
12.95309037,0.2251636237,0.071104303,-0.1159772426,2024-06-04 14:52:22.953090
12.99359016,0.07896039635,-0.001597849536,-0.06444659829,2024-06-04 14:52:22.993590
13.03409427,-0.1065233052,-0.2209026963,-0.1260969639,2024-06-04 14:52:23.034094
13.0745449,-0.1991985738,-0.3157084286,-0.2033263594,2024-06-04 14:52:23.074545
13.11502875,-0.3139774203,-0.2989310026,-0.2022611201,2024-06-04 14:52:23.115029
13.15547703,-0.3906742036,-0.3950682878,-0.2017285079,2024-06-04 14:52:23.155477
13.19595771,-0.525426209,-0.6403381824,-0.1077216864,2024-06-04 14:52:23.195958
13.23649276,-0.6580476761,-0.9246222377,-0.0458050184,2024-06-04 14:52:23.236493
13.27699964,-0.7958621979,-0.6898715496,0.08921326697,2024-06-04 14:52:23.277000
13.31748948,-0.796394825,-0.4371449947,0.3573856652,2024-06-04 14:52:23.317489
13.35796188,-0.5488613248,-0.09880036116,0.4695014656,2024-06-04 14:52:23.357962
13.39846219,-0.2884118557,0.0817566365,0.4423380196,2024-06-04 14:52:23.398462
13.43895906,-0.1118494645,-0.5497934222,0.2660419345,2024-06-04 14:52:23.438959
13.47942443,0.5077167153,-0.9387366176,0.1352845877,2024-06-04 14:52:23.479424
13.51992412,0.2616478503,-0.4501941204,0.1478010863,2024-06-04 14:52:23.519924
13.56039938,0.1250317246,-0.9698946476,0.1525946259,2024-06-04 14:52:23.560399
13.60087756,-0.2564548552,0.1126483902,0.128626883,2024-06-04 14:52:23.600878
13.64142516,-0.4726971686,0.8568468094,0.2199706137,2024-06-04 14:52:23.641425
13.68188,-0.3153089881,0.3944025338,0.2053236663,2024-06-04 14:52:23.681880
13.72236641,-0.4077179432,0.446598947,0.2644441128,2024-06-04 14:52:23.722366
13.76285834,-0.3206351399,0.2138455361,0.2162422985,2024-06-04 14:52:23.762858
13.80334469,-0.04540555924,-0.1748313755,0.1936061084,2024-06-04 14:52:23.803345
13.84383037,0.02117150649,-0.2840177417,0.06311506033,2024-06-04 14:52:23.843830
13.88435875,0.08135717362,-0.2366148829,-0.08708280325,2024-06-04 14:52:23.884359
13.92487141,0.02782921307,-0.1423417628,-0.01198387146,2024-06-04 14:52:23.924871
13.96535776,-0.0323564522,-0.3505948186,0.1001319066,2024-06-04 14:52:23.965358
14.0057188,-0.07203638554,-0.4129109383,0.1366161406,2024-06-04 14:52:24.005719
14.04622953,-0.03209014609,-0.3620460629,0.1065233052,2024-06-04 14:52:24.046230
14.08672771,-0.0126496423,-0.1237001866,0.1070559174,2024-06-04 14:52:24.086728
14.12723782,-0.02356828004,0.1371487528,0.1017297506,2024-06-04 14:52:24.127238
14.16770698,-0.04274247587,0.1171756312,0.08282186836,2024-06-04 14:52:24.167707
14.208185,-0.03635107726,-0.09959928691,0.05512581021,2024-06-04 14:52:24.208185
14.24868683,-0.03448691964,-0.2019948065,0.1323551983,2024-06-04 14:52:24.248687
14.28918229,-0.05712312087,-0.3039908707,0.1078548431,2024-06-04 14:52:24.289182
14.32970901,-0.05605788901,-0.2685718834,0.08335448056,2024-06-04 14:52:24.329709
14.37019771,-0.04780233279,-0.1857500076,0.06258244067,2024-06-04 14:52:24.370198
14.41064662,-0.03635107726,-0.07563154399,0.07536523789,2024-06-04 14:52:24.410647
14.45114224,-0.01850842312,-0.1503310055,0.03621792421,2024-06-04 14:52:24.451142
14.49164703,-0.01291595027,-0.162847504,0.0074566314,2024-06-04 14:52:24.491647
14.53212084,-0.005193010904,-0.1865489334,0.005858781748,2024-06-04 14:52:24.532121
14.57260917,0.01158440951,-0.2291582525,0.02370143496,2024-06-04 14:52:24.572609
14.61309886,0.01850842312,-0.2509955168,0.01411433797,2024-06-04 14:52:24.613099
14.65358834,0.03155753016,-0.1572550237,-0.009853405878,2024-06-04 14:52:24.653588
14.69407599,-0.02356828004,0.03035914153,-0.02636451647,2024-06-04 14:52:24.694076
14.73456073,-0.04194355011,-0.05139749497,-0.007722939365,2024-06-04 14:52:24.734561
14.77507927,-0.04567186534,-0.1153114736,-0.01757634431,2024-06-04 14:52:24.775079
14.81550349,-0.03288906813,-0.3095833361,-0.0599193573,2024-06-04 14:52:24.815503
14.85598995,0.08135717362,-0.08788172156,0.0221035853,2024-06-04 14:52:24.855990
14.89648151,0.1167761683,-0.3535242081,0.056723658,2024-06-04 14:52:24.896482
14.93697302,0.07896039635,-0.3521926701,0.01011971384,2024-06-04 14:52:24.936973
14.97746823,0.03129122034,-0.1327546686,-0.01704372838,2024-06-04 14:52:24.977468
15.01797636,0.001997311832,-0.1163767055,-0.01438064594,2024-06-04 14:52:25.017976
15.05847287,0.02516612969,-0.04287562892,-0.0037283157,2024-06-04 14:52:25.058473
15.09895193,0.06165036187,-0.03701684624,0.0146469539,2024-06-04 14:52:25.098952
15.13943901,0.05685681105,0.06018566713,0.01225017942,2024-06-04 14:52:25.139439
15.17992797,0.04487293959,0.02077204362,-0.01784265228,2024-06-04 14:52:25.179928
15.22042761,0.03288906813,-0.05698996782,0.001597849536,2024-06-04 14:52:25.220428
15.26091073,0.04300878197,-0.06604444981,-0.008521864191,2024-06-04 14:52:25.260911
15.30139563,0.01478010789,-0.007722939365,-0.03275591508,2024-06-04 14:52:25.301396
15.34190891,-0.07123745978,0.1701709777,-0.0221035853,2024-06-04 14:52:25.341909
15.38237229,-0.04993279651,-0.03355484083,0.001065233024,2024-06-04 14:52:25.382372
15.42285177,0.03874785081,-0.3071865737,-0.03089175746,2024-06-04 14:52:25.422852
15.46332995,0.07283531129,-0.3468665183,-0.06151720881,2024-06-04 14:52:25.463330
15.50383006,0.07017222792,-0.4954665005,-0.06897383928,2024-06-04 14:52:25.503830
15.54433896,0.05525896326,-0.4302209914,-0.03754946589,2024-06-04 14:52:25.544339
15.5848213,0.06804175675,-0.2880123854,-0.002663082443,2024-06-04 14:52:25.584821
15.6252637,0.137015596,-0.1972012669,0.02876129188,2024-06-04 14:52:25.625264
15.66573037,0.1005313694,-0.433683008,0.06045197323,2024-06-04 14:52:25.665730
15.70622052,0.1524614692,-0.5993267298,0.04846810177,2024-06-04 14:52:25.706221
15.74677464,0.2589847744,-0.2525933683,0.1411433816,2024-06-04 14:52:25.746775
15.78723547,0.1652442664,-0.09081111848,0.1374150664,2024-06-04 14:52:25.787235
15.82772183,0.2251636237,0.03675054014,0.003462007269,2024-06-04 14:52:25.827722
15.86822256,0.0904116556,-0.2121145278,-0.1199718714,2024-06-04 14:52:25.868223
15.90871302,-0.07416684926,0.2018616647,-0.1054580659,2024-06-04 14:52:25.908713
15.94919906,-0.1278279573,-0.009320789017,-0.1849510819,2024-06-04 14:52:25.949199
15.98967906,-0.1323551983,0.1328878254,-0.2310224175,2024-06-04 14:52:25.989679
16.0302313,-0.1523283273,0.02742975019,-0.2113156021,2024-06-04 14:52:26.030231
16.07065146,-0.09826774895,0.009320789017,-0.1631138027,2024-06-04 14:52:26.070651
16.1111513,-0.0842865631,-0.164179042,-0.1255643368,2024-06-04 14:52:26.111151
16.15163443,-0.05525896326,-0.1780270636,-0.01278279629,2024-06-04 14:52:26.151634
16.19212162,0.2246310115,0.1057243794,-0.005059856921,2024-06-04 14:52:26.192122
16.2326224,0.3087844253,-0.1380808353,-0.01278279629,2024-06-04 14:52:26.232622
16.2731425,0.3732310236,0.0758978501,0.03675054014,2024-06-04 14:52:26.273142
16.31356881,0.506118834,0.3736304939,0.09400681406,2024-06-04 14:52:26.313569
16.35410896,1.0316782,0.5426030755,-0.07962616533,2024-06-04 14:52:26.354109
16.39462349,1.758699775,0.579886198,-0.156456098,2024-06-04 14:52:26.394623
16.43502084,2.033796072,0.7497909069,-0.1908098608,2024-06-04 14:52:26.435021
16.4754936,1.853771806,-0.3846822679,-0.3468665183,2024-06-04 14:52:26.475494
16.51598073,1.416626811,-0.7730928659,-0.1511299312,2024-06-04 14:52:26.515981
16.55646797,0.880415082,-0.5388747454,0.2841508985,2024-06-04 14:52:26.556468
16.59700063,0.3641765416,-0.7422010899,0.3813534081,2024-06-04 14:52:26.597001
16.6374925,-0.08002562821,-0.822892487,0.4756265581,2024-06-04 14:52:26.637493
16.67798115,-0.2460688353,-0.9150351882,0.5950657725,2024-06-04 14:52:26.677981
16.7184686,-0.3374125659,-1.121424079,0.5601794124,2024-06-04 14:52:26.718469
16.75894688,-0.426625818,-1.736995578,0.4473978579,2024-06-04 14:52:26.758947
16.79943589,-0.2572537661,-2.249505758,0.1715025157,2024-06-04 14:52:26.799436
16.8399149,-0.1472684592,-2.26148963,0.08042509109,2024-06-04 14:52:26.839915
16.88039422,0.1713693589,-1.364962935,0.1877473146,2024-06-04 14:52:26.880394
16.9209062,0.1958697289,-1.788659453,0.1672415882,2024-06-04 14:52:26.920906
16.96139365,0.3284912407,-1.757767677,0.08015878499,2024-06-04 14:52:26.961394
17.00192542,0.1556571722,-2.150971889,0.03248960897,2024-06-04 14:52:27.001925
17.04237068,0.0733679235,-1.458969831,0.1123820841,2024-06-04 14:52:27.042371
17.0828588,-0.2010627389,-1.26842618,0.2615146935,2024-06-04 14:52:27.082859
17.12336469,-0.07896039635,-1.366560817,0.1470021605,2024-06-04 14:52:27.123365
17.16383552,-0.05312849581,-0.5612446666,0.1003982127,2024-06-04 14:52:27.163836
17.20432302,0.0904116556,-0.661909163,0.1177082509,2024-06-04 14:52:27.204323
17.24487834,0.2382127345,-0.597995162,0.1185071766,2024-06-04 14:52:27.244878
17.28524828,0.2999962568,-0.2840177417,0.1746982187,2024-06-04 14:52:27.285248
17.32573573,0.3521926701,-0.6461969614,0.1922745556,2024-06-04 14:52:27.325736
17.36622323,0.244337827,-0.7111762166,0.1288931966,2024-06-04 14:52:27.366223
17.40674469,0.1215697154,-0.4880098701,0.1611164957,2024-06-04 14:52:27.406745
17.44724839,0.1348851323,-0.5457987785,0.1885462403,2024-06-04 14:52:27.447248
17.4877425,0.1250317246,-0.6227618456,0.177094996,2024-06-04 14:52:27.487742
17.52823578,0.08668334037,-0.4115794003,0.1387466043,2024-06-04 14:52:27.528236
17.56870995,0.000932078925,-0.203592658,0.07669677585,2024-06-04 14:52:27.568710
17.60920146,-0.0977351293,-0.1535267085,0.07030537724,2024-06-04 14:52:27.609201
17.64968146,-0.0980014354,-0.05832150951,0.06924014539,2024-06-04 14:52:27.649681
17.69015177,-0.08535179496,0.04394086078,0.08415340632,2024-06-04 14:52:27.690152
17.73067849,-0.03342168778,-0.1788259894,0.09959928691,2024-06-04 14:52:27.730678
17.77118328,0.02410089783,-0.04127778113,0.07802832127,2024-06-04 14:52:27.771183
17.81169146,0.02063889056,0.05805519968,0.04367455468,2024-06-04 14:52:27.811691
17.85213104,-0.004127778113,0.1097190008,-0.004527240526,2024-06-04 14:52:27.852131
17.89261672,0.006258244161,-0.05539211631,-0.04553871229,2024-06-04 14:52:27.892617
17.93310797,0.008122402243,-0.02796236612,0.03888100386,2024-06-04 14:52:27.933108
17.97361636,0.0464707911,-0.1782933772,0.06178351492,2024-06-04 14:52:27.973616
18.01410162,0.06937330216,-0.5034557581,0.06631075591,2024-06-04 14:52:28.014102
18.05462292,0.02037258074,-0.2832188308,0.001597849536,2024-06-04 14:52:28.054623
18.09507849,-0.09640359133,-0.01438064594,-0.01864157803,2024-06-04 14:52:28.095078
18.13549224,-0.06724283099,-0.006924014539,0.005326164886,2024-06-04 14:52:28.135492
18.17597906,-0.03368799388,-0.1258306503,0.04074516147,2024-06-04 14:52:28.175979
18.21651604,-0.06431344151,-0.04234301299,0.03888100386,2024-06-04 14:52:28.216516
18.25701719,-0.1062569916,0.04260931909,0.03248960897,2024-06-04 14:52:28.257017
18.29749276,-0.1139799356,0.2135792226,0.03089175746,2024-06-04 14:52:28.297493
18.33798323,-0.1086537689,0.330222249,0.009853405878,2024-06-04 14:52:28.337983
18.37847953,-0.1230344176,0.5255593657,-0.004260932095,2024-06-04 14:52:28.378480
18.41896032,-0.177094996,0.4599143565,-0.06737598777,2024-06-04 14:52:28.418960
18.45944927,-0.190676704,0.6163704395,-0.05805519968,2024-06-04 14:52:28.459449
18.49993115,-0.1728340536,0.530619204,-0.06790860742,2024-06-04 14:52:28.499931
18.54042,-0.0544600375,0.3435376585,-0.06045197323,2024-06-04 14:52:28.540420
18.5809162,0.03368799388,-0.04953333735,0.006125089712,2024-06-04 14:52:28.580916
18.62140599,0.05978620425,-0.3473991156,0.06071828306,2024-06-04 14:52:28.621406
18.66188391,0.1077216864,-0.3862801194,0.03861469775,2024-06-04 14:52:28.661884
18.70236709,0.06111774594,-0.3836170435,-0.02103835158,2024-06-04 14:52:28.702367
18.74286026,0.0006657706108,0.006125089712,-0.09054480493,2024-06-04 14:52:28.742860
18.78335125,-0.05073172227,0.2026605755,-0.1178414002,2024-06-04 14:52:28.783351
18.82386703,-0.06165036187,0.1541924775,-0.1636464298,2024-06-04 14:52:28.823867
18.86437516,-0.09533835202,0.3006620109,-0.1532603949,2024-06-04 14:52:28.864375
18.90481771,-0.1946713328,-0.003462007269,-0.1364829838,2024-06-04 14:52:28.904818
18.94528136,-0.2684387267,-0.1649779677,-0.1109173894,2024-06-04 14:52:28.945281
18.98576933,-0.1600512564,-0.2685718834,-0.03355484083,2024-06-04 14:52:28.985769
19.02630438,-0.1866820902,0.0260982085,0.1201050207,2024-06-04 14:52:29.026304
19.06680828,-0.1493989378,0.2202369273,0.01624480449,2024-06-04 14:52:29.066808
19.10722881,0.112781547,-0.4560528994,-0.2480661422,2024-06-04 14:52:29.107229
19.14776063,0.0467370972,-0.2579195499,-0.133819893,2024-06-04 14:52:29.147761
19.18824875,0.03129122034,-0.01997311972,-0.02583190054,2024-06-04 14:52:29.188249
19.22872511,0.3420729637,0.0181089621,-0.1332872808,2024-06-04 14:52:29.228725
19.26919302,0.515173316,0.7085131407,-0.1229012609,2024-06-04 14:52:29.269193
19.30969474,0.4648410678,0.5348801613,-0.06125089899,2024-06-04 14:52:29.309695
19.35022438,0.7166355252,0.2372806519,-0.1079879999,2024-06-04 14:52:29.350224
19.39067636,0.8093107939,-0.7728265524,-0.1926740259,2024-06-04 14:52:29.390676
19.43114365,0.5459319353,-1.112103224,-0.08628387749,2024-06-04 14:52:29.431144
19.47163828,0.3905410469,-0.7382065058,-0.1090532318,2024-06-04 14:52:29.471638
19.51213099,0.5005263686,-0.352991581,-0.3535242081,2024-06-04 14:52:29.512131
19.5526312,0.385214895,-0.08282186836,-0.2525933683,2024-06-04 14:52:29.552631
19.59308724,0.1926740259,-0.3447360396,0.03408745676,2024-06-04 14:52:29.593087
19.63359141,-0.06564498693,-0.7922670841,0.1041265279,2024-06-04 14:52:29.633591
19.67414193,-0.1424749196,-1.087336659,0.1304910481,2024-06-04 14:52:29.674142
19.71463068,-0.4708330035,-0.8892032504,0.2535254657,2024-06-04 14:52:29.714631
19.75501297,-0.5248935819,-1.022623658,0.3240971565,2024-06-04 14:52:29.755013
19.79556985,-0.3888100684,-0.3181052208,0.2833519876,2024-06-04 14:52:29.795570
19.83604537,0.09413997084,-0.129292652,0.3009283245,2024-06-04 14:52:29.836045
19.87653406,0.06884068251,-0.3085181117,0.01864157803,2024-06-04 14:52:29.876534
19.91702198,0.3905410469,0.2521939278,0.0758978501,2024-06-04 14:52:29.917022
19.9574511,0.4691019952,0.429821521,0.2719007432,2024-06-04 14:52:29.957451
19.99799662,0.1756303012,0.5673697591,0.2479329854,2024-06-04 14:52:29.997997
20.03846615,0.1753639877,0.4740287066,0.01784265228,2024-06-04 14:52:30.038466
20.07897318,0.3591166735,-0.01731003635,-0.2038589716,2024-06-04 14:52:30.078973
20.1194386,0.4834826291,-0.2744306624,-0.1111836955,2024-06-04 14:52:30.119439
20.15994193,0.2999962568,-0.1993317306,-0.07350108027,2024-06-04 14:52:30.159942
20.20041412,0.2677729428,-0.3961335421,-0.2390116602,2024-06-04 14:52:30.200414
20.24091719,0.3058550358,-0.7029206157,-0.2001306564,2024-06-04 14:52:30.240917
20.28139271,0.2214353085,-0.6818822622,0.007722939365,2024-06-04 14:52:30.281393
20.32189203,0.3143768907,-0.5165048838,-0.02503297664,2024-06-04 14:52:30.321892
20.36240688,0.2784252763,-0.1298252791,0.3845491111,2024-06-04 14:52:30.362407
20.40285787,0.1772281379,0.00186415785,0.8190310597,2024-06-04 14:52:30.402858
20.44336282,0.3559209704,-0.5657718778,0.7580464482,2024-06-04 14:52:30.443363
20.48385193,0.3370130956,0.3533910513,0.3549889028,2024-06-04 14:52:30.483852
20.5243575,0.03901416063,1.445254922,0.1235670298,2024-06-04 14:52:30.524358
20.56482761,0.03209014609,1.556838036,0.02796236612,2024-06-04 14:52:30.564828
20.60524578,0.3037245572,1.167761683,0.1296921223,2024-06-04 14:52:30.605246
20.6458187,0.003861469682,0.7729597092,0.3794892728,2024-06-04 14:52:30.645819
20.68629495,-0.2095845938,0.3568530679,0.1294258088,2024-06-04 14:52:30.686295
20.72677599,-0.2788247466,0.3017272651,-0.2065220475,2024-06-04 14:52:30.726776
20.76727256,-0.590139091,0.3869459033,-0.3311543167,2024-06-04 14:52:30.767273
20.80778854,-0.6055849791,0.4700340629,-0.6872084737,2024-06-04 14:52:30.807789
20.84823724,-0.3054555655,-0.5676360726,-1.136869907,2024-06-04 14:52:30.848237
20.8887113,-0.3560541272,-2.20663023,-0.9605738521,2024-06-04 14:52:30.888711
20.92919656,-0.5083824396,-1.311834455,-0.5394073725,2024-06-04 14:52:30.929197
20.96968917,-0.6167699099,-0.5897396207,-0.1676410437,2024-06-04 14:52:30.969689
21.01018896,-0.6287537813,-0.7411358953,-0.09240896255,2024-06-04 14:52:31.010189
21.05069183,-0.3589835167,-0.2344844192,-0.01198387146,2024-06-04 14:52:31.050692
21.09118677,-0.352858454,0.6083812118,0.2521939278,2024-06-04 14:52:31.091187
21.13164526,-0.3198362291,0.235949114,0.2218347788,2024-06-04 14:52:31.131645
21.17212672,-0.2402100414,0.07270215452,0.1760297567,2024-06-04 14:52:31.172127
21.21261901,-0.1568555683,-0.2944037914,0.08095771074,2024-06-04 14:52:31.212619
21.25311688,-0.08242240548,-0.3090507388,0.1501978636,2024-06-04 14:52:31.253117
21.29359667,-0.09001219273,-0.3356815577,0.1280942708,2024-06-04 14:52:31.293597
21.3340887,0.1133141592,-0.02050573565,0.1123820841,2024-06-04 14:52:31.334089
21.37462651,0.08162347972,-0.04420717061,0.07536523789,2024-06-04 14:52:31.374627
21.41511693,0.06644391268,0.05166380107,0.02716344222,2024-06-04 14:52:31.415117
21.4555725,0.153793022,-0.02849498391,0.03089175746,2024-06-04 14:52:31.455572
21.49602938,0.1814890802,-0.1213034093,0.09374050796,2024-06-04 14:52:31.496029
21.53651683,0.1716356725,-0.08947957307,0.06977276504,2024-06-04 14:52:31.536517
21.5769987,-0.04087831825,-0.3492632806,-0.04740286991,2024-06-04 14:52:31.576999
21.61748287,-0.112115778,-0.05033225939,-0.1703041345,2024-06-04 14:52:31.617483
21.65797104,-0.02170412242,0.3768261969,-0.09880036116,2024-06-04 14:52:31.657971
21.69845891,0.1468690038,-0.07722939551,0.06790860742,2024-06-04 14:52:31.698459
21.7389499,0.1620485783,-0.01251648832,0.1027949899,2024-06-04 14:52:31.738950
21.77944401,-0.08535179496,0.2276935577,0.1909430176,2024-06-04 14:52:31.779444
21.81994156,-0.02596505545,-0.04047885537,0.2703028917,2024-06-04 14:52:31.819942
21.86043198,-0.05951989442,0.1158440933,0.2167749256,2024-06-04 14:52:31.860432
21.90092464,-0.1723014414,0.07509893179,0.1840189993,2024-06-04 14:52:31.900925
21.94141485,-0.1440727711,0.434348762,0.08521863818,2024-06-04 14:52:31.941415
21.98188766,-0.05472634733,0.1059906855,-0.0149132628,2024-06-04 14:52:31.981888
22.02238479,-0.1059906855,-0.2451367527,-0.04926702753,2024-06-04 14:52:32.022385
22.06286183,-0.2335523367,-0.1961360276,-0.1065233052,2024-06-04 14:52:32.062862
22.10335797,-0.3278254569,-0.1407439113,-0.1364829838,2024-06-04 14:52:32.103358
22.14384651,-0.3725652397,-0.04154408723,-0.2880123854,2024-06-04 14:52:32.143847
22.18433016,-0.296667397,-0.1695052087,-0.3468665183,2024-06-04 14:52:32.184330
22.2248138,-0.2471340597,-0.1051917598,-0.1825543046,2024-06-04 14:52:32.224814
22.26528245,-0.1962691844,0.02742975019,-0.08628387749,2024-06-04 14:52:32.265282
22.30577214,0.264310956,-0.02849498391,0.002663082443,2024-06-04 14:52:32.305772
22.34629094,1.043129444,-0.1099853069,0.48468104,2024-06-04 14:52:32.346291
22.38679151,1.903571367,1.180011868,0.8059819341,2024-06-04 14:52:32.386792
22.4272774,1.806102633,1.372819066,1.201050282,2024-06-04 14:52:32.427277
22.46776339,1.774944544,0.9268859029,1.13633728,2024-06-04 14:52:32.467763
22.50824183,1.326081991,0.5639077425,1.055512786,2024-06-04 14:52:32.508242
22.54872651,0.9065132737,0.2205032408,1.11849463,2024-06-04 14:52:32.548727
22.58920261,0.7451304793,-1.018096447,1.208506823,2024-06-04 14:52:32.589203
22.6296762,0.7390053868,-1.857899547,0.6291532516,2024-06-04 14:52:32.629676
22.67019719,0.8266208172,-1.707967997,-0.01677742042,2024-06-04 14:52:32.670197
22.71068521,1.475480914,-1.10145092,-0.1125152409,2024-06-04 14:52:32.710685
22.75117599,1.554041862,-0.2834851444,0.340608269,2024-06-04 14:52:32.751176
22.7916475,1.115032673,-0.2105166763,0.4793548584,2024-06-04 14:52:32.791647
22.8321362,1.413697362,-0.1865489334,1.066431403,2024-06-04 14:52:32.832136
22.87260823,1.913691163,-0.1806901544,0.9900009632,2024-06-04 14:52:32.872608
22.91310558,1.693853617,-0.2794905007,0.7710955739,2024-06-04 14:52:32.913106
22.95359349,1.497584462,-0.5620435476,0.5535216928,2024-06-04 14:52:32.953593
22.99412922,1.100119352,-0.5801525116,0.3581846058,2024-06-04 14:52:32.994129
23.03462292,0.5509917736,-0.4619116783,0.1507304758,2024-06-04 14:52:33.034623
23.07502776,0.2539249361,-0.3766930401,-0.0074566314,2024-06-04 14:52:33.075028
23.1156174,0.5619103909,-0.2193048447,0.1507304758,2024-06-04 14:52:33.115617
23.15610526,1.360435724,-0.4121120274,0.4258269072,2024-06-04 14:52:33.156105
23.19659516,1.704772353,-0.889469564,0.3818860352,2024-06-04 14:52:33.196595
23.23702964,1.754971385,-0.7776201367,0.4026580751,2024-06-04 14:52:33.237030
23.27751511,1.550313473,-0.3399424851,0.2159759998,2024-06-04 14:52:33.277515
23.31800183,1.088135481,-0.4083836973,-0.09959928691,2024-06-04 14:52:33.318002
23.35847052,-0.1446053833,-0.1617822647,-0.1138467789,2024-06-04 14:52:33.358471
23.39898339,-1.685731292,0.65871346,-0.09027849883,2024-06-04 14:52:33.398983
23.43944917,-3.179321051,1.582936287,-0.2715012729,2024-06-04 14:52:33.439449
23.47995558,-4.043890953,2.740844488,-0.6744256616,2024-06-04 14:52:33.479956
23.52044422,-4.128843307,2.950562239,-1.138734102,2024-06-04 14:52:33.520444
23.56092573,-3.511673927,1.49851656,-1.997045636,2024-06-04 14:52:33.560926
23.60140365,-2.961880445,0.8123733401,-2.050307274,2024-06-04 14:52:33.601404
23.64188256,-2.095979214,-0.1679073572,-2.521939278,2024-06-04 14:52:33.641883
23.68237542,-1.481206536,-1.400648236,-3.132450819,2024-06-04 14:52:33.682375
23.72286292,-1.096257925,-1.034074903,-1.547384143,2024-06-04 14:52:33.722863
23.76336537,-1.87560904,-0.7143719196,-0.9067795873,2024-06-04 14:52:33.763365
23.80389506,-1.476413012,-0.1049254537,-0.273365438,2024-06-04 14:52:33.803895
23.84440032,-0.9931966662,0.5412715077,0.1174419373,2024-06-04 14:52:33.844400
23.88489506,-0.3512606025,1.328878164,0.4069190025,2024-06-04 14:52:33.884895
23.92525287,0.2723001838,1.45990181,0.3680379987,2024-06-04 14:52:33.925253
23.96574032,0.2949363887,0.5838808417,0.143540144,2024-06-04 14:52:33.965740
24.00629537,0.004926702939,0.1046591476,0.04713656008,2024-06-04 14:52:34.006295
24.04676453,-0.08921326697,-0.2075872868,0.002663082443,2024-06-04 14:52:34.046765
24.08725683,-0.6609770656,-0.7813484073,0.1784265339,2024-06-04 14:52:34.087257
24.12777058,-0.2647103965,-0.3215672076,0.1637795717,2024-06-04 14:52:34.127771
24.16825865,0.004660394508,1.295855999,0.04979964346,2024-06-04 14:52:34.168259
24.20873641,0.1170424819,0.6813496947,-0.01731003635,2024-06-04 14:52:34.208736
24.2492063,-0.02356828004,0.2242315561,0.01704372838,2024-06-04 14:52:34.249206
24.28969526,-0.1976007223,-0.05858781561,0.1062569916,2024-06-04 14:52:34.289695
24.33019438,-0.1914756298,-0.173233524,0.08015878499,2024-06-04 14:52:34.330194
24.37070287,-0.1059906855,0.1669752747,0.08921326697,2024-06-04 14:52:34.370703
24.41116276,-0.02463351376,0.2529928386,0.07909355313,2024-06-04 14:52:34.411163
24.45166292,0.02516612969,0.3930709958,0.006391398143,2024-06-04 14:52:34.451663
24.49213828,-0.05153064802,0.1928071827,0.004527240526,2024-06-04 14:52:34.492138
24.53263516,-0.1142462417,0.09161003679,0.03994623944,2024-06-04 14:52:34.532635
24.57315495,-0.05046541616,0.2316881865,0.0181089621,2024-06-04 14:52:34.573155
24.61364719,-0.0171768833,-0.05725627393,-0.03994623944,2024-06-04 14:52:34.613647
24.65411287,-0.1595186442,-0.2555227578,0.00186415785,2024-06-04 14:52:34.654113
24.69463016,-0.1227681041,-0.360714525,0.03941362351,2024-06-04 14:52:34.694630
24.73503568,-0.0467370972,-0.08548495173,0.05113118514,2024-06-04 14:52:34.735036
24.77552396,-0.09374050796,-0.243006289,0.003195699072,2024-06-04 14:52:34.775524
24.81604104,-0.08082455397,0.01304910425,0.03595161438,2024-06-04 14:52:34.816041
24.85656854,-0.2205032408,-0.2970668674,-0.007190322969,2024-06-04 14:52:34.856569
24.8970336,-0.1901440918,-0.4627105892,0.06577813625,2024-06-04 14:52:34.897034
24.93751042,-0.1794917583,-0.3481980562,0.08388710022,2024-06-04 14:52:34.937510
24.9780111,-0.04780233279,0.1083874628,0.12117026,2024-06-04 14:52:34.978011
25.01849761,-0.1882799417,0.01038602181,0.1978670359,2024-06-04 14:52:35.018498
25.05897464,-0.2242315561,0.3669727743,0.1520620137,2024-06-04 14:52:35.058975
25.09946584,-0.04513924941,0.3752283454,-0.03941362351,2024-06-04 14:52:35.099466
25.13995813,-0.07709623873,0.1432738453,-0.1260969639,2024-06-04 14:52:35.139958
25.18044636,-0.1438064575,0.3187709749,-0.2579195499,2024-06-04 14:52:35.180446
25.22093573,-0.2665745616,0.4069190025,-0.235283345,2024-06-04 14:52:35.220936
25.26141433,-0.270835489,0.489208281,-0.2568543255,2024-06-04 14:52:35.261414
25.30190245,-0.2034595013,0.1957365721,-0.2225005478,2024-06-04 14:52:35.301902
25.34240745,-0.2183727771,-0.0074566314,-0.1074553803,2024-06-04 14:52:35.342407
25.38288224,-0.2026605755,0.5098471642,0.0490007177,2024-06-04 14:52:35.382882
25.42335573,-0.1547250897,0.3137111366,-0.04633763805,2024-06-04 14:52:35.423356
25.46385,0.0685743764,0.2141118348,-0.1191729456,2024-06-04 14:52:35.463850
25.50436656,0.07549838722,-0.2001306564,-0.04926702753,2024-06-04 14:52:35.504367
25.54483334,0.1921414137,-0.2435389012,-0.07962616533,2024-06-04 14:52:35.544833
25.58532412,0.1482005417,0.07536523789,0.03328853101,2024-06-04 14:52:35.585324
25.62582813,-0.06191666797,-0.2062557489,0.09587097168,2024-06-04 14:52:35.625828
25.66633735,-0.05951989442,-0.5181027055,-0.08362079412,2024-06-04 14:52:35.666337
25.70682563,0.0006657706108,-0.1705704331,-0.2201037705,2024-06-04 14:52:35.706826
25.74728459,-0.2284924835,-0.265642494,-0.09453943372,2024-06-04 14:52:35.747285
25.78775782,0.04487293959,-0.7488588095,-0.2150439173,2024-06-04 14:52:35.787758
25.82824386,0.2802894413,-0.3892095089,-0.2776263654,2024-06-04 14:52:35.828244
25.86870521,0.2983984053,0.8155690432,-0.05858781561,2024-06-04 14:52:35.868705
25.90921896,0.7456631064,1.291062474,0.1238333359,2024-06-04 14:52:35.909219
25.94970735,0.8117075562,0.2263620198,0.1272953451,2024-06-04 14:52:35.949707
25.99018339,0.764038384,-0.5279561281,0.2370143533,2024-06-04 14:52:35.990183
26.03066948,0.5603125691,0.1707035899,0.288944453,2024-06-04 14:52:36.030669
26.07117776,0.2792242169,-0.4446016252,0.137681365,2024-06-04 14:52:36.071178
26.11166667,0.2693707943,-0.4957328141,-0.1700378209,2024-06-04 14:52:36.111667
26.15214938,-0.3363473415,-1.451513171,-0.06897383928,2024-06-04 14:52:36.152149
26.19258297,1.065765619,0.3203688264,0.07483261824,2024-06-04 14:52:36.192583
26.23310052,-1.048588753,-2.675199509,0.5106461048,2024-06-04 14:52:36.233101
26.27360985,0.09600412846,-0.04713656008,-0.2608489394,2024-06-04 14:52:36.273610
26.31416839,0.3636439145,-0.9216928482,-0.1700378209,2024-06-04 14:52:36.314168
26.35459578,0.9576444626,-1.744452238,-0.277892679,2024-06-04 14:52:36.354596
26.39500985,0.1599181145,-0.6746919751,0.1922745556,2024-06-04 14:52:36.395010
26.4355275,0.4581833482,-0.160983339,0.4777570069,2024-06-04 14:52:36.435527
26.47601412,0.4139761925,-1.218093991,0.3366136253,2024-06-04 14:52:36.476014
26.51650084,0.5826824903,-1.0947932,0.2045247406,2024-06-04 14:52:36.516501
26.557025,0.3780245781,-0.8423330188,0.1629806459,2024-06-04 14:52:36.557025
26.59752271,0.6178351641,-1.131011128,0.07749570161,2024-06-04 14:52:36.597523
26.63800229,0.2326202542,-1.393724203,-0.03515268862,2024-06-04 14:52:36.638002
26.6784824,0.1391460598,-1.262833714,-0.2715012729,2024-06-04 14:52:36.678482
26.71897037,0.2560553849,-1.070026517,-0.3495295942,2024-06-04 14:52:36.718970
26.75946219,0.03874785081,-0.8689638376,-0.4560528994,2024-06-04 14:52:36.759462
26.79995021,-0.1776276082,0.3430050313,-0.1985328048,2024-06-04 14:52:36.799950
26.84042229,-0.4154408872,0.6334142089,-0.07403369248,2024-06-04 14:52:36.840422
26.88094683,-0.1792254597,0.009853405878,-0.2392779738,2024-06-04 14:52:36.880947
26.92139703,-0.1350182891,0.3240971565,-0.2131797522,2024-06-04 14:52:36.921397
26.96188469,-0.04247616604,-0.2326202542,-0.2206363827,2024-06-04 14:52:36.961885
27.00238641,0.01105179265,-0.8356752992,-0.1362166703,2024-06-04 14:52:37.002386
27.04288698,0.1998643428,-0.853251636,-0.09400681406,2024-06-04 14:52:37.042887
27.08334906,0.4933360517,-0.5633751154,0.1406107545,2024-06-04 14:52:37.083349
27.12383761,1.077216864,-0.4427374899,0.3784240186,2024-06-04 14:52:37.123838
27.16439745,1.367359757,-0.5388747454,0.5207657814,2024-06-04 14:52:37.164397
27.2048862,1.383071899,-0.3135779798,0.6017234921,2024-06-04 14:52:37.204886
27.24525667,1.247787356,0.2175738513,0.8943963051,2024-06-04 14:52:37.245257
27.28574537,0.663906455,-0.5340812206,0.9223586321,2024-06-04 14:52:37.285745
27.32626188,0.3631113172,-1.142462373,0.9655005932,2024-06-04 14:52:37.326262
27.36676756,0.4896077216,-1.664559722,0.8358084559,2024-06-04 14:52:37.366768
27.40726547,0.6825480461,-1.797713876,0.5167711973,2024-06-04 14:52:37.407265
27.44775818,0.4296883643,-1.131011128,0.3651086092,2024-06-04 14:52:37.447758
27.4882436,0.132488355,-0.4800206423,0.1065233052,2024-06-04 14:52:37.488244
27.52873313,0.07869409025,-0.2091851383,-0.2145113051,2024-06-04 14:52:37.528733
27.56922313,0.123167567,-0.1591191888,-0.4073184729,2024-06-04 14:52:37.569223
27.60971391,0.0243672058,-0.239810586,-0.4765586257,2024-06-04 14:52:37.609714
27.65019131,-0.1107842326,-0.365241766,-0.2912080884,2024-06-04 14:52:37.650191
27.69068698,-0.4780233204,-0.2408758104,-0.04127778113,2024-06-04 14:52:37.690687
27.73117683,-0.5166380405,0.02316881903,0.1547250897,2024-06-04 14:52:37.731177
27.77167422,-0.297998935,-0.0705716908,0.1113168523,2024-06-04 14:52:37.771674
27.81216245,-0.1683068126,-0.354855746,-0.3481980562,2024-06-04 14:52:37.812162
27.85262854,0.3045234978,-0.1452711523,-0.1223686412,2024-06-04 14:52:37.852629
27.89311995,-1.042996287,-0.07722939551,-0.09400681406,2024-06-04 14:52:37.893120
27.93361917,-1.002783775,0.7758890986,-0.1652442664,2024-06-04 14:52:37.933619
27.97411797,-0.2870802879,0.7857425213,0.1659100503,2024-06-04 14:52:37.974118
28.01460917,-0.3834838867,0.1171756312,0.1568555683,2024-06-04 14:52:38.014609
28.05507433,-0.469235152,0.6757571697,-0.1316894293,2024-06-04 14:52:38.055074
28.09557677,-0.4481967986,0.3957340717,-0.2571206093,2024-06-04 14:52:38.095577
28.13602646,-0.2394111156,0.1565892547,-0.1916087866,2024-06-04 14:52:38.136026
28.17649875,-0.1712362021,-0.2366148829,-0.1902772486,2024-06-04 14:52:38.176499
28.2170112,0.1061238423,0.1339530498,-0.3479317427,2024-06-04 14:52:38.217011
28.25751948,-0.08921326697,0.321167767,-0.07456631213,2024-06-04 14:52:38.257519
28.29800693,-0.7655031085,0.05698996782,-0.1916087866,2024-06-04 14:52:38.298007
28.33849136,-0.3944025338,0.8043841124,-0.1785596907,2024-06-04 14:52:38.338491
28.37897849,-0.3816197217,0.5319507122,0.1169093251,2024-06-04 14:52:38.378978
28.41945511,0.129292652,0.02716344222,0.07776200771,2024-06-04 14:52:38.419455
28.45993979,0.3758940995,-1.060705781,-0.02396774292,2024-06-04 14:52:38.459940
28.50043172,0.5651060939,-1.158440948,0.1145125479,2024-06-04 14:52:38.500432
28.54092808,-0.1035939083,0.2769605815,0.2561885417,2024-06-04 14:52:38.540928
28.58142641,-0.3299559355,0.3267602324,0.04713656008,2024-06-04 14:52:38.581426
28.62191344,-0.01105179265,0.2197043151,-0.1268958896,2024-06-04 14:52:38.621913
28.66238594,0.123167567,-0.7563154697,0.0,2024-06-04 14:52:38.662386
28.70289391,-0.03262276202,-1.058308959,0.04447348043,2024-06-04 14:52:38.702894
28.74337948,-0.04194355011,-0.6033213735,0.04687025398,2024-06-04 14:52:38.743379
28.78388422,-0.01824211515,-0.4078511,0.06338136643,2024-06-04 14:52:38.783884
28.82438604,-0.1217028722,0.4625774324,0.0926752761,2024-06-04 14:52:38.824386
28.86484849,-0.04434032366,0.2529928386,0.1019960642,2024-06-04 14:52:38.864848
28.90528625,-0.1185071766,-0.1282274276,0.05485950038,2024-06-04 14:52:38.905286
28.94575495,-0.00599193573,-0.4027912319,0.08655018359,2024-06-04 14:52:38.945755
28.98624256,0.06697652489,-0.2424736619,0.07616416365,2024-06-04 14:52:38.986243
29.02676516,0.07390054315,0.2063889056,0.05805519968,2024-06-04 14:52:39.026765
29.06727532,0.2446041405,0.287612915,0.1094526947,2024-06-04 14:52:39.067275
29.10775229,0.06005251035,0.4756265581,0.2665745616,2024-06-04 14:52:39.107752
29.14824448,-0.08135717362,0.7247579098,0.3235645294,2024-06-04 14:52:39.148244
29.18873229,0.2118482143,0.0820229426,-0.03754946589,2024-06-04 14:52:39.188732
29.22923386,0.1604507267,-0.1862826198,-0.112781547,2024-06-04 14:52:39.229234
29.26970094,0.04354140162,0.2892107666,-0.01038602181,2024-06-04 14:52:39.269701
29.31019235,0.1247654185,0.1579207927,0.001597849536,2024-06-04 14:52:39.310192
29.3507374,0.2983984053,-0.3625786901,-0.1223686412,2024-06-04 14:52:39.350737
29.39118021,0.3481980562,-0.6083812118,-0.1708367467,2024-06-04 14:52:39.391180
29.43166032,0.382019192,-0.6110442877,-0.1820216924,2024-06-04 14:52:39.431660
29.47214104,0.3836170435,-0.3127790391,-0.1972012669,2024-06-04 14:52:39.472141
29.51262896,0.4621779919,-0.1838858575,-0.1857500076,2024-06-04 14:52:39.512629
29.5531262,0.3892095089,-0.1420754492,-0.2403431982,2024-06-04 14:52:39.553126
29.59359756,0.3274259865,-0.2158428431,-0.2595174015,2024-06-04 14:52:39.593598
29.63412646,0.4448679388,-0.3463338912,-0.2973331809,2024-06-04 14:52:39.634126
29.67465016,0.4254274368,-0.6669690013,-0.3420729637,2024-06-04 14:52:39.674650
29.71506969,0.4294220507,-1.141130924,-0.4251611233,2024-06-04 14:52:39.715070
29.75555849,0.3918725848,-1.091863871,-0.4744281471,2024-06-04 14:52:39.755558
29.79604724,0.3745625615,-1.084673524,-0.5628424883,2024-06-04 14:52:39.796047
29.83650198,0.7051842809,-0.7061163187,-0.4379439354,2024-06-04 14:52:39.836502
29.87704521,1.125418663,-0.855914712,-0.168706283,2024-06-04 14:52:39.877045
29.91752594,1.580406308,-0.6493926644,0.2396774292,2024-06-04 14:52:39.917526
29.95801474,1.50557375,0.5034557581,1.116896868,2024-06-04 14:52:39.958015
29.99847276,1.224085927,0.4351477027,1.499049187,2024-06-04 14:52:39.998473
30.03897537,5.032560349,-4.967447758,0.7982590199,2024-06-04 14:52:40.038975
30.07948422,1.025819421,-1.546318889,1.211169958,2024-06-04 14:52:40.079484
30.11996396,-1.764558554,2.034195662,2.155632257,2024-06-04 14:52:40.119964
30.16042995,-1.846847773,1.568821907,2.220078707,2024-06-04 14:52:40.160430
30.20091729,-1.295722842,-1.164832354,1.971080542,2024-06-04 14:52:40.200917
30.24141953,-0.9849410653,-2.090519905,0.8664339185,2024-06-04 14:52:40.241420
30.28189552,0.4866783321,-3.489703417,0.321167767,2024-06-04 14:52:40.281896
30.32238792,0.6191666722,-2.780125141,0.3810871243,2024-06-04 14:52:40.322388
30.36290485,-0.5296871066,-1.524747968,0.5766905546,2024-06-04 14:52:40.362905
30.40335901,-0.7961285114,-1.131277442,0.6962629557,2024-06-04 14:52:40.403359
30.44386802,0.2406095117,-1.968018055,0.03861469775,2024-06-04 14:52:40.443868
30.48439047,-0.1006645188,-1.575080156,-0.5537880063,2024-06-04 14:52:40.484390
30.524885,-0.5232957006,-0.3700353205,-0.5223636627,2024-06-04 14:52:40.524885
30.56526094,-0.3877448142,0.0410114713,-0.5476629138,2024-06-04 14:52:40.565261
30.60582266,-0.9143694043,-0.4368786812,-0.6137073636,2024-06-04 14:52:40.605823
30.64631125,-0.7553833723,-0.1926740259,-0.4699009061,2024-06-04 14:52:40.646311
30.68680302,-0.5187684894,-0.0146469539,-0.8676322699,2024-06-04 14:52:40.686803
30.72728834,-0.2455362082,-0.5228962898,-1.57534647,2024-06-04 14:52:40.727288
30.76776886,-0.9545819163,-0.162847504,-0.3247629106,2024-06-04 14:52:40.767769
30.80825407,-0.2918738425,0.475093931,0.8536511064,2024-06-04 14:52:40.808254
30.8487461,-0.2231663167,-2.022344828,0.7487256527,2024-06-04 14:52:40.848746
30.88922927,-0.3741630912,-2.272674561,0.5524564981,2024-06-04 14:52:40.889229
30.92970453,-0.6822817326,-1.126750231,0.3203688264,2024-06-04 14:52:40.929705
30.97019714,-0.7228937745,-0.3319532275,0.1837527007,2024-06-04 14:52:40.970197
31.01069344,-0.6372756362,-1.070825458,-0.2619141638,2024-06-04 14:52:41.010693
31.05118308,-0.7071815729,-0.524227798,-0.3660407066,2024-06-04 14:52:41.051183
31.09166021,-0.7511224151,-0.2246310115,-0.3244965971,2024-06-04 14:52:41.091660
31.1321687,-0.3643096983,-0.6235607862,-0.4629769027,2024-06-04 14:52:41.132169
31.17265912,-0.02942706272,-0.9435301423,-0.5950657725,2024-06-04 14:52:41.172659
31.21313792,0.577888906,-1.112369537,-0.3332847953,2024-06-04 14:52:41.213138
31.25360209,1.603042603,-1.007444143,0.2058562785,2024-06-04 14:52:41.253602
31.2940999,2.553762913,-0.7501903772,0.3853480518,2024-06-04 14:52:41.294100
31.33462594,2.579062223,0.3459344208,0.5204994678,2024-06-04 14:52:41.334626
31.37508677,2.044981003,0.8741568327,0.7758890986,2024-06-04 14:52:41.375087
31.41553662,1.534068704,-0.3157084286,0.8579120636,2024-06-04 14:52:41.415537
31.45602599,0.7531197667,-2.385323048,1.39092803,2024-06-04 14:52:41.456026
31.49651391,1.327147245,-3.100227594,1.723413825,2024-06-04 14:52:41.496514
31.53700188,1.925675035,-3.071998835,0.836341083,2024-06-04 14:52:41.537002
31.57750714,0.7496577501,-2.347773552,0.4971975088,2024-06-04 14:52:41.577507
31.61800261,-0.4636426866,-1.066830873,0.2343512625,2024-06-04 14:52:41.618003
31.65848901,-1.059773684,-0.6672353148,-0.06178351492,2024-06-04 14:52:41.658489
31.6989762,-0.666303277,-1.241262794,-0.3226324618,2024-06-04 14:52:41.698976
31.73946542,0.6266233325,-1.535133958,0.2764279842,2024-06-04 14:52:41.739465
31.77995849,-0.3962666988,-0.3753614724,0.4103810191,2024-06-04 14:52:41.779958
31.8204512,0.6652380228,1.48892951,-0.273365438,2024-06-04 14:52:41.820451
31.86094828,-0.1059906855,1.615159631,0.1355509013,2024-06-04 14:52:41.860948
31.90143297,-1.147921681,0.5415378213,-0.6033213735,2024-06-04 14:52:41.901433
31.94191709,-1.079214215,0.997990191,-2.104367733,2024-06-04 14:52:41.941917
31.98242959,-1.689992189,-0.3814865649,-1.270290375,2024-06-04 14:52:41.982430
32.0229262,-2.656691074,-1.795317054,0.1315562725,2024-06-04 14:52:42.022926
32.06337599,-1.380275726,2.024874926,0.7055837512,2024-06-04 14:52:42.063376
32.10384401,-1.533136606,1.671616912,0.6810833812,2024-06-04 14:52:42.103844
32.14435756,-0.9814790487,0.9031844735,-0.1489994675,2024-06-04 14:52:42.144358
32.18485891,-1.646317601,-0.8497896194,-0.9440627694,2024-06-04 14:52:42.184859
32.22530115,-1.172422051,-1.853638649,-0.6451317668,2024-06-04 14:52:42.225301
32.2657663,-0.266308248,1.813958645,-0.1093195379,2024-06-04 14:52:42.265766
32.30625438,-0.00599193573,-0.3133116663,-0.06817491353,2024-06-04 14:52:42.306254
32.34684787,1.005846262,-0.4118457139,0.2644441128,2024-06-04 14:52:42.346848
32.38729365,2.582790613,-0.3596493006,0.8339443207,2024-06-04 14:52:42.387294
32.42778542,2.969869614,-0.403323859,0.6850779653,2024-06-04 14:52:42.427785
32.46826375,2.444044113,1.533935547,0.9905335307,2024-06-04 14:52:42.468264
32.5087624,1.482937574,-0.05379426852,0.9228912592,2024-06-04 14:52:42.508762
32.54924089,1.642456174,-1.609433889,0.9662995338,2024-06-04 14:52:42.549241
32.58973568,1.502111673,-2.365350008,0.8435314298,2024-06-04 14:52:42.589736
32.63020558,1.182808161,-3.595694065,0.9796149135,2024-06-04 14:52:42.630206
32.67068604,0.7496577501,-2.737782001,0.5721632838,2024-06-04 14:52:42.670686
32.71117365,-0.5251598954,-1.185604334,-0.1189066395,2024-06-04 14:52:42.711174
32.75166229,-1.429276466,-0.7874734998,-0.4632432163,2024-06-04 14:52:42.751662
32.79214203,0.02143781446,-1.38014257,0.01944050193,2024-06-04 14:52:42.792142
32.83265433,0.5944000483,-0.8780183196,0.9697614908,2024-06-04 14:52:42.832654
32.87313599,-0.5632419586,0.7327471375,0.2141118348,2024-06-04 14:52:42.873136
32.91363011,1.222488046,2.293313503,-0.1298252791,2024-06-04 14:52:42.913630
32.95411771,-1.004381537,-1.31742692,0.02050573565,2024-06-04 14:52:42.954118
32.99463177,-1.939922452,-0.8649691939,-1.191729426,2024-06-04 14:52:42.994632
33.03511938,-1.161237121,2.177469492,-1.905302405,2024-06-04 14:52:43.035119
33.07553802,-3.201690912,2.117017508,-0.7475273013,2024-06-04 14:52:43.075538
33.11600979,-2.679060936,0.5284887552,0.2617810071,2024-06-04 14:52:43.116010
33.15649719,-1.325682521,1.749512076,0.5271571875,2024-06-04 14:52:43.156497
33.19698349,-1.396254182,1.256974936,0.2665745616,2024-06-04 14:52:43.196983
33.2375286,-1.271222472,0.04367455468,-0.5492607951,2024-06-04 14:52:43.237529
33.27802391,-1.528343081,-0.4272916019,-0.6414034367,2024-06-04 14:52:43.278024
33.31852084,-0.5683017969,1.26549685,-0.2299571782,2024-06-04 14:52:43.318521
33.35897047,-0.1888125539,-0.09054480493,-0.1041265279,2024-06-04 14:52:43.358970
33.39946354,0.6689663529,-0.4696346223,0.1483336985,2024-06-04 14:52:43.399464
33.43995771,1.946713328,0.3632444739,1.094926357,2024-06-04 14:52:43.439958
33.48046672,3.035914183,0.5905385613,0.8587109447,2024-06-04 14:52:43.480467
33.5209575,2.506626368,1.20690906,0.8107754588,2024-06-04 14:52:43.520958
33.56142776,1.726343274,0.7138392925,0.9487231374,2024-06-04 14:52:43.561428
33.60191271,1.671217442,-0.6395393014,0.8507217169,2024-06-04 14:52:43.601913
33.64240032,1.427279115,-1.906900287,0.8355421424,2024-06-04 14:52:43.642400
33.68288063,1.472817779,-3.46546936,1.064034581,2024-06-04 14:52:43.682881
33.72336849,1.448583722,-2.999296665,0.3491301239,2024-06-04 14:52:43.723368
33.76385677,-0.1696383655,-1.194126248,0.02503297664,2024-06-04 14:52:43.763857
33.80436969,-1.487597942,-0.5929353237,-0.1716356725,2024-06-04 14:52:43.804370
33.84489276,-0.2205032408,-1.254578233,-0.1019960642,2024-06-04 14:52:43.844893
33.88538063,0.9168993235,-1.05697751,0.7260894775,2024-06-04 14:52:43.885381
33.92586844,-0.5267577171,0.7311493158,0.3856143653,2024-06-04 14:52:43.925868
33.96627599,0.7656362653,3.111945152,0.1062569916,2024-06-04 14:52:43.966276
34.00677073,-1.091198087,-0.5836145282,-0.1758965999,2024-06-04 14:52:44.006771
34.04727292,-1.76722157,0.6259575486,-1.711962581,2024-06-04 14:52:44.047273
34.08775683,-1.576012254,1.982531786,-2.440981388,2024-06-04 14:52:44.087757
34.12824677,-1.941786647,1.005180478,-0.6648385525,2024-06-04 14:52:44.128247
34.16875891,-4.139761925,-1.740457654,0.08921326697,2024-06-04 14:52:44.168759
34.20923818,-1.217161894,3.170000315,0.5109124184,2024-06-04 14:52:44.209238
34.24971354,-1.559767485,1.66629076,0.003462007269,2024-06-04 14:52:44.249714
34.29020854,-1.817820191,-0.4307536185,-0.5878754854,2024-06-04 14:52:44.290209
34.33069782,-1.042996287,0.3169068098,-0.4557865858,2024-06-04 14:52:44.330698
34.37119677,-0.4665720761,0.4476641715,-0.03248960897,2024-06-04 14:52:44.371197
34.41167209,0.1750976741,-0.3074528873,-0.08255556226,2024-06-04 14:52:44.411672
34.4521486,1.422751904,-0.471232444,0.7236927152,2024-06-04 14:52:44.452149
34.49264297,3.08624649,-0.08122401685,1.246588945,2024-06-04 14:52:44.492643
34.5331436,2.809951544,0.04607132822,0.781481564,2024-06-04 14:52:44.533144
34.57362724,2.622470617,1.069360852,0.8690969944,2024-06-04 14:52:44.573627
34.61413709,1.72900641,-0.2158428431,0.8485912681,2024-06-04 14:52:44.614137
34.6546362,1.935262084,-0.6480611563,0.5993267298,2024-06-04 14:52:44.654636
34.6950974,1.435002089,-2.523270607,0.7545844316,2024-06-04 14:52:44.695097
34.7355175,1.473084092,-3.176258564,0.6959966421,2024-06-04 14:52:44.735518
34.77603417,0.3311543167,-2.072410822,0.1219691783,2024-06-04 14:52:44.776034
34.81655849,-1.115432143,-1.169892192,-0.3937367499,2024-06-04 14:52:44.816558
34.85703823,-0.03928046674,-1.19865346,-0.5868102312,2024-06-04 14:52:44.857038
34.8975113,0.9701609612,-1.350049734,0.6145063043,2024-06-04 14:52:44.897511
34.93795474,-0.1872147024,0.7740249634,0.06231613085,2024-06-04 14:52:44.937955
34.978485,-0.9969249368,2.504362822,-0.813039124,2024-06-04 14:52:44.978485
35.01899479,-0.4836157858,0.9673647285,-0.8700290918,2024-06-04 14:52:45.018995
35.05949641,-1.287467241,0.3240971565,-0.5007926822,2024-06-04 14:52:45.059496
35.09997313,-1.591990709,1.891720653,-1.210637331,2024-06-04 14:52:45.099973
35.14044599,-2.12980032,1.50890255,-0.585478723,2024-06-04 14:52:45.140446
35.18093063,-3.988765001,-1.650445461,0.1366161406,2024-06-04 14:52:45.180931
35.22143256,-2.258693457,1.52381587,0.4998605847,2024-06-04 14:52:45.221433
35.26191906,-1.642589331,3.301822901,0.2468677461,2024-06-04 14:52:45.261919
35.30240615,-1.85110867,-0.6075822711,-0.6509905457,2024-06-04 14:52:45.302406
35.34291318,-0.7671009302,1.398917317,-0.3756277859,2024-06-04 14:52:45.342913
35.38338558,-0.1003982127,0.2726996541,-0.1529940963,2024-06-04 14:52:45.383386
35.42387901,0.535279572,-0.221701622,0.1169093251,2024-06-04 14:52:45.423879
35.4643911,2.004235983,-0.07749570161,0.9346088171,2024-06-04 14:52:45.464391
35.50485834,3.195698977,-0.2896102369,1.427678585,2024-06-04 14:52:45.504858
35.54530396,2.794239283,0.3856143653,0.7825468183,2024-06-04 14:52:45.545304
35.58577756,1.782933831,0.9428643584,0.9348751307,2024-06-04 14:52:45.585778
35.62630943,1.388398051,0.5556522012,0.988935709,2024-06-04 14:52:45.626309
35.66679563,1.26802671,-0.9706935883,0.875754714,2024-06-04 14:52:45.666796
35.70728344,0.8141043186,-3.566666365,1.113434792,2024-06-04 14:52:45.707283
35.74777448,1.205178022,-3.604748487,0.5271571875,2024-06-04 14:52:45.747774
35.78826797,0.04860125855,-2.733254671,0.0820229426,2024-06-04 14:52:45.788268
35.82874568,-1.06696403,-1.623548269,-0.5508586168,2024-06-04 14:52:45.828746
35.8692399,1.04872191,-1.555107117,0.1587197185,2024-06-04 14:52:45.869240
35.90974735,0.6362104416,-1.155245185,0.8315475583,2024-06-04 14:52:45.909747
35.95023516,-1.051251888,1.346188188,0.1941387206,2024-06-04 14:52:45.950235
35.99069776,0.9073122144,2.854558229,-0.1993317306,2024-06-04 14:52:45.990698
36.03124276,-1.241928577,-1.364696622,0.1267627329,2024-06-04 14:52:46.031243
36.07165344,-1.844450951,0.2428731322,-1.182675004,2024-06-04 14:52:46.071653
36.11217448,-1.697715163,2.525401115,-2.239652395,2024-06-04 14:52:46.112174
36.15264375,-3.082518101,0.01225017942,-0.1003982127,2024-06-04 14:52:46.152644
36.19313151,-3.686372042,-0.1171756312,0.1983996481,2024-06-04 14:52:46.193132
36.2336325,-1.355509043,3.328453779,0.5817503929,2024-06-04 14:52:46.233632
36.27415688,-1.256042838,1.633268476,-0.2818872929,2024-06-04 14:52:46.274157
36.31463417,-1.628474951,-0.7970606089,-0.8588441014,2024-06-04 14:52:46.314634
36.35508037,-1.002251148,0.5146406889,-0.3521926701,2024-06-04 14:52:46.355080
36.39556808,-0.4412727654,0.3022598624,0.09081111848,2024-06-04 14:52:46.395568
36.43603328,0.5154396296,-0.1916087866,0.2090519816,2024-06-04 14:52:46.436033
36.47652094,1.975474596,0.3336842358,1.136070967,2024-06-04 14:52:46.476521
36.51705516,3.190639257,-0.176429227,1.319024801,2024-06-04 14:52:46.517055
36.55753578,2.634454489,0.7010564804,0.7551170588,2024-06-04 14:52:46.557536
36.59802881,2.054834604,1.914356947,0.8400694132,2024-06-04 14:52:46.598029
36.63852641,1.298652172,-0.1980001926,0.8501890898,2024-06-04 14:52:46.638526
36.67899375,1.665358663,-1.389729619,0.7500572205,2024-06-04 14:52:46.678994
36.71948167,1.454708815,-3.548291206,0.8150364161,2024-06-04 14:52:46.719482
36.75998657,1.398251534,-2.355496407,0.1339530498,2024-06-04 14:52:46.759987
36.80045433,-0.3038577139,-1.353511691,-0.1098521575,2024-06-04 14:52:46.800454
36.84096068,-1.480407596,-1.301981091,-0.3982639909,2024-06-04 14:52:46.840961
36.88146172,0.6042534113,-1.297187567,-0.08921326697,2024-06-04 14:52:46.881462
36.9219011,0.9813459516,-1.327280402,0.4442021847,2024-06-04 14:52:46.921901
36.96238896,-0.3339505494,1.703573942,-0.5165048838,2024-06-04 14:52:46.962389
37.00290094,-0.02623136342,2.559488535,-0.1870815456,2024-06-04 14:52:47.002901
37.04337854,-1.634067416,0.6395393014,-0.3633776009,2024-06-04 14:52:47.043379
37.08385907,-1.829804063,1.162169218,-1.562563658,2024-06-04 14:52:47.083859
37.12442688,-1.513962388,1.879736781,-1.686929703,2024-06-04 14:52:47.124427
37.16489547,-4.324846268,-1.679206729,-0.118640326,2024-06-04 14:52:47.164895
37.20538412,-2.043250084,1.814757586,0.2993304729,2024-06-04 14:52:47.205384
37.24583011,-1.74644959,2.342713833,0.4481967986,2024-06-04 14:52:47.245830
37.28627188,-1.654573202,1.032610297,-0.2571206093,2024-06-04 14:52:47.286272
37.32678761,-1.887859225,-1.186669588,-0.7315487862,2024-06-04 14:52:47.326788
37.36731865,-0.5011921525,1.772148252,-0.138347134,2024-06-04 14:52:47.367319
37.40778084,0.06457975507,0.1145125479,0.1217028722,2024-06-04 14:52:47.407781
37.44827318,1.273619175,-0.2038589716,0.5910711884,2024-06-04 14:52:47.448273
37.48878011,2.964010954,0.2985315621,1.377079964,2024-06-04 14:52:47.488780
37.52925782,2.982119799,-0.2019948065,0.9399349689,2024-06-04 14:52:47.529258
37.56972386,2.483457565,0.7492582798,0.8515206575,2024-06-04 14:52:47.569724
37.61022063,1.469888449,0.8943963051,1.163500786,2024-06-04 14:52:47.610221
37.65071886,1.566292048,-0.9227581024,0.9348751307,2024-06-04 14:52:47.650719
37.69121448,1.054048061,-3.487040281,1.277480721,2024-06-04 14:52:47.691214
37.73169297,1.843918324,-3.901282787,0.5633751154,2024-06-04 14:52:47.731693
37.77217177,0.535279572,-2.477199316,0.06657706201,2024-06-04 14:52:47.772172
37.81266729,-0.994794488,-1.028482437,-0.2858819067,2024-06-04 14:52:47.812667
37.8531324,-0.8507217169,-1.014101863,-0.5620435476,2024-06-04 14:52:47.853132
37.89362183,1.427811742,-1.341261506,0.8107754588,2024-06-04 14:52:47.893622
37.93410735,-0.1430075318,0.2058562785,0.2641777992,2024-06-04 14:52:47.934107
37.97458563,-0.04540555924,3.565335035,-0.2485987544,2024-06-04 14:52:47.974586
38.0150887,-0.5925358534,0.1240996495,0.06604444981,2024-06-04 14:52:48.015089
38.05555479,-1.893984318,-0.3042571843,-0.7789516449,2024-06-04 14:52:48.055555
38.09604292,-1.75683558,1.365096092,-1.958430886,2024-06-04 14:52:48.096043
38.13653104,-1.545386791,1.854703903,-0.6451317668,2024-06-04 14:52:48.136531
38.17701516,-4.528172493,-1.803306341,0.1813559234,2024-06-04 14:52:48.177015
38.21752021,-2.020347595,2.597836971,0.3901416063,2024-06-04 14:52:48.217520
38.25802156,-1.211835742,3.020335197,-0.0181089621,2024-06-04 14:52:48.258022
38.29853089,-1.287999868,0.5591141582,-0.7312824726,2024-06-04 14:52:48.298531
38.33900308,-1.759232283,-0.984541595,-0.5958647132,2024-06-04 14:52:48.339003
38.37949542,-0.2412752807,1.587729812,-0.01358172111,2024-06-04 14:52:48.379495
38.42000521,-0.01105179265,-0.4736292362,-0.02796236612,2024-06-04 14:52:48.420005
38.46047256,1.305576205,-0.2627131045,0.5431357026,2024-06-04 14:52:48.460473
38.50095125,3.144567966,0.6200987697,1.17415309,2024-06-04 14:52:48.500951
38.54144688,2.87200141,-0.5830819011,1.036072254,2024-06-04 14:52:48.541447
38.58194542,2.757755041,1.181876063,1.068295598,2024-06-04 14:52:48.581945
38.6224336,1.62434721,0.31024912,0.9492557645,2024-06-04 14:52:48.622434
38.66290834,1.689859033,-1.253512979,0.7087793946,2024-06-04 14:52:48.662908
38.7034063,1.315163374,-2.098775387,0.698659718,2024-06-04 14:52:48.703406
38.74389849,0.8455287218,-2.71168375,0.9276847839,2024-06-04 14:52:48.743898
38.78439927,0.1412765235,-1.710098505,-0.1761629134,2024-06-04 14:52:48.784399
38.82486156,-0.925021708,-1.984529138,-0.855914712,2024-06-04 14:52:48.824862
38.86531693,0.499727428,-1.555639625,-0.3330184817,2024-06-04 14:52:48.865317
38.90583089,0.7379401922,-1.514095545,0.4197018147,2024-06-04 14:52:48.905831
38.94633547,-0.1155777797,0.9210271239,-0.1247654185,2024-06-04 14:52:48.946335
38.98681141,0.04620448127,3.264806032,-0.3585840762,2024-06-04 14:52:48.986811
39.02729146,-0.9423317909,0.4862788618,0.1981333494,2024-06-04 14:52:49.027291
39.06781323,-1.601577878,-0.5708317757,-0.969628334,2024-06-04 14:52:49.067813
39.1082711,-1.639393568,1.329943419,-1.985328078,2024-06-04 14:52:49.108271
39.1487575,-2.836182833,-1.013036609,0.2063889056,2024-06-04 14:52:49.148758
39.18919058,-2.603163242,0.1872147024,0.55778265,2024-06-04 14:52:49.189191
39.22973662,-1.635665298,2.375469685,0.3557878435,2024-06-04 14:52:49.229737
39.27022584,-1.328878164,0.9649679661,-0.2163754553,2024-06-04 14:52:49.270226
39.31070672,-1.448184252,-0.5426030755,-0.8889369369,2024-06-04 14:52:49.310707
39.35124631,-1.303445816,-0.1950708032,-0.502923131,2024-06-04 14:52:49.351246
39.39169594,-0.304390341,1.039001703,-0.1001319066,2024-06-04 14:52:49.391696
39.43220084,0.147401616,0.1382139921,0.02636451647,2024-06-04 14:52:49.432201
39.47267396,1.352180123,0.05752258375,0.5955983996,2024-06-04 14:52:49.472674
39.51317646,3.048963308,0.4207670391,1.165631294,2024-06-04 14:52:49.513176
39.5536674,2.811283112,-0.22303316,0.9628375173,2024-06-04 14:52:49.553667
39.59420808,2.226070642,1.385335565,0.9854736924,2024-06-04 14:52:49.594208
39.6346511,1.411833167,0.0487344116,0.9415328503,2024-06-04 14:52:49.634651
39.67514,1.721549749,-0.7608426809,0.6627081037,2024-06-04 14:52:49.675140
39.71562104,0.9882699251,-2.251636267,0.8682980537,2024-06-04 14:52:49.715621
39.75610985,1.095325828,-3.113010406,0.7993242145,2024-06-04 14:52:49.756110
39.79657078,0.3069202602,-2.036192894,0.2503297627,2024-06-04 14:52:49.796571
39.83708084,-1.286934614,-1.291594982,-0.3782908916,2024-06-04 14:52:49.837081
39.87753854,-0.214644447,-1.170424819,-0.3135779798,2024-06-04 14:52:49.877539
39.91802141,0.9616391063,-1.589194536,0.744731009,2024-06-04 14:52:49.918021
39.95851032,-0.49506706,0.1097190008,0.1715025157,2024-06-04 14:52:49.958510
39.99900151,-0.009453942999,2.198507786,-0.3854812086,2024-06-04 14:52:49.999002
40.03952474,0.06031882018,0.03994623944,-0.2715012729,2024-06-04 14:52:50.039525
40.08000495,-1.38427031,-1.751376271,-0.4944012761,2024-06-04 14:52:50.080005
40.12049058,-1.480141282,0.7540518045,-1.519954324,2024-06-04 14:52:50.120491
40.1609861,-2.135658979,1.463097572,-0.4416722357,2024-06-04 14:52:50.160986
40.2014738,-3.232316494,-0.3583177626,0.643800199,2024-06-04 14:52:50.201474
40.24194021,-1.341128349,2.403698206,0.5173037648,2024-06-04 14:52:50.241940
40.28243464,-1.405841231,1.283872128,0.02689713426,2024-06-04 14:52:50.282435
40.32292214,-0.9492557645,-0.2299571782,-0.8316806555,2024-06-04 14:52:50.322922
40.36342891,-1.46070075,-0.904915452,-0.7773538232,2024-06-04 14:52:50.363429
40.40390203,-0.6865426898,0.3818860352,-0.3822855055,2024-06-04 14:52:50.403902
40.44439974,-0.2101172209,0.2987978756,-0.0005326165119,2024-06-04 14:52:50.444400
40.48490261,0.6061176062,-0.2099840641,0.2386122048,2024-06-04 14:52:50.484903
40.52533328,1.888658166,0.413044095,1.011838198,2024-06-04 14:52:50.525333
40.56583756,3.080121279,0.33474949,0.8866733313,2024-06-04 14:52:50.565838
40.60633719,2.611818314,0.9223586321,0.8147701025,2024-06-04 14:52:50.606337
40.64686078,1.920615196,0.7950633168,0.7926664948,2024-06-04 14:52:50.646861
40.68731604,1.537796974,-0.6613765359,0.8571131229,2024-06-04 14:52:50.687316
40.72783261,1.492524624,-0.8183652759,0.6621754766,2024-06-04 14:52:50.727833
40.76828844,0.9576444626,-2.44337821,0.7742912769,2024-06-04 14:52:50.768288
40.80877558,0.9118394852,-2.9729321,0.7418016195,2024-06-04 14:52:50.808776
40.84927,-0.2079867423,-1.566025734,0.1280942708,2024-06-04 14:52:50.849270
40.88978526,-1.498782873,-0.7555165291,-0.5010589957,2024-06-04 14:52:50.889785
40.93024985,-0.2972000241,-0.947524786,-0.4360797703,2024-06-04 14:52:50.930250
40.97074354,0.7669677734,-0.9608401656,0.7026543617,2024-06-04 14:52:50.970744
41.01124906,-0.6282211542,0.233286038,0.104392834,2024-06-04 14:52:51.011249
41.05170818,0.06165036187,2.230997324,-0.2986647189,2024-06-04 14:52:51.051708
41.09220089,0.006790860556,0.6086475253,-0.1556571722,2024-06-04 14:52:51.092201
41.13268,-1.565093637,-1.615825295,-0.4081174135,2024-06-04 14:52:51.132680
41.17315771,-1.513429761,0.4849473238,-1.606770873,2024-06-04 14:52:51.173158
41.21364896,-2.097577095,0.9154346585,-0.7398043275,2024-06-04 14:52:51.213649
41.25415776,-2.389450788,-0.1844184697,0.6025224328,2024-06-04 14:52:51.254158
41.2946574,-1.554441333,1.634600043,0.4708330035,2024-06-04 14:52:51.294657
41.33511511,-1.450581074,1.219425559,0.2519276142,2024-06-04 14:52:51.335115
41.37559177,-1.167362213,0.02157096937,-0.5793536305,2024-06-04 14:52:51.375592
41.41607198,-1.536066055,-1.002650619,-0.6400718689,2024-06-04 14:52:51.416072
41.45658792,-0.4748276174,0.597995162,-0.2470009029,2024-06-04 14:52:51.456588
41.49707964,-0.148067385,0.1917419434,0.1430075318,2024-06-04 14:52:51.497080
41.53756813,0.917165637,-0.04074516147,0.5055862069,2024-06-04 14:52:51.537568
41.57806886,2.301435947,0.8070471883,1.106910229,2024-06-04 14:52:51.578069
41.61855943,2.876262426,0.5748263597,0.7737586498,2024-06-04 14:52:51.618559
41.65903026,2.418744802,1.826475143,0.7359428406,2024-06-04 14:52:51.659030
41.69951052,1.586797714,0.3661738634,0.6818822622,2024-06-04 14:52:51.699511
41.73999271,1.33939743,0.4764254689,0.509314537,2024-06-04 14:52:51.739993
41.78048349,0.8750889301,-1.185071707,0.7394048572,2024-06-04 14:52:51.780483
41.82098573,1.037803292,-2.299571753,0.6440665126,2024-06-04 14:52:51.820986
41.86147016,0.7264889479,-2.177069902,0.3994623721,2024-06-04 14:52:51.861470
41.90193693,-0.4932028949,-1.340196252,0.06924014539,2024-06-04 14:52:51.901937
41.94241641,-1.460168123,-1.128614426,-0.3924052119,2024-06-04 14:52:51.942416
41.98291016,0.3862801194,-0.6390066743,0.01597849466,2024-06-04 14:52:51.982910
42.02341136,0.5752258301,-1.191463113,0.5250267386,2024-06-04 14:52:52.023411
42.06388797,-0.7042521834,0.8113080859,-0.3239639997,2024-06-04 14:52:52.063888
42.10441693,0.4872109592,2.598103285,-0.3194367588,2024-06-04 14:52:52.104417
42.14488417,-1.009707808,-0.371633172,-0.2376801223,2024-06-04 14:52:52.144884
42.18534901,-1.574947,0.05592473224,-1.036738038,2024-06-04 14:52:52.185349
42.22583922,-1.423950195,2.384524107,-1.780670166,2024-06-04 14:52:52.225839
42.26632797,-3.718062639,0.5697665215,0.01225017942,2024-06-04 14:52:52.266328
42.30687683,-1.794385076,1.946846485,0.5130428672,2024-06-04 14:52:52.306877
42.34731558,-1.361634135,1.13340795,0.2149107605,2024-06-04 14:52:52.347316
42.38782167,-0.8224930763,1.286801457,-0.2880123854,2024-06-04 14:52:52.387822
42.42830771,-1.197188735,1.175750971,-0.5327496529,2024-06-04 14:52:52.428308
42.46877683,-2.255764008,-0.8865401745,-0.3756277859,2024-06-04 14:52:52.468777
42.50927391,-0.3829512596,1.096524239,-0.1535267085,2024-06-04 14:52:52.509274
42.54976214,-0.2577863932,0.4383433759,0.2098509073,2024-06-04 14:52:52.549762
42.59023808,0.9392692447,0.1986659616,0.3901416063,2024-06-04 14:52:52.590238
42.63071834,2.374803782,0.80864501,1.102915645,2024-06-04 14:52:52.630718
42.67122943,3.089708328,0.03009283356,0.9937292337,2024-06-04 14:52:52.671229
42.71171735,2.566279411,1.658035159,1.008642554,2024-06-04 14:52:52.711717
42.75219381,1.422751904,0.9615059495,0.8243572116,2024-06-04 14:52:52.752194
42.79268172,1.374550104,-0.03169068322,0.7141056061,2024-06-04 14:52:52.792682
42.83316302,0.9539161921,-1.461899161,1.065099835,2024-06-04 14:52:52.833163
42.87365771,1.266961575,-3.225791931,0.8717600703,2024-06-04 14:52:52.873658
42.91417526,1.135138988,-2.578529596,0.2362154275,2024-06-04 14:52:52.914175
42.95466318,-0.5025236607,-1.187734842,-0.1143793985,2024-06-04 14:52:52.954663
42.99506506,-1.615425825,-0.5716306567,-0.6467295885,2024-06-04 14:52:52.995065
43.03556818,0.2078536004,-0.6499252915,0.03701684624,2024-06-04 14:52:53.035568
43.07613771,0.5714974999,-0.8053161502,0.4713656008,2024-06-04 14:52:53.076138
43.11656063,-1.033142924,1.18160975,-0.2624467909,2024-06-04 14:52:53.116561
43.15704511,0.33807832,2.840976477,-0.4504604042,2024-06-04 14:52:53.157045
43.19753235,-1.16789484,-0.1183740199,-0.4017260075,2024-06-04 14:52:53.197532
43.23803839,-1.748313665,0.3488638103,-0.8923989534,2024-06-04 14:52:53.238038
43.27855141,-0.8022536039,2.113555431,-1.842720032,2024-06-04 14:52:53.278551
43.31903485,-2.305830002,0.04660394415,-0.4049217105,2024-06-04 14:52:53.319035
43.35951787,-3.250159025,-1.25138247,0.2529928386,2024-06-04 14:52:53.359518
43.40001636,-1.072290182,3.02193284,0.3651086092,2024-06-04 14:52:53.400016
43.4404975,-0.9868052602,1.828073025,-0.2749632597,2024-06-04 14:52:53.440497
43.48096073,-1.469755292,-0.15512456,-0.6262238622,2024-06-04 14:52:53.480961
43.52149224,-1.643920898,-0.5495271087,-0.2994636297,2024-06-04 14:52:53.521492
43.56193985,-0.104392834,1.318492174,0.1118494645,2024-06-04 14:52:53.561940
43.60246782,0.1591191888,0.2849498391,0.1259638071,2024-06-04 14:52:53.602468
43.64295078,1.452578425,0.133154124,0.7772206664,2024-06-04 14:52:53.642951
43.68342084,3.144567966,0.4671046734,1.058175802,2024-06-04 14:52:53.683421
43.7239736,2.772402048,0.4933360517,0.8520532846,2024-06-04 14:52:53.723974
43.76446282,1.957365632,1.804371595,1.10185039,2024-06-04 14:52:53.764463
43.80491037,1.166030645,0.1864157766,0.7876066566,2024-06-04 14:52:53.804910
43.84532526,1.311168671,-0.3713668585,0.7244915962,2024-06-04 14:52:53.845325
43.88588334,0.8236914277,-2.620606422,1.001984835,2024-06-04 14:52:53.885883
43.92633542,1.411300659,-3.222596169,0.5993267298,2024-06-04 14:52:53.926335
43.96682813,0.4235632718,-1.997578263,0.007722939365,2024-06-04 14:52:53.966828
44.00732209,-1.020093799,-0.6299521923,-0.3130453527,2024-06-04 14:52:54.007322
44.04780183,-1.410901189,-0.8713606,-0.8575125933,2024-06-04 14:52:54.047802
44.0882886,1.103048801,-0.9368724227,0.8035851717,2024-06-04 14:52:54.088289
44.12878724,0.1617822647,-0.3157084286,0.5359453559,2024-06-04 14:52:54.128787
44.16929391,-0.525426209,1.874676943,-0.2965342402,2024-06-04 14:52:54.169294
44.20977547,0.2395442724,1.466559529,-0.221701622,2024-06-04 14:52:54.209775
44.25024844,-1.392259598,-1.147256017,-0.6238270998,2024-06-04 14:52:54.250248
44.29073646,-1.586664557,1.356307983,-1.735930324,2024-06-04 14:52:54.290736
44.33124146,-1.301048994,2.911281824,-1.725544333,2024-06-04 14:52:54.331241
44.37173599,-4.061467171,-1.865888834,-0.02130465955,2024-06-04 14:52:54.371736
44.41220037,-2.747768641,0.7271546721,0.2351501882,2024-06-04 14:52:54.412200
44.45268193,-0.9468590021,2.337387562,0.5141080618,2024-06-04 14:52:54.452682
44.49316656,-0.6388735175,0.8203625679,-0.3367467821,2024-06-04 14:52:54.493167
44.53364245,-0.6894720793,0.181622237,-0.6999912262,2024-06-04 14:52:54.533642
44.57414709,-1.180411339,-0.588141799,-0.5082492828,2024-06-04 14:52:54.574147
44.61466,-0.5288882256,0.06950645149,-0.2741643488,2024-06-04 14:52:54.614660
44.6551536,-0.5350132585,0.6398055553,0.08015878499,2024-06-04 14:52:54.655154
44.6956788,0.2651098669,0.07989247888,0.2500634491,2024-06-04 14:52:54.695679
44.73616761,1.758167148,-0.258452177,0.7596443295,2024-06-04 14:52:54.736168
44.77662464,3.162410498,-0.8002563119,0.5460650921,2024-06-04 14:52:54.776625
44.81708578,2.780391455,0.1960028708,0.6350120306,2024-06-04 14:52:54.817086
44.85757433,2.27640295,0.796394825,0.9066464305,2024-06-04 14:52:54.857574
44.89806823,1.720750809,-0.7832126021,0.7804163694,2024-06-04 14:52:54.898068
44.93855813,1.625412464,-1.514894485,1.077616334,2024-06-04 14:52:54.938558
44.97903438,1.61689055,-3.278787136,1.588528752,2024-06-04 14:52:54.979034
45.01953011,1.549514532,-3.700086832,1.362166762,2024-06-04 14:52:55.019530
45.06001495,0.8260881901,-2.067351103,0.2846835256,2024-06-04 14:52:55.060015
45.10050386,0.5165048838,-1.069494009,0.05059856921,2024-06-04 14:52:55.100504
45.14098813,0.1308905035,-1.715158343,-0.2195711583,2024-06-04 14:52:55.140988
45.1814724,0.1407439113,-2.075340271,-0.05272903293,2024-06-04 14:52:55.181472
45.22197011,0.2986647189,-1.550047159,0.4567186534,2024-06-04 14:52:55.221970
45.26245401,-0.6143731475,0.2535254657,0.4034570158,2024-06-04 14:52:55.262454
45.30293719,-0.1525946259,3.512206316,-0.6054518223,2024-06-04 14:52:55.302937
45.34345,-0.4399412274,1.791588783,-0.4443353117,2024-06-04 14:52:55.343450
45.38395521,-2.316482306,1.525946259,-0.6645722389,2024-06-04 14:52:55.383955
45.4244461,-2.183061838,1.855236411,-1.672815323,2024-06-04 14:52:55.424446
45.4648738,-1.574947,0.6778876781,-1.282274246,2024-06-04 14:52:55.464874
45.50541339,-3.200093269,0.5095808506,0.2292914093,2024-06-04 14:52:55.505413
45.54594651,-1.041398406,0.3201025128,0.6400718689,2024-06-04 14:52:55.545947
45.5864363,-1.401580334,1.978803515,0.9146357179,2024-06-04 14:52:55.586436
45.62689615,-1.273885489,1.185870647,0.3581846058,2024-06-04 14:52:55.626896
45.66731282,-1.360302567,0.1118494645,-0.4872109592,2024-06-04 14:52:55.667313
45.70788203,-0.8291507363,0.2159759998,-0.4912055731,2024-06-04 14:52:55.707882
45.74832506,-0.7559159994,0.2167749256,-0.3798887134,2024-06-04 14:52:55.748325
45.78880604,-0.3579182923,0.2077204436,-0.351660043,2024-06-04 14:52:55.788806
45.82927563,0.3492632806,-0.6722952127,-0.001597849536,2024-06-04 14:52:55.829276
45.86978209,1.389729619,-0.8431319594,0.2282261699,2024-06-04 14:52:55.869782
45.91025511,2.341648579,0.3826849759,0.575891614,2024-06-04 14:52:55.910255
45.9507425,2.162423134,1.352845907,0.8288844228,2024-06-04 14:52:55.950742
45.99127703,2.319278717,1.211702585,0.9505873322,2024-06-04 14:52:55.991277
46.03174511,1.903837681,1.511033058,0.5202331543,2024-06-04 14:52:56.031745
46.07223308,1.245124221,-0.4520582557,1.240730166,2024-06-04 14:52:56.072233
46.11272209,2.470674753,-1.098255277,2.109560966,2024-06-04 14:52:56.112722
46.15319938,1.93419683,-2.434057474,1.984928608,2024-06-04 14:52:56.153199
46.19368745,1.970414758,-2.285457373,1.245790005,2024-06-04 14:52:56.193687
46.23419552,0.8777520061,-1.59025979,0.6387403607,2024-06-04 14:52:56.234196
46.2747161,0.1050586104,-2.176270962,0.28574875,2024-06-04 14:52:56.274716
46.31513282,-0.1139799356,-1.75723505,-0.1001319066,2024-06-04 14:52:56.315133
46.35562084,-0.5003932118,-1.00797677,-0.04553871229,2024-06-04 14:52:56.355621
46.39607339,-1.139399886,0.2977326214,-0.239810586,2024-06-04 14:52:56.396073
46.43661073,-1.448716879,1.30038321,-0.6965292692,2024-06-04 14:52:56.436611
46.47709881,-1.253379822,1.8507092,-0.8665670753,2024-06-04 14:52:56.477099
46.51759542,-1.778406501,1.297187567,-0.9459269047,2024-06-04 14:52:56.517595
46.55806594,-2.072544098,1.340862036,-0.9709599018,2024-06-04 14:52:56.558066
46.59855547,-1.635665298,1.194392562,-0.7714950442,2024-06-04 14:52:56.598555
46.63904917,-1.064833522,0.1328878254,-1.133141637,2024-06-04 14:52:56.639049
46.67953729,-1.121290922,0.2599168718,-0.6022561193,2024-06-04 14:52:56.679537
46.71999766,-0.9391360879,-1.141929746,0.08655018359,2024-06-04 14:52:56.719998
46.76053506,-0.8062482476,-0.334882617,0.3371462524,2024-06-04 14:52:56.760535
46.80098771,-1.027816772,0.7266221046,0.5607120395,2024-06-04 14:52:56.800988
46.8414762,-1.27921176,-0.4877435565,-0.2169080675,2024-06-04 14:52:56.841476
46.88199276,-1.097323179,-0.3418066502,-0.7005238533,2024-06-04 14:52:56.881993
46.92245599,-0.9809464812,-0.622495532,-0.7573806643,2024-06-04 14:52:56.922456
46.96294391,-0.4894745648,-0.7029206157,-0.837539494,2024-06-04 14:52:56.962944
47.00345703,0.3050560951,-0.5564510822,-0.3026593328,2024-06-04 14:52:57.003457
47.04393974,1.359104156,-0.3513937294,0.3374125659,2024-06-04 14:52:57.043940
47.08446099,2.138988018,-0.401992321,0.499594301,2024-06-04 14:52:57.084461
47.12495776,2.342181206,1.651643753,0.8762873411,2024-06-04 14:52:57.124958
47.16534995,2.046046257,3.297561884,0.8837439418,2024-06-04 14:52:57.165350
47.20584828,2.089454651,0.3400756419,1.066431403,2024-06-04 14:52:57.205848
47.24631521,2.815011501,-1.658168316,1.517158151,2024-06-04 14:52:57.246315
47.28682453,2.848832607,-2.40476346,1.670019031,2024-06-04 14:52:57.286825
47.32735052,2.790244818,-2.596904993,1.291861296,2024-06-04 14:52:57.327351
47.36782953,1.817287564,-2.751097441,0.6898715496,2024-06-04 14:52:57.367830
47.40833104,0.232087642,-1.743653297,0.4199681282,2024-06-04 14:52:57.408331
47.44883974,-0.766035676,-0.692268312,0.509314537,2024-06-04 14:52:57.448840
47.48932157,-1.593055964,0.03142437339,0.325695008,2024-06-04 14:52:57.489322
47.52979771,-1.983064413,2.239519358,-0.4965317547,2024-06-04 14:52:57.529798
47.57030026,-2.355363369,3.164141655,-0.7098446488,2024-06-04 14:52:57.570300
47.61077636,-2.19291544,2.311955214,-0.3375457227,2024-06-04 14:52:57.610776
47.65125787,-2.053369761,2.322740555,-0.5228962898,2024-06-04 14:52:57.651258
47.69174506,-1.846315145,0.3230319023,-1.534335017,2024-06-04 14:52:57.691745
47.73220328,-1.107442856,-0.7765548825,-1.473883033,2024-06-04 14:52:57.732203
47.77271354,-0.8137048483,-0.594533205,-1.539128542,2024-06-04 14:52:57.772714
47.81321563,-1.322220445,-1.575080156,0.09161003679,2024-06-04 14:52:57.813216
47.85369558,-1.494788289,2.06082654,0.5354127288,2024-06-04 14:52:57.853696
47.89418667,-1.510234118,0.8957278132,0.4623111188,2024-06-04 14:52:57.894187
47.93470339,-1.117828846,0.107588537,-0.5194342732,2024-06-04 14:52:57.934703
47.97511667,-0.925021708,0.4914718866,-0.5873428583,2024-06-04 14:52:57.975117
48.01560802,-0.6716294289,-0.232087642,-0.6294195652,2024-06-04 14:52:58.015608
48.05608828,-0.3456681073,-0.3668396175,-0.7706961036,2024-06-04 14:52:58.056088
48.09661511,-0.09400681406,-0.2227668613,-0.5399399996,2024-06-04 14:52:58.096615
48.13711297,0.8223599195,-0.08095771074,0.1901440918,2024-06-04 14:52:58.137113
48.17759584,1.817553878,-0.5892069936,0.6358109713,2024-06-04 14:52:58.177596
48.21808235,2.462419271,-0.05698996782,0.8754884005,2024-06-04 14:52:58.218082
48.25857365,2.276669264,1.64844811,0.8523195982,2024-06-04 14:52:58.258574
48.29907532,1.866820931,2.307694197,1.081611037,2024-06-04 14:52:58.299075
48.33955453,2.457359314,-1.29745388,1.483070731,2024-06-04 14:52:58.339555
48.3800286,3.093170404,-2.079867363,1.774811387,2024-06-04 14:52:58.380029
48.42053141,3.133116722,-2.426068306,1.587729812,2024-06-04 14:52:58.420531
48.46103537,2.293713093,-1.722615004,1.006512046,2024-06-04 14:52:58.461035
48.50152782,1.009840965,-1.788126826,0.5079829693,2024-06-04 14:52:58.501528
48.54201115,-0.1051917598,-1.447518468,0.157654494,2024-06-04 14:52:58.542011
48.58249729,-0.915967226,-0.6461969614,0.2173075378,2024-06-04 14:52:58.582497
48.6229788,-1.765623689,-0.2978657782,-0.06098458916,2024-06-04 14:52:58.622979
48.66346297,-1.880668879,1.580805779,-0.3508611321,2024-06-04 14:52:58.663463
48.70396297,-1.927672267,1.828073025,-0.3804213405,2024-06-04 14:52:58.703963
48.74448677,-2.017418146,1.579208016,-0.34846434,2024-06-04 14:52:58.744487
48.78494776,-2.15430069,1.959895611,-1.169359565,2024-06-04 14:52:58.784948
48.82539245,-2.103968382,0.6504579186,-1.799311757,2024-06-04 14:52:58.825392
48.86585797,-0.7204970121,-0.5015916228,-1.828871965,2024-06-04 14:52:58.865858
48.90634157,-1.636464238,0.3408745527,-0.08388710022,2024-06-04 14:52:58.906342
48.94684203,-1.089333892,-0.7864083052,0.4884093404,2024-06-04 14:52:58.946842
48.98738506,-0.6884068251,0.7481930256,0.7242252827,2024-06-04 14:52:58.987385
49.02783922,-0.5091813803,2.024608612,1.45777142,2024-06-04 14:52:59.027839
49.06836396,-0.204258427,0.8097102642,0.5716306567,2024-06-04 14:52:59.068364
49.10885037,0.004926702939,0.46018067,0.01331541315,2024-06-04 14:52:59.108850
49.14930094,-0.5118444562,0.3232982159,-0.4728302956,2024-06-04 14:52:59.149301
49.18979016,-0.6340799332,0.2031932026,-0.8210283518,2024-06-04 14:52:59.189790
49.23029677,-0.9196955562,0.5737611651,-0.9760197401,2024-06-04 14:52:59.230297
49.27078021,-1.070159674,0.3885437548,-0.9975907207,2024-06-04 14:52:59.270780
49.31125906,-0.756981194,0.04394086078,-0.9001219273,2024-06-04 14:52:59.311259
49.35180354,-0.2412752807,0.01677742042,-0.7869408727,2024-06-04 14:52:59.351804
49.39226136,0.1953371018,-0.1335535944,-0.3263607621,2024-06-04 14:52:59.392261
49.43274792,1.345256209,-0.2595174015,0.5348801613,2024-06-04 14:52:59.432748
49.47322287,2.205831289,0.2836183012,0.6837464571,2024-06-04 14:52:59.473223
49.51370927,2.179999352,1.766023159,0.5583152771,2024-06-04 14:52:59.513709
49.55426104,1.951506853,1.378411531,0.5548532605,2024-06-04 14:52:59.554261
49.59473558,1.097988963,-0.506118834,0.3613803089,2024-06-04 14:52:59.594736
49.6352236,1.246189475,0.738073349,1.7393924,2024-06-04 14:52:59.635224
49.67562125,2.25110364,-1.44245863,1.853106022,2024-06-04 14:52:59.675621
49.71610917,2.34657526,-1.861361504,1.696117282,2024-06-04 14:52:59.716109
49.75659724,2.123275757,-1.305443048,1.151783228,2024-06-04 14:52:59.756597
49.79712646,1.48107338,-0.49839589,0.7908023596,2024-06-04 14:52:59.797126
49.83763256,1.250716686,-0.9690957665,0.7846772671,2024-06-04 14:52:59.837633
49.87809313,0.9730903506,-1.379609942,0.4599143565,2024-06-04 14:52:59.878093
49.91860995,0.3298227787,-1.182675004,0.2564548552,2024-06-04 14:52:59.918610
49.95909797,0.1077216864,-1.432072639,0.3123795986,2024-06-04 14:52:59.959098
49.99956703,-0.5294207931,-1.673880577,0.1515294015,2024-06-04 14:52:59.999567
50.04003959,-0.9740224481,-0.411046803,-0.3540568352,2024-06-04 14:53:00.040040
50.08053021,-0.4812190235,-0.2342181057,-0.2866808474,2024-06-04 14:53:00.080530
50.1210563,-2.032331467,0.6669690013,-0.6214303374,2024-06-04 14:53:00.121056
50.16153407,-3.195299625,2.987312794,-1.006911516,2024-06-04 14:53:00.161534
50.20202214,-3.385976315,2.858819246,-0.8298165202,2024-06-04 14:53:00.202022
50.24249047,-2.637250662,2.786916018,-0.834610045,2024-06-04 14:53:00.242490
50.28298568,-1.166030645,1.252714038,-2.060959578,2024-06-04 14:53:00.282986
50.32346412,-0.6106448174,-1.362299919,-0.9672315717,2024-06-04 14:53:00.323464
50.36399068,-0.8794830441,-1.535932899,-0.1038602218,2024-06-04 14:53:00.363991
50.4044899,-0.9678973556,-0.4669715166,0.5170374513,2024-06-04 14:53:00.404490
50.44492375,-1.055512786,1.938857317,1.127282858,2024-06-04 14:53:00.444924
50.48541172,-1.068828225,1.076817393,1.556039095,2024-06-04 14:53:00.485412
50.52589964,0.09919982404,-0.3766930401,0.2348838747,2024-06-04 14:53:00.525900
50.56637506,0.4603138268,0.4716319144,0.3661738634,2024-06-04 14:53:00.566375
50.60688073,-0.009453942999,0.2207695395,-0.2235657871,2024-06-04 14:53:00.606881
50.64740136,-0.5776225924,0.1427412182,-0.7387390733,2024-06-04 14:53:00.647401
50.68788349,-0.9985228181,0.3757609427,-0.9640358686,2024-06-04 14:53:00.687883
50.72830917,-1.278679132,0.2974663079,-1.052183867,2024-06-04 14:53:00.728309
50.76884933,-1.299717426,0.009320789017,-0.8535179496,2024-06-04 14:53:00.768849
50.8093399,-0.5890738368,-0.4134435654,-0.9517856836,2024-06-04 14:53:00.809340
50.84981657,-0.1824211627,-0.2549901605,-0.96563375,2024-06-04 14:53:00.849817
50.89031266,0.556584239,-0.09001219273,-0.1442059278,2024-06-04 14:53:00.890313
50.93078589,1.903837681,-0.3372794092,0.6198324561,2024-06-04 14:53:00.930786
50.97124511,2.424070835,-0.1668421179,0.7255568504,2024-06-04 14:53:00.971245
51.01177162,2.54390955,0.8475260139,0.1661763489,2024-06-04 14:53:01.011772
51.05225297,1.97361052,1.006778359,0.5596467853,2024-06-04 14:53:01.052253
51.09275193,1.430208445,1.233007193,1.261235952,2024-06-04 14:53:01.092752
51.13324042,2.276669264,-0.5508586168,2.093582392,2024-06-04 14:53:01.133240
51.17372146,2.687716007,-1.490660429,2.057364464,2024-06-04 14:53:01.173721
51.2142275,2.751363754,-1.911960125,1.551778197,2024-06-04 14:53:01.214227
51.25473386,1.916886806,-1.348185539,0.8706948161,2024-06-04 14:53:01.254734
51.29517349,1.263233185,-1.88559556,0.4322183132,2024-06-04 14:53:01.295173
51.33564459,0.5736280084,-1.799311757,0.283085674,2024-06-04 14:53:01.335645
51.37614933,-0.1904104054,-1.45364356,0.437011838,2024-06-04 14:53:01.376149
51.41665448,-0.3358147144,-1.201582909,0.4226312041,2024-06-04 14:53:01.416654
51.45715104,0.3830844164,-0.2179733068,0.08282186836,2024-06-04 14:53:01.457151
51.49763886,-1.023555756,-0.6384740472,-0.1916087866,2024-06-04 14:53:01.497639
51.53811495,-2.62526679,2.318213463,-0.4174381793,2024-06-04 14:53:01.538115
51.5786113,-3.588903189,3.492765903,-0.6776213646,2024-06-04 14:53:01.578611
51.61910787,-3.112877131,2.644707203,-0.1801575422,2024-06-04 14:53:01.619108
51.65958782,-2.257894516,1.207175374,-1.078015804,2024-06-04 14:53:01.659588
51.70007146,-0.7157034278,-0.06710968167,-2.6182096,2024-06-04 14:53:01.700071
51.7405687,-0.9745550752,-1.929536462,-0.837805748,2024-06-04 14:53:01.740569
51.78109401,-1.178014517,-0.4552539587,0.1909430176,2024-06-04 14:53:01.781094
51.82154677,-1.049654007,1.872546554,1.033941746,2024-06-04 14:53:01.821547
51.86201282,-0.7271546721,1.447119117,1.349650264,2024-06-04 14:53:01.862013
51.90250266,-0.3390104175,0.5681686401,-0.3127790391,2024-06-04 14:53:01.902503
51.94299073,-0.756182313,0.2913412452,-0.8902685046,2024-06-04 14:53:01.942991
51.98346219,-0.9210271239,0.3051892519,-1.375082731,2024-06-04 14:53:01.983462
52.02398537,-1.034474373,0.3222329915,-1.38014257,2024-06-04 14:53:02.023985
52.06449828,-0.9809464812,-0.05326165259,-0.9781502485,2024-06-04 14:53:02.064498
52.10499058,-0.3597824574,-0.2379464209,-0.7302172184,2024-06-04 14:53:02.104991
52.14543979,0.2240983993,0.208785668,-0.1471353173,2024-06-04 14:53:02.145440
52.18589136,1.055912256,-0.07243584841,0.8382052183,2024-06-04 14:53:02.185891
52.22637933,2.118748426,0.2577863932,1.514761329,2024-06-04 14:53:02.226379
52.26692261,2.282528162,0.2458025217,1.355509043,2024-06-04 14:53:02.266923
52.30738375,2.187189817,0.3065207899,0.9167661667,2024-06-04 14:53:02.307384
52.34789052,2.075073957,0.234617576,0.7636389136,2024-06-04 14:53:02.347891
52.38835282,1.335402727,0.5974625945,1.356840611,2024-06-04 14:53:02.388353
52.42884761,2.146444559,-1.097190022,2.302101612,2024-06-04 14:53:02.428848
52.46934308,3.000495195,-2.499569178,2.2278018,2024-06-04 14:53:02.469343
52.509855,2.76814127,-2.285723686,1.511033058,2024-06-04 14:53:02.509855
52.55031396,1.974143147,-1.357506275,0.9423317909,2024-06-04 14:53:02.550314
52.59080235,1.414762616,-1.479741812,0.6491263509,2024-06-04 14:53:02.590802
52.63129282,0.6671021581,-1.399849296,0.3651086092,2024-06-04 14:53:02.631293
52.67179282,0.5013253093,-2.328333139,0.3643096983,2024-06-04 14:53:02.671793
52.71228084,0.4685693681,-3.226058245,0.5551195741,2024-06-04 14:53:02.712281
52.75278526,-0.3920057416,-1.961626649,0.4844147265,2024-06-04 14:53:02.752785
52.79323727,-1.151383758,-0.4256937504,0.2521939278,2024-06-04 14:53:02.793237
52.83372378,-1.988124251,1.205843806,0.3073197305,2024-06-04 14:53:02.833724
52.87427061,-2.890509844,2.876661777,0.06844121963,2024-06-04 14:53:02.874271
52.91478816,-3.182783127,3.365204334,-0.6776213646,2024-06-04 14:53:02.914788
52.95527748,-2.844438553,3.062411785,-0.7696308494,2024-06-04 14:53:02.955277
52.99576696,-2.187589169,2.216616869,-1.149120092,2024-06-04 14:53:02.995767
53.03614784,-1.839391112,1.027017832,-1.759099126,2024-06-04 14:53:03.036148
53.0766617,-1.061371565,0.8730916381,-2.58705163,2024-06-04 14:53:03.076662
53.11715154,-0.7165023685,-0.6701647043,-1.411833167,2024-06-04 14:53:03.117152
53.15765941,-0.8347432017,-0.6568493247,0.07270215452,2024-06-04 14:53:03.157659
53.19814883,-1.149785876,-0.006391398143,0.5375432372,2024-06-04 14:53:03.198149
53.23861008,-1.358172059,1.973477364,0.9172987938,2024-06-04 14:53:03.238610
53.27911284,-1.33234024,0.9876041412,0.3661738634,2024-06-04 14:53:03.279113
53.31960566,-0.8919994831,-0.1559234858,-0.899056673,2024-06-04 14:53:03.319606
53.36011956,-0.9583102465,0.2505960763,-0.7042521834,2024-06-04 14:53:03.360120
53.40057633,-0.7591117024,0.3685706258,-0.5953320861,2024-06-04 14:53:03.400576
53.44107862,-0.3842828274,0.444734782,-0.2163754553,2024-06-04 14:53:03.441079
53.48154524,0.5141080618,0.3107817471,0.3414071798,2024-06-04 14:53:03.481545
53.52204498,1.822347403,-0.02849498391,0.8493902087,2024-06-04 14:53:03.522045
53.56252154,2.418212175,0.7063826323,1.423417687,2024-06-04 14:53:03.562522
53.60300295,2.390249729,0.071104303,1.504375339,2024-06-04 14:53:03.603003
53.64350649,2.076139212,0.3398093283,0.8629719019,2024-06-04 14:53:03.643506
53.68398138,1.629140735,2.455894709,1.374416947,2024-06-04 14:53:03.683981
53.72446967,2.723667622,-1.111570716,1.851774454,2024-06-04 14:53:03.724470
53.76496633,3.00156045,-2.161624193,2.034461975,2024-06-04 14:53:03.764966
53.80539701,3.297162533,-2.733787298,1.563762069,2024-06-04 14:53:03.805397
53.84588524,2.655226469,-1.920215726,0.881613493,2024-06-04 14:53:03.845885
53.88638847,1.521019578,-1.208773136,0.5713643432,2024-06-04 14:53:03.886388
53.92687534,0.828751266,-0.8418003917,0.3683043122,2024-06-04 14:53:03.926875
53.96737519,0.09334104508,-0.4371449947,0.3432713449,2024-06-04 14:53:03.967375
54.0079042,0.2251636237,-1.278013349,0.5465977192,2024-06-04 14:53:04.007904
54.04837149,0.7651036382,-2.22740221,0.7087793946,2024-06-04 14:53:04.048371
54.08886388,0.7722939253,-1.919416785,0.0820229426,2024-06-04 14:53:04.088864
54.12936602,-0.4287562966,-1.113701105,-0.01757634431,2024-06-04 14:53:04.129366
54.16985696,-1.635398984,-0.3117138147,0.3195699155,2024-06-04 14:53:04.169857
54.21033732,-2.143382072,1.153381109,-0.01384802908,2024-06-04 14:53:04.210337
54.25081618,-3.019136667,2.56215167,-0.2600499988,2024-06-04 14:53:04.250816
54.29131238,-3.556147337,3.420862675,-0.7270215154,2024-06-04 14:53:04.291312
54.33180852,-3.598223925,3.245898247,-1.036738038,2024-06-04 14:53:04.331809
54.37230665,-3.211810827,1.764425397,-1.81955111,2024-06-04 14:53:04.372307
54.41277258,-2.495175123,1.099054217,-2.460155725,2024-06-04 14:53:04.412773
54.45327159,-0.279889971,0.6017234921,-2.360556364,2024-06-04 14:53:04.453272
54.49376717,-1.311834455,-1.485600591,-0.5846797824,2024-06-04 14:53:04.493767
54.53425863,-1.005979419,-0.7808157802,0.0708379969,2024-06-04 14:53:04.534259
54.57476144,-1.367226601,1.636197925,0.6786866188,2024-06-04 14:53:04.574761
54.61520962,-1.771216154,1.14752233,0.6350120306,2024-06-04 14:53:04.615210
54.65566316,-0.7559159994,-0.3066539466,-1.014900804,2024-06-04 14:53:04.655663
54.6961405,-0.8906679749,0.314776361,-0.7270215154,2024-06-04 14:53:04.696140
54.736683,-0.8038514853,0.0519301109,-0.7813484073,2024-06-04 14:53:04.736683
54.77717831,-0.4734960794,0.2290250957,-0.6027887464,2024-06-04 14:53:04.777178
54.81766862,-0.1507304758,0.1738992929,-0.3407414258,2024-06-04 14:53:04.817669
54.85815029,0.6905373335,0.1320888996,0.2066552043,2024-06-04 14:53:04.858150
54.89863462,1.812760353,0.2308892608,0.7266221046,2024-06-04 14:53:04.898635
54.93912362,2.169347048,0.2527265251,1.40797174,2024-06-04 14:53:04.939124
54.97960076,2.341914892,-0.3881442845,1.528609395,2024-06-04 14:53:04.979601
55.02011764,1.784531593,1.614627004,1.033675551,2024-06-04 14:53:05.020118
55.06061212,1.473883033,1.603708267,1.610898614,2024-06-04 14:53:05.060612
55.10108097,2.515681028,-1.092929125,1.803572655,2024-06-04 14:53:05.101081
55.14156118,2.749765873,-1.442192316,2.254698753,2024-06-04 14:53:05.141561
55.18204873,2.925529242,-2.280397654,2.140452623,2024-06-04 14:53:05.182049
55.22253826,2.678128958,-1.609167695,1.33234024,2024-06-04 14:53:05.222538
55.26303008,1.915821552,-1.5234164,0.7822805047,2024-06-04 14:53:05.263030
55.30351133,1.156976223,-1.099054217,0.3637770712,2024-06-04 14:53:05.303511
55.34401951,0.2153102309,-0.7117088437,0.4090494812,2024-06-04 14:53:05.344020
55.3845317,-0.003328853287,-1.470421076,0.5625761747,2024-06-04 14:53:05.384532
55.42502628,-0.03155753016,-2.24151659,0.5175700784,2024-06-04 14:53:05.425026
55.46544357,0.06937330216,-1.037536979,0.3209014535,2024-06-04 14:53:05.465444
55.5059054,-1.144459724,-0.9067795873,0.03941362351,2024-06-04 14:53:05.505905
55.54643784,-2.245644331,0.6688331962,0.09161003679,2024-06-04 14:53:05.546438
55.58690493,-3.065474272,2.384257793,-0.1820216924,2024-06-04 14:53:05.586905
55.62740873,-3.333779812,3.110347271,-0.4480636418,2024-06-04 14:53:05.627409
55.66789342,-2.997299433,2.597836971,-0.7565817833,2024-06-04 14:53:05.667893
55.70838227,-2.168681383,1.544055223,-1.425947547,2024-06-04 14:53:05.708382
55.74887425,-1.467092156,0.4205007255,-2.008763075,2024-06-04 14:53:05.748874
55.78936753,-0.7785521746,-0.1391460598,-2.460688353,2024-06-04 14:53:05.789368
55.82987904,-0.9519188404,-1.293459177,-1.19572401,2024-06-04 14:53:05.829879
55.87035451,-1.2027812,-0.7770875096,0.1520620137,2024-06-04 14:53:05.870355
55.91085409,-1.124752879,1.084274054,0.5228962898,2024-06-04 14:53:05.910854
55.95134238,-1.490527272,1.971080542,0.8464608192,2024-06-04 14:53:05.951342
55.99179321,-1.080013156,0.3379451632,-0.382019192,2024-06-04 14:53:05.991793
56.03230894,-0.8344769478,0.4308867455,-0.7331466079,2024-06-04 14:53:06.032309
56.07280284,-0.9508536458,0.113447316,-0.6472622156,2024-06-04 14:53:06.072803
56.1132642,-0.8288844228,0.2029268891,-0.7608426809,2024-06-04 14:53:06.113264
56.15378456,-0.6830806732,0.609446466,-0.4858794212,2024-06-04 14:53:06.153785
56.19427284,-0.006258244161,0.06710968167,0.09400681406,2024-06-04 14:53:06.194273
56.23479149,1.09399426,-0.2073209733,0.2964010835,2024-06-04 14:53:06.234791
56.2751879,2.024475336,0.3999949992,0.9223586321,2024-06-04 14:53:06.275188
56.31566665,2.274272442,-0.243006289,1.50224483,2024-06-04 14:53:06.315667
56.35617769,2.724999189,-0.3982639909,1.207974195,2024-06-04 14:53:06.356178
56.39666571,2.022877455,1.226083159,0.9106410742,2024-06-04 14:53:06.396666
56.43716774,2.383059502,-0.01411433797,1.644719839,2024-06-04 14:53:06.437168
56.47766722,3.137111187,-1.488796353,1.882399917,2024-06-04 14:53:06.477667
56.51817441,3.316336632,-1.968550682,2.314618111,2024-06-04 14:53:06.518174
56.55863165,3.562139273,-1.900508881,1.476146698,2024-06-04 14:53:06.558632
56.59913238,2.574535131,-1.791056156,0.7540518045,2024-06-04 14:53:06.599132
56.63961238,1.433404207,-1.232474566,0.4284899831,2024-06-04 14:53:06.639612
56.68011883,0.1556571722,0.1248985752,0.4974638224,2024-06-04 14:53:06.680119
56.72060659,-0.2151770741,-0.09054480493,0.7705629468,2024-06-04 14:53:06.720607
56.76111087,0.3109148741,-1.210903645,0.9907998443,2024-06-04 14:53:06.761111
56.80164993,0.7906692028,-1.850975513,0.5127765536,2024-06-04 14:53:06.801650
56.84205649,-0.3765598834,-1.542856932,-0.0596530512,2024-06-04 14:53:06.842056
56.88255087,-1.696117282,-0.4651073813,0.04846810177,2024-06-04 14:53:06.882551
56.9230542,-2.302634239,0.9993217587,-0.2544575334,2024-06-04 14:53:06.923054
56.96354258,-3.234180689,2.498770475,-0.5814840794,2024-06-04 14:53:06.963543
57.0040105,-3.738302231,3.54482913,-0.8282186985,2024-06-04 14:53:07.004010
57.04454404,-3.665333748,3.214473724,-0.9339430332,2024-06-04 14:53:07.044544
57.08499138,-3.00821805,1.911693811,-1.36309886,2024-06-04 14:53:07.084991
57.1254642,-1.920482039,0.8011884093,-2.242315531,2024-06-04 14:53:07.125464
57.16595243,-0.1291595101,-0.01704372838,-2.821669102,2024-06-04 14:53:07.165952
57.20644071,-0.8925321102,-2.036725521,-0.7379401922,2024-06-04 14:53:07.206441
57.2469356,-1.064567208,-0.2454030514,-0.07270215452,2024-06-04 14:53:07.246936
57.28744451,-1.67374742,1.49851656,0.5418041348,2024-06-04 14:53:07.287445
57.32794071,-1.348052382,0.7870740294,0.1853505522,2024-06-04 14:53:07.327941
57.36841831,-0.9963923693,0.0,-0.993329823,2024-06-04 14:53:07.368418
57.40890462,-1.175085187,0.2335523367,-0.8340774775,2024-06-04 14:53:07.408905
57.44938852,-0.7876066566,-0.07696308941,-0.8226261735,2024-06-04 14:53:07.449389
57.48988758,-0.4676373005,0.1616491079,-0.2595174015,2024-06-04 14:53:07.489888
57.53035889,-0.02596505545,-0.0298265256,0.1312899739,2024-06-04 14:53:07.530359
57.57085508,0.6338136196,-0.3010614812,0.3462007344,2024-06-04 14:53:07.570855
57.61133842,1.682668686,0.3707011044,0.7223611474,2024-06-04 14:53:07.611338
57.65183446,2.230331659,0.2924064696,1.57201767,2024-06-04 14:53:07.651834
57.69231409,2.619274855,-0.01837527007,1.412498951,2024-06-04 14:53:07.692314
57.73278837,2.690379143,1.042197347,0.8568468094,2024-06-04 14:53:07.732788
57.773298,1.619553685,1.296122313,1.483869553,2024-06-04 14:53:07.773298
57.81380295,2.893838644,-0.9150351882,2.112756491,2024-06-04 14:53:07.813803
57.85432232,3.397827148,-1.979469299,2.427932262,2024-06-04 14:53:07.854322
57.89479081,3.61952877,-2.396241665,1.729805231,2024-06-04 14:53:07.894791
57.935188,2.653628588,-1.840589523,0.9180977345,2024-06-04 14:53:07.935188
57.9756767,1.675212026,-1.20903945,0.426625818,2024-06-04 14:53:07.975677
58.01618055,0.5427362323,-0.2043915838,0.3677717149,2024-06-04 14:53:08.016181
58.05671508,-0.09054480493,0.05645735189,0.48468104,2024-06-04 14:53:08.056715
58.09720316,0.3969324529,-1.30038321,0.5330159664,2024-06-04 14:53:08.097203
58.1376842,0.1655105799,-1.647782326,0.432484597,2024-06-04 14:53:08.137684
58.17812675,0.2818872929,-1.274817586,-0.3402087986,2024-06-04 14:53:08.178127
58.21864888,-1.060039997,-0.9126383662,-0.415574044,2024-06-04 14:53:08.218649
58.25916024,-2.47866416,1.070958614,-0.2382127345,2024-06-04 14:53:08.259160
58.29963696,-3.114208698,2.766942739,-0.255256474,2024-06-04 14:53:08.299637
58.34014508,-3.540435076,3.425123692,-0.4366123974,2024-06-04 14:53:08.340145
58.38061712,-3.399558067,2.916341782,-0.8761541843,2024-06-04 14:53:08.380617
58.42108962,-2.891841412,1.734066248,-1.848046184,2024-06-04 14:53:08.421090
58.46160107,-2.051771879,0.1587197185,-3.077591419,2024-06-04 14:53:08.461601
58.50209618,-0.2095845938,-0.1183740199,-3.211144924,2024-06-04 14:53:08.502096
58.54256394,-1.879337311,-1.11183691,-0.7326140404,2024-06-04 14:53:08.542564
58.58305498,-1.250184059,-0.2768274248,-0.07882724702,2024-06-04 14:53:08.583055
58.62355826,-0.9985228181,0.02503297664,0.292140156,2024-06-04 14:53:08.623558
58.66403201,-0.930880487,1.287866712,0.9228912592,2024-06-04 14:53:08.664032
58.70452081,-1.070425987,0.5383421183,0.1624480337,2024-06-04 14:53:08.704521
58.74500217,-0.7330134511,-0.1615159512,-0.8641703129,2024-06-04 14:53:08.745002
58.78548217,-0.9841421843,0.0926752761,-0.72142905,2024-06-04 14:53:08.785482
58.82600894,-1.016631722,0.1880136281,-0.7957290411,2024-06-04 14:53:08.826009
58.86651654,-0.5757584572,0.1701709777,-0.6062507629,2024-06-04 14:53:08.866517
58.90694873,0.2422073632,-0.05432688445,0.001331541222,2024-06-04 14:53:08.906949
58.94740482,1.221689105,0.6520557404,0.3355484009,2024-06-04 14:53:08.947405
58.98795488,1.53380239,0.7825468183,1.085339308,2024-06-04 14:53:08.987955
59.02844519,1.683467627,0.02157096937,1.635665298,2024-06-04 14:53:09.028445
59.06890883,2.388651848,0.4862788618,1.569354534,2024-06-04 14:53:09.068909
59.1094131,2.246842861,0.7159697413,0.9396686554,2024-06-04 14:53:09.109413
59.14989399,1.957099319,1.237268209,1.322486758,2024-06-04 14:53:09.149894
59.19038243,3.516334295,-0.1734998226,2.193448067,2024-06-04 14:53:09.190382
59.23088128,4.005675793,-2.381062031,2.28718853,2024-06-04 14:53:09.230881
59.27134019,4.15747118,-2.450036049,1.205577493,2024-06-04 14:53:09.271340
59.31184852,2.721537113,-1.48107338,0.6605776548,2024-06-04 14:53:09.311849
59.35237764,1.563096285,-1.100918293,0.6757571697,2024-06-04 14:53:09.352378
59.39284019,0.3444697261,-0.2515281439,0.8488575816,2024-06-04 14:53:09.392840
59.43329935,-0.079493016,-0.6211640239,0.9258206487,2024-06-04 14:53:09.433299
59.47379498,-0.2109161317,-1.367359757,0.7532529235,2024-06-04 14:53:09.473795
59.51435175,-0.4894745648,-1.117429495,0.2111824453,2024-06-04 14:53:09.514352
59.5548242,0.009720250964,-0.722627461,0.004793548491,2024-06-04 14:53:09.554824
59.59522159,-1.210237861,-0.6880073547,0.06604444981,2024-06-04 14:53:09.595222
59.63574607,-2.147376537,0.5841471553,-0.05592473224,2024-06-04 14:53:09.635746
59.67628972,-2.758953571,1.711429954,-0.5615109801,2024-06-04 14:53:09.676290
59.71677889,-3.257615805,2.610087156,-0.7098446488,2024-06-04 14:53:09.716779
59.75723029,-3.558011532,2.97000289,-0.8790835738,2024-06-04 14:53:09.757230
59.797698,-3.309013128,2.437253237,-1.361767292,2024-06-04 14:53:09.797698
59.83820837,-2.885183573,0.796394825,-2.434856415,2024-06-04 14:53:09.838208
59.87869639,-0.9596418142,0.05166380107,-3.521394014,2024-06-04 14:53:09.878696
59.91917706,-0.5414046645,-0.7805495262,-0.9848079085,2024-06-04 14:53:09.919177
59.95966623,-0.7519213557,-1.245790005,0.04314193875,2024-06-04 14:53:09.959666
60.0001293,-0.8246235251,0.1517957002,0.3272928596,2024-06-04 14:53:10.000129
60.04061862,-1.416493654,1.765224218,0.851254344,2024-06-04 14:53:10.040619
60.08114295,-1.082942486,-0.4890751243,-0.5037220716,2024-06-04 14:53:10.081143
60.12162217,-1.055512786,0.1637795717,-0.843398273,2024-06-04 14:53:10.121622
60.16207717,-1.277880192,-0.2395442724,-0.9682968259,2024-06-04 14:53:10.162077
60.20256482,-0.8552489877,0.1802906841,-0.7392717004,2024-06-04 14:53:10.202565
60.24308081,-0.3027924895,0.195203945,-0.4296883643,2024-06-04 14:53:10.243081
60.28354441,0.4182371199,0.1280942708,0.05512581021,2024-06-04 14:53:10.283544
60.32405357,1.61476016,-0.007722939365,0.7394048572,2024-06-04 14:53:10.324054
60.36456253,2.040986538,0.7173013091,1.369357109,2024-06-04 14:53:10.364563
60.40504139,2.065753222,0.6065170765,1.808366179,2024-06-04 14:53:10.405041
60.44549472,2.469609499,0.05326165259,1.397852063,2024-06-04 14:53:10.445495
60.48600696,1.912625909,1.516625524,1.143261313,2024-06-04 14:53:10.486007
60.52651071,2.209559679,0.09533835202,1.593322277,2024-06-04 14:53:10.526511
60.56701008,2.796902418,-0.6493926644,2.044049025,2024-06-04 14:53:10.567010
60.60746326,2.828326941,-1.45737195,2.238454103,2024-06-04 14:53:10.607463
60.64795352,2.634987116,-1.103847742,1.985194921,2024-06-04 14:53:10.647954
60.68842331,2.038057089,-1.307307243,1.421287179,2024-06-04 14:53:10.688423
60.72891826,1.482937574,-1.624080896,0.80864501,2024-06-04 14:53:10.728918
60.76942191,0.7773538232,-1.158707261,0.5047873259,2024-06-04 14:53:10.769422
60.80990784,0.4270252883,-1.389463305,0.7599105835,2024-06-04 14:53:10.809908
60.85038201,-0.0126496423,-2.181330919,0.824090898,2024-06-04 14:53:10.850382
60.89087831,-0.2548570037,-1.229012609,0.214644447,2024-06-04 14:53:10.890878
60.9313767,-0.1302247345,-0.8199630976,-0.2848166823,2024-06-04 14:53:10.931377
60.9718629,-1.521152735,-0.354855746,-0.4352808297,2024-06-04 14:53:10.971863
