Time (s),Linear Acceleration x (m/s^2),Linear Acceleration y (m/s^2),Linear Acceleration z (m/s^2),Datetime
0.11439969,-0.5172169209,-0.04512524605,-0.8177981377,2024-06-04 14:52:10.114400
0.154825628,0.9782791138,0.3237514496,0.03062152863,2024-06-04 14:52:10.154826
0.239904846,0.7225270271,-0.5183269978,2.877346039,2024-06-04 14:52:10.239905
0.280276826,-0.5215598941,0.2655267715,-1.932999611,2024-06-04 14:52:10.280277
0.320789898,-1.022486567,-0.8773319721,0.1821594238,2024-06-04 14:52:10.320790
0.361314221,-1.36267662,-0.1427531242,-1.779401302,2024-06-04 14:52:10.361314
0.40178719,-0.5204308033,0.2256469727,-4.001356602,2024-06-04 14:52:10.401787
0.441876148,4.314885616,0.8095104694,2.604606628,2024-06-04 14:52:10.441876
0.482764742,-0.1641314328,0.6674830914,-2.144348145,2024-06-04 14:52:10.482765
0.52325943,-2.037323475,-0.1935133934,-1.039665222,2024-06-04 14:52:10.523259
0.563753023,-1.510884523,-0.05520009995,1.26414299,2024-06-04 14:52:10.563753
0.604194534,1.069467306,0.3526697159,0.3790369034,2024-06-04 14:52:10.604195
0.644743805,-0.2500826716,1.302073479,0.7310848236,2024-06-04 14:52:10.644744
0.684891096,-1.351393461,-0.09371542931,-0.4163017273,2024-06-04 14:52:10.684891
0.72582594,1.084105253,-0.9118447304,-0.6909971237,2024-06-04 14:52:10.725826
0.766279169,0.5604923964,-0.09717059135,-0.3765420914,2024-06-04 14:52:10.766279
0.806769221,-0.1143647432,-0.6122729778,-2.036523819,2024-06-04 14:52:10.806769
0.84719844,1.157186747,-0.3645194769,0.4348268509,2024-06-04 14:52:10.847198
0.887694326,0.2855011225,-0.6269265413,1.745080948,2024-06-04 14:52:10.887694
0.928161721,-0.8980394602,0.1078253984,0.7853412628,2024-06-04 14:52:10.928162
0.968671409,-0.4428424835,0.4637413025,1.164871216,2024-06-04 14:52:10.968671
1.009142867,0.06857657433,0.1915156841,0.4134683609,2024-06-04 14:52:11.009143
1.049691773,-0.2505595684,-0.5573313236,0.08372974396,2024-06-04 14:52:11.049692
1.090112763,-0.4548401833,-0.3006578684,-0.056016922,2024-06-04 14:52:11.090113
1.130631513,0.9925434589,-1.325901031,-0.3027677536,2024-06-04 14:52:11.130632
1.171158388,3.120492935,-2.196014881,0.6945695877,2024-06-04 14:52:11.171158
1.211190055,2.875053644,-3.392631531,-2.74244833,2024-06-04 14:52:11.211190
1.252073909,9.16563797,-3.868053913,-6.479664326,2024-06-04 14:52:11.252074
1.292557555,6.912895203,-5.814287663,-4.495640755,2024-06-04 14:52:11.292558
1.333046721,1.031260252,-5.998764038,-1.970846653,2024-06-04 14:52:11.333047
1.373548909,0.4551141262,-4.838023663,-5.249388695,2024-06-04 14:52:11.373549
1.414060836,-11.19009876,-6.137975216,-5.554617882,2024-06-04 14:52:11.414061
1.454535732,-10.46411037,-3.269249916,2.64494133,2024-06-04 14:52:11.454536
1.494992555,-10.85948181,-1.461933136,4.371327877,2024-06-04 14:52:11.494993
1.535512398,-19.35559273,-0.9016475677,0.4519353509,2024-06-04 14:52:11.535512
1.575948753,-11.48021698,2.153396606,9.701238632,2024-06-04 14:52:11.575949
1.616350732,-10.82187653,3.982931614,6.929319382,2024-06-04 14:52:11.616351
1.656927242,-4.578699112,2.52610445,12.02583122,2024-06-04 14:52:11.656927
1.69728469,5.343591213,1.410349846,-1.540040255,2024-06-04 14:52:11.697285
1.737836826,13.61471939,1.549185753,-8.599164009,2024-06-04 14:52:11.737837
1.778346253,7.582527161,0.03688669205,0.3712248802,2024-06-04 14:52:11.778346
1.818818857,0.3944849968,-3.150966644,-0.168243885,2024-06-04 14:52:11.818819
1.859304794,0.205517292,-3.462255001,-0.1699066162,2024-06-04 14:52:11.859305
1.89978719,-0.7965269089,-2.873219967,-0.3242120743,2024-06-04 14:52:11.899787
1.940271148,-3.03503418,-3.15737915,-0.2260317802,2024-06-04 14:52:11.940271
1.980774065,-2.320845127,-1.845890999,0.7253007889,2024-06-04 14:52:11.980774
2.02126943,1.935081124,3.947603703,0.4913511276,2024-06-04 14:52:12.021269
2.061801305,3.332591534,3.139253616,0.1196241379,2024-06-04 14:52:12.061801
2.102235836,0.804898262,-1.53854847,-1.847293615,2024-06-04 14:52:12.102236
2.142726305,-8.987630844,-1.642272949,0.8237526417,2024-06-04 14:52:12.142726
2.183189326,-3.163101196,-10.20573711,2.278070688,2024-06-04 14:52:12.183189
2.22338469,6.911011696,-0.6238307953,-3.107815981,2024-06-04 14:52:12.223385
2.264253284,1.172774076,1.690481186,-3.775781155,2024-06-04 14:52:12.264253
2.304672138,-0.1826775074,0.4828462601,-2.071766853,2024-06-04 14:52:12.304672
2.345175888,1.100833893,0.6884899139,-1.789613008,2024-06-04 14:52:12.345176
2.385650784,1.587306023,0.5886564255,-0.3470973969,2024-06-04 14:52:12.385651
2.426073023,0.5534563065,-1.099601746,1.080058336,2024-06-04 14:52:12.426073
2.466592451,-0.7947483063,-1.092119217,1.089581966,2024-06-04 14:52:12.466592
2.507129534,0.2872788906,3.409927845,-0.6489527225,2024-06-04 14:52:12.507130
2.547632711,0.7332086563,4.831138611,-0.1669282913,2024-06-04 14:52:12.547633
2.588108128,3.042295933,-0.5052394867,-2.353938341,2024-06-04 14:52:12.588108
2.628604638,2.774308443,-3.395378113,0.4480338097,2024-06-04 14:52:12.628605
2.669030315,-0.9813959599,0.4616661072,-0.574051857,2024-06-04 14:52:12.669030
2.70943318,-3.444886208,-1.255684853,-1.808375835,2024-06-04 14:52:12.709433
2.75006943,-0.5346190929,-1.472301483,0.1292184591,2024-06-04 14:52:12.750069
2.790570628,1.077618122,0.1869258881,0.5165742636,2024-06-04 14:52:12.790571
2.831067711,-0.1765255928,0.8830065727,0.2075008154,2024-06-04 14:52:12.831068
2.871557138,-0.8098933697,0.05065727234,1.278535724,2024-06-04 14:52:12.871557
2.912041305,0.1151881218,-0.3464307785,0.7720620632,2024-06-04 14:52:12.912041
2.952518128,0.6456503868,-0.9756450653,-0.2637494802,2024-06-04 14:52:12.952518
2.993026461,0.1478657722,0.6324462891,0.4936071634,2024-06-04 14:52:12.993026
3.033540836,-1.100448608,-0.3405542374,-1.315898538,2024-06-04 14:52:13.033541
3.074016669,2.22199297,1.326776505,2.074013948,2024-06-04 14:52:13.074017
3.114425576,2.738432884,1.392877579,-0.7383636236,2024-06-04 14:52:13.114426
3.154845419,1.141135216,0.5127897263,0.39694345,2024-06-04 14:52:13.154845
3.195384221,-0.6818346977,-0.5452079773,-1.568553686,2024-06-04 14:52:13.195384
3.236026253,-0.6542921066,-0.08358478546,-1.613608837,2024-06-04 14:52:13.236026
3.276466305,-1.820098877,-1.309645653,-1.407593012,2024-06-04 14:52:13.276466
3.316924273,-2.509634972,-1.770217896,-1.161456227,2024-06-04 14:52:13.316924
3.357417346,-0.6609623432,-0.4947385788,-1.252173662,2024-06-04 14:52:13.357417
3.397900784,2.622640371,0.5634946823,-0.4664052725,2024-06-04 14:52:13.397901
3.438285888,4.054504395,1.590361118,-0.1338603497,2024-06-04 14:52:13.438286
3.478885315,2.921825171,3.24815464,0.6355576515,2024-06-04 14:52:13.478885
3.51940318,-0.1530365944,0.934533596,-2.518388748,2024-06-04 14:52:13.519403
3.559891617,-1.962769032,-1.61782074,-1.443415284,2024-06-04 14:52:13.559892
3.600382034,-1.378610611,-0.8272027969,-1.281368017,2024-06-04 14:52:13.600382
3.640890367,-0.6488215923,-0.1058492661,-1.531938076,2024-06-04 14:52:13.640890
3.681294065,-0.4017672539,-1.784830093,-1.07347405,2024-06-04 14:52:13.681294
3.721816982,-1.350039005,-0.6780052185,-1.442209601,2024-06-04 14:52:13.721817
3.762307659,-1.953997374,-1.057195663,-2.114916325,2024-06-04 14:52:13.762308
3.802774013,-0.9126567841,-0.5880384445,-0.8342260122,2024-06-04 14:52:13.802774
3.84329693,0.08182144165,0.316204071,-1.258363485,2024-06-04 14:52:13.843297
3.883799638,1.416320324,0.8042807579,1.028859496,2024-06-04 14:52:13.883800
3.924259273,0.5068182945,-0.02731704712,-0.8109760284,2024-06-04 14:52:13.924259
3.964654846,0.8933382034,-0.3935604095,1.097875953,2024-06-04 14:52:13.964655
4.005196044,2.354383945,1.124316216,0.5152163506,2024-06-04 14:52:14.005196
4.045650888,1.260281563,0.8018479347,0.5779426098,2024-06-04 14:52:14.045651
4.086275003,1.260686874,-0.2847471237,0.3963088989,2024-06-04 14:52:14.086275
4.126695576,0.287694931,1.188383102,-0.3088212013,2024-06-04 14:52:14.126696
4.16718344,-1.148858786,2.246054649,-1.459262371,2024-06-04 14:52:14.167183
4.207552034,-0.6051688194,1.808213711,-2.598502636,2024-06-04 14:52:14.207552
4.248164846,0.3101458549,1.119020939,-1.792491913,2024-06-04 14:52:14.248165
4.288660107,2.188313246,0.1004400253,-0.4785746336,2024-06-04 14:52:14.288660
4.329199013,0.5788714886,-2.786708832,2.309171677,2024-06-04 14:52:14.329199
4.369618023,0.4463715553,-1.724484444,3.470875025,2024-06-04 14:52:14.369618
4.410103544,0.4540457726,0.6070966721,1.58306396,2024-06-04 14:52:14.410104
4.450665732,0.5071773529,1.987167358,-0.2777514458,2024-06-04 14:52:14.450666
4.491060055,-1.804090023,-1.279138565,0.1868098974,2024-06-04 14:52:14.491060
4.531625628,-0.3189239502,-1.063254356,0.04870271683,2024-06-04 14:52:14.531626
4.57207969,1.607393742,1.390579224,0.2270554304,2024-06-04 14:52:14.572080
4.612599169,0.6951360703,0.5903053284,-0.3907502294,2024-06-04 14:52:14.612599
4.653028648,0.05452442169,-0.31498909,0.1067391634,2024-06-04 14:52:14.653029
4.693420315,-0.1245865822,0.08146762848,-0.2904419303,2024-06-04 14:52:14.693420
4.734052815,-0.3305864334,0.7780609131,-0.2525885105,2024-06-04 14:52:14.734053
4.774476201,-0.8905544281,-0.09876155853,-0.3163329363,2024-06-04 14:52:14.774476
4.814989013,0.09720897675,0.05747032166,0.6013785601,2024-06-04 14:52:14.814989
4.855439169,0.2179465294,0.02984714508,0.1087694168,2024-06-04 14:52:14.855439
4.895835523,1.08548975,0.1217432022,0.7753312588,2024-06-04 14:52:14.895836
4.936410315,1.34192276,0.4610757828,0.09663367271,2024-06-04 14:52:14.936410
4.976820992,-0.1120996475,0.1230993271,-0.8411425352,2024-06-04 14:52:14.976821
5.017429951,-0.5364506245,-0.4429302216,-0.507645309,2024-06-04 14:52:15.017430
5.057917659,-0.218776226,0.04927921295,-0.1714820862,2024-06-04 14:52:15.057918
5.098399638,-0.0616569519,0.2167711258,-0.4519720674,2024-06-04 14:52:15.098400
5.138948805,0.659386158,0.5153751373,-0.3901560307,2024-06-04 14:52:15.138949
5.179376982,0.5905237198,0.3881120682,-0.4230540991,2024-06-04 14:52:15.179377
5.219787607,0.2436127663,0.220908165,-0.8367019296,2024-06-04 14:52:15.219788
5.260348909,0.9474239349,0.6081266403,-0.1702713966,2024-06-04 14:52:15.260349
5.300837034,0.5078058243,0.380153656,-0.4634643793,2024-06-04 14:52:15.300837
5.341324378,0.1028957367,0.06777381897,-0.6267147064,2024-06-04 14:52:15.341324
5.38182969,0.4477367401,-0.05333709717,-0.3121297359,2024-06-04 14:52:15.381830
5.422296773,0.034532547,-0.03136444092,-0.1232875586,2024-06-04 14:52:15.422297
5.46284693,0.1872844696,0.301990509,-0.1043689251,2024-06-04 14:52:15.462847
5.503273805,0.1417031288,0.3413114548,0.2439459562,2024-06-04 14:52:15.503274
5.54383068,-0.04049158096,-0.1169919968,-0.07481026649,2024-06-04 14:52:15.543831
5.584271513,0.01647424698,-0.2824697495,-0.2418785095,2024-06-04 14:52:15.584272
5.624751096,0.5399241447,0.03277111053,-0.4345645905,2024-06-04 14:52:15.624751
5.665232138,-0.03865480423,-0.2106275558,-0.515755415,2024-06-04 14:52:15.665232
5.705695836,0.03499794006,-0.05848503113,0.6271370649,2024-06-04 14:52:15.705696
5.746229065,0.6557650566,0.8499975204,0.3592566252,2024-06-04 14:52:15.746229
5.786691721,0.205186367,0.3835229874,0.3739289641,2024-06-04 14:52:15.786692
5.827180628,0.1003155708,0.1104288101,-0.7706318498,2024-06-04 14:52:15.827181
5.867680159,0.4024364948,-0.6200284958,-0.3147298694,2024-06-04 14:52:15.867680
5.90815443,0.8304150105,-0.2191400528,0.49199754,2024-06-04 14:52:15.908154
5.948661982,1.559189081,1.005473137,0.2357510924,2024-06-04 14:52:15.948662
5.989186305,-0.0766890049,0.3217601776,-0.5692888498,2024-06-04 14:52:15.989186
6.02967094,0.1017913818,1.052451134,1.378443837,2024-06-04 14:52:16.029671
6.070150367,-1.409178495,0.1135444641,-1.370959163,2024-06-04 14:52:16.070150
6.110597971,-0.4638669491,0.3291730881,-1.054432392,2024-06-04 14:52:16.110598
6.151091253,-0.8370847702,-0.4778642654,-2.036082983,2024-06-04 14:52:16.151091
6.191571357,-0.7025160789,-0.8468465805,1.201121092,2024-06-04 14:52:16.191571
6.232043701,0.7625715733,0.04223537445,0.6033993959,2024-06-04 14:52:16.232044
6.272565576,0.7608795166,0.01183414459,0.05596482754,2024-06-04 14:52:16.272566
6.313068805,0.317684412,-0.4880657196,0.6110144854,2024-06-04 14:52:16.313069
6.353559117,0.6508667469,-0.8491668701,1.631433487,2024-06-04 14:52:16.353559
6.394020315,1.205028772,-1.167000771,2.018960714,2024-06-04 14:52:16.394020
6.434503284,1.756045103,-0.1682004929,0.03520655632,2024-06-04 14:52:16.434503
6.475015419,-0.194475174,0.5987854004,-4.311460495,2024-06-04 14:52:16.475015
6.51547318,-1.641866446,0.2871084213,-4.056331158,2024-06-04 14:52:16.515473
6.55595943,0.6169300079,2.294561863,-1.970511913,2024-06-04 14:52:16.555959
6.596470367,-0.01100969315,1.964060783,-1.422187686,2024-06-04 14:52:16.596470
6.636978909,-0.2266569138,1.346369267,-0.8463301659,2024-06-04 14:52:16.636979
6.677440888,0.3450312614,0.4874887466,0.119553566,2024-06-04 14:52:16.677441
6.717915419,0.701125145,-0.3423042297,1.131515026,2024-06-04 14:52:16.717915
6.758407815,0.2734780312,-0.5195684433,2.235793591,2024-06-04 14:52:16.758408
6.798914117,0.7324476242,-0.715845108,2.677393198,2024-06-04 14:52:16.798914
6.83939318,0.2764024734,0.2248897552,1.809800386,2024-06-04 14:52:16.839393
6.879866201,-0.65320611,1.205753326,0.8328790665,2024-06-04 14:52:16.879866
6.920359742,0.586915493,-0.9904737473,-0.2052508593,2024-06-04 14:52:16.920360
6.960904586,2.480980396,-0.1348457336,-0.7152352333,2024-06-04 14:52:16.960905
7.001360107,0.4460129738,-0.7319688797,2.451308727,2024-06-04 14:52:17.001360
7.041834065,0.327694416,2.4884758,-1.009744763,2024-06-04 14:52:17.041834
7.082328753,0.3466534615,0.7258052826,-0.6251654625,2024-06-04 14:52:17.082329
7.122841513,-0.1895420551,-1.551496506,1.071897984,2024-06-04 14:52:17.122842
7.163354065,-1.071625471,-0.2017650604,-1.382176161,2024-06-04 14:52:17.163354
7.203809586,-0.6776278019,-0.5357341766,-0.6559008956,2024-06-04 14:52:17.203810
7.244254326,-0.3151702881,-0.3146047592,0.7998025417,2024-06-04 14:52:17.244254
7.284721982,0.5391123295,-0.3424663544,-0.6955126524,2024-06-04 14:52:17.284722
7.32520344,-1.476769328,-0.6602706909,-1.088657856,2024-06-04 14:52:17.325203
7.365664742,-1.130567551,0.3763122559,-0.9747729301,2024-06-04 14:52:17.365665
7.406218336,-0.7466320992,-0.6211061478,-1.351012945,2024-06-04 14:52:17.406218
7.446698701,1.306307316,0.7086524963,-1.155569077,2024-06-04 14:52:17.446699
7.487209951,1.365643024,0.1536865234,-0.9913386703,2024-06-04 14:52:17.487210
7.527717815,0.6786184311,0.4646463394,-0.6668843031,2024-06-04 14:52:17.527718
7.568167086,-0.7961120605,-0.227560997,-0.6936009526,2024-06-04 14:52:17.568167
7.608685419,-1.275054693,-0.8047647476,-1.372946501,2024-06-04 14:52:17.608685
7.64917969,-1.043542624,-1.403787613,-0.6801958084,2024-06-04 14:52:17.649180
7.689636305,-0.02315044403,-0.03498077393,-0.9734769464,2024-06-04 14:52:17.689636
7.730125211,0.6431772709,-0.7539024353,-2.105443716,2024-06-04 14:52:17.730125
7.77062844,-2.463391542,-0.4653873444,-1.458805084,2024-06-04 14:52:17.770628
7.811134117,-1.195383549,-1.258118629,-0.2033658028,2024-06-04 14:52:17.811134
7.851593596,0.1710176468,-0.1508893967,-0.3929674625,2024-06-04 14:52:17.851594
7.892062919,1.385586977,0.5838918686,-1.332223654,2024-06-04 14:52:17.892063
7.932568805,2.667551279,1.485252857,-0.04795765877,2024-06-04 14:52:17.932569
7.973055315,-0.173712492,-0.560377121,-1.725090146,2024-06-04 14:52:17.973055
8.013591669,-1.026119709,0.4951438904,0.3177378178,2024-06-04 14:52:18.013592
8.054091721,-0.8084163666,1.453372478,1.349013448,2024-06-04 14:52:18.054092
8.094506461,-0.8003234863,0.2047433853,1.488475561,2024-06-04 14:52:18.094506
8.13496943,0.9122123718,-0.0265083313,0.9444984198,2024-06-04 14:52:18.134969
8.175468492,0.713183403,-0.8479404449,0.9700095654,2024-06-04 14:52:18.175468
8.215931409,0.3703284264,0.4541158676,0.6289415359,2024-06-04 14:52:18.215931
8.256483648,-0.3193616867,0.6915426254,-0.2121762037,2024-06-04 14:52:18.256484
8.296966201,-0.6694746017,-0.087225914,0.3476195335,2024-06-04 14:52:18.296966
8.337469378,-0.2621836662,-0.2192640305,1.52929318,2024-06-04 14:52:18.337469
8.377914742,0.501783371,0.2841615677,2.221561909,2024-06-04 14:52:18.377915
8.418428857,1.191850185,0.7520637512,1.890100837,2024-06-04 14:52:18.418429
8.458898284,0.4140377045,0.3757839203,0.7244955301,2024-06-04 14:52:18.458898
8.499415784,0.08920478821,-0.497841835,0.2677172422,2024-06-04 14:52:18.499416
8.539906409,0.6520991325,-0.4819488525,0.3295493126,2024-06-04 14:52:18.539906
8.580384065,0.6944236755,0.8805513382,-1.453640103,2024-06-04 14:52:18.580384
8.620873701,-0.6217851639,1.576190948,-1.511829495,2024-06-04 14:52:18.620874
8.661346721,-0.5545969009,1.323692322,-1.088468909,2024-06-04 14:52:18.661347
8.70179469,0.09692716599,0.4210186005,-0.4746689796,2024-06-04 14:52:18.701795
8.742351565,-0.06422519684,-0.5288524628,0.7513998747,2024-06-04 14:52:18.742352
8.782804273,0.1046028137,0.1963014603,0.3248801231,2024-06-04 14:52:18.782804
8.823315159,0.5282850266,-0.1229610443,0.3582862616,2024-06-04 14:52:18.823315
8.86383318,1.860579491,-1.457245827,1.137235999,2024-06-04 14:52:18.863833
8.904290367,1.36002636,0.6989173889,1.223463416,2024-06-04 14:52:18.904290
8.944770576,-1.304866076,0.2983131409,0.3043165207,2024-06-04 14:52:18.944771
8.985242607,-2.301597118,-0.7059469223,-0.3003410101,2024-06-04 14:52:18.985243
9.025764378,-1.321127892,-1.347491264,-0.6627759337,2024-06-04 14:52:19.025764
9.066239534,0.4796309471,-0.03595066071,0.2096934319,2024-06-04 14:52:19.066240
9.10672318,1.821765661,0.9813985825,0.02969968319,2024-06-04 14:52:19.106723
9.147218648,-1.015717268,-0.3312654495,-0.147934258,2024-06-04 14:52:19.147219
9.187716096,-1.481934547,-0.7351055145,-0.6779072285,2024-06-04 14:52:19.187716
9.228192607,0.9744215012,0.5151386261,0.5671490431,2024-06-04 14:52:19.228193
9.268683857,0.906113863,0.4740028381,0.003846645355,2024-06-04 14:52:19.268684
9.309170471,0.5909347534,0.4096956253,0.008452296257,2024-06-04 14:52:19.309170
9.349665107,-0.06986808777,0.04713726044,-0.3210151196,2024-06-04 14:52:19.349665
9.390137451,0.2219562531,-0.01134681702,0.013194561,2024-06-04 14:52:19.390137
9.430643909,0.7041695118,0.2463598251,-0.2553907633,2024-06-04 14:52:19.430644
9.471138753,0.96189785,0.2650747299,-0.3175541162,2024-06-04 14:52:19.471139
9.511606669,0.6895427704,0.2788648605,-0.2448204756,2024-06-04 14:52:19.511607
9.552113753,0.1573405266,0.2456617355,-0.5044767261,2024-06-04 14:52:19.552114
9.592596878,-0.5129718781,-0.1836509705,-0.1041275859,2024-06-04 14:52:19.592597
9.633070003,-0.3999013901,-0.1734771729,0.09584069252,2024-06-04 14:52:19.633070
9.673555784,-0.2050449848,0.0435667038,0.1331208944,2024-06-04 14:52:19.673556
9.714020628,-0.09760165215,0.1637763977,0.2467514873,2024-06-04 14:52:19.714021
9.754544169,0.1144559383,-0.2741956711,0.6068532467,2024-06-04 14:52:19.754544
9.795035055,-0.02165436745,0.0366601944,0.7460846901,2024-06-04 14:52:19.795035
9.835498596,-0.03952765465,0.05554580688,0.1532558203,2024-06-04 14:52:19.835499
9.876024898,0.0459215641,-0.07666015625,0.1106830835,2024-06-04 14:52:19.876025
9.916506669,0.1978745461,0.2686414719,-0.416744709,2024-06-04 14:52:19.916507
9.956967138,0.3030109406,0.208530426,0.1043483019,2024-06-04 14:52:19.956967
9.997460263,-0.04133272171,-0.2601442337,0.8165060282,2024-06-04 14:52:19.997460
10.03795365,0.1652460098,-1.024930954,1.643603325,2024-06-04 14:52:20.037954
10.07843615,0.06111884117,-1.223500252,1.791332483,2024-06-04 14:52:20.078436
10.11895563,0.7034204006,-0.696896553,0.9721205235,2024-06-04 14:52:20.118956
10.1594387,1.1609478,0.01531982422,-1.960151553,2024-06-04 14:52:20.159439
10.19990615,0.5592234135,0.8998904228,-3.580479622,2024-06-04 14:52:20.199906
10.24039354,-0.1099226475,1.247627258,-3.287071228,2024-06-04 14:52:20.240394
10.2808799,0.2241194248,1.51585865,-1.677525759,2024-06-04 14:52:20.280880
10.32137094,-0.6110386848,1.493999958,-1.540404797,2024-06-04 14:52:20.321371
10.36185261,-0.6954753399,1.792392254,-1.347607374,2024-06-04 14:52:20.361853
10.40233302,0.1156651974,-0.1172704697,0.4629867077,2024-06-04 14:52:20.402333
10.44281245,0.4779682159,-1.61889267,3.522338629,2024-06-04 14:52:20.442812
10.48336828,1.28543663,-0.9627599716,2.67118907,2024-06-04 14:52:20.483368
10.52385688,1.302919865,-1.144523621,2.702507734,2024-06-04 14:52:20.523857
10.56430011,1.508131981,-0.05502319336,0.9608500004,2024-06-04 14:52:20.564300
10.60475099,3.223185301,2.823600292,0.5029194355,2024-06-04 14:52:20.604751
10.6452436,-0.7039968967,0.6068630219,-2.052184343,2024-06-04 14:52:20.645244
10.68573308,-1.393905163,-1.728049278,-0.1626907587,2024-06-04 14:52:20.685733
10.72624214,-0.1624145508,-0.06573200226,-0.1627782583,2024-06-04 14:52:20.726242
10.76675021,1.018389702,0.7323150635,-0.2386678457,2024-06-04 14:52:20.766750
10.80720641,0.5744488239,0.3369684219,-0.3803266287,2024-06-04 14:52:20.807206
10.84771948,0.5595471859,0.01029396057,0.1740950346,2024-06-04 14:52:20.847719
10.88818094,-0.08157896996,0.01558303833,0.2735754251,2024-06-04 14:52:20.888181
10.92869099,-0.697961092,-0.1295003891,-0.3300268054,2024-06-04 14:52:20.928691
10.96917495,-0.0545065403,-0.08646297455,-0.3493696451,2024-06-04 14:52:20.969175
11.00970985,0.1869258881,0.1579856873,-0.2355241776,2024-06-04 14:52:21.009710
11.05014662,0.09895634651,0.1284999847,-0.03586310148,2024-06-04 14:52:21.050147
11.09064318,-0.3169867992,-0.2881879807,-0.07305938005,2024-06-04 14:52:21.090643
11.13118198,-0.2075936794,-0.1605329514,-0.6003475785,2024-06-04 14:52:21.131182
11.17161271,-0.16877985,0.2427816391,-0.4943144321,2024-06-04 14:52:21.171613
11.21210547,0.9029831886,0.8100423813,0.3801958561,2024-06-04 14:52:21.212105
11.25256381,0.3284926414,-0.05027389526,0.1511065364,2024-06-04 14:52:21.252564
11.29308912,-1.089240551,-0.8044672012,-0.5984909534,2024-06-04 14:52:21.293089
11.33360896,-1.429038882,-0.5228433609,-0.4257143736,2024-06-04 14:52:21.333609
11.37413193,-0.1808845997,0.02323913574,-0.2247062922,2024-06-04 14:52:21.374132
11.41452823,-0.1386873722,0.2457284927,-0.6397538781,2024-06-04 14:52:21.414528
11.45505568,-0.8571343422,-0.1827688217,-0.3510706425,2024-06-04 14:52:21.455056
11.49546302,-0.4263045788,-0.7176523209,-0.1130486131,2024-06-04 14:52:21.495463
11.5359936,-0.8326153755,0.2056808472,-1.172950268,2024-06-04 14:52:21.535994
11.57650875,-1.942974806,-0.5821199417,-0.6329533458,2024-06-04 14:52:21.576509
11.61699042,-1.941966891,-1.496055603,-0.3896923065,2024-06-04 14:52:21.616990
11.65744849,-0.7131130695,-0.6401557922,-0.8153544664,2024-06-04 14:52:21.657448
11.69791365,0.7335109711,0.7238273621,1.109005451,2024-06-04 14:52:21.697914
11.73845745,0.9778001308,0.7150907516,0.3046251535,2024-06-04 14:52:21.738457
11.77892037,2.410844088,-0.5414476395,-0.1049656868,2024-06-04 14:52:21.778920
11.81941969,2.384308338,-1.490715027,-0.2448539734,2024-06-04 14:52:21.819420
11.85991313,2.376883268,1.329694271,-1.269309163,2024-06-04 14:52:21.859913
11.90037662,1.152066469,1.255576134,-1.57254827,2024-06-04 14:52:21.900377
11.94086334,0.7133412361,0.6649742126,-0.05681300163,2024-06-04 14:52:21.940863
11.98136219,0.3671178818,0.8080978394,0.02905440331,2024-06-04 14:52:21.981362
12.02188313,0.3967368603,0.4720592499,-0.1424539089,2024-06-04 14:52:22.021883
12.06236979,-1.019179583,0.02581310272,0.2319552898,2024-06-04 14:52:22.062370
12.10283011,-0.8902962208,0.4300413132,0.2079827785,2024-06-04 14:52:22.102830
12.1433211,-0.3062589169,0.008661270142,0.3629479408,2024-06-04 14:52:22.143321
12.18385886,-0.8641750813,0.152923584,0.7453484535,2024-06-04 14:52:22.183859
12.22434282,-1.408928394,0.5693807602,0.8365240097,2024-06-04 14:52:22.224343
12.26482672,-0.3180532455,-0.6802310944,0.4735815525,2024-06-04 14:52:22.264827
12.30529823,2.027427197,-0.6472034454,0.8050291538,2024-06-04 14:52:22.305298
12.34578214,1.299337387,0.1627140045,0.3549411297,2024-06-04 14:52:22.345782
12.38626787,-0.5749924183,1.266138077,-0.08768582344,2024-06-04 14:52:22.386268
12.42674292,-0.766150713,0.3016996384,0.3456709385,2024-06-04 14:52:22.426743
12.46721219,-0.2933409214,-1.059259415,1.029246807,2024-06-04 14:52:22.467212
12.50769724,0.1492307186,-0.3101415634,0.8027627468,2024-06-04 14:52:22.507697
12.54819625,0.1742732525,-0.1877164841,0.4309842587,2024-06-04 14:52:22.548196
12.58869063,0.3608095646,0.2122793198,0.2223386765,2024-06-04 14:52:22.588691
12.62918198,0.9862701893,0.7006912231,-0.3771715164,2024-06-04 14:52:22.629182
12.66966922,0.9246411324,0.2462320328,-0.2195978165,2024-06-04 14:52:22.669669
12.71015729,0.9152607918,0.1906738281,-0.7195665836,2024-06-04 14:52:22.710157
12.75065172,2.063760519,0.3316087723,-0.5159657001,2024-06-04 14:52:22.750652
12.79114052,1.977144241,0.3971672058,-0.3090343475,2024-06-04 14:52:22.791141
12.83161896,2.540514231,0.2544145584,-0.9784368277,2024-06-04 14:52:22.831619
12.87210474,0.5793626308,0.7679586411,0.1309220791,2024-06-04 14:52:22.872105
12.91260922,-1.792853355,-0.1996278763,1.175226212,2024-06-04 14:52:22.912609
12.95309037,-2.644120216,-0.8780469894,0.1555347443,2024-06-04 14:52:22.953090
12.99359016,-1.337536812,0.365901947,-0.4238638878,2024-06-04 14:52:22.993590
13.03409427,1.327282667,1.293292999,0.4693286419,2024-06-04 14:52:23.034094
13.0745449,1.660228491,1.75625658,0.8942496777,2024-06-04 14:52:23.074545
13.11502875,0.2772922516,0.8508081436,0.08965373039,2024-06-04 14:52:23.115029
13.15547703,-0.2695813179,0.1666593552,0.2413964272,2024-06-04 14:52:23.155477
13.19595771,-0.1612381935,0.9646425247,0.1177909374,2024-06-04 14:52:23.195958
13.23649276,-0.1701593399,1.904388905,-0.2398635149,2024-06-04 14:52:23.236493
13.27699964,0.6352696419,1.575634956,0.9527643919,2024-06-04 14:52:23.277000
13.31748948,0.9402470589,0.1811418533,2.142592907,2024-06-04 14:52:23.317489
13.35796188,0.9152383804,-1.276658058,2.421088934,2024-06-04 14:52:23.357962
13.39846219,1.341476917,-1.482243538,1.341382265,2024-06-04 14:52:23.398462
13.43895906,1.538605213,-1.00104332,-0.5108444095,2024-06-04 14:52:23.438959
13.47942443,1.050337315,-1.448080063,0.8064903617,2024-06-04 14:52:23.479424
13.51992412,-0.3128232956,0.427945137,1.529268026,2024-06-04 14:52:23.519924
13.56039938,0.1388206482,1.208004475,-4.773984432,2024-06-04 14:52:23.560399
13.60087756,0.325551033,1.13794899,0.4841223657,2024-06-04 14:52:23.600878
13.64142516,-1.833989501,-0.9028129578,-0.04988670349,2024-06-04 14:52:23.641425
13.68188,-2.36714077,-1.101354599,-1.803691745,2024-06-04 14:52:23.681880
13.72236641,-3.412556171,-1.170998573,0.1630396843,2024-06-04 14:52:23.722366
13.76285834,-2.292036533,-1.003261566,-0.07550664246,2024-06-04 14:52:23.762858
13.80334469,-1.290575266,-0.5887002945,0.4943702519,2024-06-04 14:52:23.803345
13.84383037,0.5591299534,0.3587961197,0.8212558031,2024-06-04 14:52:23.843830
13.88435875,0.8335385323,0.4404573441,0.2332555652,2024-06-04 14:52:23.884359
13.92487141,-0.7902641296,-0.2830047607,-0.613304019,2024-06-04 14:52:23.924871
13.96535776,-1.504116297,-0.4405565262,-1.008033514,2024-06-04 14:52:23.965358
14.0057188,-0.5260875225,-0.03032875061,-0.5995089412,2024-06-04 14:52:24.005719
14.04622953,0.4412124157,0.03030586243,0.1585777998,2024-06-04 14:52:24.046230
14.08672771,0.3160605431,0.09500312805,0.481954813,2024-06-04 14:52:24.086728
14.12723782,0.5034337044,0.1902389526,0.2722489238,2024-06-04 14:52:24.127238
14.16770698,0.2118058205,-0.06888103485,-0.2351753265,2024-06-04 14:52:24.167707
14.208185,0.00196146965,0.2013273239,-0.1673092246,2024-06-04 14:52:24.208185
14.24868683,-0.5388953686,-0.1472892761,-0.1940503269,2024-06-04 14:52:24.248687
14.28918229,0.2617518902,0.1594247818,-0.3586246967,2024-06-04 14:52:24.289182
14.32970901,0.4864933491,0.2976160049,-0.04603365064,2024-06-04 14:52:24.329709
14.37019771,0.5388104916,0.2369699478,-0.003486573696,2024-06-04 14:52:24.370198
14.41064662,0.1886641979,0.1368560791,0.04043987393,2024-06-04 14:52:24.410647
14.45114224,0.4260559082,0.09234142303,0.06157812476,2024-06-04 14:52:24.451142
14.49164703,0.4439532757,-0.03898906708,0.2117578238,2024-06-04 14:52:24.491647
14.53212084,0.1675810814,0.2620677948,-0.07860743999,2024-06-04 14:52:24.532121
14.57260917,-0.03679895401,-0.05404186249,-0.1476710737,2024-06-04 14:52:24.572609
14.61309886,0.1810634136,0.1547813416,-0.05931797624,2024-06-04 14:52:24.613099
14.65358834,0.3739023209,0.02828884125,-0.05759480596,2024-06-04 14:52:24.653588
14.69407599,0.3452589512,0.1674509048,0.08107724786,2024-06-04 14:52:24.694076
14.73456073,-0.1887655258,-0.06214046478,-0.4736416936,2024-06-04 14:52:24.734561
14.77507927,-0.2253570557,0.07674503326,-0.03534722328,2024-06-04 14:52:24.775079
14.81550349,-0.1733691692,-0.2047672272,0.2335421443,2024-06-04 14:52:24.815503
14.85598995,-0.4712123871,-0.5950775146,0.5409911275,2024-06-04 14:52:24.855990
14.89648151,-0.7360037565,-0.00899887085,-0.5811029673,2024-06-04 14:52:24.896482
14.93697302,0.2697124481,0.2060909271,-0.5832067132,2024-06-04 14:52:24.936973
14.97746823,0.4158060551,0.1139373779,-0.3555443883,2024-06-04 14:52:24.977468
15.01797636,0.2836670876,0.1166276932,-0.5281331539,2024-06-04 14:52:25.017976
15.05847287,0.04916667938,0.006532669067,0.2412352264,2024-06-04 14:52:25.058473
15.09895193,0.11490345,0.0674905777,-0.0437169075,2024-06-04 14:52:25.098952
15.13943901,0.3614308834,0.01536655426,-0.03510862589,2024-06-04 14:52:25.139439
15.17992797,0.2214310169,0.08591079712,-0.3409349322,2024-06-04 14:52:25.179928
15.22042761,-0.233217001,0.2595815659,-0.3349018395,2024-06-04 14:52:25.220428
15.26091073,0.1406962872,0.204126358,-0.1313761771,2024-06-04 14:52:25.260911
15.30139563,0.3761000633,0.1833963394,0.2428406328,2024-06-04 14:52:25.301396
15.34190891,0.1544702053,0.002312660217,0.3743613362,2024-06-04 14:52:25.341909
15.38237229,-0.8295924664,-0.07266044617,0.159493953,2024-06-04 14:52:25.382372
15.42285177,-0.889564991,-0.1569290161,0.4128139913,2024-06-04 14:52:25.422852
15.46332995,-0.6536121368,-0.1599855423,0.4232877791,2024-06-04 14:52:25.463330
15.50383006,-0.5505254269,-0.147274971,-0.276925087,2024-06-04 14:52:25.503830
15.54433896,-0.5305502415,-0.3069915771,-0.1201938987,2024-06-04 14:52:25.544339
15.5848213,-0.3322095871,-0.07674312592,-0.06738722324,2024-06-04 14:52:25.584821
15.6252637,-0.1006994247,0.1686115265,0.03717595339,2024-06-04 14:52:25.625264
15.66573037,0.1402006149,0.3185653687,-0.40187639,2024-06-04 14:52:25.665730
15.70622052,0.4019334316,-0.07795143127,-0.1583851576,2024-06-04 14:52:25.706221
15.74677464,0.02592849731,-0.7367448807,0.2200346291,2024-06-04 14:52:25.746775
15.78723547,0.8105142117,0.2750263214,-1.244128466,2024-06-04 14:52:25.787235
15.82772183,1.432219744,1.645909309,-0.5578679442,2024-06-04 14:52:25.827722
15.86822256,0.7108228207,0.1455850601,-0.574062705,2024-06-04 14:52:25.868223
15.90871302,-0.3861570358,-0.3429908752,0.5594722629,2024-06-04 14:52:25.908713
15.94919906,-0.3843970299,0.1655960083,-0.5256308913,2024-06-04 14:52:25.949199
15.98967906,-0.3062744141,0.208943367,0.8908199072,2024-06-04 14:52:25.989679
16.0302313,-0.4857566357,-0.4996395111,1.152498484,2024-06-04 14:52:26.030231
16.07065146,-0.9280836582,-0.3128910065,1.319550633,2024-06-04 14:52:26.070651
16.1111513,-0.587533474,-0.3632249832,0.7644790411,2024-06-04 14:52:26.111151
16.15163443,-0.2953345776,-0.4928216934,0.9789395332,2024-06-04 14:52:26.151634
16.19212162,0.2720768452,-0.4415225983,2.025708199,2024-06-04 14:52:26.192122
16.2326224,-0.2803993225,-0.5383911133,-0.2369517386,2024-06-04 14:52:26.232622
16.2731425,-1.035359144,-0.100227356,-0.243089065,2024-06-04 14:52:26.273142
16.31356881,0.1441409588,-0.6515893936,0.5307626724,2024-06-04 14:52:26.313569
16.35410896,1.105135918,-0.6118478775,1.298056602,2024-06-04 14:52:26.354109
16.39462349,-0.0644261837,-0.1766777039,0.8774749041,2024-06-04 14:52:26.394623
16.43502084,0.1232097149,-0.5096492767,0.6050000191,2024-06-04 14:52:26.435021
16.4754936,1.298180103,-0.7485818863,-0.9326674938,2024-06-04 14:52:26.475494
16.51598073,-0.8639872074,-1.344762802,-2.787058592,2024-06-04 14:52:26.515981
16.55646797,-1.588044643,-1.683688164,-3.668740988,2024-06-04 14:52:26.556468
16.59700063,-0.7642991543,1.628960609,-3.42721343,2024-06-04 14:52:26.597001
16.6374925,-0.8357105255,1.224634647,-1.579156876,2024-06-04 14:52:26.637493
16.67798115,-0.4152069092,0.6598472595,-1.062506676,2024-06-04 14:52:26.677981
16.7184686,0.3399167061,1.000838757,-0.7254720926,2024-06-04 14:52:26.718469
16.75894688,0.5374217033,1.038064957,-0.5764746666,2024-06-04 14:52:26.758947
16.79943589,1.231637716,0.4798622131,-0.06698620319,2024-06-04 14:52:26.799436
16.8399149,1.574897289,0.1132631302,1.264359474,2024-06-04 14:52:26.839915
16.88039422,0.4795975685,-0.4587211609,2.573634863,2024-06-04 14:52:26.880394
16.9209062,1.677698851,-1.378193855,2.271135807,2024-06-04 14:52:26.920906
16.96139365,0.7268249989,-0.362030983,-0.2441512346,2024-06-04 14:52:26.961394
17.00192542,1.029729605,0.7034521103,-1.39082253,2024-06-04 14:52:27.001925
17.04237068,-0.18476367,0.2070837021,-0.634116292,2024-06-04 14:52:27.042371
17.0828588,-0.3289585114,0.2821722031,-1.607511997,2024-06-04 14:52:27.082859
17.12336469,2.032719135,0.2879009247,-0.5930868387,2024-06-04 14:52:27.123365
17.16383552,1.266342878,0.4178562164,1.105847597,2024-06-04 14:52:27.163836
17.20432302,-0.3551852703,-0.06273365021,0.02801692486,2024-06-04 14:52:27.204323
17.24487834,-0.6915035248,-0.1205530167,0.8720591068,2024-06-04 14:52:27.244878
17.28524828,-1.064708233,-0.1899366379,1.022271872,2024-06-04 14:52:27.285248
17.32573573,-1.261517048,-0.3797750473,-0.4054666758,2024-06-04 14:52:27.325736
17.36622323,-0.3591482639,-0.07094573975,-0.2168890238,2024-06-04 14:52:27.366223
17.40674469,-0.8990268707,-0.366065979,-0.1621244848,2024-06-04 14:52:27.406745
17.44724839,-1.340839028,-0.481054306,0.1339226067,2024-06-04 14:52:27.447248
17.4877425,-0.6097857952,0.07863330841,0.09411324561,2024-06-04 14:52:27.487742
17.52823578,-0.1644632816,0.09519290924,0.38792485,2024-06-04 14:52:27.528236
17.56870995,0.7047476768,0.1688585281,0.1823906153,2024-06-04 14:52:27.568710
17.60920146,0.0782699585,0.008491516113,0.1981002092,2024-06-04 14:52:27.609201
17.64968146,0.0007655620575,0.03314876556,-0.1428230107,2024-06-04 14:52:27.649681
17.69015177,-0.2088198662,-0.01216697693,0.08735564351,2024-06-04 14:52:27.690152
17.73067849,-0.5866122246,-0.2067308426,-0.0495474264,2024-06-04 14:52:27.730678
17.77118328,-0.1765704155,-0.2109727859,0.6044442654,2024-06-04 14:52:27.771183
17.81169146,0.01249074936,0.09525489807,0.1592216045,2024-06-04 14:52:27.811691
17.85213104,-0.09236907959,-0.03957366943,0.06081448123,2024-06-04 14:52:27.852131
17.89261672,-0.1258795261,0.01281929016,-0.3257175088,2024-06-04 14:52:27.892617
17.93310797,-0.7141058445,-0.3844985962,0.1849857867,2024-06-04 14:52:27.933108
17.97361636,-0.2081017494,-0.09220504761,0.276345402,2024-06-04 14:52:27.973616
18.01410162,-0.07840752602,0.4195671082,-0.4063801169,2024-06-04 14:52:28.014102
18.05462292,0.9753248692,0.2916250229,0.2060129791,2024-06-04 14:52:28.054623
18.09507849,0.5755178928,0.3483037949,0.1772928983,2024-06-04 14:52:28.095078
18.13549224,-0.07622098923,-0.1391506195,0.1079239771,2024-06-04 14:52:28.135492
18.17597906,-0.102896452,-0.2491836548,-0.01065649837,2024-06-04 14:52:28.175979
18.21651604,0.3725430965,0.2112541199,-0.0374962613,2024-06-04 14:52:28.216516
18.25701719,-0.02050065994,0.05777645111,-0.3196820021,2024-06-04 14:52:28.257017
18.29749276,-0.03914856911,0.05545806885,-0.2261024266,2024-06-04 14:52:28.297493
18.33798323,0.2156186104,0.01299858093,-0.2648744583,2024-06-04 14:52:28.337983
18.37847953,0.07024288177,-0.1231079102,0.1531939059,2024-06-04 14:52:28.378480
18.41896032,-0.2601006031,0.01733875275,-0.4814552069,2024-06-04 14:52:28.418960
18.45944927,-0.4140093327,-0.3510742188,0.03854444623,2024-06-04 14:52:28.459449
18.49993115,-0.7425997257,-0.1298418045,-0.260106802,2024-06-04 14:52:28.499931
18.54042,-1.409684181,-0.6631879807,0.3985221386,2024-06-04 14:52:28.540420
18.5809162,-2.048000813,-0.4255809784,-0.4002543986,2024-06-04 14:52:28.580916
18.62140599,-1.479859948,-0.1274337769,-0.5991081595,2024-06-04 14:52:28.621406
18.66188391,-0.4502894878,0.1847791672,-0.2651533484,2024-06-04 14:52:28.661884
18.70236709,0.4344639778,-0.04456520081,-0.21204108,2024-06-04 14:52:28.702367
18.74286026,0.5932605267,0.5333614349,0.6215292811,2024-06-04 14:52:28.742860
18.78335125,0.5651783943,0.2535009384,0.8185330629,2024-06-04 14:52:28.783351
18.82386703,0.8544692993,0.3285646439,0.9264360666,2024-06-04 14:52:28.823867
18.86437516,0.3805708885,-0.01114749908,1.731001258,2024-06-04 14:52:28.864375
18.90481771,-0.3839936256,-0.3267688751,0.3718954325,2024-06-04 14:52:28.904818
18.94528136,-0.7585504055,-0.196557045,0.3811586797,2024-06-04 14:52:28.945281
18.98576933,-0.2167701721,-0.9661598206,0.4040284753,2024-06-04 14:52:28.985769
19.02630438,-0.5223221779,-0.3417377472,0.5103274584,2024-06-04 14:52:29.026304
19.06680828,0.6490037441,0.8720111847,0.3143207133,2024-06-04 14:52:29.066808
19.10722881,1.072771549,0.5963277817,0.01392298937,2024-06-04 14:52:29.107229
19.14776063,-0.5428862572,-0.454993248,-0.5597478151,2024-06-04 14:52:29.147761
19.18824875,0.1619167328,-0.1527900696,0.06857937574,2024-06-04 14:52:29.188249
19.22872511,1.598372698,0.03425788879,0.7398005724,2024-06-04 14:52:29.228725
19.26919302,0.9166483879,-0.3476724625,1.528456688,2024-06-04 14:52:29.269193
19.30969474,0.5334079266,0.1776094437,-0.4096093178,2024-06-04 14:52:29.309695
19.35022438,0.1322066784,0.630194664,0.5011196136,2024-06-04 14:52:29.350224
19.39067636,-0.4057128429,0.4570455551,-0.8773289919,2024-06-04 14:52:29.390676
19.43114365,-0.7365438938,-1.136427879,-2.678011894,2024-06-04 14:52:29.431144
19.47163828,1.561836958,0.0005970001221,-0.03300130367,2024-06-04 14:52:29.471638
19.51213099,3.98301053,1.566091537,0.5357193351,2024-06-04 14:52:29.512131
19.5526312,1.14035964,0.8315505981,-0.4210800529,2024-06-04 14:52:29.552631
19.59308724,-1.068212748,-0.001178741455,-1.472698689,2024-06-04 14:52:29.593087
19.63359141,-0.5470149517,0.9899215698,-1.808840513,2024-06-04 14:52:29.633591
19.67414193,-0.03982973099,0.8227243423,-1.376943111,2024-06-04 14:52:29.674142
19.71463068,-0.06953787804,0.9679098129,-1.200613618,2024-06-04 14:52:29.714631
19.75501297,1.583111763,0.1474790573,-0.9996594191,2024-06-04 14:52:29.755013
19.79556985,0.2647557259,0.2435283661,-0.2970813811,2024-06-04 14:52:29.795570
19.83604537,-0.992587328,0.09860134125,0.6613892317,2024-06-04 14:52:29.836045
19.87653406,3.677499056,-0.5056142807,-0.4084351659,2024-06-04 14:52:29.876534
19.91702198,0.4999659061,-1.17935276,-0.3279085159,2024-06-04 14:52:29.917022
19.9574511,-2.620041847,-2.957470894,1.696956635,2024-06-04 14:52:29.957451
19.99799662,0.5165991783,1.21987915,-0.5695083141,2024-06-04 14:52:29.997997
20.03846615,0.2064564228,0.3409948349,0.1414552033,2024-06-04 14:52:30.038466
20.07897318,-0.09925818443,0.02827548981,0.0492207408,2024-06-04 14:52:30.078973
20.1194386,-0.5413620472,-0.4812850952,-0.437867552,2024-06-04 14:52:30.119439
20.15994193,-1.156770468,0.5145759583,-0.9007592797,2024-06-04 14:52:30.159942
20.20041412,-0.1294643879,1.587673187,-1.823628306,2024-06-04 14:52:30.200414
20.24091719,0.1706953049,-0.175116539,-0.7842985392,2024-06-04 14:52:30.240917
20.28139271,-0.428435564,-1.231901169,0.1822255254,2024-06-04 14:52:30.281393
20.32189203,1.137544394,0.4921369553,1.174006343,2024-06-04 14:52:30.321892
20.36240688,-0.47214818,-0.07165622711,-0.5782464147,2024-06-04 14:52:30.362407
20.40285787,-0.8183979988,-1.158402443,-1.245163918,2024-06-04 14:52:30.402858
20.44336282,1.840150595,-0.4611129761,-2.149017096,2024-06-04 14:52:30.443363
20.48385193,4.619170189,1.080504417,-0.6784672141,2024-06-04 14:52:30.483852
20.5243575,3.310063601,1.775535583,0.07641434669,2024-06-04 14:52:30.524358
20.56482761,0.3912622929,-0.08388614655,0.7393337488,2024-06-04 14:52:30.564828
20.60524578,-2.781211376,-2.501550674,1.389265656,2024-06-04 14:52:30.605246
20.6458187,-3.395253897,-1.555473328,0.1141439676,2024-06-04 14:52:30.645819
20.68629495,-1.29707098,-0.1385354996,-0.3964393139,2024-06-04 14:52:30.686295
20.72677599,1.25245142,1.776262283,0.272973299,2024-06-04 14:52:30.726776
20.76727256,0.4454777241,2.715845108,-0.3627953529,2024-06-04 14:52:30.767273
20.80778854,-0.4945511818,3.065883636,0.7980924845,2024-06-04 14:52:30.807789
20.84823724,-0.2584452629,0.9784584045,-0.7803307772,2024-06-04 14:52:30.848237
20.8887113,0.07998728752,-1.737953186,-0.5381781459,2024-06-04 14:52:30.888711
20.92919656,-1.468331337,-1.570158958,1.92550385,2024-06-04 14:52:30.929197
20.96968917,-0.753205061,-0.5036745071,1.991651177,2024-06-04 14:52:30.969689
21.01018896,1.232570171,0.4817333221,0.7759021521,2024-06-04 14:52:31.010189
21.05069183,-1.067528963,-1.031378746,0.7244989872,2024-06-04 14:52:31.050692
21.09118677,-1.673163176,-0.8297901154,1.553593159,2024-06-04 14:52:31.091187
21.13164526,0.4216816425,-0.3013887405,0.9279338121,2024-06-04 14:52:31.131645
21.17212672,-2.00963068,-0.2797546387,-0.1613585949,2024-06-04 14:52:31.172127
21.21261901,-1.213433743,-0.3203248978,0.7235308886,2024-06-04 14:52:31.212619
21.25311688,-0.6425950527,-0.9992179871,0.5388078094,2024-06-04 14:52:31.253117
21.29359667,-0.4371743202,-0.9072370529,-0.008636772633,2024-06-04 14:52:31.293597
21.3340887,-1.046699762,-0.1564407349,1.512465835,2024-06-04 14:52:31.334089
21.37462651,0.02899003029,0.2334480286,-0.2149822712,2024-06-04 14:52:31.374627
21.41511693,-0.723446846,0.1682929993,-0.02208799124,2024-06-04 14:52:31.415117
21.4555725,-0.9274191856,-0.9273538589,0.5599715114,2024-06-04 14:52:31.455572
21.49602938,-1.319903374,-0.5795078278,0.5196225643,2024-06-04 14:52:31.496029
21.53651683,-0.754324913,-0.1362161636,0.06771981716,2024-06-04 14:52:31.536517
21.5769987,0.2477247715,0.6263809204,-0.7010279894,2024-06-04 14:52:31.576999
21.61748287,0.9211595058,0.2625379562,0.5726748109,2024-06-04 14:52:31.617483
21.65797104,-0.7049028873,-0.5785198212,1.380115151,2024-06-04 14:52:31.657971
21.69845891,-1.881996155,-0.2644786835,-0.08181816339,2024-06-04 14:52:31.698459
21.7389499,-0.1395430565,0.1085968018,1.486917257,2024-06-04 14:52:31.738950
21.77944401,-0.6625657082,-0.3367567062,0.3212373555,2024-06-04 14:52:31.779444
21.81994156,-1.154321432,-0.6270484924,-0.3341811895,2024-06-04 14:52:31.819942
21.86043198,-0.01077365875,-0.2367734909,0.4307327271,2024-06-04 14:52:31.860432
21.90092464,-0.138023138,0.2922487259,0.5611231923,2024-06-04 14:52:31.900925
21.94141485,-0.05151629448,-0.06633853912,1.005859852,2024-06-04 14:52:31.941415
21.98188766,-1.260915041,0.2883911133,0.2987200618,2024-06-04 14:52:31.981888
22.02238479,-1.509046555,0.002027511597,0.2082371414,2024-06-04 14:52:32.022385
22.06286183,-0.6652002335,0.07846546173,1.073396921,2024-06-04 14:52:32.062862
22.10335797,-0.9156806469,-0.2037887573,0.666508615,2024-06-04 14:52:32.103358
22.14384651,-0.9119967222,-0.1548862457,0.6697865725,2024-06-04 14:52:32.143847
22.18433016,-1.660093188,-0.2474889755,0.4921095371,2024-06-04 14:52:32.184330
22.2248138,-2.527258635,-0.3652629852,0.6822718978,2024-06-04 14:52:32.224814
22.26528245,-2.496189117,-0.4399166107,1.213777184,2024-06-04 14:52:32.265282
22.30577214,-1.835577846,-1.419020653,2.02971077,2024-06-04 14:52:32.305772
22.34629094,-2.565165758,-4.087402344,2.18280673,2024-06-04 14:52:32.346291
22.38679151,-1.735213876,-2.727987289,3.507214546,2024-06-04 14:52:32.386792
22.4272774,1.455301642,-1.724411964,0.3403345942,2024-06-04 14:52:32.427277
22.46776339,4.32698822,-2.219071388,-1.631592035,2024-06-04 14:52:32.467763
22.50824183,2.419588566,-2.008478165,-3.040821791,2024-06-04 14:52:32.508242
22.54872651,1.622325063,-1.790346146,-3.258980751,2024-06-04 14:52:32.548727
22.58920261,1.465761662,-1.317380905,-3.859181166,2024-06-04 14:52:32.589203
22.6296762,2.813810825,2.284113407,-3.256373644,2024-06-04 14:52:32.629676
22.67019719,4.583965302,3.073213577,-2.067078114,2024-06-04 14:52:32.670197
22.71068521,3.813679934,-1.146327972,-0.4899194241,2024-06-04 14:52:32.710685
22.75117599,1.929896116,-4.705171585,0.6687164307,2024-06-04 14:52:32.751176
22.7916475,0.6020193696,-0.2846574783,-2.146226883,2024-06-04 14:52:32.791647
22.8321362,-0.1467671841,-2.452246666,-0.9926142693,2024-06-04 14:52:32.832136
22.87260823,0.3000673652,-3.696092606,0.1968960762,2024-06-04 14:52:32.872608
22.91310558,2.696888208,0.1850628853,-3.114958048,2024-06-04 14:52:32.913106
22.95359349,1.25693059,1.058814049,-2.534514904,2024-06-04 14:52:32.953593
22.99412922,-0.06912104785,2.536912441,-2.06726408,2024-06-04 14:52:32.994129
23.03462292,0.3052535057,1.101570606,-3.641978741,2024-06-04 14:52:33.034623
23.07502776,1.219486237,1.228664398,-1.569121838,2024-06-04 14:52:33.075028
23.1156174,-0.1202093735,-1.221761703,-0.1100549698,2024-06-04 14:52:33.115617
23.15610526,-1.251362205,-3.942989349,3.546294212,2024-06-04 14:52:33.156105
23.19659516,-0.9230829477,-3.676349163,-0.2064113617,2024-06-04 14:52:33.196595
23.23702964,0.1256924868,-2.517166138,-1.043161392,2024-06-04 14:52:33.237030
23.27751511,1.612340212,-0.6652297974,-1.765066147,2024-06-04 14:52:33.277515
23.31800183,0.3359833956,1.518074036,-3.710258961,2024-06-04 14:52:33.318002
23.35847052,0.2313715816,4.07310009,-5.745750427,2024-06-04 14:52:33.358471
23.39898339,0.6389607191,6.251046658,-6.13023901,2024-06-04 14:52:33.398983
23.43944917,1.826187134,7.100664616,-5.013299465,2024-06-04 14:52:33.439449
23.47995558,2.376832247,4.962944984,-2.218653679,2024-06-04 14:52:33.479956
23.52044422,1.472177505,2.953610897,-2.315931559,2024-06-04 14:52:33.520444
23.56092573,3.209937334,-1.192575455,-1.462296486,2024-06-04 14:52:33.560926
23.60140365,0.2615169287,-5.478686333,1.577815294,2024-06-04 14:52:33.601404
23.64188256,0.2389893532,-4.087236404,-1.270144939,2024-06-04 14:52:33.641883
23.68237542,1.68273735,-7.056743622,1.616055608,2024-06-04 14:52:33.682375
23.72286292,-2.945670843,-7.475092888,4.55643177,2024-06-04 14:52:33.722863
23.76336537,-2.65873909,-2.831377029,-1.380226851,2024-06-04 14:52:33.763365
23.80389506,-2.017160416,-0.1741905212,2.476808786,2024-06-04 14:52:33.803895
23.84440032,-2.136703491,-0.6951055527,1.763277531,2024-06-04 14:52:33.844400
23.88489506,0.231338501,-3.428214073,4.894967079,2024-06-04 14:52:33.884895
23.92525287,-1.565724373,-1.496788025,3.215230465,2024-06-04 14:52:33.925253
23.96574032,-0.138092041,0.4150905609,-0.716801703,2024-06-04 14:52:33.965740
24.00629537,-0.2860541344,0.3300619125,-1.685831666,2024-06-04 14:52:34.006295
24.04676453,-0.7773199081,-0.1389656067,-0.7688590288,2024-06-04 14:52:34.046765
24.08725683,-0.8364775181,-0.4754161835,-1.104178786,2024-06-04 14:52:34.087257
24.12777058,1.386951685,-0.3684139252,1.616921544,2024-06-04 14:52:34.127771
24.16825865,1.817670107,0.9642267227,3.49237895,2024-06-04 14:52:34.168259
24.20873641,-0.1767861843,-0.3821315765,-0.5781157613,2024-06-04 14:52:34.208736
24.2492063,-1.00258553,-0.3105516434,-1.260622382,2024-06-04 14:52:34.249206
24.28969526,-1.47893846,-0.1578578949,-1.28111279,2024-06-04 14:52:34.289695
24.33019438,-0.3826949596,-0.122051239,-0.421040982,2024-06-04 14:52:34.330194
24.37070287,-0.05597686768,0.1257190704,0.6788518429,2024-06-04 14:52:34.370703
24.41116276,0.7520136833,-0.02838802338,0.5711835027,2024-06-04 14:52:34.411163
24.45166292,0.4246883392,0.2858438492,0.4430567026,2024-06-04 14:52:34.451663
24.49213828,-0.6759874821,-0.07911586761,-0.495162189,2024-06-04 14:52:34.492138
24.53263516,-0.7005298138,-0.3457975388,-0.2467320561,2024-06-04 14:52:34.532635
24.57315495,-0.4100124836,-0.0105676651,0.9762966633,2024-06-04 14:52:34.573155
24.61364719,-0.8396217823,-0.2639341354,-0.2190338969,2024-06-04 14:52:34.613647
24.65411287,-0.891920805,-0.2241926193,-0.2963656485,2024-06-04 14:52:34.654113
24.69463016,-0.4634876251,0.1422519684,0.1112162471,2024-06-04 14:52:34.694630
24.73503568,-0.4050619602,0.1128988266,0.8244799376,2024-06-04 14:52:34.735036
24.77552396,0.5904483795,-0.145067215,-0.1905530095,2024-06-04 14:52:34.775524
24.81604104,-0.1071171761,0.1918087006,0.1226299703,2024-06-04 14:52:34.816041
24.85656854,0.3200645447,0.2654485703,-0.9108640552,2024-06-04 14:52:34.856569
24.8970336,-0.2486183643,0.0516204834,-0.2500779033,2024-06-04 14:52:34.897034
24.93751042,0.3722624779,-0.4416875839,-0.06182968616,2024-06-04 14:52:34.937510
24.9780111,-0.3982477188,0.2255125046,0.9763073921,2024-06-04 14:52:34.978011
25.01849761,-0.4901381731,-0.3164567947,-0.8713845611,2024-06-04 14:52:35.018498
25.05897464,0.3341639042,0.2073373795,0.185277462,2024-06-04 14:52:35.058975
25.09946584,1.196581125,0.2554388046,0.6957711577,2024-06-04 14:52:35.099466
25.13995813,0.3228640556,0.0922908783,-0.5228213072,2024-06-04 14:52:35.139958
25.18044636,0.2242922783,0.2154417038,0.1320152283,2024-06-04 14:52:35.180446
25.22093573,-0.3635649681,-0.01522922516,0.1044129133,2024-06-04 14:52:35.220936
25.26141433,-0.6024889946,-0.3212547302,0.6953215599,2024-06-04 14:52:35.261414
25.30190245,-1.893814921,-0.6086893082,0.2774965763,2024-06-04 14:52:35.301902
25.34240745,-2.273058414,-0.6212787628,-0.312743783,2024-06-04 14:52:35.342407
25.38288224,-2.051196814,-0.7759494781,0.7609081268,2024-06-04 14:52:35.382882
25.42335573,0.276674509,0.08492279053,-0.2852348089,2024-06-04 14:52:35.423356
25.46385,0.4906861782,-0.1489725113,0.7804388404,2024-06-04 14:52:35.463850
25.50436656,-0.3730540276,-0.5025262833,-1.987653494,2024-06-04 14:52:35.504367
25.54483334,1.027563572,-0.4788646698,-0.6791927814,2024-06-04 14:52:35.544833
25.58532412,-0.2253549099,0.8180046082,-0.7992113829,2024-06-04 14:52:35.585324
25.62582813,0.2523248196,1.727311134,-1.707127213,2024-06-04 14:52:35.625828
25.66633735,1.706553459,1.268549919,-1.26160264,2024-06-04 14:52:35.666337
25.70682563,2.280729055,0.7188386917,0.01572430134,2024-06-04 14:52:35.706826
25.74728459,0.449003458,-0.5558223724,-1.204726338,2024-06-04 14:52:35.747285
25.78775782,1.780421972,-1.632704735,-0.04892921448,2024-06-04 14:52:35.787758
25.82824386,2.455793858,-0.2127494812,2.182443142,2024-06-04 14:52:35.828244
25.86870521,0.8093316555,-0.72813797,2.798720598,2024-06-04 14:52:35.868705
25.90921896,-0.5078687668,0.145658493,1.366925716,2024-06-04 14:52:35.909219
25.94970735,-0.07959294319,0.4415636063,-1.733267069,2024-06-04 14:52:35.949707
25.99018339,0.102314949,-0.8813791275,-0.3413239121,2024-06-04 14:52:35.990183
26.03066948,1.094547987,-1.000792503,0.8547098041,2024-06-04 14:52:36.030669
26.07117776,2.148504734,-0.3847904205,-2.672615767,2024-06-04 14:52:36.071178
26.11166667,0.9056017399,2.789669991,-1.891858339,2024-06-04 14:52:36.111667
26.15214938,-2.062327385,3.707025528,-5.35675621,2024-06-04 14:52:36.152149
26.19258297,-3.65112257,1.096923828,1.773789048,2024-06-04 14:52:36.192583
26.23310052,-0.2861886024,-3.726293564,-6.418353081,2024-06-04 14:52:36.233101
26.27360985,4.413646698,-3.980335236,4.045297146,2024-06-04 14:52:36.273610
26.31416839,-0.9120452404,2.545524597,1.698495388,2024-06-04 14:52:36.314168
26.35459578,-0.7834274769,2.006894112,2.02558732,2024-06-04 14:52:36.354596
26.39500985,-2.104210854,-2.229650497,-0.7942903042,2024-06-04 14:52:36.395010
26.4355275,-2.293891907,-0.9977169037,3.16990757,2024-06-04 14:52:36.435527
26.47601412,0.2916870117,-0.3340730667,-2.313394547,2024-06-04 14:52:36.476014
26.51650084,1.202424526,-0.2742404938,1.171245456,2024-06-04 14:52:36.516501
26.557025,0.5884759426,1.819003105,-0.2329494655,2024-06-04 14:52:36.557025
26.59752271,-0.9362413883,-0.2121372223,1.081406236,2024-06-04 14:52:36.597523
26.63800229,-0.6942142248,0.05443572998,0.5665768385,2024-06-04 14:52:36.638002
26.6784824,-1.76712513,-0.1575784683,0.548412621,2024-06-04 14:52:36.678482
26.71897037,-1.206478953,-0.0363035202,0.483741492,2024-06-04 14:52:36.718970
26.75946219,1.640414715,0.8161888123,-0.2484059334,2024-06-04 14:52:36.759462
26.79995021,1.476537943,-0.4820652008,0.371676743,2024-06-04 14:52:36.799950
26.84042229,0.9442710876,0.1261463165,-1.74414742,2024-06-04 14:52:36.840422
26.88094683,0.03291201591,1.28758049,-0.8712280989,2024-06-04 14:52:36.880947
26.92139703,-1.625973821,-0.6672620773,2.620409489,2024-06-04 14:52:36.921397
26.96188469,-2.344821215,-1.075734138,1.623497009,2024-06-04 14:52:36.961885
27.00238641,-3.545741796,-0.9908437729,0.6425500512,2024-06-04 14:52:37.002386
27.04288698,-2.357254028,-0.6436386108,2.466792583,2024-06-04 14:52:37.042887
27.08334906,-1.560167551,-1.387979507,3.47154212,2024-06-04 14:52:37.083349
27.12383761,-1.356265306,-1.227415085,2.420345783,2024-06-04 14:52:37.123838
27.16439745,-0.06747341156,-1.726006508,0.560626328,2024-06-04 14:52:37.164397
27.2048862,0.6790521145,-1.054724693,-0.1047405601,2024-06-04 14:52:37.204886
27.24525667,1.274006128,-0.9965362549,-1.25654304,2024-06-04 14:52:37.245257
27.28574537,1.384554386,-0.7605638504,-2.615059853,2024-06-04 14:52:37.285745
27.32626188,0.2020279169,0.7065210342,-4.253888607,2024-06-04 14:52:37.326262
27.36676756,1.626180291,1.376559258,-2.422825813,2024-06-04 14:52:37.366768
27.40726547,2.857125521,0.7094888687,-1.099485874,2024-06-04 14:52:37.407265
27.44775818,2.328836918,0.3467283249,-0.3423085213,2024-06-04 14:52:37.447758
27.4882436,2.463710308,1.097458839,-0.1022925377,2024-06-04 14:52:37.488244
27.52873313,2.069606781,0.8824605942,0.6250023842,2024-06-04 14:52:37.528733
27.56922313,0.6042711735,1.382528305,0.2829303741,2024-06-04 14:52:37.569223
27.60971391,-0.6953005791,1.59062624,0.4324045181,2024-06-04 14:52:37.609714
27.65019131,-1.149401188,0.7539196014,1.033502579,2024-06-04 14:52:37.650191
27.69068698,-2.253124237,-0.01541042328,1.61043191,2024-06-04 14:52:37.690687
27.73117683,-1.438836098,0.1788711548,1.132261872,2024-06-04 14:52:37.731177
27.77167422,-0.09870040417,0.08333015442,2.512381077,2024-06-04 14:52:37.771674
27.81216245,2.569589138,-1.842643738,1.166601419,2024-06-04 14:52:37.812162
27.85262854,2.746192217,-3.938566208,1.143891335,2024-06-04 14:52:37.852629
27.89311995,0.8435907364,3.158874512,-2.257148743,2024-06-04 14:52:37.893120
27.93361917,1.125595093,2.425902367,-2.709324837,2024-06-04 14:52:37.933619
27.97411797,-2.858963966,-2.777975082,0.5143767595,2024-06-04 14:52:37.974118
28.01460917,0.6222310066,-0.1474304199,-2.987688303,2024-06-04 14:52:38.014609
28.05507433,1.632222891,1.443780899,-0.233301878,2024-06-04 14:52:38.055074
28.09557677,-0.07648849487,0.1023235321,-1.009100199,2024-06-04 14:52:38.095577
28.13602646,-1.80161953,-0.4422140121,-1.171172738,2024-06-04 14:52:38.136026
28.17649875,-1.955949545,-0.3766679764,-0.9820661545,2024-06-04 14:52:38.176499
28.2170112,-0.9867829084,-0.07001590729,-1.871389985,2024-06-04 14:52:38.217011
28.25751948,0.9005658627,-1.498430252,-2.450182915,2024-06-04 14:52:38.257519
28.29800693,3.518390656,1.12330246,-3.124624729,2024-06-04 14:52:38.298007
28.33849136,-0.5729286671,0.4356241226,-0.3356457055,2024-06-04 14:52:38.338491
28.37897849,-2.496075869,-0.4710569382,1.118788719,2024-06-04 14:52:38.378978
28.41945511,0.07109308243,-0.9673690796,3.13515687,2024-06-04 14:52:38.419455
28.45993979,0.05566549301,-0.06515693665,0.1454414576,2024-06-04 14:52:38.459940
28.50043172,-1.69496727,-1.838496208,-1.734408021,2024-06-04 14:52:38.500432
28.54092808,1.306445837,0.5227928162,2.364614964,2024-06-04 14:52:38.540928
28.58142641,3.266666889,2.400526524,1.461275578,2024-06-04 14:52:38.581426
28.62191344,1.399057865,0.9500141144,2.34325099,2024-06-04 14:52:38.621913
28.66238594,-1.260335088,-0.05563831329,-0.454210937,2024-06-04 14:52:38.662386
28.70289391,-0.194715023,0.09505367279,-1.241524696,2024-06-04 14:52:38.702894
28.74337948,0.484236002,-0.529499054,1.19712007,2024-06-04 14:52:38.743379
28.78388422,0.7740926743,-0.9905910492,0.6408905983,2024-06-04 14:52:38.783884
28.82438604,0.06130051613,0.4977321625,0.269313097,2024-06-04 14:52:38.824386
28.86484849,-0.007425546646,0.4292526245,-1.965483785,2024-06-04 14:52:38.864848
28.90528625,-0.6407649517,0.1467905045,-1.323412895,2024-06-04 14:52:38.905286
28.94575495,-1.585848689,-0.9314527512,-0.5720781684,2024-06-04 14:52:38.945755
28.98624256,-0.1654632092,-0.6593198776,0.2781481743,2024-06-04 14:52:38.986243
29.02676516,0.5944786072,-0.1514940262,0.1788643599,2024-06-04 14:52:39.026765
29.06727532,0.09116029739,-0.2151050568,-0.873521328,2024-06-04 14:52:39.067275
29.10775229,0.1819698811,0.2680482864,0.2538594604,2024-06-04 14:52:39.107752
29.14824448,-1.717929244,1.245430946,0.6063958406,2024-06-04 14:52:39.148244
29.18873229,1.225409031,-0.414522171,0.4733368158,2024-06-04 14:52:39.188732
29.22923386,2.490358353,0.03376865387,0.02905489504,2024-06-04 14:52:39.229234
29.26970094,-0.08732056618,0.460723877,-0.2712377906,2024-06-04 14:52:39.269701
29.31019235,-2.179981947,-0.8065576553,-0.7988136411,2024-06-04 14:52:39.310192
29.3507374,-1.244408369,-0.243519783,-0.8900375962,2024-06-04 14:52:39.350737
29.39118021,-0.28723979,-0.3177690506,-0.4414485097,2024-06-04 14:52:39.391180
29.43166032,-0.4384734631,-0.004061698914,0.11630404,2024-06-04 14:52:39.431660
29.47214104,-0.5907119513,0.356300354,0.1968081892,2024-06-04 14:52:39.472141
29.51262896,-0.3473854065,-0.2487211227,-0.5214685798,2024-06-04 14:52:39.512629
29.5531262,0.07033348083,-0.01036071777,-0.4716666341,2024-06-04 14:52:39.553126
29.59359756,-0.611342907,0.1953878403,-0.8306936026,2024-06-04 14:52:39.593598
29.63412646,-1.253151417,-0.9632549286,-0.2193113565,2024-06-04 14:52:39.634126
29.67465016,-1.744022846,-0.2451572418,-0.3440244198,2024-06-04 14:52:39.674650
29.71506969,-1.853881598,-0.1923332214,-1.319857597,2024-06-04 14:52:39.715070
29.75555849,-1.278825045,-0.7488136292,-0.8207345605,2024-06-04 14:52:39.755558
29.79604724,-1.068076611,0.5767412186,-1.038413644,2024-06-04 14:52:39.796047
29.83650198,-1.936079264,-1.82034874,1.12370491,2024-06-04 14:52:39.836502
29.87704521,-4.600644112,-3.36572361,2.167855263,2024-06-04 14:52:39.877045
29.91752594,-4.883791924,-2.974478722,2.019418716,2024-06-04 14:52:39.917526
29.95801474,-2.935960054,-2.509792328,3.207149744,2024-06-04 14:52:39.958015
29.99847276,1.12836957,-0.3711805344,-2.01649785,2024-06-04 14:52:39.998473
30.03897537,5.396493435,0.3974924088,-5.281363964,2024-06-04 14:52:40.038975
30.07948422,0.7810418606,1.388480186,-10.26791668,2024-06-04 14:52:40.079484
30.11996396,0.4550094604,0.5267753601,1.31287837,2024-06-04 14:52:40.119964
30.16042995,3.379074097,-0.719701767,1.513936996,2024-06-04 14:52:40.160430
30.20091729,0.439426899,0.1691589355,-3.541329384,2024-06-04 14:52:40.200917
30.24141953,1.906454086,0.928150177,2.018558502,2024-06-04 14:52:40.241420
30.28189552,2.011502504,2.526160717,6.408079147,2024-06-04 14:52:40.281896
30.32238792,-1.817150116,-0.09380245209,-0.3766696453,2024-06-04 14:52:40.322388
30.36290485,-0.2402441502,2.566418171,1.966630936,2024-06-04 14:52:40.362905
30.40335901,-1.550005674,1.201036453,0.8395271301,2024-06-04 14:52:40.403359
30.44386802,0.6738287807,-0.3529005051,2.289820433,2024-06-04 14:52:40.443868
30.48439047,2.940445423,0.6560688019,-0.4536874294,2024-06-04 14:52:40.484390
30.524885,1.617488265,-4.646874428,-0.4649244547,2024-06-04 14:52:40.524885
30.56526094,2.514759541,-2.821980476,0.9085505009,2024-06-04 14:52:40.565261
30.60582266,-0.05650341511,4.078174114,-2.82746315,2024-06-04 14:52:40.605823
30.64631125,0.5122405291,2.726524353,-1.950133204,2024-06-04 14:52:40.646311
30.68680302,2.212637424,-0.7119035721,-0.1073406339,2024-06-04 14:52:40.686803
30.72728834,0.4689126015,0.07385921478,2.093133926,2024-06-04 14:52:40.727288
30.76776886,-4.280343056,-1.968425751,-3.716649055,2024-06-04 14:52:40.767769
30.80825407,-6.769108772,-4.207538605,4.335338116,2024-06-04 14:52:40.808254
30.8487461,-1.268035412,0.3128147125,-2.766574383,2024-06-04 14:52:40.848746
30.88922927,2.04957366,0.5263643265,-1.555410385,2024-06-04 14:52:40.889229
30.92970453,2.319434643,1.294919014,0.8059415221,2024-06-04 14:52:40.929705
30.97019714,1.146978378,1.464199066,1.754245758,2024-06-04 14:52:40.970197
31.01069344,0.7854911089,1.006674767,0.4243242741,2024-06-04 14:52:41.010693
31.05118308,0.04397642612,-0.2282085419,1.761103272,2024-06-04 14:52:41.051183
31.09166021,-1.365874171,-0.6626853943,1.98291111,2024-06-04 14:52:41.091660
31.1321687,-1.76719439,-1.409550667,1.94848609,2024-06-04 14:52:41.132169
31.17265912,-2.2239995,-1.630348206,2.576017857,2024-06-04 14:52:41.172659
31.21313792,-3.013231277,-2.853310585,3.642848015,2024-06-04 14:52:41.213138
31.25360209,-4.420118332,-3.951004982,3.231600761,2024-06-04 14:52:41.253602
31.2940999,-2.914831638,-2.109251022,2.817470312,2024-06-04 14:52:41.294100
31.33462594,0.6303429604,-1.818285942,-0.2541175485,2024-06-04 14:52:41.334626
31.37508677,3.112423897,-3.2516222,-1.831211567,2024-06-04 14:52:41.375087
31.41553662,0.0733127594,-1.387357712,-6.351840973,2024-06-04 14:52:41.415537
31.45602599,-0.7083516717,-1.833180428,-5.695085526,2024-06-04 14:52:41.456026
31.49651391,-2.714095592,-2.423932076,-4.225504875,2024-06-04 14:52:41.496514
31.53700188,1.085601211,2.507086754,-4.49136591,2024-06-04 14:52:41.537002
31.57750714,2.513705969,5.412615299,-4.261769772,2024-06-04 14:52:41.577507
31.61800261,3.631998062,5.440585613,-1.99485302,2024-06-04 14:52:41.618003
31.65848901,3.088709593,3.842832565,-0.7709121704,2024-06-04 14:52:41.658489
31.6989762,2.32650733,0.4917821884,2.183026075,2024-06-04 14:52:41.698976
31.73946542,-4.795010567,-7.092407227,7.474906921,2024-06-04 14:52:41.739465
31.77995849,-2.167324066,0.04855728149,1.465451956,2024-06-04 14:52:41.779958
31.8204512,5.210658073,-6.796940804,-1.695065498,2024-06-04 14:52:41.820451
31.86094828,2.086321592,-1.545278549,-0.4017894268,2024-06-04 14:52:41.860948
31.90143297,4.510502815,8.831850052,-7.577708244,2024-06-04 14:52:41.901433
31.94191709,2.72624588,5.347821236,-3.059719086,2024-06-04 14:52:41.941917
31.98242959,-2.08024025,-7.814478874,-6.504105091,2024-06-04 14:52:41.982430
32.0229262,-6.121752262,-5.309046745,-6.194499969,2024-06-04 14:52:42.022926
32.06337599,-1.675762057,0.402305603,12.76246738,2024-06-04 14:52:42.063376
32.10384401,-0.132496953,0.5279493332,0.06037813425,2024-06-04 14:52:42.103844
32.14435756,2.320211887,3.251317501,0.8685839772,2024-06-04 14:52:42.144358
32.18485891,2.830401182,2.141708374,-1.97013557,2024-06-04 14:52:42.184859
32.22530115,-1.798950434,-2.088835716,0.7598714828,2024-06-04 14:52:42.225301
32.2657663,-4.366137028,-3.250516891,12.42275429,2024-06-04 14:52:42.265766
32.30625438,-4.820989132,-2.418985367,-0.4261193275,2024-06-04 14:52:42.306254
32.34684787,-2.699772358,-3.484744072,4.134178162,2024-06-04 14:52:42.346848
32.38729365,-5.072179794,-5.734021187,4.439253807,2024-06-04 14:52:42.387294
32.42778542,-1.127885818,-2.652974129,0.9488795996,2024-06-04 14:52:42.427785
32.46826375,2.267579079,-4.129946709,-3.168500662,2024-06-04 14:52:42.468264
32.5087624,4.817893028,-5.21991539,-3.352596283,2024-06-04 14:52:42.508762
32.54924089,-0.6325320601,-0.2223653793,-5.79620266,2024-06-04 14:52:42.549241
32.58973568,0.7112560272,1.440084457,-4.554960728,2024-06-04 14:52:42.589736
32.63020558,1.127684832,2.246679306,-6.879867554,2024-06-04 14:52:42.630206
32.67068604,1.621487856,4.905493736,-5.389677525,2024-06-04 14:52:42.670686
32.71117365,3.760900259,7.875926018,-3.482354403,2024-06-04 14:52:42.711174
32.75166229,2.584649324,4.929237843,-1.236100316,2024-06-04 14:52:42.751662
32.79214203,2.069982529,-3.377882004,4.555282593,2024-06-04 14:52:42.792142
32.83265433,-3.907254219,-9.6618433,8.020774841,2024-06-04 14:52:42.832654
32.87313599,0.8172215819,2.238323212,0.6632843018,2024-06-04 14:52:42.873136
32.91363011,3.473792076,-10.30110645,1.757326603,2024-06-04 14:52:42.913630
32.95411771,3.3976264,5.454751968,-12.33515358,2024-06-04 14:52:42.954118
32.99463177,4.518885612,8.018480301,-4.44690609,2024-06-04 14:52:42.994632
33.03511938,3.444138288,0.07848834991,-1.288827181,2024-06-04 14:52:43.035119
33.07553802,-5.436262131,-8.298595428,-5.639125824,2024-06-04 14:52:43.075538
33.11600979,-5.143861771,-2.046792984,-1.854393125,2024-06-04 14:52:43.116010
33.15649719,-2.61568737,1.747770309,8.501362801,2024-06-04 14:52:43.156497
33.19698349,-0.3406392336,0.7091121674,0.03874826431,2024-06-04 14:52:43.196983
33.2375286,2.56505847,2.143097401,0.1994020939,2024-06-04 14:52:43.237529
33.27802391,-0.879481554,-0.4452924728,0.4723445177,2024-06-04 14:52:43.278024
33.31852084,-4.598028183,-2.318212509,8.109469414,2024-06-04 14:52:43.318521
33.35897047,-6.269215584,-3.396375656,0.7971749306,2024-06-04 14:52:43.358970
33.39946354,-1.343545675,-3.147442818,3.802923679,2024-06-04 14:52:43.399464
33.43995771,-4.279424667,-6.713937759,3.873671532,2024-06-04 14:52:43.439958
33.48046672,0.2665678263,-1.991978645,5.52590847,2024-06-04 14:52:43.480467
33.5209575,3.116690874,-2.648675919,-3.768449306,2024-06-04 14:52:43.520958
33.56142776,4.38882637,-5.334878922,-2.33011198,2024-06-04 14:52:43.561428
33.60191271,0.7245936394,-1.759466171,-3.789524317,2024-06-04 14:52:43.601913
33.64240032,0.736038506,1.678492069,-4.336767197,2024-06-04 14:52:43.642400
33.68288063,-0.5687888861,1.395000458,-6.923005104,2024-06-04 14:52:43.682881
33.72336849,1.604674101,5.47216177,-5.296598911,2024-06-04 14:52:43.723368
33.76385677,3.129258394,8.185567856,-4.259728909,2024-06-04 14:52:43.763857
33.80436969,1.850962043,6.318254948,-1.254821777,2024-06-04 14:52:43.804370
33.84489276,2.670977592,-2.523413658,4.182224274,2024-06-04 14:52:43.844893
33.88538063,-2.429347992,-10.89875412,9.146822929,2024-06-04 14:52:43.885381
33.92586844,1.474480629,2.022433758,1.924200296,2024-06-04 14:52:43.925868
33.96627599,4.752599239,-10.45261383,2.103948355,2024-06-04 14:52:43.966276
34.00677073,4.661132812,7.688148499,-11.8040905,2024-06-04 14:52:44.006771
34.04727292,5.835030556,7.319791794,-3.743698359,2024-06-04 14:52:44.047273
34.08775683,2.623209,1.121828079,-3.015675783,2024-06-04 14:52:44.087757
34.12824677,-5.340167999,-11.87912846,-7.095579624,2024-06-04 14:52:44.128247
34.16875891,-6.269208908,-0.6884527206,-7.887792587,2024-06-04 14:52:44.168759
34.20923818,-1.453476667,0.6346035004,16.01050186,2024-06-04 14:52:44.209238
34.24971354,-0.01688575745,1.43326664,-0.4499702454,2024-06-04 14:52:44.249714
34.29020854,1.49596405,2.647733212,-1.616559982,2024-06-04 14:52:44.290209
34.33069782,-1.310914278,-1.153170586,3.514424324,2024-06-04 14:52:44.330698
34.37119677,-7.42051506,-4.031698227,6.317850113,2024-06-04 14:52:44.371197
34.41167209,-4.670959473,-3.22721386,3.063892126,2024-06-04 14:52:44.411672
34.4521486,-3.703557014,-6.005029678,3.884482622,2024-06-04 14:52:44.452149
34.49264297,-2.717717648,-5.924983025,5.60345602,2024-06-04 14:52:44.492643
34.5331436,1.856636405,-2.387547493,-1.421853065,2024-06-04 14:52:44.533144
34.57362724,5.177911282,-4.038861275,-2.474640846,2024-06-04 14:52:44.573627
34.61413709,5.141174316,-4.048910141,-1.963494897,2024-06-04 14:52:44.614137
34.6546362,0.394869566,0.2901611328,-5.377215385,2024-06-04 14:52:44.654636
34.6950974,0.4978910089,2.510725975,-6.116814613,2024-06-04 14:52:44.695097
34.7355175,-0.4313930869,3.845696449,-7.179745674,2024-06-04 14:52:44.735518
34.77603417,2.89610815,7.882778168,-6.015520096,2024-06-04 14:52:44.776034
34.81655849,2.753839493,8.261850357,-3.493453026,2024-06-04 14:52:44.816558
34.85703823,2.923677683,1.219169617,4.262281418,2024-06-04 14:52:44.857038
34.8975113,-1.735538721,-15.25395012,11.66357231,2024-06-04 14:52:44.897511
34.93795474,0.9304702282,5.825910568,1.070140362,2024-06-04 14:52:44.937955
34.978485,6.318802357,4.512062073,-7.768451214,2024-06-04 14:52:44.978485
35.01899479,6.933815956,-13.50635433,-0.5245776176,2024-06-04 14:52:45.018995
35.05949641,-0.6945793629,4.756894112,-6.959848404,2024-06-04 14:52:45.059496
35.09997313,0.6770510674,2.93584156,-3.347480059,2024-06-04 14:52:45.099973
35.14044599,-4.495199203,-7.618618011,-5.808802128,2024-06-04 14:52:45.140446
35.18093063,-5.033158302,0.3611774445,-6.446916103,2024-06-04 14:52:45.180931
35.22143256,-0.2653377056,1.876222134,8.003358841,2024-06-04 14:52:45.221433
35.26191906,0.4199676514,1.961290836,7.378893852,2024-06-04 14:52:45.261919
35.30240615,1.521610737,1.545525551,-3.215483189,2024-06-04 14:52:45.302406
35.34291318,-2.647565126,-3.120933533,9.798875809,2024-06-04 14:52:45.342913
35.38338558,-7.747638226,-4.162796021,1.991085529,2024-06-04 14:52:45.383386
35.42387901,-5.572377205,-3.40986824,2.970886946,2024-06-04 14:52:45.423879
35.4643911,-5.17222023,-4.904633522,4.54989481,2024-06-04 14:52:45.464391
35.50485834,-2.393327236,-4.416899681,3.733641386,2024-06-04 14:52:45.504858
35.54530396,3.457061052,-3.191710472,-4.46348381,2024-06-04 14:52:45.545304
35.58577756,6.636542797,-6.631099701,-2.384217739,2024-06-04 14:52:45.585778
35.62630943,3.661645889,-3.816043854,-1.7119838,2024-06-04 14:52:45.626309
35.66679563,0.8088212013,2.031155586,-4.373474121,2024-06-04 14:52:45.666796
35.70728344,-0.7427293062,2.8601017,-8.08910656,2024-06-04 14:52:45.707283
35.74777448,0.6983722448,6.849812508,-6.744848728,2024-06-04 14:52:45.747774
35.78826797,2.745461464,8.909423828,-5.961688995,2024-06-04 14:52:45.788268
35.82874568,3.13282299,7.869925976,-2.286676168,2024-06-04 14:52:45.828746
35.8692399,3.325427771,-8.633961678,12.11750603,2024-06-04 14:52:45.869240
35.90974735,-1.356385946,-7.1730299,3.891986847,2024-06-04 14:52:45.909747
35.95023516,2.217905283,6.009352684,-1.116758466,2024-06-04 14:52:45.950235
35.99069776,5.939267635,-14.18300629,4.950292587,2024-06-04 14:52:45.990698
36.03124276,3.258744717,5.631751537,-15.54358196,2024-06-04 14:52:46.031243
36.07165344,3.839693069,8.075233459,-3.15081358,2024-06-04 14:52:46.071653
36.11217448,4.279711723,-0.3628501892,-3.341265678,2024-06-04 14:52:46.112174
36.15264375,-6.921341896,-10.67583179,-6.35631752,2024-06-04 14:52:46.152644
36.19313151,-3.640847206,0.6253242493,-5.145166397,2024-06-04 14:52:46.193132
36.2336325,-2.015880823,1.59011364,16.64229012,2024-06-04 14:52:46.233632
36.27415688,0.9334495068,2.614581585,-0.2351802588,2024-06-04 14:52:46.274157
36.31463417,0.9493436813,1.5173769,-0.7517333031,2024-06-04 14:52:46.314634
36.35508037,-4.898791313,-3.860956192,3.002758265,2024-06-04 14:52:46.355080
36.39556808,-6.992880821,-4.547179222,6.558691025,2024-06-04 14:52:46.395568
36.43603328,-1.246558309,-2.56119442,4.459982872,2024-06-04 14:52:46.436033
36.47652094,-3.965436459,-5.694746971,4.504680634,2024-06-04 14:52:46.476521
36.51705516,-0.4410854578,-3.924960136,5.961038589,2024-06-04 14:52:46.517055
36.55753578,2.727722168,-2.545372009,-5.012092113,2024-06-04 14:52:46.557536
36.59802881,6.809925556,-6.630815506,-0.0326898098,2024-06-04 14:52:46.598029
36.63852641,4.78017807,-3.442873955,-3.974936962,2024-06-04 14:52:46.638526
36.67899375,-0.7948070765,2.325297832,-4.427880287,2024-06-04 14:52:46.678994
36.71948167,-1.452053785,3.305954933,-8.162542343,2024-06-04 14:52:46.719482
36.75998657,0.4640191197,7.059557915,-4.485405922,2024-06-04 14:52:46.759987
36.80045433,2.80618453,8.278164864,-5.784404755,2024-06-04 14:52:46.800454
36.84096068,1.456680536,6.910094261,-2.645726681,2024-06-04 14:52:46.840961
36.88146172,1.228821516,-5.770711899,10.3392334,2024-06-04 14:52:46.881462
36.9219011,-1.337126493,-10.80970192,7.105576038,2024-06-04 14:52:46.921901
36.96238896,5.708198071,2.984044552,-1.901549101,2024-06-04 14:52:46.962389
37.00290094,4.337615967,-8.472410202,0.585215807,2024-06-04 14:52:47.002901
37.04337854,2.34166503,8.149138451,-12.51971436,2024-06-04 14:52:47.043379
37.08385907,2.918385029,5.158719063,-4.098119736,2024-06-04 14:52:47.083859
37.12442688,3.595935822,-4.477060318,-2.114894152,2024-06-04 14:52:47.124427
37.16489547,-7.758574486,-7.621519089,-10.13218117,2024-06-04 14:52:47.164895
37.20538412,-3.994930744,1.478461266,9.348178864,2024-06-04 14:52:47.205384
37.24583011,-2.332730532,1.35093689,4.755606651,2024-06-04 14:52:47.245830
37.28627188,0.5597302914,1.876815319,0.004623293877,2024-06-04 14:52:47.286272
37.32678761,1.832968712,0.75573349,-1.29781127,2024-06-04 14:52:47.326788
37.36731865,-5.922223091,-3.808666229,13.36488342,2024-06-04 14:52:47.367319
37.40778084,-7.242483139,-4.195270538,0.3726291656,2024-06-04 14:52:47.407781
37.44827318,-3.430525064,-3.365510941,4.821722507,2024-06-04 14:52:47.448273
37.48878011,-4.851643562,-6.824228287,4.370847702,2024-06-04 14:52:47.488780
37.52925782,1.587127447,-3.501821518,-1.228784919,2024-06-04 14:52:47.529258
37.56972386,4.902004719,-4.552996635,-3.784329653,2024-06-04 14:52:47.569724
37.61022063,6.557860374,-6.213186264,-0.3578674793,2024-06-04 14:52:47.610221
37.65071886,0.5527877808,0.2341842651,-5.695301056,2024-06-04 14:52:47.650719
37.69121448,-1.387132168,2.332427979,-7.392402649,2024-06-04 14:52:47.691214
37.73169297,0.1651917696,5.945938587,-6.446805477,2024-06-04 14:52:47.731693
37.77217177,2.521755219,8.984927177,-6.488648415,2024-06-04 14:52:47.772172
37.81266729,2.453570366,8.928628922,-3.466430902,2024-06-04 14:52:47.812667
37.8531324,3.463680506,2.574422836,1.814530849,2024-06-04 14:52:47.853132
37.89362183,0.1859272718,-16.55965042,13.37460327,2024-06-04 14:52:47.893622
37.93410735,0.09816944599,3.019423008,-0.1060466766,2024-06-04 14:52:47.934107
37.97458563,4.908957005,-3.295098305,0.3684520721,2024-06-04 14:52:47.974586
38.0150887,4.549030304,-5.020134926,-7.153591156,2024-06-04 14:52:48.015089
38.05555479,4.313469887,8.689412117,-6.967603207,2024-06-04 14:52:48.055555
38.09604292,3.174584389,2.169454575,-2.581848145,2024-06-04 14:52:48.096043
38.13653104,-1.845654249,-8.861998558,-5.047152042,2024-06-04 14:52:48.136531
38.17701516,-6.091091156,-1.727895737,-8.851656914,2024-06-04 14:52:48.177015
38.21752021,-0.4449086189,1.464262962,11.72193909,2024-06-04 14:52:48.217520
38.25802156,-0.214936018,1.791332245,6.368283272,2024-06-04 14:52:48.258022
38.29853089,-0.274027586,2.662717819,-1.820908308,2024-06-04 14:52:48.298531
38.33900308,-2.500286341,-1.777658463,-1.450416327,2024-06-04 14:52:48.339003
38.37949542,-6.76752758,-3.797789574,12.89043808,2024-06-04 14:52:48.379495
38.42000521,-5.099922657,-3.23696804,-1.427175522,2024-06-04 14:52:48.420005
38.46047256,-2.753298998,-4.224591255,6.973658562,2024-06-04 14:52:48.460473
38.50095125,-2.438853741,-6.099674225,6.940117836,2024-06-04 14:52:48.500951
38.54144688,-0.1144275665,-4.076868057,-2.787498236,2024-06-04 14:52:48.541447
38.58194542,2.499586582,-4.172576904,-3.213134766,2024-06-04 14:52:48.581945
38.6224336,6.980685234,-6.168067932,-1.645739079,2024-06-04 14:52:48.622434
38.66290834,1.628500462,-0.1797475815,-6.383345604,2024-06-04 14:52:48.662908
38.7034063,1.429662943,3.769340038,-3.358158827,2024-06-04 14:52:48.703406
38.74389849,-1.993418455,3.508708954,-6.991292,2024-06-04 14:52:48.743898
38.78439927,1.922846079,9.364887238,-5.100255013,2024-06-04 14:52:48.784399
38.82486156,3.534898996,9.690881729,-4.647909164,2024-06-04 14:52:48.824862
38.86531693,0.1426953077,-1.021437645,3.707999706,2024-06-04 14:52:48.865317
38.90583089,2.005537033,-12.26388264,10.83476543,2024-06-04 14:52:48.905831
38.94633547,0.8419448137,3.964853287,2.071062326,2024-06-04 14:52:48.946335
38.98681141,5.251786232,-4.836958885,-0.7548487186,2024-06-04 14:52:48.986811
39.02729146,0.9037598372,-3.394421577,-7.97327137,2024-06-04 14:52:49.027291
39.06781323,3.443455458,6.442186356,-6.196699142,2024-06-04 14:52:49.067813
39.1082711,1.480185986,0.7727746964,-3.744163513,2024-06-04 14:52:49.108271
39.1487575,-9.527772903,-9.919503212,-6.989962101,2024-06-04 14:52:49.148758
39.18919058,-1.225039959,1.155762672,0.7558022141,2024-06-04 14:52:49.189191
39.22973662,0.8979663849,2.193375587,8.902457237,2024-06-04 14:52:49.229737
39.27022584,0.6902825832,2.396974087,-0.1596130133,2024-06-04 14:52:49.270226
39.31070672,1.30837512,2.111971855,-0.382427454,2024-06-04 14:52:49.310707
39.35124631,-3.416756153,-2.045659065,1.630572796,2024-06-04 14:52:49.351246
39.39169594,-5.476149559,-3.456783295,9.060915947,2024-06-04 14:52:49.391696
39.43220084,-4.504454613,-2.876879692,0.8637464046,2024-06-04 14:52:49.432201
39.47267396,-3.229201317,-4.166273117,5.44848156,2024-06-04 14:52:49.472674
39.51317646,-3.709348679,-5.43837738,6.54666853,2024-06-04 14:52:49.513176
39.5536674,0.2306964397,-3.42783165,-2.991502047,2024-06-04 14:52:49.553667
39.59420808,3.981234789,-5.375478745,-2.624706268,2024-06-04 14:52:49.594208
39.6346511,5.502865791,-4.355147362,-1.847455025,2024-06-04 14:52:49.634651
39.67514,0.2085441351,1.231532097,-4.685230255,2024-06-04 14:52:49.675140
39.71562104,0.09565865993,2.759032249,-6.187143326,2024-06-04 14:52:49.715621
39.75610985,-0.6491248608,4.808092117,-7.408255577,2024-06-04 14:52:49.756110
39.79657078,2.195363998,8.152452469,-5.034182549,2024-06-04 14:52:49.796571
39.83708084,3.055923223,8.580491066,-4.169297695,2024-06-04 14:52:49.837081
39.87753854,3.222371578,-1.269967079,3.291300297,2024-06-04 14:52:49.877539
39.91802141,-3.083266258,-13.20928764,11.94618702,2024-06-04 14:52:49.918021
39.95851032,-0.2065594196,4.688249588,-0.4018731117,2024-06-04 14:52:49.958510
39.99900151,5.081319809,-2.948176384,-3.018848419,2024-06-04 14:52:49.999002
40.03952474,4.014931202,-8.263736725,0.2960009575,2024-06-04 14:52:50.039525
40.08000495,2.070785284,8.002308846,-9.397470474,2024-06-04 14:52:50.080005
40.12049058,1.628285646,4.23563385,-2.069566011,2024-06-04 14:52:50.120491
40.1609861,-3.285712957,-7.15821743,-4.067807198,2024-06-04 14:52:50.160986
40.2014738,-5.077287197,-3.069662094,-6.466820717,2024-06-04 14:52:50.201474
40.24194021,0.7752871513,1.941752434,12.87007904,2024-06-04 14:52:50.241940
40.28243464,-0.2638771534,2.068255424,-0.7414069176,2024-06-04 14:52:50.282435
40.32292214,1.83922267,2.651865005,0.6523714662,2024-06-04 14:52:50.322922
40.36342891,-1.370743275,0.003483772278,1.034258962,2024-06-04 14:52:50.363429
40.40390203,-4.179747581,-2.881908417,4.71124649,2024-06-04 14:52:50.403902
40.44439974,-6.219390869,-3.510736465,4.810109615,2024-06-04 14:52:50.444400
40.48490261,-1.768782258,-1.922385216,3.081835985,2024-06-04 14:52:50.484903
40.52533328,-4.03578043,-6.162281036,4.060487747,2024-06-04 14:52:50.525333
40.56583756,-1.444165468,-3.525952339,5.181517124,2024-06-04 14:52:50.565838
40.60633719,2.901996136,-2.543275833,-3.575901508,2024-06-04 14:52:50.606337
40.64686078,4.954314232,-3.968173027,-1.877970934,2024-06-04 14:52:50.646861
40.68731604,1.072638273,-2.896450996,-4.84483242,2024-06-04 14:52:50.687316
40.72783261,0.3042599559,1.023535728,-2.602474689,2024-06-04 14:52:50.727833
40.76828844,0.1364070773,2.83864212,-6.150883198,2024-06-04 14:52:50.768288
40.80877558,0.4355559945,4.180185318,-7.100514412,2024-06-04 14:52:50.808776
40.84927,3.185116291,7.978748798,-3.865353107,2024-06-04 14:52:50.849270
40.88978526,2.654052973,7.356630325,-1.907784939,2024-06-04 14:52:50.889785
40.93024985,2.66669178,-1.021596909,3.471563578,2024-06-04 14:52:50.930250
40.97074354,-2.09064436,-11.95411015,10.61340523,2024-06-04 14:52:50.970744
41.01124906,0.002567768097,3.699950695,-0.00442647934,2024-06-04 14:52:51.011249
41.05170818,5.113086224,-4.124292374,-2.643854618,2024-06-04 14:52:51.051708
41.09220089,3.199195147,-5.485172272,1.499648571,2024-06-04 14:52:51.092201
41.13268,2.463096619,8.116865158,-9.203632355,2024-06-04 14:52:51.132680
41.17315771,1.454830408,4.964152336,-1.815500736,2024-06-04 14:52:51.173158
41.21364896,-3.617034912,-7.838068008,-3.047367573,2024-06-04 14:52:51.213649
41.25415776,-6.810194492,-2.655323029,-2.536907673,2024-06-04 14:52:51.254158
41.2946574,0.7439029217,1.436988831,7.638978004,2024-06-04 14:52:51.294657
41.33511511,0.2468161583,1.659706593,0.7585556507,2024-06-04 14:52:51.335115
41.37559177,2.545407534,2.89260149,0.5438657999,2024-06-04 14:52:51.375592
41.41607198,-1.051826119,-0.6539669037,0.6257437468,2024-06-04 14:52:51.416072
41.45658792,-4.492417812,-2.233818054,7.334247589,2024-06-04 14:52:51.456588
41.49707964,-6.348181725,-3.633321762,2.446626663,2024-06-04 14:52:51.497080
41.53756813,-0.8099422455,-2.542052269,4.433067799,2024-06-04 14:52:51.537568
41.57806886,-2.91317153,-5.911209106,4.711698055,2024-06-04 14:52:51.578069
41.61855943,1.634223938,-2.927441597,3.451425791,2024-06-04 14:52:51.618559
41.65903026,5.605744839,-2.615411758,-3.034497499,2024-06-04 14:52:51.659030
41.69951052,5.105201721,-3.687076569,-3.31831646,2024-06-04 14:52:51.699511
41.73999271,0.798176527,0.4909391403,-0.869740963,2024-06-04 14:52:51.739993
41.78048349,-1.24085927,1.136002541,-6.729771614,2024-06-04 14:52:51.780483
41.82098573,0.04143404961,2.922756672,-4.868289948,2024-06-04 14:52:51.820986
41.86147016,1.4434793,4.461490631,-5.149917126,2024-06-04 14:52:51.861470
41.90193693,2.50613308,7.376728058,-4.245298386,2024-06-04 14:52:51.901937
41.94241641,2.074781418,6.259780884,-1.834285975,2024-06-04 14:52:51.942416
41.98291016,1.568940043,-5.324744225,8.44054985,2024-06-04 14:52:51.982910
42.02341136,-1.159963369,-8.261565208,8.38734436,2024-06-04 14:52:52.023411
42.06388797,3.655431509,4.749511242,-0.4524509907,2024-06-04 14:52:52.063888
42.10441693,6.290739536,-9.140670776,1.192313194,2024-06-04 14:52:52.104417
42.14488417,1.651194692,3.638658524,-9.572977066,2024-06-04 14:52:52.144884
42.18534901,2.587462902,6.444372177,-4.503643513,2024-06-04 14:52:52.185349
42.22583922,2.605580568,0.04507827759,-2.215727329,2024-06-04 14:52:52.225839
42.26632797,-6.700795174,-7.742854118,-7.452008724,2024-06-04 14:52:52.266328
42.30687683,-4.079318047,-0.1430635452,6.833650589,2024-06-04 14:52:52.306877
42.34731558,0.007319927216,0.8666782379,2.744843006,2024-06-04 14:52:52.347316
42.38782167,0.5973556042,1.959023476,2.037922859,2024-06-04 14:52:52.387822
42.42830771,-0.7417178154,2.361595154,0.7929975986,2024-06-04 14:52:52.428308
42.46877683,-1.478078485,-1.234144211,-2.049711227,2024-06-04 14:52:52.468777
42.50927391,-3.426169157,-3.281270981,9.956209183,2024-06-04 14:52:52.509274
42.54976214,-6.670045853,-4.294570923,1.799343944,2024-06-04 14:52:52.549762
42.59023808,0.2247052193,-2.397270203,5.974906921,2024-06-04 14:52:52.590238
42.63071834,-3.76062417,-4.877084732,4.592589855,2024-06-04 14:52:52.630718
42.67122943,-0.6200475693,-3.014795303,2.737761974,2024-06-04 14:52:52.671229
42.71171735,3.296483517,-3.015698433,-4.12222147,2024-06-04 14:52:52.711717
42.75219381,6.450757504,-5.312981606,-1.356524467,2024-06-04 14:52:52.752194
42.79268172,2.632926702,-1.898995399,-3.397300243,2024-06-04 14:52:52.792682
42.83316302,-2.20437479,1.357842445,-4.172578812,2024-06-04 14:52:52.833163
42.87365771,-0.8834114075,2.672437668,-7.229436398,2024-06-04 14:52:52.873658
42.91417526,2.105744362,7.058294296,-5.038440704,2024-06-04 14:52:52.914175
42.95466318,3.80415678,8.733095169,-4.854502201,2024-06-04 14:52:52.954663
42.99506506,3.212947369,7.094617367,-1.099702477,2024-06-04 14:52:52.995065
43.03556818,2.782831669,-7.640642166,8.487512589,2024-06-04 14:52:53.035568
43.07613771,-2.591778278,-8.045853615,7.324465275,2024-06-04 14:52:53.076138
43.11656063,1.241611838,4.668647766,-0.7647784948,2024-06-04 14:52:53.116561
43.15704511,6.592388153,-7.033792496,-1.705203056,2024-06-04 14:52:53.157045
43.19753235,1.835952044,0.01508712769,-5.555706024,2024-06-04 14:52:53.197532
43.23803839,2.313313007,6.19003582,-4.552237034,2024-06-04 14:52:53.238038
43.27855141,2.670331001,0.4476957321,-0.8774892092,2024-06-04 14:52:53.278551
43.31903485,-5.268335342,-5.926042557,-6.825068951,2024-06-04 14:52:53.319035
43.35951787,-4.901491165,-0.3327302933,-5.645155907,2024-06-04 14:52:53.359518
43.40001636,0.2653262615,0.692530632,14.31026936,2024-06-04 14:52:53.400016
43.4404975,-0.03069901466,1.172299385,0.3643025756,2024-06-04 14:52:53.440497
43.48096073,-0.156154871,1.509037018,-1.295385599,2024-06-04 14:52:53.480961
43.52149224,-3.614220619,-1.691318512,-0.3171520233,2024-06-04 14:52:53.521492
43.56193985,-5.214968681,-3.00374794,12.2720089,2024-06-04 14:52:53.561940
43.60246782,-2.590139151,-1.887447357,-0.8272414207,2024-06-04 14:52:53.602468
43.64295078,-2.553524017,-4.170134544,4.853069782,2024-06-04 14:52:53.642951
43.68342084,-2.128895998,-4.726878166,6.990401745,2024-06-04 14:52:53.683421
43.7239736,1.966015458,-2.855815887,-3.252279043,2024-06-04 14:52:53.723974
43.76446282,4.726257324,-5.156747818,-2.081219673,2024-06-04 14:52:53.764463
43.80491037,4.865400314,-3.816282272,-2.360617876,2024-06-04 14:52:53.804910
43.84532526,-0.1989524066,0.5987548828,-3.319732904,2024-06-04 14:52:53.845325
43.88588334,-0.9047288299,1.96282959,-6.948083878,2024-06-04 14:52:53.885883
43.92633542,0.1943925619,4.469597816,-5.437168121,2024-06-04 14:52:53.926335
43.96682813,2.620688438,8.161184311,-4.506844997,2024-06-04 14:52:53.966828
44.00732209,2.603289366,8.10744381,-2.698412418,2024-06-04 14:52:54.007322
44.04780183,3.706597805,4.318124771,-0.01700997353,2024-06-04 14:52:54.047802
44.0882886,-2.269083261,-15.44327927,13.35925102,2024-06-04 14:52:54.088289
44.12878724,-2.558826447,-0.8969421387,1.719545603,2024-06-04 14:52:54.128787
44.16929391,5.58714056,2.509040356,-3.761994839,2024-06-04 14:52:54.169294
44.20977547,4.356514931,-8.880913734,2.643687487,2024-06-04 14:52:54.209775
44.25024844,3.278178215,7.649668694,-11.11626148,2024-06-04 14:52:54.250248
44.29073646,3.960231304,3.883971214,-2.23718977,2024-06-04 14:52:54.290736
44.33124146,2.159180641,-5.050412178,-2.011548519,2024-06-04 14:52:54.331241
44.37173599,-9.202775955,-4.630129814,-12.58859253,2024-06-04 14:52:54.371736
44.41220037,-3.777686357,0.6660861969,3.728775501,2024-06-04 14:52:54.412200
44.45268193,-0.7793453932,0.9400787354,13.65836143,2024-06-04 14:52:54.452682
44.49316656,1.054963589,1.026706696,0.2651312351,2024-06-04 14:52:54.493167
44.53364245,-1.205838084,1.540358543,0.3858445883,2024-06-04 14:52:54.533642
44.57414709,-3.225143909,-1.599837303,-0.7517867088,2024-06-04 14:52:54.574147
44.61466,-3.186835051,-2.672253609,3.626612186,2024-06-04 14:52:54.614660
44.6551536,-4.423187256,-2.760639191,2.976503611,2024-06-04 14:52:54.655154
44.6956788,-0.8047404289,-2.024993896,3.246449232,2024-06-04 14:52:54.695679
44.73616761,-4.786984444,-5.905836105,2.228695154,2024-06-04 14:52:54.736168
44.77662464,-2.242948771,-4.106734276,4.325096607,2024-06-04 14:52:54.776625
44.81708578,0.5915825367,-2.479662895,-2.130004644,2024-06-04 14:52:54.817086
44.85757433,2.937449217,-3.027785301,-3.486896992,2024-06-04 14:52:54.857574
44.89806823,2.77792716,-2.470140457,-1.720771074,2024-06-04 14:52:54.898068
44.93855813,-2.895985603,-0.6192626953,-6.32511425,2024-06-04 14:52:54.938558
44.97903438,-0.4883319139,0.4539661407,-5.152275085,2024-06-04 14:52:54.979034
45.01953011,-0.5161503553,2.575606346,-5.529278755,2024-06-04 14:52:55.019530
45.06001495,3.813509941,7.780433178,-3.309712648,2024-06-04 14:52:55.060015
45.10050386,1.666783333,5.365246296,-1.17485404,2024-06-04 14:52:55.100504
45.14098813,0.7140916586,1.455514908,0.9338955879,2024-06-04 14:52:55.140988
45.1814724,-1.770400047,0.6928663254,1.670004368,2024-06-04 14:52:55.181472
45.22197011,-2.205340624,-3.302659035,4.425671101,2024-06-04 14:52:55.221970
45.26245401,1.133128881,1.170983315,1.834567547,2024-06-04 14:52:55.262454
45.30293719,9.134010315,-5.287680626,-0.7561752796,2024-06-04 14:52:55.302937
45.34345,8.445868492,-9.156695366,-3.171448946,2024-06-04 14:52:55.343450
45.38395521,3.024400234,9.965343475,-9.832543373,2024-06-04 14:52:55.383955
45.4244461,0.2519779205,3.784005165,-4.833782196,2024-06-04 14:52:55.424446
45.4648738,-2.1442523,-10.2752943,-5.127314568,2024-06-04 14:52:55.464874
45.50541339,-10.775177,-3.91526413,-3.649372816,2024-06-04 14:52:55.505413
45.54594651,-5.333094597,0.2694282532,8.396207809,2024-06-04 14:52:55.545947
45.5864363,0.6692841053,1.811523914,0.5912178755,2024-06-04 14:52:55.586436
45.62689615,5.566547871,4.123691559,0.8107583523,2024-06-04 14:52:55.626896
45.66731282,2.051208019,2.92010498,-1.422908306,2024-06-04 14:52:55.667313
45.70788203,-3.275483131,-2.624820709,4.902495861,2024-06-04 14:52:55.707882
45.74832506,-3.756217003,-3.297885895,0.9465662241,2024-06-04 14:52:55.748325
45.78880604,-2.255167484,-4.23251152,3.594123363,2024-06-04 14:52:55.788806
45.82927563,-4.166147709,-5.532241821,2.473526955,2024-06-04 14:52:55.829276
45.86978209,-2.539634705,-3.274187088,3.901679993,2024-06-04 14:52:55.869782
45.91025511,-2.646099567,-1.727023125,3.949769735,2024-06-04 14:52:55.910255
45.9507425,1.472101092,-2.026621819,0.3622055352,2024-06-04 14:52:55.950742
45.99127703,5.827211857,-2.935805321,-2.543878078,2024-06-04 14:52:55.991277
46.03174511,7.362798214,-1.001759529,-0.8485450745,2024-06-04 14:52:56.031745
46.07223308,0.3270281553,-1.896446228,-7.986058235,2024-06-04 14:52:56.072233
46.11272209,-5.750685692,-6.262197495,0.8003439903,2024-06-04 14:52:56.112722
46.15319938,1.221954823,-0.2881383896,-6.359745979,2024-06-04 14:52:56.153199
46.19368745,3.870802879,3.212417603,-5.354985237,2024-06-04 14:52:56.193687
46.23419552,2.673994541,4.988226414,-3.197535753,2024-06-04 14:52:56.234196
46.2747161,0.3347797394,4.481883049,-4.318138123,2024-06-04 14:52:56.274716
46.31513282,0.8758083582,2.964777946,-2.230491161,2024-06-04 14:52:56.315133
46.35562084,-0.6655664444,1.032351494,-0.1055140495,2024-06-04 14:52:56.355621
46.39607339,1.089663982,1.391147137,-0.5472078323,2024-06-04 14:52:56.396073
46.43661073,4.980644226,2.17479229,-1.574250937,2024-06-04 14:52:56.436611
46.47709881,4.933853149,-6.267194748,2.710613012,2024-06-04 14:52:56.477099
46.51759542,-0.2677098513,-0.04859733582,-2.979701042,2024-06-04 14:52:56.517595
46.55806594,0.5844926834,3.17448473,-3.068114042,2024-06-04 14:52:56.558066
46.59855547,-0.04259133339,-0.8660125732,-0.9710491896,2024-06-04 14:52:56.598555
46.63904917,-0.7533193827,0.5459747314,0.1428267956,2024-06-04 14:52:56.639049
46.67953729,-4.195321083,-3.385211945,1.373347282,2024-06-04 14:52:56.679537
46.71999766,-3.992485523,-0.66477108,-1.458621979,2024-06-04 14:52:56.719998
46.76053506,-2.400480986,-1.068604469,3.007983685,2024-06-04 14:52:56.760535
46.80098771,-0.4159851074,0.5853490829,2.374925375,2024-06-04 14:52:56.800988
46.8414762,3.833952904,1.932502747,-1.26552248,2024-06-04 14:52:56.841476
46.88199276,0.4927212,0.04578876495,1.846060038,2024-06-04 14:52:56.881993
46.92245599,-2.973292351,-1.580750465,1.802836657,2024-06-04 14:52:56.922456
46.96294391,-1.60345614,-2.616714478,4.541218758,2024-06-04 14:52:56.962944
47.00345703,-2.877241611,-3.217737198,4.969839096,2024-06-04 14:52:57.003457
47.04393974,-2.911831141,-4.257442474,3.523124218,2024-06-04 14:52:57.043940
47.08446099,0.3696694374,-1.984646797,2.008035183,2024-06-04 14:52:57.084461
47.12495776,1.733692765,-2.694401741,3.939959049,2024-06-04 14:52:57.124958
47.16534995,3.057757378,-1.849853516,-0.7030190825,2024-06-04 14:52:57.165350
47.20584828,3.307121277,-4.667099953,-4.324662685,2024-06-04 14:52:57.205848
47.24631521,-0.8554151058,-3.542415619,-5.99903965,2024-06-04 14:52:57.246315
47.28682453,-0.4404199719,-2.86121273,-3.039306879,2024-06-04 14:52:57.286825
47.32735052,0.3046655655,-0.4989795685,-5.524354458,2024-06-04 14:52:57.327351
47.36782953,1.877666593,4.692227364,-7.882028103,2024-06-04 14:52:57.367830
47.40833104,0.4616690874,6.483837605,-6.522451878,2024-06-04 14:52:57.408331
47.44883974,1.692971706,4.03655529,-1.427541733,2024-06-04 14:52:57.448840
47.48932157,0.291831553,2.857543945,-0.8753094673,2024-06-04 14:52:57.489322
47.52979771,2.945468664,5.469874859,2.506597519,2024-06-04 14:52:57.529798
47.57030026,6.384108543,-2.020822525,1.851926088,2024-06-04 14:52:57.570300
47.61077636,0.7291026115,-6.472780228,-2.493226051,2024-06-04 14:52:57.610776
47.65125787,-1.675908804,2.730046272,-1.438283324,2024-06-04 14:52:57.651258
47.69174506,2.782428265,0.9366092682,-0.2127712965,2024-06-04 14:52:57.691745
47.73220328,1.070114851,-1.555135727,-2.538783312,2024-06-04 14:52:57.732203
47.77271354,-0.4918298721,-3.66767025,3.059260845,2024-06-04 14:52:57.772714
47.81321563,-7.514906406,-3.310606003,-3.396717548,2024-06-04 14:52:57.813216
47.85369558,-3.068681479,-0.6793842316,5.204442978,2024-06-04 14:52:57.853696
47.89418667,2.595954895,2.255696297,1.046945095,2024-06-04 14:52:57.894187
47.93470339,2.748892307,3.445643425,-0.1251473427,2024-06-04 14:52:57.934703
47.97511667,-2.707184792,-0.2232904434,2.534930706,2024-06-04 14:52:57.975117
48.01560802,-4.067677975,-1.547290802,1.612569332,2024-06-04 14:52:58.015608
48.05608828,-1.853823185,-2.895580292,3.552835464,2024-06-04 14:52:58.056088
48.09661511,-2.502806664,-3.065408707,4.067989826,2024-06-04 14:52:58.096615
48.13711297,-3.418789387,-5.114135742,3.748446465,2024-06-04 14:52:58.137113
48.17759584,-1.266628265,-3.000962257,3.029213905,2024-06-04 14:52:58.177596
48.21808235,0.2477555275,-2.185635567,3.53928256,2024-06-04 14:52:58.218082
48.25857365,1.718503237,-1.702381134,-2.000419378,2024-06-04 14:52:58.258574
48.29907532,4.087249756,-4.935210228,0.1003296375,2024-06-04 14:52:58.299075
48.33955453,0.9519059062,-3.99913311,-4.407675266,2024-06-04 14:52:58.339555
48.3800286,1.180791378,-3.200019836,-5.580011368,2024-06-04 14:52:58.380029
48.42053141,-0.6408694386,-2.390986443,-4.265685081,2024-06-04 14:52:58.420531
48.46103537,4.141182423,3.358262062,-6.295967102,2024-06-04 14:52:58.461035
48.50152782,2.28864789,5.043195724,-7.805119514,2024-06-04 14:52:58.501528
48.54201115,0.7311547399,5.987643242,-5.390955925,2024-06-04 14:52:58.542011
48.58249729,0.0001018047333,4.751058578,-0.3349766731,2024-06-04 14:52:58.582497
48.6229788,-0.9751048088,2.866912842,0.8451352119,2024-06-04 14:52:58.622979
48.66346297,1.298025131,5.37320137,1.090216875,2024-06-04 14:52:58.663463
48.70396297,4.032644272,-9.262428284,4.552792549,2024-06-04 14:52:58.703963
48.74448677,1.610262275,-1.123151779,-2.226808548,2024-06-04 14:52:58.744487
48.78494776,2.090584278,5.919483185,-3.115968227,2024-06-04 14:52:58.784948
48.82539245,3.40809536,-1.259673119,-1.69541049,2024-06-04 14:52:58.825392
48.86585797,1.539001703,-5.856003761,-2.993751526,2024-06-04 14:52:58.865858
48.90634157,-9.135436058,-4.107392311,2.3177104,2024-06-04 14:52:58.906342
48.94684203,-4.791882515,-1.482318878,-0.1769772172,2024-06-04 14:52:58.946842
48.98738506,-1.414987803,-0.58152771,4.385647774,2024-06-04 14:52:58.987385
49.02783922,-0.4522207379,1.899617195,3.255497456,2024-06-04 14:52:59.027839
49.06836396,4.232046127,2.981790543,0.4344488382,2024-06-04 14:52:59.068364
49.10885037,2.018686533,2.616411209,-1.081208587,2024-06-04 14:52:59.108850
49.14930094,0.4356379509,1.065921783,-1.002123594,2024-06-04 14:52:59.149301
49.18979016,-0.002846479416,-0.9154176712,0.3735937476,2024-06-04 14:52:59.189790
49.23029677,0.008457303047,-3.767733574,2.196139812,2024-06-04 14:52:59.230297
49.27078021,-1.765883923,-3.541128159,1.245977402,2024-06-04 14:52:59.270780
49.31125906,-2.588354111,-7.188417435,1.349381447,2024-06-04 14:52:59.311259
49.35180354,-0.4445569515,-4.865160942,3.492917538,2024-06-04 14:52:59.351804
49.39226136,-3.00770998,0.2509679794,2.004376888,2024-06-04 14:52:59.392261
49.43274792,-3.561690807,-1.640254974,4.169414997,2024-06-04 14:52:59.432748
49.47322287,-1.113745093,-2.096688271,3.70173502,2024-06-04 14:52:59.473223
49.51370927,2.59651947,-2.133393288,1.229029417,2024-06-04 14:52:59.513709
49.55426104,4.764614582,-0.3827342987,-2.15254879,2024-06-04 14:52:59.554261
49.59473558,2.562526941,2.969112873,-6.456476688,2024-06-04 14:52:59.594736
49.6352236,-4.991116047,-1.625341415,-0.7084069252,2024-06-04 14:52:59.635224
49.67562125,-2.143331051,-4.040740013,-0.4611961842,2024-06-04 14:52:59.675621
49.71610917,1.678855181,0.6719055176,-4.020848274,2024-06-04 14:52:59.716109
49.75659724,3.599130392,1.348973751,-2.931841373,2024-06-04 14:52:59.756597
49.79712646,3.534384966,2.284497738,-2.575907707,2024-06-04 14:52:59.797126
49.83763256,1.116492867,1.40793848,-3.716324568,2024-06-04 14:52:59.837633
49.87809313,0.9045798182,3.52555275,-3.893021345,2024-06-04 14:52:59.878093
49.91860995,-1.290653706,4.632808685,-1.49021101,2024-06-04 14:52:59.918610
49.95909797,-2.039872169,1.137709618,0.1914029121,2024-06-04 14:52:59.959098
49.99956703,-0.8686280251,1.986774445,-0.379570961,2024-06-04 14:52:59.999567
50.04003959,-0.4646039009,3.503931999,0.05034637451,2024-06-04 14:53:00.040040
50.08053021,6.017709732,-8.623736382,6.835882664,2024-06-04 14:53:00.080530
50.1210563,4.21531105,1.081755638,-2.618827581,2024-06-04 14:53:00.121056
50.16153407,2.729771137,7.055266857,-4.850914001,2024-06-04 14:53:00.161534
50.20202214,2.77616477,-2.730628967,-4.668896675,2024-06-04 14:53:00.202022
50.24249047,-2.120882511,-4.240213394,-2.037920475,2024-06-04 14:53:00.242490
50.28298568,0.835036993,-1.358902931,0.2433711886,2024-06-04 14:53:00.282986
50.32346412,-5.458464146,-2.536902428,-0.07423317432,2024-06-04 14:53:00.323464
50.36399068,-3.743653297,-0.7023239136,1.04922843,2024-06-04 14:53:00.363991
50.4044899,-4.736844063,-1.922930717,0.9439790249,2024-06-04 14:53:00.404490
50.44492375,-3.111035824,-0.6039886475,3.911088467,2024-06-04 14:53:00.444924
50.48541172,-1.966884851,1.629826546,0.6658563614,2024-06-04 14:53:00.485412
50.52589964,7.902852058,2.853415012,1.08217442,2024-06-04 14:53:00.525900
50.56637506,-0.5905336738,-0.8931846619,3.362082005,2024-06-04 14:53:00.566375
50.60688073,1.937848806,0.5569458008,-1.45677495,2024-06-04 14:53:00.606881
50.64740136,1.005142927,1.533715248,-1.66684258,2024-06-04 14:53:00.647401
50.68788349,0.9341794252,-0.6740446091,-0.7953974009,2024-06-04 14:53:00.687883
50.72830917,0.2740137577,-2.555810928,0.2617964745,2024-06-04 14:53:00.728309
50.76884933,-1.324898958,-5.698015213,-0.4736061096,2024-06-04 14:53:00.768849
50.8093399,-1.180000901,-8.992213249,3.556285381,2024-06-04 14:53:00.809340
50.84981657,-2.7384305,-1.075576782,3.692248821,2024-06-04 14:53:00.849817
50.89031266,-5.144169331,-3.333650589,3.78403616,2024-06-04 14:53:00.890313
50.93078589,-2.877429485,-2.495429039,3.98403573,2024-06-04 14:53:00.930786
50.97124511,-0.8016242981,-0.5819072723,2.12703228,2024-06-04 14:53:00.971245
51.01177162,2.961796761,-0.4137535095,1.004873991,2024-06-04 14:53:01.011772
51.05225297,3.323805332,-1.204432487,-2.0403409,2024-06-04 14:53:01.052253
51.09275193,0.392244935,-0.902053833,-5.125722885,2024-06-04 14:53:01.092752
51.13324042,-3.995610714,-4.023573875,-1.577972412,2024-06-04 14:53:01.133240
51.17372146,0.5145436525,-2.562837601,-3.637144089,2024-06-04 14:53:01.173721
51.2142275,1.935268879,0.3455266953,-5.153244019,2024-06-04 14:53:01.214227
51.25473386,4.16913414,3.680804253,-5.327719688,2024-06-04 14:53:01.254734
51.29517349,1.928668618,4.939795017,-6.387327671,2024-06-04 14:53:01.295173
51.33564459,-0.3898111582,4.866488457,-5.114200115,2024-06-04 14:53:01.335645
51.37614933,-2.989692688,4.111457348,-1.040282249,2024-06-04 14:53:01.376149
51.41665448,-2.932903767,1.345414162,0.7763776779,2024-06-04 14:53:01.416654
51.45715104,1.016006351,-2.391286373,7.085426807,2024-06-04 14:53:01.457151
51.49763886,5.24358654,-4.468121529,-2.619395971,2024-06-04 14:53:01.497639
51.53811495,2.064754486,5.772507668,-0.8697142601,2024-06-04 14:53:01.538115
51.5786113,6.039839745,1.681952477,-5.339267731,2024-06-04 14:53:01.578611
51.61910787,-0.132558763,-4.941754341,-3.256533861,2024-06-04 14:53:01.619108
51.65958782,-0.3934988976,-0.7298469543,-0.108348012,2024-06-04 14:53:01.659588
51.70007146,2.443759441,-0.5487337112,0.9707244635,2024-06-04 14:53:01.700071
51.7405687,-4.88251543,-4.500986099,-0.1281068027,2024-06-04 14:53:01.740569
51.78109401,-6.935691357,-2.345870018,1.000007629,2024-06-04 14:53:01.781094
51.82154677,-2.729730606,-0.5022935867,4.446887493,2024-06-04 14:53:01.821547
51.86201282,0.5526214838,1.679719925,1.540520906,2024-06-04 14:53:01.862013
51.90250266,6.092463017,4.087018013,1.563162684,2024-06-04 14:53:01.902503
51.94299073,-1.149185658,1.855802059,-1.12110424,2024-06-04 14:53:01.942991
51.98346219,1.60552907,-0.4340295792,0.095708251,2024-06-04 14:53:01.983462
52.02398537,-0.3589498997,-4.652748108,2.471606731,2024-06-04 14:53:02.023985
52.06449828,-3.17906785,-5.158446312,1.081720591,2024-06-04 14:53:02.064498
52.10499058,-1.945667028,-7.701997757,2.727277517,2024-06-04 14:53:02.104991
52.14543979,-2.457271099,-0.3849029541,2.634916782,2024-06-04 14:53:02.145440
52.18589136,-4.240660667,-1.60816288,2.770135641,2024-06-04 14:53:02.185891
52.22637933,-2.678483248,-2.627270699,3.94799161,2024-06-04 14:53:02.226379
52.26692261,0.454821825,-2.200175285,0.7829575539,2024-06-04 14:53:02.266923
52.30738375,3.087498665,-2.26611805,-1.951882839,2024-06-04 14:53:02.307384
52.34789052,4.852743149,-1.926230431,-2.073605299,2024-06-04 14:53:02.347891
52.38835282,2.719898224,-1.560509682,-1.383731365,2024-06-04 14:53:02.388353
52.42884761,-4.41464138,-5.71457386,-2.231345177,2024-06-04 14:53:02.428848
52.46934308,-1.357692719,-3.264253616,-3.985049725,2024-06-04 14:53:02.469343
52.509855,2.977583885,1.827317238,-5.76076889,2024-06-04 14:53:02.509855
52.55031396,4.993916512,5.550959587,-6.15532589,2024-06-04 14:53:02.550314
52.59080235,2.752526045,3.919339657,-6.830855846,2024-06-04 14:53:02.590802
52.63129282,1.128763437,4.260935307,-3.971758127,2024-06-04 14:53:02.631293
52.67179282,-3.627552509,1.752099991,0.7324204445,2024-06-04 14:53:02.671793
52.71228084,-4.859150887,0.464495182,1.879282475,2024-06-04 14:53:02.712281
52.75278498,-1.052180052,2.051620483,0.4799699783,2024-06-04 14:53:02.752785
52.79323727,3.057649136,2.174306393,1.567368984,2024-06-04 14:53:02.793237
52.83372378,5.52905035,-7.792517185,-1.576795578,2024-06-04 14:53:02.833724
52.87427061,4.05356741,2.363145828,-4.73097086,2024-06-04 14:53:02.874271
52.91478816,4.201023102,0.2737226486,-3.492152691,2024-06-04 14:53:02.914788
52.95527748,1.727177024,-2.766002655,-1.78467679,2024-06-04 14:53:02.955277
52.99576696,0.8671966195,-1.125761032,-0.9810084105,2024-06-04 14:53:02.995767
53.03614784,0.4548391104,0.763630867,-1.462728262,2024-06-04 14:53:03.036148
53.0766617,0.2421536446,-0.8991556168,0.2795894742,2024-06-04 14:53:03.076662
53.11715154,-4.886291504,-4.372088432,0.06612214446,2024-06-04 14:53:03.117152
53.15765941,-7.835721016,-2.673927307,1.039515615,2024-06-04 14:53:03.157659
53.19814883,-4.073587418,-1.201429367,0.7700468302,2024-06-04 14:53:03.198149
53.23861008,-1.673380852,1.728645325,2.088110685,2024-06-04 14:53:03.238610
53.27911284,2.156598568,2.544392109,-0.5519752502,2024-06-04 14:53:03.279113
53.31960566,6.270451546,3.285283566,1.390283704,2024-06-04 14:53:03.319606
53.36011956,-2.027431011,-0.1729288101,2.243357182,2024-06-04 14:53:03.360120
53.40057633,-2.225463629,-2.058612823,3.369729996,2024-06-04 14:53:03.400576
53.44107862,-3.204396725,-3.469484329,4.258271217,2024-06-04 14:53:03.441079
53.48154524,-3.762585878,-3.973446846,3.992888927,2024-06-04 14:53:03.481545
53.52204498,-2.814978838,-4.745910645,3.634060383,2024-06-04 14:53:03.522045
53.56252154,-0.5423823595,-3.035059929,3.673281431,2024-06-04 14:53:03.562522
53.60300295,2.437630177,-4.119980812,-2.00599575,2024-06-04 14:53:03.603003
53.64350649,3.764259815,-1.670024872,-4.050743103,2024-06-04 14:53:03.643506
53.68398138,3.245097399,-6.880322456,1.802252054,2024-06-04 14:53:03.683981
53.72446967,0.1387324929,-4.536172867,-3.162674427,2024-06-04 14:53:03.724470
53.76496633,0.3598200083,-3.451000214,-5.075306416,2024-06-04 14:53:03.764966
53.80539701,2.251425743,0.2794685364,-5.524722099,2024-06-04 14:53:03.805397
53.84588524,3.719566107,2.973263264,-6.970783234,2024-06-04 14:53:03.845885
53.88638847,2.740912676,4.493497849,-7.266879559,2024-06-04 14:53:03.886388
53.92687534,1.362111568,4.067878723,-5.319792747,2024-06-04 14:53:03.926875
53.96737519,0.1756914407,3.861698627,-2.15441227,2024-06-04 14:53:03.967375
54.0079042,-2.279960155,1.216672421,1.261333466,2024-06-04 14:53:04.007904
54.04837149,-3.757080078,-2.126502991,1.910738468,2024-06-04 14:53:04.048371
54.08886388,-1.389255285,0.8054127693,3.838541985,2024-06-04 14:53:04.088864
54.12936602,3.715707302,-3.245051861,1.252315044,2024-06-04 14:53:04.129366
54.16985696,1.368155718,3.529464245,-0.8926758766,2024-06-04 14:53:04.169857
54.21033732,2.475808144,1.869546413,-1.770353794,2024-06-04 14:53:04.210337
54.25081618,3.75490737,0.5907578468,-2.049627304,2024-06-04 14:53:04.250816
54.29131238,3.201496124,0.4401369095,-3.178094864,2024-06-04 14:53:04.291312
54.33180852,1.353324413,-1.437650681,-3.942680359,2024-06-04 14:53:04.331809
54.37230665,1.575862408,-1.922178268,-2.944169521,2024-06-04 14:53:04.372307
54.41277258,1.10765779,-0.9258422852,-1.06859076,2024-06-04 14:53:04.412773
54.45327159,0.5781383514,-3.321946144,2.666887283,2024-06-04 14:53:04.453272
54.49376717,-7.932389259,-3.66450119,-1.233651161,2024-06-04 14:53:04.493767
54.53425863,-6.606563568,-2.200777054,1.639103651,2024-06-04 14:53:04.534259
54.57476144,-3.762766838,1.269302368,1.249820471,2024-06-04 14:53:04.574761
54.61520962,2.37682128,2.023783684,0.04111838341,2024-06-04 14:53:04.615210
54.65566316,7.115880966,4.03756237,1.961533904,2024-06-04 14:53:04.655663
54.6961405,-4.844824791,-2.222271919,2.798855543,2024-06-04 14:53:04.696140
54.736683,-1.974047065,-1.227184296,1.519641399,2024-06-04 14:53:04.736683
54.77717831,-2.458202362,-3.204211235,3.118761539,2024-06-04 14:53:04.777178
54.81766862,-1.107774258,-3.326607704,3.806978941,2024-06-04 14:53:04.817669
54.85815029,-2.639078617,-6.089430809,2.333355665,2024-06-04 14:53:04.858150
54.89863462,-1.869848371,-3.681079865,3.640123367,2024-06-04 14:53:04.898635
54.93912362,-2.158468723,-1.901426315,2.201873064,2024-06-04 14:53:04.939124
54.97960076,-0.1047005653,-3.393194199,-1.02885747,2024-06-04 14:53:04.979601
55.02011764,2.494922638,-1.097681046,-3.098374128,2024-06-04 14:53:05.020118
55.06061212,2.928696156,-4.430994987,-0.199849844,2024-06-04 14:53:05.060612
55.10108097,0.7991983294,-2.318692207,-2.988758326,2024-06-04 14:53:05.101081
55.14156118,-0.151724875,-3.439222336,-2.451872826,2024-06-04 14:53:05.141561
55.18204873,2.280453682,-1.600907326,-4.974346638,2024-06-04 14:53:05.182049
55.22253826,4.569101334,0.4840826988,-4.737896442,2024-06-04 14:53:05.222538
55.26303008,3.304261684,3.179675579,-6.586470604,2024-06-04 14:53:05.263030
55.30351133,2.131866693,3.73328495,-5.500133991,2024-06-04 14:53:05.303511
55.34401951,-0.3816292882,3.922822952,-3.55861783,2024-06-04 14:53:05.344020
55.3845317,-2.238993168,2.700434685,0.2660503387,2024-06-04 14:53:05.384532
55.42502628,-4.169540882,0.7987046242,0.8302049637,2024-06-04 14:53:05.425026
55.46544357,-1.644475937,0.1495347023,6.180307388,2024-06-04 14:53:05.465444
55.5059054,5.772007465,-2.136692524,-2.148865223,2024-06-04 14:53:05.505905
55.54643784,0.2094008327,2.026556015,-2.148455381,2024-06-04 14:53:05.546438
55.58690493,4.035809994,1.43998909,-1.861638784,2024-06-04 14:53:05.586905
55.62740873,3.342334509,-1.61001873,-2.315326691,2024-06-04 14:53:05.627409
55.66789342,1.986870527,-2.70610714,-1.680221319,2024-06-04 14:53:05.667893
55.70838227,1.618112564,-2.120194435,0.04966688156,2024-06-04 14:53:05.708382
55.74887425,2.314696312,0.2682189941,-0.296660006,2024-06-04 14:53:05.748874
55.78936753,1.610746622,0.06273365021,1.014496326,2024-06-04 14:53:05.789368
55.82987904,-4.462486267,-3.82671833,-0.6197435856,2024-06-04 14:53:05.829879
55.87035451,-10.59342384,-3.317695618,-0.3725306392,2024-06-04 14:53:05.870355
55.91085409,-2.155902147,1.362675667,3.123877764,2024-06-04 14:53:05.910854
55.95134238,0.9355709553,2.595488548,1.50401473,2024-06-04 14:53:05.951342
55.99179321,5.160692215,3.997678757,-0.3569819927,2024-06-04 14:53:05.991793
56.03230894,-0.3874857426,1.110645294,1.907806396,2024-06-04 14:53:06.032309
56.07280284,-2.85552597,-1.625386238,0.6537684202,2024-06-04 14:53:06.072803
56.1132642,-0.7021932602,-1.169881821,2.547616959,2024-06-04 14:53:06.113264
56.15378456,-1.66509974,-4.054846764,3.898703575,2024-06-04 14:53:06.153785
56.19427284,-3.904378176,-7.253609657,2.526312351,2024-06-04 14:53:06.194273
56.23479149,-3.31788516,-4.736633301,4.001513481,2024-06-04 14:53:06.234791
56.2751879,-2.277042627,-2.453036308,5.446982384,2024-06-04 14:53:06.275188
56.31566665,-2.238203287,-3.912740707,0.8091686964,2024-06-04 14:53:06.315667
56.35617769,1.10054338,-3.131810188,-1.600455523,2024-06-04 14:53:06.356178
56.39666571,4.67965889,-2.408303261,-3.555115938,2024-06-04 14:53:06.396666
56.43716774,1.843674302,-4.54585743,-0.1610832214,2024-06-04 14:53:06.437168
56.47766722,0.44916448,-3.849191666,-2.180314541,2024-06-04 14:53:06.477667
56.51817441,1.220149994,-3.072825432,-5.651096344,2024-06-04 14:53:06.518174
56.55863165,3.501805544,-1.237952232,-6.833055973,2024-06-04 14:53:06.558632
56.59913238,3.061371803,3.73601222,-9.027727127,2024-06-04 14:53:06.599132
56.63961238,1.684414983,4.840128899,-8.110674858,2024-06-04 14:53:06.639612
56.68011883,1.444512129,3.818036318,-4.022675514,2024-06-04 14:53:06.680119
56.72060659,-0.5114479661,2.265713692,0.2713170052,2024-06-04 14:53:06.720607
56.76111087,-3.410329342,-0.2977828979,2.069215775,2024-06-04 14:53:06.761111
56.80164993,-4.295885563,-0.4277257919,4.879306316,2024-06-04 14:53:06.801650
56.84205649,4.078249454,-2.642783165,-0.3843955994,2024-06-04 14:53:06.842056
56.88255087,2.575358868,3.275097609,1.551407814,2024-06-04 14:53:06.882551
56.9230542,2.50996089,0.3978614807,-1.031449795,2024-06-04 14:53:06.923054
56.96354258,3.949074268,2.112839699,-2.994885683,2024-06-04 14:53:06.963543
57.0040105,3.188497066,1.268060684,-4.124732018,2024-06-04 14:53:07.004010
57.04454404,1.465242863,-2.908247948,-3.717394352,2024-06-04 14:53:07.044544
57.08499138,0.220444411,-3.516653061,-1.270789504,2024-06-04 14:53:07.084991
57.1254642,0.915805459,-0.2025270462,0.5056983232,2024-06-04 14:53:07.125464
57.16595243,0.6132998466,-0.539855957,2.525650024,2024-06-04 14:53:07.165952
57.20644071,-6.636787415,-3.450680733,-0.9230318069,2024-06-04 14:53:07.206441
57.2469356,-6.680957317,-2.043607712,1.093253016,2024-06-04 14:53:07.246936
57.28744451,-2.399271011,0.9033708572,1.49200809,2024-06-04 14:53:07.287445
57.32794071,0.9658586979,2.449154377,0.5731372833,2024-06-04 14:53:07.327941
57.36841831,4.898816109,3.243816853,1.039181471,2024-06-04 14:53:07.368418
57.40890462,-1.130137444,-1.356474876,1.270266294,2024-06-04 14:53:07.408905
57.44938852,-2.262666702,-1.348403931,2.014861584,2024-06-04 14:53:07.449389
57.48988758,-4.822385311,-4.445947647,4.463658333,2024-06-04 14:53:07.489888
57.53035889,-3.522436857,-4.135430336,2.047451496,2024-06-04 14:53:07.530359
57.57085508,-1.051246166,-4.402497292,2.835119724,2024-06-04 14:53:07.570855
57.61133842,-1.035243392,-3.014479637,4.617652893,2024-06-04 14:53:07.611338
57.65183446,-2.202870369,-4.294484138,2.051049471,2024-06-04 14:53:07.651834
57.69231409,1.841590643,-4.932525635,-0.59496665,2024-06-04 14:53:07.692314
57.73278837,5.561159134,-2.488012314,-0.9293609858,2024-06-04 14:53:07.732788
57.773298,2.978265285,-2.700019836,-3.262633801,2024-06-04 14:53:07.773298
57.81380295,-0.5320900679,-3.91904068,-2.480870247,2024-06-04 14:53:07.813803
57.85432232,0.07883822918,-4.226511955,-4.20576334,2024-06-04 14:53:07.854322
57.89479081,1.112375975,-0.8252077103,-6.58588028,2024-06-04 14:53:07.894791
57.935188,3.631392479,2.849608898,-8.919026375,2024-06-04 14:53:07.935188
57.9756767,3.457365751,4.219992638,-8.0169487,2024-06-04 14:53:07.975677
58.01618055,2.721516609,4.128820896,-4.834292412,2024-06-04 14:53:08.016181
58.05671508,0.2357811332,3.0917418,-0.964589119,2024-06-04 14:53:08.056715
58.09720316,-2.596823931,0.2268519402,1.500527859,2024-06-04 14:53:08.097203
58.1376842,-4.443189144,1.702906609,1.587289333,2024-06-04 14:53:08.137684
58.17812675,1.058333397,0.3969049454,6.475410938,2024-06-04 14:53:08.178127
58.21864888,4.460748196,-2.121634007,1.079537392,2024-06-04 14:53:08.218649
58.25916024,0.8054200411,3.068218708,-3.765717506,2024-06-04 14:53:08.259160
58.29963696,3.23281312,0.4458332062,-2.885338783,2024-06-04 14:53:08.299637
58.34014508,3.280190468,-0.4701604843,-2.078295946,2024-06-04 14:53:08.340145
58.38061712,1.502236843,-0.2233829498,-2.565022945,2024-06-04 14:53:08.380617
58.42108962,1.727926016,-1.568163872,-1.304905415,2024-06-04 14:53:08.421090
58.46160107,2.567554474,0.5486803055,-1.466928363,2024-06-04 14:53:08.461601
58.50209618,2.601494074,-4.405432701,0.4775295854,2024-06-04 14:53:08.502096
58.54256394,-8.960303307,-7.033482552,-1.501816392,2024-06-04 14:53:08.542564
58.58305498,-7.434069633,-0.8609495163,3.302562952,2024-06-04 14:53:08.583055
58.62355826,-4.152979851,2.228676319,2.739473343,2024-06-04 14:53:08.623558
58.66403201,-1.008502483,2.120121002,2.426207781,2024-06-04 14:53:08.664032
58.70452081,3.651184559,1.586843967,-1.480603695,2024-06-04 14:53:08.704521
58.74500217,4.665503502,2.666558266,0.7056102753,2024-06-04 14:53:08.745002
58.78548217,-1.584173918,-2.20937252,1.60061729,2024-06-04 14:53:08.785482
58.82600894,-1.573058605,-2.43059063,2.629849911,2024-06-04 14:53:08.826009
58.86651654,-1.826807499,-4.644558907,3.254144192,2024-06-04 14:53:08.866517
58.90694873,-3.461048841,-6.868270874,2.589470625,2024-06-04 14:53:08.906949
58.94740482,-1.020940065,-3.670671463,5.228622913,2024-06-04 14:53:08.947405
58.98795488,-2.083157778,-1.608618736,1.177520037,2024-06-04 14:53:08.987955
59.02844519,-1.432149172,-2.73038578,-0.6854226589,2024-06-04 14:53:09.028445
59.06890883,1.007680416,-2.50203228,1.142687082,2024-06-04 14:53:09.068909
59.1094131,5.152647495,-1.412646294,-1.364248514,2024-06-04 14:53:09.109413
59.14989399,2.675306559,-3.106349945,-0.3944773674,2024-06-04 14:53:09.149894
59.19038243,-0.2737188041,-4.689090729,-1.048221588,2024-06-04 14:53:09.190382
59.23088128,-0.2033472657,-4.406227112,-5.90292263,2024-06-04 14:53:09.230881
59.27134019,4.55213213,-1.558914185,-6.734470844,2024-06-04 14:53:09.271340
59.31184852,3.355721712,2.630341053,-8.338853836,2024-06-04 14:53:09.311849
59.35237764,0.2741759121,2.850399017,-7.400688648,2024-06-04 14:53:09.352378
59.39284019,0.8498291969,4.257087708,-5.053369045,2024-06-04 14:53:09.392840
59.43329935,-0.3655283451,2.586766243,-1.509134769,2024-06-04 14:53:09.433299
59.47379498,-2.307376146,1.454061985,-0.4115986824,2024-06-04 14:53:09.473795
59.51435175,-1.726106524,2.055715561,0.2102975845,2024-06-04 14:53:09.514352
59.5548242,2.152508259,-3.165481091,8.687859535,2024-06-04 14:53:09.554824
59.59522159,4.109511852,-3.560956955,-0.1740956306,2024-06-04 14:53:09.595222
59.63574607,0.06692385674,6.142882347,-2.5312922,2024-06-04 14:53:09.635746
59.67628972,4.492310047,0.9213657379,-1.296203613,2024-06-04 14:53:09.676290
59.71677889,3.261595726,0.2194766998,-1.438968658,2024-06-04 14:53:09.716779
59.75723029,1.735315323,0.7262601852,-2.641094208,2024-06-04 14:53:09.757230
59.797698,0.8283932805,-2.329532623,-1.916432858,2024-06-04 14:53:09.797698
59.83820837,1.800539494,1.286187172,-1.611040115,2024-06-04 14:53:09.838208
59.87869639,1.771644115,-2.864938736,-0.1265887618,2024-06-04 14:53:09.878696
59.91917706,-7.659848213,-9.948569298,3.804161549,2024-06-04 14:53:09.919177
59.95966623,-8.624102592,-1.822001457,-0.272336632,2024-06-04 14:53:09.959666
60.0001293,-4.109474659,2.420100212,1.017432332,2024-06-04 14:53:10.000129
60.04061862,-0.09806060791,2.670623302,0.1248841882,2024-06-04 14:53:10.040619
60.08114295,7.205696106,3.655073166,-0.2232658863,2024-06-04 14:53:10.081143
60.12162217,-0.7249221802,0.2522830963,1.572507143,2024-06-04 14:53:10.121622
60.16207717,-0.9481608868,-0.5383024216,0.5795452595,2024-06-04 14:53:10.162077
60.20256482,-2.13116312,-4.762638092,4.005854607,2024-06-04 14:53:10.202565
60.24308081,-4.795674801,-3.99464035,5.012411118,2024-06-04 14:53:10.243081
60.28354441,-3.067886591,-5.07665062,3.321985722,2024-06-04 14:53:10.283544
60.32405357,-1.952901125,-5.0405159,2.748358727,2024-06-04 14:53:10.324054
60.36456253,-0.5729176998,-1.945025444,2.823277235,2024-06-04 14:53:10.364563
60.40504139,0.5186326504,-4.282440186,-0.1196151227,2024-06-04 14:53:10.405041
60.44549472,3.323055267,-2.771378517,-0.9145803452,2024-06-04 14:53:10.445495
60.48600696,5.831204891,-3.09879303,-0.3297373056,2024-06-04 14:53:10.486007
60.52651071,2.321999311,-1.454278946,-3.733830929,2024-06-04 14:53:10.526511
60.56701008,0.5151664615,-1.28674221,-2.172240257,2024-06-04 14:53:10.567010
60.60746326,0.2767592371,-1.779079437,-5.655765057,2024-06-04 14:53:10.607463
60.64795352,2.81029439,-1.126143456,-5.907635212,2024-06-04 14:53:10.647954
60.68842331,3.962925673,0.772105217,-5.321822166,2024-06-04 14:53:10.688423
60.72891826,1.928506136,3.31323123,-5.646854877,2024-06-04 14:53:10.728918
60.76942191,1.118427992,4.405303478,-3.346171856,2024-06-04 14:53:10.769422
60.80990784,-1.913350224,1.842128754,-0.9475827217,2024-06-04 14:53:10.809908
60.85038201,-3.253063679,1.322497845,-0.4377574921,2024-06-04 14:53:10.850382
60.89087831,-0.987834096,1.64288044,1.849475384,2024-06-04 14:53:10.890878
60.9313767,6.126867771,-3.31196785,7.584601879,2024-06-04 14:53:10.931377
60.9718629,2.682566404,1.888974667,-2.529798031,2024-06-04 14:53:10.971863
61.01234399,1.111108184,3.1012187,-2.788958788,2024-06-04 14:53:11.012344
61.05282368,3.073837519,-0.1055049896,-2.441885471,2024-06-04 14:53:11.052824
61.09331201,1.722281218,0.3339767456,-3.017261505,2024-06-04 14:53:11.093312
61.13382847,-0.08084585518,-0.5415220261,-2.347790003,2024-06-04 14:53:11.133828
61.17434159,2.902716637,-0.3758983612,-0.1957143545,2024-06-04 14:53:11.174342
61.21480378,2.340579987,1.232754707,-0.7670137286,2024-06-04 14:53:11.214804
61.25523607,-0.2261564732,-8.602769852,1.860092521,2024-06-04 14:53:11.255236
61.29573967,-8.532424927,-4.399022102,-0.8367404938,2024-06-04 14:53:11.295740
61.33626941,-5.18989563,0.05106163025,1.541864038,2024-06-04 14:53:11.336269
61.37675675,-3.006291866,1.276057243,1.029519081,2024-06-04 14:53:11.376757
61.4172605,1.563920498,1.558309555,2.570486546,2024-06-04 14:53:11.417260
61.45771675,2.356935024,3.113674164,2.177196264,2024-06-04 14:53:11.457717
61.49823649,0.2127108574,2.237924099,-0.8688842654,2024-06-04 14:53:11.498236
61.5387093,-0.2578365803,1.674857616,0.5838698149,2024-06-04 14:53:11.538709
61.57917675,1.327560544,0.5208034515,-0.1156886816,2024-06-04 14:53:11.579177
61.61969305,0.5034954548,-1.442240715,0.5443956256,2024-06-04 14:53:11.619693
61.66015805,0.04412603378,-2.553730965,-0.6746500731,2024-06-04 14:53:11.660158
61.7006779,-0.2724399567,-4.022500038,-0.3736841679,2024-06-04 14:53:11.700678
61.74113732,0.2735359669,-7.413683891,-0.5799844265,2024-06-04 14:53:11.741137
61.78162899,1.701225519,-7.860192299,2.12225008,2024-06-04 14:53:11.781629
61.82211935,-1.892042875,-2.256882668,3.712976933,2024-06-04 14:53:11.822119
61.86259779,-4.927380085,-2.441641808,1.77755022,2024-06-04 14:53:11.862598
61.90309602,-5.253067017,-0.3102169037,2.353023529,2024-06-04 14:53:11.903096
61.94354217,-3.10818553,0.1788415909,3.231933594,2024-06-04 14:53:11.943542
61.98409717,0.2921192646,-0.4179105759,1.257622004,2024-06-04 14:53:11.984097
62.02454847,2.106153727,-1.110931396,0.7011262178,2024-06-04 14:53:12.024548
62.06502284,3.390844584,0.3395528793,0.5175797343,2024-06-04 14:53:12.065023
62.10552847,2.777573109,-1.049087524,-2.101467371,2024-06-04 14:53:12.105528
62.14601232,0.1781919003,-1.642186165,-0.3478306532,2024-06-04 14:53:12.146012
62.18650113,2.397728443,-2.342331886,-1.474673986,2024-06-04 14:53:12.186501
62.22697462,3.260619164,-0.5150403976,-4.315095901,2024-06-04 14:53:12.226975
62.26753696,2.78686738,0.2687978745,-4.317420483,2024-06-04 14:53:12.267537
62.3079729,3.212486506,3.550367832,-5.484603405,2024-06-04 14:53:12.307973
62.34842873,0.9672192335,5.538012981,-5.886427402,2024-06-04 14:53:12.348429
62.38891816,-2.058120251,6.350239277,-2.143300533,2024-06-04 14:53:12.388918
62.42945612,-4.547019482,2.313102722,2.287007332,2024-06-04 14:53:12.429456
62.46989264,-2.234560728,-3.745384216,3.954195499,2024-06-04 14:53:12.469893
62.5104029,7.573649406,-3.096100807,-2.148283482,2024-06-04 14:53:12.510403
62.55089727,2.073031425,5.099032402,-1.524790287,2024-06-04 14:53:12.550897
62.59139779,5.790172577,2.399456978,-3.076433897,2024-06-04 14:53:12.591398
62.63186425,3.621070862,-2.454051018,-1.858176947,2024-06-04 14:53:12.631864
62.67235534,1.691148758,-1.496853828,-0.6345243454,2024-06-04 14:53:12.672355
62.71283503,1.17005372,-3.920326233,-0.169449389,2024-06-04 14:53:12.712835
