Time (s),Acceleration x (m/s^2),Acceleration y (m/s^2),Acceleration z (m/s^2),Datetime
0.002410791665,-4.164639587,7.658074951,3.522325287,2024-06-04 15:24:01.002411
0.04271079167,-2.411485291,7.371421051,5.639223175,2024-06-04 15:24:01.042711
0.08301179167,-1.380429382,6.725514221,8.713380432,2024-06-04 15:24:01.083012
0.1233117917,-4.273762665,6.577322388,5.333409119,2024-06-04 15:24:01.123312
0.1636127917,-2.706821136,6.985224152,4.699627075,2024-06-04 15:24:01.163613
0.2039127917,-2.177372131,6.307134247,7.018455048,2024-06-04 15:24:01.203913
0.2442137917,-3.279530182,5.865851898,7.156617737,2024-06-04 15:24:01.244214
0.2845137917,-2.817890167,6.33946701,4.98687973,2024-06-04 15:24:01.284514
0.3248147917,-0.3213816833,5.48190033,8.083340607,2024-06-04 15:24:01.324815
0.3651157917,-2.833308105,5.108426971,8.469537506,2024-06-04 15:24:01.365116
0.4054157917,-1.084943848,4.641847229,6.775809631,2024-06-04 15:24:01.405416
0.4457167917,1.10919342,3.736230469,12.36758148,2024-06-04 15:24:01.445717
0.4860167917,-1.582209778,5.146447906,8.342002716,2024-06-04 15:24:01.486017
0.5263177917,0.1336720276,5.659281464,8.208480377,2024-06-04 15:24:01.526318
0.5666177917,-1.254990234,3.627556458,7.228468323,2024-06-04 15:24:01.566618
0.6069187917,1.337618408,3.58863739,8.053402863,2024-06-04 15:24:01.606919
0.6472187917,-0.4478686523,4.670138397,7.471263428,2024-06-04 15:24:01.647219
0.6875197917,-2.567760315,2.858306122,6.336173859,2024-06-04 15:24:01.687520
0.7278207917,-4.340523834,1.932481384,4.409081268,2024-06-04 15:24:01.727821
0.7681207917,-2.72628067,1.943109283,8.898695068,2024-06-04 15:24:01.768121
0.8084217917,-5.031936035,-0.5709127808,3.435805206,2024-06-04 15:24:01.808422
0.8487210417,-6.452332306,-1.51993927,-2.105820923,2024-06-04 15:24:01.848721
0.8890220417,-4.450245667,-2.424358521,4.268972626,2024-06-04 15:24:01.889022
0.9293230417,-6.694229279,-2.9767099,5.008285217,2024-06-04 15:24:01.929323
0.9696230417,-10.82743423,-4.56685318,7.635771332,2024-06-04 15:24:01.969623
1.009924042,-7.375462646,-4.742138672,10.19844223,2024-06-04 15:24:02.009924
1.050224042,-7.541916504,-8.085585938,10.37582336,2024-06-04 15:24:02.050224
1.090525042,-4.639751587,-8.363408203,11.68215683,2024-06-04 15:24:02.090525
1.130826042,-4.043092346,-7.979606323,11.70146667,2024-06-04 15:24:02.130826
1.171126042,-5.705684967,-6.551426239,10.08378067,2024-06-04 15:24:02.171126
1.211427042,-2.642754364,-5.285658417,10.69555847,2024-06-04 15:24:02.211427
1.251727042,-9.651479645,-10.93042007,5.432353363,2024-06-04 15:24:02.251727
1.292028042,-11.95967972,-9.257498932,3.419938202,2024-06-04 15:24:02.292028
1.332329042,-8.419092407,-9.389823761,1.48012207,2024-06-04 15:24:02.332329
1.372629042,-9.899513855,-6.677613831,2.735561371,2024-06-04 15:24:02.372629
1.412930042,-6.217770081,-6.834786987,-6.79706543,2024-06-04 15:24:02.412930
1.453231042,-8.230484619,-3.445534973,1.204395447,2024-06-04 15:24:02.453231
1.493531042,-10.79225739,-4.682861938,2.039957886,2024-06-04 15:24:02.493531
1.533832042,-10.51503387,-2.01600769,4.51655777,2024-06-04 15:24:02.533832
1.574133042,-6.627767487,-1.093775482,4.783153381,2024-06-04 15:24:02.574133
1.614433042,-4.448150024,-2.232906647,1.488654327,2024-06-04 15:24:02.614433
1.654734042,-6.273903351,-3.343896332,1.04602478,2024-06-04 15:24:02.654734
1.695034042,-7.390880585,-0.1462458801,5.387895813,2024-06-04 15:24:02.695034
1.735335042,-4.233496399,-4.01105896,-2.16928894,2024-06-04 15:24:02.735335
1.775636042,0.007035369873,-5.753585358,-3.300336914,2024-06-04 15:24:02.775636
1.815935833,-18.86272476,-12.49496658,-16.96616867,2024-06-04 15:24:02.815936
1.856236833,-8.146658936,-9.938283234,3.457210693,2024-06-04 15:24:02.856237
1.896537833,-9.38638092,-10.44378204,1.040486298,2024-06-04 15:24:02.896538
1.936837833,-6.824458466,-5.373675385,3.10888504,2024-06-04 15:24:02.936838
1.977138833,-6.178701324,-3.850293274,1.41575592,2024-06-04 15:24:02.977139
2.017439833,-6.3979953,-3.440894623,0.6550378418,2024-06-04 15:24:03.017440
2.057739833,-4.890779572,-6.419999542,3.961062927,2024-06-04 15:24:03.057740
2.098040833,-5.322781219,-8.02795578,0.3276686096,2024-06-04 15:24:03.098041
2.138341833,-5.36484375,-7.097041626,2.270179138,2024-06-04 15:24:03.138342
2.178641833,-2.857707367,-5.220992889,0.6985972595,2024-06-04 15:24:03.178642
2.218942833,-0.6794371033,-6.124963074,0.5062472534,2024-06-04 15:24:03.218943
2.259243833,-4.155658264,-27.38674896,-1.316212921,2024-06-04 15:24:03.259244
2.299544833,-2.146835632,-11.44385239,1.240470428,2024-06-04 15:24:03.299545
2.339844833,4.00402359,-7.719746704,1.395997009,2024-06-04 15:24:03.339845
2.380145833,1.896855469,-10.72504715,1.415456543,2024-06-04 15:24:03.380146
2.420446833,-1.851350098,-10.53374496,0.633482666,2024-06-04 15:24:03.420447
2.460746833,-0.1333726501,-9.586814117,0.4568499756,2024-06-04 15:24:03.460747
2.501047833,1.883982239,-9.518406372,1.724863129,2024-06-04 15:24:03.501048
2.541348833,1.75510025,-9.863588562,0.739611969,2024-06-04 15:24:03.541349
2.581648833,0.9231303406,-9.531279602,-0.613125,2024-06-04 15:24:03.581649
2.621949833,0.03921844482,-8.958720245,1.31980545,2024-06-04 15:24:03.621950
2.662250833,-2.968177643,-10.55155792,0.3155438232,2024-06-04 15:24:03.662251
2.702551833,0.3412902832,-9.950707397,1.109343109,2024-06-04 15:24:03.702552
2.742851833,1.669029236,-10.48719177,1.720971222,2024-06-04 15:24:03.742852
2.783152833,1.65331192,-9.217681732,1.618584137,2024-06-04 15:24:03.783153
2.823453792,1.535806274,-9.669292603,1.888173523,2024-06-04 15:24:03.823454
2.863754792,1.994602203,-9.224567413,1.321751404,2024-06-04 15:24:03.863755
2.904054792,-0.06780899048,-9.946216736,-0.2441423035,2024-06-04 15:24:03.904055
2.944355792,-0.5179229736,-9.783654785,0.7376660156,2024-06-04 15:24:03.944356
2.984656792,-0.2061213684,-9.659263458,0.5752537537,2024-06-04 15:24:03.984657
3.024957792,-0.1776805115,-9.745035095,-0.1908531189,2024-06-04 15:24:04.024958
3.065257792,0.9616003418,-9.034612427,0.04580474854,2024-06-04 15:24:04.065258
3.105558792,1.858535156,-9.245823212,-1.326092377,2024-06-04 15:24:04.105559
3.145859792,2.765798492,-12.69824387,-1.514400787,2024-06-04 15:24:04.145860
3.186160792,5.5579422,-10.99688187,5.732030182,2024-06-04 15:24:04.186161
3.226460792,0.1784289551,-9.38413559,8.197553101,2024-06-04 15:24:04.226461
3.266761792,-1.671424255,-9.027427368,4.224664764,2024-06-04 15:24:04.266762
3.307062792,-0.1703457642,-8.803942108,2.482437744,2024-06-04 15:24:04.307063
3.347363792,-3.588787079,-8.126900024,3.038231964,2024-06-04 15:24:04.347364
3.387663792,-2.1658461,-7.122788086,4.440066833,2024-06-04 15:24:04.387664
3.427964792,-0.6099815369,-7.264992371,4.255350952,2024-06-04 15:24:04.427965
3.468265792,2.045646057,-6.099965057,2.727627869,2024-06-04 15:24:04.468266
3.508566792,3.485202484,-7.157665558,3.095113678,2024-06-04 15:24:04.508567
3.548866792,1.999242554,-11.34116592,2.852767639,2024-06-04 15:24:04.548867
3.589167792,3.842958527,-11.96716415,0.3826043701,2024-06-04 15:24:04.589168
3.629468792,4.490960999,-12.67698807,2.866239624,2024-06-04 15:24:04.629469
3.669769792,-2.938838654,-8.243956604,-0.592767334,2024-06-04 15:24:04.669770
3.710070792,-1.694925385,-7.147486725,3.337010651,2024-06-04 15:24:04.710071
3.750370792,-4.614154816,-11.59174484,-0.9660910034,2024-06-04 15:24:04.750371
3.790671792,-0.2312690735,-11.56614807,0.3558100891,2024-06-04 15:24:04.790672
3.830973667,2.79648468,-9.083710327,2.501897278,2024-06-04 15:24:04.830974
3.871274667,3.275937653,-9.283694458,2.196981354,2024-06-04 15:24:04.871275
3.911574667,2.10028244,-9.466614075,-0.1113684082,2024-06-04 15:24:04.911575
3.951875667,1.749412079,-9.565258942,0.2701881409,2024-06-04 15:24:04.951876
3.992176667,1.670675812,-10.28615982,2.047442322,2024-06-04 15:24:04.992177
4.032477667,3.747157745,-9.149872742,1.519190826,2024-06-04 15:24:05.032478
4.072778667,4.71190155,-12.46038849,2.782863007,2024-06-04 15:24:05.072779
4.113079667,4.655917969,-13.09027863,5.961502991,2024-06-04 15:24:05.113080
4.153379667,-2.316432953,-6.45532608,4.757855988,2024-06-04 15:24:05.153380
4.193680667,-4.825365601,-5.309159546,3.8963974,2024-06-04 15:24:05.193681
4.233981667,0.2809657288,-7.845934296,3.685935059,2024-06-04 15:24:05.233982
4.274282667,1.326242065,-4.981490936,2.320923615,2024-06-04 15:24:05.274283
4.314583667,2.956651611,-5.521268463,4.134402466,2024-06-04 15:24:05.314584
4.354883667,3.325634308,-9.408235474,3.358715515,2024-06-04 15:24:05.354884
4.395184667,6.00835556,-9.573342133,3.81332016,2024-06-04 15:24:05.395185
4.435485667,6.959477692,-6.73269928,4.672383728,2024-06-04 15:24:05.435486
4.475786667,6.049819336,-10.14500336,4.143683167,2024-06-04 15:24:05.475787
4.516087667,1.31756012,-14.23734329,8.505013733,2024-06-04 15:24:05.516088
4.556387667,-0.9380992126,-4.161795502,-2.373314667,2024-06-04 15:24:05.556388
4.596688667,-3.788471832,-10.4523143,-2.170336761,2024-06-04 15:24:05.596689
4.636989667,2.000140686,-16.65870804,7.276069336,2024-06-04 15:24:05.636990
4.677290667,-2.309397583,-2.887645111,1.85224823,2024-06-04 15:24:05.677291
4.717591667,1.885329437,-10.41593994,5.841602325,2024-06-04 15:24:05.717592
4.757892667,-1.57143219,-8.050109711,3.972738647,2024-06-04 15:24:05.757893
4.798193667,-0.1974394226,-8.582253113,3.450474701,2024-06-04 15:24:05.798194
4.838492917,0.5376818848,-9.142238617,4.407434692,2024-06-04 15:24:05.838493
4.878793917,2.209555206,-10.024953,4.011957092,2024-06-04 15:24:05.878794
4.919094917,-0.2546205139,-8.987759857,3.874692535,2024-06-04 15:24:05.919095
4.959395917,2.185155945,-8.857231293,4.282145233,2024-06-04 15:24:05.959396
4.999696917,2.858006744,-9.041947174,4.973557434,2024-06-04 15:24:05.999697
5.039997917,1.726958771,-9.684261475,4.176315308,2024-06-04 15:24:06.039998
5.080298917,0.8488847351,-9.530231781,2.924917603,2024-06-04 15:24:06.080299
5.120598917,3.188369751,-8.855734406,4.212390289,2024-06-04 15:24:06.120599
5.160899917,3.114273834,-8.919052734,4.034111023,2024-06-04 15:24:06.160900
5.201200917,1.59717865,-9.568552094,2.816842346,2024-06-04 15:24:06.201201
5.241501917,0.9349557495,-9.253307648,3.201991425,2024-06-04 15:24:06.241502
5.281802917,1.704655151,-9.439969482,2.70876709,2024-06-04 15:24:06.281803
5.322103917,1.420396271,-9.518855438,3.438948669,2024-06-04 15:24:06.322104
5.362404917,2.655328217,-10.27104126,5.677842865,2024-06-04 15:24:06.362405
5.402705917,5.02549942,-8.015232239,8.384214935,2024-06-04 15:24:06.402706
5.443005917,2.794538727,-1.774110718,2.182611237,2024-06-04 15:24:06.443006
5.483306917,-3.003055115,-0.1815724182,1.345402222,2024-06-04 15:24:06.483307
5.523607917,-0.9300160217,-15.450271,12.19379288,2024-06-04 15:24:06.523608
5.563908917,3.074756012,-14.61231354,-0.2650987244,2024-06-04 15:24:06.563909
5.604209917,-0.7161108398,-2.159858551,2.830164642,2024-06-04 15:24:06.604210
5.644510917,2.030527496,-10.73223221,3.461252289,2024-06-04 15:24:06.644511
5.684811917,-0.2424957275,-12.30800537,2.240241394,2024-06-04 15:24:06.684812
5.725112917,0.2609074402,-7.498806152,2.051334229,2024-06-04 15:24:06.725113
5.765413917,2.08157135,-9.361682281,3.478765869,2024-06-04 15:24:06.765414
5.805714917,1.421893158,-8.30293396,2.046095123,2024-06-04 15:24:06.805715
5.846016292,0.2962339783,-7.829468536,4.479734344,2024-06-04 15:24:06.846016
5.886316292,-3.10184967,-9.503287811,1.984872437,2024-06-04 15:24:06.886316
5.926617292,-2.519261169,-9.101523285,0.9569599915,2024-06-04 15:24:06.926617
5.966918292,-3.966302032,-9.824968872,1.856589203,2024-06-04 15:24:06.966918
6.007219292,-1.661245422,-15.21436157,1.251397705,2024-06-04 15:24:07.007219
6.047520292,4.580774231,-13.93766647,8.736133118,2024-06-04 15:24:07.047520
6.087821292,9.766590271,-9.240284729,13.7475618,2024-06-04 15:24:07.087821
6.128122292,14.13121399,-23.88463165,10.1536853,2024-06-04 15:24:07.128122
6.168423292,7.465425568,-1.714684296,-4.314627686,2024-06-04 15:24:07.168423
6.208724292,-6.683002625,-0.7029382324,1.55855896,2024-06-04 15:24:07.208724
6.249025292,-7.216493225,1.64043869,-1.860032043,2024-06-04 15:24:07.249025
6.289326292,-1.434017944,3.551514587,4.875810699,2024-06-04 15:24:07.289326
6.329627292,9.511371002,-0.2612068176,3.861370239,2024-06-04 15:24:07.329627
6.369928292,6.016738129,-24.92676453,16.00816086,2024-06-04 15:24:07.369928
6.410229292,1.859882355,-18.4667981,5.68188446,2024-06-04 15:24:07.410229
6.450530292,-5.348078613,-2.612217865,6.893165588,2024-06-04 15:24:07.450530
6.490830292,2.76729538,-11.61195282,1.609004059,2024-06-04 15:24:07.490830
6.531131292,1.277293854,-10.0900676,3.755240936,2024-06-04 15:24:07.531131
6.571432292,6.875202942,-10.03543121,5.012925568,2024-06-04 15:24:07.571432
6.611733292,6.680757294,-14.83774475,13.40941498,2024-06-04 15:24:07.611733
6.652034292,24.14314407,-9.170978851,10.27972321,2024-06-04 15:24:07.652034
6.692335292,14.45648758,-14.3407782,1.953138428,2024-06-04 15:24:07.692335
6.732636292,-4.275259552,4.387675781,1.61588974,2024-06-04 15:24:07.732636
6.772937292,-21.1647876,6.64842453,-1.797312469,2024-06-04 15:24:07.772937
6.813238292,-4.864733734,-11.51061356,8.337212677,2024-06-04 15:24:07.813238
6.853539458,0.8580157471,8.961564331,-10.13482452,2024-06-04 15:24:07.853539
6.893840458,11.43561951,-7.131769409,11.41855499,2024-06-04 15:24:07.893840
6.934141458,26.53966049,-24.3684256,8.775052185,2024-06-04 15:24:07.934141
6.974442458,4.813839569,-10.04695724,13.60326187,2024-06-04 15:24:07.974442
7.014743458,17.67823792,-1.115031281,16.04812775,2024-06-04 15:24:08.014743
7.055044458,12.43643829,2.365979919,-0.7605683899,2024-06-04 15:24:08.055044
7.095345458,-6.426735535,-28.02053101,11.51390671,2024-06-04 15:24:08.095345
7.135646458,1.969454498,8.307873688,7.734416199,2024-06-04 15:24:08.135646
7.175947458,-4.292922821,-18.33896393,5.031636658,2024-06-04 15:24:08.175947
7.216248458,4.935835876,-18.85149811,7.954458618,2024-06-04 15:24:08.216248
7.256549458,1.864822083,15.47960999,-1.454974365,2024-06-04 15:24:08.256549
7.296850458,2.296973419,-0.8704399109,1.235081635,2024-06-04 15:24:08.296850
7.337151458,9.445358276,-5.957012329,1.573677521,2024-06-04 15:24:08.337151
7.377452458,-2.332749023,-8.088879089,7.782615967,2024-06-04 15:24:08.377452
7.417753458,-0.3207829285,-1.22385498,9.130562897,2024-06-04 15:24:08.417753
7.458054458,4.519551544,-6.20609436,18.7030069,2024-06-04 15:24:08.458054
7.498355458,11.17321518,-9.138945465,12.30665817,2024-06-04 15:24:08.498355
7.538656458,4.271517334,-16.37474854,9.740544434,2024-06-04 15:24:08.538656
7.578957458,2.419418793,17.4806488,-6.80874115,2024-06-04 15:24:08.578957
7.619258458,0.8780740356,-11.35793106,10.06716522,2024-06-04 15:24:08.619258
7.659559458,8.937763824,-12.03063217,6.080206146,2024-06-04 15:24:08.659559
7.699860458,-0.5454656982,-11.9188147,3.508254547,2024-06-04 15:24:08.699860
7.740161458,3.493734741,-6.846911774,3.506458282,2024-06-04 15:24:08.740161
7.780462458,3.033441925,-7.817942505,4.541555786,2024-06-04 15:24:08.780462
7.820763542,2.872676239,-7.252119141,6.335874481,2024-06-04 15:24:08.820764
7.861064542,3.731290741,-3.104843445,5.581443329,2024-06-04 15:24:08.861065
7.901365542,0.6194119263,-5.042863312,-0.4070036316,2024-06-04 15:24:08.901366
7.941666542,4.777165833,-8.467441864,-0.1026864624,2024-06-04 15:24:08.941667
7.981967542,3.25752594,-10.56727524,5.02205658,2024-06-04 15:24:08.981968
8.022268542,5.075046387,-3.979025574,-1.676064606,2024-06-04 15:24:09.022269
8.062569542,6.275699615,-10.43914169,6.819668427,2024-06-04 15:24:09.062570
8.102870542,6.872209167,-10.80063995,2.129621429,2024-06-04 15:24:09.102871
8.143171542,1.75510025,-12.35575607,9.191785583,2024-06-04 15:24:09.143172
8.183472542,4.88164856,-7.603887634,6.56534729,2024-06-04 15:24:09.183473
8.223773542,-2.316283264,-3.672313385,9.983489227,2024-06-04 15:24:09.223774
8.264074542,3.978127441,-3.749403076,1.946103058,2024-06-04 15:24:09.264075
8.304375542,5.898034973,1.005010071,2.345322876,2024-06-04 15:24:09.304376
8.344676542,12.19364319,-1.541195068,8.095764771,2024-06-04 15:24:09.344677
8.384977542,4.560715942,-34.26240097,8.106093292,2024-06-04 15:24:09.384978
8.425278542,-9.048383789,7.130422211,4.653822327,2024-06-04 15:24:09.425279
8.465579542,2.506537628,-12.78700928,0.05837860107,2024-06-04 15:24:09.465580
8.505880542,0.6819818115,-18.00815186,1.988764343,2024-06-04 15:24:09.505881
8.546181542,1.93772049,-7.377109222,3.590134277,2024-06-04 15:24:09.546182
8.586482542,2.474653931,-7.091054077,1.248703308,2024-06-04 15:24:09.586483
8.626783542,1.237776031,-10.7934549,1.498234406,2024-06-04 15:24:09.626784
8.667085542,0.03876937866,-11.01514389,1.955683136,2024-06-04 15:24:09.667086
8.707386542,1.695524139,-8.283624115,1.001118164,2024-06-04 15:24:09.707387
8.747687542,4.183350677,-9.833052063,0.5029541016,2024-06-04 15:24:09.747688
8.787988542,4.326752472,-7.778424683,-0.4074526978,2024-06-04 15:24:09.787989
8.828288958,1.029259644,-6.71862854,-0.746048584,2024-06-04 15:24:09.828289
8.868589958,1.13269455,-4.797523499,0.8330177307,2024-06-04 15:24:09.868590
8.908890958,4.796775055,-14.1111557,8.9102211,2024-06-04 15:24:09.908891
8.949191958,2.015259247,-12.46308289,-7.727081451,2024-06-04 15:24:09.949192
8.989492958,0.4676275635,-8.727002106,6.915918274,2024-06-04 15:24:09.989493
9.029793958,6.326893158,-11.98333054,6.111191711,2024-06-04 15:24:10.029794
9.070094958,6.030210114,-5.454806671,4.377796326,2024-06-04 15:24:10.070095
9.110395958,0.09086105347,-7.293433228,4.683760071,2024-06-04 15:24:10.110396
9.150696958,2.516417084,-4.100273438,13.78917526,2024-06-04 15:24:10.150697
9.190997958,-2.481539612,0.3037184143,-10.59616516,2024-06-04 15:24:10.190998
9.231299958,-3.653153229,-14.40304871,9.965077515,2024-06-04 15:24:10.231300
9.271600958,8.020321655,-17.37227417,0.3065625,2024-06-04 15:24:10.271601
9.311901958,-2.530338135,-4.261637878,-0.02350112915,2024-06-04 15:24:10.311902
9.352202958,-1.664688263,-11.41211838,1.527423706,2024-06-04 15:24:10.352203
9.392503958,-2.631078644,-24.463927,8.274942169,2024-06-04 15:24:10.392504
9.432804958,8.736282806,-8.821306,-10.13617172,2024-06-04 15:24:10.432805
9.473105958,7.161856842,11.30643814,-4.838238831,2024-06-04 15:24:10.473106
9.513406958,-7.942932587,-2.643353119,8.51594101,2024-06-04 15:24:10.513407
9.553707958,11.82091827,-2.101779327,-3.257076874,2024-06-04 15:24:10.553708
9.594008958,11.53216873,-23.64662659,34.98869064,2024-06-04 15:24:10.594009
9.634310958,3.333118744,2.577190704,6.580914917,2024-06-04 15:24:10.634311
9.674611958,5.348377991,-12.32267487,3.11247757,2024-06-04 15:24:10.674612
9.714912958,2.075583801,-12.0846698,0.9659413147,2024-06-04 15:24:10.714913
9.755213958,-0.1402583313,-10.93251572,-1.220711517,2024-06-04 15:24:10.755214
9.795514958,3.131787415,-8.720565491,3.012485504,2024-06-04 15:24:10.795515
9.835816792,5.38594986,-3.026107178,10.45575714,2024-06-04 15:24:10.835817
9.876117792,-3.761527863,-4.072281647,11.92091034,2024-06-04 15:24:10.876118
9.916418792,-1.088087311,-0.05388793945,7.092700653,2024-06-04 15:24:10.916419
9.956719792,0.9366023254,-5.073848877,6.054609375,2024-06-04 15:24:10.956720
9.997020792,3.784430237,-6.591991882,10.10353958,2024-06-04 15:24:10.997021
10.03732179,4.408632202,-16.0089093,10.03378464,2024-06-04 15:24:11.037322
10.07762379,0.1133143616,-1.703906708,6.240971832,2024-06-04 15:24:11.077624
10.11792479,2.233804779,-9.295968933,7.07668396,2024-06-04 15:24:11.117925
10.15822579,-2.627186737,0.2088157654,7.469916229,2024-06-04 15:24:11.158226
10.19852679,-0.016615448,-2.474354553,8.259374542,2024-06-04 15:24:11.198527
10.23882779,-6.237229614,-3.64252533,13.51284988,2024-06-04 15:24:11.238828
10.27912879,-1.618733826,-4.233945465,14.12432831,2024-06-04 15:24:11.279129
10.31942979,-0.4583468628,-3.937262421,9.333840179,2024-06-04 15:24:11.319430
10.35973079,-2.738555145,-5.363346863,10.34633469,2024-06-04 15:24:11.359731
10.40003179,-0.1299298096,-4.910239105,8.788075104,2024-06-04 15:24:11.400032
10.44033279,-0.01481918335,-5.416636047,8.091723175,2024-06-04 15:24:11.440333
10.48063479,0.005388793945,-4.078568573,8.201744385,2024-06-04 15:24:11.480635
10.52093579,0.2646496582,-6.649023285,8.150700531,2024-06-04 15:24:11.520936
10.56123679,2.356100464,-6.616690521,7.553741913,2024-06-04 15:24:11.561237
10.60153779,-0.6159690857,-6.033652954,8.018974457,2024-06-04 15:24:11.601538
10.64183879,0.07753875732,-6.853498077,7.514972534,2024-06-04 15:24:11.641839
10.68213979,1.977687378,-6.968009949,6.624624023,2024-06-04 15:24:11.682140
10.72244079,2.110760651,-7.184160461,5.932463379,2024-06-04 15:24:11.722441
10.76274179,2.311193848,-7.577841797,5.327122192,2024-06-04 15:24:11.762742
10.80304379,1.930535431,-7.589367828,3.975732422,2024-06-04 15:24:11.803044
10.84334492,1.882784729,-7.9507164,3.898193665,2024-06-04 15:24:11.843345
10.88364592,2.591860199,-8.051456909,3.224893799,2024-06-04 15:24:11.883646
10.92394692,3.342399445,-8.416098633,2.664758606,2024-06-04 15:24:11.923947
10.96424792,3.426973572,-7.970175934,5.849685516,2024-06-04 15:24:11.964248
11.00454892,2.374661865,-8.042774963,4.107458496,2024-06-04 15:24:12.004549
11.04484992,3.421884155,-6.276747437,5.800288239,2024-06-04 15:24:12.044850
11.08515192,1.357826385,-5.551056519,9.602531433,2024-06-04 15:24:12.085152
11.12545292,3.947441254,-9.222771149,5.345533905,2024-06-04 15:24:12.125453
11.16575392,5.669609985,-7.340884552,3.200943604,2024-06-04 15:24:12.165754
11.20605492,3.066523132,-10.51847672,-1.841620331,2024-06-04 15:24:12.206055
11.24635592,3.443888397,-12.74434799,-1.084045715,2024-06-04 15:24:12.246356
11.28665692,6.117927704,-14.63551529,3.941603394,2024-06-04 15:24:12.286657
11.32695892,10.69166656,-3.523672485,5.283413086,2024-06-04 15:24:12.326959
11.36725992,-6.857988739,-3.413501587,2.987936554,2024-06-04 15:24:12.367260
11.40756092,-12.02838684,-7.032974854,0.2008822632,2024-06-04 15:24:12.407561
11.44786192,-7.275470581,-5.038222961,5.788911896,2024-06-04 15:24:12.447862
11.48816292,-1.168470154,-9.309889984,14.29886536,2024-06-04 15:24:12.488163
11.52846392,3.094514923,-5.26769577,6.941814423,2024-06-04 15:24:12.528464
11.56876592,11.58770325,-0.3854484558,15.85907089,2024-06-04 15:24:12.568766
11.60906692,4.532424774,1.708846436,-7.501201172,2024-06-04 15:24:12.609067
11.64936792,16.59958099,-25.01612869,14.76858856,2024-06-04 15:24:12.649368
11.68966892,-0.4074526978,-9.574539642,2.436333618,2024-06-04 15:24:12.689669
11.72996992,1.211281128,-1.368154907,0.1908531189,2024-06-04 15:24:12.729970
11.77027092,-10.81366287,-19.42959595,6.961872711,2024-06-04 15:24:12.770271
11.81057292,-2.211800537,-9.621541901,6.963668976,2024-06-04 15:24:12.810573
11.85087329,-0.6979985046,-13.83198624,5.632038116,2024-06-04 15:24:12.850873
11.89117429,-3.506308594,-11.54309601,5.559738464,2024-06-04 15:24:12.891174
11.93147529,-16.18434448,-27.13691849,7.398365021,2024-06-04 15:24:12.931475
11.97177629,-0.3191363525,-7.953560486,5.925128632,2024-06-04 15:24:12.971776
12.01207829,3.128643951,-2.374512177,-2.915786591,2024-06-04 15:24:13.012078
12.05237929,4.853357391,-11.43786484,0.6153703308,2024-06-04 15:24:13.052379
12.09268029,13.14581314,-13.4369577,-2.448458405,2024-06-04 15:24:13.092680
12.13298129,-9.865235138,-31.71754303,13.69651794,2024-06-04 15:24:13.132981
12.17328229,-10.10668304,-16.47578842,1.77500885,2024-06-04 15:24:13.173282
12.21358329,3.841311951,3.374881897,-2.270478516,2024-06-04 15:24:13.213583
12.25388529,12.65468445,8.435857544,0.6506968689,2024-06-04 15:24:13.253885
12.29418629,-2.700983276,5.386099548,2.465822296,2024-06-04 15:24:13.294186
12.33448729,3.968697052,1.485510864,-1.850152588,2024-06-04 15:24:13.334487
12.37478829,5.60000473,-2.952310638,2.823129272,2024-06-04 15:24:13.374788
12.41508929,39.68113266,-11.25314896,15.55834625,2024-06-04 15:24:13.415089
12.45539129,3.350782013,9.228159943,3.349734192,2024-06-04 15:24:13.455391
12.49569229,3.562292175,-3.017125854,-16.36651566,2024-06-04 15:24:13.495692
12.53599329,11.56524994,-10.60005707,-5.074447632,2024-06-04 15:24:13.535993
12.57629429,-11.17755615,-22.68442749,9.054521027,2024-06-04 15:24:13.576294
12.61659529,-16.18075195,-21.10790588,8.086783447,2024-06-04 15:24:13.616595
12.65689729,-12.23510696,-8.925489349,23.49199814,2024-06-04 15:24:13.656897
12.69719829,0.1058299255,5.573509827,-1.568887482,2024-06-04 15:24:13.697198
12.73749929,6.906038818,-10.54302567,10.39483383,2024-06-04 15:24:13.737499
12.77780029,8.49827774,-37.40601379,21.2935199,2024-06-04 15:24:13.777800
12.81810129,5.694608002,-16.0009758,0.4240681458,2024-06-04 15:24:13.818101
12.85840358,1.379231873,7.467670898,0.3947291565,2024-06-04 15:24:13.858404
12.89870458,-10.40740768,9.654623108,-1.459165649,2024-06-04 15:24:13.898705
12.93900558,-0.6737489319,1.54808075,-5.753884735,2024-06-04 15:24:13.939006
12.97930658,-4.64409256,-24.2449324,25.5827005,2024-06-04 15:24:13.979307
13.01960758,34.72359192,-19.23544968,71.15707809,2024-06-04 15:24:14.019608
13.05990958,3.910917206,-9.889185333,20.73937225,2024-06-04 15:24:14.059910
13.10021058,-0.3796105957,0.5460644531,-6.496789856,2024-06-04 15:24:14.100211
13.14051158,3.156186676,-20.39628571,6.622827759,2024-06-04 15:24:14.140512
13.18081258,-3.092119904,-3.128045197,4.038451996,2024-06-04 15:24:14.180813
13.22111358,-1.497935028,2.08276886,0.8876541138,2024-06-04 15:24:14.221114
13.26141558,-1.353186035,-15.8987384,-0.2303709412,2024-06-04 15:24:14.261416
13.30171658,8.508157196,-50.97439819,10.99822906,2024-06-04 15:24:14.301717
13.34201758,11.58949951,-6.328839111,9.612710266,2024-06-04 15:24:14.342018
13.38231858,13.54862549,-13.29550186,8.147407379,2024-06-04 15:24:14.382319
13.42262058,3.553310852,-14.92486359,5.342689819,2024-06-04 15:24:14.422621
13.46292158,3.726500702,-10.74645264,5.13088028,2024-06-04 15:24:14.462922
13.50322258,4.731361084,-7.296876068,2.415826263,2024-06-04 15:24:14.503223
13.54352358,3.391796722,-7.133415985,1.29884903,2024-06-04 15:24:14.543524
13.58382458,2.813698883,-4.970713348,-0.1820214844,2024-06-04 15:24:14.583825
13.62412658,3.417692871,-6.924749908,2.885549469,2024-06-04 15:24:14.624127
13.66442758,0.01481918335,-5.516478424,1.737436981,2024-06-04 15:24:14.664428
13.70472858,-0.6194119263,-6.816824341,2.067799988,2024-06-04 15:24:14.704729
13.74502958,-4.915927277,-5.505850525,1.032103729,2024-06-04 15:24:14.745030
13.78533058,-3.423979797,-3.716321869,-0.9054670715,2024-06-04 15:24:14.785331
13.82563267,6.034551086,-4.347259827,3.113375702,2024-06-04 15:24:14.825633
13.86593367,12.54421417,-6.555767212,10.08497818,2024-06-04 15:24:14.865934
13.90623467,3.957171021,20.9550737,8.753497009,2024-06-04 15:24:14.906235
13.94653567,-3.414250031,-22.8501329,1.952240295,2024-06-04 15:24:14.946536
13.98683767,14.61575638,-12.65543289,27.94703384,2024-06-04 15:24:14.986838
14.02713867,0.8509803772,-3.701352997,18.57113113,2024-06-04 15:24:15.027139
14.06743967,5.230423279,-3.320095825,4.195026398,2024-06-04 15:24:15.067440
14.10774067,1.687141571,-6.426286469,6.637048187,2024-06-04 15:24:15.107741
14.14804167,-2.120490417,-3.793112183,7.516319733,2024-06-04 15:24:15.148042
14.18834367,3.391647034,-5.512736206,4.114344177,2024-06-04 15:24:15.188344
14.22864467,5.538782043,-10.34663406,3.975283356,2024-06-04 15:24:15.228645
14.26894567,2.175875244,-7.095844116,4.589306488,2024-06-04 15:24:15.268946
14.30924667,-0.3565585327,-5.372926941,1.994751892,2024-06-04 15:24:15.309247
14.34954767,-0.08068222046,-10.05354355,2.838846588,2024-06-04 15:24:15.349548
14.38984967,3.043171692,-9.59938797,1.733994141,2024-06-04 15:24:15.389850
14.43015067,4.59963501,-6.778054962,4.298311615,2024-06-04 15:24:15.430151
14.47045167,4.497397614,-10.4681813,0.2486329651,2024-06-04 15:24:15.470452
14.51075267,1.898052979,-12.40245895,0.3751199341,2024-06-04 15:24:15.510753
14.55105467,-3.456761627,-11.85968765,3.879632263,2024-06-04 15:24:15.551055
14.59135567,1.511407013,-12.70857239,5.944887543,2024-06-04 15:24:15.591356
14.63165667,11.01993393,-8.475375366,4.807253265,2024-06-04 15:24:15.631657
14.67195767,8.881480865,-8.945397949,3.216810608,2024-06-04 15:24:15.671958
14.71225967,4.020938416,-12.20232513,0.06421646118,2024-06-04 15:24:15.712260
14.75256067,-0.2380050659,-8.136480103,3.901935883,2024-06-04 15:24:15.752561
14.79286167,2.37181778,-7.592810669,-0.3474275208,2024-06-04 15:24:15.792862
14.83316183,1.401834869,-10.69870193,1.440454559,2024-06-04 15:24:15.833162
14.87346383,4.278702393,-6.942712555,-1.294358368,2024-06-04 15:24:15.873464
14.91376483,8.912466431,-3.098556519,1.591640167,2024-06-04 15:24:15.913765
14.95406583,5.232069855,-1.034947815,4.208049316,2024-06-04 15:24:15.954066
14.99436683,0.475411377,-3.640279999,8.862919464,2024-06-04 15:24:15.994367
15.03466883,3.35691925,-6.793323212,20.14735336,2024-06-04 15:24:16.034669
15.07496983,15.61986832,-16.81692902,-12.17478241,2024-06-04 15:24:16.074970
15.11527083,7.253616028,-0.9291178894,10.27613068,2024-06-04 15:24:16.115271
15.15557183,8.433312836,-19.37510925,-5.627846832,2024-06-04 15:24:16.155572
15.19587383,4.860991516,-13.42124039,-4.384083252,2024-06-04 15:24:16.195874
15.23617483,4.060007172,-8.249944153,-2.810106354,2024-06-04 15:24:16.236175
15.27647583,-2.044448547,-10.50335815,-9.484876099,2024-06-04 15:24:16.276476
15.31677683,-4.223467255,-9.974058838,3.654949493,2024-06-04 15:24:16.316777
15.35707883,1.264720001,-5.500162354,3.72440506,2024-06-04 15:24:16.357079
15.39737983,-1.536405029,-9.944420471,-3.290158081,2024-06-04 15:24:16.397380
15.43768083,-0.4873864746,-12.52056335,2.502945099,2024-06-04 15:24:16.437681
15.47798183,-2.538421326,-15.44982193,3.127446442,2024-06-04 15:24:16.477982
15.51828383,1.023421783,-14.71080872,2.963686981,2024-06-04 15:24:16.518284
15.55858483,0.5408253479,-10.83641556,3.501668243,2024-06-04 15:24:16.558585
15.59888583,13.57661728,-9.774523773,5.266049194,2024-06-04 15:24:16.598886
15.63918683,17.21854385,-21.067939,3.859573975,2024-06-04 15:24:16.639187
15.67948883,12.94837372,-9.023236084,1.917213135,2024-06-04 15:24:16.679489
15.71978983,9.340127106,-5.651347961,-0.5834866333,2024-06-04 15:24:16.719790
15.76009083,2.837649078,-1.367406464,-1.166224823,2024-06-04 15:24:16.760091
15.80039183,-0.6378236389,3.272345123,-0.3444337463,2024-06-04 15:24:16.800392
15.84069429,-3.021317139,3.392844543,-1.94580368,2024-06-04 15:24:16.840694
15.88099529,-3.773802338,0.1085243225,-3.187172241,2024-06-04 15:24:16.880995
15.92129629,-3.791315918,-1.717977448,-1.829495544,2024-06-04 15:24:16.921296
15.96159729,9.918224945,-7.849377136,26.34536453,2024-06-04 15:24:16.961597
16.00189929,9.187893677,-34.4105928,9.098679199,2024-06-04 15:24:17.001899
16.04220029,-1.657353516,-14.94537094,-4.606221313,2024-06-04 15:24:17.042200
16.08250129,4.774471436,-8.655450897,-12.15188004,2024-06-04 15:24:17.082501
16.12280329,13.50162323,-7.519163818,-0.9029223633,2024-06-04 15:24:17.122803
16.16310429,-4.261637878,-5.403014374,-0.9330097961,2024-06-04 15:24:17.163104
16.20340529,-6.433770905,-5.761219482,7.373666382,2024-06-04 15:24:17.203405
16.24370629,-2.878065033,-5.169949036,5.414690094,2024-06-04 15:24:17.243706
16.28400829,2.750230865,-10.43809387,3.106340332,2024-06-04 15:24:17.284008
16.32430929,5.364394684,-8.903934174,4.368515625,2024-06-04 15:24:17.324309
16.36461029,7.023394775,-8.146209869,-0.4345463562,2024-06-04 15:24:17.364610
16.40491129,5.395679626,-13.94485153,-0.7381150818,2024-06-04 15:24:17.404911
16.44521329,2.026785278,-7.47680191,-6.600524139,2024-06-04 15:24:17.445213
16.48551429,0.4403842163,-3.036585388,2.289339294,2024-06-04 15:24:17.485514
16.52581529,-1.364562378,-6.031108246,-5.416037292,2024-06-04 15:24:17.525815
16.56611629,5.019960938,-10.03049149,13.83977005,2024-06-04 15:24:17.566116
16.60641829,-3.375780029,-19.57105179,4.79153595,2024-06-04 15:24:17.606418
16.64671929,-2.197729797,-10.89524323,2.59171051,2024-06-04 15:24:17.646719
16.68702029,3.488645325,-41.75267487,18.18149139,2024-06-04 15:24:17.687020
16.72732229,-1.829196167,-3.368744659,-7.101831665,2024-06-04 15:24:17.727322
16.76762329,7.14808548,-6.211632843,0.5872288513,2024-06-04 15:24:17.767623
16.80792429,5.512436829,-9.841883698,2.160307617,2024-06-04 15:24:17.807924
16.84822554,0.5150788879,-6.243815918,0.6979985046,2024-06-04 15:24:17.848226
16.88852754,0.303868103,-9.054670715,2.350861359,2024-06-04 15:24:17.888528
16.92882854,0.0004490661621,-10.26610153,0.2773731995,2024-06-04 15:24:17.928829
16.96912954,0.4463717651,-8.190667419,-0.7463479614,2024-06-04 15:24:17.969130
17.00943154,3.62141922,-9.910890198,-2.261497192,2024-06-04 15:24:18.009432
17.04973254,3.718866577,-10.10234207,-1.825154572,2024-06-04 15:24:18.049733
17.09003354,12.67010239,-10.64152084,7.99397644,2024-06-04 15:24:18.090034
17.13033454,6.856042786,-10.04950195,11.77511353,2024-06-04 15:24:18.130335
17.17063654,2.72747818,-5.67724411,1.948498077,2024-06-04 15:24:18.170637
17.21093754,0.6394702148,-3.015179901,2.016157379,2024-06-04 15:24:18.210938
17.25123854,-1.516496429,-5.44672348,1.927841034,2024-06-04 15:24:18.251239
17.29154054,1.273252258,-9.925110626,2.910697174,2024-06-04 15:24:18.291541
17.33184154,3.975433044,-6.94795166,-1.163979492,2024-06-04 15:24:18.331842
17.37214254,7.693700867,-8.2970961,0.5604345703,2024-06-04 15:24:18.372143
17.41244354,2.572400665,-14.36652466,-2.635868683,2024-06-04 15:24:18.412444
17.45274554,0.2086660767,-8.990304565,8.900491333,2024-06-04 15:24:18.452746
17.49304654,0.6884184265,-6.814878387,7.866890717,2024-06-04 15:24:18.493047
17.53334754,5.594915314,-12.17403397,-1.12790451,2024-06-04 15:24:18.533348
17.57364954,4.561464386,-12.11326035,1.012344818,2024-06-04 15:24:18.573650
17.61395054,-2.152074738,-12.41069183,-1.059496765,2024-06-04 15:24:18.613951
17.65425154,-0.4752616882,-11.14013397,-0.5342390442,2024-06-04 15:24:18.654252
17.69455254,2.633024597,-9.17816391,1.91541687,2024-06-04 15:24:18.694553
17.73485454,0.3162922668,-7.44761261,2.446811829,2024-06-04 15:24:18.734855
17.77515554,3.372636566,-9.358987885,1.283880157,2024-06-04 15:24:18.775156
17.81545654,-0.6732998657,-10.57640625,4.063599701,2024-06-04 15:24:18.815457
17.85575858,6.340963898,-14.50049606,8.580456848,2024-06-04 15:24:18.855759
17.89605958,16.54973465,-9.863438873,-5.270988922,2024-06-04 15:24:18.896060
17.93636058,12.9857959,-9.999056854,-2.36822525,2024-06-04 15:24:18.936361
17.97666158,0.2969824219,-7.257358246,-3.20842804,2024-06-04 15:24:18.976662
18.01696358,-5.913901978,0.9895921326,1.746717682,2024-06-04 15:24:19.016964
18.05726458,-7.194638672,6.485114136,7.725285187,2024-06-04 15:24:19.057265
18.09756558,17.45714767,-2.022743683,-2.184108124,2024-06-04 15:24:19.097566
18.13786758,-1.293759613,-34.72104721,13.86536682,2024-06-04 15:24:19.137868
18.17816858,1.326092377,-0.4834945679,-2.312690735,2024-06-04 15:24:19.178169
18.21846958,3.537294159,-4.703668671,-1.026265869,2024-06-04 15:24:19.218470
18.25877058,2.029479675,-11.43097916,6.289620667,2024-06-04 15:24:19.258771
18.29907258,8.550369415,-8.604407043,4.715344391,2024-06-04 15:24:19.299073
18.33937358,15.68528229,-17.57001297,10.16790573,2024-06-04 15:24:19.339374
18.37967458,19.66266129,1.355730743,1.340163116,2024-06-04 15:24:19.379675
18.41997558,-0.7978408813,-13.37783066,5.588778076,2024-06-04 15:24:19.419976
18.46027758,-12.73641449,-2.428250427,14.34796326,2024-06-04 15:24:19.460278
18.50057858,-5.100792847,12.7018364,1.268611908,2024-06-04 15:24:19.500579
18.54087958,3.238216095,-3.504512329,-8.928782501,2024-06-04 15:24:19.540880
18.58118158,11.93917236,-10.16251694,2.351310425,2024-06-04 15:24:19.581182
18.62148258,-4.439617767,-26.87077194,30.14102142,2024-06-04 15:24:19.621483
18.66178358,4.482279053,3.212619324,-1.909129944,2024-06-04 15:24:19.661784
18.70208458,-1.420695648,-17.28051498,2.206711121,2024-06-04 15:24:19.702085
18.74238658,13.24026672,-13.33187622,4.674629059,2024-06-04 15:24:19.742387
18.78268758,15.71267532,-7.301516418,2.850073242,2024-06-04 15:24:19.782688
18.82298858,-2.021246796,-18.64223328,-2.288141785,2024-06-04 15:24:19.822989
18.86328967,8.279283142,2.002236328,2.158361664,2024-06-04 15:24:19.863290
18.90359167,6.622079315,-7.178771667,2.425256653,2024-06-04 15:24:19.903592
18.94389267,8.269253998,-3.774850159,3.275488586,2024-06-04 15:24:19.943893
18.98419367,2.400857391,-6.383924561,-1.740430756,2024-06-04 15:24:19.984194
19.02449467,5.129533081,-6.749763794,0.3546125793,2024-06-04 15:24:20.024495
19.06479667,6.964567108,-6.255491638,4.761298828,2024-06-04 15:24:20.064797
19.10509767,7.587272186,-7.698939972,0.863404541,2024-06-04 15:24:20.105098
19.14539867,9.608069916,-10.22029678,1.427132263,2024-06-04 15:24:20.145399
19.18570067,8.064928894,-10.0794397,5.788163452,2024-06-04 15:24:20.185701
19.22600167,3.326981506,-6.642137604,2.022893372,2024-06-04 15:24:20.226002
19.26630267,2.040257263,-2.088457031,2.177222443,2024-06-04 15:24:20.266303
19.30660367,-3.617677002,0.0520916748,3.103196869,2024-06-04 15:24:20.306604
19.34690567,-0.4721182251,-0.2679428101,2.65143631,2024-06-04 15:24:20.346906
19.38720667,0.1504371643,-0.5227130127,3.78517868,2024-06-04 15:24:20.387207
19.42750767,-3.712429962,-4.144880676,6.060746613,2024-06-04 15:24:20.427508
19.46780967,13.78528336,-7.804021454,17.35880219,2024-06-04 15:24:20.467810
19.50811067,-19.35070999,-70.47928757,-2.076631622,2024-06-04 15:24:20.508111
19.54841167,22.90626617,7.98230072,23.28991837,2024-06-04 15:24:20.548412
19.58871267,1.348246307,-20.2650087,14.46067886,2024-06-04 15:24:20.588713
19.62901467,3.981719971,-14.76469666,0.2398013306,2024-06-04 15:24:20.629015
19.66931567,-0.1020877075,-8.122559052,2.60697876,2024-06-04 15:24:20.669316
19.70961667,1.609303436,-6.852150879,4.030368805,2024-06-04 15:24:20.709617
19.74991867,-1.882934418,-7.370073853,4.296665039,2024-06-04 15:24:20.749919
19.79021967,-2.119143219,-7.384144592,4.336781616,2024-06-04 15:24:20.790220
19.83052042,0.9247769165,-6.880442047,4.856650543,2024-06-04 15:24:20.830520
19.87082242,0.4408332825,-8.875792694,2.472707977,2024-06-04 15:24:20.870822
19.91112342,2.885250092,-10.35351974,0.4550537109,2024-06-04 15:24:20.911123
19.95142442,4.811294861,-9.577383728,1.584006042,2024-06-04 15:24:20.951424
19.99172642,6.030958557,-12.36937775,1.276246033,2024-06-04 15:24:20.991726
20.03202742,9.769134979,-8.073161774,2.689008179,2024-06-04 15:24:21.032027
20.07232842,8.649613037,-2.189047852,7.100484467,2024-06-04 15:24:21.072328
20.11262942,4.673132172,-8.463100891,8.466244354,2024-06-04 15:24:21.112629
20.15293142,-2.693199463,-9.350605316,4.0941362,2024-06-04 15:24:21.152931
20.19323242,0.9849517822,-3.565136261,-1.627116394,2024-06-04 15:24:21.193232
20.23353342,7.587721252,-0.5035528564,2.452949066,2024-06-04 15:24:21.233533
20.27383542,2.352507935,-20.44224014,11.69907166,2024-06-04 15:24:21.273835
20.31413642,9.031319275,-14.50708237,5.987997894,2024-06-04 15:24:21.314136
20.35443742,7.252119141,-0.2270777893,6.77131897,2024-06-04 15:24:21.354437
20.39473942,4.446503448,-6.156547394,0.4197271729,2024-06-04 15:24:21.394739
20.43504042,0.8744815063,-11.07801315,0.8925938416,2024-06-04 15:24:21.435040
20.47534142,3.195255432,-7.64879425,2.880310364,2024-06-04 15:24:21.475341
20.51564342,6.308631134,-7.259603577,1.921105042,2024-06-04 15:24:21.515643
20.55594442,4.654870148,-9.383237457,0.1148112488,2024-06-04 15:24:21.555944
20.59624542,3.281476135,-8.867260437,-0.4418811035,2024-06-04 15:24:21.596245
20.63654642,5.565426636,-8.282875671,0.1832189941,2024-06-04 15:24:21.636546
20.67684842,5.594316559,-8.48540451,0.6011499023,2024-06-04 15:24:21.676848
20.71714942,4.590354309,-8.176147614,-0.2845582581,2024-06-04 15:24:21.717149
20.75745042,5.406307526,-9.032067719,0.003143463135,2024-06-04 15:24:21.757450
20.79775242,5.71825882,-8.650660858,-0.1728904724,2024-06-04 15:24:21.797752
20.83805333,5.249433746,-8.800948334,-0.6912625122,2024-06-04 15:24:21.838053
20.87835433,5.038672028,-8.95812149,-0.1160087585,2024-06-04 15:24:21.878354
20.91865633,4.934488678,-8.840466156,-0.2007325745,2024-06-04 15:24:21.918656
20.95895733,5.590873718,-8.143665161,-0.1508862305,2024-06-04 15:24:21.958957
20.99925833,4.801265717,-8.356821899,0.1528321838,2024-06-04 15:24:21.999258
21.03956033,4.383035431,-8.366252289,-0.3222798157,2024-06-04 15:24:22.039560
21.07986133,4.362977142,-8.305328979,-0.5483097839,2024-06-04 15:24:22.079861
21.12016233,4.699327698,-8.021668854,-0.3694317627,2024-06-04 15:24:22.120162
21.16046433,4.808750153,-8.576265564,-0.5774990845,2024-06-04 15:24:22.160464
21.20076533,5.274132385,-8.568032684,-0.5182223511,2024-06-04 15:24:22.200765
21.24106633,5.311255188,-8.584348755,-0.302820282,2024-06-04 15:24:22.241066
21.28136833,4.982987823,-8.693920898,-0.643661499,2024-06-04 15:24:22.281368
21.32166933,4.797673187,-8.860823822,-0.04131408691,2024-06-04 15:24:22.321669
21.36197033,4.415368195,-8.684939575,-0.1713935852,2024-06-04 15:24:22.361970
21.40227233,4.648433533,-8.740025024,-0.4165837097,2024-06-04 15:24:22.402272
21.44257333,4.590354309,-8.58839035,-0.1187031555,2024-06-04 15:24:22.442573
21.48287433,4.700824585,-8.412506104,-0.4478686523,2024-06-04 15:24:22.482874
21.52317633,4.625531158,-8.682993622,-0.5186714172,2024-06-04 15:24:22.523176
21.56347733,4.708009644,-8.773555298,-0.4668791199,2024-06-04 15:24:22.563477
21.60377833,4.690645752,-8.590635681,-0.3691323853,2024-06-04 15:24:22.603778
21.64408033,4.899012451,-8.605155487,-0.3631448364,2024-06-04 15:24:22.644080
21.68438133,4.63585968,-8.686436462,-0.1722917175,2024-06-04 15:24:22.684381
21.72468233,4.539759521,-9.049281921,0.08128097534,2024-06-04 15:24:22.724682
21.76498433,4.543801117,-8.853489075,-0.02709365845,2024-06-04 15:24:22.764984
21.80528533,4.500391388,-8.406368866,-0.8551716614,2024-06-04 15:24:22.805285
21.84558729,4.679568787,-8.657247162,-0.325872345,2024-06-04 15:24:22.845587
21.88588829,4.425696716,-8.572822723,-0.02380050659,2024-06-04 15:24:22.885888
21.92618929,4.817132721,-8.77684845,-0.2239343262,2024-06-04 15:24:22.926189
21.96649129,4.661905518,-8.784183197,-0.2173480225,2024-06-04 15:24:22.966491
22.00679229,4.484674072,-8.550219727,-0.5390290833,2024-06-04 15:24:23.006792
22.04709329,4.575385437,-8.852590942,-0.3852987671,2024-06-04 15:24:23.047093
22.08739529,5.54147644,-8.087831268,-0.6355783081,2024-06-04 15:24:23.087395
22.12769629,4.554129639,-8.753347321,-0.5572911072,2024-06-04 15:24:23.127696
22.16799829,4.798421631,-8.698261871,-0.6593788147,2024-06-04 15:24:23.167998
22.20829929,4.536166992,-8.615933075,-0.7502398682,2024-06-04 15:24:23.208299
22.24860029,4.319118347,-8.664132843,-0.60025177,2024-06-04 15:24:23.248600
22.28890229,5.120701447,-8.586594086,-0.7743397522,2024-06-04 15:24:23.288902
22.32920329,5.339246979,-8.980724487,-0.7988887024,2024-06-04 15:24:23.329203
22.36950529,4.589755554,-8.502918091,-1.257385254,2024-06-04 15:24:23.369505
22.40980629,3.945944366,-8.445287933,-0.4059558105,2024-06-04 15:24:23.409806
22.45010729,5.100792847,-8.829089813,-0.7747888184,2024-06-04 15:24:23.450107
22.49040929,4.965623932,-8.990753632,-0.7517367554,2024-06-04 15:24:23.490409
22.53071029,4.996908875,-8.749455414,-0.817300415,2024-06-04 15:24:23.530710
22.57101229,4.051624603,-8.761280823,-0.5562432861,2024-06-04 15:24:23.571012
22.61131329,4.30714325,-8.736881561,-0.6556365967,2024-06-04 15:24:23.611313
22.65161429,4.627177734,-8.753197632,-0.3649411011,2024-06-04 15:24:23.651614
22.69191629,4.931195526,-8.581055603,-0.5257067871,2024-06-04 15:24:23.691916
22.73221729,4.391268311,-8.50187027,-0.5043013,2024-06-04 15:24:23.732217
22.77251929,3.995491333,-8.558452606,-0.3873944092,2024-06-04 15:24:23.772519
22.81282029,5.012775879,-9.179660797,-0.2900967407,2024-06-04 15:24:23.812820
22.85312217,4.367767181,-8.888516235,-0.04550537109,2024-06-04 15:24:23.853122
22.89342317,4.645439758,-8.934320984,-0.09190887451,2024-06-04 15:24:23.893423
22.93372417,4.776716766,-8.695417786,-0.1068777466,2024-06-04 15:24:23.933724
22.97402617,4.539460144,-8.514893188,0.456101532,2024-06-04 15:24:23.974026
23.01432717,4.552632751,-8.733887787,0.3912863159,2024-06-04 15:24:24.014327
23.05462917,3.985013123,-8.815019073,0.169896698,2024-06-04 15:24:24.054629
23.09493017,4.63121933,-9.329948273,-0.05433700562,2024-06-04 15:24:24.094930
23.13523217,4.561165009,-8.78852417,0.1926493835,2024-06-04 15:24:24.135232
23.17553317,3.807931366,-8.539442139,0.3245251465,2024-06-04 15:24:24.175533
23.21583517,3.904779968,-8.7615802,0.2848576355,2024-06-04 15:24:24.215835
23.25613617,4.211641846,-8.835077362,0.6872209167,2024-06-04 15:24:24.256136
23.29643817,4.17721344,-9.211694183,0.6027964783,2024-06-04 15:24:24.296438
23.33673917,4.239334259,-8.917855225,0.4326004028,2024-06-04 15:24:24.336739
23.37704017,4.289180603,-9.098828888,0.3969744873,2024-06-04 15:24:24.377040
23.41734217,4.309987335,-8.48899704,0.3577560425,2024-06-04 15:24:24.417342
23.45764317,4.11868515,-9.009015656,0.5155279541,2024-06-04 15:24:24.457643
23.49794517,4.50368454,-9.244775391,0.07783813477,2024-06-04 15:24:24.497945
23.53824617,5.240452423,-9.918075256,-0.09355545044,2024-06-04 15:24:24.538246
23.57854817,3.858825531,-8.519982605,1.480571136,2024-06-04 15:24:24.578548
23.61884917,3.745960236,-6.651118927,0.6530918884,2024-06-04 15:24:24.618849
23.65915117,3.967948608,-7.704478455,0.7875123596,2024-06-04 15:24:24.659151
23.69945217,4.219126282,-8.736582184,0.5117857361,2024-06-04 15:24:24.699452
23.73975417,5.209466858,-10.35037628,-0.596509552,2024-06-04 15:24:24.739754
23.78005517,3.989803162,-8.886719971,0.3266207886,2024-06-04 15:24:24.780055
23.82035717,4.095782776,-9.045090637,0.8731343079,2024-06-04 15:24:24.820357
23.86065846,3.868106232,-9.117240601,0.4950205994,2024-06-04 15:24:24.860658
23.90096046,4.250710602,-8.879235535,0.6982978821,2024-06-04 15:24:24.900960
23.94126146,4.324207764,-8.85872818,0.8527766418,2024-06-04 15:24:24.941261
23.98156246,4.618196411,-8.951385498,0.2802172852,2024-06-04 15:24:24.981562
24.02186446,4.38543045,-8.867859192,0.5731581116,2024-06-04 15:24:25.021864
24.06216546,4.195325775,-8.924142151,0.6451583862,2024-06-04 15:24:25.062165
24.10246746,4.500241699,-9.554181976,0.3493734741,2024-06-04 15:24:25.102467
24.14276846,4.170776825,-9.512119446,1.120569763,2024-06-04 15:24:25.142768
24.18307046,3.828588409,-9.092242584,0.9364526367,2024-06-04 15:24:25.183070
24.22337146,4.212989044,-8.575816498,1.25319397,2024-06-04 15:24:25.223371
24.26367346,4.578229523,-8.866661682,1.148411865,2024-06-04 15:24:25.263673
24.30397446,3.436853027,-6.931485901,1.293609924,2024-06-04 15:24:25.303974
24.34427646,3.68578537,-6.784790955,1.325792999,2024-06-04 15:24:25.344276
24.38457746,4.544549561,-8.594377899,1.038091278,2024-06-04 15:24:25.384577
24.42487946,3.534001007,-8.078550568,0.7943980408,2024-06-04 15:24:25.424879
24.46518046,5.857020264,-11.20285355,0.3911366272,2024-06-04 15:24:25.465180
24.50548246,4.280049591,-10.45979874,1.34555191,2024-06-04 15:24:25.505482
24.54578346,3.776646423,-7.318580933,1.206940155,2024-06-04 15:24:25.545783
24.58608546,4.18769165,-9.115294647,0.9062155151,2024-06-04 15:24:25.586085
24.62638646,4.240531769,-8.807983704,0.7021897888,2024-06-04 15:24:25.626386
24.66668846,4.589456177,-9.203311615,0.6577322388,2024-06-04 15:24:25.666688
24.70698946,4.7961763,-8.857979736,0.6255491638,2024-06-04 15:24:25.706989
24.74729146,4.444707184,-8.854237518,0.3585044861,2024-06-04 15:24:25.747291
24.78759246,3.977828064,-8.878337402,0.1437011719,2024-06-04 15:24:25.787592
24.82789446,3.684438171,-9.004824371,0.3897894287,2024-06-04 15:24:25.827894
24.86819521,3.511697388,-8.983119507,0.2600093079,2024-06-04 15:24:25.868195
24.90849721,3.580703888,-9.417516174,0.2598596191,2024-06-04 15:24:25.908497
24.94879921,3.266656952,-9.657167816,0.2318678284,2024-06-04 15:24:25.948799
24.98910021,3.65180603,-9.616153107,-0.06107299805,2024-06-04 15:24:25.989100
25.02940221,5.189109192,-8.4948349,-0.6234535217,2024-06-04 15:24:26.029402
25.06970321,3.739673309,-8.799750824,-0.9264234924,2024-06-04 15:24:26.069703
25.11000521,6.809190216,-8.590635681,0.05538482666,2024-06-04 15:24:26.110005
25.15030621,7.877368927,-8.925489349,4.549040222,2024-06-04 15:24:26.150306
25.19060821,1.732796631,-12.16175949,11.28952332,2024-06-04 15:24:26.190608
25.23090921,-1.378932495,-7.861950989,5.292095032,2024-06-04 15:24:26.230909
25.27121121,3.64836319,-4.38662796,1.089584198,2024-06-04 15:24:26.271211
25.31151221,5.352120209,-5.025649109,3.650608521,2024-06-04 15:24:26.311512
25.35181421,0.005388793945,-7.697443085,5.118156738,2024-06-04 15:24:26.351814
25.39211521,0.8593629456,-8.958420868,1.858684845,2024-06-04 15:24:26.392115
25.43241721,4.087998962,-6.422993317,1.649719391,2024-06-04 15:24:26.432417
25.47271821,5.9733284,-6.11717926,4.114942932,2024-06-04 15:24:26.472718
25.51302021,6.254443817,-10.01791763,5.954766998,2024-06-04 15:24:26.513020
25.55332121,-2.682571564,-15.60160629,-6.392905884,2024-06-04 15:24:26.553321
25.59362321,8.320297852,3.405568085,1.060394897,2024-06-04 15:24:26.593623
25.63392421,2.769391022,-11.01604202,-2.960842896,2024-06-04 15:24:26.633924
25.67422621,-4.931794281,-16.37400009,2.905458069,2024-06-04 15:24:26.674226
25.71452721,9.753267975,-5.354664917,1.82769928,2024-06-04 15:24:26.714527
25.75482921,2.968626709,-10.06042923,0.5378315735,2024-06-04 15:24:26.754829
25.79513021,3.239114227,-8.187673645,1.794318695,2024-06-04 15:24:26.795130
25.83543208,2.165696411,-9.070837097,1.941462708,2024-06-04 15:24:26.835432
25.87573408,2.21374649,-9.220974884,1.370250549,2024-06-04 15:24:26.875734
25.91603508,4.821773071,-8.618477783,1.913171539,2024-06-04 15:24:26.916035
25.95633708,3.913312225,-8.0104422,1.998344421,2024-06-04 15:24:26.956337
25.99663808,3.84026413,-9.964329071,-0.292641449,2024-06-04 15:24:26.996638
26.03694008,5.11561203,-8.943751373,-1.574425964,2024-06-04 15:24:27.036940
26.07724108,5.697901154,-10.56068893,3.038980408,2024-06-04 15:24:27.077241
26.11754308,4.302053833,-10.40471329,12.85002823,2024-06-04 15:24:27.117543
26.15784408,-0.4869374084,-9.575138397,5.603148193,2024-06-04 15:24:27.157844
26.19814608,5.412444763,-7.377258911,3.089126129,2024-06-04 15:24:27.198146
26.23844708,0.4297563171,-8.146359558,2.658771057,2024-06-04 15:24:27.238447
26.27874908,3.251089325,-7.132966919,4.167034607,2024-06-04 15:24:27.278749
26.31905008,2.116448822,-7.372917938,2.693798218,2024-06-04 15:24:27.319050
26.35935208,2.990032196,-6.140680389,3.971840515,2024-06-04 15:24:27.359352
26.39965308,3.850442963,-5.250032501,4.402195587,2024-06-04 15:24:27.399653
26.43995508,3.354075165,-6.244115295,3.78293335,2024-06-04 15:24:27.439955
26.48025708,2.721490631,-8.228239288,2.112107849,2024-06-04 15:24:27.480257
26.52055808,3.74191864,-10.57236465,3.75479187,2024-06-04 15:24:27.520558
26.56086008,2.902015228,-8.78732666,3.867507477,2024-06-04 15:24:27.560860
26.60116108,7.086862793,-16.07567047,4.229604492,2024-06-04 15:24:27.601161
26.64146308,3.600462799,-5.715414734,4.002676392,2024-06-04 15:24:27.641463
26.68176408,4.618944855,-8.460107117,2.678230591,2024-06-04 15:24:27.681764
26.72206608,3.985162811,-9.079219666,-0.3083587646,2024-06-04 15:24:27.722066
26.76236708,0.9602531433,-9.317075043,0.4614903259,2024-06-04 15:24:27.762367
26.80266908,1.57023468,-10.08707382,0.7159611511,2024-06-04 15:24:27.802669
26.84297079,3.634591827,-9.24836792,-0.2734812927,2024-06-04 15:24:27.842971
26.88327279,2.824177094,-9.14538208,1.675465851,2024-06-04 15:24:27.883273
26.92357479,2.481240234,-9.71404953,1.273401947,2024-06-04 15:24:27.923575
26.99410179,3.078947296,-9.241033173,1.962718506,2024-06-04 15:24:27.994102
27.03440379,2.981050873,-8.996441803,1.94236084,2024-06-04 15:24:28.034404
27.07470479,3.223995667,-9.193132782,2.306104431,2024-06-04 15:24:28.074705
27.11500679,2.683918762,-9.054221649,1.840273132,2024-06-04 15:24:28.115007
27.15530779,2.690954132,-9.521998901,0.5108876038,2024-06-04 15:24:28.155308
27.19560979,2.675685883,-9.504036255,0.5336402893,2024-06-04 15:24:28.195610
27.23591179,5.248236237,-8.580307159,0.1938468933,2024-06-04 15:24:28.235912
27.27621279,4.413422241,-8.417296143,3.305126953,2024-06-04 15:24:28.276213
27.31651479,2.378703461,-8.696016541,5.155578918,2024-06-04 15:24:28.316515
27.35681579,4.691543884,-12.85631516,7.577841797,2024-06-04 15:24:28.356816
27.39711779,4.705165558,-10.31759445,5.508844299,2024-06-04 15:24:28.397118
27.43741879,0.7159611511,-8.132438507,3.232228546,2024-06-04 15:24:28.437419
27.47772079,-1.217717743,-6.807393951,1.71767807,2024-06-04 15:24:28.477721
27.51802179,6.222410431,-4.442162476,4.646936646,2024-06-04 15:24:28.518022
27.55832379,7.369774475,-3.591331787,3.727398834,2024-06-04 15:24:28.558324
27.59862479,3.501817932,-6.68824173,3.482807465,2024-06-04 15:24:28.598625
27.63892679,3.265908508,-5.795797577,4.103416901,2024-06-04 15:24:28.638927
27.67922879,4.301006012,-4.275109863,4.405189362,2024-06-04 15:24:28.679229
27.71952979,2.496658173,-10.04650818,4.998256073,2024-06-04 15:24:28.719530
27.75983179,7.74010437,-11.30224686,4.374203796,2024-06-04 15:24:28.759832
27.80013279,6.582262115,-5.719905396,3.013533325,2024-06-04 15:24:28.800133
27.84043446,1.502276001,-13.48964813,3.281625824,2024-06-04 15:24:28.840434
27.88073546,0.8436456299,-8.714128876,0.3679348755,2024-06-04 15:24:28.880735
27.92103746,7.916287994,-10.70633606,4.884342957,2024-06-04 15:24:28.921037
27.96133846,6.198460236,-7.559130707,2.899171143,2024-06-04 15:24:28.961338
28.00164046,2.851121063,-8.031847687,2.468965759,2024-06-04 15:24:29.001640
28.04194146,3.328777771,-9.712103577,-0.02499801636,2024-06-04 15:24:29.041941
28.08224346,3.112776947,-9.125024414,1.858984222,2024-06-04 15:24:29.082243
28.12254546,2.56596405,-9.393116913,1.871408386,2024-06-04 15:24:29.122545
28.16284646,2.374811554,-9.333690491,1.11622879,2024-06-04 15:24:29.162846
28.20314846,2.953657837,-8.912017365,1.589245148,2024-06-04 15:24:29.203148
28.24344946,3.25752594,-9.587412872,1.781146088,2024-06-04 15:24:29.243449
28.28375146,2.175725555,-10.24170227,-0.109871521,2024-06-04 15:24:29.283751
28.32405246,2.977458344,-8.554710388,0.5700146484,2024-06-04 15:24:29.324052
28.36435446,2.053878937,-9.428443451,0.6450086975,2024-06-04 15:24:29.364354
28.40465546,3.624862061,-9.094487915,-0.01451980591,2024-06-04 15:24:29.404655
28.44495746,3.442690887,-8.500822449,1.098415833,2024-06-04 15:24:29.444957
28.48525846,3.774550781,-9.323062592,0.7939489746,2024-06-04 15:24:29.485258
28.52556046,2.941682739,-9.245074768,0.9172924805,2024-06-04 15:24:29.525560
28.56586246,5.528752899,-9.25540329,1.562750244,2024-06-04 15:24:29.565862
28.60616346,10.34154465,-8.166268158,5.541027374,2024-06-04 15:24:29.606163
28.64646546,10.33959869,-9.451794891,6.687493286,2024-06-04 15:24:29.646465
28.68676646,4.836442566,-8.476722565,4.621489563,2024-06-04 15:24:29.686766
28.72706846,2.695744171,-4.800217896,4.677922211,2024-06-04 15:24:29.727068
28.76736946,3.102897491,-6.083199921,3.758833466,2024-06-04 15:24:29.767369
28.80767146,3.953578491,-5.702541504,5.243296509,2024-06-04 15:24:29.807671
28.84797221,3.851490784,-3.486998749,2.280208282,2024-06-04 15:24:29.847972
28.88827421,2.251617737,-6.213728485,2.188748474,2024-06-04 15:24:29.888274
28.92857521,4.190835114,-7.577841797,3.48565155,2024-06-04 15:24:29.928575
28.96887721,7.716902618,-7.46048584,4.22750885,2024-06-04 15:24:29.968877
29.00917921,6.753655701,-9.415570221,5.170996857,2024-06-04 15:24:30.009179
29.04948021,4.9249086,-8.355325012,2.522404633,2024-06-04 15:24:30.049480
29.08978221,4.440366211,-8.311316528,4.145180054,2024-06-04 15:24:30.089782
29.13008321,7.060367889,-11.76688065,3.411106567,2024-06-04 15:24:30.130083
29.17038521,4.620441742,-6.485862579,2.172432404,2024-06-04 15:24:30.170385
29.21068621,2.246977386,-8.337362366,2.571951599,2024-06-04 15:24:30.210686
29.25098821,2.644999695,-10.3342099,2.664758606,2024-06-04 15:24:30.250988
29.29128921,2.411036224,-8.775501251,1.822609863,2024-06-04 15:24:30.291289
29.33159121,3.112327881,-9.370513916,2.978506165,2024-06-04 15:24:30.331591
29.37189221,3.582500153,-8.717871094,1.130149841,2024-06-04 15:24:30.371892
29.41219421,2.132764893,-10.54362442,3.554807739,2024-06-04 15:24:30.412194
29.45249521,4.503385162,-6.140830078,-1.403331757,2024-06-04 15:24:30.452495
29.49279721,1.576521606,-9.011111298,4.852758636,2024-06-04 15:24:30.492797
29.53309921,2.465522919,-9.575288086,3.430416412,2024-06-04 15:24:30.533099
29.57340021,-0.4550537109,-5.563630371,2.29802124,2024-06-04 15:24:30.573400
29.61370221,-1.912872162,-6.06104599,3.978726196,2024-06-04 15:24:30.613702
29.65400321,-2.621498566,-13.22095688,3.677402802,2024-06-04 15:24:30.654003
29.69430521,2.250569916,-12.53747818,3.6190242,2024-06-04 15:24:30.694305
29.73460621,2.506837006,-18.11473022,1.40647522,2024-06-04 15:24:30.734606
29.77490821,13.55386459,-14.3460173,2.048490143,2024-06-04 15:24:30.774908
29.81520921,39.11066895,-24.56811035,-0.9482780457,2024-06-04 15:24:30.815209
29.85551133,9.427245941,-6.889573059,16.64867889,2024-06-04 15:24:30.855511
29.89581233,-6.285579071,-15.16825745,-1.689536591,2024-06-04 15:24:30.895812
29.93611433,-2.189796295,-4.529131622,14.83490067,2024-06-04 15:24:30.936114
29.97641533,4.758454742,-3.121907959,-7.140601044,2024-06-04 15:24:30.976415
30.01671733,12.11236221,7.769892426,-0.03577560425,2024-06-04 15:24:31.016717
30.05701833,-1.582808533,-13.41615097,1.777553558,2024-06-04 15:24:31.057018
30.09732033,-0.7725434875,-7.190746765,-3.743714905,2024-06-04 15:24:31.097320
30.13762133,-7.692353668,7.673193512,-3.547323303,2024-06-04 15:24:31.137621
30.17792333,-7.054530029,-4.045487366,4.961881714,2024-06-04 15:24:31.177923
30.21822433,-2.144889679,12.2518721,9.839488678,2024-06-04 15:24:31.218224
30.25852633,2.883603516,3.917952576,6.725065155,2024-06-04 15:24:31.258526
30.29882733,-6.816075897,6.749165039,7.145241394,2024-06-04 15:24:31.298827
30.33912933,14.71919128,2.491419067,13.60880035,2024-06-04 15:24:31.339129
30.37943033,-9.013057251,2.852468262,4.740342407,2024-06-04 15:24:31.379430
30.41973233,-27.67175629,-12.43823456,-23.57657227,2024-06-04 15:24:31.419732
30.46003333,28.87016418,25.2177594,20.84849533,2024-06-04 15:24:31.460033
30.50033533,1.341360626,1.635199585,-9.162745972,2024-06-04 15:24:31.500335
30.54063633,2.210902405,-4.326602783,3.354973297,2024-06-04 15:24:31.540636
30.58093833,-0.338745575,-25.475224,-21.66878952,2024-06-04 15:24:31.580938
30.62123933,6.081253967,-35.17490341,27.13901413,2024-06-04 15:24:31.621239
30.66154133,5.248385925,-11.23877884,-21.89706482,2024-06-04 15:24:31.661541
30.70184233,-4.841681671,-0.9455836487,-14.39526489,2024-06-04 15:24:31.701842
30.74214433,-6.777306519,-3.98770752,2.317480774,2024-06-04 15:24:31.742144
30.78244533,15.56014252,-16.26682297,-0.9707313538,2024-06-04 15:24:31.782445
30.82274733,2.913690948,-6.643185425,10.45560745,2024-06-04 15:24:31.822747
30.86304879,-3.408262482,-4.58092392,-0.4622387695,2024-06-04 15:24:31.863049
30.90335079,-5.40466095,-11.83738403,2.347119141,2024-06-04 15:24:31.903351
30.94365179,-0.5050497437,-7.325616302,2.362986145,2024-06-04 15:24:31.943652
30.98395379,0.8208929443,-4.52583847,-1.36785553,2024-06-04 15:24:31.983954
31.02425479,6.982080688,-11.71104675,3.732039185,2024-06-04 15:24:32.024255
31.06455679,4.13619873,-8.81771347,1.562899933,2024-06-04 15:24:32.064557
31.10485779,-5.696254578,-11.43157791,-5.797144775,2024-06-04 15:24:32.104858
31.14515979,-2.54605545,-8.370293884,-0.3818559265,2024-06-04 15:24:32.145160
31.18546079,1.971849518,-7.720794525,-0.2902464294,2024-06-04 15:24:32.185461
31.22576279,1.901196442,-13.79561188,-0.6533912659,2024-06-04 15:24:32.225763
31.26606379,6.663992157,-15.15703079,4.467310181,2024-06-04 15:24:32.266064
31.30636579,6.228098602,-14.96782425,1.933529205,2024-06-04 15:24:32.306366
31.34666679,13.76357849,-9.039252777,-6.173162842,2024-06-04 15:24:32.346667
31.38696879,9.933044128,-9.91762619,-2.959944763,2024-06-04 15:24:32.386969
31.42726979,7.766898651,-12.18466187,1.177900543,2024-06-04 15:24:32.427270
31.46757179,5.157075806,-9.52095108,-0.396076355,2024-06-04 15:24:32.467572
31.50787379,1.578018494,-6.174210663,1.259331207,2024-06-04 15:24:32.507874
31.54817479,-3.112627258,-1.414259033,2.414479065,2024-06-04 15:24:32.548175
31.58847679,4.624633026,-1.6814534,8.012238464,2024-06-04 15:24:32.588477
31.62877779,3.19555481,0.3149450684,5.473517761,2024-06-04 15:24:32.628778
31.66907879,-3.720363464,7.043602753,7.220235443,2024-06-04 15:24:32.669079
31.70938079,3.460354156,7.670050049,13.54907455,2024-06-04 15:24:32.709381
31.74968179,23.00176758,-12.98774185,5.402116241,2024-06-04 15:24:32.749682
31.78998379,9.367819519,-32.84874069,-7.058721313,2024-06-04 15:24:32.789984
31.83028479,12.25711121,11.55611893,8.832233276,2024-06-04 15:24:32.830285
31.87058604,-2.077679443,-14.95839386,8.576115875,2024-06-04 15:24:32.870586
31.91088704,4.31642395,-17.19713837,1.384021912,2024-06-04 15:24:32.910887
31.95118904,3.877237244,-9.935738525,3.658242645,2024-06-04 15:24:32.951189
31.99149004,6.114335175,-9.031319275,6.22959549,2024-06-04 15:24:32.991490
32.03179204,9.067543945,-9.732610931,2.684816895,2024-06-04 15:24:33.031792
32.07209304,5.452411652,-10.78911392,1.019080811,2024-06-04 15:24:33.072093
32.11239504,0.7541317749,-6.64962204,1.611099701,2024-06-04 15:24:33.112395
32.15269604,0.09819580078,-6.608457642,1.138831787,2024-06-04 15:24:33.152696
32.19299804,3.359763336,-2.511177979,2.690954132,2024-06-04 15:24:33.192998
32.23329904,3.077450409,-5.845643921,-1.524280243,2024-06-04 15:24:33.233299
32.27360104,1.383423157,-5.088967438,-0.8614585876,2024-06-04 15:24:33.273601
32.31390204,1.716181183,-0.5287005615,-2.017504578,2024-06-04 15:24:33.313902
32.35420404,-3.848796387,-12.07613754,-1.427880707,2024-06-04 15:24:33.354204
32.39450504,-0.2218386841,-3.354973297,-1.1665242,2024-06-04 15:24:33.394505
32.43480704,12.31339417,-17.93600189,6.824159088,2024-06-04 15:24:33.434807
32.47510804,4.905598755,-13.66987335,-5.376070404,2024-06-04 15:24:33.475108
32.51541004,7.830815735,-12.41203903,-2.265089722,2024-06-04 15:24:33.515410
32.55571104,18.3274379,-11.89591232,1.355581055,2024-06-04 15:24:33.555711
32.59601304,10.24424698,-8.286917267,2.054178314,2024-06-04 15:24:33.596013
32.63631404,4.514911194,-7.182663574,-1.30693222,2024-06-04 15:24:33.636314
32.67661604,7.374115448,-6.29740448,-0.6020480347,2024-06-04 15:24:33.676616
32.71691704,7.613916779,-6.434519348,0.4213737488,2024-06-04 15:24:33.716917
32.75721904,5.097799072,-6.436764679,1.176703033,2024-06-04 15:24:33.757219
32.79752004,3.816164246,-7.23460556,2.991828461,2024-06-04 15:24:33.797520
32.83782104,3.78173584,-5.34493515,3.821253662,2024-06-04 15:24:33.837821
32.87812371,3.672163696,-2.71460495,2.75082962,2024-06-04 15:24:33.878124
32.91842471,4.542902985,-3.504063263,3.17325119,2024-06-04 15:24:33.918425
32.95872671,8.251740417,-7.187902679,8.549321594,2024-06-04 15:24:33.958727
32.99902771,5.117857361,-9.898466034,6.742129669,2024-06-04 15:24:33.999028
33.03932971,1.273401947,-11.49130371,-2.33783844,2024-06-04 15:24:34.039330
33.07963071,6.839726715,-6.768325195,3.416794739,2024-06-04 15:24:34.079631
33.11993271,5.009033661,-7.65702713,0.2577639771,2024-06-04 15:24:34.119933
33.16023371,3.460653534,-10.50784882,-0.1995350647,2024-06-04 15:24:34.160234
33.20053571,0.716559906,-10.93071945,-0.01706451416,2024-06-04 15:24:34.200536
33.24083671,1.951042786,-10.91485245,0.8259823608,2024-06-04 15:24:34.240837
33.28113871,4.662204895,-8.58375,0.6059399414,2024-06-04 15:24:34.281139
33.32143971,4.72013443,-8.062384186,-0.06661148071,2024-06-04 15:24:34.321440
33.36174071,3.818409576,-8.915160828,-1.133293304,2024-06-04 15:24:34.361741
33.40204271,3.408861237,-8.992549896,-1.600322113,2024-06-04 15:24:34.402043
33.44234371,2.71580246,-9.587861938,-0.6303392029,2024-06-04 15:24:34.442344
33.48264571,2.773432617,-8.894653473,-0.6676116943,2024-06-04 15:24:34.482646
33.52294671,3.361110535,-8.379275208,-1.197659454,2024-06-04 15:24:34.522947
33.56324871,2.018103333,-8.863218842,-1.225651245,2024-06-04 15:24:34.563249
33.60354971,3.484454041,-11.45687531,2.833158417,2024-06-04 15:24:34.603550
33.64385171,4.173920288,-12.02299805,2.141147461,2024-06-04 15:24:34.643852
33.68415271,1.567839661,-10.35022659,-1.461560669,2024-06-04 15:24:34.684153
33.72445471,3.658242645,-9.379195862,-0.4944218445,2024-06-04 15:24:34.724455
33.76475571,6.771169281,-7.830366669,-0.6542893982,2024-06-04 15:24:34.764756
33.80505671,6.681356049,-8.244555359,-2.188299408,2024-06-04 15:24:34.805057
33.84535833,5.547463989,-8.928782501,-0.4333488464,2024-06-04 15:24:34.845358
33.88565933,4.61954361,-8.367898865,-0.006885681152,2024-06-04 15:24:34.885659
33.92596133,3.674558716,-8.635093231,-0.3755690002,2024-06-04 15:24:34.925961
33.96626233,4.324207764,-8.215366058,0.2447410583,2024-06-04 15:24:34.966262
34.00656433,4.716691589,-8.094267883,0.9455836487,2024-06-04 15:24:35.006564
34.04686533,4.521048431,-7.655081177,0.7220983887,2024-06-04 15:24:35.046865
34.08716633,5.873186646,-8.238717499,0.62599823,2024-06-04 15:24:35.087166
34.12746833,5.969137115,-10.33675461,0.7209008789,2024-06-04 15:24:35.127468
34.16776933,6.466702423,-9.533075867,1.27070755,2024-06-04 15:24:35.167769
34.20807133,5.65389267,-8.429570618,2.800825653,2024-06-04 15:24:35.208071
34.24837233,3.765419769,-8.450527039,3.032693481,2024-06-04 15:24:35.248372
34.28867433,3.977528687,-7.631580048,3.270848236,2024-06-04 15:24:35.288674
34.32897533,3.123404846,-8.722062378,4.476141815,2024-06-04 15:24:35.328975
34.36927633,4.108955383,-7.966583405,3.923940125,2024-06-04 15:24:35.369276
34.40957833,3.464844818,-6.626120911,4.863087158,2024-06-04 15:24:35.409578
34.44987933,3.155438232,-5.542524261,4.157155151,2024-06-04 15:24:35.449879
34.49018133,3.206332397,-5.238207092,4.061204681,2024-06-04 15:24:35.490181
34.53048233,2.778821411,-5.856122131,5.00214798,2024-06-04 15:24:35.530482
34.57078433,2.56716156,-3.641178131,6.306236115,2024-06-04 15:24:35.570784
34.61108533,1.689686279,-6.149362335,7.592062225,2024-06-04 15:24:35.611085
34.65138633,7.366631012,-15.72614731,14.39885742,2024-06-04 15:24:35.651386
34.69168833,4.215982819,-7.654183044,-4.718188477,2024-06-04 15:24:35.691688
34.73198933,5.503305817,-1.300046539,5.653593292,2024-06-04 15:24:35.731989
34.77229133,3.966751099,-13.83752472,-2.081421661,2024-06-04 15:24:35.772291
34.81259233,4.284989319,-10.23571472,2.580483856,2024-06-04 15:24:35.812592
34.85289329,3.785478058,-7.927065582,-0.4593946838,2024-06-04 15:24:35.852893
34.89319529,4.112697601,-7.720345459,0.4784051514,2024-06-04 15:24:35.893195
34.93349629,2.980601807,-10.84764221,2.107916565,2024-06-04 15:24:35.933496
34.97379829,3.624712372,-9.09852951,3.186423798,2024-06-04 15:24:35.973798
35.01409929,3.055745544,-9.222022705,2.655328217,2024-06-04 15:24:36.014099
35.05440029,2.964734802,-10.05384293,-1.752854919,2024-06-04 15:24:36.054400
35.09470229,3.52786377,-9.548942871,-1.140029297,2024-06-04 15:24:36.094702
35.13500329,3.884571991,-9.295968933,-0.3721261597,2024-06-04 15:24:36.135003
35.17530529,3.861519928,-8.120762787,-0.3513194275,2024-06-04 15:24:36.175305
35.21560629,4.328848114,-8.857231293,2.192341003,2024-06-04 15:24:36.215606
35.25590729,3.864663391,-9.713450775,2.630928955,2024-06-04 15:24:36.255907
35.29620929,5.850733337,-5.758076019,4.357139282,2024-06-04 15:24:36.296209
35.33651029,0.935255127,-4.244723053,-2.292931824,2024-06-04 15:24:36.336510
35.37681229,2.63856308,-8.823102264,4.082759857,2024-06-04 15:24:36.376812
35.41711329,3.275189209,-6.268514557,2.583477631,2024-06-04 15:24:36.417113
35.45741429,-3.134930878,-0.08846603394,6.971901855,2024-06-04 15:24:36.457414
35.49771629,7.981701965,-6.217919769,4.104015656,2024-06-04 15:24:36.497716
35.53801729,12.00443665,-5.948629761,22.74115952,2024-06-04 15:24:36.538017
35.57831929,6.423292694,-13.58709549,-0.1666035461,2024-06-04 15:24:36.578319
35.61862029,3.484304352,3.59806778,-1.969155121,2024-06-04 15:24:36.618620
35.65892129,11.08789261,-20.7281456,0.7466473389,2024-06-04 15:24:36.658921
35.69922329,4.67911972,-10.75737991,-1.372944946,2024-06-04 15:24:36.699223
35.73952429,4.64289505,-0.2335144043,6.518943787,2024-06-04 15:24:36.739524
35.77982529,-2.385140076,0.1107696533,12.0607196,2024-06-04 15:24:36.779825
35.82012729,-4.601580963,3.15693512,11.56150772,2024-06-04 15:24:36.820127
35.86042892,-1.657054138,-11.251203,10.56862244,2024-06-04 15:24:36.860429
35.90073092,3.086581421,-17.21225693,0.6273454285,2024-06-04 15:24:36.900731
35.94103192,8.327183533,-5.905519409,-2.602188721,2024-06-04 15:24:36.941032
35.98133292,6.858886871,0.4320016479,-2.767445068,2024-06-04 15:24:36.981333
36.02163492,7.651937714,-10.21161484,-0.8885522461,2024-06-04 15:24:37.021635
36.06193592,2.356100464,-15.64351913,0.9783654785,2024-06-04 15:24:37.061936
36.10223692,0.946481781,-7.118596802,-2.562670898,2024-06-04 15:24:37.102237
36.14253892,3.732039185,-10.72579559,1.030457153,2024-06-04 15:24:37.142539
36.18283992,3.817062378,-10.46803162,4.438719635,2024-06-04 15:24:37.182840
36.22314092,3.936663666,-8.167765045,6.284381561,2024-06-04 15:24:37.223141
36.26344292,5.279670868,-11.13160172,5.961652679,2024-06-04 15:24:37.263443
36.30374392,9.064400482,-9.456135864,-0.7213499451,2024-06-04 15:24:37.303744
36.34404592,7.606282654,-6.865922241,1.981130219,2024-06-04 15:24:37.344046
36.38434692,4.375101929,-16.75735291,5.356161804,2024-06-04 15:24:37.384347
36.42464792,6.008205872,-6.172115021,2.882705383,2024-06-04 15:24:37.424648
36.46494992,4.882696381,-4.651427307,2.01600769,2024-06-04 15:24:37.464950
36.50525092,1.915566559,-5.240003357,2.056573334,2024-06-04 15:24:37.505251
36.54555192,3.447480927,-1.625170441,1.48955246,2024-06-04 15:24:37.545552
36.58585392,5.643414459,-2.842439117,4.7563591,2024-06-04 15:24:37.585854
36.62615492,8.238717499,-10.02195923,17.40834915,2024-06-04 15:24:37.626155
36.66645592,3.762126617,-0.5057981873,-2.879262543,2024-06-04 15:24:37.666456
36.70675792,3.306324463,-7.397915955,5.630092163,2024-06-04 15:24:37.706758
36.74705892,13.61254257,-16.07447296,4.178261261,2024-06-04 15:24:37.747059
36.78735992,0.2163002014,-10.95766342,-1.848506012,2024-06-04 15:24:37.787360
36.82766192,2.04175415,-8.944350128,0.2972817993,2024-06-04 15:24:37.827662
36.86796254,3.180436249,-13.83827316,0.5471122742,2024-06-04 15:24:37.867963
36.90826354,4.554878082,-7.21245163,0.6197113037,2024-06-04 15:24:37.908264
36.94856554,6.722221069,-5.854325867,0.2915936279,2024-06-04 15:24:37.948566
36.98886654,4.225712585,-6.57822052,1.156495056,2024-06-04 15:24:37.988867
37.02916754,2.707868958,-5.881269836,0.2195933533,2024-06-04 15:24:38.029168
37.06946854,0.8855584717,-8.661139069,3.44239151,2024-06-04 15:24:38.069469
37.10977054,4.830455017,-10.7774382,3.14286438,2024-06-04 15:24:38.109771
37.15007154,3.099454651,-17.97507065,-1.767823792,2024-06-04 15:24:38.150072
37.19037254,8.932375031,-7.84773056,0.6239025879,2024-06-04 15:24:38.190373
37.23067454,6.476731567,-13.95547943,-2.117346954,2024-06-04 15:24:38.230675
37.27097554,7.398215332,-14.68985229,0.6647676086,2024-06-04 15:24:38.270976
37.31127654,5.923482056,-7.210206299,0.9978250122,2024-06-04 15:24:38.311277
37.35157854,3.633693695,-7.945626984,0.9991722107,2024-06-04 15:24:38.351579
37.39187954,1.402134247,-8.293353882,0.09969268799,2024-06-04 15:24:38.391880
37.43218054,2.399510193,-5.927074585,0.4927752686,2024-06-04 15:24:38.432181
37.47248254,4.029470673,-1.880389709,0.8776249695,2024-06-04 15:24:38.472483
37.51278354,2.825075226,-1.839524689,3.107687531,2024-06-04 15:24:38.512784
37.55308454,4.186793518,-2.920127563,5.660478973,2024-06-04 15:24:38.553085
37.59338654,6.602470093,-6.658004608,9.705966339,2024-06-04 15:24:38.593387
37.63368754,10.18242554,-29.6250444,6.27285553,2024-06-04 15:24:38.633688
37.67398854,6.518045654,10.04231689,2.691103821,2024-06-04 15:24:38.673989
37.71428954,2.61985199,-16.45573013,-7.226222992,2024-06-04 15:24:38.714290
37.75459154,4.307292938,-14.44256653,-1.23672821,2024-06-04 15:24:38.754592
37.79489254,3.6097435,-9.59355011,1.590891724,2024-06-04 15:24:38.794893
37.83519354,4.722230072,-9.730365601,-0.3547622681,2024-06-04 15:24:38.835194
37.87549529,5.712870026,-7.874225464,1.146465912,2024-06-04 15:24:38.875495
37.91579629,3.34180069,-7.42890152,1.365610199,2024-06-04 15:24:38.915796
37.95609729,1.581161957,-7.914192352,-1.588197327,2024-06-04 15:24:38.956097
37.99639829,3.096760254,-6.967111816,-0.1158590698,2024-06-04 15:24:38.996398
38.03670029,4.436623993,-8.166118469,0.7441026306,2024-06-04 15:24:39.036700
38.07700129,3.385360107,-9.289232941,0.549357605,2024-06-04 15:24:39.077001
38.11730229,2.918930054,-9.917177124,1.312770081,2024-06-04 15:24:39.117302
38.15760429,1.719025269,-15.42676987,-1.859582977,2024-06-04 15:24:39.157604
38.19790529,8.593629456,-11.51240982,3.573967896,2024-06-04 15:24:39.197905
38.23820629,7.739954681,-8.083190918,0.3851490784,2024-06-04 15:24:39.238206
38.27850729,1.324296112,-12.57205627,-2.478845215,2024-06-04 15:24:39.278507
38.31880929,8.675209808,-9.473948822,1.139280853,2024-06-04 15:24:39.318809
38.35911029,6.026168518,-9.84038681,-0.5357359314,2024-06-04 15:24:39.359110
38.39941129,4.460125122,-7.911647644,0.3016227722,2024-06-04 15:24:39.399411
38.43971229,2.741698608,-8.904832306,0.6755451965,2024-06-04 15:24:39.439712
38.48001429,2.968776398,-6.927593994,1.301393738,2024-06-04 15:24:39.480014
38.52031529,4.526736603,-4.662055206,1.753004608,2024-06-04 15:24:39.520315
38.56061629,4.52119812,-2.922073517,2.44666214,2024-06-04 15:24:39.560616
38.60091729,3.89175705,-3.341351624,4.466412048,2024-06-04 15:24:39.600917
38.64121929,4.895120544,-2.008972321,6.142626343,2024-06-04 15:24:39.641219
38.68152029,10.48255142,-11.62063477,9.284293213,2024-06-04 15:24:39.681520
38.72182129,7.331903229,-16.35873184,-8.323890381,2024-06-04 15:24:39.721821
38.76212229,4.560865631,5.152585144,9.736951904,2024-06-04 15:24:39.762122
38.80242429,0.4605921936,-18.669776,-4.300407257,2024-06-04 15:24:39.802424
38.84272529,6.134094086,-9.795629883,0.5721102905,2024-06-04 15:24:39.842725
38.88302629,3.489543457,-6.30204483,-1.10335556,2024-06-04 15:24:39.883026
38.92332729,3.990252228,-8.723259888,-1.536105652,2024-06-04 15:24:39.923327
38.96362929,2.677631836,-10.33046768,0.9081614685,2024-06-04 15:24:39.963629
39.00393029,3.843108215,-7.529941406,-0.6837780762,2024-06-04 15:24:40.003930
39.04423129,3.876039734,-9.327403564,0.3996688843,2024-06-04 15:24:40.044231
39.08453229,3.2142659,-9.174721069,-0.1435514832,2024-06-04 15:24:40.084532
39.12483429,3.344794464,-9.75386673,-0.1874102783,2024-06-04 15:24:40.124834
39.16513529,3.241958313,-9.556876373,-1.053658905,2024-06-04 15:24:40.165135
39.20543629,4.143982544,-9.378297729,-0.06616241455,2024-06-04 15:24:40.205436
39.24573729,4.855602722,-9.062454529,0.7963439941,2024-06-04 15:24:40.245737
39.28603929,3.110681305,-9.496252441,2.277364197,2024-06-04 15:24:40.286039
39.32634029,2.603685608,-10.47312103,1.337019653,2024-06-04 15:24:40.326340
39.36664129,3.099454651,-11.88752975,-1.074315948,2024-06-04 15:24:40.366641
39.40694229,2.717748413,-14.33000061,-0.5197192383,2024-06-04 15:24:40.406942
39.44724429,7.249724121,-7.049440613,3.258424072,2024-06-04 15:24:40.447244
39.48754529,2.198328552,-11.65401535,-3.595972137,2024-06-04 15:24:40.487545
39.52784629,7.043453064,-11.1185788,-1.184187469,2024-06-04 15:24:40.527846
39.56814729,4.990172882,-10.05144791,-0.03487747192,2024-06-04 15:24:40.568147
39.60844829,4.21343811,-9.767189026,0.8655001831,2024-06-04 15:24:40.608448
39.64875029,3.066074066,-9.60402832,0.8655001831,2024-06-04 15:24:40.648750
39.68905129,2.90530838,-7.018305359,-0.06526428223,2024-06-04 15:24:40.689051
39.72935229,3.59687027,-4.651576996,0.8493338013,2024-06-04 15:24:40.729352
39.76965329,4.761298828,-3.274889832,0.9743238831,2024-06-04 15:24:40.769653
39.80995529,4.569248199,-3.07266037,3.629203033,2024-06-04 15:24:40.809955
39.85025604,5.615422668,-4.824766846,6.383176117,2024-06-04 15:24:40.850256
39.89055704,12.90735901,-10.58883041,12.04994202,2024-06-04 15:24:40.890557
39.93085804,3.144211578,-6.350693665,-1.783690796,2024-06-04 15:24:40.930858
39.97115904,2.571951599,-5.309309235,5.679040375,2024-06-04 15:24:40.971159
40.01146104,5.587430878,-12.47011826,0.4032614136,2024-06-04 15:24:41.011461
40.05176204,4.698728943,-9.857451324,-0.5569917297,2024-06-04 15:24:41.051762
40.09206304,4.053271179,-9.605375519,0.7680528259,2024-06-04 15:24:41.092063
40.13236404,2.718945923,-7.760312347,-2.688708801,2024-06-04 15:24:41.132364
40.17266504,2.365680542,-11.46600632,1.626817017,2024-06-04 15:24:41.172665
40.21296704,3.079246674,-9.738299103,1.315314789,2024-06-04 15:24:41.212967
40.25326804,4.253105621,-6.707850952,-1.490450592,2024-06-04 15:24:41.253268
40.29356904,2.67478775,-9.292675781,-2.327659607,2024-06-04 15:24:41.293569
40.33387004,1.783092041,-10.59496765,-1.043929138,2024-06-04 15:24:41.333870
40.37417104,2.490670624,-10.24694138,-0.453407135,2024-06-04 15:24:41.374171
40.41447304,4.408033447,-8.433163147,-0.5715115356,2024-06-04 15:24:41.414473
40.45477404,5.218298492,-7.180118866,0.4168830872,2024-06-04 15:24:41.454774
40.49507504,2.63152771,-10.05099884,2.37765564,2024-06-04 15:24:41.495075
40.53537604,1.915716248,-10.27657974,1.353036346,2024-06-04 15:24:41.535376
40.57567704,0.6920109558,-14.16444489,-1.886976013,2024-06-04 15:24:41.575677
40.61597904,6.068829803,-12.28270798,1.72007309,2024-06-04 15:24:41.615979
40.65628004,6.388115845,-7.520511017,0.6770420837,2024-06-04 15:24:41.656280
40.69658104,4.510420532,-12.90466461,-2.550246735,2024-06-04 15:24:41.696581
40.73688204,6.845414886,-11.00032471,0.1660047913,2024-06-04 15:24:41.736882
40.77718304,4.437821503,-8.731043701,-0.9687854004,2024-06-04 15:24:41.777183
40.81748404,3.476819916,-9.906399536,2.607727203,2024-06-04 15:24:41.817484
40.85778621,2.688409424,-9.659562836,-1.230740662,2024-06-04 15:24:41.857786
40.89808721,4.536915436,-6.580765228,1.213825836,2024-06-04 15:24:41.898087
40.93838821,4.430636444,-4.98104187,1.53161499,2024-06-04 15:24:41.938388
40.97868921,4.523742828,-3.698808289,2.166594543,2024-06-04 15:24:41.978689
41.01899021,3.040327606,-2.823578339,4.736899567,2024-06-04 15:24:42.018990
41.05929121,2.30161377,-3.528462524,6.540049896,2024-06-04 15:24:42.059291
41.09959321,5.267097015,-4.252357178,7.012766876,2024-06-04 15:24:42.099593
41.13989421,8.627459106,-7.852670288,7.221432953,2024-06-04 15:24:42.139894
41.18019521,17.77299088,-23.48301682,8.19994812,2024-06-04 15:24:42.180195
41.22049621,1.220711517,1.063538361,-7.204817505,2024-06-04 15:24:42.220496
41.26079721,3.679648132,-6.204148407,0.7441026306,2024-06-04 15:24:42.260797
41.30109821,3.08673111,-14.87531662,-1.289119263,2024-06-04 15:24:42.301098
41.34140021,2.942431183,-7.779173126,-1.027164001,2024-06-04 15:24:42.341400
41.38170121,2.804567871,-9.321715393,1.454974365,2024-06-04 15:24:42.381701
41.42200221,3.953129425,-9.404792633,0.3592529297,2024-06-04 15:24:42.422002
41.46230321,5.001998291,-6.825506287,1.522633667,2024-06-04 15:24:42.462303
41.50260421,3.706891479,-8.448730774,-1.275497589,2024-06-04 15:24:42.502604
41.54290521,2.753973083,-9.925709381,-0.1679507446,2024-06-04 15:24:42.542905
41.58320621,2.806813202,-9.02488266,-1.340462494,2024-06-04 15:24:42.583206
41.62350821,3.429667969,-9.044641571,-1.140478363,2024-06-04 15:24:42.623508
41.66380921,4.797822876,-9.810149689,-1.537003784,2024-06-04 15:24:42.663809
41.70411021,4.637356567,-9.034163361,-0.3632945251,2024-06-04 15:24:42.704110
41.74441121,3.477268982,-9.08341095,-0.4670288086,2024-06-04 15:24:42.744411
41.78471221,2.64904129,-10.90242828,0.04221221924,2024-06-04 15:24:42.784712
41.82501321,2.935844879,-9.988728333,0.8026309204,2024-06-04 15:24:42.825013
41.86531392,3.394341431,-9.31393158,1.757794647,2024-06-04 15:24:42.865314
41.90561592,1.934577026,-10.17973114,0.07649093628,2024-06-04 15:24:42.905616
41.94591692,-0.9554631042,-14.26563446,-2.286944275,2024-06-04 15:24:42.945917
41.98621792,8.483608246,-11.1211235,2.42795105,2024-06-04 15:24:42.986218
42.02651892,6.716083832,-7.557933197,-1.594035187,2024-06-04 15:24:43.026519
42.06681992,6.695127411,-12.75003616,-0.9398954773,2024-06-04 15:24:43.066820
42.10712092,9.613309021,-10.90632019,-1.386416931,2024-06-04 15:24:43.107121
42.14742292,7.022496643,-8.133636017,0.1953437805,2024-06-04 15:24:43.147423
42.18772392,2.769690399,-10.17524048,1.447789307,2024-06-04 15:24:43.187724
42.22802492,2.460283813,-8.190218353,0.008232879639,2024-06-04 15:24:43.228025
42.26832592,2.970422974,-5.115911407,0.8104147339,2024-06-04 15:24:43.268326
42.30862692,3.237168274,-3.712130585,0.5941145325,2024-06-04 15:24:43.308627
42.34892792,3.42368042,-3.925886078,2.458637238,2024-06-04 15:24:43.348928
42.38922892,2.485132141,-4.142186279,5.717809753,2024-06-04 15:24:43.389229
42.42952992,4.969964905,-4.491260376,7.575446777,2024-06-04 15:24:43.429530
42.46983192,6.452332306,-8.549022217,9.764644318,2024-06-04 15:24:43.469832
42.51013292,9.851912842,-19.99601807,7.776329041,2024-06-04 15:24:43.510133
42.55043392,6.727160797,5.528752899,-2.062111816,2024-06-04 15:24:43.550434
42.59073492,6.396648102,-8.918004913,0.937350769,2024-06-04 15:24:43.590735
42.63103592,2.49815506,-16.87111633,-0.4535568237,2024-06-04 15:24:43.631036
42.67133692,3.238365784,-6.877597961,-1.948797455,2024-06-04 15:24:43.671337
42.71163792,1.773661652,-9.633067932,0.2011816406,2024-06-04 15:24:43.711638
42.75193892,2.84213974,-12.37147339,0.8238867188,2024-06-04 15:24:43.751939
42.79223992,5.134772186,-7.286248169,0.6846762085,2024-06-04 15:24:43.792240
42.83254092,5.687422943,-7.274871826,0.3490740967,2024-06-04 15:24:43.832541
42.87284304,2.726879425,-9.74563385,0.03517684937,2024-06-04 15:24:43.872843
42.91314404,1.880090332,-9.236093445,-0.706381073,2024-06-04 15:24:43.913144
42.95344504,4.594096527,-8.962761841,0.9319619751,2024-06-04 15:24:43.953445
42.99374604,5.077291718,-9.437574463,1.263821869,2024-06-04 15:24:43.993746
43.03404704,2.625091095,-9.156608734,4.596192169,2024-06-04 15:24:44.034047
43.07434804,1.966311035,-9.711355133,0.8364605713,2024-06-04 15:24:44.074348
43.11464904,4.359983368,-10.3382515,-0.09535171509,2024-06-04 15:24:44.114649
43.15495004,1.938319244,-15.63094528,-1.947899323,2024-06-04 15:24:44.154950
43.19525104,6.390810242,-9.701475677,3.582350464,2024-06-04 15:24:44.195251
43.23555204,4.332889709,-5.927224274,0.08801696777,2024-06-04 15:24:44.235552
43.27585304,1.989812164,-11.18474121,-1.553619232,2024-06-04 15:24:44.275853
43.31615404,7.329957275,-11.52483398,0.5078938293,2024-06-04 15:24:44.316154
43.35645504,3.230881348,-9.096433868,0.545615387,2024-06-04 15:24:44.356455
43.39675704,2.176773376,-9.119036865,1.01099762,2024-06-04 15:24:44.396757
43.43705804,3.558100891,-9.752968597,1.62636795,2024-06-04 15:24:44.437058
43.47735904,3.591780853,-7.037166138,1.466051331,2024-06-04 15:24:44.477359
43.51766004,4.019591217,-5.094954987,1.040336609,2024-06-04 15:24:44.517660
43.55796104,6.172564087,-5.802683258,1.873803406,2024-06-04 15:24:44.557961
43.59826204,4.948858795,-5.280718689,-0.4809498596,2024-06-04 15:24:44.598262
43.63856304,4.347409515,-7.538623352,9.420210571,2024-06-04 15:24:44.638563
43.67886404,1.495540009,-11.90399551,3.907923431,2024-06-04 15:24:44.678864
43.71916504,6.929539948,-4.172872467,-6.874604187,2024-06-04 15:24:44.719165
43.75946604,12.69629791,-7.29552887,-0.5754034424,2024-06-04 15:24:44.759466
43.79976704,7.556286621,-11.23234222,7.012467499,2024-06-04 15:24:44.799767
43.84006804,1.231638794,-11.14118179,0.5249583435,2024-06-04 15:24:44.840068
43.88037021,3.85538269,-7.204069061,0.5517526245,2024-06-04 15:24:44.880370
43.92067121,0.3556604004,-10.58673477,-2.198777618,2024-06-04 15:24:44.920671
43.96097221,1.359472961,-10.14620087,-4.159849548,2024-06-04 15:24:44.960972
44.00127321,8.243058472,-6.968159637,-1.577120361,2024-06-04 15:24:45.001273
44.04157421,7.450456696,-10.97876953,2.076032867,2024-06-04 15:24:45.041574
44.08187521,2.422711945,-10.24020538,-1.202449493,2024-06-04 15:24:45.081875
44.12217721,1.754052429,-9.635163574,-0.8720864868,2024-06-04 15:24:45.122177
44.16247821,2.24892334,-9.145232391,-2.312990112,2024-06-04 15:24:45.162478
44.20277921,2.894530792,-9.060508575,-2.67478775,2024-06-04 15:24:45.202779
44.24308021,4.564308472,-8.162675629,-1.037193146,2024-06-04 15:24:45.243080
44.28338121,4.186643829,-9.26124115,-1.716181183,2024-06-04 15:24:45.283381
44.32368221,3.921096039,-9.419611816,-1.847009125,2024-06-04 15:24:45.323682
44.36398321,3.717519379,-9.314979401,-1.60301651,2024-06-04 15:24:45.363983
44.40428421,3.497926025,-8.571625214,-1.924697571,2024-06-04 15:24:45.404284
44.44458521,4.08365799,-8.707243195,-1.5726297,2024-06-04 15:24:45.444585
44.48488621,4.476141815,-8.588540039,-1.34210907,2024-06-04 15:24:45.484886
44.52518721,4.328399048,-8.730444946,-1.257534943,2024-06-04 15:24:45.525187
44.56548821,4.225413208,-9.236991577,-1.179547119,2024-06-04 15:24:45.565488
44.60578921,4.519850922,-8.809330902,-0.9351054382,2024-06-04 15:24:45.605789
44.64609021,4.024680634,-9.122330017,-1.638343048,2024-06-04 15:24:45.646090
44.68639121,4.258195038,-8.712033234,-1.451681213,2024-06-04 15:24:45.686391
44.72669221,4.24157959,-8.887468414,-1.124761047,2024-06-04 15:24:45.726692
44.76699321,4.662953339,-8.960965576,-1.381626892,2024-06-04 15:24:45.766993
44.80729421,5.355563049,-8.241711273,-1.437760162,2024-06-04 15:24:45.807294
44.84759521,5.183570709,-8.319250031,-0.7644602966,2024-06-04 15:24:45.847595
44.88789533,5.090464325,-8.748407593,-0.2802172852,2024-06-04 15:24:45.887895
44.92819633,5.034480743,-8.572373657,0.675844574,2024-06-04 15:24:45.928196
44.96849733,5.684129791,-8.447533264,1.402433624,2024-06-04 15:24:45.968497
45.00879833,6.764732666,-9.677076416,2.511776733,2024-06-04 15:24:46.008798
45.04909933,5.999673615,-10.75004517,3.476071472,2024-06-04 15:24:46.049099
45.08940033,3.337010651,-8.1285466,3.460653534,2024-06-04 15:24:46.089400
45.12970133,3.881877594,-4.619992676,-0.02080673218,2024-06-04 15:24:46.129701
45.17000233,4.742587738,-5.049150238,1.145118713,2024-06-04 15:24:46.170002
45.21030333,3.534150696,-6.136788483,2.608026581,2024-06-04 15:24:46.210303
45.25060433,3.880680084,-5.752986603,1.804497528,2024-06-04 15:24:46.250604
45.29090533,6.063590698,-6.838229828,1.991309052,2024-06-04 15:24:46.290905
45.33120633,9.740544434,-10.88671097,3.332070923,2024-06-04 15:24:46.331206
45.37150733,6.226601715,-11.41705811,4.363126831,2024-06-04 15:24:46.371507
45.41180833,5.129982147,-4.975503387,0.8547225952,2024-06-04 15:24:46.411808
45.45210933,5.187612305,-7.33878891,0.4686753845,2024-06-04 15:24:46.452109
45.49241033,2.755170593,-11.53171967,0.532742157,2024-06-04 15:24:46.492410
45.53271133,2.713557129,-8.181835785,-1.759141846,2024-06-04 15:24:46.532711
45.57301233,4.06255188,-8.433612213,1.504820709,2024-06-04 15:24:46.573012
45.61331333,6.650969238,-8.695268097,-0.1787283325,2024-06-04 15:24:46.613313
45.65361433,5.885012054,-9.200018463,-2.565814362,2024-06-04 15:24:46.653614
45.69391533,6.589147797,-8.406368866,2.408790894,2024-06-04 15:24:46.693915
45.73421633,3.012186127,-9.624835052,-0.1896556091,2024-06-04 15:24:46.734216
45.77451733,2.881657562,-8.917106781,-3.127446442,2024-06-04 15:24:46.774517
45.81481833,5.261259155,-7.67693573,-2.02424057,2024-06-04 15:24:46.814818
45.85511933,5.025349731,-8.535550232,-0.8075706482,2024-06-04 15:24:46.855119
45.89541983,5.470823364,-8.678203583,-0.15328125,2024-06-04 15:24:46.895420
45.93572083,5.545368347,-8.365952911,-0.9086105347,2024-06-04 15:24:46.935721
45.97602183,5.174888763,-8.650511169,-0.3905378723,2024-06-04 15:24:46.976022
46.01632283,4.411476288,-8.762927399,-1.058149567,2024-06-04 15:24:47.016323
46.05662383,4.699178009,-8.241860962,-0.929866333,2024-06-04 15:24:47.056624
46.09692483,5.123695221,-8.501421204,-0.3402424622,2024-06-04 15:24:47.096925
46.13722583,5.332660675,-8.538693695,-0.2285746765,2024-06-04 15:24:47.137226
46.17752683,5.043611755,-8.597072296,-0.1883084106,2024-06-04 15:24:47.177527
46.21782783,4.7961763,-8.605903931,-0.3275189209,2024-06-04 15:24:47.217828
46.25812883,4.695136414,-8.608897705,-0.396076355,2024-06-04 15:24:47.258129
46.29842983,4.835245056,-8.429720306,-0.3469784546,2024-06-04 15:24:47.298430
46.33873083,4.890180817,-8.535101166,-0.2600093079,2024-06-04 15:24:47.338731
46.37903183,4.722529449,-8.41175766,-0.2409988403,2024-06-04 15:24:47.379032
46.41933283,4.825664978,-8.494086456,-0.2049238586,2024-06-04 15:24:47.419333
46.45963383,5.003644867,-8.58494751,-0.1564247131,2024-06-04 15:24:47.459634
46.49993483,5.069657593,-8.516839142,-0.01796264648,2024-06-04 15:24:47.499935
46.54023583,5.125042419,-8.562194824,0.0209564209,2024-06-04 15:24:47.540236
46.58053683,5.116360474,-8.488098907,0.07065307617,2024-06-04 15:24:47.580537
46.62083683,4.806055756,-8.727451172,0.1839674377,2024-06-04 15:24:47.620837
46.66113783,4.991071014,-8.79316452,0.06706054688,2024-06-04 15:24:47.661138
46.70143883,5.176385651,-8.833131409,0.1904040527,2024-06-04 15:24:47.701439
46.74173983,4.669389954,-8.828491058,0.2418969727,2024-06-04 15:24:47.741740
46.78204083,4.842729492,-8.291707306,0.07978408813,2024-06-04 15:24:47.782041
46.82234183,5.298232269,-7.939938812,0.1050814819,2024-06-04 15:24:47.822342
46.86264354,5.269492035,-8.204139404,0.9324110413,2024-06-04 15:24:47.862644
46.90294454,5.754782867,-7.67693573,1.773362274,2024-06-04 15:24:47.902945
46.94324554,5.156327362,-8.134534149,2.273322601,2024-06-04 15:24:47.943246
46.98354654,4.997208252,-8.276888123,1.928589478,2024-06-04 15:24:47.983547
47.02384754,5.540727997,-7.68277359,1.781295776,2024-06-04 15:24:48.023848
47.06414854,5.908213806,-7.617359619,2.276016998,2024-06-04 15:24:48.064149
47.10444954,4.885390778,-8.543633423,1.166973267,2024-06-04 15:24:48.104450
47.14475054,4.107608185,-8.64811615,0.7247927856,2024-06-04 15:24:48.144751
47.18505154,3.157683563,-9.105415192,0.3583547974,2024-06-04 15:24:48.185052
47.22535254,2.627635803,-9.91418335,-0.5923182678,2024-06-04 15:24:48.225353
47.26565354,3.192411346,-9.851014709,0.1682501221,2024-06-04 15:24:48.265654
47.30595454,4.39366333,-8.17300415,1.436113586,2024-06-04 15:24:48.305955
47.34625554,4.032015381,-8.862171021,1.118324432,2024-06-04 15:24:48.346256
47.38655554,3.146606598,-9.320966949,0.7771838379,2024-06-04 15:24:48.386556
47.42685654,3.190914459,-9.277856598,0.8632548523,2024-06-04 15:24:48.426857
47.46715754,4.732408905,-8.033344574,1.872306519,2024-06-04 15:24:48.467158
47.50745854,4.581971741,-8.432265015,1.502276001,2024-06-04 15:24:48.507459
47.54775954,3.093616791,-9.633067932,0.03891906738,2024-06-04 15:24:48.547760
47.58806054,4.238436127,-8.815617828,-0.02978805542,2024-06-04 15:24:48.588061
47.62836154,4.699776764,-8.367150421,1.093476105,2024-06-04 15:24:48.628362
47.66866254,4.236789551,-8.737929382,0.7084767151,2024-06-04 15:24:48.668663
47.70896354,3.01413208,-8.909622345,0.9060658264,2024-06-04 15:24:48.708964
47.74926454,1.909129944,-10.39408539,0.5685177612,2024-06-04 15:24:48.749265
47.78956554,3.133284302,-12.19918167,-0.8635542297,2024-06-04 15:24:48.789566
47.82986654,8.491392059,-8.645122375,1.752256165,2024-06-04 15:24:48.829867
47.87016721,14.94507156,-11.04193817,6.673422546,2024-06-04 15:24:48.870167
47.91046721,4.679419098,-6.23543335,-1.32923584,2024-06-04 15:24:48.910467
47.95076821,3.375780029,-3.728746033,0.5604345703,2024-06-04 15:24:48.950768
47.99106921,4.186943207,-4.223916321,3.363505554,2024-06-04 15:24:48.991069
48.03137021,1.213676147,-2.167941742,3.248394928,2024-06-04 15:24:49.031370
48.07167121,4.62418396,-4.676575012,4.007616119,2024-06-04 15:24:49.071671
48.11197221,10.68358337,-11.12142288,16.92171112,2024-06-04 15:24:49.111972
48.15227321,3.064577179,-10.74720108,-2.479743347,2024-06-04 15:24:49.152273
48.19257421,6.817423096,-5.791157227,-0.6876699829,2024-06-04 15:24:49.192574
48.23287521,0.5876779175,-9.123976593,4.859045563,2024-06-04 15:24:49.232875
48.27317621,5.72873703,-9.856104126,3.096610565,2024-06-04 15:24:49.273176
48.31347721,6.454577637,-5.471571808,4.1830513,2024-06-04 15:24:49.313477
48.35377721,6.029761047,-6.408323822,4.98687973,2024-06-04 15:24:49.353777
48.39407821,3.866309967,-9.12906601,3.277584229,2024-06-04 15:24:49.394078
48.43437921,3.279530182,-7.716453552,3.771407318,2024-06-04 15:24:49.434379
48.47468021,5.489833832,-7.382498016,4.02393219,2024-06-04 15:24:49.474680
48.51498121,5.43040741,-7.526199188,3.967948608,2024-06-04 15:24:49.514981
48.55528221,4.644691315,-7.54116806,3.622916107,2024-06-04 15:24:49.555282
48.59558321,4.34456543,-8.241262207,3.475622406,2024-06-04 15:24:49.595583
48.63588421,5.125940552,-7.524402924,3.378923492,2024-06-04 15:24:49.635884
48.67618521,4.715045013,-7.923922119,3.866309967,2024-06-04 15:24:49.676185
48.71648621,4.416715393,-7.938741302,3.178041229,2024-06-04 15:24:49.716486
48.75678621,5.022206268,-7.835905151,3.4611026,2024-06-04 15:24:49.756786
48.79708721,4.891078949,-8.014483795,3.262465668,2024-06-04 15:24:49.797087
48.83738821,5.171595612,-7.571105804,2.774929504,2024-06-04 15:24:49.837388
48.87768904,5.378166046,-8.183781738,3.268153839,2024-06-04 15:24:49.877689
48.91799004,4.928501129,-7.507937164,2.8970755,2024-06-04 15:24:49.917990
48.95829104,5.31215332,-7.914192352,3.436254272,2024-06-04 15:24:49.958291
48.99859204,4.843328247,-7.538773041,2.743494873,2024-06-04 15:24:49.998592
49.03889304,5.362748108,-8.217312012,3.057841187,2024-06-04 15:24:50.038893
49.07919404,4.88164856,-7.601492615,2.847079468,2024-06-04 15:24:50.079194
49.11949404,5.098547516,-7.929610291,3.456911316,2024-06-04 15:24:50.119494
49.15979504,4.976850586,-8.214916992,3.597768402,2024-06-04 15:24:50.159795
49.20009604,4.649331665,-7.26978241,3.364403687,2024-06-04 15:24:50.200096
49.24039704,5.010829926,-8.05370224,3.619173889,2024-06-04 15:24:50.240397
49.28069804,4.710554352,-7.611671448,3.637136536,2024-06-04 15:24:50.280698
49.32099904,4.733756104,-7.950417023,3.691024475,2024-06-04 15:24:50.320999
49.36130004,4.933889923,-7.665709076,3.375330963,2024-06-04 15:24:50.361300
49.40160004,4.905449066,-7.862549744,3.643423462,2024-06-04 15:24:50.401600
49.44190104,4.845872955,-7.91449173,3.195854187,2024-06-04 15:24:50.441901
49.48220204,5.049299927,-7.593559113,3.337310028,2024-06-04 15:24:50.482202
49.52250304,4.785997467,-8.641230469,3.624263306,2024-06-04 15:24:50.522503
49.56280404,8.009095001,-9.236392822,5.330565033,2024-06-04 15:24:50.562804
49.60310504,6.220763855,-5.407804413,3.60270813,2024-06-04 15:24:50.603105
49.64340604,11.07307343,-5.671555939,-4.758454742,2024-06-04 15:24:50.643406
49.68370604,13.97568741,-11.29551086,3.61558136,2024-06-04 15:24:50.683706
49.72400704,-1.778451691,-4.313729553,-0.3567082214,2024-06-04 15:24:50.724007
49.76430804,-15.38440796,-3.177442474,8.782835999,2024-06-04 15:24:50.764308
49.80460904,-1.212478638,-4.91787323,9.802515564,2024-06-04 15:24:50.804609
49.84491004,8.558452606,5.142256622,5.640121307,2024-06-04 15:24:50.844910
49.88521167,14.50827988,-1.353186035,6.306086426,2024-06-04 15:24:50.885212
49.92551267,16.9538942,-3.769910431,5.908213806,2024-06-04 15:24:50.925513
49.96581267,13.52228027,-0.7454498291,9.437125397,2024-06-04 15:24:50.965813
50.00611367,3.110980682,8.717272339,-0.9445358276,2024-06-04 15:24:51.006114
50.04641467,15.25747192,-25.19889862,11.35643417,2024-06-04 15:24:51.046415
50.08671567,3.065175934,10.68088898,2.911445618,2024-06-04 15:24:51.086716
50.12701667,-1.839674377,-12.76665161,9.611812134,2024-06-04 15:24:51.127017
50.16731767,2.826721802,-5.602998505,5.967789917,2024-06-04 15:24:51.167318
50.20761767,-0.05373825073,-11.09537704,4.99855545,2024-06-04 15:24:51.207618
50.24791867,4.262685699,-10.18122803,7.021448822,2024-06-04 15:24:51.247919
50.28821967,6.645730133,-16.201409,16.05845627,2024-06-04 15:24:51.288220
50.32852067,5.882317657,-13.26721069,12.75168274,2024-06-04 15:24:51.328521
50.36882167,5.526657257,-0.3079096985,-5.46318924,2024-06-04 15:24:51.368822
50.40912267,5.265450439,-7.868387604,4.127816162,2024-06-04 15:24:51.409123
50.44942267,3.843108215,-36.97775436,12.83356247,2024-06-04 15:24:51.449423
50.48972367,-2.21614151,-13.78767838,-5.660628662,2024-06-04 15:24:51.489724
50.53002467,-2.39636673,8.561745758,-7.724536743,2024-06-04 15:24:51.530025
50.57032567,1.836081848,6.40383316,5.736670532,2024-06-04 15:24:51.570326
50.61062667,17.35775436,-2.13306427,6.117628326,2024-06-04 15:24:51.610627
50.65092767,7.913443909,-7.301217041,10.33885025,2024-06-04 15:24:51.650928
50.69122767,9.025182037,0.757275238,12.17583023,2024-06-04 15:24:51.691228
50.73152867,10.25906616,-19.24083847,-17.09310471,2024-06-04 15:24:51.731529
50.77182967,-10.06761429,-24.98873566,-0.4055067444,2024-06-04 15:24:51.771830
50.81213067,4.402794342,-13.75729156,6.972350922,2024-06-04 15:24:51.812131
50.85243167,5.321883087,-10.34678375,4.685855713,2024-06-04 15:24:51.852432
50.89273142,3.488645325,-9.179062042,7.237299957,2024-06-04 15:24:51.892731
50.93303242,2.27227478,-8.833580475,7.202422485,2024-06-04 15:24:51.933032
50.97333342,6.426735535,-8.054750061,3.96196106,2024-06-04 15:24:51.973333
51.01363442,4.995411987,-8.969497833,3.729644165,2024-06-04 15:24:52.013634
51.05393542,4.372108154,-9.730066223,-1.221010895,2024-06-04 15:24:52.053935
51.09423542,7.783963165,-9.319619751,0.5304968262,2024-06-04 15:24:52.094235
51.13453642,5.088069305,-6.972650299,6.03290451,2024-06-04 15:24:52.134536
51.17483742,0.09280700684,-6.735842743,6.805447998,2024-06-04 15:24:52.174837
51.21513842,5.589227142,-3.769161987,4.025878143,2024-06-04 15:24:52.215138
51.25543942,4.369264069,-2.943778381,3.979324951,2024-06-04 15:24:52.255439
51.29573942,1.28941864,-9.304052124,1.490749969,2024-06-04 15:24:52.295739
51.33604042,5.446124725,-7.088209991,-1.341959381,2024-06-04 15:24:52.336040
51.37634142,7.347171478,-5.508694611,9.757159882,2024-06-04 15:24:52.376341
51.41664242,2.056872711,-11.23773102,2.53318222,2024-06-04 15:24:52.416642
51.45694342,5.680387573,-15.07844421,4.866080933,2024-06-04 15:24:52.456943
51.49724342,9.325008545,-10.13213013,-2.631378021,2024-06-04 15:24:52.497243
51.53754442,4.057312775,-14.78565308,3.486100616,2024-06-04 15:24:52.537544
51.57784542,-3.964805145,-20.49014053,3.965703278,2024-06-04 15:24:52.577845
51.61814642,9.26707901,-5.303770752,2.743195496,2024-06-04 15:24:52.618146
51.65844742,4.015549622,-2.673440552,3.239114227,2024-06-04 15:24:52.658447
51.69874742,1.217867432,-6.360124054,1.184636536,2024-06-04 15:24:52.698747
51.73904842,1.474583588,-3.779640198,-1.185235291,2024-06-04 15:24:52.739048
51.77934942,2.039209442,-1.391656036,-0.8294252014,2024-06-04 15:24:52.779349
51.81965042,6.982978821,-13.37693253,7.122039642,2024-06-04 15:24:52.819650
51.85995142,12.79763718,-10.7522905,-3.122057648,2024-06-04 15:24:52.859951
51.90025117,3.900438995,-6.840924225,7.818092194,2024-06-04 15:24:52.900251
51.94055217,2.137105865,-11.63919617,-3.781286774,2024-06-04 15:24:52.940552
51.98085317,5.403313751,-10.35396881,3.082839203,2024-06-04 15:24:52.980853
52.02115417,2.965333557,-8.61997467,3.281027069,2024-06-04 15:24:53.021154
52.06145417,4.544250183,-8.47372879,2.548749847,2024-06-04 15:24:53.061454
52.10175517,3.922592926,-9.409432983,1.584455109,2024-06-04 15:24:53.101755
52.14205617,1.999541931,-9.873917084,0.2830613708,2024-06-04 15:24:53.142056
52.18235717,4.128714294,-9.513616333,2.119292908,2024-06-04 15:24:53.182357
52.22265817,4.338877258,-8.692274323,0.8964857483,2024-06-04 15:24:53.222658
52.26295817,3.49388443,-9.082812195,-0.503253479,2024-06-04 15:24:53.262958
52.30325917,3.579356689,-9.904603271,0.7930508423,2024-06-04 15:24:53.303259
52.34356017,4.688101044,-9.921368408,4.139491882,2024-06-04 15:24:53.343560
52.38386117,6.198759613,-9.820029144,5.440137177,2024-06-04 15:24:53.383861
52.42416117,8.550070038,-8.927435303,2.309996338,2024-06-04 15:24:53.424161
52.46446217,6.933431854,-8.178392944,-5.381159821,2024-06-04 15:24:53.464462
52.50476317,6.184239807,-11.30913254,3.685186615,2024-06-04 15:24:53.504763
52.54506417,4.497547302,-8.697064362,1.798060913,2024-06-04 15:24:53.545064
52.58536417,4.0941362,-6.055806885,1.53041748,2024-06-04 15:24:53.585364
52.62566517,2.680026855,-4.750221863,0.9590556335,2024-06-04 15:24:53.625665
52.66596617,2.639012146,-2.724634094,2.264790344,2024-06-04 15:24:53.665966
52.70626717,4.708907776,-0.9470805359,3.476969604,2024-06-04 15:24:53.706267
52.74656717,8.51818634,-12.6208548,13.62601456,2024-06-04 15:24:53.746567
52.78686817,6.798562317,-9.09508667,-6.318061523,2024-06-04 15:24:53.786868
52.82716917,3.601660309,-10.21011795,1.71767807,2024-06-04 15:24:53.827169
52.86747046,0.6265969849,-9.526339874,-3.011587372,2024-06-04 15:24:53.867470
52.90777046,6.655759277,-7.151827698,2.791694641,2024-06-04 15:24:53.907770
52.94807146,5.451064453,-10.41369461,-0.4234693909,2024-06-04 15:24:53.948071
52.98837246,5.91480011,-6.856940918,2.164049835,2024-06-04 15:24:53.988372
53.02867346,4.288581848,-9.018895111,1.753453674,2024-06-04 15:24:54.028673
53.06897346,2.692600708,-9.321865082,0.4932243347,2024-06-04 15:24:54.068973
53.10927446,3.627107391,-9.267228699,1.157842255,2024-06-04 15:24:54.109274
53.14957546,3.927083588,-9.017547913,0.8304730225,2024-06-04 15:24:54.149575
53.18987646,4.239933014,-9.0283255,1.591640167,2024-06-04 15:24:54.189876
53.23017646,4.927303619,-8.737330627,1.452878723,2024-06-04 15:24:54.230176
53.27047746,5.910908203,-8.19411026,-0.3556604004,2024-06-04 15:24:54.270477
53.31077846,5.0629216,-7.989485779,0.0477507019,2024-06-04 15:24:54.310778
53.35107946,4.918921051,-8.710686035,0.005837860107,2024-06-04 15:24:54.351079
53.39137946,4.670886841,-8.487500153,-0.6767427063,2024-06-04 15:24:54.391379
53.43168046,4.188589783,-8.718619537,-0.3180885315,2024-06-04 15:24:54.431680
53.47198146,5.596711578,-8.085585938,0.2851570129,2024-06-04 15:24:54.471981
53.51228146,4.263434143,-8.192763062,0.5339396667,2024-06-04 15:24:54.512281
53.55258246,4.35624115,-9.872420197,0.9752220154,2024-06-04 15:24:54.552582
53.59288346,4.393962708,-8.443940735,0.5522016907,2024-06-04 15:24:54.592883
53.63318446,4.359085236,-9.090296631,1.076112213,2024-06-04 15:24:54.633184
53.67348446,4.962031403,-8.307723999,2.172582092,2024-06-04 15:24:54.673484
53.71378546,5.351371765,-8.204139404,3.103645935,2024-06-04 15:24:54.713785
53.75408646,6.201903076,-9.275611267,3.446882172,2024-06-04 15:24:54.754086
53.79438746,7.607180786,-10.36714142,3.823948059,2024-06-04 15:24:54.794387
53.83468746,5.922733612,-10.05983047,5.196443939,2024-06-04 15:24:54.834687
53.87498846,7.285499725,-6.014941864,-1.443598022,2024-06-04 15:24:54.874988
53.91528946,5.033881989,-7.528893585,2.840044098,2024-06-04 15:24:54.915289
53.95558946,3.78053833,-7.468569031,3.103196869,2024-06-04 15:24:54.955589
53.99589046,4.534670105,-3.911965027,2.255210266,2024-06-04 15:24:54.995890
54.03619146,2.577041016,-5.11561203,3.834575958,2024-06-04 15:24:55.036191
54.07649246,3.502266998,-5.056934052,4.899910583,2024-06-04 15:24:55.076492
54.11679246,7.69804184,-5.465883636,6.558910675,2024-06-04 15:24:55.116792
54.15709346,11.20165604,-16.03660172,9.412277069,2024-06-04 15:24:55.157093
54.19739446,3.943699036,-4.922363892,-2.304906921,2024-06-04 15:24:55.197394
54.23769446,1.923350372,-9.001381531,1.380279694,2024-06-04 15:24:55.237694
54.27799546,3.639381866,-12.21639587,0.7622149658,2024-06-04 15:24:55.277995
54.31829646,4.027075653,-9.704469452,-0.8785231018,2024-06-04 15:24:55.318296
54.35859646,6.759493561,-6.380032654,3.323239288,2024-06-04 15:24:55.358596
54.39889746,3.810625763,-9.31617691,-0.1178050232,2024-06-04 15:24:55.398897
54.43919846,3.540737,-9.172625427,2.08740921,2024-06-04 15:24:55.439198
54.47949946,3.609593811,-9.05062912,-0.103434906,2024-06-04 15:24:55.479499
54.51979946,4.659809875,-8.768016815,3.445684662,2024-06-04 15:24:55.519799
54.56010046,5.2115625,-7.914042664,1.848805389,2024-06-04 15:24:55.560100
54.60040146,8.554860077,-2.716251526,2.88539978,2024-06-04 15:24:55.600401
54.64070146,8.237669678,-12.82128799,8.453520813,2024-06-04 15:24:55.640701
54.68100246,5.170098724,-14.19393356,6.057902527,2024-06-04 15:24:55.681002
54.72130346,3.451372833,-3.028651886,1.796414337,2024-06-04 15:24:55.721303
54.76160346,-0.1333726501,-2.662064209,4.485572205,2024-06-04 15:24:55.761603
54.80190446,3.633843384,-2.951262817,4.639751587,2024-06-04 15:24:55.801904
54.84220546,6.404282227,1.638792114,7.80911087,2024-06-04 15:24:55.842205
54.88250654,11.31467102,-7.327861633,2.93105484,2024-06-04 15:24:55.882507
54.92280754,2.630629578,-19.89827133,17.80143173,2024-06-04 15:24:55.922808
54.96310854,3.535048828,-8.143066406,-2.687361603,2024-06-04 15:24:55.963109
55.00340854,0.5948629761,-8.734187164,-5.241200867,2024-06-04 15:24:56.003409
55.04370954,11.6480278,-11.17306549,-3.295995941,2024-06-04 15:24:56.043710
55.08401054,6.735393677,-5.784271545,4.763843536,2024-06-04 15:24:56.084011
55.12431054,2.307152252,-2.498304749,6.325246582,2024-06-04 15:24:56.124311
55.16461154,0.7652087402,-2.464475098,6.900799713,2024-06-04 15:24:56.164612
55.20491254,3.251837769,-1.765728149,0.8783734131,2024-06-04 15:24:56.204913
55.24521254,-5.638325043,-8.875193939,1.782343597,2024-06-04 15:24:56.245213
55.28551354,37.90926727,-38.61130737,2.809806976,2024-06-04 15:24:56.285514
55.32581454,8.945547638,10.97562607,15.24025772,2024-06-04 15:24:56.325815
55.36611454,-1.387015686,-13.03519318,7.299570465,2024-06-04 15:24:56.366115
55.40641554,7.992928619,-17.65922745,6.484964447,2024-06-04 15:24:56.406416
55.44671654,7.482939148,-1.066232758,2.78016861,2024-06-04 15:24:56.446717
55.48701654,4.292773132,-5.228776703,3.993246002,2024-06-04 15:24:56.487017
55.52731754,4.152814178,-10.34513718,3.937412109,2024-06-04 15:24:56.527318
55.56761854,6.478228455,-12.76440628,7.541018372,2024-06-04 15:24:56.567619
55.60791854,10.23915756,-6.228697357,3.8565802,2024-06-04 15:24:56.607919
55.64821954,-4.499942322,-2.54605545,-1.484762421,2024-06-04 15:24:56.648220
55.68852054,1.02970871,4.993765411,1.128802643,2024-06-04 15:24:56.688521
55.72882054,6.214476929,-8.511749725,1.024319916,2024-06-04 15:24:56.728821
55.76912154,29.9926799,-29.11206116,30.76836685,2024-06-04 15:24:56.769122
55.80942254,-2.856360168,-0.2219883728,-7.97885788,2024-06-04 15:24:56.809423
55.84972254,5.160219269,-5.707331543,-5.383854218,2024-06-04 15:24:56.849723
55.89002229,6.295308838,-17.56612106,-3.889811096,2024-06-04 15:24:56.890022
55.93032329,-2.133812714,-7.996820526,-5.063969421,2024-06-04 15:24:56.930323
55.97062329,16.39480682,-4.321513367,4.65337326,2024-06-04 15:24:56.970623
56.01092429,6.133794708,-5.540278931,2.448907471,2024-06-04 15:24:57.010924
56.05122529,-2.611170044,-9.710457001,4.7470784,2024-06-04 15:24:57.051225
56.09152529,-3.712130585,-10.24813889,14.82532059,2024-06-04 15:24:57.091525
56.13182629,6.904092865,-7.349117432,-3.660188599,2024-06-04 15:24:57.131826
56.17212629,13.42932358,-10.63493454,4.463418274,2024-06-04 15:24:57.172126
56.21242729,7.033573608,-14.81499207,9.401798859,2024-06-04 15:24:57.212427
56.25272829,-1.870360565,-2.629282379,7.05333252,2024-06-04 15:24:57.252728
56.29302829,1.092577972,-5.11097168,4.180207214,2024-06-04 15:24:57.293028
56.33332929,6.212530975,5.334756317,2.547851715,2024-06-04 15:24:57.333329
56.37363029,-0.4038601685,0.4180805969,1.340761871,2024-06-04 15:24:57.373630
56.41393029,10.59062668,-25.19979675,3.379671936,2024-06-04 15:24:57.413930
56.45423129,-1.668729858,-15.82030151,0.2043251038,2024-06-04 15:24:57.454231
56.49453129,12.37746094,-2.953657837,2.986888733,2024-06-04 15:24:57.494531
56.53483229,2.979853363,-7.779023438,2.649340668,2024-06-04 15:24:57.534832
56.57513329,-2.293081512,-10.38136185,2.556234283,2024-06-04 15:24:57.575133
56.61543329,-0.6147715759,-9.648036804,4.650379486,2024-06-04 15:24:57.615433
56.65573429,12.78042297,-8.190368042,9.241033173,2024-06-04 15:24:57.655734
56.69603529,15.95936234,-11.26677063,-0.06750961304,2024-06-04 15:24:57.696035
56.73633529,-4.59259964,7.014263763,8.883726196,2024-06-04 15:24:57.736335
56.77663629,1.729503479,3.231031036,-0.0426612854,2024-06-04 15:24:57.776636
56.81693629,1.820514221,1.57966507,1.727108459,2024-06-04 15:24:57.816936
56.85723729,8.784632263,-9.221723328,36.79902603,2024-06-04 15:24:57.857237
56.89753817,17.32332596,-5.34149231,9.849517822,2024-06-04 15:24:57.897538
56.93783817,-10.61577438,-1.493444366,4.656217346,2024-06-04 15:24:57.937838
56.97813917,10.76336746,-9.489965515,6.562802582,2024-06-04 15:24:57.978139
57.01843917,4.359534302,-4.247716827,6.304739227,2024-06-04 15:24:58.018439
57.05874017,4.230352936,-3.679648132,6.720724182,2024-06-04 15:24:58.058740
57.09904117,6.937772827,-5.219196625,10.86964645,2024-06-04 15:24:58.099041
57.13934117,4.192332001,-4.51296524,7.293732605,2024-06-04 15:24:58.139341
57.17964217,3.597319336,-2.778522034,7.595056,2024-06-04 15:24:58.179642
57.21994217,3.488944702,-4.352648621,7.059619446,2024-06-04 15:24:58.219942
57.26024317,3.169359283,-6.177803192,6.826105042,2024-06-04 15:24:58.260243
57.30054417,1.880240021,-3.324436798,6.427483978,2024-06-04 15:24:58.300544
57.34084417,3.369642792,-4.537364502,8.875643005,2024-06-04 15:24:58.340844
57.38114517,5.647456055,-4.504133606,7.988437958,2024-06-04 15:24:58.381145
57.42144517,5.523513794,-5.643264771,8.500373383,2024-06-04 15:24:58.421445
57.46174617,3.871998138,-6.107599182,7.046446838,2024-06-04 15:24:58.461746
57.50204617,5.603148193,-3.858825531,4.882247314,2024-06-04 15:24:58.502046
57.54234717,0.1490899658,-1.786834259,7.824229431,2024-06-04 15:24:58.542347
57.58264717,-0.02409988403,-3.650907898,13.64053436,2024-06-04 15:24:58.582647
57.62294817,2.779270477,-1.437011719,7.618557129,2024-06-04 15:24:58.622948
57.66324917,1.691632233,-4.333488464,8.952882385,2024-06-04 15:24:58.663249
57.70354917,3.803590393,-4.947212219,6.822213135,2024-06-04 15:24:58.703549
57.74385017,4.905,-4.884043579,8.812025299,2024-06-04 15:24:58.743850
57.78415017,3.811823273,-3.44358902,9.847871246,2024-06-04 15:24:58.784150
57.82445117,1.826801147,-3.837120667,11.50717072,2024-06-04 15:24:58.824451
57.86475117,4.014950867,-1.984273682,10.34603531,2024-06-04 15:24:58.864751
57.90505254,3.320245514,-4.022285614,8.860973511,2024-06-04 15:24:58.905053
57.94535354,4.410278778,-3.66827179,8.992849274,2024-06-04 15:24:58.945354
57.98565354,4.428840179,-3.592678986,7.223528595,2024-06-04 15:24:58.985654
58.02595454,4.538112946,-3.892655182,6.700665894,2024-06-04 15:24:59.025955
58.06625454,4.769082642,-4.020639038,6.638245697,2024-06-04 15:24:59.066255
58.10655554,4.117936707,-4.74588089,6.555916901,2024-06-04 15:24:59.106556
58.14685554,6.004313965,-4.187242584,6.60276947,2024-06-04 15:24:59.146856
58.18715654,5.387746124,-5.105582886,6.285579071,2024-06-04 15:24:59.187157
58.22745654,5.466781769,-4.434827728,6.177054749,2024-06-04 15:24:59.227457
58.26775754,4.014651489,-5.574557648,6.468648376,2024-06-04 15:24:59.267758
58.30805754,5.070705414,-5.636229401,6.005810852,2024-06-04 15:24:59.308058
58.34835854,4.875511322,-5.463338928,6.396947479,2024-06-04 15:24:59.348359
58.38865954,4.950505371,-5.862858124,6.132896576,2024-06-04 15:24:59.388660
58.42895954,5.363496552,-5.804629211,5.625302124,2024-06-04 15:24:59.428960
58.46926054,6.415359192,-4.448449402,6.889872437,2024-06-04 15:24:59.469261
58.50956054,5.619613953,-5.691614227,5.427263947,2024-06-04 15:24:59.509561
58.54986154,6.298302612,-5.704038391,4.922812958,2024-06-04 15:24:59.549862
58.59016154,6.121819611,-4.198918304,5.207820282,2024-06-04 15:24:59.590162
58.63046254,5.92527832,-4.094285889,4.759801941,2024-06-04 15:24:59.630463
58.67076254,6.008804626,-4.400399323,6.028413849,2024-06-04 15:24:59.670763
58.71106354,6.854994965,-3.614982605,7.855065308,2024-06-04 15:24:59.711064
58.75136354,9.186247101,-3.627855835,8.640482025,2024-06-04 15:24:59.751364
58.79166454,8.65515152,-2.798730011,7.952063599,2024-06-04 15:24:59.791665
58.83196454,6.702312469,-2.683619385,6.350394287,2024-06-04 15:24:59.831965
58.87226471,4.741090851,-6.281088409,3.063379669,2024-06-04 15:24:59.872265
58.91256471,6.77715683,-7.162904663,2.777174835,2024-06-04 15:24:59.912565
58.95286571,4.444108429,-8.707093506,1.836231537,2024-06-04 15:24:59.952866
58.99316671,5.689069519,-8.98746048,2.336790619,2024-06-04 15:24:59.993167
59.03346671,4.105512543,-9.585167542,1.25783432,2024-06-04 15:25:00.033467
59.07376771,3.572920074,-9.832153931,0.7771838379,2024-06-04 15:25:00.073768
59.11406771,3.9362146,-8.935817871,0.9849517822,2024-06-04 15:25:00.114068
59.15436871,5.180427246,-8.51938385,1.053359528,2024-06-04 15:25:00.154369
59.19466871,4.679718475,-7.943231964,1.647773438,2024-06-04 15:25:00.194669
59.23496971,3.643124084,-8.127049713,1.30229187,2024-06-04 15:25:00.234970
59.27526971,2.81399826,-9.159153442,1.364861755,2024-06-04 15:25:00.275270
59.31557071,3.182831268,-9.398505707,3.049608307,2024-06-04 15:25:00.315571
59.35587071,2.891537018,-9.160051575,2.884501648,2024-06-04 15:25:00.355871
59.39617171,3.501967621,-8.78388382,1.712588654,2024-06-04 15:25:00.396172
59.43647171,3.635789337,-8.293503571,0.8898994446,2024-06-04 15:25:00.436472
59.47677271,4.183500366,-10.06387207,0.9937834167,2024-06-04 15:25:00.476773
59.51707271,2.208058319,-12.64181122,-1.252744904,2024-06-04 15:25:00.517073
59.55737371,5.132975922,-10.78357544,0.7057823181,2024-06-04 15:25:00.557374
59.59767371,6.505920868,-8.053253174,0.9815089417,2024-06-04 15:25:00.597674
59.63797471,6.674620056,-9.130263519,-0.02305206299,2024-06-04 15:25:00.637975
59.67827471,2.503843231,-10.90197922,0.1118174744,2024-06-04 15:25:00.678275
59.71857571,2.263443146,-11.3308374,2.365830231,2024-06-04 15:25:00.718576
59.75887571,5.068909149,-6.201154633,1.495240631,2024-06-04 15:25:00.758876
59.79917671,4.831053772,-4.911885681,0.7478448486,2024-06-04 15:25:00.799177
59.83947671,3.658991089,-5.904172211,2.019151154,2024-06-04 15:25:00.839477
59.87977817,3.953129425,-4.737049255,2.175426178,2024-06-04 15:25:00.879778
59.92007817,4.329596558,-5.788013763,3.392844543,2024-06-04 15:25:00.920078
59.96037917,7.183412018,-17.25731323,4.157454529,2024-06-04 15:25:00.960379
60.00067917,9.214089203,-2.971321106,-2.936443634,2024-06-04 15:25:01.000679
60.04098017,6.100264435,-7.194189606,3.268303528,2024-06-04 15:25:01.040980
60.08128017,-0.07005432129,-12.32941086,-2.15641571,2024-06-04 15:25:01.081280
60.12158117,5.227279816,-8.974138184,5.524561615,2024-06-04 15:25:01.121581
60.16188117,2.870580597,-10.03019211,-1.539698181,2024-06-04 15:25:01.161881
60.20218217,5.352868652,-9.684261475,0.7340734863,2024-06-04 15:25:01.202182
60.24248217,4.163891144,-8.559650116,0.452359314,2024-06-04 15:25:01.242482
60.28278317,2.816692657,-9.658365326,1.556463318,2024-06-04 15:25:01.282783
60.32308317,3.383264465,-9.09972702,0.6117778015,2024-06-04 15:25:01.323083
60.36338417,3.859274597,-8.94644577,1.21921463,2024-06-04 15:25:01.363384
60.40368417,3.717519379,-8.97219223,0.6450086975,2024-06-04 15:25:01.403684
60.44398517,3.817062378,-9.069040833,0.4902305603,2024-06-04 15:25:01.443985
60.48428517,3.793710938,-9.153914337,0.4824467468,2024-06-04 15:25:01.484285
60.52458617,3.439846802,-9.002429352,0.2335144043,2024-06-04 15:25:01.524586
60.56488617,2.913990326,-9.661508789,1.022523651,2024-06-04 15:25:01.564886
60.60518717,2.798280945,-9.137448578,0.06840774536,2024-06-04 15:25:01.605187
60.64548717,2.973865814,-9.474697266,0.5553451538,2024-06-04 15:25:01.645487
60.68578717,1.64747406,-9.218579865,-1.566043396,2024-06-04 15:25:01.685787
60.72608817,2.936743011,-8.430618439,-1.115779724,2024-06-04 15:25:01.726088
60.76638817,4.253704376,-8.128995667,-0.08202941895,2024-06-04 15:25:01.766388
60.80668917,4.4006987,-8.526119843,0.8134085083,2024-06-04 15:25:01.806689
60.84698917,4.442461853,-9.521849213,3.543880463,2024-06-04 15:25:01.846989
60.88729017,1.519789581,-8.60126358,5.519771576,2024-06-04 15:25:01.887290
60.92759017,6.345155182,-9.675729218,4.662504272,2024-06-04 15:25:01.927590
60.96789117,8.934171295,-17.98225571,7.844138031,2024-06-04 15:25:01.967891
61.00819117,-0.3477268982,-13.48201401,-2.812201996,2024-06-04 15:25:02.008191
61.04849217,8.094866638,-9.644743652,2.168241119,2024-06-04 15:25:02.048492
61.08879217,5.821693726,-9.016200714,4.634063416,2024-06-04 15:25:02.088792
61.12909317,3.72560257,-3.795207825,-0.450712738,2024-06-04 15:25:02.129093
61.16939317,1.021924896,-3.489094391,0.2013313293,2024-06-04 15:25:02.169393
61.20969317,1.639839935,-3.063529358,2.955005035,2024-06-04 15:25:02.209693
61.24999417,5.21395752,-6.142776031,6.047124939,2024-06-04 15:25:02.249994
61.29029417,4.39950119,-4.052672424,8.407865753,2024-06-04 15:25:02.290294
61.33059517,3.059338074,-0.1299298096,8.531957703,2024-06-04 15:25:02.330595
61.37089517,5.646707611,-4.402045898,11.00257004,2024-06-04 15:25:02.370895
61.41119617,5.165458374,3.767964478,2.545905762,2024-06-04 15:25:02.411196
61.45149617,17.7713443,-33.22041779,27.27642838,2024-06-04 15:25:02.451496
61.49179617,6.863377533,1.274000702,9.678273926,2024-06-04 15:25:02.491796
61.53209717,2.887345734,-9.518406372,1.261875916,2024-06-04 15:25:02.532097
61.57239717,8.39424408,-14.51531525,1.023571472,2024-06-04 15:25:02.572397
61.61269817,0.8092172241,-33.32355331,13.27574295,2024-06-04 15:25:02.612698
61.65299817,11.73664352,-0.3674858093,-4.508624268,2024-06-04 15:25:02.652998
61.69329917,-1.160836029,0.1176553345,-3.0855336,2024-06-04 15:25:02.693299
61.73359917,-2.825224915,-0.1276844788,-4.464466095,2024-06-04 15:25:02.733599
61.77390017,-1.930535431,0.9650431824,-1.106199646,2024-06-04 15:25:02.773900
61.81420017,-1.398392029,2.873873749,2.754272461,2024-06-04 15:25:02.814200
61.85450017,-4.853806458,-2.69469635,-17.93270874,2024-06-04 15:25:02.854500
61.89480146,-1.023571472,-9.983638916,0.1950444031,2024-06-04 15:25:02.894801
61.93510146,26.88499237,-62.20419571,6.824159088,2024-06-04 15:25:02.935101
61.97540246,13.02411621,-15.86625595,5.891298981,2024-06-04 15:25:02.975402
62.01570246,10.04052063,-7.541916504,-5.440436554,2024-06-04 15:25:03.015702
62.05600346,4.365521851,-12.08092758,-4.972210236,2024-06-04 15:25:03.056003
62.09630346,1.434616699,-5.371579742,-1.077309723,2024-06-04 15:25:03.096303
62.13660346,-4.640500031,-1.454525299,-1.698068848,2024-06-04 15:25:03.136603
62.17690446,-2.586920471,-0.3439846802,-3.106340332,2024-06-04 15:25:03.176904
62.21720446,5.342390442,7.573051758,11.57258469,2024-06-04 15:25:03.217204
62.25750546,13.94500122,-4.606820068,28.42379242,2024-06-04 15:25:03.257505
62.29780546,19.50473969,-30.08892975,-26.87690918,2024-06-04 15:25:03.297805
62.33810546,-13.45791412,-21.13829269,-9.981543274,2024-06-04 15:25:03.338105
62.37840646,2.607876892,2.914589081,-2.783910828,2024-06-04 15:25:03.378406
62.41870646,8.125702515,-19.81699036,5.247936859,2024-06-04 15:25:03.418706
62.45900746,3.896247711,-5.595065002,1.803599396,2024-06-04 15:25:03.459007
62.49930746,3.003504181,-5.867348785,2.982098694,2024-06-04 15:25:03.499307
62.53960846,3.203638,-9.991572418,5.789959717,2024-06-04 15:25:03.539608
62.57990846,2.943479004,-8.331374817,2.168540497,2024-06-04 15:25:03.579908
62.62020846,8.440348206,-8.999285889,13.4356105,2024-06-04 15:25:03.620208
62.66050946,5.784421234,-8.232879639,-4.082610168,2024-06-04 15:25:03.660509
62.70080946,4.996908875,-0.6750961304,5.381159821,2024-06-04 15:25:03.700809
62.74111046,3.117716675,-5.068160706,-1.44150238,2024-06-04 15:25:03.741110
62.78141046,2.937790833,-5.05244339,8.748557281,2024-06-04 15:25:03.781410
62.82171046,21.60472275,-20.04346939,8.23153244,2024-06-04 15:25:03.821710
62.86201146,9.879455566,-0.8116122437,4.040697327,2024-06-04 15:25:03.862011
62.90231154,-6.524781647,-7.240293732,0.8523275757,2024-06-04 15:25:03.902312
62.94261154,-0.8830137634,-13.82435211,-0.4429289246,2024-06-04 15:25:03.942612
62.98291254,7.699239349,-4.64289505,5.328469391,2024-06-04 15:25:03.982913
63.02321254,6.965315552,-6.460565186,2.990930328,2024-06-04 15:25:04.023213
63.06351354,3.361858978,-12.52220993,1.835183716,2024-06-04 15:25:04.063514
63.10381354,5.904321899,-7.441924438,3.47397583,2024-06-04 15:25:04.103814
63.14411354,2.706521759,-6.875652008,0.3439846802,2024-06-04 15:25:04.144114
63.18441454,3.363056488,-9.403146057,3.750301208,2024-06-04 15:25:04.184415
