Time (s),Gyroscope x (rad/s),Gyroscope y (rad/s),Gyroscope z (rad/s),Datetime
0.04396979167,-1.269497991,-0.2254931778,0.1775019169,2024-06-04 15:24:01.043970
0.08427079167,0.03988997638,0.05169139057,-0.3580619693,2024-06-04 15:24:01.084271
0.1245707917,0.2111026794,-0.4236741364,0.2862499058,2024-06-04 15:24:01.124571
0.1648717917,-0.8033301234,-0.7611836791,0.3409804702,2024-06-04 15:24:01.164872
0.2051717917,-1.173045754,-0.3891117275,0.1071826518,2024-06-04 15:24:01.205172
0.2454727917,-0.5435008407,-0.5794109702,0.3977451026,2024-06-04 15:24:01.245473
0.2857727917,-1.145615697,-1.10572648,0.5430842042,2024-06-04 15:24:01.285773
0.3260737917,-1.859664559,-0.08898313344,0.007717106491,2024-06-04 15:24:01.326074
0.3663747917,-1.005852938,-0.5841537118,-0.05910702795,2024-06-04 15:24:01.366375
0.4066747917,-1.440399885,-1.876328349,0.2490099669,2024-06-04 15:24:01.406675
0.4469757917,0.3985682428,-0.09954047203,-0.2684788108,2024-06-04 15:24:01.446976
0.4872757917,0.6349175572,-0.1551821381,-0.1118149981,2024-06-04 15:24:01.487276
0.5275767917,0.5323440433,0.1810616553,-0.315687418,2024-06-04 15:24:01.527577
0.5678767917,-0.9816669822,1.044455171,0.25451231,2024-06-04 15:24:01.567877
0.6081777917,-1.820077062,2.429367065,0.02127362229,2024-06-04 15:24:01.608178
0.6484777917,-0.8150036931,0.708658576,0.03206457198,2024-06-04 15:24:01.648478
0.6887787917,-1.079156876,3.909065962,1.545238733,2024-06-04 15:24:01.688779
0.7290797917,-4.320899487,7.800834179,1.102974057,2024-06-04 15:24:01.729080
0.7693797917,-2.236393452,3.738334179,-0.5563873053,2024-06-04 15:24:01.769380
0.8096807917,-2.349330664,3.884602785,-0.4680424333,2024-06-04 15:24:01.809681
0.8499800417,-1.88140595,-3.063086987,0.08566138148,2024-06-04 15:24:01.849980
0.8902810417,-2.224375725,-1.818296432,0.8180093765,2024-06-04 15:24:01.890281
0.9305820417,-3.303174734,0.0376816988,0.6515319943,2024-06-04 15:24:01.930582
0.9708820417,-3.849366665,-0.2779861689,1.872475386,2024-06-04 15:24:01.970882
1.011183042,-4.060934544,1.166045904,1.575522065,2024-06-04 15:24:02.011183
1.051483042,-5.192788601,1.53197515,1.17229557,2024-06-04 15:24:02.051483
1.091784042,-4.204020977,-0.2708130479,0.7076739073,2024-06-04 15:24:02.091784
1.132085042,-3.302862883,-1.293131709,-0.1859622896,2024-06-04 15:24:02.132085
1.172385042,-1.711841702,-0.05055012554,-1.674001932,2024-06-04 15:24:02.172385
1.212686042,0.1696129292,0.3792397082,-3.419774532,2024-06-04 15:24:02.212686
1.252986042,0.9233979583,2.182269096,-2.595658541,2024-06-04 15:24:02.252986
1.293287042,0.1976522505,3.637819767,-0.7598183751,2024-06-04 15:24:02.293287
1.333588042,0.4455325902,4.010615826,-1.21738863,2024-06-04 15:24:02.333588
1.373888042,0.1125609875,3.981024265,0.1776075363,2024-06-04 15:24:02.373888
1.414189042,-1.53037858,-0.9745054841,0.7937526107,2024-06-04 15:24:02.414189
1.454490042,-0.6723309755,0.1653509438,0.5553593636,2024-06-04 15:24:02.454490
1.494790042,-0.9711129665,1.423749924,1.366663218,2024-06-04 15:24:02.494790
1.535091042,0.93125844,2.321229696,2.44285512,2024-06-04 15:24:02.535091
1.575392042,-0.6163206697,1.896333814,1.523387313,2024-06-04 15:24:02.575392
1.615692042,-0.7860607505,-0.1520014256,0.2967816591,2024-06-04 15:24:02.615692
1.655993042,-0.3864677548,-1.384233236,-0.04071052,2024-06-04 15:24:02.655993
1.696293042,0.6910800934,-0.7066985369,-0.3690903187,2024-06-04 15:24:02.696293
1.736594042,0.7296571136,1.776914954,-1.873976111,2024-06-04 15:24:02.736594
1.776895042,0.6784005165,0.06711092591,-3.794780493,2024-06-04 15:24:02.776895
1.817194833,-1.211837292,-3.923742771,2.629701853,2024-06-04 15:24:02.817195
1.857495833,2.293246746,0.5290162563,-0.9367511272,2024-06-04 15:24:02.857496
1.897796833,0.7789257169,-0.2575879097,-0.5955367684,2024-06-04 15:24:02.897797
1.938096833,0.8290836811,0.598610878,-0.1795822978,2024-06-04 15:24:02.938097
1.978397833,1.271688342,0.6156336665,-0.03357356042,2024-06-04 15:24:02.978398
2.018698833,-0.6054012179,-2.612890244,-2.371260643,2024-06-04 15:24:03.018699
2.058998833,-2.182195187,0.5755721331,-2.998485804,2024-06-04 15:24:03.058999
2.099299833,0.6277379394,-0.8631899953,-0.6293017864,2024-06-04 15:24:03.099300
2.139600833,-1.127095699,0.809037447,-1.609477758,2024-06-04 15:24:03.139601
2.179900833,-0.3891980648,0.4675796032,-2.611194134,2024-06-04 15:24:03.179901
2.220201833,-1.047530174,-3.092619419,-2.569592237,2024-06-04 15:24:03.220202
2.260502833,-1.133491158,-6.97049427,-3.476194859,2024-06-04 15:24:03.260503
2.300803833,-0.02102623321,0.350154072,-2.371427774,2024-06-04 15:24:03.300804
2.341103833,0.6017796993,-0.1892682612,-1.740953803,2024-06-04 15:24:03.341104
2.381404833,0.02302800864,-0.3401902914,-0.2260198146,2024-06-04 15:24:03.381405
2.421705833,0.06554757059,0.1013189927,0.3330701292,2024-06-04 15:24:03.421706
2.462005833,-0.110079512,-0.06625495851,0.6055970788,2024-06-04 15:24:03.462006
2.502306833,0.06614342332,-0.4306558669,0.2879423499,2024-06-04 15:24:03.502307
2.542607833,0.2077376395,-0.6671442986,0.01067223772,2024-06-04 15:24:03.542608
2.582907833,0.2469158024,-0.8062945604,-0.09156175703,2024-06-04 15:24:03.582908
2.623208833,0.3956796527,-0.6562172174,-0.01537494268,2024-06-04 15:24:03.623209
2.663509833,4.662579158e-05,-0.862782836,0.4082486928,2024-06-04 15:24:03.663510
2.703810833,0.04657368734,-1.279712677,0.4482384324,2024-06-04 15:24:03.703811
2.744110833,0.04712612182,-1.261341214,0.3486952186,2024-06-04 15:24:03.744111
2.784411833,0.009738204069,-0.7880595922,0.1751192212,2024-06-04 15:24:03.784412
2.824712792,-0.1657192409,-0.04637011141,0.03815946355,2024-06-04 15:24:03.824713
2.865013792,-0.1050571203,0.8994995952,-0.1996477395,2024-06-04 15:24:03.865014
2.905313792,0.1916708499,1.148254633,-0.1911261082,2024-06-04 15:24:03.905314
2.945614792,0.2828842103,1.11395514,-0.1036304757,2024-06-04 15:24:03.945615
2.985915792,0.07372221351,1.149293184,-0.06610026211,2024-06-04 15:24:03.985916
3.026216792,0.04031072557,1.057728052,-0.1028543562,2024-06-04 15:24:04.026217
3.066516792,-0.03560437635,0.5374232531,-0.08033753932,2024-06-04 15:24:04.066517
3.106817792,-0.3430675864,-0.4668882787,-0.3066880405,2024-06-04 15:24:04.106818
3.147118792,0.3130571842,0.1347694844,-0.7791453004,2024-06-04 15:24:04.147119
3.187419792,2.687305927,0.7282124162,-0.3455351293,2024-06-04 15:24:04.187420
3.227719792,0.9876372814,3.761397362,0.02274790779,2024-06-04 15:24:04.227720
3.268020792,0.7496956587,2.401587009,-0.1933500767,2024-06-04 15:24:04.268021
3.308321792,0.4884751737,-0.7280117273,-0.3142972887,2024-06-04 15:24:04.308322
3.348622792,0.7354438305,-0.02145870589,-0.004428603221,2024-06-04 15:24:04.348623
3.388922792,-0.01648180932,-0.1919206977,-0.07610757649,2024-06-04 15:24:04.388923
3.429223792,-0.8232671022,-0.8369695544,-0.2223303318,2024-06-04 15:24:04.429224
3.469524792,-1.209349513,-1.192075372,-0.2870221436,2024-06-04 15:24:04.469525
3.509825792,-1.488881946,-1.036046028,-0.6321011782,2024-06-04 15:24:04.509826
3.550125792,-1.955698609,-0.740390718,-0.6730989814,2024-06-04 15:24:04.550126
3.590426792,-0.9917717576,-1.596284509,-0.5565366745,2024-06-04 15:24:04.590427
3.630727792,1.103371382,-0.7259786725,-0.2095190436,2024-06-04 15:24:04.630728
3.671028792,-0.6969853044,1.115021467,0.1308809519,2024-06-04 15:24:04.671029
3.711329792,1.060782552,-1.36258328,-0.3439960778,2024-06-04 15:24:04.711330
3.751629792,-0.2909417748,-1.233412147,0.732183516,2024-06-04 15:24:04.751630
3.791930792,0.2325001955,-1.536359787,0.8083981872,2024-06-04 15:24:04.791931
3.832232667,0.7997630835,-1.863689423,0.258702755,2024-06-04 15:24:04.832233
3.872533667,-0.1334446371,-0.2905467153,0.07839085162,2024-06-04 15:24:04.872534
3.912833667,-0.1973615587,0.1683854461,-0.02068219706,2024-06-04 15:24:04.912834
3.953134667,0.08610597253,0.1357356757,-0.08904810995,2024-06-04 15:24:04.953135
3.993435667,0.4021894336,0.5266233683,0.1649212688,2024-06-04 15:24:04.993436
4.033736667,0.8593484759,1.51684618,0.284024626,2024-06-04 15:24:05.033737
4.074037667,1.570856452,1.536803484,0.2886484861,2024-06-04 15:24:05.074038
4.114338667,2.671691179,0.2517448664,0.1720742285,2024-06-04 15:24:05.114339
4.154638667,2.020322323,-0.01361189783,-0.2363945395,2024-06-04 15:24:05.154639
4.194939667,0.2543022037,-0.4372622073,-0.3062638938,2024-06-04 15:24:05.194940
4.235240667,-0.4849688709,-0.3565113842,0.08706742525,2024-06-04 15:24:05.235241
4.275541667,-0.6929317713,-0.4635920823,0.03719332814,2024-06-04 15:24:05.275542
4.315842667,-1.349456191,-0.8740446568,-0.1618703753,2024-06-04 15:24:05.315843
4.356142667,-0.7199961543,-1.249204278,-0.628138423,2024-06-04 15:24:05.356143
4.396443667,-0.3586658537,-0.8787928224,-0.3831340969,2024-06-04 15:24:05.396444
4.436744667,-0.5127801299,0.4012973607,-0.6306954622,2024-06-04 15:24:05.436745
4.477045667,0.4236272275,0.3216447234,-0.8134809136,2024-06-04 15:24:05.477046
4.517346667,0.9198822379,0.6220804453,0.1619737744,2024-06-04 15:24:05.517347
4.557646667,-0.5575994849,1.367008567,-0.2764116228,2024-06-04 15:24:05.557647
4.597947667,0.2364135981,-0.004854092374,0.442653358,2024-06-04 15:24:05.597948
4.638248667,1.015568972,-0.9362400174,0.5724230409,2024-06-04 15:24:05.638249
4.678549667,-0.04271041974,0.4858773053,0.3705831766,2024-06-04 15:24:05.678550
4.718850667,0.8632203341,-0.5331351161,0.1568929404,2024-06-04 15:24:05.718851
4.759151667,-0.1587478071,0.4989462793,0.2088951319,2024-06-04 15:24:05.759152
4.799452667,0.5428980589,-0.2679046392,0.2534705102,2024-06-04 15:24:05.799453
4.839751917,0.3123093843,-0.1640017629,0.01158483606,2024-06-04 15:24:05.839752
4.880052917,-0.009897087701,-0.03835391253,0.289291203,2024-06-04 15:24:05.880053
4.920353917,-0.1709901243,-0.235098213,0.3084758222,2024-06-04 15:24:05.920354
4.960654917,0.09517268836,-0.3514433801,0.08533386141,2024-06-04 15:24:05.960655
5.000955917,-0.2470430136,0.3564652205,-0.02203568816,2024-06-04 15:24:06.000956
5.041256917,-0.333319366,0.3624936044,-0.07478749007,2024-06-04 15:24:06.041257
5.081557917,-0.3138650358,-0.1285804808,-0.07601900399,2024-06-04 15:24:06.081558
5.121857917,-0.2170021087,-0.1388429403,-0.148308903,2024-06-04 15:24:06.121858
5.162158917,-0.6495654583,0.7425967455,-0.4147469103,2024-06-04 15:24:06.162159
5.202459917,-0.5389489532,0.6917816401,-0.4528046846,2024-06-04 15:24:06.202460
5.242760917,-0.159028098,0.5516827703,-0.5987455249,2024-06-04 15:24:06.242761
5.283061917,-0.04219790548,0.7242575884,-0.699039638,2024-06-04 15:24:06.283062
5.323362917,0.4661578834,0.7731075883,-0.784712255,2024-06-04 15:24:06.323363
5.363663917,1.151210666,1.043374419,-0.6181610227,2024-06-04 15:24:06.363664
5.403964917,1.3174963,1.415652394,-0.2416933775,2024-06-04 15:24:06.403965
5.444264917,-0.3859096467,0.1869912595,-0.9494742751,2024-06-04 15:24:06.444265
5.484565917,-1.960196495,0.5298766494,-1.298283339,2024-06-04 15:24:06.484566
5.524866917,-0.8818592429,1.724851966,0.5827667117,2024-06-04 15:24:06.524867
5.565167917,0.4060003161,0.7775287628,0.3554314971,2024-06-04 15:24:06.565168
5.605468917,-1.468102574,2.145845413,-0.6943956017,2024-06-04 15:24:06.605469
5.645769917,-0.2363267541,1.482718706,-0.2572903931,2024-06-04 15:24:06.645770
5.686070917,-0.6684428453,0.7953532934,-0.4547198713,2024-06-04 15:24:06.686071
5.726371917,-0.2747550607,0.2284989059,-0.6115679741,2024-06-04 15:24:06.726372
5.766672917,-0.5420970321,0.7308705449,-0.6662353277,2024-06-04 15:24:06.766673
5.806973917,-0.01890535466,1.015362501,-0.9148318172,2024-06-04 15:24:06.806974
5.847275292,-0.1499141008,1.087342858,-0.9677277803,2024-06-04 15:24:06.847275
5.887575292,-0.04523234442,0.9368782043,-1.001903892,2024-06-04 15:24:06.887575
5.927876292,0.155761525,0.7149634957,-0.7423662543,2024-06-04 15:24:06.927876
5.968177292,-0.222383365,0.2069322467,-0.9618980885,2024-06-04 15:24:06.968177
6.008478292,0.694765985,0.03734550253,-1.479356647,2024-06-04 15:24:07.008478
6.048779292,0.9073107243,1.242405176,0.2419702709,2024-06-04 15:24:07.048779
6.089080292,0.676567018,3.695580006,0.3599374294,2024-06-04 15:24:07.089080
6.129381292,1.393386126,1.902991652,-0.8354626298,2024-06-04 15:24:07.129381
6.169682292,0.6591286659,1.344528198,0.1621540487,2024-06-04 15:24:07.169682
6.209983292,-3.875950575,4.565130711,1.026026249,2024-06-04 15:24:07.209983
6.250284292,-2.853999853,-0.3087788522,2.49247551,2024-06-04 15:24:07.250284
6.290585292,-1.237470031,-2.304678917,0.6726502776,2024-06-04 15:24:07.290585
6.330886292,0.5106191635,-3.518079281,-1.17485106,2024-06-04 15:24:07.330886
6.371187292,0.5367026925,1.567017078,-0.01375735924,2024-06-04 15:24:07.371187
6.411488292,1.826025963,1.644353509,0.4195880294,2024-06-04 15:24:07.411488
6.451789292,1.385096073,0.3394443989,-0.08232004195,2024-06-04 15:24:07.451789
6.492089292,1.89071393,-0.02040557563,-0.2933566868,2024-06-04 15:24:07.492089
6.532390292,0.8704856038,1.38654995,-1.065867066,2024-06-04 15:24:07.532390
6.572691292,0.6507669687,-0.02826036513,-0.7137289047,2024-06-04 15:24:07.572691
6.612992292,0.1449832618,1.301373959,-1.661302686,2024-06-04 15:24:07.612992
6.653293292,-1.381491303,1.982117891,-2.351811171,2024-06-04 15:24:07.653293
6.693594292,-1.024056196,3.599694252,-3.044994354,2024-06-04 15:24:07.693594
6.733895292,-1.065561891,5.339412212,-2.142137289,2024-06-04 15:24:07.733895
6.774196292,-1.683521032,2.541500568,-0.512130022,2024-06-04 15:24:07.774196
6.814497292,0.247566402,-0.5695593953,0.3930989206,2024-06-04 15:24:07.814497
6.854798458,-0.1630567461,0.1990493238,-1.168299317,2024-06-04 15:24:07.854798
6.895099458,1.307636619,-0.5018976927,-2.236718178,2024-06-04 15:24:07.895099
6.935400458,-0.09515527636,2.228813171,-2.087828398,2024-06-04 15:24:07.935400
6.975701458,-0.206365779,0.7275868058,-2.61734581,2024-06-04 15:24:07.975701
7.016002458,-0.5638900995,0.1553607434,-3.972328424,2024-06-04 15:24:08.016002
7.056303458,-3.022720098,3.562474251,-4.157279491,2024-06-04 15:24:08.056303
7.096604458,-2.32012558,3.810984373,0.3361472189,2024-06-04 15:24:08.096604
7.136905458,-2.522636652,1.336778641,-1.237443924,2024-06-04 15:24:08.136905
7.177206458,1.264537334,0.6313164234,-0.3571597934,2024-06-04 15:24:08.177206
7.217507458,1.686432719,1.337232232,0.2634193003,2024-06-04 15:24:08.217507
7.257808458,1.672961831,1.399292231,-0.1318936944,2024-06-04 15:24:08.257808
7.298109458,0.9571869373,2.029225111,-1.750481129,2024-06-04 15:24:08.298109
7.338410458,0.6885681748,0.2550611198,-1.569419265,2024-06-04 15:24:08.338410
7.378711458,-1.420446634,0.9506704211,-1.421328068,2024-06-04 15:24:08.378711
7.419012458,-1.048557878,-1.383706689,-1.418548226,2024-06-04 15:24:08.419012
7.459313458,-0.336038202,0.07190612704,-0.9409228563,2024-06-04 15:24:08.459313
7.499614458,2.36722517,0.4120694101,-0.02273252793,2024-06-04 15:24:08.499614
7.539915458,4.299847126,1.956228852,0.9306418896,2024-06-04 15:24:08.539915
7.580216458,-0.4652683139,3.126404047,-0.03925739229,2024-06-04 15:24:08.580216
7.620517458,-1.008935094,0.4249620736,0.5835443735,2024-06-04 15:24:08.620517
7.660818458,-1.850210786,1.828311682,-0.6514241695,2024-06-04 15:24:08.660818
7.701119458,-2.309281111,1.046059012,-1.015161991,2024-06-04 15:24:08.701119
7.741420458,-2.664391279,0.8135542274,-0.4977613688,2024-06-04 15:24:08.741420
7.781721458,-3.198911428,0.8675831556,-1.013011336,2024-06-04 15:24:08.781721
7.822022542,-1.930727005,0.4300937355,-1.368470669,2024-06-04 15:24:08.822023
7.862323542,-0.9663683772,0.4298895001,-1.025353909,2024-06-04 15:24:08.862324
7.902624542,-1.665899277,1.908067107,-0.6160510182,2024-06-04 15:24:08.902625
7.942925542,-0.5725892186,1.833236575,-0.5798455477,2024-06-04 15:24:08.942926
7.983226542,-0.7826282978,3.311707973,-0.08602111787,2024-06-04 15:24:08.983227
8.023527542,0.4919342995,1.570437789,0.5836569667,2024-06-04 15:24:09.023528
8.063828542,2.312832594,4.528715134,-1.356270194,2024-06-04 15:24:09.063829
8.104129542,1.536960483,1.362659097,-1.829612732,2024-06-04 15:24:09.104130
8.144430542,-0.3595118821,2.122334719,-2.320218086,2024-06-04 15:24:09.144431
8.184731542,-0.1180861816,-0.001141863875,-1.750089645,2024-06-04 15:24:09.184732
8.225032542,-0.4918595552,0.4470129907,-1.250211358,2024-06-04 15:24:09.225033
8.265333542,-0.04467323795,-1.239717245,-1.293877959,2024-06-04 15:24:09.265334
8.305634542,-1.503337979,-0.2703307867,-1.800185084,2024-06-04 15:24:09.305635
8.345935542,-0.8731567264,2.10920763,-1.345917106,2024-06-04 15:24:09.345936
8.386236542,-0.2974556088,0.3020743728,-0.963198483,2024-06-04 15:24:09.386237
8.426537542,-2.044254065,3.189405918,-0.3921530843,2024-06-04 15:24:09.426538
8.466838542,-3.038337469,2.847578049,-0.0389120169,2024-06-04 15:24:09.466839
8.507139542,-2.5264256,2.77720952,0.6985564828,2024-06-04 15:24:09.507140
8.547440542,-2.567656517,2.478129387,-0.2169591486,2024-06-04 15:24:09.547441
8.587741542,-1.818433642,1.500691772,-0.523865521,2024-06-04 15:24:09.587742
8.628042542,-1.107580423,1.148133278,-0.3941142857,2024-06-04 15:24:09.628043
8.668344542,-0.6020106673,0.6664731503,-0.2619085908,2024-06-04 15:24:09.668345
8.708645542,-0.4409571886,0.8601820469,-0.1133656502,2024-06-04 15:24:09.708646
8.748946542,-0.3901229501,0.4196081758,-0.1839532554,2024-06-04 15:24:09.748947
8.789247542,-0.5277046561,1.934550881,-0.4010868967,2024-06-04 15:24:09.789248
8.829547958,-0.1639855057,2.128562212,-0.5913577676,2024-06-04 15:24:09.829548
8.869848958,-0.1343866438,2.192721367,-0.7073094845,2024-06-04 15:24:09.869849
8.910149958,-0.4479247332,4.106980324,-1.098821759,2024-06-04 15:24:09.910150
8.950450958,1.363255501,3.076539278,0.3889896572,2024-06-04 15:24:09.950451
8.990751958,0.7528473735,-0.9961339831,-2.135105371,2024-06-04 15:24:09.990752
9.031052958,-0.9980143309,0.3025377393,-0.7244335413,2024-06-04 15:24:10.031053
9.071353958,-0.9360887408,1.274277568,-1.097101927,2024-06-04 15:24:10.071354
9.111654958,-0.09683509916,0.2039784491,-0.9986214042,2024-06-04 15:24:10.111655
9.151955958,0.2637865543,2.459875822,-0.7543631792,2024-06-04 15:24:10.151956
9.192256958,-2.120582104,0.334202677,-0.4681314528,2024-06-04 15:24:10.192257
9.232558958,1.301206946,-2.360240698,0.8006692529,2024-06-04 15:24:10.232559
9.272859958,1.144235373,0.1329631805,0.1328252405,2024-06-04 15:24:10.272860
9.313160958,-0.3241148889,0.6321678162,0.128555432,2024-06-04 15:24:10.313161
9.353461958,0.4211842418,-0.1082202494,0.6812167168,2024-06-04 15:24:10.353462
9.393762958,3.659534931,1.18204093,2.689666271,2024-06-04 15:24:10.393763
9.434063958,0.2891358137,-0.6462112665,2.441254854,2024-06-04 15:24:10.434064
9.474364958,-0.3366082609,-2.498393774,0.2089352012,2024-06-04 15:24:10.474365
9.514665958,-0.01275112852,-1.912384152,1.357192993,2024-06-04 15:24:10.514666
9.554966958,0.4280928373,-4.142707348,-1.080169201,2024-06-04 15:24:10.554967
9.595267958,1.089651942,2.960147619,0.8717395067,2024-06-04 15:24:10.595268
9.635569958,1.328887582,0.07755298167,-0.5206982493,2024-06-04 15:24:10.635570
9.675870958,0.670484066,-0.0662566945,-0.5415976644,2024-06-04 15:24:10.675871
9.716171958,0.3033083975,0.4545400143,-0.9671892524,2024-06-04 15:24:10.716172
9.756472958,1.089428544,0.8495749235,-1.476226091,2024-06-04 15:24:10.756473
9.796773958,0.6178584695,1.640979648,-0.8053520918,2024-06-04 15:24:10.796774
9.837075792,0.5156934857,4.681213379,-0.4696262181,2024-06-04 15:24:10.837076
9.877376792,2.437398911,0.9989077449,-1.020713329,2024-06-04 15:24:10.877377
9.917677792,0.3818395734,2.984039545,-0.3639671803,2024-06-04 15:24:10.917678
9.957978792,-0.2237914503,0.6697819233,0.04835915193,2024-06-04 15:24:10.957979
9.998279792,-0.04470319673,0.9638593197,0.1425383836,2024-06-04 15:24:10.998280
10.03858079,0.6334366798,0.9408821464,0.02236372232,2024-06-04 15:24:11.038581
10.07888279,0.855781734,0.7028263211,-0.2940655649,2024-06-04 15:24:11.078883
10.11918379,0.6907625794,0.9499768615,-0.3250050843,2024-06-04 15:24:11.119184
10.15948479,1.368909717,0.4241986871,-0.2408010364,2024-06-04 15:24:11.159485
10.19978579,1.051537871,0.1960384548,-0.3174031377,2024-06-04 15:24:11.199786
10.24008679,0.4450161457,0.1121946648,0.1112792343,2024-06-04 15:24:11.240087
10.28038779,0.1266524196,0.3930384517,0.1210490763,2024-06-04 15:24:11.280388
10.32068879,-0.2722340226,0.07725040615,-0.0412530154,2024-06-04 15:24:11.320689
10.36098979,-0.6063716412,-0.6360396147,0.2076777369,2024-06-04 15:24:11.360990
10.40129079,-0.8662393093,-0.6811081171,0.1599908769,2024-06-04 15:24:11.401291
10.44159179,-0.855746448,-0.5725329518,0.290387243,2024-06-04 15:24:11.441592
10.48189379,-1.035819173,-0.3349752426,0.1980149597,2024-06-04 15:24:11.481894
10.52219479,-0.8999060392,-0.6243191957,0.1006087735,2024-06-04 15:24:11.522195
10.56249579,-0.8472896218,-0.4637155533,-0.2009486407,2024-06-04 15:24:11.562496
10.60279679,-0.8712198734,-0.5320765376,-0.273544848,2024-06-04 15:24:11.602797
10.64309779,-0.7893994451,-0.7932620645,-0.3453657329,2024-06-04 15:24:11.643098
10.68339879,-0.9005244374,-0.6650689244,-0.3922581673,2024-06-04 15:24:11.683399
10.72369979,-1.069357395,-0.4097945392,-0.3797226548,2024-06-04 15:24:11.723700
10.76400079,-1.023722291,-0.2908566296,-0.3893609047,2024-06-04 15:24:11.764001
10.80430279,-0.8528017998,-0.3866973817,-0.3305104375,2024-06-04 15:24:11.804303
10.84460392,-0.5079658628,-0.4152175188,-0.2159377187,2024-06-04 15:24:11.844604
10.88490492,-0.3896764815,-0.5111021996,-0.1234314889,2024-06-04 15:24:11.884905
10.92520592,0.1364248842,-0.3570448458,0.1177414283,2024-06-04 15:24:11.925206
10.96550692,0.009140479378,0.070991382,-0.07296562195,2024-06-04 15:24:11.965507
11.00580792,-0.05431978405,0.3437927961,-0.101340875,2024-06-04 15:24:12.005808
11.04610892,0.2106458247,0.0748758316,-0.2266409993,2024-06-04 15:24:12.046109
11.08641092,-0.5281400681,-0.3397140801,-0.05008885264,2024-06-04 15:24:12.086411
11.12671192,-0.9788213372,0.3310245872,-0.1141775623,2024-06-04 15:24:12.126712
11.16701292,-1.903822303,1.341726303,-0.09928064793,2024-06-04 15:24:12.167013
11.20731392,-2.561598063,2.61881876,-0.02464364283,2024-06-04 15:24:12.207314
11.24761492,-2.361528397,2.128719091,0.3050610125,2024-06-04 15:24:12.247615
11.28791592,-2.389437914,2.595735073,-0.6421857476,2024-06-04 15:24:12.287916
11.32821792,1.099981666,1.217971683,-2.211319208,2024-06-04 15:24:12.328218
11.36851892,-0.1011840776,3.950062275,-1.491527081,2024-06-04 15:24:12.368519
11.40881992,1.519048333,3.907031298,0.396971494,2024-06-04 15:24:12.408820
11.44912092,3.673096657,-0.3918436468,-0.3856034279,2024-06-04 15:24:12.449121
11.48942192,2.781460285,-2.030902386,0.2313454896,2024-06-04 15:24:12.489422
11.52972292,0.1906716079,-1.172882438,-0.870998621,2024-06-04 15:24:12.529723
11.57002492,-1.302953005,0.1953929514,-2.021180153,2024-06-04 15:24:12.570025
11.61032592,-4.515121937,2.992213249,-1.79249227,2024-06-04 15:24:12.610326
11.65062692,-0.551325202,3.662945509,-1.620302439,2024-06-04 15:24:12.650627
11.69092792,0.1152602807,3.082067251,-0.8461729288,2024-06-04 15:24:12.690928
11.73122892,-1.874901891,4.306452751,-1.922873497,2024-06-04 15:24:12.731229
11.77152992,-1.761791825,0.5964602828,-0.5463728309,2024-06-04 15:24:12.771530
11.81183192,-2.211749554,-0.9767119884,-0.5749515295,2024-06-04 15:24:12.811832
11.85213229,-3.306842804,-1.760809422,-2.044026136,2024-06-04 15:24:12.852132
11.89243329,-5.34839344,-2.803256273,-1.298433542,2024-06-04 15:24:12.892433
11.93273429,-0.4423184395,-1.107235789,1.12812674,2024-06-04 15:24:12.932734
11.97303529,3.869488478,-2.461973906,0.9149515629,2024-06-04 15:24:12.973035
12.01333729,4.332601547,-2.395142555,0.2626395524,2024-06-04 15:24:13.013337
12.05363829,4.647219658,5.559644699,0.9943486452,2024-06-04 15:24:13.053638
12.09393929,3.646174908,-0.6306542158,2.333135605,2024-06-04 15:24:13.093939
12.13424029,2.204571962,0.2988109887,7.831730366,2024-06-04 15:24:13.134240
12.17454129,8.542490005,-8.442548752,3.961373091,2024-06-04 15:24:13.174541
12.21484229,4.59927845,-7.391417027,1.731112123,2024-06-04 15:24:13.214842
12.25514429,-0.7703747749,-3.534671068,0.08001327515,2024-06-04 15:24:13.255144
12.29544529,-1.98311317,-0.7608633041,-0.6519972682,2024-06-04 15:24:13.295445
12.33574629,-2.528606653,0.7484444976,0.08888240904,2024-06-04 15:24:13.335746
12.37604729,-2.697565556,1.765682578,0.4203128219,2024-06-04 15:24:13.376047
12.41634829,-0.3939115107,2.427400112,-0.856616199,2024-06-04 15:24:13.416348
12.45665029,-1.291122913,-0.2342452407,1.413255334,2024-06-04 15:24:13.456650
12.49695129,-6.32984972,4.764597416,-2.234855175,2024-06-04 15:24:13.496951
12.53725229,-4.826628685,3.420423746,-5.069242477,2024-06-04 15:24:13.537252
12.57755329,-3.734235287,1.515047193,-0.7708498836,2024-06-04 15:24:13.577553
12.61785429,0.1257174313,0.3604385555,1.208141565,2024-06-04 15:24:13.617854
12.65815629,2.555126667,-0.3059248626,1.095925331,2024-06-04 15:24:13.658156
12.69845729,4.191776752,-1.245820165,0.7890689969,2024-06-04 15:24:13.698457
12.73875829,4.968409061,1.317680597,1.730797052,2024-06-04 15:24:13.738758
12.77905929,4.094769478,3.710858822,3.775623798,2024-06-04 15:24:13.779059
12.81936029,2.835327864,1.257535577,1.550184965,2024-06-04 15:24:13.819360
12.85966258,0.662960887,-1.89643991,-2.659035683,2024-06-04 15:24:13.859663
12.89996358,-5.101716518,-1.258793473,-2.432005882,2024-06-04 15:24:13.899964
12.94026458,-4.100101948,-1.972877383,1.83386147,2024-06-04 15:24:13.940265
12.98056558,2.163204432,4.500594616,2.165881872,2024-06-04 15:24:13.980566
13.02086658,6.80877161,3.263926506,3.101665735,2024-06-04 15:24:14.020867
13.06116858,2.15411973,3.208024979,-0.9484667778,2024-06-04 15:24:14.061169
13.10146958,-1.088585496,-0.5447099805,0.1146999076,2024-06-04 15:24:14.101470
13.14177058,-1.312694669,2.833948135,-1.380432606,2024-06-04 15:24:14.141771
13.18207158,-0.9015000463,2.236132383,-0.641104877,2024-06-04 15:24:14.182072
13.22237258,-0.2106357813,4.578526974,-1.558905602,2024-06-04 15:24:14.222373
13.26267458,1.78392756,0.8971073627,-0.6406042576,2024-06-04 15:24:14.262675
13.30297558,-1.140014172,0.412886858,0.4723294377,2024-06-04 15:24:14.302976
13.34327658,0.4812380672,-0.9354799986,-1.444233418,2024-06-04 15:24:14.343277
13.38357758,-0.09851980209,1.536702156,-3.38064599,2024-06-04 15:24:14.383578
13.42387958,-0.232323274,1.917983651,-1.730575442,2024-06-04 15:24:14.423880
13.46418058,0.49659127,0.8777000904,-2.131562948,2024-06-04 15:24:14.464181
13.50448158,0.7699877024,1.126097441,-2.586470604,2024-06-04 15:24:14.504482
13.54478258,0.4500890374,1.28536272,-2.787528515,2024-06-04 15:24:14.544783
13.58508358,0.6812745929,0.9691628218,-2.779722214,2024-06-04 15:24:14.585084
13.62538558,0.8335364461,0.5653970838,-2.509255409,2024-06-04 15:24:14.625386
13.66568658,-0.5985093117,2.457981825,-1.993762851,2024-06-04 15:24:14.665687
13.70598758,-0.9477684498,2.275332212,-0.6925467849,2024-06-04 15:24:14.705988
13.74628858,-0.009791980498,2.391269684,-1.090862513,2024-06-04 15:24:14.746289
13.78658958,1.595275402,0.199564755,-1.066779256,2024-06-04 15:24:14.786590
13.82689167,1.674396396,1.130533218,-1.809500813,2024-06-04 15:24:14.826892
13.86719267,0.7793825865,4.549865723,-1.614497542,2024-06-04 15:24:14.867193
13.90749367,2.599196672,3.127870798,-4.105169296,2024-06-04 15:24:14.907494
13.94779467,-0.1053662822,1.568380594,-1.583634377,2024-06-04 15:24:14.947795
13.98809667,0.3766483665,0.7156966329,-3.001157522,2024-06-04 15:24:14.988097
14.02839767,-2.175508976,0.4555845857,-0.4969293773,2024-06-04 15:24:15.028398
14.06869867,-2.4185431,0.3174834251,-0.8985872865,2024-06-04 15:24:15.068699
14.10899967,-2.310043097,1.043382645,-0.5415189266,2024-06-04 15:24:15.109000
14.14930067,-2.608036518,0.5185698867,-0.2073604167,2024-06-04 15:24:15.149301
14.18960267,-2.946284056,0.5347364545,-1.198564768,2024-06-04 15:24:15.189603
14.22990367,-3.246138334,0.445774883,-0.7208926678,2024-06-04 15:24:15.229904
14.27020467,-2.931721687,0.5208380222,-0.6835050583,2024-06-04 15:24:15.270205
14.31050567,-3.285037041,0.5940152407,-1.111235142,2024-06-04 15:24:15.310506
14.35080667,-2.946066141,0.06999946386,-0.2120560706,2024-06-04 15:24:15.350807
14.39110867,-2.265282631,-0.2026583999,0.1443989873,2024-06-04 15:24:15.391109
14.43140967,-0.7951130271,-1.546005845,-1.195388675,2024-06-04 15:24:15.431410
14.47171067,-1.749349475,-0.5557838082,-0.9483096004,2024-06-04 15:24:15.471711
14.51201167,-1.001077175,0.7168292999,-0.5289013982,2024-06-04 15:24:15.512012
14.55231367,-0.8876664042,0.7882360816,-0.1290485412,2024-06-04 15:24:15.552314
14.59261467,-0.1230387539,2.636857748,0.9412452579,2024-06-04 15:24:15.592615
14.63291567,2.116927147,2.553094625,0.36879161,2024-06-04 15:24:15.632916
14.67321667,0.3724551201,2.238384008,1.110875487,2024-06-04 15:24:15.673217
14.71351867,0.09902094305,2.437866688,1.899960279,2024-06-04 15:24:15.713519
14.75381967,0.7721838951,-0.190646559,1.30662477,2024-06-04 15:24:15.753820
14.79412067,3.152499914,-2.521103144,1.110212922,2024-06-04 15:24:15.794121
14.83442083,4.77987051,-3.846497297,1.431204557,2024-06-04 15:24:15.834421
14.87472283,3.35666132,-2.756777287,1.68246448,2024-06-04 15:24:15.874723
14.91502383,1.794920206,-1.389544606,1.16982162,2024-06-04 15:24:15.915024
14.95532483,0.1881404817,-0.3714559972,0.4742051065,2024-06-04 15:24:15.955325
14.99562583,-1.487740278,0.5353044868,0.723927319,2024-06-04 15:24:15.995626
15.03592783,0.3206854165,1.131458759,-0.5929288268,2024-06-04 15:24:16.035928
15.07622883,-2.958608389,-0.3735170662,-0.3795619905,2024-06-04 15:24:16.076229
15.11652983,-3.417725086,3.609293222,-1.159007549,2024-06-04 15:24:16.116530
15.15683083,-5.290235043,5.203879356,-1.474034667,2024-06-04 15:24:16.156831
15.19713283,-6.017078876,5.211390495,-2.784445047,2024-06-04 15:24:16.197133
15.23743383,-4.771226406,2.371685982,-2.394464493,2024-06-04 15:24:16.237434
15.27773483,-1.973280311,-4.772544861,-1.840546131,2024-06-04 15:24:16.277735
15.31803583,-0.2545050383,8.340922356,-0.02942262404,2024-06-04 15:24:16.318036
15.35833783,-2.397156,4.159317017,-0.3776035011,2024-06-04 15:24:16.358338
15.39863883,-1.335904837,2.109208107,0.1475209892,2024-06-04 15:24:16.398639
15.43893983,-0.598120153,2.121653557,0.1122892424,2024-06-04 15:24:16.438940
15.47924083,0.3953054249,3.187148571,-0.2235713303,2024-06-04 15:24:16.479241
15.51954283,1.471944094,3.093901634,0.0103836488,2024-06-04 15:24:16.519543
15.55984383,2.368170738,1.028403521,0.8693470955,2024-06-04 15:24:16.559844
15.60014483,2.030860424,-0.5976698995,1.118641853,2024-06-04 15:24:16.600145
15.64044583,0.7911047935,1.78410995,-0.7700428963,2024-06-04 15:24:16.640446
15.68074783,-0.3241690099,2.278784513,-1.315193415,2024-06-04 15:24:16.680748
15.72104883,-1.792492747,4.122731209,-0.8695188761,2024-06-04 15:24:16.721049
15.76134983,-3.646187067,3.453961372,-0.1328549981,2024-06-04 15:24:16.761350
15.80165083,-2.322960854,3.827431917,-0.3216416836,2024-06-04 15:24:16.801651
15.84195329,-2.659930468,1.875091553,0.04302121326,2024-06-04 15:24:16.841953
15.88225429,-2.61077714,-1.547066689,1.568755746,2024-06-04 15:24:16.882254
15.92255529,-2.094857454,-3.456518412,2.606057167,2024-06-04 15:24:16.922555
15.96285629,5.527366638,10.98108292,0.6352214217,2024-06-04 15:24:16.962856
16.00315829,3.407445908,-2.336752653,-1.06282568,2024-06-04 15:24:17.003158
16.04345929,1.421636581,-0.6486111283,-1.050039768,2024-06-04 15:24:17.043459
16.08376029,-0.8542807698,1.87085259,-0.6079807878,2024-06-04 15:24:17.083760
16.12406229,-0.001400067587,3.480009079,-1.639507771,2024-06-04 15:24:17.124062
16.16436329,-0.01328579243,5.001491547,-0.5448065996,2024-06-04 15:24:17.164363
16.20466429,0.8771227002,4.375134468,0.9010307193,2024-06-04 15:24:17.204664
16.24496529,1.262950182,4.328085423,-0.4845898747,2024-06-04 15:24:17.244965
16.28526729,0.3200288713,4.483900547,0.1543959677,2024-06-04 15:24:17.285267
16.32556829,-1.413490057,0.6039707065,-1.398933053,2024-06-04 15:24:17.325568
16.36586929,-2.217788219,-0.1902943403,-2.94803977,2024-06-04 15:24:17.365869
16.40617029,-3.439064264,2.172252178,-2.088672161,2024-06-04 15:24:17.406170
16.44647229,-4.173277378,0.2947795987,-0.9558876157,2024-06-04 15:24:17.446472
16.48677329,-2.342834473,-0.387396276,-0.9384292364,2024-06-04 15:24:17.486773
16.52707429,-3.933686733,-2.253723383,-0.5732238293,2024-06-04 15:24:17.527074
16.56737529,1.267175198,3.249023199,-0.920501411,2024-06-04 15:24:17.567375
16.60767729,0.5904254317,1.630783677,1.434272051,2024-06-04 15:24:17.607677
16.64797829,0.8821744323,1.212376833,1.169854403,2024-06-04 15:24:17.647978
16.68827929,2.273106813,1.070319533,0.4652838111,2024-06-04 15:24:17.688279
16.72858129,0.6045824289,-0.6775717139,0.6884233952,2024-06-04 15:24:17.728581
16.76888229,0.9254395962,-1.327088952,-0.7771796584,2024-06-04 15:24:17.768882
16.80918329,0.1730167866,-0.0900541693,-0.4893268347,2024-06-04 15:24:17.809183
16.84948454,0.6656624675,0.4883325994,-0.592307508,2024-06-04 15:24:17.849485
16.88978654,0.2509496808,1.004833698,-0.4970654249,2024-06-04 15:24:17.889787
16.93008754,1.339438319,0.02774126083,-0.4641056061,2024-06-04 15:24:17.930088
16.97038854,1.167992234,0.0579678826,-0.4328169525,2024-06-04 15:24:17.970389
17.01069054,0.9624672532,-0.2889122367,0.07688919455,2024-06-04 15:24:18.010691
17.05099154,0.3379190266,0.2928214669,0.2017743886,2024-06-04 15:24:18.050992
17.09129254,0.2122880071,-0.4757508636,0.04916488007,2024-06-04 15:24:18.091293
17.13159354,-0.8509187698,2.541336536,-0.3925595284,2024-06-04 15:24:18.131594
17.17189554,-0.1057536155,2.174051523,0.0135150142,2024-06-04 15:24:18.171896
17.21219654,-0.4932562113,1.818564892,-0.1552633643,2024-06-04 15:24:18.212197
17.25249754,-1.017597556,0.7735603452,0.06177681684,2024-06-04 15:24:18.252498
17.29279954,-1.663493037,0.8635986447,-0.2255420536,2024-06-04 15:24:18.292800
17.33310054,-2.750978947,0.7325602174,-0.6872723699,2024-06-04 15:24:18.333101
17.37340154,-2.585315228,-0.4675142169,-1.642888069,2024-06-04 15:24:18.373402
17.41370254,-2.457143307,-0.224251017,0.003449057695,2024-06-04 15:24:18.413703
17.45400454,0.03387999162,1.417865396,0.1740037501,2024-06-04 15:24:18.454005
17.49430554,0.8233371377,0.6119733453,0.1828989685,2024-06-04 15:24:18.494306
17.53460654,0.2268108875,-0.02267679945,-0.1903478354,2024-06-04 15:24:18.534607
17.57490854,0.1444068402,1.392128825,-0.1034281179,2024-06-04 15:24:18.574909
17.61520954,-0.1358923018,0.8836382031,0.1965958923,2024-06-04 15:24:18.615210
17.65551054,-0.3075607717,-0.02695914172,0.09534490854,2024-06-04 15:24:18.655511
17.69581154,1.051375389,-0.8875109553,-0.1080513671,2024-06-04 15:24:18.695812
17.73611354,-0.4758449793,0.7689922452,-0.503993392,2024-06-04 15:24:18.736114
17.77641454,-0.196711868,0.3753935695,-0.4219720066,2024-06-04 15:24:18.776415
17.81671554,1.201701045,0.002095044591,-0.008900285698,2024-06-04 15:24:18.816716
17.85701758,2.349290848,1.090690136,-0.1646232903,2024-06-04 15:24:18.857018
17.89731858,2.360841036,1.459632635,-1.518145084,2024-06-04 15:24:18.897319
17.93761958,-0.2064106166,3.630829096,-0.4983115196,2024-06-04 15:24:18.937620
17.97792058,-0.1225036979,1.857226253,0.851283133,2024-06-04 15:24:18.977921
18.01822258,-0.7323003411,0.3076002002,1.112340689,2024-06-04 15:24:19.018223
18.05852358,0.3932781816,-1.085629106,0.8264268041,2024-06-04 15:24:19.058524
18.09882458,-0.4690321386,-0.8529468179,-2.908492804,2024-06-04 15:24:19.098825
18.13912658,0.2650463879,3.830248833,0.8502280116,2024-06-04 15:24:19.139127
18.17942758,1.304282546,-0.06834919006,0.2964660227,2024-06-04 15:24:19.179428
18.21972858,1.303802252,-0.1403715909,0.2922121584,2024-06-04 15:24:19.219729
18.26002958,0.9276577234,-0.1794269979,-0.1950656176,2024-06-04 15:24:19.260030
18.30033158,0.2735156715,0.7490183711,-0.1092729494,2024-06-04 15:24:19.300332
18.34063258,0.4784892797,1.907262921,-0.3401623666,2024-06-04 15:24:19.340633
18.38093358,-1.860805631,2.449313164,-2.972830296,2024-06-04 15:24:19.380934
18.42123458,-1.760647893,-1.831598878,-2.004105091,2024-06-04 15:24:19.421235
18.46153658,-0.1966128349,-0.6165031791,-0.8022090793,2024-06-04 15:24:19.461537
18.50183758,-0.2340479046,-0.279017508,0.0704818964,2024-06-04 15:24:19.501838
18.54213858,-2.137691736,-4.623540401,-1.374611855,2024-06-04 15:24:19.542139
18.58244058,-0.6396992207,-3.484354019,0.07692994922,2024-06-04 15:24:19.582441
18.62274158,-0.1779671013,3.452437639,1.597001076,2024-06-04 15:24:19.622742
18.66304258,-0.3581778705,-1.255033255,-1.554257751,2024-06-04 15:24:19.663043
18.70334358,-0.9991894364,-2.797463894,-1.046910644,2024-06-04 15:24:19.703344
18.74364558,-0.850094378,-0.8516330123,-1.816427827,2024-06-04 15:24:19.743646
18.78394658,-1.252698421,-0.02656849101,-1.040417552,2024-06-04 15:24:19.783947
18.82424758,0.1041440517,-2.158810616,-1.137197375,2024-06-04 15:24:19.824248
18.86454867,-0.485999465,0.6803095937,-0.9925308228,2024-06-04 15:24:19.864549
18.90485067,0.6283625364,-0.606084466,-0.7497176528,2024-06-04 15:24:19.904851
18.94515167,0.9056996703,0.03936665133,-0.5890384912,2024-06-04 15:24:19.945152
18.98545267,0.7404214144,0.4022241533,0.1743129641,2024-06-04 15:24:19.985453
19.02575367,1.271135211,-0.2538308501,0.8768175244,2024-06-04 15:24:20.025754
19.06605567,1.736721039,0.6596989036,1.822323203,2024-06-04 15:24:20.066056
19.10635667,2.317021847,0.4932908118,2.346763134,2024-06-04 15:24:20.106357
19.14665767,2.515697241,0.6375941038,2.461278439,2024-06-04 15:24:20.146658
19.18695967,2.452807426,1.700704575,2.732292891,2024-06-04 15:24:20.186960
19.22726067,2.303495646,0.8182325959,3.640549421,2024-06-04 15:24:20.227261
19.26756167,2.283359528,-0.597404778,3.239848852,2024-06-04 15:24:20.267562
19.30786267,1.596743703,-1.726476073,2.75199461,2024-06-04 15:24:20.307863
19.34816467,0.5176654458,-1.789732337,2.650286674,2024-06-04 15:24:20.348165
19.38846567,-0.153838113,-2.585291624,1.872677445,2024-06-04 15:24:20.388466
19.42876667,1.612464666,-3.282820702,1.645329237,2024-06-04 15:24:20.428767
19.46906867,6.013758183,1.51393497,-0.9446091056,2024-06-04 15:24:20.469069
19.50936967,-2.698651314,3.856010914,5.288067341,2024-06-04 15:24:20.509370
19.54967067,2.116790533,1.879085302,-1.22482717,2024-06-04 15:24:20.549671
19.58997167,-1.406786203,2.288021564,-1.596014738,2024-06-04 15:24:20.589972
19.63027367,-1.9771415,1.377657056,-0.3707599342,2024-06-04 15:24:20.630274
19.67057467,-1.955504775,0.8514180779,-0.7619000077,2024-06-04 15:24:20.670575
19.71087567,-1.090563297,0.3781466782,-1.05461061,2024-06-04 15:24:20.710876
19.75117767,-1.025541782,-0.253282249,-0.8990392089,2024-06-04 15:24:20.751178
19.79147867,-0.4947384298,-0.4683209956,-0.3447107673,2024-06-04 15:24:20.791479
19.83177942,-0.0910359174,-1.031809092,-0.3753171265,2024-06-04 15:24:20.831779
19.87208142,0.2084365785,-0.9728232622,-0.6054984331,2024-06-04 15:24:20.872081
19.91238242,0.3676721752,0.07147882134,-0.225351885,2024-06-04 15:24:20.912382
19.95268342,-0.4460885525,0.0550471358,-0.3500650525,2024-06-04 15:24:20.952683
19.99298542,-0.4533757865,-1.679992676,-1.005795717,2024-06-04 15:24:20.992985
20.03328642,-0.9788459539,-1.081429362,-1.056040525,2024-06-04 15:24:21.033286
20.07358742,-1.322582483,0.6050889492,-1.233265877,2024-06-04 15:24:21.073587
20.11388842,-1.067543626,2.632478952,-0.9738191962,2024-06-04 15:24:21.113888
20.15419042,0.1085793748,2.875492096,-0.2093143314,2024-06-04 15:24:21.154190
20.19449142,-1.200450182,1.424426436,-0.4491237402,2024-06-04 15:24:21.194491
20.23479242,0.4159004688,-2.765219212,-0.949346602,2024-06-04 15:24:21.234792
20.27509442,-1.122390509,-0.4529744685,0.4325668514,2024-06-04 15:24:21.275094
20.31539542,-0.3055518568,2.381443977,0.9085749388,2024-06-04 15:24:21.315395
20.35569642,-0.04034402221,-1.106913686,-1.2324121,2024-06-04 15:24:21.355696
20.39599842,-0.7705888748,-1.201719403,-1.026825905,2024-06-04 15:24:21.395998
20.43629942,-0.04579098895,-1.13467145,0.02896961011,2024-06-04 15:24:21.436299
20.47660042,-0.4724813104,-0.7803496718,0.3276846409,2024-06-04 15:24:21.476600
20.51690242,-0.82706815,-0.2370224595,0.1520998031,2024-06-04 15:24:21.516902
20.55720342,-0.6343675852,-0.4716925621,0.1047607809,2024-06-04 15:24:21.557203
20.59750442,-0.5128904581,-0.3277162313,0.1726226509,2024-06-04 15:24:21.597504
20.63780542,-0.367875278,-0.6692484617,-0.01877660677,2024-06-04 15:24:21.637805
20.67810742,-0.4047527015,-0.4706091583,-0.005148943979,2024-06-04 15:24:21.678107
20.71840842,-0.2363551855,-0.2718124092,-0.04661782458,2024-06-04 15:24:21.718408
20.75870942,-0.1645853668,-0.1724263877,-0.04393842444,2024-06-04 15:24:21.758709
20.79901142,-0.1410214305,-0.07689719647,-0.06372624636,2024-06-04 15:24:21.799011
20.83931233,-0.09466365725,-0.01296190638,-0.07828334719,2024-06-04 15:24:21.839312
20.87961333,-0.04538224265,-0.1157689616,-0.0669092536,2024-06-04 15:24:21.879613
20.91991533,-0.171711728,0.04795335978,0.1099701822,2024-06-04 15:24:21.919915
20.96021633,-0.08289324492,0.01467398554,0.04871481284,2024-06-04 15:24:21.960216
21.00051733,0.07270038873,0.0548141934,-0.02983725071,2024-06-04 15:24:22.000517
21.04081933,0.09300386161,-0.03291163221,-0.01277438272,2024-06-04 15:24:22.040819
21.08112033,-0.01172357332,-0.1307468712,0.02777171507,2024-06-04 15:24:22.081120
21.12142133,-0.04865819216,-0.1330664903,0.003596871858,2024-06-04 15:24:22.121421
21.16172333,-0.0525887534,-0.2405799031,0.0272811614,2024-06-04 15:24:22.161723
21.20202433,-0.08340460807,-0.1800715327,0.02649206482,2024-06-04 15:24:22.202024
21.24232533,-0.06400766224,0.03689298034,-0.01001081429,2024-06-04 15:24:22.242325
21.28262733,-0.04593253136,0.04921654239,0.004951346666,2024-06-04 15:24:22.282627
21.32292833,-0.02244763263,0.0641720444,0.004865330644,2024-06-04 15:24:22.322928
21.36322933,0.02956883982,0.0464964062,0.01721413247,2024-06-04 15:24:22.363229
21.40353133,0.02777281031,-0.1409430057,0.02122432739,2024-06-04 15:24:22.403531
21.44383233,-0.00648210058,-0.08995147049,0.0251644738,2024-06-04 15:24:22.443832
21.48413333,-0.001667222707,-0.06343303621,0.01235652994,2024-06-04 15:24:22.484133
21.52443533,-0.01047984604,-0.0994432494,0.006448844913,2024-06-04 15:24:22.524435
21.56473633,-0.01040816959,-0.1030030921,0.02153192461,2024-06-04 15:24:22.564736
21.60503733,-0.004995950032,-0.04892598093,0.01988660917,2024-06-04 15:24:22.605037
21.64533933,-0.007720693946,-0.009113631211,0.003038403811,2024-06-04 15:24:22.645339
21.68564033,0.0526881665,-0.01289264765,0.01262178645,2024-06-04 15:24:22.685640
21.72594133,0.1045564488,-0.0331909582,0.02426910587,2024-06-04 15:24:22.725941
21.76624333,0.02291825041,-0.003983311355,-0.002431464149,2024-06-04 15:24:22.766243
21.80654433,-0.05213709176,-0.1066854298,0.01131390315,2024-06-04 15:24:22.806544
21.84684629,-0.0131403869,-0.1642408669,0.001378180576,2024-06-04 15:24:22.846846
21.88714729,-0.01754304394,-0.08910165727,-0.004936702084,2024-06-04 15:24:22.887147
21.92744829,-0.003509340808,-0.08272866905,-0.009449450299,2024-06-04 15:24:22.927448
21.96775029,0.008549191058,-0.1012584269,0.01647669822,2024-06-04 15:24:22.967750
22.00805129,0.01852022111,-0.1007689387,0.03722645342,2024-06-04 15:24:23.008051
22.04835229,-0.03334445134,-0.1138586774,0.1164416596,2024-06-04 15:24:23.048352
22.08865429,-0.03385283053,-0.1771939099,0.004579547793,2024-06-04 15:24:23.088654
22.12895529,0.01115847658,-0.03121807426,0.01254107244,2024-06-04 15:24:23.128955
22.16925729,-0.005652269814,-0.05249700323,0.02754319459,2024-06-04 15:24:23.169257
22.20955829,-0.03414333612,-0.1045522168,0.0476015918,2024-06-04 15:24:23.209558
22.24985929,-0.04049638286,-0.08808003366,0.1005082205,2024-06-04 15:24:23.249859
22.29016129,0.05611225218,-0.09753477573,0.01677362807,2024-06-04 15:24:23.290161
22.33046229,0.04337379336,0.08457268029,0.009817737155,2024-06-04 15:24:23.330462
22.37076429,-0.01141923666,0.1981442869,-0.002291948069,2024-06-04 15:24:23.370764
22.41106529,-0.009635363705,-0.09444979578,0.0293189995,2024-06-04 15:24:23.411065
22.45136629,0.00961068552,-0.0983518362,0.02408827096,2024-06-04 15:24:23.451366
22.49166829,0.0391440317,0.1452011764,0.0390038304,2024-06-04 15:24:23.491668
22.53196929,0.01757383533,0.2585727274,-0.01039328519,2024-06-04 15:24:23.531969
22.57227129,0.003668406745,0.1733638346,0.001428219955,2024-06-04 15:24:23.572271
22.61257229,0.04155464843,0.08072951436,0.01186274551,2024-06-04 15:24:23.612572
22.65287329,0.06868545711,0.1341098994,0.0158164911,2024-06-04 15:24:23.652873
22.69317529,0.06109931692,0.2133392245,0.0273362305,2024-06-04 15:24:23.693175
22.73347629,0.04713264108,0.2344993651,0.04785697907,2024-06-04 15:24:23.733476
22.77377829,-0.04125192761,0.2378757149,0.08305251598,2024-06-04 15:24:23.773778
22.81407929,0.0127034802,0.1897846311,0.0374610424,2024-06-04 15:24:23.814079
22.85438117,0.02598566189,0.2464998364,0.03035415709,2024-06-04 15:24:23.854381
22.89468217,0.04069357365,0.2501656711,0.04706947505,2024-06-04 15:24:23.894682
22.93498317,0.0620245412,0.2273050994,0.07704336196,2024-06-04 15:24:23.934983
22.97528517,0.05078839511,0.1977099329,0.05693726614,2024-06-04 15:24:23.975285
23.01558617,0.0762520954,0.1695254296,0.1026219204,2024-06-04 15:24:24.015586
23.05588817,-0.003961894661,0.2749599814,0.03599284589,2024-06-04 15:24:24.055888
23.09618917,0.0950210318,0.3147920668,0.03179145977,2024-06-04 15:24:24.096189
23.13649117,0.07705740631,0.2098275721,-0.03358994052,2024-06-04 15:24:24.136491
23.17679217,0.02517229319,0.234518528,0.01258793287,2024-06-04 15:24:24.176792
23.21709417,0.02275375836,0.04815585539,-0.003154018428,2024-06-04 15:24:24.217094
23.25739517,-0.003009773325,-0.01009626687,0.02555539645,2024-06-04 15:24:24.257395
23.29769717,0.04314013943,-0.04240519553,0.04934805259,2024-06-04 15:24:24.297697
23.33799817,0.06271399558,-0.01839600503,0.02630640008,2024-06-04 15:24:24.337998
23.37829917,0.04802491143,-0.09161029756,0.03917585313,2024-06-04 15:24:24.378299
23.41860117,0.02755821124,-0.09510382265,0.004928390961,2024-06-04 15:24:24.418601
23.45890217,0.05023088306,-0.06829164922,-0.021926919,2024-06-04 15:24:24.458902
23.49920417,0.0126353791,0.1468664557,-0.1094764769,2024-06-04 15:24:24.499204
23.53950517,-0.02812065184,0.6146472096,-0.2554818988,2024-06-04 15:24:24.539505
23.57980717,0.09187202901,0.1369754821,-0.08830008656,2024-06-04 15:24:24.579807
23.62010817,0.05625015497,0.01090755966,0.1060432792,2024-06-04 15:24:24.620108
23.66041017,0.1027736738,-0.142475605,0.225066334,2024-06-04 15:24:24.660410
23.70071117,0.0189486295,-0.3400635123,0.2833280563,2024-06-04 15:24:24.700711
23.74101317,-0.05585515127,-0.08129293472,0.09838936478,2024-06-04 15:24:24.741013
23.78131417,0.008404033259,-0.02450662293,0.009658160619,2024-06-04 15:24:24.781314
23.82161617,0.04420509189,0.1116559952,-0.009123826399,2024-06-04 15:24:24.821616
23.86191746,0.07012328506,0.01047585905,0.008428861387,2024-06-04 15:24:24.861917
23.90221946,0.09343405068,-0.005533197895,0.02930030227,2024-06-04 15:24:24.902219
23.94252046,0.1069094539,0.08332530409,0.05621555075,2024-06-04 15:24:24.942520
23.98282146,0.1097819731,0.1285923868,0.06345853209,2024-06-04 15:24:24.982821
24.02312346,0.03630296141,0.1815285683,0.07413727045,2024-06-04 15:24:25.023123
24.06342446,-0.01720754988,0.2367007434,-0.03840044886,2024-06-04 15:24:25.063424
24.10372646,-0.1020760238,0.6064095497,-0.2430385351,2024-06-04 15:24:25.103726
24.14402746,-0.06725241244,0.6575214863,-0.2173022926,2024-06-04 15:24:25.144027
24.18432946,-0.06354228407,0.3881717324,-0.124809891,2024-06-04 15:24:25.184329
24.22463046,-0.02391620725,0.2730334401,-0.1308968365,2024-06-04 15:24:25.224630
24.26493246,0.01625739038,0.1034627929,-0.1297932118,2024-06-04 15:24:25.264932
24.30523346,0.07463379949,0.0567868948,0.02974716015,2024-06-04 15:24:25.305233
24.34553546,0.06804297119,0.01379389316,0.08551909775,2024-06-04 15:24:25.345535
24.38583646,0.07249101996,-0.07834136486,0.07351807505,2024-06-04 15:24:25.385836
24.42613846,-0.07753068954,-0.499214828,0.003838627134,2024-06-04 15:24:25.426138
24.46643946,-0.08379197866,-0.2333336025,0.1092691943,2024-06-04 15:24:25.466439
24.50674146,0.1118636578,0.03583101928,-0.03154121339,2024-06-04 15:24:25.506741
24.54704246,0.05226865038,-0.1239115,-0.02400207706,2024-06-04 15:24:25.547042
24.58734446,-0.04163691774,-0.2524742782,0.005238889251,2024-06-04 15:24:25.587344
24.62764546,-0.04400869459,-0.3335337341,0.006384578999,2024-06-04 15:24:25.627645
24.66794746,0.02580611221,-0.3427764773,0.04262540489,2024-06-04 15:24:25.667947
24.70824846,0.1373022348,-0.203534171,0.0270043537,2024-06-04 15:24:25.708248
24.74855046,0.1132419556,0.04054640979,0.06245132536,2024-06-04 15:24:25.748550
24.78885146,0.08130985498,0.002522596624,0.09379673004,2024-06-04 15:24:25.788851
24.82915346,0.1246506944,-0.01619758643,0.09554424137,2024-06-04 15:24:25.829153
24.86945421,0.1215698868,-0.1346227378,0.1391176134,2024-06-04 15:24:25.869454
24.90975621,0.2919079661,-0.2759023905,0.1456404626,2024-06-04 15:24:25.909756
24.95005821,0.5511539578,-0.1873168498,0.2297084779,2024-06-04 15:24:25.950058
24.99035921,0.5446206927,0.4033770561,0.3010438979,2024-06-04 15:24:25.990359
25.03066121,0.7163469195,0.4693680704,0.183451727,2024-06-04 15:24:26.030661
25.07096221,0.8407081962,0.8352591991,0.03755261004,2024-06-04 15:24:26.070962
25.11126421,0.7839120626,1.790425181,-0.1022782475,2024-06-04 15:24:26.111264
25.15156521,1.114520192,1.766625047,0.01559193898,2024-06-04 15:24:26.151565
25.19186721,1.208003521,0.9922856092,0.2301623076,2024-06-04 15:24:26.191867
25.23216821,1.117302895,0.7602875233,0.006541158073,2024-06-04 15:24:26.232168
25.27247021,1.007842779,0.4428363144,0.03624207526,2024-06-04 15:24:26.272470
25.31277121,0.4094792306,-0.5129487514,0.5327493548,2024-06-04 15:24:26.312771
25.35307321,-1.409883142,0.2104299963,1.052474022,2024-06-04 15:24:26.353073
25.39337421,-2.162074089,0.08880874515,1.064068079,2024-06-04 15:24:26.393374
25.43367621,-1.809859753,-0.5829350352,0.4477132261,2024-06-04 15:24:26.433676
25.47397721,-1.282019854,-2.427145481,-0.6233654022,2024-06-04 15:24:26.473977
25.51427921,0.078091003,-2.425536156,-0.803063035,2024-06-04 15:24:26.514279
25.55458021,-0.2787936926,0.7367243767,0.9214685559,2024-06-04 15:24:26.554580
25.59488221,0.004158569034,-1.805024743,-1.206314325,2024-06-04 15:24:26.594882
25.63518321,0.8719918132,-1.486299396,-0.5518009067,2024-06-04 15:24:26.635183
25.67548521,0.04833645746,-2.097305775,0.9497574568,2024-06-04 15:24:26.675485
25.71578621,2.056770325,-4.354053974,0.2095867097,2024-06-04 15:24:26.715786
25.75608821,0.3356829882,-0.9785497189,0.3592366278,2024-06-04 15:24:26.756088
25.79638921,-0.8115250468,0.6990308166,-0.1540237665,2024-06-04 15:24:26.796389
25.83669108,-0.8178930283,0.788905561,-0.2332431972,2024-06-04 15:24:26.836691
25.87699308,-0.394220084,0.7531656623,-0.1460372061,2024-06-04 15:24:26.876993
25.91729408,-0.2020254582,0.3246468306,-0.1694942862,2024-06-04 15:24:26.917294
25.95759608,-0.4239756763,0.9692183733,-0.4614771605,2024-06-04 15:24:26.957596
25.99789708,-0.05432657897,1.098917603,-0.2764037251,2024-06-04 15:24:26.997897
26.03819908,-0.08991888911,1.247569323,0.1992286146,2024-06-04 15:24:27.038199
26.07850008,0.1848962158,0.5735999346,0.4809924066,2024-06-04 15:24:27.078500
26.11880208,0.9894012213,-0.4820920229,-0.1049802974,2024-06-04 15:24:27.118802
26.15910308,-0.7533043623,3.829877853,0.1306889504,2024-06-04 15:24:27.159103
26.19940508,0.4522345066,0.2562246323,-0.05641197041,2024-06-04 15:24:27.199405
26.23970608,0.3125048876,0.2397135645,0.0875691697,2024-06-04 15:24:27.239706
26.28000808,0.9230734706,-0.02401394024,-0.3317998648,2024-06-04 15:24:27.280008
26.32030908,0.1704926491,-0.1469710171,-0.3289297521,2024-06-04 15:24:27.320309
26.36061108,-0.1342583597,-0.6060779095,-0.2549296021,2024-06-04 15:24:27.360611
26.40091208,-0.2118244022,-0.5746978521,-0.6560391784,2024-06-04 15:24:27.400912
26.44121408,-0.6292777658,-0.6155616641,-0.8661673665,2024-06-04 15:24:27.441214
26.48151608,-0.843346417,-1.420954943,-0.5517631769,2024-06-04 15:24:27.481516
26.52181708,-1.142026305,-1.93585813,-0.009069724008,2024-06-04 15:24:27.521817
26.56211908,-0.9370951056,-0.6091551781,0.412235409,2024-06-04 15:24:27.562119
26.60242008,-0.9678202271,-0.1868483871,0.2569800615,2024-06-04 15:24:27.602420
26.64272208,0.1273587942,0.7465871572,0.1750793308,2024-06-04 15:24:27.642722
26.68302308,0.2433363795,-0.1213820428,-0.09914400429,2024-06-04 15:24:27.683023
26.72332508,0.4325544834,0.02846337855,-0.2486581057,2024-06-04 15:24:27.723325
26.76362608,0.1559860557,0.773296237,0.0854812488,2024-06-04 15:24:27.763626
26.80392808,0.3466835022,-0.4272804558,0.3017376661,2024-06-04 15:24:27.803928
26.84422979,0.5199323893,-0.2362087667,0.3410499096,2024-06-04 15:24:27.844230
26.88453179,0.3164297342,0.1671810448,0.3320201933,2024-06-04 15:24:27.884532
26.92483379,0.02051136643,-0.1488051564,0.2341317087,2024-06-04 15:24:27.924834
26.96513479,-0.05873354152,-0.2844676375,0.1893772632,2024-06-04 15:24:27.965135
27.00543679,-0.1179264486,-0.1614024341,0.07505762577,2024-06-04 15:24:28.005437
27.04573779,-0.1698737592,-0.1054275781,-0.08093514293,2024-06-04 15:24:28.045738
27.08603979,-0.2154809982,0.3047074676,-0.3067213893,2024-06-04 15:24:28.086040
27.12634079,-0.3925862312,0.4691627324,-0.3249347806,2024-06-04 15:24:28.126341
27.16664279,-0.4608807266,0.2612614632,-0.2206810564,2024-06-04 15:24:28.166643
27.20694379,0.1626896709,-0.1147417128,-0.05750119314,2024-06-04 15:24:28.206944
27.24724579,0.4732755125,0.1985693276,0.1450582743,2024-06-04 15:24:28.247246
27.28754679,1.337139368,0.6420959234,0.1087042913,2024-06-04 15:24:28.287547
27.32784879,1.347770452,0.8769443631,0.1010487527,2024-06-04 15:24:28.327849
27.36815079,1.92639327,0.108680442,0.1492847204,2024-06-04 15:24:28.368151
27.40845179,1.620317459,0.4757934809,1.024685025,2024-06-04 15:24:28.408452
27.44875379,1.501618981,-1.49504745,1.699751854,2024-06-04 15:24:28.448754
27.48905479,0.2764510512,-1.364132047,1.417608619,2024-06-04 15:24:28.489055
27.52935679,-0.06478987634,-1.13194406,0.6566869617,2024-06-04 15:24:28.529357
27.56965779,-0.4866128564,-0.01696589217,-0.2918612361,2024-06-04 15:24:28.569658
27.60995979,-0.5636439323,-0.7428181767,-0.4278885722,2024-06-04 15:24:28.609960
27.65026079,-0.6534534097,-0.9933555722,-0.5830568671,2024-06-04 15:24:28.650261
27.69056279,-0.6171188951,-1.230213284,-0.9994497895,2024-06-04 15:24:28.690563
27.73086379,-0.09805279225,-1.056227446,-0.6552503705,2024-06-04 15:24:28.730864
27.77116579,-0.02859839052,-0.5800510645,-1.001825571,2024-06-04 15:24:28.771166
27.81146779,-0.5505273938,-0.6827942729,-0.06479375809,2024-06-04 15:24:28.811468
27.85176846,-0.4702607691,-0.5373478532,0.6331285834,2024-06-04 15:24:28.851768
27.89207046,-0.08609638363,0.5377662778,0.583681941,2024-06-04 15:24:28.892070
27.93237146,0.1288246363,-0.8183877468,0.1766015589,2024-06-04 15:24:28.932371
27.97267346,0.2469020188,-0.01237699483,-0.08331228793,2024-06-04 15:24:28.972673
28.01297446,-0.09814676642,0.2315161079,0.0402123183,2024-06-04 15:24:29.012974
28.05327646,-0.07707709074,-0.08111132681,0.3276789784,2024-06-04 15:24:29.053276
28.09357746,-0.430098027,-0.01486811507,0.3175544441,2024-06-04 15:24:29.093577
28.13387946,-0.3436460495,-0.2984303236,0.2054034173,2024-06-04 15:24:29.133879
28.17418046,-0.1368101537,-0.4643974602,0.2317766696,2024-06-04 15:24:29.174180
28.21448246,-0.220110327,-0.08143755794,0.1416265666,2024-06-04 15:24:29.214482
28.25478446,0.02213734202,0.6938269734,0.07007008046,2024-06-04 15:24:29.254784
28.29508546,-0.2149001956,1.398752689,0.02637587488,2024-06-04 15:24:29.295085
28.33538746,-0.0614653714,0.1065970659,-0.2780745924,2024-06-04 15:24:29.335387
28.37568846,0.04047571495,-0.3496466577,-0.427908808,2024-06-04 15:24:29.375688
28.41599046,0.1624126583,-0.1332972795,-0.5926215649,2024-06-04 15:24:29.415990
28.45629146,-0.1935610771,0.7796865106,-0.7490591407,2024-06-04 15:24:29.456291
28.49659346,-0.1374203712,0.8379442096,-0.5061061978,2024-06-04 15:24:29.496593
28.53689446,0.05270506814,0.1728951335,-0.3200771511,2024-06-04 15:24:29.536894
28.57719646,0.4615672827,-0.7682569623,-0.3890040219,2024-06-04 15:24:29.577196
28.61749846,0.07974832505,-0.04727026075,-0.2809952796,2024-06-04 15:24:29.617498
28.65779946,-0.07029443979,1.543055892,-0.4060213566,2024-06-04 15:24:29.657799
28.69810146,0.5442416668,1.076061487,-0.1564528197,2024-06-04 15:24:29.698101
28.73840246,0.682128787,0.5808831453,0.02847842686,2024-06-04 15:24:29.738402
28.77870446,0.4730500877,0.1857536733,0.3743769825,2024-06-04 15:24:29.778704
28.81900546,-0.0009424118907,0.486982733,0.4825407267,2024-06-04 15:24:29.819005
28.85930721,-0.2539076805,-0.1881085932,0.2106319964,2024-06-04 15:24:29.859307
28.89960821,-0.1783417165,-0.8002231121,0.1905067712,2024-06-04 15:24:29.899608
28.93991021,-0.2435309291,-1.152396083,0.001720056986,2024-06-04 15:24:29.939910
28.98021121,-0.3106979728,-0.7221443057,0.00989462994,2024-06-04 15:24:29.980211
29.02051321,-0.1956357658,-0.2876011133,0.4806115329,2024-06-04 15:24:30.020513
29.06081421,-0.3664266467,0.2496426255,0.4816091657,2024-06-04 15:24:30.060814
29.10111621,0.08285544068,-0.4135875404,0.1175353527,2024-06-04 15:24:30.101116
29.14141821,0.4215342104,0.2220576108,0.0706692785,2024-06-04 15:24:30.141418
29.18171921,0.2105171084,-0.07128690928,-0.1266405582,2024-06-04 15:24:30.181719
29.22202121,0.01800426841,0.227055043,0.05227191374,2024-06-04 15:24:30.222021
29.26232221,0.0008842879906,0.1793522239,0.1896462739,2024-06-04 15:24:30.262322
29.30262421,0.3220926225,-0.3142257929,0.1378600597,2024-06-04 15:24:30.302624
29.34292521,0.2994714379,-0.3523766398,0.1362280846,2024-06-04 15:24:30.342925
29.38322721,0.5868865848,-0.1302421093,0.3368163109,2024-06-04 15:24:30.383227
29.42352821,0.7654146552,1.02973485,0.7306690216,2024-06-04 15:24:30.423528
29.46383021,1.020430088,0.4007362723,0.4635375142,2024-06-04 15:24:30.463830
29.50413121,1.240246058,0.8890553713,0.2868357003,2024-06-04 15:24:30.504131
29.54443321,1.24391067,0.8727469444,0.1320405155,2024-06-04 15:24:30.544433
29.58473421,0.9554252625,0.7575351596,0.2381754965,2024-06-04 15:24:30.584734
29.62503621,0.5651311874,-0.1178701222,-0.06955438107,2024-06-04 15:24:30.625036
29.66533721,0.5128987432,-0.5402355194,0.09480473399,2024-06-04 15:24:30.665337
29.70563921,-0.03420357779,-1.111547947,-0.7060626745,2024-06-04 15:24:30.705639
29.74594121,-0.451169759,-2.235892773,-1.589452386,2024-06-04 15:24:30.745941
29.78624221,-2.32774353,-1.234115124,-1.749809265,2024-06-04 15:24:30.786242
29.82654421,-1.65661037,1.293756247,-1.715749264,2024-06-04 15:24:30.826544
29.86684533,0.07217647135,5.33306551,-1.302402973,2024-06-04 15:24:30.866845
29.90714733,-0.1536569297,1.757049918,1.265993476,2024-06-04 15:24:30.907147
29.94744833,2.143662691,-0.5801461935,1.072877526,2024-06-04 15:24:30.947448
29.98775033,4.126167774,0.3333026469,1.263710856,2024-06-04 15:24:30.987750
30.02805133,2.788036585,3.878395081,0.05587677658,2024-06-04 15:24:31.028051
30.06835333,4.215642452,1.646545529,1.484983325,2024-06-04 15:24:31.068353
30.10865433,4.875387669,0.6665865779,-2.586858749,2024-06-04 15:24:31.108654
30.14895633,5.03410244,0.1597071588,-3.130181551,2024-06-04 15:24:31.148956
30.18925733,5.094493389,-0.3969734013,-2.827563763,2024-06-04 15:24:31.189257
30.22955933,1.233478904,0.2245593965,-2.099665403,2024-06-04 15:24:31.229559
30.26986033,-0.7183735371,-0.3251298368,-1.533594131,2024-06-04 15:24:31.269860
30.31016233,-1.160194516,-0.1819519103,-1.092711568,2024-06-04 15:24:31.310162
30.35046333,-4.221033096,1.7008183,-2.822609186,2024-06-04 15:24:31.350463
30.39076433,-4.92066288,-0.05304293334,-2.18724227,2024-06-04 15:24:31.390764
30.43106633,-2.598296881,-2.618732452,3.780047894,2024-06-04 15:24:31.431066
30.47136833,-4.177845478,-1.8464185,-4.072946548,2024-06-04 15:24:31.471368
30.51166933,-9.757408142,-0.8856959343,-1.239940166,2024-06-04 15:24:31.511669
30.55197133,-8.745869637,1.375559568,-0.9347379208,2024-06-04 15:24:31.551971
30.59227233,-7.682933331,-6.539855957,0.8593242764,2024-06-04 15:24:31.592272
30.63257433,10.66610909,-7.55147934,-2.366889954,2024-06-04 15:24:31.632574
30.67287533,-3.704373837,5.427263737,0.06479040533,2024-06-04 15:24:31.672875
30.71317733,3.883022547,-5.360677719,3.045632601,2024-06-04 15:24:31.713177
30.75347833,3.397841692,-5.604605675,3.695798159,2024-06-04 15:24:31.753478
30.79378033,-0.3084730506,-2.751727581,-3.96226263,2024-06-04 15:24:31.793780
30.83408133,-1.169266939,-0.8272047043,-0.1461748481,2024-06-04 15:24:31.834081
30.87438379,-1.290120125,-2.162408113,-0.4101561308,2024-06-04 15:24:31.874384
30.91468479,-1.702023029,-3.441350698,0.4550468326,2024-06-04 15:24:31.914685
30.95498679,-1.652702689,-4.031529427,0.2624624372,2024-06-04 15:24:31.954987
30.99528779,0.2387344837,-4.201917648,-0.3392724097,2024-06-04 15:24:31.995288
31.03558979,0.2644096017,-2.143874645,-1.095072746,2024-06-04 15:24:32.035590
31.07589079,0.7181790471,-0.6741264462,-0.8786085844,2024-06-04 15:24:32.075891
31.11619279,0.4687756002,-2.108362675,-0.3649476469,2024-06-04 15:24:32.116193
31.15649379,0.5567488074,-2.294726849,-0.2393654883,2024-06-04 15:24:32.156494
31.19679579,1.312127471,-2.09557128,-0.4136835039,2024-06-04 15:24:32.196796
31.23709679,2.223839521,-1.03939569,-0.4779237211,2024-06-04 15:24:32.237097
31.27739879,2.811142206,-1.490047574,1.098260164,2024-06-04 15:24:32.277399
31.31769979,2.563918591,-2.480106831,-0.03717323393,2024-06-04 15:24:32.317700
31.35800179,3.030093193,0.8320810199,-2.179172516,2024-06-04 15:24:32.358002
31.39830279,6.058661461,1.040338397,-0.4169067144,2024-06-04 15:24:32.398303
31.43860479,4.009310246,2.70761323,0.02677059546,2024-06-04 15:24:32.438605
31.47890579,1.845234632,0.1300299466,1.426004767,2024-06-04 15:24:32.478906
31.51920779,3.089907408,-2.634249926,0.7350699306,2024-06-04 15:24:32.519208
31.55950879,1.122460723,-1.908943415,0.9346179366,2024-06-04 15:24:32.559509
31.59981079,-0.4634918571,-0.5893095732,1.750054955,2024-06-04 15:24:32.599811
31.64011179,0.06948937476,0.2789589763,2.068750858,2024-06-04 15:24:32.640112
31.68041379,-0.820082128,-1.170511961,2.187979698,2024-06-04 15:24:32.680414
31.72071479,3.154235363,-2.130616903,-1.755236745,2024-06-04 15:24:32.720715
31.76101679,1.511039138,3.448451996,1.835335732,2024-06-04 15:24:32.761017
31.80131779,-3.841676235,-0.4457428455,1.343493819,2024-06-04 15:24:32.801318
31.84161979,1.117204905,0.04412623122,-0.7143333554,2024-06-04 15:24:32.841620
31.88192004,-3.760311604,0.5458154082,-1.780663848,2024-06-04 15:24:32.881920
31.92222204,-3.081523418,0.2561852038,1.088878036,2024-06-04 15:24:32.922222
31.96252304,-1.215777636,-0.894880116,-0.1715747118,2024-06-04 15:24:32.962523
32.00282504,-2.088425159,-1.120853186,-0.8065902591,2024-06-04 15:24:33.002825
32.04312604,-1.562345862,0.09741686285,-0.8209162354,2024-06-04 15:24:33.043126
32.08342804,-2.23652935,1.377143741,-0.2843518555,2024-06-04 15:24:33.083428
32.12372904,-2.029141903,1.691571712,0.1576844156,2024-06-04 15:24:33.123729
32.16403104,-2.995059967,2.087203503,0.6510310173,2024-06-04 15:24:33.164031
32.20433204,-1.883849382,1.581446052,-0.1020824313,2024-06-04 15:24:33.204332
32.24463404,-2.285201073,2.239172935,-0.004378526937,2024-06-04 15:24:33.244634
32.28493504,-0.9974090457,1.606672764,0.1598106921,2024-06-04 15:24:33.284935
32.32523704,0.6217013597,1.139597774,-1.241438508,2024-06-04 15:24:33.325237
32.36553804,-1.658551812,2.604345322,-0.03031850792,2024-06-04 15:24:33.365538
32.40584004,0.1439890414,1.855564117,0.4366457462,2024-06-04 15:24:33.405840
32.44614104,-0.674315691,1.574911714,-0.2107324898,2024-06-04 15:24:33.446141
32.48644304,-0.03120800108,-0.9521434307,-0.4933125079,2024-06-04 15:24:33.486443
32.52674404,0.6819210649,-0.368771106,-0.2343230247,2024-06-04 15:24:33.526744
32.56704604,0.6077824235,1.149151087,-1.516669512,2024-06-04 15:24:33.567046
32.60734704,0.5192882419,2.154423952,-0.1769617498,2024-06-04 15:24:33.607347
32.64764804,1.130571485,1.331408262,-0.4241454303,2024-06-04 15:24:33.647648
32.68795004,2.367025375,1.249329805,-1.004048586,2024-06-04 15:24:33.687950
32.72825104,2.699589729,0.7346317172,-0.3844110966,2024-06-04 15:24:33.728251
32.76855304,1.69141686,1.102884531,0.04340098426,2024-06-04 15:24:33.768553
32.80885404,0.3054333627,1.620970249,0.5478255153,2024-06-04 15:24:33.808854
32.84915671,-0.865004003,1.496544719,0.7146169543,2024-06-04 15:24:33.849157
32.88945771,-1.689157486,1.042492747,0.3664376438,2024-06-04 15:24:33.889458
32.92975971,-2.028582335,0.8267562985,-0.2093689442,2024-06-04 15:24:33.929760
32.97006071,-1.134978652,0.5196905732,-1.125678778,2024-06-04 15:24:33.970061
33.01036271,-2.217291117,1.58404839,-0.9643082619,2024-06-04 15:24:34.010363
33.05066371,-2.254008055,2.053996563,0.1972451359,2024-06-04 15:24:34.050664
33.09096571,-1.346664071,0.561044395,-0.5541769266,2024-06-04 15:24:34.090966
33.13126671,-2.957751989,2.274877548,-0.3325710297,2024-06-04 15:24:34.131267
33.17156871,-1.40531671,1.758686066,-0.0096251918,2024-06-04 15:24:34.171569
33.21186971,-1.200797439,0.5195872188,0.2774837911,2024-06-04 15:24:34.211870
33.25217071,-1.229856014,0.6940637827,0.3977676034,2024-06-04 15:24:34.252171
33.29247271,-1.336408973,1.120641947,0.1145939529,2024-06-04 15:24:34.292473
33.33277371,-1.2880826,1.503447652,-0.2342726886,2024-06-04 15:24:34.332774
33.37307571,-1.391006589,1.819901466,-0.2367917746,2024-06-04 15:24:34.373076
33.41337671,-1.590877533,1.633990407,-0.2745660543,2024-06-04 15:24:34.413377
33.45367871,-0.7166133523,1.015066743,-0.2933642268,2024-06-04 15:24:34.453679
33.49397971,-0.7765368223,-0.1097640619,-0.4049123526,2024-06-04 15:24:34.493980
33.53428171,-1.283960104,0.1047935262,-0.3337494731,2024-06-04 15:24:34.534282
33.57458271,-1.412096858,0.2517360747,-0.1559182107,2024-06-04 15:24:34.574583
33.61488471,-0.8762272,0.9312410951,-0.06252462417,2024-06-04 15:24:34.614885
33.65518571,-0.2906662524,1.334797621,-0.2827368975,2024-06-04 15:24:34.655186
33.69548671,0.0513099134,0.7567009926,0.1800459474,2024-06-04 15:24:34.695487
33.73578871,0.2770248652,0.8468558788,0.473864764,2024-06-04 15:24:34.735789
33.77608971,-0.09513614327,1.497792125,0.3989111781,2024-06-04 15:24:34.776090
33.81639171,-0.01940755546,1.443964005,-0.01392273512,2024-06-04 15:24:34.816392
33.85669233,0.1608631313,1.111348033,-0.1810547411,2024-06-04 15:24:34.856692
33.89699433,0.1242448688,0.9535426497,-0.2142270803,2024-06-04 15:24:34.896994
33.93729533,0.306972146,0.3697958291,-0.2850290835,2024-06-04 15:24:34.937295
33.97759733,0.240313828,0.3488352001,-0.2199795097,2024-06-04 15:24:34.977597
34.01789833,0.3039735556,0.4677437544,-0.1355234832,2024-06-04 15:24:35.017898
34.05819933,0.6236847639,0.7619857788,-0.05096730217,2024-06-04 15:24:35.058199
34.09850133,1.190211177,0.5334807038,-0.0478021428,2024-06-04 15:24:35.098501
34.13880233,1.784864426,0.8946327567,0.2119295746,2024-06-04 15:24:35.138802
34.17910433,1.353616953,0.9840158224,0.537928164,2024-06-04 15:24:35.179104
34.21940533,0.7547658682,0.6163792014,0.7181131244,2024-06-04 15:24:35.219405
34.25970733,1.052776098,0.3446574807,0.6295614243,2024-06-04 15:24:35.259707
34.30000833,1.218867302,0.04106077552,0.566565156,2024-06-04 15:24:35.300008
34.34030933,1.145056009,-0.4204274416,0.5211060643,2024-06-04 15:24:35.340309
34.38061133,1.281068921,-0.3270016015,0.4961146712,2024-06-04 15:24:35.380611
34.42091233,0.7635797858,-0.3738474846,0.3000325561,2024-06-04 15:24:35.420912
34.46121433,0.3152241409,-0.3518132269,0.3295800388,2024-06-04 15:24:35.461214
34.50151533,0.07292868942,-0.627967298,0.08833546191,2024-06-04 15:24:35.501515
34.54181733,-0.3885520697,-0.7773501873,0.05456392094,2024-06-04 15:24:35.541817
34.58211833,-0.6019538641,-0.9000989795,-0.01054850314,2024-06-04 15:24:35.582118
34.62241933,-0.1416276544,-0.4102478027,0.2189696431,2024-06-04 15:24:35.622419
34.66272133,1.332346559,-0.1538535804,-0.1815378219,2024-06-04 15:24:35.662721
34.70302233,0.2028153986,-1.086713433,-0.003066618694,2024-06-04 15:24:35.703022
34.74332433,-1.161228895,-0.1427199543,-0.5732965469,2024-06-04 15:24:35.743324
34.78362533,-1.73077774,1.641298532,0.1438341439,2024-06-04 15:24:35.783625
34.82392633,-2.243788958,0.3657971025,0.2234381586,2024-06-04 15:24:35.823926
34.86422829,-2.346524954,0.6035385132,0.1588770151,2024-06-04 15:24:35.864228
34.90452929,-0.8069469929,0.2881883085,-0.3314026892,2024-06-04 15:24:35.904529
34.94483129,-0.112195231,-0.7525063157,-0.1788333803,2024-06-04 15:24:35.944831
34.98513229,-0.7969889641,0.3718250394,0.01967358217,2024-06-04 15:24:35.985132
35.02543329,-1.215955019,1.250186682,0.008113598451,2024-06-04 15:24:36.025433
35.06573529,-1.13255024,0.7241205573,-0.09682613611,2024-06-04 15:24:36.065735
35.10603629,-0.3345636427,0.4679916203,-0.1090282053,2024-06-04 15:24:36.106036
35.14633829,-0.06346090883,0.2931007743,0.06766907126,2024-06-04 15:24:36.146338
35.18663929,0.2990200818,0.6296169162,0.3023100793,2024-06-04 15:24:36.186639
35.22694029,1.346807957,1.691939116,0.2184164971,2024-06-04 15:24:36.226940
35.26724229,2.984238386,2.317972183,0.2195574045,2024-06-04 15:24:36.267242
35.30754329,4.446596146,-0.2137417197,-0.6324309707,2024-06-04 15:24:36.307543
35.34784529,3.93396759,1.255845904,-0.5863260627,2024-06-04 15:24:36.347845
35.38814629,0.6948061585,2.063309193,-0.1142637134,2024-06-04 15:24:36.388146
35.42844729,-0.1829296649,1.328463435,0.5826660991,2024-06-04 15:24:36.428447
35.46874929,0.6554152369,0.1937721968,-0.4455939829,2024-06-04 15:24:36.468749
35.50905029,-0.7791514397,-0.922280252,-1.597647071,2024-06-04 15:24:36.509050
35.54935229,7.709825516,-4.110108376,5.149899483,2024-06-04 15:24:36.549352
35.58965329,-2.266145706,2.226115465,-3.730499506,2024-06-04 15:24:36.589653
35.62995429,-1.848488808,-0.3377830386,-2.287148476,2024-06-04 15:24:36.629954
35.67025629,-2.120050192,-0.9703285098,-0.2308915257,2024-06-04 15:24:36.670256
35.71055729,-1.736992717,-1.43587327,0.5114014745,2024-06-04 15:24:36.710557
35.75085829,1.022905231,-2.839533806,0.006106368732,2024-06-04 15:24:36.750858
35.79116029,-0.98703444,-1.970436215,-0.3575443029,2024-06-04 15:24:36.791160
35.83146129,-1.558147788,-0.6934914589,-0.2776747644,2024-06-04 15:24:36.831461
35.87176392,-0.9458106756,-1.103143334,0.4482712448,2024-06-04 15:24:36.871764
35.91206492,-0.02765068226,-1.740404248,0.6430753469,2024-06-04 15:24:36.912065
35.95236592,0.362062037,-1.484209538,0.6105254292,2024-06-04 15:24:36.952366
35.99266792,-0.1067271307,-2.102205038,0.1824057698,2024-06-04 15:24:36.992668
36.03296892,-1.249395013,1.187844992,0.01628523879,2024-06-04 15:24:37.032969
36.07326992,-0.9747589231,-0.4255454242,0.454331547,2024-06-04 15:24:37.073270
36.11357192,0.03989431262,-1.570322037,0.1748714298,2024-06-04 15:24:37.113572
36.15387292,-0.3946465254,-1.394708872,-0.07016923279,2024-06-04 15:24:37.153873
36.19417392,0.1118942127,-0.8119823933,-0.05326454714,2024-06-04 15:24:37.194174
36.23447592,0.9313687682,1.026088834,0.1030792594,2024-06-04 15:24:37.234476
36.27477692,3.020598412,2.312658072,0.5267809629,2024-06-04 15:24:37.274777
36.31507792,1.387661934,0.7725740075,0.01003719307,2024-06-04 15:24:37.315078
36.35537992,3.260503531,1.528266311,-0.3551450372,2024-06-04 15:24:37.355380
36.39568092,1.886589408,1.004337668,0.5688690543,2024-06-04 15:24:37.395681
36.43598292,1.018126726,0.8603557944,0.3142580688,2024-06-04 15:24:37.435983
36.47628392,2.399959326,-0.8582972288,0.1888966858,2024-06-04 15:24:37.476284
36.51658492,1.368483305,-1.012510896,0.4302957058,2024-06-04 15:24:37.516585
36.55688692,-0.1094692573,-1.220244169,0.1712079644,2024-06-04 15:24:37.556887
36.59718792,0.1383721232,-0.4278762639,0.1984441131,2024-06-04 15:24:37.597188
36.63748892,1.309690475,-0.6963695288,0.05306854472,2024-06-04 15:24:37.637489
36.67779092,-1.965938568,-1.843534112,0.2606291771,2024-06-04 15:24:37.677791
36.71809192,-3.195052147,1.508527398,0.1240708157,2024-06-04 15:24:37.718092
36.75839292,-1.870785356,0.4429624081,-0.3002437055,2024-06-04 15:24:37.758393
36.79869492,-3.293387175,0.4630362988,0.3432625532,2024-06-04 15:24:37.798695
36.83899592,-2.521090031,-0.7928367257,0.3028589487,2024-06-04 15:24:37.838996
36.87929654,-1.744666219,-1.791299701,0.382106632,2024-06-04 15:24:37.879297
36.91959854,-0.6890547276,-1.952051401,-0.01305056829,2024-06-04 15:24:37.919599
36.95989954,-2.253586531,0.2420170605,-0.06552308798,2024-06-04 15:24:37.959900
37.00020054,-2.218049765,0.4194754958,0.1157428399,2024-06-04 15:24:38.000201
37.04050254,-1.593123317,0.1398917139,-0.09714626521,2024-06-04 15:24:38.040503
37.08080354,-0.8107459545,0.3693413436,0.07500737906,2024-06-04 15:24:38.080804
37.12110454,0.6844272614,1.872731447,0.06461811066,2024-06-04 15:24:38.121105
37.16140554,2.120201588,0.4851973355,0.8976700902,2024-06-04 15:24:38.161406
37.20170754,2.300184488,2.199263573,0.2653784156,2024-06-04 15:24:38.201708
37.24200854,2.340916157,2.321236372,0.16956532,2024-06-04 15:24:38.242009
37.28230954,2.252365112,1.038550019,-0.1351852715,2024-06-04 15:24:38.282310
37.32261154,1.927391887,1.104663968,0.3367529809,2024-06-04 15:24:38.322612
37.36291254,3.0879457,-0.2791811824,0.3813937008,2024-06-04 15:24:38.362913
37.40321354,2.713111401,-1.357402444,0.6901315451,2024-06-04 15:24:38.403214
37.44351554,2.138069868,-1.920934319,0.6031535268,2024-06-04 15:24:38.443516
37.48381654,0.6531999707,-1.490138054,0.6386300325,2024-06-04 15:24:38.483817
37.52411754,-1.172356248,-0.7899796367,0.7386431098,2024-06-04 15:24:38.524118
37.56441954,-2.032856464,-1.089604378,0.8438071012,2024-06-04 15:24:38.564420
37.60472054,1.37575686,-1.252236962,-0.1203607917,2024-06-04 15:24:38.604721
37.64502154,-1.980839133,-0.09284488112,0.496332258,2024-06-04 15:24:38.645022
37.68532254,-1.087966919,1.737293124,-0.4155120552,2024-06-04 15:24:38.685323
37.72562454,-3.37252903,1.246951699,0.338509053,2024-06-04 15:24:38.725625
37.76592554,-1.615666509,-0.6085156798,-0.106866017,2024-06-04 15:24:38.765926
37.80622654,-1.045565724,-1.51602304,0.1272008121,2024-06-04 15:24:38.806227
37.84652854,-0.9622551799,-0.968354702,0.2958934009,2024-06-04 15:24:38.846529
37.88682929,-1.344594836,-0.2772669792,0.02377108298,2024-06-04 15:24:38.886829
37.92713029,-1.516440749,0.2186692357,-0.08341769129,2024-06-04 15:24:38.927130
37.96743129,-1.607706189,-0.2896440625,0.1790525466,2024-06-04 15:24:38.967431
38.00773329,-1.158765197,-0.2928372622,-0.1134288609,2024-06-04 15:24:39.007733
38.04803429,-1.495494127,0.05876692012,-0.2687209845,2024-06-04 15:24:39.048034
38.08833529,-0.9971209764,-0.06222745031,-0.2232480347,2024-06-04 15:24:39.088335
38.12863729,-0.2139487416,0.8241757154,-0.05857145414,2024-06-04 15:24:39.128637
38.16893829,0.4220400453,-0.03861415386,0.8789812922,2024-06-04 15:24:39.168938
38.20923929,1.577087283,0.9923949838,0.2424693257,2024-06-04 15:24:39.209239
38.24954029,2.15442872,2.115237951,-0.01567328535,2024-06-04 15:24:39.249540
38.28984229,3.117240191,1.139768362,0.1051551402,2024-06-04 15:24:39.289842
38.33014329,1.883140802,0.8930391073,-0.2068919688,2024-06-04 15:24:39.330143
38.37044429,1.784035563,0.9342241883,0.2168073505,2024-06-04 15:24:39.370444
38.41074629,2.811926603,0.4247584939,0.415214479,2024-06-04 15:24:39.410746
38.45104729,2.979259253,-1.328185797,0.6342045665,2024-06-04 15:24:39.451047
38.49134829,2.41168642,-1.907352686,0.3518232107,2024-06-04 15:24:39.491348
38.53164929,1.316363335,-1.880148649,0.2773788273,2024-06-04 15:24:39.531649
38.57195129,-0.1700868458,-1.037317395,0.5323061943,2024-06-04 15:24:39.571951
38.61225229,-1.795883298,-0.718751967,0.6936247945,2024-06-04 15:24:39.612252
38.65255329,-1.833991528,-0.963059485,0.7754224539,2024-06-04 15:24:39.652553
38.69285429,2.671337605,-0.4644782841,0.02651358396,2024-06-04 15:24:39.692854
38.73315629,-2.704151154,-0.1613235325,0.198759377,2024-06-04 15:24:39.733156
38.77345729,-0.2648521662,0.7518725395,-0.4948809147,2024-06-04 15:24:39.773457
38.81375829,-3.245748281,0.9190583229,0.887955606,2024-06-04 15:24:39.813758
38.85405929,-1.808820486,-0.713223815,-0.1752390116,2024-06-04 15:24:39.854059
38.89436129,-2.248178959,0.4834722877,-0.05937629566,2024-06-04 15:24:39.894361
38.93466229,-1.465564251,-0.288156867,-0.1698503494,2024-06-04 15:24:39.934662
38.97496329,-1.420378804,-0.1056879386,0.2907800674,2024-06-04 15:24:39.974963
39.01526429,-1.507721066,0.3164939582,0.2146296948,2024-06-04 15:24:40.015264
39.05556629,-0.8931766152,0.8434055448,0.009219788015,2024-06-04 15:24:40.055566
39.09586729,-1.05652535,0.3920348287,-0.03014920466,2024-06-04 15:24:40.095867
39.13616829,-0.7073209882,0.1643671244,-0.01080292556,2024-06-04 15:24:40.136168
39.17646929,-0.9648948908,0.04689878598,0.1230414212,2024-06-04 15:24:40.176469
39.21677029,-1.116162062,0.04522601888,0.06943916529,2024-06-04 15:24:40.216770
39.25707229,-0.9311158657,-0.2149614096,-0.1771186888,2024-06-04 15:24:40.257072
39.29737329,-0.7151821256,0.3563353121,-0.2160155028,2024-06-04 15:24:40.297373
39.33767429,-0.1139951274,0.5258911848,-0.1445503533,2024-06-04 15:24:40.337674
39.37797529,0.7309577465,0.03807675093,0.3556514978,2024-06-04 15:24:40.377975
39.41827729,1.732357144,-0.3862332404,0.7867282629,2024-06-04 15:24:40.418277
39.45857829,2.973326445,1.805423141,-0.4088384509,2024-06-04 15:24:40.458578
39.49887929,2.722360611,0.01917141303,0.3619610667,2024-06-04 15:24:40.498879
39.53918029,2.175453424,0.4461060166,0.003351488616,2024-06-04 15:24:40.539180
39.57948229,2.306825876,0.6564316154,0.03288782015,2024-06-04 15:24:40.579482
39.61978329,2.745408297,-0.2000018358,0.4111011624,2024-06-04 15:24:40.619783
39.66008429,3.119118929,-1.76707375,0.9377012849,2024-06-04 15:24:40.660084
39.70038529,2.664646149,-2.609618425,0.8170659542,2024-06-04 15:24:40.700385
39.74068629,1.789476037,-1.815689564,0.6484510899,2024-06-04 15:24:40.740686
39.78098829,0.324909091,-1.316948175,0.6542763114,2024-06-04 15:24:40.780988
39.82128929,-1.255363345,-0.5785367489,0.6104738712,2024-06-04 15:24:40.821289
39.86159004,-1.729305506,-0.4543440044,0.3823866546,2024-06-04 15:24:40.861590
39.90189104,3.174773693,-0.1722119004,-0.791136086,2024-06-04 15:24:40.901891
39.94219204,-2.573669434,-0.03621477634,0.1452587694,2024-06-04 15:24:40.942192
39.98249404,-0.4349843264,1.30588913,-0.05326041207,2024-06-04 15:24:40.982494
40.02279504,-1.884340048,0.1660756916,0.3853861988,2024-06-04 15:24:41.022795
40.06309604,-2.621373892,1.184267163,0.3210753798,2024-06-04 15:24:41.063096
40.10339704,-2.848233938,0.7281339765,0.1426025331,2024-06-04 15:24:41.103397
40.14369804,-2.408665895,0.4169234931,0.06979306042,2024-06-04 15:24:41.143698
40.18400004,-0.7105255127,-0.4030987024,-6.990905968e-05,2024-06-04 15:24:41.184000
40.22430104,-1.277436614,0.366391778,0.1134995148,2024-06-04 15:24:41.224301
40.26460204,-1.779678464,1.440843701,-0.1144044995,2024-06-04 15:24:41.264602
40.30490304,-1.819051027,0.9585998058,-0.07690104097,2024-06-04 15:24:41.304903
40.34520404,-0.9231624007,0.4923214316,-0.1641192734,2024-06-04 15:24:41.345204
40.38550604,-1.436316609,0.0815038234,0.126918897,2024-06-04 15:24:41.385506
40.42580704,-1.517055988,1.100186944,0.1875335425,2024-06-04 15:24:41.425807
40.46610804,-1.253485799,0.4702023864,-0.06858985126,2024-06-04 15:24:41.466108
40.50640904,-0.757517755,1.255665541,0.05777288601,2024-06-04 15:24:41.506409
40.54671004,-0.1042579114,1.094676971,0.2272159308,2024-06-04 15:24:41.546710
40.58701204,0.513694644,0.7014691234,0.823725462,2024-06-04 15:24:41.587012
40.62731304,1.671906114,0.6003987789,0.4408049583,2024-06-04 15:24:41.627313
40.66761404,2.381394625,1.92835927,0.06218754873,2024-06-04 15:24:41.667614
40.70791504,2.327158451,0.5096446872,-0.09825725108,2024-06-04 15:24:41.707915
40.74821604,2.353883266,0.7864509225,-0.2716753781,2024-06-04 15:24:41.748216
40.78851804,1.944203138,1.2557621,-0.1471747458,2024-06-04 15:24:41.788518
40.82881904,2.931896687,0.0972295627,0.4277839363,2024-06-04 15:24:41.828819
40.86912021,2.850412846,-0.6458001137,0.6536817551,2024-06-04 15:24:41.869120
40.90942121,3.32835412,-2.092288733,0.6428176761,2024-06-04 15:24:41.909421
40.94972221,1.678352237,-1.538792372,0.5869109035,2024-06-04 15:24:41.949722
40.99002321,0.3861189485,-1.168682814,0.4253540337,2024-06-04 15:24:41.990023
41.03032521,-1.002960205,-1.194098711,0.5632647872,2024-06-04 15:24:42.030325
41.07062621,-1.56109488,-1.018761635,0.7355912924,2024-06-04 15:24:42.070626
41.11092721,-1.077560663,-0.8559072018,-0.02665710635,2024-06-04 15:24:42.110927
41.15122821,1.302888393,-0.2326653153,-0.797555387,2024-06-04 15:24:42.151228
41.19152921,-0.1168839112,0.2084413767,0.5300927162,2024-06-04 15:24:42.191529
41.23183021,-1.526821494,0.9108645916,0.1681867093,2024-06-04 15:24:42.231830
41.27213221,-2.760862827,0.7342987657,-0.1334221661,2024-06-04 15:24:42.272132
41.31243321,-1.950929165,1.040302157,0.3540700078,2024-06-04 15:24:42.312433
41.35273421,-1.421571493,-0.2113298327,0.0005489369505,2024-06-04 15:24:42.352734
41.39303521,-1.379359961,-0.5265735388,0.2280766517,2024-06-04 15:24:42.393035
41.43333621,-1.610706687,0.1319521517,0.3893408775,2024-06-04 15:24:42.433336
41.47363721,-1.537780166,1.286704183,0.009924603626,2024-06-04 15:24:42.473637
41.51393821,-1.926801205,1.177855015,-0.1285036057,2024-06-04 15:24:42.513938
41.55424021,-1.352764845,1.257283807,-0.1207702756,2024-06-04 15:24:42.554240
41.59454121,-0.8378311992,0.4082701802,-0.1669766307,2024-06-04 15:24:42.594541
41.63484221,-0.8434724212,0.286598444,-0.1170456111,2024-06-04 15:24:42.634842
41.67514321,-1.288473248,0.3983231187,0.07787115127,2024-06-04 15:24:42.675143
41.71544421,-1.181653857,0.7004967332,-0.02027780935,2024-06-04 15:24:42.715444
41.75574521,-1.48273921,0.8550114632,-0.07972409576,2024-06-04 15:24:42.755745
41.79604721,-1.095269084,0.7754182816,-0.02599457093,2024-06-04 15:24:42.796047
41.83634821,-1.063754678,0.9596062899,0.2503310442,2024-06-04 15:24:42.836348
41.87664892,-0.7533562779,1.403553009,0.1756543815,2024-06-04 15:24:42.876649
41.91694992,0.001323319273,0.7112898231,0.220081225,2024-06-04 15:24:42.916950
41.95725092,0.4560749531,-0.4636998475,0.9744439721,2024-06-04 15:24:42.957251
41.99755192,2.010476112,1.43969965,0.3066028357,2024-06-04 15:24:42.997552
42.03785292,1.849525809,0.527443409,0.06030037999,2024-06-04 15:24:43.037853
42.07815492,2.98647666,0.8756859303,-0.6527490616,2024-06-04 15:24:43.078155
42.11845592,2.43245554,2.159052134,-0.8420358896,2024-06-04 15:24:43.118456
42.15875692,2.118804932,1.89802444,-0.1366854459,2024-06-04 15:24:43.158757
42.19905792,2.436426163,1.241805434,0.2882187366,2024-06-04 15:24:43.199058
42.23935892,2.409320593,-0.5585814118,0.4900508821,2024-06-04 15:24:43.239359
42.27965992,2.760689497,-1.356968522,0.2930307984,2024-06-04 15:24:43.279660
42.31996092,0.9718207121,-1.434352636,0.2898693979,2024-06-04 15:24:43.319961
42.36026192,0.09664474428,-1.342480659,0.6016498804,2024-06-04 15:24:43.360262
42.40056392,-1.250597119,-1.195949078,0.7083494067,2024-06-04 15:24:43.400564
42.44086492,-0.6899552345,-1.395951509,0.696695745,2024-06-04 15:24:43.440865
42.48116592,1.366797447,-0.6947770119,0.1179218143,2024-06-04 15:24:43.481166
42.52146692,0.6866846085,-0.8686518073,0.2678325176,2024-06-04 15:24:43.521467
42.56176792,-0.7979447842,-0.01849604398,-0.7506809831,2024-06-04 15:24:43.561768
42.60206892,-3.057200909,0.6049473882,-0.6225320697,2024-06-04 15:24:43.602069
42.64236992,-2.480331659,1.922563672,0.6977331638,2024-06-04 15:24:43.642370
42.68267092,-2.400508404,-0.0312156789,0.06170431525,2024-06-04 15:24:43.682671
42.72297192,-1.008119345,-0.4262699485,0.01507106144,2024-06-04 15:24:43.722972
42.76327392,-0.300717473,-1.841084242,0.5805311799,2024-06-04 15:24:43.763274
42.80357492,-0.5149490833,0.0580720678,0.2620408833,2024-06-04 15:24:43.803575
42.84387592,-1.542213321,0.8021081686,-0.0800562948,2024-06-04 15:24:43.843876
42.88417704,-1.463183999,0.382868588,0.1912218183,2024-06-04 15:24:43.884177
42.92447804,-0.7947490811,-0.3461436033,0.07720576227,2024-06-04 15:24:43.924478
42.96477904,-1.130374908,-0.2801607847,-0.01181651186,2024-06-04 15:24:43.964779
43.00508004,-1.28532958,-0.1673321873,-0.08735646307,2024-06-04 15:24:44.005080
43.04538104,-0.7295870185,0.4198024869,0.01493577287,2024-06-04 15:24:44.045381
43.08568204,-0.2932836711,0.9448581934,-0.07241087407,2024-06-04 15:24:44.085682
43.12598304,0.855701685,-0.07260361314,0.1155979037,2024-06-04 15:24:44.125983
43.16628404,1.200213432,-0.7162882686,0.6417053342,2024-06-04 15:24:44.166284
43.20658504,2.551413059,-0.09545692056,-0.2065548748,2024-06-04 15:24:44.206585
43.24688704,2.926983356,0.2464835942,-0.1126821339,2024-06-04 15:24:44.246887
43.28718804,2.484740734,-0.122648336,0.1138873026,2024-06-04 15:24:44.287188
43.32748904,1.596655726,-0.09888900816,0.1823303252,2024-06-04 15:24:44.327489
43.36779004,1.959786892,-0.3346212208,0.1938442886,2024-06-04 15:24:44.367790
43.40809104,2.668246984,-0.7373663783,0.5066945553,2024-06-04 15:24:44.408091
43.44839204,1.967305779,-1.633118749,1.196840167,2024-06-04 15:24:44.448392
43.48869304,1.055011153,-2.157992601,1.095425963,2024-06-04 15:24:44.488693
43.52899404,0.6478338242,-2.132125854,0.6674130559,2024-06-04 15:24:44.528994
43.56929504,0.09384579957,-1.999125123,0.3515357673,2024-06-04 15:24:44.569295
43.60959604,0.6828331947,-2.411219835,0.518671751,2024-06-04 15:24:44.609596
43.64989704,0.4930544794,-3.006597519,0.5102599859,2024-06-04 15:24:44.649897
43.69019804,-0.6720117927,-2.447718859,1.086644411,2024-06-04 15:24:44.690198
43.73049904,-1.783517838,-2.049800158,0.3383965492,2024-06-04 15:24:44.730499
43.77080004,0.9332820773,-4.471814156,-1.361617923,2024-06-04 15:24:44.770800
43.81110104,-1.038243055,-0.7753559947,0.3909625411,2024-06-04 15:24:44.811101
43.85140204,-2.783815384,0.98192662,0.8555499315,2024-06-04 15:24:44.851402
43.89170521,1.855855584,-3.443416357,-0.4675183296,2024-06-04 15:24:44.891705
43.93200621,-1.693816185,-0.6899680495,0.7901669145,2024-06-04 15:24:44.932006
43.97230721,-0.7964152098,-1.208280325,0.8895659447,2024-06-04 15:24:44.972307
44.01260821,0.409160763,-3.56840682,-0.5569824576,2024-06-04 15:24:45.012608
44.05290921,0.2726122439,0.2051714212,-0.1217910498,2024-06-04 15:24:45.052909
44.09321021,0.2916312218,-0.5023868084,0.06789046526,2024-06-04 15:24:45.093210
44.13351121,0.3802991211,0.02844437957,0.1220226884,2024-06-04 15:24:45.133511
44.17381221,0.4523780346,-1.035413504,0.05564471707,2024-06-04 15:24:45.173812
44.21411321,0.3724492192,-1.316113591,0.04264793545,2024-06-04 15:24:45.214113
44.25441421,0.2232716978,-0.5271476507,-0.08086335659,2024-06-04 15:24:45.254414
44.29471521,0.1160950661,-0.2798503041,-0.1118396595,2024-06-04 15:24:45.294715
44.33501621,0.19820939,-0.3459724188,-0.05056587607,2024-06-04 15:24:45.335016
44.37531721,0.0231186226,-0.01633151434,0.01613216661,2024-06-04 15:24:45.375317
44.41561821,-0.06597091258,0.09263216704,-0.01288219728,2024-06-04 15:24:45.415618
44.45591921,-0.1532928646,0.2471691221,-0.05792634189,2024-06-04 15:24:45.455919
44.49622021,-0.1466052681,0.3392888308,-0.1124740243,2024-06-04 15:24:45.496220
44.53652121,-0.1900972873,0.3262590766,-0.1210147813,2024-06-04 15:24:45.536521
44.57682221,-0.3763813972,0.7068865299,0.003897775663,2024-06-04 15:24:45.576822
44.61712321,-0.3004156649,0.7513591647,-0.03759420663,2024-06-04 15:24:45.617123
44.65742421,-0.01068585459,0.5118821263,-0.1307206899,2024-06-04 15:24:45.657424
44.69772521,0.05550905317,0.5101892948,-0.1954373419,2024-06-04 15:24:45.697725
44.73802621,-0.06157610565,0.8310877085,-0.1163572297,2024-06-04 15:24:45.738026
44.77832721,-0.1853772402,0.9761366248,-0.01188857667,2024-06-04 15:24:45.778327
44.81862821,0.09863571823,0.8290783167,-0.09455706924,2024-06-04 15:24:45.818628
44.85892833,0.3804718256,0.9634974003,-0.2230397463,2024-06-04 15:24:45.858928
44.89922933,0.5063641071,1.165468454,-0.2494343072,2024-06-04 15:24:45.899229
44.93953033,0.9828569293,1.106207848,-0.2346093208,2024-06-04 15:24:45.939530
44.97983133,1.521367192,1.465098739,-0.2870794237,2024-06-04 15:24:45.979831
45.02013233,1.766520977,1.811226845,-0.07107760757,2024-06-04 15:24:46.020132
45.06043333,2.151559591,1.091795087,0.1983775944,2024-06-04 15:24:46.060433
45.10073433,0.8306734562,0.3210604489,0.141068995,2024-06-04 15:24:46.100734
45.14103533,0.5277862549,-0.5840211511,0.05900363252,2024-06-04 15:24:46.141035
45.18133633,0.1256962568,-0.2337420136,0.02036914043,2024-06-04 15:24:46.181336
45.22163733,-1.286247253,-0.09235250205,0.3350965083,2024-06-04 15:24:46.221637
45.26193833,-2.047966957,-0.3771525919,0.2954279184,2024-06-04 15:24:46.261938
45.30223933,-1.773847342,-1.130215883,-0.2155592293,2024-06-04 15:24:46.302239
45.34254033,-0.1054139882,-0.7048760653,-0.504786253,2024-06-04 15:24:46.342540
45.38284133,0.1201941893,0.8662896156,-0.2054145485,2024-06-04 15:24:46.382841
45.42314233,-0.8489409685,0.6157131195,-0.620847702,2024-06-04 15:24:46.423142
45.46344333,0.5526653528,-0.9287506938,-0.2462271452,2024-06-04 15:24:46.463443
45.50374433,-1.062080503,-1.367045283,0.1895187199,2024-06-04 15:24:46.503744
45.54404533,-1.658967614,-0.1108170748,0.5449694395,2024-06-04 15:24:46.544045
45.58434633,-0.3089507818,0.6824735403,0.5620883107,2024-06-04 15:24:46.584346
45.62464733,-0.5509279966,-1.241379261,0.2264884561,2024-06-04 15:24:46.624647
45.66494833,0.3067899346,-0.6255007386,-0.01305458881,2024-06-04 15:24:46.664948
45.70524933,1.477635503,-1.365983367,-0.2753230333,2024-06-04 15:24:46.705249
45.74555033,-0.1945189238,0.3355295658,0.1045803875,2024-06-04 15:24:46.745550
45.78585133,-0.1134592444,0.2959665358,0.2767808735,2024-06-04 15:24:46.785851
45.82615233,0.008312268183,-0.9247691631,0.05264551565,2024-06-04 15:24:46.826152
45.86645283,-0.01369335223,-0.866861403,0.004421594087,2024-06-04 15:24:46.866453
45.90675383,0.07347247005,0.0799760446,0.03755606711,2024-06-04 15:24:46.906754
45.94705483,0.09942030162,-0.1986793876,-0.02110141516,2024-06-04 15:24:46.947055
45.98735583,0.2443135828,-0.07533241063,-0.04959244654,2024-06-04 15:24:46.987356
46.02765683,0.02608597279,0.08250705898,0.0394503586,2024-06-04 15:24:47.027657
46.06795783,0.02453894354,-0.1499280334,0.04432367533,2024-06-04 15:24:47.067958
46.10825883,0.02357471734,-0.02860766649,0.0232849922,2024-06-04 15:24:47.108259
46.14855983,0.0190814659,0.09175658226,-0.01064207591,2024-06-04 15:24:47.148560
46.18886083,0.07759794593,0.1543319374,-0.04795452952,2024-06-04 15:24:47.188861
46.22916183,0.07811787724,0.1451841891,-0.06670114398,2024-06-04 15:24:47.229162
46.26946283,0.03656588122,0.1707562953,-0.05417864397,2024-06-04 15:24:47.269463
46.30976383,0.009611022659,0.1742129475,-0.03653231263,2024-06-04 15:24:47.309764
46.35006483,-0.04171362519,0.2190646976,-0.02207165398,2024-06-04 15:24:47.350065
46.39036583,-0.04238346964,0.1945192814,-0.00765698636,2024-06-04 15:24:47.390366
46.43066683,-0.09727677703,0.1892845929,0.007198132575,2024-06-04 15:24:47.430667
46.47096783,-0.0934144035,0.1878500134,-0.003305696649,2024-06-04 15:24:47.470968
46.51126883,-0.0584541522,0.2674743533,-0.02359762415,2024-06-04 15:24:47.511269
46.55156983,-0.05166735128,0.3125486374,-0.03161799908,2024-06-04 15:24:47.551570
46.59187083,0.006593696307,0.29500705,-0.052161064,2024-06-04 15:24:47.591871
46.63217183,0.003870579181,0.3569515944,-0.01644382067,2024-06-04 15:24:47.632172
46.67247283,0.04126256332,0.3797358274,0.004436455201,2024-06-04 15:24:47.672473
46.71277383,0.1759866476,0.2890142798,-0.03400758654,2024-06-04 15:24:47.712774
46.75307483,0.3756586909,0.08019609749,-0.02974260226,2024-06-04 15:24:47.753075
46.79337583,0.4079498649,0.2279189229,-0.01235598233,2024-06-04 15:24:47.793376
46.83367683,0.4902041852,0.1941698343,-0.02938413247,2024-06-04 15:24:47.833677
46.87397754,0.3797156215,0.4307793081,-0.05093659833,2024-06-04 15:24:47.873978
46.91427854,0.300560087,0.6089625359,-0.09496126324,2024-06-04 15:24:47.914279
46.95457954,-0.3120726347,0.8789311647,0.03132148087,2024-06-04 15:24:47.954580
46.99488054,-0.5850500464,0.639611721,0.1695364267,2024-06-04 15:24:47.994881
47.03518154,-0.3603181243,0.6027194858,0.009242614731,2024-06-04 15:24:48.035182
47.07548254,-0.3925073743,0.6944320798,-0.03888931498,2024-06-04 15:24:48.075483
47.11578354,-0.6322404742,0.8444327116,0.02763706073,2024-06-04 15:24:48.115784
47.15608454,-0.6217763424,0.7950131297,-0.07242839038,2024-06-04 15:24:48.156085
47.19638554,-0.2987783253,0.4224251807,-0.1467350423,2024-06-04 15:24:48.196386
47.23668654,-0.1652576774,0.3030679822,0.04808133468,2024-06-04 15:24:48.236687
47.27698754,-0.06612213701,0.2050101012,0.2766406834,2024-06-04 15:24:48.276988
47.31728854,0.1550332755,0.2410880625,0.02126085572,2024-06-04 15:24:48.317289
47.35758954,-0.6086630225,0.7323358655,0.04478722811,2024-06-04 15:24:48.357590
47.39789054,-0.6119086146,0.4132545888,0.0047960761,2024-06-04 15:24:48.397891
47.43819154,-0.3524290919,-0.271145314,0.01908153854,2024-06-04 15:24:48.438192
47.47849254,-0.5439293385,0.04225065187,-0.2473925054,2024-06-04 15:24:48.478493
47.51879254,-0.7467045784,0.3632119,-0.2889987826,2024-06-04 15:24:48.518793
47.55909354,-0.5695562959,0.258741796,-0.1318176836,2024-06-04 15:24:48.559094
47.59939454,-0.2114650905,0.158445701,-0.1911912858,2024-06-04 15:24:48.599395
47.63969554,-0.2058525234,0.733132422,-0.3051929772,2024-06-04 15:24:48.639696
47.67999654,-0.3164181709,1.414878249,-0.3524313271,2024-06-04 15:24:48.679997
47.72029754,-0.239751026,1.434428453,-0.3598841429,2024-06-04 15:24:48.720298
47.76059854,-0.09629718214,1.64544642,-0.2769545913,2024-06-04 15:24:48.760599
47.80089954,0.5432308316,2.433160782,0.05913265422,2024-06-04 15:24:48.800900
47.84120054,2.876695633,1.449050903,-0.2100207061,2024-06-04 15:24:48.841201
47.88150121,1.976866126,2.49906683,-0.3983964026,2024-06-04 15:24:48.881501
47.92180221,1.477891684,1.21797502,-0.4104727805,2024-06-04 15:24:48.921802
47.96210321,0.8776512742,0.1173692644,-0.8023361564,2024-06-04 15:24:48.962103
48.00240421,-1.266211152,0.8281913996,0.3427885175,2024-06-04 15:24:49.002404
48.04270421,-2.263875008,0.9207561612,0.7141174674,2024-06-04 15:24:49.042704
48.08300521,0.7292770147,-2.237420797,-0.1277519315,2024-06-04 15:24:49.083005
48.12330621,1.493451595,0.1189085469,-0.6118932366,2024-06-04 15:24:49.123306
48.16360721,-1.0222224,0.747317791,0.2157005221,2024-06-04 15:24:49.163607
48.20390821,1.639657497,-1.55141139,-0.195484668,2024-06-04 15:24:49.203908
48.24420921,-0.5552960038,-0.5176793337,0.3775483668,2024-06-04 15:24:49.244209
48.28451021,0.2895182371,-0.6605319977,0.3932057917,2024-06-04 15:24:49.284510
48.32481121,-0.09064727277,-0.5467293262,0.1455940902,2024-06-04 15:24:49.324811
48.36511221,-0.3213007748,0.02246082947,-0.2515364885,2024-06-04 15:24:49.365112
48.40541321,-0.06670797616,-0.3217600584,0.02375849523,2024-06-04 15:24:49.405413
48.44571321,-0.04930449277,-0.3715606332,0.06980001926,2024-06-04 15:24:49.445713
48.48601421,-0.09070216119,-0.1193964779,0.03677498549,2024-06-04 15:24:49.486014
48.52631521,-0.1458582878,0.1297585219,-0.01969785988,2024-06-04 15:24:49.526315
48.56661621,-0.1425818652,-0.05389497429,-0.05310750008,2024-06-04 15:24:49.566616
48.60691721,-0.1280393898,0.002515153028,-0.05113768205,2024-06-04 15:24:49.606917
48.64721821,-0.1312973052,0.01963096485,-0.03495286778,2024-06-04 15:24:49.647218
48.68751921,-0.1685414761,0.008536575362,-0.02662186883,2024-06-04 15:24:49.687519
48.72782021,-0.08058751374,-0.00444724597,0.03469578549,2024-06-04 15:24:49.727820
48.76812121,0.01734953001,-0.1071676388,-0.01547288522,2024-06-04 15:24:49.768121
48.80842221,-0.1034701988,-0.02934007905,0.003831611248,2024-06-04 15:24:49.808422
48.84872221,-0.02617267706,-0.03432865441,0.02791406028,2024-06-04 15:24:49.848722
48.88902304,-0.004060545005,0.0608869493,0.00331900944,2024-06-04 15:24:49.889023
48.92932404,0.04091623798,0.1127097458,0.01192195248,2024-06-04 15:24:49.929324
48.96962504,0.1118512005,-0.03585250676,-0.02042931132,2024-06-04 15:24:49.969625
49.00992604,0.001800335362,0.05834079906,-0.005401560105,2024-06-04 15:24:50.009926
49.05022704,0.06963090599,0.001603675075,0.009304847568,2024-06-04 15:24:50.050227
49.09052804,-0.117354013,0.003746797331,-0.03391202912,2024-06-04 15:24:50.090528
49.13082904,0.005503058434,0.01901405305,-0.01059449092,2024-06-04 15:24:50.130829
49.17112904,-0.007172624581,0.03934081271,-0.01469045691,2024-06-04 15:24:50.171129
49.21143004,-0.07982309908,0.009323588572,-0.03395422548,2024-06-04 15:24:50.211430
49.25173104,0.09640184045,-0.00954269059,-0.006304463837,2024-06-04 15:24:50.251731
49.29203204,-0.02507106587,0.08178056777,-0.03384261578,2024-06-04 15:24:50.292032
49.33233304,0.01930003054,0.1010630578,0.02428970672,2024-06-04 15:24:50.332333
49.37263404,-0.001230918104,0.05312584341,0.02514155768,2024-06-04 15:24:50.372634
49.41293504,-0.01640271768,0.04288225248,-0.03108744137,2024-06-04 15:24:50.412935
49.45323604,0.06171975285,0.06571507454,0.02563768625,2024-06-04 15:24:50.453236
49.49353604,0.02375219949,0.0958327949,-0.05126579478,2024-06-04 15:24:50.493536
49.53383704,0.1904050261,-0.006814814173,0.1634648591,2024-06-04 15:24:50.533837
49.57413804,0.8182848692,0.9954384565,0.3453637362,2024-06-04 15:24:50.574138
49.61443904,-0.3606210053,1.863604546,0.181051001,2024-06-04 15:24:50.614439
49.65474004,1.030409575,1.168025136,0.06301999837,2024-06-04 15:24:50.654740
49.69504104,0.4144601226,4.625837326,-2.188248158,2024-06-04 15:24:50.695041
49.73534204,3.591402054,0.7711299658,-2.011591434,2024-06-04 15:24:50.735342
49.77564204,1.906973958,-2.203695774,-1.242524743,2024-06-04 15:24:50.775642
49.81594304,2.222527504,-0.7388270497,0.03437227756,2024-06-04 15:24:50.815943
49.85624404,-0.8293278813,-1.224117398,-0.1673648804,2024-06-04 15:24:50.856244
49.89654567,-1.15895772,0.2792981565,-0.9311605692,2024-06-04 15:24:50.896546
49.93684667,-1.710234642,0.1947530359,-2.129000425,2024-06-04 15:24:50.936847
49.97714767,-3.028636694,0.3053734004,-2.598228216,2024-06-04 15:24:50.977148
50.01744767,-2.666807413,2.529723167,-1.534280181,2024-06-04 15:24:51.017448
50.05774867,-4.026612282,3.878522158,1.043094993,2024-06-04 15:24:51.057749
50.09804967,-1.70159924,1.604351282,-0.09480662644,2024-06-04 15:24:51.098050
50.13835067,-4.000565529,1.560349226,0.8924140334,2024-06-04 15:24:51.138351
50.17865167,-3.14354372,-1.695282578,0.5989503264,2024-06-04 15:24:51.178652
50.21895267,-3.930498838,-2.176921129,0.7486433983,2024-06-04 15:24:51.218953
50.25925267,-1.411501884,-4.019707203,0.2595039904,2024-06-04 15:24:51.259253
50.29955367,1.538521171,1.248681307,-0.02937233821,2024-06-04 15:24:51.299554
50.33985467,1.972191453,3.015724421,-0.3364479244,2024-06-04 15:24:51.339855
50.38015567,0.1918761432,3.951140404,1.778947711,2024-06-04 15:24:51.380156
50.42045667,4.856494427,3.792719126,2.028250456,2024-06-04 15:24:51.420457
50.46075767,8.858308792,-2.094158173,1.057597637,2024-06-04 15:24:51.460758
50.50105867,3.909461737,-4.437108994,1.531789184,2024-06-04 15:24:51.501059
50.54135867,-0.003125393298,-3.976286411,-0.03176384792,2024-06-04 15:24:51.541359
50.58165967,-3.066588879,-2.762578011,0.7049969435,2024-06-04 15:24:51.581660
50.62196067,1.706268191,-2.520400524,-0.09374028444,2024-06-04 15:24:51.621961
50.66226167,0.6760271788,0.661529839,0.04432683066,2024-06-04 15:24:51.662262
50.70256267,4.057849407,2.917459011,2.604464293,2024-06-04 15:24:51.702563
50.74286267,4.350041389,-3.654511452,-1.00598526,2024-06-04 15:24:51.742863
50.78316367,0.4119797051,-0.7017320395,0.3590293527,2024-06-04 15:24:51.783164
50.82346467,-0.6439675689,-0.09827834368,0.4074104428,2024-06-04 15:24:51.823465
50.86376542,-1.362597227,-0.01978016272,0.8101806641,2024-06-04 15:24:51.863765
50.90406642,-1.71336329,-0.3332698941,0.8038864136,2024-06-04 15:24:51.904066
50.94436642,-1.389142752,-1.022564888,0.8036717772,2024-06-04 15:24:51.944366
50.98466742,-2.158821344,-0.6728743315,0.6244056225,2024-06-04 15:24:51.984667
51.02496842,-2.225971222,-1.240240097,1.039283752,2024-06-04 15:24:52.024968
51.06526942,-2.456545591,-1.299570322,1.042633176,2024-06-04 15:24:52.065269
51.10557042,-1.706723571,-1.832456112,0.798961401,2024-06-04 15:24:52.105570
51.14587042,-0.8373789787,-2.420644283,0.9387316108,2024-06-04 15:24:52.145870
51.18617142,-2.545564651,-1.294626236,0.8478839397,2024-06-04 15:24:52.186171
51.22647242,-0.9178291559,-0.9982578754,-0.2630758882,2024-06-04 15:24:52.226472
51.26677342,1.186306715,-1.642244339,-0.1472536325,2024-06-04 15:24:52.266773
51.30707442,-1.070475936,1.154945135,1.084439993,2024-06-04 15:24:52.307074
51.34737442,-1.196810126,2.529118538,0.4093875587,2024-06-04 15:24:52.347374
51.38767542,0.406032443,-0.7015436292,-0.6200234294,2024-06-04 15:24:52.387675
51.42797642,-0.8415870667,3.949990273,0.6595264673,2024-06-04 15:24:52.427976
51.46827742,4.582766056,1.544311285,0.3530400097,2024-06-04 15:24:52.468277
51.50857842,4.30014801,-0.5066838264,-0.9820156693,2024-06-04 15:24:52.508578
51.54887842,3.087835073,1.183587551,0.4076190889,2024-06-04 15:24:52.548878
51.58917942,1.315285087,-0.1694226414,1.564599872,2024-06-04 15:24:52.589179
51.62948042,2.457199574,-2.430774212,0.1017222777,2024-06-04 15:24:52.629480
51.66978142,0.09804300219,-2.337939501,0.5363631845,2024-06-04 15:24:52.669781
51.71008242,-0.5594071746,-3.038268805,0.817535162,2024-06-04 15:24:52.710082
51.75038242,-1.889443636,-3.398200274,1.089853287,2024-06-04 15:24:52.750382
51.79068342,-2.657427549,-4.763548851,0.700776875,2024-06-04 15:24:52.790683
51.83098442,1.384427428,-2.330310345,0.02498003282,2024-06-04 15:24:52.830984
51.87128517,1.196369171,-1.670688748,0.2698560357,2024-06-04 15:24:52.871285
51.91158517,-0.3975962698,0.8185648918,-0.03415433317,2024-06-04 15:24:52.911585
51.95188617,-0.9852869511,-0.6181184649,0.7599680424,2024-06-04 15:24:52.951886
51.99218717,1.655128837,-2.093590736,0.03420633078,2024-06-04 15:24:52.992187
52.03248817,-0.4626280367,-0.7132359147,0.2718338072,2024-06-04 15:24:53.032488
52.07278917,-0.694876492,-0.7781963348,0.1152487025,2024-06-04 15:24:53.072789
52.11308917,-0.3016068041,-0.9331186414,-0.01113262679,2024-06-04 15:24:53.113089
52.15339017,-0.2408847362,-0.9497017264,0.1340298504,2024-06-04 15:24:53.153390
52.19369117,-0.2246489674,-0.7959006429,0.02874740027,2024-06-04 15:24:53.193691
52.23399217,-0.2113796026,-0.9253636599,-0.0128701143,2024-06-04 15:24:53.233992
52.27429217,0.1256263554,-0.9535742998,0.1016685218,2024-06-04 15:24:53.274292
52.31459317,1.039619327,-1.3499403,0.1741280109,2024-06-04 15:24:53.314593
52.35489417,2.196317673,-0.5000265241,0.2334114611,2024-06-04 15:24:53.354894
52.39519517,3.472000837,1.294872165,0.08063746244,2024-06-04 15:24:53.395195
52.43549617,1.030618548,1.581821442,0.2016634941,2024-06-04 15:24:53.435496
52.47579617,2.133399725,1.784294128,0.2148317844,2024-06-04 15:24:53.475796
52.51609717,2.068655729,0.0006940397434,0.3402529359,2024-06-04 15:24:53.516097
52.55639817,1.425128698,0.3138848841,0.5297985077,2024-06-04 15:24:53.556398
52.59669917,1.5508641,-0.6726397276,0.8421307802,2024-06-04 15:24:53.596699
52.63699917,1.000844479,-1.234589696,0.800209403,2024-06-04 15:24:53.636999
52.67730017,-0.5836466551,-1.528892875,0.5652245283,2024-06-04 15:24:53.677300
52.71760117,-1.399906874,-2.488843203,-0.2111151963,2024-06-04 15:24:53.717601
52.75790217,1.880491138,-0.5396136045,-0.2142254263,2024-06-04 15:24:53.757902
52.79820217,-1.73870039,-1.198510528,0.1240757629,2024-06-04 15:24:53.798202
52.83850317,0.01500040945,1.826499701,0.5876060724,2024-06-04 15:24:53.838503
52.87880446,-0.5938484073,-1.194127798,0.3842488527,2024-06-04 15:24:53.878804
52.91910546,-0.1611869931,-1.289464474,0.1776368022,2024-06-04 15:24:53.919105
52.95940546,-0.5166336894,-0.6097161174,0.3886591494,2024-06-04 15:24:53.959405
52.99970646,-0.2256160229,-0.4998565614,0.009733306244,2024-06-04 15:24:53.999706
53.04000746,-0.249986276,-0.5955886245,0.05788212642,2024-06-04 15:24:54.040007
53.08030846,-0.1266105175,-0.5268720388,0.08450753242,2024-06-04 15:24:54.080308
53.12060846,-0.4845046997,-0.1489412636,0.004825856071,2024-06-04 15:24:54.120608
53.16090946,-0.3667950034,-0.3976950049,-0.01067973673,2024-06-04 15:24:54.160909
53.20121046,-0.2149869502,-0.3771416843,-0.1050519124,2024-06-04 15:24:54.201210
53.24151146,-0.2433260828,-0.2012355179,-0.02071001008,2024-06-04 15:24:54.241511
53.28181146,-0.13735044,-0.4422591925,-0.007325785235,2024-06-04 15:24:54.281811
53.32211246,0.01129778568,-0.4228863418,-0.1324970573,2024-06-04 15:24:54.322112
53.36241346,-0.4572578669,0.3124397099,-0.1384481192,2024-06-04 15:24:54.362413
53.40271346,0.1617620587,-0.3136345148,-0.180581063,2024-06-04 15:24:54.402713
53.44301446,-0.003989058547,-0.3200364113,-0.04037832096,2024-06-04 15:24:54.443014
53.48331546,-0.2518001795,-0.1516503245,-0.08163840324,2024-06-04 15:24:54.483315
53.52361646,0.1161448434,-0.624812007,-0.1227299944,2024-06-04 15:24:54.523616
53.56391646,-0.04614466801,-0.322247535,-0.1109208986,2024-06-04 15:24:54.563916
53.60421746,-0.0756386444,-0.3574425578,-0.0481095314,2024-06-04 15:24:54.604217
53.64451846,0.4964568317,-0.8735812902,-0.05993538722,2024-06-04 15:24:54.644518
53.68481946,0.6838734746,-0.5750876069,-0.04437074065,2024-06-04 15:24:54.684819
53.72511946,1.081562281,-0.01036463212,0.1033483893,2024-06-04 15:24:54.725119
53.76542046,1.640941381,0.7283161283,0.1440106034,2024-06-04 15:24:54.765420
53.80572146,1.950980783,1.645249963,0.3952333331,2024-06-04 15:24:54.805721
53.84602146,0.8911529779,1.176407218,0.5533872247,2024-06-04 15:24:54.846021
53.88632246,1.978326678,-0.2134737521,0.01331661921,2024-06-04 15:24:54.886322
53.92662346,1.973819971,-0.8081275821,0.1435764134,2024-06-04 15:24:54.926623
53.96692446,0.45478791,-0.04110326245,0.269035399,2024-06-04 15:24:54.966924
54.00722446,0.03909993172,-0.2594555914,0.4726775587,2024-06-04 15:24:55.007224
54.04752546,-0.5937299728,-0.6097733378,0.567373991,2024-06-04 15:24:55.047525
54.08782646,-1.519266486,-1.411969662,0.2971771359,2024-06-04 15:24:55.087826
54.12812646,0.347453326,-0.9916644692,-0.4185402095,2024-06-04 15:24:55.128126
54.16842746,0.5038087368,-0.2949288487,-0.3038508296,2024-06-04 15:24:55.168427
54.20872846,-0.06793084741,0.08237182349,-0.3332264721,2024-06-04 15:24:55.208728
54.24902946,-0.3911202252,-0.212423712,0.08755515516,2024-06-04 15:24:55.249029
54.28932946,-0.6614041328,0.1328267008,0.5972624421,2024-06-04 15:24:55.289329
54.32963046,-0.787640214,0.213183254,0.428573519,2024-06-04 15:24:55.329630
54.36993146,-0.08573397994,-0.5364736915,-0.1519472748,2024-06-04 15:24:55.369931
54.41023146,-0.3689670563,-0.1473859251,0.09052109718,2024-06-04 15:24:55.410231
54.45053246,-0.1087461486,-0.5124590397,0.07945058495,2024-06-04 15:24:55.450532
54.49083346,-0.39082551,-0.08195582777,-0.1568687409,2024-06-04 15:24:55.490833
54.53113346,-0.3448940814,0.9556766152,-0.02802575007,2024-06-04 15:24:55.531133
54.57143446,0.5096513629,1.615674376,0.3457021713,2024-06-04 15:24:55.571434
54.61173546,1.910193324,1.279459834,-0.5641276836,2024-06-04 15:24:55.611735
54.65203546,1.499439597,0.6667391062,-0.6148626804,2024-06-04 15:24:55.652035
54.69233646,2.72336483,-0.12045452,-0.3379684985,2024-06-04 15:24:55.692336
54.73263746,2.195756435,-0.3967318833,-0.1225229353,2024-06-04 15:24:55.732637
54.77293846,0.5156995058,-0.6056905389,-0.04424104467,2024-06-04 15:24:55.772938
54.81323846,-0.8488602638,-0.6047008038,0.2847209871,2024-06-04 15:24:55.813238
54.85353946,-1.966309905,0.4120869935,-1.148011088,2024-06-04 15:24:55.853539
54.89384154,-2.008876085,-0.9546875358,-2.130647421,2024-06-04 15:24:55.893842
54.93414154,-2.16722846,2.742860317,0.6192640662,2024-06-04 15:24:55.934142
54.97444254,-0.2501091361,-0.89815557,0.7137148976,2024-06-04 15:24:55.974443
55.01474354,-3.010675907,-0.9125926495,0.2691802979,2024-06-04 15:24:56.014744
55.05504354,-1.589451075,-1.234149694,-0.4940498471,2024-06-04 15:24:56.055044
55.09534454,-0.2089383602,0.9332501292,-0.3517389297,2024-06-04 15:24:56.095345
55.13564554,-0.04360303283,4.704619408,-0.7652524114,2024-06-04 15:24:56.135646
55.17594554,-1.132317781,4.422544003,-0.5039629936,2024-06-04 15:24:56.175946
55.21624654,2.109942198,-0.621745944,-0.9875077605,2024-06-04 15:24:56.216247
55.25654754,0.4137637913,-0.1321638077,-0.8649029732,2024-06-04 15:24:56.256548
55.29684754,-2.6291008,1.168042183,2.09286952,2024-06-04 15:24:56.296848
55.33714854,-2.453233719,0.8346814513,-0.8717673421,2024-06-04 15:24:56.337149
55.37744954,-1.555695534,-1.236327291,0.3680760562,2024-06-04 15:24:56.377450
55.41774954,-1.545932055,-0.2645916343,0.1039856076,2024-06-04 15:24:56.417750
55.45805054,-1.872814775,0.4664088488,-0.3589860201,2024-06-04 15:24:56.458051
55.49835154,-0.7234911919,1.934773922,-0.6122629642,2024-06-04 15:24:56.498352
55.53865154,0.4524503648,2.319201231,-0.1457540691,2024-06-04 15:24:56.538652
55.57895254,2.960757494,2.535096884,-0.6002905965,2024-06-04 15:24:56.578953
55.61925354,1.996344566,0.5503969193,-0.2281386256,2024-06-04 15:24:56.619254
55.65955354,-0.7330574393,-0.3869464993,1.123404145,2024-06-04 15:24:56.659554
55.69985454,-1.352663994,-0.96420753,-0.6523244381,2024-06-04 15:24:56.699855
55.74015454,-2.252309322,-3.226125717,-0.02836318314,2024-06-04 15:24:56.740155
55.78045554,0.4171539545,0.03336962685,0.2564682066,2024-06-04 15:24:56.780456
55.82075654,-1.255544305,0.2247942835,1.495032787,2024-06-04 15:24:56.820757
55.86105654,-2.48319912,-0.8230062723,-0.006290963385,2024-06-04 15:24:56.861057
55.90135629,-0.3541895747,-3.207632303,1.64490509,2024-06-04 15:24:56.901356
55.94165729,1.696552753,-1.521127343,0.5938199162,2024-06-04 15:24:56.941657
55.98195729,-1.900898099,1.531250358,-1.468160868,2024-06-04 15:24:56.981957
56.02225829,-0.4230891764,2.064357519,-0.03211193904,2024-06-04 15:24:57.022258
56.06255929,2.621184826,3.037436008,0.6294164062,2024-06-04 15:24:57.062559
56.10285929,1.60010016,3.209182978,1.0767138,2024-06-04 15:24:57.102859
56.14316029,1.880919814,-1.63337779,0.5102578402,2024-06-04 15:24:57.143160
56.18346129,7.000404358,-0.08528541028,-0.7995239496,2024-06-04 15:24:57.183461
56.22376129,1.189572334,1.102186799,1.549882293,2024-06-04 15:24:57.223761
56.26406229,-0.5811584592,-0.2345223874,1.223933935,2024-06-04 15:24:57.264062
56.30436229,-2.125403643,-0.5580057502,1.232073069,2024-06-04 15:24:57.304362
56.34466329,-1.563954353,2.145381927,-0.210024789,2024-06-04 15:24:57.344663
56.38496429,-3.560951948,2.581045389,-0.4376813471,2024-06-04 15:24:57.384964
56.42526429,2.057459354,-2.824112177,-1.656304121,2024-06-04 15:24:57.425264
56.46556529,-0.2232557237,-1.622649908,0.1669064909,2024-06-04 15:24:57.465565
56.50586629,-1.501575351,0.989692688,-0.7485759854,2024-06-04 15:24:57.505866
56.54616629,-1.657977939,2.001393795,-1.164069057,2024-06-04 15:24:57.546166
56.58646729,-0.2145008594,1.053758621,-0.8265979886,2024-06-04 15:24:57.586467
56.62676729,1.801312327,1.122958899,-1.167595267,2024-06-04 15:24:57.626767
56.66706829,4.643625259,3.199258327,-2.117257118,2024-06-04 15:24:57.667068
56.70736929,4.094019413,2.862815857,0.2856423557,2024-06-04 15:24:57.707369
56.74766929,0.5222315788,0.5611020327,-0.3033176959,2024-06-04 15:24:57.747669
56.78797029,-1.841512203,-0.1004168093,-0.9556366205,2024-06-04 15:24:57.787970
56.82827029,-2.734622717,-0.6914741993,-0.7775020003,2024-06-04 15:24:57.828270
56.86857117,-2.896749258,3.078237057,0.109331876,2024-06-04 15:24:57.868571
56.90887217,2.548143387,-0.5848398805,-0.7880224586,2024-06-04 15:24:57.908872
56.94917217,-0.1084645763,0.02431070805,-0.7554410696,2024-06-04 15:24:57.949172
56.98947317,0.5464544892,0.8153522611,-0.1331364214,2024-06-04 15:24:57.989473
57.02977417,0.713083744,0.2851382792,-0.6534813046,2024-06-04 15:24:58.029774
57.07007417,0.7528210878,0.1548359096,-0.6017512679,2024-06-04 15:24:58.070074
57.11037517,0.2413969338,0.6405345798,-0.6883983016,2024-06-04 15:24:58.110375
57.15067517,0.5296673179,0.1148104221,-0.6890614033,2024-06-04 15:24:58.150675
57.19097617,0.3033203781,0.3221037984,-0.3834047318,2024-06-04 15:24:58.190976
57.23127617,0.4429001808,0.1325675696,-0.2271124572,2024-06-04 15:24:58.231276
57.27157717,0.6251456738,-0.05685373768,0.07317964733,2024-06-04 15:24:58.271577
57.31187817,0.4945350289,-0.02353195101,0.1332871318,2024-06-04 15:24:58.311878
57.35217817,0.5010911226,-0.4675778449,0.2671182752,2024-06-04 15:24:58.352178
57.39247917,-0.09864849597,0.2743310928,-0.2028487325,2024-06-04 15:24:58.392479
57.43277917,-0.1503360868,0.6865115762,-0.6885666847,2024-06-04 15:24:58.432779
57.47308017,0.1685549617,0.4064794183,-0.3822212815,2024-06-04 15:24:58.473080
57.51338017,-0.1756277382,0.9721665978,-0.2971526086,2024-06-04 15:24:58.513380
57.55368117,0.2617430687,-0.05271273851,0.7578591108,2024-06-04 15:24:58.553681
57.59398217,0.06190044805,-0.1439759433,0.1702549607,2024-06-04 15:24:58.593982
57.63428217,0.1606950611,0.153092131,0.08999107033,2024-06-04 15:24:58.634282
57.67458317,0.328358382,-0.3978709579,0.4945134223,2024-06-04 15:24:58.674583
57.71488317,-0.01609635167,-0.3843158185,0.3610105217,2024-06-04 15:24:58.714883
57.75518417,-0.114843145,-0.0287711937,0.1947657466,2024-06-04 15:24:58.755184
57.79548417,-0.1102485657,-0.1736441255,-0.2669436038,2024-06-04 15:24:58.795484
57.83578517,-0.2622871995,-0.698990941,-0.3317298591,2024-06-04 15:24:58.835785
57.87608654,-0.5747298002,-0.4153169692,-0.5163469315,2024-06-04 15:24:58.876087
57.91638654,-0.4771624207,-0.6855630875,-0.52847296,2024-06-04 15:24:58.916387
57.95668754,-0.5005064011,-0.7776525021,-0.4763872921,2024-06-04 15:24:58.956688
57.99698754,-0.7575897574,-0.4860733151,-0.4263651073,2024-06-04 15:24:58.996988
58.03728854,-0.6611641645,-0.4563042521,-0.3735671341,2024-06-04 15:24:59.037289
58.07758854,-0.333809942,-0.697496295,-0.09799660742,2024-06-04 15:24:59.077589
58.11788954,-0.3065384328,-0.6441804767,0.05014223233,2024-06-04 15:24:59.117890
58.15818954,-0.2970844805,-0.3875901997,0.07428698242,2024-06-04 15:24:59.158190
58.19849054,-0.4066569805,-0.0364802815,-0.06017092988,2024-06-04 15:24:59.198491
58.23879154,-0.3882204294,-0.09822674096,-0.02834748663,2024-06-04 15:24:59.238792
58.27909154,-0.2603464723,-0.3037496805,0.07117027044,2024-06-04 15:24:59.279092
58.31939254,-0.1283966303,-0.3931312561,0.06520495564,2024-06-04 15:24:59.319393
58.35969254,-0.1311041117,-0.4509733021,0.1968107373,2024-06-04 15:24:59.359693
58.39999354,-0.1227243766,-0.5792230368,0.2905247509,2024-06-04 15:24:59.399994
58.44029354,-0.07013109326,-0.6002485752,0.3078727722,2024-06-04 15:24:59.440294
58.48059454,-0.05798521265,-0.7413039804,0.1850355417,2024-06-04 15:24:59.480595
58.52089454,-0.1120751575,-0.8665908575,0.1143806204,2024-06-04 15:24:59.520895
58.56119554,-0.06260973215,-0.6919294596,0.09494081885,2024-06-04 15:24:59.561196
58.60149554,-0.3759930134,-0.2651509643,0.1694993228,2024-06-04 15:24:59.601496
58.64179654,-0.5342555642,-0.06269143522,0.2317861766,2024-06-04 15:24:59.641797
58.68209654,-0.1966216713,-0.4060322046,0.2175877243,2024-06-04 15:24:59.682097
58.72239754,0.02034981921,-0.07333514839,0.211432904,2024-06-04 15:24:59.722398
58.76269854,0.4921787977,0.6383574009,0.02788076922,2024-06-04 15:24:59.762699
58.80299854,0.07554812729,-0.0965141952,0.04319598153,2024-06-04 15:24:59.802999
58.84329954,-0.4323913455,-0.4417545199,0.6068081856,2024-06-04 15:24:59.843300
58.88359871,-0.93407619,-0.4432945549,0.7217757106,2024-06-04 15:24:59.883599
58.92389971,-1.505398631,0.4480619431,0.2793781161,2024-06-04 15:24:59.923900
58.96419971,-2.03672123,0.8441839814,0.4682328403,2024-06-04 15:24:59.964200
59.00450071,-2.119795799,0.6257906556,0.5687013865,2024-06-04 15:25:00.004501
59.04480071,-2.062084198,0.5746393204,0.4843277931,2024-06-04 15:25:00.044801
59.08510171,-1.623966217,0.08924690634,0.5102537274,2024-06-04 15:25:00.085102
59.12540171,-1.242213845,-0.3988076746,0.1403921694,2024-06-04 15:25:00.125402
59.16570271,-1.237886786,-0.1322073191,-0.07089519501,2024-06-04 15:25:00.165703
59.20600271,-1.550310612,0.5339650512,-0.08824402839,2024-06-04 15:25:00.206003
59.24630371,-1.331040144,0.3489029706,-0.06121749058,2024-06-04 15:25:00.246304
59.28660371,-1.209635735,-0.06796291471,0.279933095,2024-06-04 15:25:00.286604
59.32690471,-1.233251214,-0.3172318339,-0.05919548124,2024-06-04 15:25:00.326905
59.36720471,-1.125598311,-0.04912495241,0.2188064009,2024-06-04 15:25:00.367205
59.40750571,-0.8777217269,0.1679010391,0.0513840802,2024-06-04 15:25:00.407506
59.44780571,-0.2848370075,-0.6494782567,0.01966176368,2024-06-04 15:25:00.447806
59.48810671,0.8600209355,-1.073297501,0.3105179071,2024-06-04 15:25:00.488107
59.52840671,2.247126579,-0.4139050543,0.6337522864,2024-06-04 15:25:00.528407
59.56870771,2.234125853,0.5203102231,0.2331232727,2024-06-04 15:25:00.568708
59.60900771,2.498493671,1.780811191,0.2119967341,2024-06-04 15:25:00.609008
59.64930871,2.260111809,0.06941720098,0.2459212244,2024-06-04 15:25:00.649309
59.68960871,3.189265013,-1.471098304,0.6579794884,2024-06-04 15:25:00.689609
59.72990971,1.928952694,-1.118975878,0.5606694221,2024-06-04 15:25:00.729910
59.77020971,1.265539885,-1.443048596,0.4819190502,2024-06-04 15:25:00.770210
59.81051071,1.249921083,-1.82974124,0.346065253,2024-06-04 15:25:00.810511
59.85081071,0.01563398913,-1.975614429,0.356964618,2024-06-04 15:25:00.850811
59.89111217,-1.164393067,-2.969123602,0.286839515,2024-06-04 15:25:00.891112
59.93141217,-0.2147326171,-4.197697639,0.05700428411,2024-06-04 15:25:00.931412
59.97171317,0.2401648313,-0.8224982023,0.2961060405,2024-06-04 15:25:00.971713
60.01201317,-0.8223232627,-1.288861871,0.09401088208,2024-06-04 15:25:01.012013
60.05231417,0.9313910604,-1.237803221,0.2862745225,2024-06-04 15:25:01.052314
60.09261417,-1.023481727,-0.1572054923,0.7365076542,2024-06-04 15:25:01.092614
60.13291517,1.116886854,-1.642925739,0.136276871,2024-06-04 15:25:01.132915
60.17321517,0.07681596279,-0.3977420926,0.3454322517,2024-06-04 15:25:01.173215
60.21351617,-0.009962229058,-0.5555705428,0.2492302805,2024-06-04 15:25:01.213516
60.25381617,0.1837172955,-0.7243806124,0.08323055506,2024-06-04 15:25:01.253816
60.29411717,0.1920727491,-0.7016708851,0.267585367,2024-06-04 15:25:01.294117
60.33441717,0.1469821185,-0.4829373658,0.2909276485,2024-06-04 15:25:01.334417
60.37471817,-0.01921429671,-0.5022587776,0.1572586894,2024-06-04 15:25:01.374718
60.41501817,-0.02066295221,-0.5286895037,0.01865864731,2024-06-04 15:25:01.415018
60.45531917,0.09838849306,-0.4014013708,-0.05207429826,2024-06-04 15:25:01.455319
60.49561917,-0.09143123776,-0.2469854504,-0.09989828616,2024-06-04 15:25:01.495619
60.53592017,0.01708516292,-0.414034903,-0.1740133613,2024-06-04 15:25:01.535920
60.57622017,0.06841953844,-0.5841786861,-0.1571132988,2024-06-04 15:25:01.576220
60.61652117,0.2058399916,-1.017743587,-0.1743246466,2024-06-04 15:25:01.616521
60.65682117,0.397064358,-1.427220464,-0.1131612435,2024-06-04 15:25:01.656821
60.69712217,-0.1336598247,-1.64836359,-0.1210190877,2024-06-04 15:25:01.697122
60.73742217,0.0287859235,-1.875134826,-0.2586264312,2024-06-04 15:25:01.737422
60.77772317,-0.03625977784,-1.782196403,-0.2849912643,2024-06-04 15:25:01.777723
60.81802317,0.5528286099,-1.450484872,-0.3776047826,2024-06-04 15:25:01.818023
60.85832317,2.043621063,-0.9990060329,-0.4481845796,2024-06-04 15:25:01.858323
60.89862417,2.939476967,1.914536357,-0.1466457695,2024-06-04 15:25:01.898624
60.93892417,2.917953491,0.863586843,-0.6026536822,2024-06-04 15:25:01.938924
60.97922517,-0.1081901416,-0.1184755936,1.096951246,2024-06-04 15:25:01.979225
61.01952517,1.661793709,1.436793089,0.9939641953,2024-06-04 15:25:02.019525
61.05982617,3.727103233,-2.291700602,-0.08017145097,2024-06-04 15:25:02.059826
61.10012617,2.638380289,-0.6780720353,1.346535802,2024-06-04 15:25:02.100126
61.14042717,3.221796989,-2.452195168,1.108677745,2024-06-04 15:25:02.140427
61.18072717,4.343769073,-1.668340921,1.107173085,2024-06-04 15:25:02.180727
61.22102817,2.072978735,-0.9416458607,0.4707450867,2024-06-04 15:25:02.221028
61.26132817,2.192375422,-0.8969275951,1.067648292,2024-06-04 15:25:02.261328
61.30162817,0.8149588108,0.3174973428,1.203269243,2024-06-04 15:25:02.301628
