Time (s),Acceleration x (m/s^2),Acceleration y (m/s^2),Acceleration z (m/s^2),Datetime
0.001309695,-4.340580463,5.931209087,7.922037601,2024-06-11 14:42:24.001310
0.021588653,-3.102294445,5.521737576,9.174679756,2024-06-11 14:42:24.021589
0.061588653,-2.723630428,5.337191105,9.838389397,2024-06-11 14:42:24.061589
0.101588653,-2.723630428,5.337191105,9.838389397,2024-06-11 14:42:24.101589
0.141588653,-2.723630428,5.337191105,9.838389397,2024-06-11 14:42:24.141589
0.181588653,-2.723630428,5.337191105,9.838389397,2024-06-11 14:42:24.181589
0.221588653,-2.723630428,5.337191105,9.838389397,2024-06-11 14:42:24.221589
0.261588653,-2.723630428,5.337191105,9.838389397,2024-06-11 14:42:24.261589
0.301588653,-2.723630428,5.337191105,9.838389397,2024-06-11 14:42:24.301589
0.341588653,-2.723630428,5.337191105,9.838389397,2024-06-11 14:42:24.341589
0.381588653,-2.723630428,5.337191105,9.838389397,2024-06-11 14:42:24.381589
0.421588653,-2.723630428,5.337191105,9.838389397,2024-06-11 14:42:24.421589
0.461588653,-2.723630428,5.337191105,9.838389397,2024-06-11 14:42:24.461589
0.501588653,-2.723630428,5.337191105,9.838389397,2024-06-11 14:42:24.501589
0.541588653,-2.723630428,5.337191105,9.838389397,2024-06-11 14:42:24.541589
0.581588653,-2.723630428,5.337191105,9.838389397,2024-06-11 14:42:24.581589
0.621588653,-2.723630428,5.337191105,9.838389397,2024-06-11 14:42:24.621589
0.661588653,-2.723630428,5.337191105,9.838389397,2024-06-11 14:42:24.661589
0.701588653,-2.723630428,5.337191105,9.838389397,2024-06-11 14:42:24.701589
0.741588653,-2.723630428,5.337191105,9.838389397,2024-06-11 14:42:24.741589
0.781588653,-2.723630428,5.337191105,9.838389397,2024-06-11 14:42:24.781589
0.821588653,-2.723630428,5.337191105,9.838389397,2024-06-11 14:42:24.821589
0.861588653,-2.723630428,5.337191105,9.838389397,2024-06-11 14:42:24.861589
0.901588653,-2.723630428,5.337191105,9.838389397,2024-06-11 14:42:24.901589
0.941588653,-2.723630428,5.337191105,9.838389397,2024-06-11 14:42:24.941589
0.981588653,-2.723630428,5.337191105,9.838389397,2024-06-11 14:42:24.981589
1.021588653,-2.723630428,5.337191105,9.838389397,2024-06-11 14:42:25.021589
1.061588653,-2.723630428,5.337191105,9.838389397,2024-06-11 14:42:25.061589
1.101588653,-2.723630428,5.337191105,9.838389397,2024-06-11 14:42:25.101589
1.141588653,-2.723630428,5.337191105,9.838389397,2024-06-11 14:42:25.141589
1.181588653,-2.723630428,5.337191105,9.838389397,2024-06-11 14:42:25.181589
1.221588653,-2.723630428,5.337191105,9.838389397,2024-06-11 14:42:25.221589
1.261588653,-2.723630428,5.337191105,9.838389397,2024-06-11 14:42:25.261589
1.301588653,-2.723630428,5.337191105,9.838389397,2024-06-11 14:42:25.301589
1.341588653,-2.723630428,5.337191105,9.838389397,2024-06-11 14:42:25.341589
1.381588653,-2.723630428,5.337191105,9.838389397,2024-06-11 14:42:25.381589
1.421588653,-2.723630428,5.337191105,9.838389397,2024-06-11 14:42:25.421589
1.461588653,-2.723630428,5.337191105,9.838389397,2024-06-11 14:42:25.461589
1.501588653,-2.723630428,5.337191105,9.838389397,2024-06-11 14:42:25.501589
1.541588653,-2.723630428,5.337191105,9.838389397,2024-06-11 14:42:25.541589
1.581588653,-2.723630428,5.337191105,9.838389397,2024-06-11 14:42:25.581589
1.621588653,-2.723630428,5.337191105,9.838389397,2024-06-11 14:42:25.621589
1.661588653,-2.723630428,5.337191105,9.838389397,2024-06-11 14:42:25.661589
1.701588653,-2.723630428,5.337191105,9.838389397,2024-06-11 14:42:25.701589
1.741588653,-2.723630428,5.337191105,9.838389397,2024-06-11 14:42:25.741589
1.781588653,-2.723630428,5.337191105,9.838389397,2024-06-11 14:42:25.781589
1.821588653,-2.723630428,5.337191105,9.838389397,2024-06-11 14:42:25.821589
1.861588653,-2.723630428,5.337191105,9.838389397,2024-06-11 14:42:25.861589
1.901588653,-2.723630428,5.337191105,9.838389397,2024-06-11 14:42:25.901589
1.941588653,-2.723630428,5.337191105,9.838389397,2024-06-11 14:42:25.941589
1.981588653,-2.723630428,5.337191105,9.838389397,2024-06-11 14:42:25.981589
2.021588653,-2.723630428,5.337191105,9.838389397,2024-06-11 14:42:26.021589
2.061588653,-2.723630428,5.337191105,9.838389397,2024-06-11 14:42:26.061589
2.101588653,-4.897509575,-2.417049885,3.64127779,2024-06-11 14:42:26.101589
2.141588653,-4.897509575,-2.417049885,3.64127779,2024-06-11 14:42:26.141589
2.181588653,-4.897509575,-2.417049885,3.64127779,2024-06-11 14:42:26.181589
2.221588653,-4.897509575,-2.417049885,3.64127779,2024-06-11 14:42:26.221589
2.261588653,-4.897509575,-2.417049885,3.64127779,2024-06-11 14:42:26.261589
2.301588653,-4.897509575,-2.417049885,3.64127779,2024-06-11 14:42:26.301589
2.341588653,-4.897509575,-2.417049885,3.64127779,2024-06-11 14:42:26.341589
2.381588653,-4.897509575,-2.417049885,3.64127779,2024-06-11 14:42:26.381589
2.421588653,-4.897509575,-2.417049885,3.64127779,2024-06-11 14:42:26.421589
2.461588653,-4.897509575,-2.417049885,3.64127779,2024-06-11 14:42:26.461589
2.501588653,-4.897509575,-2.417049885,3.64127779,2024-06-11 14:42:26.501589
2.541588653,-4.897509575,-2.417049885,3.64127779,2024-06-11 14:42:26.541589
2.581588653,-4.897509575,-2.417049885,3.64127779,2024-06-11 14:42:26.581589
2.621588653,-4.897509575,-2.417049885,3.64127779,2024-06-11 14:42:26.621589
2.661588653,-4.897509575,-2.417049885,3.64127779,2024-06-11 14:42:26.661589
2.701588653,-4.897509575,-2.417049885,3.64127779,2024-06-11 14:42:26.701589
2.741588653,-4.897509575,-2.417049885,3.64127779,2024-06-11 14:42:26.741589
2.781588653,-8.40329361,-1.412064433,3.335594654,2024-06-11 14:42:26.781589
2.821588653,-6.164808273,0.6526423693,7.966304779,2024-06-11 14:42:26.821589
2.861588653,-10.5858469,-3.021835804,2.476870537,2024-06-11 14:42:26.861589
2.901588653,-6.559025764,-2.581257343,4.07348156,2024-06-11 14:42:26.901589
2.941588653,-8.789136887,-4.057928085,3.498605728,2024-06-11 14:42:26.941589
2.981588653,-9.677771568,-4.626821518,3.157329559,2024-06-11 14:42:26.981589
3.021588653,-7.187740326,-4.256831646,4.230510235,2024-06-11 14:42:27.021589
3.061588653,-5.404190063,-3.347857952,4.30827713,2024-06-11 14:42:27.061589
3.101588653,-12.60748386,-9.222537041,4.992325306,2024-06-11 14:42:27.101589
3.141588653,-8.376973152,-9.693324089,1.959422588,2024-06-11 14:42:27.141589
3.181588653,-6.300302029,-8.522037506,-2.504388094,2024-06-11 14:42:27.181589
3.221588653,-7.962715626,-5.487041473,3.18006134,2024-06-11 14:42:27.221589
3.261588653,-8.627322197,-1.395314693,5.249852657,2024-06-11 14:42:27.261589
3.301588653,-8.627322197,-1.395314693,5.249852657,2024-06-11 14:42:27.301589
3.341588653,-8.627322197,-1.395314693,5.249852657,2024-06-11 14:42:27.341589
3.381588653,-8.627322197,-1.395314693,5.249852657,2024-06-11 14:42:27.381589
3.421588653,-7.460821152,-4.446163654,5.640182018,2024-06-11 14:42:27.421589
3.461588653,-8.026124954,-6.6260252,4.423431873,2024-06-11 14:42:27.461589
3.501588653,-10.05763149,-3.910769463,1.82781744,2024-06-11 14:42:27.501589
3.541588653,-10.05763149,-3.910769463,1.82781744,2024-06-11 14:42:27.541589
3.581588653,-10.05763149,-3.910769463,1.82781744,2024-06-11 14:42:27.581589
3.621588653,-7.86670351,-4.995914459,4.138087749,2024-06-11 14:42:27.621589
3.661588653,-3.131008387,-6.388836384,1.943869352,2024-06-11 14:42:27.661589
3.701588653,-6.5288167,-6.647560596,5.268995285,2024-06-11 14:42:27.701589
3.741588653,-4.901099205,-4.926223755,4.042374611,2024-06-11 14:42:27.741589
3.781588653,-2.988336325,-4.789832592,3.849453449,2024-06-11 14:42:27.781589
3.821588653,0.2180459648,-3.42323184,1.840977907,2024-06-11 14:42:27.821589
3.861588653,-2.341675997,-4.756333351,2.18105793,2024-06-11 14:42:27.861589
3.901588653,-6.834499836,-12.47109222,0.8300103545,2024-06-11 14:42:27.901589
3.941588653,-14.02433395,-12.01107216,5.434100151,2024-06-11 14:42:27.941589
3.981588653,-4.235296249,-7.398607731,-0.4636093974,2024-06-11 14:42:27.981589
4.021588653,-0.8001000881,-10.50060272,1.793121457,2024-06-11 14:42:28.021589
4.061588653,4.500001907,-9.235996246,7.153044224,2024-06-11 14:42:28.061589
4.101588653,5.357530117,-14.60668659,4.356133461,2024-06-11 14:42:28.101589
4.141588653,-6.996015072,-14.15743446,6.418746948,2024-06-11 14:42:28.141589
4.181588653,-1.82781744,-12.21356487,-7.647760391,2024-06-11 14:42:28.181589
4.221588653,-7.446464062,-8.408080101,-6.706184387,2024-06-11 14:42:28.221589
4.261588653,5.114359379,-8.361419678,-1.825424552,2024-06-11 14:42:28.261589
4.301588653,-4.667499542,-13.15125275,5.21994257,2024-06-11 14:42:28.301589
4.341588653,28.71237564,-4.060320854,1.058824062,2024-06-11 14:42:28.341589
4.381588653,-4.092624187,-6.630810738,14.64856148,2024-06-11 14:42:28.381589
4.421588653,9.602396965,-3.24466753,1.333101273,2024-06-11 14:42:28.421589
4.461588653,4.03399992,-7.031907558,-1.209870934,2024-06-11 14:42:28.461589
4.501588653,4.93579483,-13.04716492,-0.1725823283,2024-06-11 14:42:28.501589
4.541588653,2.363211393,-13.358531,4.917848587,2024-06-11 14:42:28.541589
4.581588653,-0.4229314029,-10.56281662,5.33240509,2024-06-11 14:42:28.581589
4.621588653,5.03300333,-6.887141705,1.267298698,2024-06-11 14:42:28.621589
4.661588653,5.341976643,-5.907280922,4.431806564,2024-06-11 14:42:28.661589
4.701588653,4.185046673,-7.18534708,1.025324464,2024-06-11 14:42:28.701589
4.741588653,11.7906332,-11.54506969,6.476174355,2024-06-11 14:42:28.741589
4.781588653,11.7906332,-11.54506969,6.476174355,2024-06-11 14:42:28.781589
4.821588653,2.629113913,-4.431806564,-2.655434847,2024-06-11 14:42:28.821589
4.861588653,0.9678967595,-7.475177765,-0.6382854581,2024-06-11 14:42:28.861589
4.901588653,3.099901676,-12.74895859,-1.000199914,2024-06-11 14:42:28.901589
4.941588653,0.2527419031,-13.15603828,-6.771986961,2024-06-11 14:42:28.941589
4.981588653,-2.195414782,-9.800104141,12.16899872,2024-06-11 14:42:28.981589
5.021588653,0.4923232496,-8.411668777,-0.256331116,2024-06-11 14:42:29.021589
5.061588653,6.689435005,-8.622536659,6.267699718,2024-06-11 14:42:29.061589
5.101588653,7.706384659,-7.833203793,5.089234829,2024-06-11 14:42:29.101589
5.141588653,4.703691006,-9.841979027,3.395714521,2024-06-11 14:42:29.141589
5.181588653,3.524926901,-12.27577877,2.772683144,2024-06-11 14:42:29.181589
5.221588653,4.941776752,-9.40947628,0.5676971674,2024-06-11 14:42:29.221589
5.261588653,3.26141715,-8.536395073,-3.532105207,2024-06-11 14:42:29.261589
5.301588653,3.953840256,-9.525827408,-7.155436993,2024-06-11 14:42:29.301589
5.341588653,1.87567389,-7.918448448,-0.05144568533,2024-06-11 14:42:29.341589
5.381588653,5.76849699,-10.47547817,-3.454338551,2024-06-11 14:42:29.381589
5.421588653,5.76849699,-10.47547817,-3.454338551,2024-06-11 14:42:29.421589
5.461588653,5.76849699,-10.47547817,-3.454338551,2024-06-11 14:42:29.461589
5.501588653,5.76849699,-10.47547817,-3.454338551,2024-06-11 14:42:29.501589
5.541588653,5.314459324,-11.37248802,4.460520744,2024-06-11 14:42:29.541589
5.581588653,5.538486958,-7.588837147,5.364708424,2024-06-11 14:42:29.581589
5.621588653,0.2168495506,-11.49242783,0.7307082415,2024-06-11 14:42:29.621589
5.661588653,4.291527271,-14.42453289,3.472284794,2024-06-11 14:42:29.661589
5.701588653,7.613961697,-9.131608963,10.60259724,2024-06-11 14:42:29.701589
5.741588653,2.741576433,-6.962515831,-3.837489367,2024-06-11 14:42:29.741589
5.781588653,2.849552631,-8.087141991,-7.91007328,2024-06-11 14:42:29.781589
5.821588653,4.311866283,-11.46012497,10.38455105,2024-06-11 14:42:29.821589
5.861588653,1.414457321,-4.874777794,-2.123630047,2024-06-11 14:42:29.861589
5.901588653,0.9595218897,-4.460520744,1.675574064,2024-06-11 14:42:29.901589
5.941588653,4.141676903,-8.056035995,2.021935225,2024-06-11 14:42:29.941589
5.981588653,8.318348885,-5.629414558,9.077771187,2024-06-11 14:42:29.981589
6.021588653,7.334898949,-9.91017437,10.86730289,2024-06-11 14:42:30.021589
6.061588653,4.703691006,-10.35105133,3.89043045,2024-06-11 14:42:30.061589
6.101588653,6.458228111,-17.12543106,3.734597921,2024-06-11 14:42:30.101589
6.141588653,3.168097258,-6.6260252,-8.197511673,2024-06-11 14:42:30.141589
6.181588653,1.042074203,-3.595515013,-3.383750439,2024-06-11 14:42:30.181589
6.221588653,1.042074203,-3.595515013,-3.383750439,2024-06-11 14:42:30.221589
6.261588653,1.042074203,-3.595515013,-3.383750439,2024-06-11 14:42:30.261589
6.301588653,1.042074203,-3.595515013,-3.383750439,2024-06-11 14:42:30.301589
6.341588653,1.042074203,-3.595515013,-3.383750439,2024-06-11 14:42:30.341589
6.381588653,1.042074203,-3.595515013,-3.383750439,2024-06-11 14:42:30.381589
6.421588653,1.042074203,-3.595515013,-3.383750439,2024-06-11 14:42:30.421589
6.461588653,1.042074203,-3.595515013,-3.383750439,2024-06-11 14:42:30.461589
6.501588653,1.042074203,-3.595515013,-3.383750439,2024-06-11 14:42:30.501589
6.541588653,1.042074203,-3.595515013,-3.383750439,2024-06-11 14:42:30.541589
6.581588653,1.042074203,-3.595515013,-3.383750439,2024-06-11 14:42:30.581589
6.621588653,1.042074203,-3.595515013,-3.383750439,2024-06-11 14:42:30.621589
6.661588653,1.042074203,-3.595515013,-3.383750439,2024-06-11 14:42:30.661589
6.701588653,1.042074203,-3.595515013,-3.383750439,2024-06-11 14:42:30.701589
6.741588653,1.042074203,-3.595515013,-3.383750439,2024-06-11 14:42:30.741589
6.781588653,1.042074203,-3.595515013,-3.383750439,2024-06-11 14:42:30.781589
6.821588653,1.042074203,-3.595515013,-3.383750439,2024-06-11 14:42:30.821589
6.861588653,1.042074203,-3.595515013,-3.383750439,2024-06-11 14:42:30.861589
6.901588653,1.042074203,-3.595515013,-3.383750439,2024-06-11 14:42:30.901589
6.941588653,1.042074203,-3.595515013,-3.383750439,2024-06-11 14:42:30.941589
6.981588653,1.042074203,-3.595515013,-3.383750439,2024-06-11 14:42:30.981589
7.021588653,1.042074203,-3.595515013,-3.383750439,2024-06-11 14:42:31.021589
7.061588653,1.042074203,-3.595515013,-3.383750439,2024-06-11 14:42:31.061589
7.101588653,1.042074203,-3.595515013,-3.383750439,2024-06-11 14:42:31.101589
7.141588653,1.042074203,-3.595515013,-3.383750439,2024-06-11 14:42:31.141589
7.181588653,1.042074203,-3.595515013,-3.383750439,2024-06-11 14:42:31.181589
7.221588653,1.042074203,-3.595515013,-3.383750439,2024-06-11 14:42:31.221589
7.261588653,-1.663609982,-14.78016663,2.91655159,2024-06-11 14:42:31.261589
7.301588653,-1.809871197,-12.41456223,6.736094952,2024-06-11 14:42:31.301589
7.341588653,2.988336325,-8.634500504,-0.3352942765,2024-06-11 14:42:31.341589
7.381588653,4.776672363,-8.93031311,-5.149055004,2024-06-11 14:42:31.381589
7.421588653,8.048856735,-11.39671516,2.086541414,2024-06-11 14:42:31.421589
7.461588653,3.419642687,-9.055039406,3.211168051,2024-06-11 14:42:31.461589
7.501588653,0.4025924206,-9.69811058,-1.331904888,2024-06-11 14:42:31.501589
7.541588653,1.353440285,-8.688339233,-1.221835017,2024-06-11 14:42:31.541589
7.581588653,3.451945782,-8.598608017,-1.839781523,2024-06-11 14:42:31.581589
7.621588653,3.451945782,-8.598608017,-1.839781523,2024-06-11 14:42:31.621589
7.661588653,3.451945782,-8.598608017,-1.839781523,2024-06-11 14:42:31.661589
7.701588653,3.451945782,-8.598608017,-1.839781523,2024-06-11 14:42:31.701589
7.741588653,3.451945782,-8.598608017,-1.839781523,2024-06-11 14:42:31.741589
7.781588653,3.451945782,-8.598608017,-1.839781523,2024-06-11 14:42:31.781589
7.821588653,3.451945782,-8.598608017,-1.839781523,2024-06-11 14:42:31.821589
7.861588653,3.451945782,-8.598608017,-1.839781523,2024-06-11 14:42:31.861589
7.901588653,3.451945782,-8.598608017,-1.839781523,2024-06-11 14:42:31.901589
7.941588653,3.451945782,-8.598608017,-1.839781523,2024-06-11 14:42:31.941589
7.981588653,3.451945782,-8.598608017,-1.839781523,2024-06-11 14:42:31.981589
8.021588653,3.451945782,-8.598608017,-1.839781523,2024-06-11 14:42:32.021589
8.061588653,3.451945782,-8.598608017,-1.839781523,2024-06-11 14:42:32.061589
8.101588653,2.345265388,-10.16530895,-1.219442248,2024-06-11 14:42:32.101589
8.141588653,2.345265388,-10.16530895,-1.219442248,2024-06-11 14:42:32.141589
8.181588653,2.345265388,-10.16530895,-1.219442248,2024-06-11 14:42:32.181589
8.221588653,2.345265388,-10.16530895,-1.219442248,2024-06-11 14:42:32.221589
8.261588653,2.345265388,-10.16530895,-1.219442248,2024-06-11 14:42:32.261589
8.301588653,2.345265388,-10.16530895,-1.219442248,2024-06-11 14:42:32.301589
8.341588653,2.345265388,-10.16530895,-1.219442248,2024-06-11 14:42:32.341589
8.381588653,2.345265388,-10.16530895,-1.219442248,2024-06-11 14:42:32.381589
8.421588653,2.345265388,-10.16530895,-1.219442248,2024-06-11 14:42:32.421589
8.461588653,2.345265388,-10.16530895,-1.219442248,2024-06-11 14:42:32.461589
8.501588653,2.345265388,-10.16530895,-1.219442248,2024-06-11 14:42:32.501589
8.541588653,2.345265388,-10.16530895,-1.219442248,2024-06-11 14:42:32.541589
8.581588653,2.345265388,-10.16530895,-1.219442248,2024-06-11 14:42:32.581589
8.621588653,2.345265388,-10.16530895,-1.219442248,2024-06-11 14:42:32.621589
8.661588653,2.345265388,-10.16530895,-1.219442248,2024-06-11 14:42:32.661589
8.701588653,2.345265388,-10.16530895,-1.219442248,2024-06-11 14:42:32.701589
8.741588653,2.345265388,-10.16530895,-1.219442248,2024-06-11 14:42:32.741589
8.781588653,2.345265388,-10.16530895,-1.219442248,2024-06-11 14:42:32.781589
8.821588653,2.345265388,-10.16530895,-1.219442248,2024-06-11 14:42:32.821589
8.861588653,2.345265388,-10.16530895,-1.219442248,2024-06-11 14:42:32.861589
8.901588653,2.345265388,-10.16530895,-1.219442248,2024-06-11 14:42:32.901589
8.941588653,3.394518137,-10.02144051,-0.8383852243,2024-06-11 14:42:32.941589
8.981588653,0.8934201598,-10.83978558,-0.6574280262,2024-06-11 14:42:32.981589
9.021588653,2.360818624,-10.09352398,1.226620674,2024-06-11 14:42:33.021589
9.061588653,2.534298182,-8.941081047,0.2587239444,2024-06-11 14:42:33.061589
9.101588653,3.971786499,-8.87647438,0.908973515,2024-06-11 14:42:33.101589
9.141588653,5.009075165,-8.8034935,2.760719061,2024-06-11 14:42:33.141589
9.181588653,3.368196964,-9.858728409,0.5736792088,2024-06-11 14:42:33.181589
9.221588653,2.556132793,-10.10788059,-0.9197412133,2024-06-11 14:42:33.221589
9.261588653,0.4731806815,-10.43599701,-1.642074585,2024-06-11 14:42:33.261589
9.301588653,0.4731806815,-10.43599701,-1.642074585,2024-06-11 14:42:33.301589
9.341588653,0.4731806815,-10.43599701,-1.642074585,2024-06-11 14:42:33.341589
9.381588653,0.4731806815,-10.43599701,-1.642074585,2024-06-11 14:42:33.381589
9.421588653,0.4731806815,-10.43599701,-1.642074585,2024-06-11 14:42:33.421589
9.461588653,0.4731806815,-10.43599701,-1.642074585,2024-06-11 14:42:33.461589
9.501588653,0.4731806815,-10.43599701,-1.642074585,2024-06-11 14:42:33.501589
9.541588653,0.4731806815,-10.43599701,-1.642074585,2024-06-11 14:42:33.541589
9.581588653,0.4731806815,-10.43599701,-1.642074585,2024-06-11 14:42:33.581589
9.621588653,0.4731806815,-10.43599701,-1.642074585,2024-06-11 14:42:33.621589
9.661588653,0.4731806815,-10.43599701,-1.642074585,2024-06-11 14:42:33.661589
9.701588653,0.4731806815,-10.43599701,-1.642074585,2024-06-11 14:42:33.701589
9.741588653,0.4731806815,-10.43599701,-1.642074585,2024-06-11 14:42:33.741589
9.781588653,0.4731806815,-10.43599701,-1.642074585,2024-06-11 14:42:33.781589
9.821588653,0.4731806815,-10.43599701,-1.642074585,2024-06-11 14:42:33.821589
9.861588653,3.59790802,-9.12084198,2.369193554,2024-06-11 14:42:33.861589
9.901588653,3.59790802,-9.12084198,2.369193554,2024-06-11 14:42:33.901589
9.941588653,3.59790802,-9.12084198,2.369193554,2024-06-11 14:42:33.941589
9.981588653,3.59790802,-9.12084198,2.369193554,2024-06-11 14:42:33.981589
10.02158865,3.59790802,-9.12084198,2.369193554,2024-06-11 14:42:34.021589
10.06158865,3.59790802,-9.12084198,2.369193554,2024-06-11 14:42:34.061589
10.10158865,5.449653625,-8.167600632,0.8898309469,2024-06-11 14:42:34.101589
10.14158865,5.449653625,-8.167600632,0.8898309469,2024-06-11 14:42:34.141589
10.18158865,5.449653625,-8.167600632,0.8898309469,2024-06-11 14:42:34.181589
10.22158865,5.449653625,-8.167600632,0.8898309469,2024-06-11 14:42:34.221589
10.26158865,5.449653625,-8.167600632,0.8898309469,2024-06-11 14:42:34.261589
10.30158865,5.449653625,-8.167600632,0.8898309469,2024-06-11 14:42:34.301589
10.34158865,5.449653625,-8.167600632,0.8898309469,2024-06-11 14:42:34.341589
10.38158865,5.449653625,-8.167600632,0.8898309469,2024-06-11 14:42:34.381589
10.42158865,5.449653625,-8.167600632,0.8898309469,2024-06-11 14:42:34.421589
10.46158865,5.449653625,-8.167600632,0.8898309469,2024-06-11 14:42:34.461589
10.50158865,5.449653625,-8.167600632,0.8898309469,2024-06-11 14:42:34.501589
10.54158865,5.449653625,-8.167600632,0.8898309469,2024-06-11 14:42:34.541589
10.58158865,5.449653625,-8.167600632,0.8898309469,2024-06-11 14:42:34.581589
10.62158865,0.7594220638,-14.15145206,-2.994318485,2024-06-11 14:42:34.621589
10.66158865,0.1965105534,-8.40688324,-1.298405409,2024-06-11 14:42:34.661589
10.70158865,0.9005986452,-6.556334019,-1.105484009,2024-06-11 14:42:34.701589
10.74158865,0.883848846,-9.062217712,-0.8682954907,2024-06-11 14:42:34.741589
10.78158865,2.248056889,-10.54726315,-2.296212435,2024-06-11 14:42:34.781589
10.82158865,1.401296735,-11.10419273,-1.143769264,2024-06-11 14:42:34.821589
10.86158865,3.638885021,-9.662218094,18.36760521,2024-06-11 14:42:34.861589
10.90158865,2.898605585,-9.050253868,-1.32113719,2024-06-11 14:42:34.901589
10.94158865,2.318944216,-8.563912392,-1.656431437,2024-06-11 14:42:34.941589
10.98158865,2.190629244,-9.565308571,-0.5234299302,2024-06-11 14:42:34.981589
11.02158865,2.190629244,-9.565308571,-0.5234299302,2024-06-11 14:42:35.021589
11.06158865,2.190629244,-9.565308571,-0.5234299302,2024-06-11 14:42:35.061589
11.10158865,2.038684845,-10.20239735,1.401296735,2024-06-11 14:42:35.101589
11.14158865,2.038684845,-10.20239735,1.401296735,2024-06-11 14:42:35.141589
11.18158865,2.038684845,-10.20239735,1.401296735,2024-06-11 14:42:35.181589
11.22158865,2.038684845,-10.20239735,1.401296735,2024-06-11 14:42:35.221589
11.26158865,2.038684845,-10.20239735,1.401296735,2024-06-11 14:42:35.261589
11.30158865,2.038684845,-10.20239735,1.401296735,2024-06-11 14:42:35.301589
11.34158865,2.038684845,-10.20239735,1.401296735,2024-06-11 14:42:35.341589
11.38158865,2.038684845,-10.20239735,1.401296735,2024-06-11 14:42:35.381589
11.42158865,2.038684845,-10.20239735,1.401296735,2024-06-11 14:42:35.421589
11.46158865,2.038684845,-10.20239735,1.401296735,2024-06-11 14:42:35.461589
11.50158865,2.038684845,-10.20239735,1.401296735,2024-06-11 14:42:35.501589
11.54158865,2.038684845,-10.20239735,1.401296735,2024-06-11 14:42:35.541589
11.58158865,2.038684845,-10.20239735,1.401296735,2024-06-11 14:42:35.581589
11.62158865,2.038684845,-10.20239735,1.401296735,2024-06-11 14:42:35.621589
11.66158865,2.038684845,-10.20239735,1.401296735,2024-06-11 14:42:35.661589
11.70158865,2.038684845,-10.20239735,1.401296735,2024-06-11 14:42:35.701589
11.74158865,2.038684845,-10.20239735,1.401296735,2024-06-11 14:42:35.741589
11.78158865,2.038684845,-10.20239735,1.401296735,2024-06-11 14:42:35.781589
11.82158865,2.038684845,-10.20239735,1.401296735,2024-06-11 14:42:35.821589
11.86158865,2.038684845,-10.20239735,1.401296735,2024-06-11 14:42:35.861589
11.90158865,2.038684845,-10.20239735,1.401296735,2024-06-11 14:42:35.901589
11.94158865,2.038684845,-10.20239735,1.401296735,2024-06-11 14:42:35.941589
11.98158865,2.038684845,-10.20239735,1.401296735,2024-06-11 14:42:35.981589
12.02158865,2.038684845,-10.20239735,1.401296735,2024-06-11 14:42:36.021589
12.06158865,2.038684845,-10.20239735,1.401296735,2024-06-11 14:42:36.061589
12.10158865,2.409871578,-7.66092062,4.626821518,2024-06-11 14:42:36.101589
12.14158865,2.409871578,-7.66092062,4.626821518,2024-06-11 14:42:36.141589
12.18158865,2.409871578,-7.66092062,4.626821518,2024-06-11 14:42:36.181589
12.22158865,2.409871578,-7.66092062,4.626821518,2024-06-11 14:42:36.221589
12.26158865,2.409871578,-7.66092062,4.626821518,2024-06-11 14:42:36.261589
12.30158865,2.409871578,-7.66092062,4.626821518,2024-06-11 14:42:36.301589
12.34158865,0.8599206209,-8.214261055,3.788436413,2024-06-11 14:42:36.341589
12.38158865,2.025524378,-8.06441021,-1.588235974,2024-06-11 14:42:36.381589
12.42158865,5.182554722,-8.362615585,3.27577424,2024-06-11 14:42:36.421589
12.46158865,3.231507063,-10.20718288,3.007478952,2024-06-11 14:42:36.461589
12.50158865,3.178864956,-7.387839794,2.799004316,2024-06-11 14:42:36.501589
12.54158865,-1.26490593,-14.97069454,-0.1462612897,2024-06-11 14:42:36.541589
12.58158865,3.833899975,-8.333902359,2.479263306,2024-06-11 14:42:36.581589
12.62158865,3.833899975,-8.333902359,2.479263306,2024-06-11 14:42:36.621589
12.66158865,0.5425725579,-11.38355446,2.582453728,2024-06-11 14:42:36.661589
12.70158865,0.5425725579,-11.38355446,2.582453728,2024-06-11 14:42:36.701589
12.74158865,0.5425725579,-11.38355446,2.582453728,2024-06-11 14:42:36.741589
12.78158865,0.5425725579,-11.38355446,2.582453728,2024-06-11 14:42:36.781589
12.82158865,0.5425725579,-11.38355446,2.582453728,2024-06-11 14:42:36.821589
12.86158865,3.324826956,-10.01904774,0.513858676,2024-06-11 14:42:36.861589
12.90158865,3.324826956,-10.01904774,0.513858676,2024-06-11 14:42:36.901589
12.94158865,3.324826956,-10.01904774,0.513858676,2024-06-11 14:42:36.941589
12.98158865,3.324826956,-10.01904774,0.513858676,2024-06-11 14:42:36.981589
13.02158865,3.324826956,-10.01904774,0.513858676,2024-06-11 14:42:37.021589
13.06158865,3.324826956,-10.01904774,0.513858676,2024-06-11 14:42:37.061589
13.10158865,5.879763603,-8.347063065,5.922834396,2024-06-11 14:42:37.101589
13.14158865,5.879763603,-8.347063065,5.922834396,2024-06-11 14:42:37.141589
13.18158865,5.879763603,-8.347063065,5.922834396,2024-06-11 14:42:37.181589
13.22158865,5.879763603,-8.347063065,5.922834396,2024-06-11 14:42:37.221589
13.26158865,5.879763603,-8.347063065,5.922834396,2024-06-11 14:42:37.261589
13.30158865,5.879763603,-8.347063065,5.922834396,2024-06-11 14:42:37.301589
13.34158865,5.879763603,-8.347063065,5.922834396,2024-06-11 14:42:37.341589
13.38158865,5.879763603,-8.347063065,5.922834396,2024-06-11 14:42:37.381589
13.42158865,5.879763603,-8.347063065,5.922834396,2024-06-11 14:42:37.421589
13.46158865,5.879763603,-8.347063065,5.922834396,2024-06-11 14:42:37.461589
13.50158865,5.879763603,-8.347063065,5.922834396,2024-06-11 14:42:37.501589
13.54158865,5.879763603,-8.347063065,5.922834396,2024-06-11 14:42:37.541589
13.58158865,5.879763603,-8.347063065,5.922834396,2024-06-11 14:42:37.581589
13.62158865,5.879763603,-8.347063065,5.922834396,2024-06-11 14:42:37.621589
13.66158865,5.879763603,-8.347063065,5.922834396,2024-06-11 14:42:37.661589
13.70158865,5.879763603,-8.347063065,5.922834396,2024-06-11 14:42:37.701589
13.74158865,5.879763603,-8.347063065,5.922834396,2024-06-11 14:42:37.741589
13.78158865,5.879763603,-8.347063065,5.922834396,2024-06-11 14:42:37.781589
13.82158865,5.879763603,-8.347063065,5.922834396,2024-06-11 14:42:37.821589
13.86158865,5.879763603,-8.347063065,5.922834396,2024-06-11 14:42:37.861589
13.90158865,5.879763603,-8.347063065,5.922834396,2024-06-11 14:42:37.901589
13.94158865,5.879763603,-8.347063065,5.922834396,2024-06-11 14:42:37.941589
13.98158865,5.879763603,-8.347063065,5.922834396,2024-06-11 14:42:37.981589
14.02158865,2.784647465,-2.425424814,6.946962357,2024-06-11 14:42:38.021589
14.06158865,2.978765011,-1.968993902,6.378068924,2024-06-11 14:42:38.061589
14.10158865,4.013660908,-2.409871578,5.30728054,2024-06-11 14:42:38.101589
14.14158865,3.56680131,-2.814856768,4.618446827,2024-06-11 14:42:38.141589
14.18158865,3.164507866,-3.302095175,3.019443035,2024-06-11 14:42:38.181589
14.22158865,1.692323804,-5.300102234,3.496212959,2024-06-11 14:42:38.221589
14.26158865,7.024729252,-9.570094109,3.153740168,2024-06-11 14:42:38.261589
14.30158865,20.44068718,-10.80957603,9.537791252,2024-06-11 14:42:38.301589
14.34158865,15.37418461,-14.12154198,4.43061018,2024-06-11 14:42:38.341589
14.38158865,15.37418461,-14.12154198,4.43061018,2024-06-11 14:42:38.381589
14.42158865,15.37418461,-14.12154198,4.43061018,2024-06-11 14:42:38.421589
14.46158865,15.37418461,-14.12154198,4.43061018,2024-06-11 14:42:38.461589
14.50158865,15.37418461,-14.12154198,4.43061018,2024-06-11 14:42:38.501589
14.54158865,15.37418461,-14.12154198,4.43061018,2024-06-11 14:42:38.541589
14.58158865,15.37418461,-14.12154198,4.43061018,2024-06-11 14:42:38.581589
14.62158865,15.37418461,-14.12154198,4.43061018,2024-06-11 14:42:38.621589
14.66158865,15.37418461,-14.12154198,4.43061018,2024-06-11 14:42:38.661589
14.70158865,15.37418461,-14.12154198,4.43061018,2024-06-11 14:42:38.701589
14.74158865,15.37418461,-14.12154198,4.43061018,2024-06-11 14:42:38.741589
14.78158865,15.37418461,-14.12154198,4.43061018,2024-06-11 14:42:38.781589
14.82158865,15.37418461,-14.12154198,4.43061018,2024-06-11 14:42:38.821589
14.86158865,15.37418461,-14.12154198,4.43061018,2024-06-11 14:42:38.861589
14.90158865,15.37418461,-14.12154198,4.43061018,2024-06-11 14:42:38.901589
14.94158865,15.37418461,-14.12154198,4.43061018,2024-06-11 14:42:38.941589
14.98158865,15.37418461,-14.12154198,4.43061018,2024-06-11 14:42:38.981589
15.02158865,15.37418461,-14.12154198,4.43061018,2024-06-11 14:42:39.021589
15.06158865,15.37418461,-14.12154198,4.43061018,2024-06-11 14:42:39.061589
15.10158865,15.37418461,-14.12154198,4.43061018,2024-06-11 14:42:39.101589
15.14158865,15.37418461,-14.12154198,4.43061018,2024-06-11 14:42:39.141589
15.18158865,15.37418461,-14.12154198,4.43061018,2024-06-11 14:42:39.181589
15.22158865,15.37418461,-14.12154198,4.43061018,2024-06-11 14:42:39.221589
15.26158865,15.37418461,-14.12154198,4.43061018,2024-06-11 14:42:39.261589
15.30158865,15.37418461,-14.12154198,4.43061018,2024-06-11 14:42:39.301589
15.34158865,15.37418461,-14.12154198,4.43061018,2024-06-11 14:42:39.341589
15.38158865,15.37418461,-14.12154198,4.43061018,2024-06-11 14:42:39.381589
15.42158865,15.37418461,-14.12154198,4.43061018,2024-06-11 14:42:39.421589
15.46158865,15.37418461,-14.12154198,4.43061018,2024-06-11 14:42:39.461589
15.50158865,15.37418461,-14.12154198,4.43061018,2024-06-11 14:42:39.501589
15.54158865,15.37418461,-14.12154198,4.43061018,2024-06-11 14:42:39.541589
15.58158865,15.37418461,-14.12154198,4.43061018,2024-06-11 14:42:39.581589
15.62158865,15.37418461,-14.12154198,4.43061018,2024-06-11 14:42:39.621589
15.66158865,15.37418461,-14.12154198,4.43061018,2024-06-11 14:42:39.661589
15.70158865,15.37418461,-14.12154198,4.43061018,2024-06-11 14:42:39.701589
15.74158865,0.5509474277,-11.67458153,-1.006181955,2024-06-11 14:42:39.741589
15.78158865,-1.49132669,-5.6126647,-0.3424727321,2024-06-11 14:42:39.781589
15.82158865,-1.750050664,-6.869195461,0.418145746,2024-06-11 14:42:39.821589
15.86158865,-0.9487541914,-10.80718327,0.05742774159,2024-06-11 14:42:39.861589
15.90158865,1.493719578,-11.56780243,-3.812364578,2024-06-11 14:42:39.901589
15.94158865,3.332005501,-9.222537041,6.010172367,2024-06-11 14:42:39.941589
15.98158865,0.7438687682,-9.112466812,2.332104683,2024-06-11 14:42:39.981589
16.02158865,1.776371717,-9.396315575,-0.6287141442,2024-06-11 14:42:40.021589
16.06158865,0.7821539044,-9.408279419,-0.1498505175,2024-06-11 14:42:40.061589
16.10158865,0.7821539044,-9.408279419,-0.1498505175,2024-06-11 14:42:40.101589
16.14158865,0.7821539044,-9.408279419,-0.1498505175,2024-06-11 14:42:40.141589
16.18158865,0.7821539044,-9.408279419,-0.1498505175,2024-06-11 14:42:40.181589
16.22158865,0.7821539044,-9.408279419,-0.1498505175,2024-06-11 14:42:40.221589
16.26158865,0.7821539044,-9.408279419,-0.1498505175,2024-06-11 14:42:40.261589
16.30158865,0.7821539044,-9.408279419,-0.1498505175,2024-06-11 14:42:40.301589
16.34158865,0.7821539044,-9.408279419,-0.1498505175,2024-06-11 14:42:40.341589
16.38158865,0.7821539044,-9.408279419,-0.1498505175,2024-06-11 14:42:40.381589
16.42158865,0.7821539044,-9.408279419,-0.1498505175,2024-06-11 14:42:40.421589
16.46158865,0.7821539044,-9.408279419,-0.1498505175,2024-06-11 14:42:40.461589
16.50158865,0.7821539044,-9.408279419,-0.1498505175,2024-06-11 14:42:40.501589
16.54158865,0.7821539044,-9.408279419,-0.1498505175,2024-06-11 14:42:40.541589
16.58158865,0.7821539044,-9.408279419,-0.1498505175,2024-06-11 14:42:40.581589
16.62158865,0.7821539044,-9.408279419,-0.1498505175,2024-06-11 14:42:40.621589
16.66158865,0.7821539044,-9.408279419,-0.1498505175,2024-06-11 14:42:40.661589
16.70158865,0.7821539044,-9.408279419,-0.1498505175,2024-06-11 14:42:40.701589
16.74158865,0.7821539044,-9.408279419,-0.1498505175,2024-06-11 14:42:40.741589
16.78158865,0.7821539044,-9.408279419,-0.1498505175,2024-06-11 14:42:40.781589
16.82158865,0.7821539044,-9.408279419,-0.1498505175,2024-06-11 14:42:40.821589
16.86158865,0.7821539044,-9.408279419,-0.1498505175,2024-06-11 14:42:40.861589
16.90158865,0.7821539044,-9.408279419,-0.1498505175,2024-06-11 14:42:40.901589
16.94158865,0.7821539044,-9.408279419,-0.1498505175,2024-06-11 14:42:40.941589
16.98158865,0.7821539044,-9.408279419,-0.1498505175,2024-06-11 14:42:40.981589
17.02158865,0.7821539044,-9.408279419,-0.1498505175,2024-06-11 14:42:41.021589
17.06158865,0.7821539044,-9.408279419,-0.1498505175,2024-06-11 14:42:41.061589
17.10158865,0.7821539044,-9.408279419,-0.1498505175,2024-06-11 14:42:41.101589
17.14158865,0.7821539044,-9.408279419,-0.1498505175,2024-06-11 14:42:41.141589
17.18158865,0.7821539044,-9.408279419,-0.1498505175,2024-06-11 14:42:41.181589
17.22158865,0.7821539044,-9.408279419,-0.1498505175,2024-06-11 14:42:41.221589
17.26158865,0.7821539044,-9.408279419,-0.1498505175,2024-06-11 14:42:41.261589
17.30158865,0.7821539044,-9.408279419,-0.1498505175,2024-06-11 14:42:41.301589
17.34158865,0.7821539044,-9.408279419,-0.1498505175,2024-06-11 14:42:41.341589
17.38158865,0.7821539044,-9.408279419,-0.1498505175,2024-06-11 14:42:41.381589
17.42158865,1.85892415,-9.71605587,-1.227817178,2024-06-11 14:42:41.421589
17.46158865,1.019342422,-9.969994545,-1.358225942,2024-06-11 14:42:41.461589
17.50158865,2.501995087,-8.93390274,-1.439581871,2024-06-11 14:42:41.501589
17.54158865,2.445763826,-8.27767086,-1.31276238,2024-06-11 14:42:41.541589
17.58158865,2.511566401,-8.087141991,-1.058824062,2024-06-11 14:42:41.581589
17.62158865,3.667598963,-9.628718376,-1.297209024,2024-06-11 14:42:41.621589
17.66158865,3.667598963,-9.628718376,-1.297209024,2024-06-11 14:42:41.661589
17.70158865,3.019443035,-10.43719292,-1.382154226,2024-06-11 14:42:41.701589
17.74158865,2.927319288,-10.73539925,-1.564307809,2024-06-11 14:42:41.741589
17.78158865,2.927319288,-10.73539925,-1.564307809,2024-06-11 14:42:41.781589
17.82158865,2.927319288,-10.73539925,-1.564307809,2024-06-11 14:42:41.821589
17.86158865,2.927319288,-10.73539925,-1.564307809,2024-06-11 14:42:41.861589
17.90158865,2.779861689,-7.993822098,-3.637688637,2024-06-11 14:42:41.901589
17.94158865,2.779861689,-7.993822098,-3.637688637,2024-06-11 14:42:41.941589
17.98158865,2.779861689,-7.993822098,-3.637688637,2024-06-11 14:42:41.981589
18.02158865,2.779861689,-7.993822098,-3.637688637,2024-06-11 14:42:42.021589
18.06158865,2.779861689,-7.993822098,-3.637688637,2024-06-11 14:42:42.061589
18.10158865,2.779861689,-7.993822098,-3.637688637,2024-06-11 14:42:42.101589
18.14158865,2.779861689,-7.993822098,-3.637688637,2024-06-11 14:42:42.141589
18.18158865,2.779861689,-7.993822098,-3.637688637,2024-06-11 14:42:42.181589
18.22158865,2.779861689,-7.993822098,-3.637688637,2024-06-11 14:42:42.221589
18.26158865,2.779861689,-7.993822098,-3.637688637,2024-06-11 14:42:42.261589
18.30158865,2.779861689,-7.993822098,-3.637688637,2024-06-11 14:42:42.301589
18.34158865,2.779861689,-7.993822098,-3.637688637,2024-06-11 14:42:42.341589
18.38158865,2.779861689,-7.993822098,-3.637688637,2024-06-11 14:42:42.381589
18.42158865,2.779861689,-7.993822098,-3.637688637,2024-06-11 14:42:42.421589
18.46158865,2.779861689,-7.993822098,-3.637688637,2024-06-11 14:42:42.461589
18.50158865,2.779861689,-7.993822098,-3.637688637,2024-06-11 14:42:42.501589
18.54158865,2.779861689,-7.993822098,-3.637688637,2024-06-11 14:42:42.541589
18.58158865,2.779861689,-7.993822098,-3.637688637,2024-06-11 14:42:42.581589
18.62158865,2.779861689,-7.993822098,-3.637688637,2024-06-11 14:42:42.621589
18.66158865,2.779861689,-7.993822098,-3.637688637,2024-06-11 14:42:42.661589
18.70158865,2.779861689,-7.993822098,-3.637688637,2024-06-11 14:42:42.701589
18.74158865,2.779861689,-7.993822098,-3.637688637,2024-06-11 14:42:42.741589
18.78158865,2.779861689,-7.993822098,-3.637688637,2024-06-11 14:42:42.781589
18.82158865,2.779861689,-7.993822098,-3.637688637,2024-06-11 14:42:42.821589
18.86158865,2.779861689,-7.993822098,-3.637688637,2024-06-11 14:42:42.861589
18.90158865,2.779861689,-7.993822098,-3.637688637,2024-06-11 14:42:42.901589
18.94158865,2.779861689,-7.993822098,-3.637688637,2024-06-11 14:42:42.941589
18.98158865,2.779861689,-7.993822098,-3.637688637,2024-06-11 14:42:42.981589
19.02158865,2.779861689,-7.993822098,-3.637688637,2024-06-11 14:42:43.021589
19.06158865,2.779861689,-7.993822098,-3.637688637,2024-06-11 14:42:43.061589
19.10158865,1.414457321,-8.481359482,1.183250785,2024-06-11 14:42:43.101589
19.14158865,2.179861546,-9.398708344,2.548954248,2024-06-11 14:42:43.141589
19.18158865,3.039782047,-10.03968525,3.55244422,2024-06-11 14:42:43.181589
19.22158865,7.408178806,-8.156534195,3.463909864,2024-06-11 14:42:43.221589
19.26158865,8.056035995,-8.276473999,0.7821539044,2024-06-11 14:42:43.261589
19.30158865,4.838885784,-8.405686378,2.236092806,2024-06-11 14:42:43.301589
19.34158865,4.465306282,-7.402196884,1.773978829,2024-06-11 14:42:43.341589
19.38158865,3.142972469,-8.296813011,-0.3867399693,2024-06-11 14:42:43.381589
19.42158865,2.369193554,-10.0839529,-0.9966106415,2024-06-11 14:42:43.421589
19.46158865,0.4205385745,-10.53051376,-1.56191504,2024-06-11 14:42:43.461589
19.50158865,0.4205385745,-10.53051376,-1.56191504,2024-06-11 14:42:43.501589
19.54158865,0.4205385745,-10.53051376,-1.56191504,2024-06-11 14:42:43.541589
19.58158865,0.4205385745,-10.53051376,-1.56191504,2024-06-11 14:42:43.581589
19.62158865,0.4205385745,-10.53051376,-1.56191504,2024-06-11 14:42:43.621589
19.66158865,0.4205385745,-10.53051376,-1.56191504,2024-06-11 14:42:43.661589
19.70158865,0.4205385745,-10.53051376,-1.56191504,2024-06-11 14:42:43.701589
19.74158865,0.4205385745,-10.53051376,-1.56191504,2024-06-11 14:42:43.741589
19.78158865,0.4205385745,-10.53051376,-1.56191504,2024-06-11 14:42:43.781589
19.82158865,0.4205385745,-10.53051376,-1.56191504,2024-06-11 14:42:43.821589
19.86158865,0.4205385745,-10.53051376,-1.56191504,2024-06-11 14:42:43.861589
19.90158865,2.097309113,-10.07198906,2.501995087,2024-06-11 14:42:43.901589
19.94158865,2.097309113,-10.07198906,2.501995087,2024-06-11 14:42:43.941589
19.98158865,2.097309113,-10.07198906,2.501995087,2024-06-11 14:42:43.981589
20.02158865,2.097309113,-10.07198906,2.501995087,2024-06-11 14:42:44.021589
20.06158865,2.097309113,-10.07198906,2.501995087,2024-06-11 14:42:44.061589
20.10158865,2.097309113,-10.07198906,2.501995087,2024-06-11 14:42:44.101589
20.14158865,3.957429647,-9.609575272,4.189832687,2024-06-11 14:42:44.141589
20.18158865,3.957429647,-9.609575272,4.189832687,2024-06-11 14:42:44.181589
20.22158865,3.957429647,-9.609575272,4.189832687,2024-06-11 14:42:44.221589
20.26158865,3.957429647,-9.609575272,4.189832687,2024-06-11 14:42:44.261589
20.30158865,3.957429647,-9.609575272,4.189832687,2024-06-11 14:42:44.301589
20.34158865,3.957429647,-9.609575272,4.189832687,2024-06-11 14:42:44.341589
20.38158865,3.957429647,-9.609575272,4.189832687,2024-06-11 14:42:44.381589
20.42158865,3.957429647,-9.609575272,4.189832687,2024-06-11 14:42:44.421589
20.46158865,3.957429647,-9.609575272,4.189832687,2024-06-11 14:42:44.461589
20.50158865,3.957429647,-9.609575272,4.189832687,2024-06-11 14:42:44.501589
20.54158865,3.957429647,-9.609575272,4.189832687,2024-06-11 14:42:44.541589
20.58158865,3.957429647,-9.609575272,4.189832687,2024-06-11 14:42:44.581589
20.62158865,3.957429647,-9.609575272,4.189832687,2024-06-11 14:42:44.621589
20.66158865,3.957429647,-9.609575272,4.189832687,2024-06-11 14:42:44.661589
20.70158865,3.957429647,-9.609575272,4.189832687,2024-06-11 14:42:44.701589
20.74158865,3.957429647,-9.609575272,4.189832687,2024-06-11 14:42:44.741589
20.78158865,3.957429647,-9.609575272,4.189832687,2024-06-11 14:42:44.781589
20.82158865,1.04685986,-6.108577251,-3.919144392,2024-06-11 14:42:44.821589
20.86158865,4.504787922,-6.951747894,0.1184447184,2024-06-11 14:42:44.861589
20.90158865,7.917252064,-11.0431757,0.9631111026,2024-06-11 14:42:44.901589
20.94158865,1.189232826,-11.32463169,0.9149555564,2024-06-11 14:42:44.941589
20.98158865,0.02632104978,-10.39890766,0.9798609018,2024-06-11 14:42:44.981589
21.02158865,-0.1821536273,-9.444171906,0.8467600942,2024-06-11 14:42:45.021589
21.06158865,3.025425196,-7.753044605,-1.173679471,2024-06-11 14:42:45.061589
21.10158865,2.571686029,-9.258728027,0.2718844712,2024-06-11 14:42:45.101589
21.14158865,2.988336325,-9.756733894,-2.01475668,2024-06-11 14:42:45.141589
21.18158865,2.988336325,-9.756733894,-2.01475668,2024-06-11 14:42:45.181589
21.22158865,2.988336325,-9.756733894,-2.01475668,2024-06-11 14:42:45.221589
21.26158865,2.988336325,-9.756733894,-2.01475668,2024-06-11 14:42:45.261589
21.30158865,2.988336325,-9.756733894,-2.01475668,2024-06-11 14:42:45.301589
21.34158865,2.988336325,-9.756733894,-2.01475668,2024-06-11 14:42:45.341589
21.38158865,2.988336325,-9.756733894,-2.01475668,2024-06-11 14:42:45.381589
21.42158865,2.988336325,-9.756733894,-2.01475668,2024-06-11 14:42:45.421589
21.46158865,2.988336325,-9.756733894,-2.01475668,2024-06-11 14:42:45.461589
21.50158865,2.988336325,-9.756733894,-2.01475668,2024-06-11 14:42:45.501589
21.54158865,2.988336325,-9.756733894,-2.01475668,2024-06-11 14:42:45.541589
21.58158865,2.988336325,-9.756733894,-2.01475668,2024-06-11 14:42:45.581589
21.62158865,2.988336325,-9.756733894,-2.01475668,2024-06-11 14:42:45.621589
21.66158865,2.988336325,-9.756733894,-2.01475668,2024-06-11 14:42:45.661589
21.70158865,2.988336325,-9.756733894,-2.01475668,2024-06-11 14:42:45.701589
21.74158865,2.988336325,-9.756733894,-2.01475668,2024-06-11 14:42:45.741589
21.78158865,2.988336325,-9.756733894,-2.01475668,2024-06-11 14:42:45.781589
21.82158865,2.988336325,-9.756733894,-2.01475668,2024-06-11 14:42:45.821589
21.86158865,2.988336325,-9.756733894,-2.01475668,2024-06-11 14:42:45.861589
21.90158865,2.988336325,-9.756733894,-2.01475668,2024-06-11 14:42:45.901589
21.94158865,2.988336325,-9.756733894,-2.01475668,2024-06-11 14:42:45.941589
21.98158865,2.988336325,-9.756733894,-2.01475668,2024-06-11 14:42:45.981589
22.02158865,2.988336325,-9.756733894,-2.01475668,2024-06-11 14:42:46.021589
22.06158865,2.988336325,-9.756733894,-2.01475668,2024-06-11 14:42:46.061589
22.10158865,2.988336325,-9.756733894,-2.01475668,2024-06-11 14:42:46.101589
22.14158865,1.296012521,-10.69352436,2.702095032,2024-06-11 14:42:46.141589
22.18158865,1.296012521,-10.69352436,2.702095032,2024-06-11 14:42:46.181589
22.22158865,1.296012521,-10.69352436,2.702095032,2024-06-11 14:42:46.221589
22.26158865,1.296012521,-10.69352436,2.702095032,2024-06-11 14:42:46.261589
22.30158865,1.296012521,-10.69352436,2.702095032,2024-06-11 14:42:46.301589
22.34158865,1.296012521,-10.69352436,2.702095032,2024-06-11 14:42:46.341589
22.38158865,1.296012521,-10.69352436,2.702095032,2024-06-11 14:42:46.381589
22.42158865,1.296012521,-10.69352436,2.702095032,2024-06-11 14:42:46.421589
22.46158865,1.296012521,-10.69352436,2.702095032,2024-06-11 14:42:46.461589
22.50158865,6.421139717,-10.37617588,2.57766819,2024-06-11 14:42:46.501589
22.54158865,7.587640762,-7.010372162,4.933402061,2024-06-11 14:42:46.541589
22.58158865,5.431707382,-3.731008768,-3.115455151,2024-06-11 14:42:46.581589
22.62158865,1.646860242,-4.892724037,-0.5258227587,2024-06-11 14:42:46.621589
22.66158865,2.959622622,-6.247360706,4.630411148,2024-06-11 14:42:46.661589
22.70158865,-2.697309256,-14.08206081,4.865206718,2024-06-11 14:42:46.701589
22.74158865,-1.435992718,-11.47687435,4.250849247,2024-06-11 14:42:46.741589
22.78158865,1.63489604,-9.229715347,2.506780863,2024-06-11 14:42:46.781589
22.82158865,3.296113253,-8.986844063,0.3879363835,2024-06-11 14:42:46.821589
22.86158865,3.296113253,-8.986844063,0.3879363835,2024-06-11 14:42:46.861589
22.90158865,12.50100327,-5.925227165,6.288038731,2024-06-11 14:42:46.901589
22.94158865,12.50100327,-5.925227165,6.288038731,2024-06-11 14:42:46.941589
22.98158865,12.50100327,-5.925227165,6.288038731,2024-06-11 14:42:46.981589
23.02158865,12.50100327,-5.925227165,6.288038731,2024-06-11 14:42:47.021589
23.06158865,12.50100327,-5.925227165,6.288038731,2024-06-11 14:42:47.061589
23.10158865,12.50100327,-5.925227165,6.288038731,2024-06-11 14:42:47.101589
23.14158865,-1.162911773,-11.10808086,-3.848257065,2024-06-11 14:42:47.141589
23.18158865,-1.162911773,-11.10808086,-3.848257065,2024-06-11 14:42:47.181589
23.22158865,-1.162911773,-11.10808086,-3.848257065,2024-06-11 14:42:47.221589
23.26158865,-1.162911773,-11.10808086,-3.848257065,2024-06-11 14:42:47.261589
23.30158865,-1.162911773,-11.10808086,-3.848257065,2024-06-11 14:42:47.301589
23.34158865,-1.162911773,-11.10808086,-3.848257065,2024-06-11 14:42:47.341589
23.38158865,-1.162911773,-11.10808086,-3.848257065,2024-06-11 14:42:47.381589
23.42158865,-1.162911773,-11.10808086,-3.848257065,2024-06-11 14:42:47.421589
23.46158865,-1.162911773,-11.10808086,-3.848257065,2024-06-11 14:42:47.461589
23.50158865,-1.162911773,-11.10808086,-3.848257065,2024-06-11 14:42:47.501589
23.54158865,-1.162911773,-11.10808086,-3.848257065,2024-06-11 14:42:47.541589
23.58158865,-1.162911773,-11.10808086,-3.848257065,2024-06-11 14:42:47.581589
23.62158865,-1.162911773,-11.10808086,-3.848257065,2024-06-11 14:42:47.621589
23.66158865,-1.162911773,-11.10808086,-3.848257065,2024-06-11 14:42:47.661589
23.70158865,-1.162911773,-11.10808086,-3.848257065,2024-06-11 14:42:47.701589
23.74158865,-1.162911773,-11.10808086,-3.848257065,2024-06-11 14:42:47.741589
23.78158865,-1.162911773,-11.10808086,-3.848257065,2024-06-11 14:42:47.781589
23.82158865,-1.162911773,-11.10808086,-3.848257065,2024-06-11 14:42:47.821589
23.86158865,-1.162911773,-11.10808086,-3.848257065,2024-06-11 14:42:47.861589
23.90158865,-1.162911773,-11.10808086,-3.848257065,2024-06-11 14:42:47.901589
23.94158865,-1.162911773,-11.10808086,-3.848257065,2024-06-11 14:42:47.941589
23.98158865,-1.162911773,-11.10808086,-3.848257065,2024-06-11 14:42:47.981589
24.02158865,-1.162911773,-11.10808086,-3.848257065,2024-06-11 14:42:48.021589
24.06158865,-1.162911773,-11.10808086,-3.848257065,2024-06-11 14:42:48.061589
24.10158865,-1.162911773,-11.10808086,-3.848257065,2024-06-11 14:42:48.101589
24.14158865,3.182454109,-9.331708908,-1.935494423,2024-06-11 14:42:48.141589
24.18158865,2.522334099,-9.482457161,-1.614557028,2024-06-11 14:42:48.181589
24.22158865,2.806182861,-8.478966713,-1.555932879,2024-06-11 14:42:48.221589
24.26158865,2.693720102,-8.265707016,-1.576271892,2024-06-11 14:42:48.261589
24.30158865,3.21954298,-9.521040916,-2.271985054,2024-06-11 14:42:48.301589
24.34158865,4.016053677,-12.0350008,-1.508076429,2024-06-11 14:42:48.341589
24.38158865,4.473680973,-11.65543938,-1.692323804,2024-06-11 14:42:48.381589
24.42158865,0.9257232547,-12.72742367,-3.602693558,2024-06-11 14:42:48.421589
24.46158865,3.465106249,-11.31984615,18.92692757,2024-06-11 14:42:48.461589
24.50158865,1.237388372,-12.25065327,1.11984098,2024-06-11 14:42:48.501589
24.54158865,-1.364207983,-9.1423769,4.247260094,2024-06-11 14:42:48.541589
24.58158865,-1.364207983,-9.1423769,4.247260094,2024-06-11 14:42:48.581589
24.62158865,-1.364207983,-9.1423769,4.247260094,2024-06-11 14:42:48.621589
24.66158865,-1.364207983,-9.1423769,4.247260094,2024-06-11 14:42:48.661589
24.70158865,-1.364207983,-9.1423769,4.247260094,2024-06-11 14:42:48.701589
24.74158865,-1.364207983,-9.1423769,4.247260094,2024-06-11 14:42:48.741589
24.78158865,-1.364207983,-9.1423769,4.247260094,2024-06-11 14:42:48.781589
24.82158865,-1.364207983,-9.1423769,4.247260094,2024-06-11 14:42:48.821589
24.86158865,-1.364207983,-9.1423769,4.247260094,2024-06-11 14:42:48.861589
24.90158865,-1.364207983,-9.1423769,4.247260094,2024-06-11 14:42:48.901589
24.94158865,-1.364207983,-9.1423769,4.247260094,2024-06-11 14:42:48.941589
24.98158865,-1.364207983,-9.1423769,4.247260094,2024-06-11 14:42:48.981589
25.02158865,-1.364207983,-9.1423769,4.247260094,2024-06-11 14:42:49.021589
25.06158865,-1.364207983,-9.1423769,4.247260094,2024-06-11 14:42:49.061589
25.10158865,-1.364207983,-9.1423769,4.247260094,2024-06-11 14:42:49.101589
25.14158865,-1.364207983,-9.1423769,4.247260094,2024-06-11 14:42:49.141589
25.18158865,-1.364207983,-9.1423769,4.247260094,2024-06-11 14:42:49.181589
25.22158865,-1.364207983,-9.1423769,4.247260094,2024-06-11 14:42:49.221589
25.26158865,-1.364207983,-9.1423769,4.247260094,2024-06-11 14:42:49.261589
25.30158865,-1.364207983,-9.1423769,4.247260094,2024-06-11 14:42:49.301589
25.34158865,-1.364207983,-9.1423769,4.247260094,2024-06-11 14:42:49.341589
25.38158865,-1.364207983,-9.1423769,4.247260094,2024-06-11 14:42:49.381589
25.42158865,-1.364207983,-9.1423769,4.247260094,2024-06-11 14:42:49.421589
25.46158865,-1.364207983,-9.1423769,4.247260094,2024-06-11 14:42:49.461589
25.50158865,-1.364207983,-9.1423769,4.247260094,2024-06-11 14:42:49.501589
25.54158865,-1.364207983,-9.1423769,4.247260094,2024-06-11 14:42:49.541589
25.58158865,-1.364207983,-9.1423769,4.247260094,2024-06-11 14:42:49.581589
25.62158865,-1.364207983,-9.1423769,4.247260094,2024-06-11 14:42:49.621589
25.66158865,-1.364207983,-9.1423769,4.247260094,2024-06-11 14:42:49.661589
25.70158865,-1.364207983,-9.1423769,4.247260094,2024-06-11 14:42:49.701589
25.74158865,-1.364207983,-9.1423769,4.247260094,2024-06-11 14:42:49.741589
25.78158865,-1.364207983,-9.1423769,4.247260094,2024-06-11 14:42:49.781589
25.82158865,-1.364207983,-9.1423769,4.247260094,2024-06-11 14:42:49.821589
25.86158865,-1.364207983,-9.1423769,4.247260094,2024-06-11 14:42:49.861589
25.90158865,7.227221489,-3.000300407,12.58594799,2024-06-11 14:42:49.901589
25.94158865,6.51445961,-14.41256905,-4.126123428,2024-06-11 14:42:49.941589
25.98158865,1.577468276,-12.18006516,-2.706880569,2024-06-11 14:42:49.981589
26.02158865,-0.5593222976,-8.941081047,-3.330809116,2024-06-11 14:42:50.021589
26.06158865,0.280259341,-10.21196842,-2.545365095,2024-06-11 14:42:50.061589
26.10158865,0.9197412133,-10.08514881,0.7199404836,2024-06-11 14:42:50.101589
26.14158865,2.800200701,-9.761520386,3.665206194,2024-06-11 14:42:50.141589
26.18158865,2.133201361,-8.456234932,-0.5018945336,2024-06-11 14:42:50.181589
26.22158865,1.165304661,-8.789136887,-0.6574280262,2024-06-11 14:42:50.221589
26.26158865,1.165304661,-8.789136887,-0.6574280262,2024-06-11 14:42:50.261589
26.30158865,1.165304661,-8.789136887,-0.6574280262,2024-06-11 14:42:50.301589
26.34158865,1.165304661,-8.789136887,-0.6574280262,2024-06-11 14:42:50.341589
26.38158865,1.165304661,-8.789136887,-0.6574280262,2024-06-11 14:42:50.381589
26.42158865,1.165304661,-8.789136887,-0.6574280262,2024-06-11 14:42:50.421589
26.46158865,1.165304661,-8.789136887,-0.6574280262,2024-06-11 14:42:50.461589
26.50158865,1.165304661,-8.789136887,-0.6574280262,2024-06-11 14:42:50.501589
26.54158865,1.165304661,-8.789136887,-0.6574280262,2024-06-11 14:42:50.541589
26.58158865,1.165304661,-8.789136887,-0.6574280262,2024-06-11 14:42:50.581589
26.62158865,1.165304661,-8.789136887,-0.6574280262,2024-06-11 14:42:50.621589
26.66158865,1.165304661,-8.789136887,-0.6574280262,2024-06-11 14:42:50.661589
26.70158865,1.165304661,-8.789136887,-0.6574280262,2024-06-11 14:42:50.701589
26.74158865,1.165304661,-8.789136887,-0.6574280262,2024-06-11 14:42:50.741589
26.78158865,1.165304661,-8.789136887,-0.6574280262,2024-06-11 14:42:50.781589
26.82158865,1.165304661,-8.789136887,-0.6574280262,2024-06-11 14:42:50.821589
26.86158865,1.165304661,-8.789136887,-0.6574280262,2024-06-11 14:42:50.861589
26.90158865,20.4179554,-15.49651718,21.08166504,2024-06-11 14:42:50.901589
26.94158865,20.4179554,-15.49651718,21.08166504,2024-06-11 14:42:50.941589
26.98158865,20.4179554,-15.49651718,21.08166504,2024-06-11 14:42:50.981589
27.02158865,20.4179554,-15.49651718,21.08166504,2024-06-11 14:42:51.021589
27.06158865,20.4179554,-15.49651718,21.08166504,2024-06-11 14:42:51.061589
27.10158865,20.4179554,-15.49651718,21.08166504,2024-06-11 14:42:51.101589
27.14158865,20.4179554,-15.49651718,21.08166504,2024-06-11 14:42:51.141589
27.18158865,20.4179554,-15.49651718,21.08166504,2024-06-11 14:42:51.181589
27.22158865,20.4179554,-15.49651718,21.08166504,2024-06-11 14:42:51.221589
27.26158865,20.4179554,-15.49651718,21.08166504,2024-06-11 14:42:51.261589
27.30158865,20.4179554,-15.49651718,21.08166504,2024-06-11 14:42:51.301589
27.34158865,20.4179554,-15.49651718,21.08166504,2024-06-11 14:42:51.341589
27.38158865,20.4179554,-15.49651718,21.08166504,2024-06-11 14:42:51.381589
27.42158865,20.4179554,-15.49651718,21.08166504,2024-06-11 14:42:51.421589
27.46158865,20.4179554,-15.49651718,21.08166504,2024-06-11 14:42:51.461589
27.50158865,20.4179554,-15.49651718,21.08166504,2024-06-11 14:42:51.501589
27.54158865,20.4179554,-15.49651718,21.08166504,2024-06-11 14:42:51.541589
27.58158865,2.446960211,-11.69970608,3.559622765,2024-06-11 14:42:51.581589
27.62158865,1.633699656,-12.10199928,-1.935494423,2024-06-11 14:42:51.621589
27.66158865,6.300302029,-14.76700592,2.073380709,2024-06-11 14:42:51.661589
27.70158865,3.202793121,-13.44108295,-2.264806747,2024-06-11 14:42:51.701589
27.74158865,2.8519454,-6.519245148,0.2694916427,2024-06-11 14:42:51.741589
27.78158865,0.8012964725,-5.365904808,-3.355036497,2024-06-11 14:42:51.781589
27.82158865,-0.3352942765,-5.741877079,-5.713163376,2024-06-11 14:42:51.821589
27.86158865,-0.7893323898,-5.161019325,-0.1642074585,2024-06-11 14:42:51.861589
27.90158865,1.380957723,-4.969593525,-4.715655327,2024-06-11 14:42:51.901589
27.94158865,3.640081406,-12.52971649,1.232602715,2024-06-11 14:42:51.941589
27.98158865,3.640081406,-12.52971649,1.232602715,2024-06-11 14:42:51.981589
28.02158865,3.640081406,-12.52971649,1.232602715,2024-06-11 14:42:52.021589
28.06158865,3.640081406,-12.52971649,1.232602715,2024-06-11 14:42:52.061589
28.10158865,3.640081406,-12.52971649,1.232602715,2024-06-11 14:42:52.101589
28.14158865,3.640081406,-12.52971649,1.232602715,2024-06-11 14:42:52.141589
28.18158865,3.640081406,-12.52971649,1.232602715,2024-06-11 14:42:52.181589
28.22158865,3.640081406,-12.52971649,1.232602715,2024-06-11 14:42:52.221589
28.26158865,3.640081406,-12.52971649,1.232602715,2024-06-11 14:42:52.261589
28.30158865,3.640081406,-12.52971649,1.232602715,2024-06-11 14:42:52.301589
28.34158865,3.640081406,-12.52971649,1.232602715,2024-06-11 14:42:52.341589
28.38158865,3.640081406,-12.52971649,1.232602715,2024-06-11 14:42:52.381589
28.42158865,3.640081406,-12.52971649,1.232602715,2024-06-11 14:42:52.421589
28.46158865,3.640081406,-12.52971649,1.232602715,2024-06-11 14:42:52.461589
28.50158865,3.640081406,-12.52971649,1.232602715,2024-06-11 14:42:52.501589
28.54158865,3.640081406,-12.52971649,1.232602715,2024-06-11 14:42:52.541589
28.58158865,3.640081406,-12.52971649,1.232602715,2024-06-11 14:42:52.581589
28.62158865,3.640081406,-12.52971649,1.232602715,2024-06-11 14:42:52.621589
28.66158865,3.640081406,-12.52971649,1.232602715,2024-06-11 14:42:52.661589
28.70158865,3.640081406,-12.52971649,1.232602715,2024-06-11 14:42:52.701589
28.74158865,3.640081406,-12.52971649,1.232602715,2024-06-11 14:42:52.741589
28.78158865,3.640081406,-12.52971649,1.232602715,2024-06-11 14:42:52.781589
28.82158865,3.640081406,-12.52971649,1.232602715,2024-06-11 14:42:52.821589
28.86158865,3.640081406,-12.52971649,1.232602715,2024-06-11 14:42:52.861589
28.90158865,3.640081406,-12.52971649,1.232602715,2024-06-11 14:42:52.901589
28.94158865,3.640081406,-12.52971649,1.232602715,2024-06-11 14:42:52.941589
28.98158865,3.640081406,-12.52971649,1.232602715,2024-06-11 14:42:52.981589
29.02158865,3.640081406,-12.52971649,1.232602715,2024-06-11 14:42:53.021589
29.06158865,3.640081406,-12.52971649,1.232602715,2024-06-11 14:42:53.061589
29.10158865,3.640081406,-12.52971649,1.232602715,2024-06-11 14:42:53.101589
29.14158865,3.640081406,-12.52971649,1.232602715,2024-06-11 14:42:53.141589
29.18158865,3.640081406,-12.52971649,1.232602715,2024-06-11 14:42:53.181589
29.22158865,3.640081406,-12.52971649,1.232602715,2024-06-11 14:42:53.221589
29.26158865,2.904587507,-8.669196129,2.807379246,2024-06-11 14:42:53.261589
29.30158865,3.489034414,-12.2542429,1.061216831,2024-06-11 14:42:53.301589
29.34158865,5.921638012,-7.191329479,0.2192423791,2024-06-11 14:42:53.341589
29.38158865,5.784050465,-5.080859661,-0.643071115,2024-06-11 14:42:53.381589
29.42158865,4.24367094,-7.811668396,6.286842346,2024-06-11 14:42:53.421589
29.46158865,4.351347923,-11.15354443,6.525227547,2024-06-11 14:42:53.461589
29.50158865,1.990529299,-8.251349449,5.211268425,2024-06-11 14:42:53.501589
29.54158865,0.88504529,-9.343673706,3.448356628,2024-06-11 14:42:53.541589
29.58158865,0.2072782665,-10.95942688,2.278266191,2024-06-11 14:42:53.581589
29.62158865,1.94865489,-9.217751503,1.897209287,2024-06-11 14:42:53.621589
29.66158865,1.94865489,-9.217751503,1.897209287,2024-06-11 14:42:53.661589
29.70158865,1.94865489,-9.217751503,1.897209287,2024-06-11 14:42:53.701589
29.74158865,1.94865489,-9.217751503,1.897209287,2024-06-11 14:42:53.741589
29.78158865,1.94865489,-9.217751503,1.897209287,2024-06-11 14:42:53.781589
29.82158865,1.94865489,-9.217751503,1.897209287,2024-06-11 14:42:53.821589
29.86158865,1.94865489,-9.217751503,1.897209287,2024-06-11 14:42:53.861589
29.90158865,9.978369713,-10.54128075,0.6334998012,2024-06-11 14:42:53.901589
29.94158865,9.978369713,-10.54128075,0.6334998012,2024-06-11 14:42:53.941589
29.98158865,9.978369713,-10.54128075,0.6334998012,2024-06-11 14:42:53.981589
30.02158865,9.978369713,-10.54128075,0.6334998012,2024-06-11 14:42:54.021589
30.06158865,9.978369713,-10.54128075,0.6334998012,2024-06-11 14:42:54.061589
30.10158865,9.978369713,-10.54128075,0.6334998012,2024-06-11 14:42:54.101589
30.14158865,2.517548561,-5.694020748,-1.700698733,2024-06-11 14:42:54.141589
30.18158865,2.517548561,-5.694020748,-1.700698733,2024-06-11 14:42:54.181589
30.22158865,2.517548561,-5.694020748,-1.700698733,2024-06-11 14:42:54.221589
30.26158865,2.517548561,-5.694020748,-1.700698733,2024-06-11 14:42:54.261589
30.30158865,2.517548561,-5.694020748,-1.700698733,2024-06-11 14:42:54.301589
30.34158865,2.517548561,-5.694020748,-1.700698733,2024-06-11 14:42:54.341589
30.38158865,2.517548561,-5.694020748,-1.700698733,2024-06-11 14:42:54.381589
30.42158865,2.517548561,-5.694020748,-1.700698733,2024-06-11 14:42:54.421589
30.46158865,2.517548561,-5.694020748,-1.700698733,2024-06-11 14:42:54.461589
30.50158865,2.517548561,-5.694020748,-1.700698733,2024-06-11 14:42:54.501589
30.54158865,2.517548561,-5.694020748,-1.700698733,2024-06-11 14:42:54.541589
30.58158865,2.517548561,-5.694020748,-1.700698733,2024-06-11 14:42:54.581589
30.62158865,2.517548561,-5.694020748,-1.700698733,2024-06-11 14:42:54.621589
30.66158865,2.517548561,-5.694020748,-1.700698733,2024-06-11 14:42:54.661589
30.70158865,2.517548561,-5.694020748,-1.700698733,2024-06-11 14:42:54.701589
30.74158865,2.517548561,-5.694020748,-1.700698733,2024-06-11 14:42:54.741589
30.78158865,2.517548561,-5.694020748,-1.700698733,2024-06-11 14:42:54.781589
30.82158865,2.517548561,-5.694020748,-1.700698733,2024-06-11 14:42:54.821589
30.86158865,2.517548561,-5.694020748,-1.700698733,2024-06-11 14:42:54.861589
30.90158865,2.517548561,-5.694020748,-1.700698733,2024-06-11 14:42:54.901589
30.94158865,2.517548561,-5.694020748,-1.700698733,2024-06-11 14:42:54.941589
30.98158865,-0.432502687,-12.09960651,4.051946163,2024-06-11 14:42:54.981589
31.02158865,-2.129612207,-12.65175056,0.1486541033,2024-06-11 14:42:55.021589
31.06158865,0.3376871049,-14.15743446,3.636492252,2024-06-11 14:42:55.061589
31.10158865,1.229013562,-12.29851055,2.99551487,2024-06-11 14:42:55.101589
31.14158865,3.48783803,-10.41924667,1.070788145,2024-06-11 14:42:55.141589
31.18158865,8.107481003,-10.82154083,-0.6804589629,2024-06-11 14:42:55.181589
31.22158865,4.594518661,-13.19432354,-1.628913999,2024-06-11 14:42:55.221589
31.26158865,2.545365095,-7.853542805,0.9810572863,2024-06-11 14:42:55.261589
31.30158865,0.8659027219,-6.962515831,-1.579861164,2024-06-11 14:42:55.301589
31.34158865,0.8659027219,-6.962515831,-1.579861164,2024-06-11 14:42:55.341589
31.38158865,0.8659027219,-6.962515831,-1.579861164,2024-06-11 14:42:55.381589
31.42158865,0.8659027219,-6.962515831,-1.579861164,2024-06-11 14:42:55.421589
31.46158865,0.8659027219,-6.962515831,-1.579861164,2024-06-11 14:42:55.461589
31.50158865,0.8659027219,-6.962515831,-1.579861164,2024-06-11 14:42:55.501589
31.54158865,0.8659027219,-6.962515831,-1.579861164,2024-06-11 14:42:55.541589
31.58158865,0.8659027219,-6.962515831,-1.579861164,2024-06-11 14:42:55.581589
31.62158865,0.8659027219,-6.962515831,-1.579861164,2024-06-11 14:42:55.621589
31.66158865,0.8659027219,-6.962515831,-1.579861164,2024-06-11 14:42:55.661589
31.70158865,0.8659027219,-6.962515831,-1.579861164,2024-06-11 14:42:55.701589
31.74158865,0.8659027219,-6.962515831,-1.579861164,2024-06-11 14:42:55.741589
31.78158865,0.8659027219,-6.962515831,-1.579861164,2024-06-11 14:42:55.781589
31.82158865,0.8659027219,-6.962515831,-1.579861164,2024-06-11 14:42:55.821589
31.86158865,0.8659027219,-6.962515831,-1.579861164,2024-06-11 14:42:55.861589
31.90158865,0.8659027219,-6.962515831,-1.579861164,2024-06-11 14:42:55.901589
31.94158865,0.8659027219,-6.962515831,-1.579861164,2024-06-11 14:42:55.941589
31.98158865,0.8659027219,-6.962515831,-1.579861164,2024-06-11 14:42:55.981589
32.02158865,0.8659027219,-6.962515831,-1.579861164,2024-06-11 14:42:56.021589
32.06158865,0.8659027219,-6.962515831,-1.579861164,2024-06-11 14:42:56.061589
32.10158865,0.8659027219,-6.962515831,-1.579861164,2024-06-11 14:42:56.101589
32.14158865,0.8659027219,-6.962515831,-1.579861164,2024-06-11 14:42:56.141589
32.18158865,0.8659027219,-6.962515831,-1.579861164,2024-06-11 14:42:56.181589
32.22158865,0.8659027219,-6.962515831,-1.579861164,2024-06-11 14:42:56.221589
32.26158865,0.8659027219,-6.962515831,-1.579861164,2024-06-11 14:42:56.261589
32.30158865,0.8659027219,-6.962515831,-1.579861164,2024-06-11 14:42:56.301589
32.34158865,0.8659027219,-6.962515831,-1.579861164,2024-06-11 14:42:56.341589
32.38158865,0.8659027219,-6.962515831,-1.579861164,2024-06-11 14:42:56.381589
32.42158865,0.8659027219,-6.962515831,-1.579861164,2024-06-11 14:42:56.421589
32.46158865,0.8659027219,-6.962515831,-1.579861164,2024-06-11 14:42:56.461589
32.50158865,0.8659027219,-6.962515831,-1.579861164,2024-06-11 14:42:56.501589
32.54158865,0.8659027219,-6.962515831,-1.579861164,2024-06-11 14:42:56.541589
32.58158865,0.8659027219,-6.962515831,-1.579861164,2024-06-11 14:42:56.581589
32.62158865,0.8659027219,-6.962515831,-1.579861164,2024-06-11 14:42:56.621589
32.66158865,6.235396862,-17.22951889,19.01905251,2024-06-11 14:42:56.661589
32.70158865,6.600900173,-10.35224819,8.961420059,2024-06-11 14:42:56.701589
32.74158865,4.802993298,-8.912366867,-1.704287887,2024-06-11 14:42:56.741589
32.78158865,5.684449196,-14.70359612,0.4396811724,2024-06-11 14:42:56.781589
32.82158865,1.250548959,-8.154141426,-1.832603097,2024-06-11 14:42:56.821589
32.86158865,-0.294616282,-3.889234066,-2.83519578,2024-06-11 14:42:56.861589
32.90158865,2.170290232,-8.307580948,-4.230510235,2024-06-11 14:42:56.901589
32.94158865,4.042374611,-14.84716511,-2.505584478,2024-06-11 14:42:56.941589
32.98158865,1.515254974,-9.897013664,0.4731806815,2024-06-11 14:42:56.981589
33.02158865,1.515254974,-9.897013664,0.4731806815,2024-06-11 14:42:57.021589
33.06158865,1.515254974,-9.897013664,0.4731806815,2024-06-11 14:42:57.061589
33.10158865,1.515254974,-9.897013664,0.4731806815,2024-06-11 14:42:57.101589
33.14158865,0.5976074338,-8.581858635,-0.280259341,2024-06-11 14:42:57.141589
33.18158865,0.5976074338,-8.581858635,-0.280259341,2024-06-11 14:42:57.181589
33.22158865,0.5976074338,-8.581858635,-0.280259341,2024-06-11 14:42:57.221589
33.26158865,0.5976074338,-8.581858635,-0.280259341,2024-06-11 14:42:57.261589
33.30158865,0.5976074338,-8.581858635,-0.280259341,2024-06-11 14:42:57.301589
33.34158865,0.5976074338,-8.581858635,-0.280259341,2024-06-11 14:42:57.341589
33.38158865,0.5976074338,-8.581858635,-0.280259341,2024-06-11 14:42:57.381589
33.42158865,0.5976074338,-8.581858635,-0.280259341,2024-06-11 14:42:57.421589
33.46158865,0.5976074338,-8.581858635,-0.280259341,2024-06-11 14:42:57.461589
33.50158865,0.5976074338,-8.581858635,-0.280259341,2024-06-11 14:42:57.501589
33.54158865,0.5976074338,-8.581858635,-0.280259341,2024-06-11 14:42:57.541589
33.58158865,0.5976074338,-8.581858635,-0.280259341,2024-06-11 14:42:57.581589
33.62158865,0.5976074338,-8.581858635,-0.280259341,2024-06-11 14:42:57.621589
33.66158865,0.5976074338,-8.581858635,-0.280259341,2024-06-11 14:42:57.661589
33.70158865,0.5976074338,-8.581858635,-0.280259341,2024-06-11 14:42:57.701589
33.74158865,0.5976074338,-8.581858635,-0.280259341,2024-06-11 14:42:57.741589
33.78158865,0.5976074338,-8.581858635,-0.280259341,2024-06-11 14:42:57.781589
33.82158865,0.5976074338,-8.581858635,-0.280259341,2024-06-11 14:42:57.821589
33.86158865,0.5976074338,-8.581858635,-0.280259341,2024-06-11 14:42:57.861589
33.90158865,0.5976074338,-8.581858635,-0.280259341,2024-06-11 14:42:57.901589
33.94158865,0.5976074338,-8.581858635,-0.280259341,2024-06-11 14:42:57.941589
33.98158865,0.5976074338,-8.581858635,-0.280259341,2024-06-11 14:42:57.981589
34.02158865,0.5976074338,-8.581858635,-0.280259341,2024-06-11 14:42:58.021589
34.06158865,0.5976074338,-8.581858635,-0.280259341,2024-06-11 14:42:58.061589
34.10158865,0.5976074338,-8.581858635,-0.280259341,2024-06-11 14:42:58.101589
34.14158865,-3.483052492,-11.10179996,6.381658077,2024-06-11 14:42:58.141589
34.18158865,-3.483052492,-11.10179996,6.381658077,2024-06-11 14:42:58.181589
34.22158865,-3.483052492,-11.10179996,6.381658077,2024-06-11 14:42:58.221589
34.26158865,-3.483052492,-11.10179996,6.381658077,2024-06-11 14:42:58.261589
34.30158865,-3.483052492,-11.10179996,6.381658077,2024-06-11 14:42:58.301589
34.34158865,-3.483052492,-11.10179996,6.381658077,2024-06-11 14:42:58.341589
34.38158865,2.568096876,-8.341080666,-0.6586244106,2024-06-11 14:42:58.381589
34.42158865,4.500001907,-9.471689224,-1.80508554,2024-06-11 14:42:58.421589
34.46158865,2.95603323,-12.40259838,-3.157329559,2024-06-11 14:42:58.461589
34.50158865,2.472084999,-14.28544998,-4.875974178,2024-06-11 14:42:58.501589
34.54158865,3.772883177,-10.16889763,-3.245863914,2024-06-11 14:42:58.541589
34.58158865,1.518844128,-7.787740231,0.6876373887,2024-06-11 14:42:58.581589
34.62158865,4.055535316,-7.640581608,2.409871578,2024-06-11 14:42:58.621589
34.66158865,6.521637917,-8.28126049,2.073380709,2024-06-11 14:42:58.661589
34.70158865,6.919445038,-5.867799282,11.37368393,2024-06-11 14:42:58.701589
34.74158865,6.919445038,-5.867799282,11.37368393,2024-06-11 14:42:58.741589
34.78158865,6.919445038,-5.867799282,11.37368393,2024-06-11 14:42:58.781589
34.82158865,6.919445038,-5.867799282,11.37368393,2024-06-11 14:42:58.821589
34.86158865,6.919445038,-5.867799282,11.37368393,2024-06-11 14:42:58.861589
34.90158865,4.606482506,-11.4445715,2.862713099,2024-06-11 14:42:58.901589
34.94158865,4.606482506,-11.4445715,2.862713099,2024-06-11 14:42:58.941589
34.98158865,4.606482506,-11.4445715,2.862713099,2024-06-11 14:42:58.981589
35.02158865,4.606482506,-11.4445715,2.862713099,2024-06-11 14:42:59.021589
35.06158865,4.606482506,-11.4445715,2.862713099,2024-06-11 14:42:59.061589
35.10158865,4.606482506,-11.4445715,2.862713099,2024-06-11 14:42:59.101589
35.14158865,4.606482506,-11.4445715,2.862713099,2024-06-11 14:42:59.141589
35.18158865,4.606482506,-11.4445715,2.862713099,2024-06-11 14:42:59.181589
35.22158865,4.606482506,-11.4445715,2.862713099,2024-06-11 14:42:59.221589
35.26158865,4.606482506,-11.4445715,2.862713099,2024-06-11 14:42:59.261589
35.30158865,4.606482506,-11.4445715,2.862713099,2024-06-11 14:42:59.301589
35.34158865,4.606482506,-11.4445715,2.862713099,2024-06-11 14:42:59.341589
35.38158865,4.606482506,-11.4445715,2.862713099,2024-06-11 14:42:59.381589
35.42158865,4.606482506,-11.4445715,2.862713099,2024-06-11 14:42:59.421589
35.46158865,4.606482506,-11.4445715,2.862713099,2024-06-11 14:42:59.461589
35.50158865,4.606482506,-11.4445715,2.862713099,2024-06-11 14:42:59.501589
35.54158865,4.606482506,-11.4445715,2.862713099,2024-06-11 14:42:59.541589
35.58158865,4.606482506,-11.4445715,2.862713099,2024-06-11 14:42:59.581589
35.62158865,4.606482506,-11.4445715,2.862713099,2024-06-11 14:42:59.621589
35.66158865,4.606482506,-11.4445715,2.862713099,2024-06-11 14:42:59.661589
35.70158865,4.606482506,-11.4445715,2.862713099,2024-06-11 14:42:59.701589
35.74158865,4.606482506,-11.4445715,2.862713099,2024-06-11 14:42:59.741589
35.78158865,4.606482506,-11.4445715,2.862713099,2024-06-11 14:42:59.781589
35.82158865,4.606482506,-11.4445715,2.862713099,2024-06-11 14:42:59.821589
35.86158865,4.606482506,-11.4445715,2.862713099,2024-06-11 14:42:59.861589
35.90158865,4.606482506,-11.4445715,2.862713099,2024-06-11 14:42:59.901589
35.94158865,4.606482506,-11.4445715,2.862713099,2024-06-11 14:42:59.941589
35.98158865,4.606482506,-11.4445715,2.862713099,2024-06-11 14:42:59.981589
36.02158865,4.606482506,-11.4445715,2.862713099,2024-06-11 14:43:00.021589
36.06158865,2.128415823,-11.94766235,3.900001764,2024-06-11 14:43:00.061589
36.10158865,6.604489803,-10.49103165,-2.443371058,2024-06-11 14:43:00.101589
36.14158865,8.766405106,-9.622735977,-3.159722328,2024-06-11 14:43:00.141589
36.18158865,5.732305527,-8.173583031,-3.875774384,2024-06-11 14:43:00.181589
36.22158865,2.108076811,-9.118449211,0.8192426562,2024-06-11 14:43:00.221589
36.26158865,-1.868495345,-10.12941647,0.6346961856,2024-06-11 14:43:00.261589
36.30158865,-0.4492524564,-7.514659405,-2.221735716,2024-06-11 14:43:00.301589
36.34158865,2.10209465,-5.991029739,-3.150151014,2024-06-11 14:43:00.341589
36.38158865,7.778169155,-5.75025177,1.769193292,2024-06-11 14:43:00.381589
36.42158865,7.778169155,-5.75025177,1.769193292,2024-06-11 14:43:00.421589
36.46158865,7.778169155,-5.75025177,1.769193292,2024-06-11 14:43:00.461589
36.50158865,7.778169155,-5.75025177,1.769193292,2024-06-11 14:43:00.501589
36.54158865,7.778169155,-5.75025177,1.769193292,2024-06-11 14:43:00.541589
36.58158865,7.778169155,-5.75025177,1.769193292,2024-06-11 14:43:00.581589
36.62158865,7.778169155,-5.75025177,1.769193292,2024-06-11 14:43:00.621589
36.66158865,7.778169155,-5.75025177,1.769193292,2024-06-11 14:43:00.661589
36.70158865,7.778169155,-5.75025177,1.769193292,2024-06-11 14:43:00.701589
36.74158865,7.778169155,-5.75025177,1.769193292,2024-06-11 14:43:00.741589
36.78158865,7.778169155,-5.75025177,1.769193292,2024-06-11 14:43:00.781589
36.82158865,7.778169155,-5.75025177,1.769193292,2024-06-11 14:43:00.821589
36.86158865,7.778169155,-5.75025177,1.769193292,2024-06-11 14:43:00.861589
36.90158865,10.17607689,-2.326122761,5.684449196,2024-06-11 14:43:00.901589
36.94158865,10.17607689,-2.326122761,5.684449196,2024-06-11 14:43:00.941589
36.98158865,10.17607689,-2.326122761,5.684449196,2024-06-11 14:43:00.981589
37.02158865,10.17607689,-2.326122761,5.684449196,2024-06-11 14:43:01.021589
37.06158865,10.17607689,-2.326122761,5.684449196,2024-06-11 14:43:01.061589
37.10158865,10.17607689,-2.326122761,5.684449196,2024-06-11 14:43:01.101589
37.14158865,7.902894974,-5.704788208,4.401597023,2024-06-11 14:43:01.141589
37.18158865,7.902894974,-5.704788208,4.401597023,2024-06-11 14:43:01.181589
37.22158865,7.902894974,-5.704788208,4.401597023,2024-06-11 14:43:01.221589
37.26158865,7.902894974,-5.704788208,4.401597023,2024-06-11 14:43:01.261589
37.30158865,7.902894974,-5.704788208,4.401597023,2024-06-11 14:43:01.301589
37.34158865,7.902894974,-5.704788208,4.401597023,2024-06-11 14:43:01.341589
37.38158865,7.902894974,-5.704788208,4.401597023,2024-06-11 14:43:01.381589
37.42158865,7.902894974,-5.704788208,4.401597023,2024-06-11 14:43:01.421589
37.46158865,7.902894974,-5.704788208,4.401597023,2024-06-11 14:43:01.461589
37.50158865,7.902894974,-5.704788208,4.401597023,2024-06-11 14:43:01.501589
37.54158865,7.902894974,-5.704788208,4.401597023,2024-06-11 14:43:01.541589
37.58158865,7.902894974,-5.704788208,4.401597023,2024-06-11 14:43:01.581589
37.62158865,7.902894974,-5.704788208,4.401597023,2024-06-11 14:43:01.621589
37.66158865,7.902894974,-5.704788208,4.401597023,2024-06-11 14:43:01.661589
37.70158865,7.902894974,-5.704788208,4.401597023,2024-06-11 14:43:01.701589
37.74158865,1.355833173,-7.471588612,3.481856108,2024-06-11 14:43:01.741589
37.78158865,1.357029557,-8.354241371,7.041478634,2024-06-11 14:43:01.781589
37.82158865,4.049553394,-7.18893671,10.1282196,2024-06-11 14:43:01.821589
37.86158865,5.264209747,-3.573979616,4.945366383,2024-06-11 14:43:01.861589
37.90158865,4.95015192,-5.595914841,1.772782445,2024-06-11 14:43:01.901589
37.94158865,4.533501625,-13.40040493,3.247060299,2024-06-11 14:43:01.941589
37.98158865,10.57986546,-18.38315964,1.967797518,2024-06-11 14:43:01.981589
38.02158865,4.680660248,-3.870988846,-2.702095032,2024-06-11 14:43:02.021589
38.06158865,5.719145298,-1.388136268,-0.9379864931,2024-06-11 14:43:02.061589
38.10158865,5.719145298,-1.388136268,-0.9379864931,2024-06-11 14:43:02.101589
38.14158865,5.313262463,-10.18564796,0.8778668046,2024-06-11 14:43:02.141589
38.18158865,5.313262463,-10.18564796,0.8778668046,2024-06-11 14:43:02.181589
38.22158865,5.313262463,-10.18564796,0.8778668046,2024-06-11 14:43:02.221589
38.26158865,5.313262463,-10.18564796,0.8778668046,2024-06-11 14:43:02.261589
38.30158865,5.313262463,-10.18564796,0.8778668046,2024-06-11 14:43:02.301589
38.34158865,5.313262463,-10.18564796,0.8778668046,2024-06-11 14:43:02.341589
38.38158865,5.313262463,-10.18564796,0.8778668046,2024-06-11 14:43:02.381589
38.42158865,5.313262463,-10.18564796,0.8778668046,2024-06-11 14:43:02.421589
38.46158865,5.313262463,-10.18564796,0.8778668046,2024-06-11 14:43:02.461589
38.50158865,5.313262463,-10.18564796,0.8778668046,2024-06-11 14:43:02.501589
38.54158865,5.313262463,-10.18564796,0.8778668046,2024-06-11 14:43:02.541589
38.58158865,5.313262463,-10.18564796,0.8778668046,2024-06-11 14:43:02.581589
38.62158865,5.313262463,-10.18564796,0.8778668046,2024-06-11 14:43:02.621589
38.66158865,5.313262463,-10.18564796,0.8778668046,2024-06-11 14:43:02.661589
38.70158865,5.313262463,-10.18564796,0.8778668046,2024-06-11 14:43:02.701589
38.74158865,5.313262463,-10.18564796,0.8778668046,2024-06-11 14:43:02.741589
38.78158865,5.313262463,-10.18564796,0.8778668046,2024-06-11 14:43:02.781589
38.82158865,5.313262463,-10.18564796,0.8778668046,2024-06-11 14:43:02.821589
38.86158865,5.313262463,-10.18564796,0.8778668046,2024-06-11 14:43:02.861589
38.90158865,5.313262463,-10.18564796,0.8778668046,2024-06-11 14:43:02.901589
38.94158865,5.313262463,-10.18564796,0.8778668046,2024-06-11 14:43:02.941589
38.98158865,5.313262463,-10.18564796,0.8778668046,2024-06-11 14:43:02.981589
39.02158865,5.313262463,-10.18564796,0.8778668046,2024-06-11 14:43:03.021589
39.06158865,5.313262463,-10.18564796,0.8778668046,2024-06-11 14:43:03.061589
39.10158865,5.313262463,-10.18564796,0.8778668046,2024-06-11 14:43:03.101589
39.14158865,5.313262463,-10.18564796,0.8778668046,2024-06-11 14:43:03.141589
39.18158865,5.313262463,-10.18564796,0.8778668046,2024-06-11 14:43:03.181589
39.22158865,5.313262463,-10.18564796,0.8778668046,2024-06-11 14:43:03.221589
39.26158865,5.313262463,-10.18564796,0.8778668046,2024-06-11 14:43:03.261589
39.30158865,5.313262463,-10.18564796,0.8778668046,2024-06-11 14:43:03.301589
39.34158865,5.313262463,-10.18564796,0.8778668046,2024-06-11 14:43:03.341589
39.38158865,5.313262463,-10.18564796,0.8778668046,2024-06-11 14:43:03.381589
39.42158865,5.313262463,-10.18564796,0.8778668046,2024-06-11 14:43:03.421589
39.46158865,1.252941728,-12.49143124,14.38983727,2024-06-11 14:43:03.461589
39.50158865,-0.9173483849,-14.71555996,-3.468695641,2024-06-11 14:43:03.501589
39.54158865,-6.648756981,-17.62612915,0.371186614,2024-06-11 14:43:03.541589
39.58158865,-0.07178468257,-18.31346893,12.69003582,2024-06-11 14:43:03.581589
39.62158865,3.678366661,-16.34806252,13.59930801,2024-06-11 14:43:03.621589
39.66158865,-4.650749683,-14.07368565,-3.859024763,2024-06-11 14:43:03.661589
39.70158865,-0.007178467698,-8.819046974,-3.672384501,2024-06-11 14:43:03.701589
39.74158865,5.223531723,-12.24706459,-4.41984272,2024-06-11 14:43:03.741589
39.78158865,17.22832298,-18.43580055,-3.349054337,2024-06-11 14:43:03.781589
39.82158865,17.22832298,-18.43580055,-3.349054337,2024-06-11 14:43:03.821589
39.86158865,17.22832298,-18.43580055,-3.349054337,2024-06-11 14:43:03.861589
39.90158865,0.2623131871,-1.354636669,0.8503493667,2024-06-11 14:43:03.901589
39.94158865,0.2623131871,-1.354636669,0.8503493667,2024-06-11 14:43:03.941589
39.98158865,0.2623131871,-1.354636669,0.8503493667,2024-06-11 14:43:03.981589
40.02158865,0.2623131871,-1.354636669,0.8503493667,2024-06-11 14:43:04.021589
40.06158865,0.2623131871,-1.354636669,0.8503493667,2024-06-11 14:43:04.061589
40.10158865,0.2623131871,-1.354636669,0.8503493667,2024-06-11 14:43:04.101589
40.14158865,0.2623131871,-1.354636669,0.8503493667,2024-06-11 14:43:04.141589
40.18158865,0.2623131871,-1.354636669,0.8503493667,2024-06-11 14:43:04.181589
40.22158865,0.2623131871,-1.354636669,0.8503493667,2024-06-11 14:43:04.221589
40.26158865,0.2623131871,-1.354636669,0.8503493667,2024-06-11 14:43:04.261589
40.30158865,0.2623131871,-1.354636669,0.8503493667,2024-06-11 14:43:04.301589
40.34158865,0.2623131871,-1.354636669,0.8503493667,2024-06-11 14:43:04.341589
40.38158865,0.2623131871,-1.354636669,0.8503493667,2024-06-11 14:43:04.381589
40.42158865,0.2623131871,-1.354636669,0.8503493667,2024-06-11 14:43:04.421589
40.46158865,0.2623131871,-1.354636669,0.8503493667,2024-06-11 14:43:04.461589
40.50158865,0.2623131871,-1.354636669,0.8503493667,2024-06-11 14:43:04.501589
40.54158865,0.2623131871,-1.354636669,0.8503493667,2024-06-11 14:43:04.541589
40.58158865,0.2623131871,-1.354636669,0.8503493667,2024-06-11 14:43:04.581589
40.62158865,0.2623131871,-1.354636669,0.8503493667,2024-06-11 14:43:04.621589
40.66158865,0.2623131871,-1.354636669,0.8503493667,2024-06-11 14:43:04.661589
40.70158865,0.2623131871,-1.354636669,0.8503493667,2024-06-11 14:43:04.701589
40.74158865,0.2623131871,-1.354636669,0.8503493667,2024-06-11 14:43:04.741589
40.78158865,0.2623131871,-1.354636669,0.8503493667,2024-06-11 14:43:04.781589
40.82158865,0.2623131871,-1.354636669,0.8503493667,2024-06-11 14:43:04.821589
40.86158865,0.2623131871,-1.354636669,0.8503493667,2024-06-11 14:43:04.861589
40.90158865,0.2623131871,-1.354636669,0.8503493667,2024-06-11 14:43:04.901589
40.94158865,0.2623131871,-1.354636669,0.8503493667,2024-06-11 14:43:04.941589
40.98158865,0.2623131871,-1.354636669,0.8503493667,2024-06-11 14:43:04.981589
41.02158865,0.2623131871,-1.354636669,0.8503493667,2024-06-11 14:43:05.021589
41.06158865,0.2623131871,-1.354636669,0.8503493667,2024-06-11 14:43:05.061589
41.10158865,0.2623131871,-1.354636669,0.8503493667,2024-06-11 14:43:05.101589
41.14158865,5.121537685,-3.196810961,6.887141705,2024-06-11 14:43:05.141589
41.18158865,6.699006081,-0.509073019,5.013860703,2024-06-11 14:43:05.181589
41.22158865,8.024929047,-0.9173483849,0.6936194897,2024-06-11 14:43:05.221589
41.26158865,-0.1052841991,-14.00279808,4.365705013,2024-06-11 14:43:05.261589
41.30158865,-5.473581791,-10.93908787,-3.005086184,2024-06-11 14:43:05.301589
41.34158865,-2.267199516,-8.402097702,-2.487638235,2024-06-11 14:43:05.341589
41.38158865,16.73270988,-8.626125336,-1.365404367,2024-06-11 14:43:05.381589
41.42158865,14.98385525,-18.0021019,-1.849352837,2024-06-11 14:43:05.421589
41.46158865,10.48265648,-16.13121414,6.331408501,2024-06-11 14:43:05.461589
41.50158865,10.48265648,-16.13121414,6.331408501,2024-06-11 14:43:05.501589
41.54158865,10.48265648,-16.13121414,6.331408501,2024-06-11 14:43:05.541589
41.58158865,10.48265648,-16.13121414,6.331408501,2024-06-11 14:43:05.581589
41.62158865,10.48265648,-16.13121414,6.331408501,2024-06-11 14:43:05.621589
41.66158865,10.48265648,-16.13121414,6.331408501,2024-06-11 14:43:05.661589
41.70158865,10.48265648,-16.13121414,6.331408501,2024-06-11 14:43:05.701589
41.74158865,10.48265648,-16.13121414,6.331408501,2024-06-11 14:43:05.741589
41.78158865,10.48265648,-16.13121414,6.331408501,2024-06-11 14:43:05.781589
41.82158865,10.48265648,-16.13121414,6.331408501,2024-06-11 14:43:05.821589
41.86158865,10.48265648,-16.13121414,6.331408501,2024-06-11 14:43:05.861589
41.90158865,-1.140179992,-6.093023777,-4.980361462,2024-06-11 14:43:05.901589
41.94158865,-1.140179992,-6.093023777,-4.980361462,2024-06-11 14:43:05.941589
41.98158865,-1.140179992,-6.093023777,-4.980361462,2024-06-11 14:43:05.981589
42.02158865,-1.140179992,-6.093023777,-4.980361462,2024-06-11 14:43:06.021589
42.06158865,-1.140179992,-6.093023777,-4.980361462,2024-06-11 14:43:06.061589
42.10158865,-1.140179992,-6.093023777,-4.980361462,2024-06-11 14:43:06.101589
42.14158865,0.1821536273,-11.34257793,6.131309032,2024-06-11 14:43:06.141589
42.18158865,0.1821536273,-11.34257793,6.131309032,2024-06-11 14:43:06.181589
42.22158865,0.1821536273,-11.34257793,6.131309032,2024-06-11 14:43:06.221589
42.26158865,0.1821536273,-11.34257793,6.131309032,2024-06-11 14:43:06.261589
42.30158865,0.1821536273,-11.34257793,6.131309032,2024-06-11 14:43:06.301589
42.34158865,0.1821536273,-11.34257793,6.131309032,2024-06-11 14:43:06.341589
42.38158865,0.1821536273,-11.34257793,6.131309032,2024-06-11 14:43:06.381589
42.42158865,0.1821536273,-11.34257793,6.131309032,2024-06-11 14:43:06.421589
42.46158865,0.1821536273,-11.34257793,6.131309032,2024-06-11 14:43:06.461589
42.50158865,0.1821536273,-11.34257793,6.131309032,2024-06-11 14:43:06.501589
42.54158865,0.1821536273,-11.34257793,6.131309032,2024-06-11 14:43:06.541589
42.58158865,0.1821536273,-11.34257793,6.131309032,2024-06-11 14:43:06.581589
42.62158865,0.1821536273,-11.34257793,6.131309032,2024-06-11 14:43:06.621589
42.66158865,0.1821536273,-11.34257793,6.131309032,2024-06-11 14:43:06.661589
42.70158865,0.1821536273,-11.34257793,6.131309032,2024-06-11 14:43:06.701589
42.74158865,0.1821536273,-11.34257793,6.131309032,2024-06-11 14:43:06.741589
42.78158865,0.1821536273,-11.34257793,6.131309032,2024-06-11 14:43:06.781589
42.82158865,2.243271112,-7.127919674,-2.338086843,2024-06-11 14:43:06.821589
42.86158865,0.6538388133,-2.523530483,-3.03499651,2024-06-11 14:43:06.861589
42.90158865,0.879063189,-4.504787922,-0.9463613629,2024-06-11 14:43:06.901589
42.94158865,5.715556145,-13.79103374,-2.641077995,2024-06-11 14:43:06.941589
42.98158865,0.9053842425,-11.66381359,-6.632007122,2024-06-11 14:43:06.981589
43.02158865,0.5150550604,-10.52453136,3.380161047,2024-06-11 14:43:07.021589
43.06158865,0.8347960114,-11.68175983,1.058824062,2024-06-11 14:43:07.061589
43.10158865,3.136990547,-7.995018482,-1.384546995,2024-06-11 14:43:07.101589
43.14158865,2.999104023,-6.979265213,-1.861316919,2024-06-11 14:43:07.141589
43.18158865,2.999104023,-6.979265213,-1.861316919,2024-06-11 14:43:07.181589
43.22158865,2.999104023,-6.979265213,-1.861316919,2024-06-11 14:43:07.221589
43.26158865,2.999104023,-6.979265213,-1.861316919,2024-06-11 14:43:07.261589
43.30158865,2.999104023,-6.979265213,-1.861316919,2024-06-11 14:43:07.301589
43.34158865,2.999104023,-6.979265213,-1.861316919,2024-06-11 14:43:07.341589
43.38158865,2.999104023,-6.979265213,-1.861316919,2024-06-11 14:43:07.381589
43.42158865,2.999104023,-6.979265213,-1.861316919,2024-06-11 14:43:07.421589
43.46158865,2.999104023,-6.979265213,-1.861316919,2024-06-11 14:43:07.461589
43.50158865,2.999104023,-6.979265213,-1.861316919,2024-06-11 14:43:07.501589
43.54158865,2.999104023,-6.979265213,-1.861316919,2024-06-11 14:43:07.541589
43.58158865,2.999104023,-6.979265213,-1.861316919,2024-06-11 14:43:07.581589
43.62158865,2.999104023,-6.979265213,-1.861316919,2024-06-11 14:43:07.621589
43.66158865,2.999104023,-6.979265213,-1.861316919,2024-06-11 14:43:07.661589
43.70158865,2.999104023,-6.979265213,-1.861316919,2024-06-11 14:43:07.701589
43.74158865,2.999104023,-6.979265213,-1.861316919,2024-06-11 14:43:07.741589
43.78158865,2.999104023,-6.979265213,-1.861316919,2024-06-11 14:43:07.781589
43.82158865,2.999104023,-6.979265213,-1.861316919,2024-06-11 14:43:07.821589
43.86158865,2.999104023,-6.979265213,-1.861316919,2024-06-11 14:43:07.861589
43.90158865,2.999104023,-6.979265213,-1.861316919,2024-06-11 14:43:07.901589
43.94158865,2.999104023,-6.979265213,-1.861316919,2024-06-11 14:43:07.941589
43.98158865,2.999104023,-6.979265213,-1.861316919,2024-06-11 14:43:07.981589
44.02158865,2.999104023,-6.979265213,-1.861316919,2024-06-11 14:43:08.021589
44.06158865,2.999104023,-6.979265213,-1.861316919,2024-06-11 14:43:08.061589
44.10158865,2.999104023,-6.979265213,-1.861316919,2024-06-11 14:43:08.101589
44.14158865,1.692323804,-10.70788097,1.977368832,2024-06-11 14:43:08.141589
44.18158865,1.692323804,-10.70788097,1.977368832,2024-06-11 14:43:08.181589
44.22158865,1.692323804,-10.70788097,1.977368832,2024-06-11 14:43:08.221589
44.26158865,1.692323804,-10.70788097,1.977368832,2024-06-11 14:43:08.261589
44.30158865,1.692323804,-10.70788097,1.977368832,2024-06-11 14:43:08.301589
44.34158865,1.692323804,-10.70788097,1.977368832,2024-06-11 14:43:08.341589
44.38158865,1.692323804,-10.70788097,1.977368832,2024-06-11 14:43:08.381589
44.42158865,1.692323804,-10.70788097,1.977368832,2024-06-11 14:43:08.421589
44.46158865,1.692323804,-10.70788097,1.977368832,2024-06-11 14:43:08.461589
44.50158865,1.692323804,-10.70788097,1.977368832,2024-06-11 14:43:08.501589
44.54158865,9.0921278,-11.82532978,-0.7761718631,2024-06-11 14:43:08.541589
44.58158865,2.137987137,-13.01964664,2.867498875,2024-06-11 14:43:08.581589
44.62158865,-2.941676378,-8.90159893,-0.5569294691,2024-06-11 14:43:08.621589
44.66158865,-2.187039852,-5.126323223,-4.186243057,2024-06-11 14:43:08.661589
44.70158865,-5.75772953,-7.279863834,0.4241278172,2024-06-11 14:43:08.701589
44.74158865,1.554736495,-6.894320011,-6.31226635,2024-06-11 14:43:08.741589
44.78158865,2.450549603,-9.385547638,-4.981557846,2024-06-11 14:43:08.781589
44.82158865,5.091627598,-13.24457264,3.024228811,2024-06-11 14:43:08.821589
44.86158865,11.26720333,-12.8255291,3.152543783,2024-06-11 14:43:08.861589
44.90158865,11.26720333,-12.8255291,3.152543783,2024-06-11 14:43:08.901589
44.94158865,11.26720333,-12.8255291,3.152543783,2024-06-11 14:43:08.941589
44.98158865,11.26720333,-12.8255291,3.152543783,2024-06-11 14:43:08.981589
45.02158865,11.26720333,-12.8255291,3.152543783,2024-06-11 14:43:09.021589
45.06158865,11.26720333,-12.8255291,3.152543783,2024-06-11 14:43:09.061589
45.10158865,11.26720333,-12.8255291,3.152543783,2024-06-11 14:43:09.101589
45.14158865,11.26720333,-12.8255291,3.152543783,2024-06-11 14:43:09.141589
45.18158865,11.26720333,-12.8255291,3.152543783,2024-06-11 14:43:09.181589
45.22158865,11.26720333,-12.8255291,3.152543783,2024-06-11 14:43:09.221589
45.26158865,11.26720333,-12.8255291,3.152543783,2024-06-11 14:43:09.261589
45.30158865,11.26720333,-12.8255291,3.152543783,2024-06-11 14:43:09.301589
45.34158865,11.26720333,-12.8255291,3.152543783,2024-06-11 14:43:09.341589
45.38158865,11.26720333,-12.8255291,3.152543783,2024-06-11 14:43:09.381589
45.42158865,11.26720333,-12.8255291,3.152543783,2024-06-11 14:43:09.421589
45.46158865,11.26720333,-12.8255291,3.152543783,2024-06-11 14:43:09.461589
45.50158865,11.26720333,-12.8255291,3.152543783,2024-06-11 14:43:09.501589
45.54158865,11.26720333,-12.8255291,3.152543783,2024-06-11 14:43:09.541589
45.58158865,11.26720333,-12.8255291,3.152543783,2024-06-11 14:43:09.581589
45.62158865,11.26720333,-12.8255291,3.152543783,2024-06-11 14:43:09.621589
45.66158865,11.26720333,-12.8255291,3.152543783,2024-06-11 14:43:09.661589
45.70158865,11.26720333,-12.8255291,3.152543783,2024-06-11 14:43:09.701589
45.74158865,11.26720333,-12.8255291,3.152543783,2024-06-11 14:43:09.741589
45.78158865,11.26720333,-12.8255291,3.152543783,2024-06-11 14:43:09.781589
45.82158865,11.26720333,-12.8255291,3.152543783,2024-06-11 14:43:09.821589
45.86158865,11.26720333,-12.8255291,3.152543783,2024-06-11 14:43:09.861589
45.90158865,11.26720333,-12.8255291,3.152543783,2024-06-11 14:43:09.901589
45.94158865,11.26720333,-12.8255291,3.152543783,2024-06-11 14:43:09.941589
45.98158865,11.26720333,-12.8255291,3.152543783,2024-06-11 14:43:09.981589
46.02158865,11.26720333,-12.8255291,3.152543783,2024-06-11 14:43:10.021589
46.06158865,11.26720333,-12.8255291,3.152543783,2024-06-11 14:43:10.061589
46.10158865,11.26720333,-12.8255291,3.152543783,2024-06-11 14:43:10.101589
46.14158865,1.640878081,-11.68774223,-1.521237016,2024-06-11 14:43:10.141589
46.18158865,1.640878081,-11.68774223,-1.521237016,2024-06-11 14:43:10.181589
46.22158865,-0.7067800164,-9.3807621,8.408080101,2024-06-11 14:43:10.221589
46.26158865,1.026520967,-9.340084076,0.1989033818,2024-06-11 14:43:10.261589
46.30158865,1.426421404,-13.13928795,-1.485344648,2024-06-11 14:43:10.301589
46.34158865,5.286941528,-8.236992836,-3.62452817,2024-06-11 14:43:10.341589
46.38158865,2.194218397,-7.023532867,-0.7953144312,2024-06-11 14:43:10.381589
46.42158865,1.758425593,-7.220043182,-0.5401797295,2024-06-11 14:43:10.421589
46.46158865,1.772782445,-9.183054924,5.13709116,2024-06-11 14:43:10.461589
46.50158865,1.654038668,-12.44716454,5.059324265,2024-06-11 14:43:10.501589
46.54158865,0.8718847632,-10.63968563,8.284849167,2024-06-11 14:43:10.541589
46.58158865,0.8718847632,-10.63968563,8.284849167,2024-06-11 14:43:10.581589
46.62158865,0.8718847632,-10.63968563,8.284849167,2024-06-11 14:43:10.621589
46.66158865,0.8718847632,-10.63968563,8.284849167,2024-06-11 14:43:10.661589
46.70158865,0.8718847632,-10.63968563,8.284849167,2024-06-11 14:43:10.701589
46.74158865,0.8718847632,-10.63968563,8.284849167,2024-06-11 14:43:10.741589
46.78158865,0.8718847632,-10.63968563,8.284849167,2024-06-11 14:43:10.781589
46.82158865,0.8718847632,-10.63968563,8.284849167,2024-06-11 14:43:10.821589
46.86158865,0.8718847632,-10.63968563,8.284849167,2024-06-11 14:43:10.861589
46.90158865,2.771486759,-3.040978432,3.474677563,2024-06-11 14:43:10.901589
46.94158865,2.771486759,-3.040978432,3.474677563,2024-06-11 14:43:10.941589
46.98158865,2.771486759,-3.040978432,3.474677563,2024-06-11 14:43:10.981589
47.02158865,2.771486759,-3.040978432,3.474677563,2024-06-11 14:43:11.021589
47.06158865,2.771486759,-3.040978432,3.474677563,2024-06-11 14:43:11.061589
47.10158865,2.771486759,-3.040978432,3.474677563,2024-06-11 14:43:11.101589
47.14158865,1.639681697,-11.99791145,5.900102615,2024-06-11 14:43:11.141589
47.18158865,1.639681697,-11.99791145,5.900102615,2024-06-11 14:43:11.181589
47.22158865,1.639681697,-11.99791145,5.900102615,2024-06-11 14:43:11.221589
47.26158865,1.639681697,-11.99791145,5.900102615,2024-06-11 14:43:11.261589
47.30158865,1.639681697,-11.99791145,5.900102615,2024-06-11 14:43:11.301589
47.34158865,1.639681697,-11.99791145,5.900102615,2024-06-11 14:43:11.341589
47.38158865,1.639681697,-11.99791145,5.900102615,2024-06-11 14:43:11.381589
47.42158865,1.639681697,-11.99791145,5.900102615,2024-06-11 14:43:11.421589
47.46158865,1.639681697,-11.99791145,5.900102615,2024-06-11 14:43:11.461589
47.50158865,1.639681697,-11.99791145,5.900102615,2024-06-11 14:43:11.501589
47.54158865,1.639681697,-11.99791145,5.900102615,2024-06-11 14:43:11.541589
47.58158865,1.639681697,-11.99791145,5.900102615,2024-06-11 14:43:11.581589
47.62158865,1.639681697,-11.99791145,5.900102615,2024-06-11 14:43:11.621589
47.66158865,1.639681697,-11.99791145,5.900102615,2024-06-11 14:43:11.661589
47.70158865,1.639681697,-11.99791145,5.900102615,2024-06-11 14:43:11.701589
47.74158865,1.639681697,-11.99791145,5.900102615,2024-06-11 14:43:11.741589
47.78158865,1.639681697,-11.99791145,5.900102615,2024-06-11 14:43:11.781589
47.82158865,1.639681697,-11.99791145,5.900102615,2024-06-11 14:43:11.821589
47.86158865,1.639681697,-11.99791145,5.900102615,2024-06-11 14:43:11.861589
47.90158865,5.910870075,-7.672884941,0.8862416744,2024-06-11 14:43:11.901589
47.94158865,3.781257868,-8.126624107,2.82083869,2024-06-11 14:43:11.941589
47.98158865,3.685544968,-9.306584358,0.8862416744,2024-06-11 14:43:11.981589
48.02158865,5.263013363,-8.966505051,0.8288139701,2024-06-11 14:43:12.021589
48.06158865,4.552644253,-8.392526627,-0.4121637046,2024-06-11 14:43:12.061589
48.10158865,4.651946545,-8.305188179,-0.5485545993,2024-06-11 14:43:12.101589
48.14158865,5.668895721,-8.477770805,0.1534397453,2024-06-11 14:43:12.141589
48.18158865,3.538087368,-8.712566376,0.4492524564,2024-06-11 14:43:12.181589
48.22158865,2.504388094,-8.618947029,0.8108677864,2024-06-11 14:43:12.221589
48.26158865,2.504388094,-8.618947029,0.8108677864,2024-06-11 14:43:12.261589
48.30158865,2.504388094,-8.618947029,0.8108677864,2024-06-11 14:43:12.301589
48.34158865,2.504388094,-8.618947029,0.8108677864,2024-06-11 14:43:12.341589
48.38158865,2.504388094,-8.618947029,0.8108677864,2024-06-11 14:43:12.381589
48.42158865,2.504388094,-8.618947029,0.8108677864,2024-06-11 14:43:12.421589
48.46158865,2.504388094,-8.618947029,0.8108677864,2024-06-11 14:43:12.461589
48.50158865,2.504388094,-8.618947029,0.8108677864,2024-06-11 14:43:12.501589
48.54158865,2.504388094,-8.618947029,0.8108677864,2024-06-11 14:43:12.541589
48.58158865,2.504388094,-8.618947029,0.8108677864,2024-06-11 14:43:12.581589
48.62158865,2.504388094,-8.618947029,0.8108677864,2024-06-11 14:43:12.621589
48.66158865,2.504388094,-8.618947029,0.8108677864,2024-06-11 14:43:12.661589
48.70158865,2.504388094,-8.618947029,0.8108677864,2024-06-11 14:43:12.701589
48.74158865,2.504388094,-8.618947029,0.8108677864,2024-06-11 14:43:12.741589
48.78158865,2.504388094,-8.618947029,0.8108677864,2024-06-11 14:43:12.781589
48.82158865,2.504388094,-8.618947029,0.8108677864,2024-06-11 14:43:12.821589
48.86158865,2.504388094,-8.618947029,0.8108677864,2024-06-11 14:43:12.861589
48.90158865,2.504388094,-8.618947029,0.8108677864,2024-06-11 14:43:12.901589
48.94158865,2.504388094,-8.618947029,0.8108677864,2024-06-11 14:43:12.941589
48.98158865,2.504388094,-8.618947029,0.8108677864,2024-06-11 14:43:12.981589
49.02158865,2.504388094,-8.618947029,0.8108677864,2024-06-11 14:43:13.021589
49.06158865,2.504388094,-8.618947029,0.8108677864,2024-06-11 14:43:13.061589
49.10158865,2.504388094,-8.618947029,0.8108677864,2024-06-11 14:43:13.101589
49.14158865,2.504388094,-8.618947029,0.8108677864,2024-06-11 14:43:13.141589
49.18158865,2.504388094,-8.618947029,0.8108677864,2024-06-11 14:43:13.181589
49.22158865,2.504388094,-8.618947029,0.8108677864,2024-06-11 14:43:13.221589
49.26158865,2.504388094,-8.618947029,0.8108677864,2024-06-11 14:43:13.261589
49.30158865,2.504388094,-8.618947029,0.8108677864,2024-06-11 14:43:13.301589
49.34158865,2.504388094,-8.618947029,0.8108677864,2024-06-11 14:43:13.341589
49.38158865,2.504388094,-8.618947029,0.8108677864,2024-06-11 14:43:13.381589
49.42158865,2.504388094,-8.618947029,0.8108677864,2024-06-11 14:43:13.421589
49.46158865,2.504388094,-8.618947029,0.8108677864,2024-06-11 14:43:13.461589
49.50158865,2.504388094,-8.618947029,0.8108677864,2024-06-11 14:43:13.501589
49.54158865,2.504388094,-8.618947029,0.8108677864,2024-06-11 14:43:13.541589
49.58158865,2.504388094,-8.618947029,0.8108677864,2024-06-11 14:43:13.581589
49.62158865,1.318744421,-4.819743156,-4.442574501,2024-06-11 14:43:13.621589
49.66158865,1.633699656,-9.724431038,0.08015955985,2024-06-11 14:43:13.661589
49.70158865,0.5413761139,-12.04337502,-0.7701897621,2024-06-11 14:43:13.701589
49.74158865,-0.432502687,-9.212965012,-1.179661512,2024-06-11 14:43:13.741589
49.78158865,2.861516714,-10.15214825,6.944569588,2024-06-11 14:43:13.781589
49.82158865,1.866102576,-9.91017437,-1.097109199,2024-06-11 14:43:13.821589
49.86158865,1.686341763,-7.114758968,-0.9966106415,2024-06-11 14:43:13.861589
49.90158865,4.072285175,-6.268896103,-1.106680512,2024-06-11 14:43:13.901589
49.94158865,2.382354021,-12.92961693,-3.625724554,2024-06-11 14:43:13.941589
49.98158865,2.382354021,-12.92961693,-3.625724554,2024-06-11 14:43:13.981589
50.02158865,2.382354021,-12.92961693,-3.625724554,2024-06-11 14:43:14.021589
50.06158865,2.382354021,-12.92961693,-3.625724554,2024-06-11 14:43:14.061589
50.10158865,2.382354021,-12.92961693,-3.625724554,2024-06-11 14:43:14.101589
50.14158865,2.354836702,-13.20030499,3.75134778,2024-06-11 14:43:14.141589
50.18158865,2.354836702,-13.20030499,3.75134778,2024-06-11 14:43:14.181589
50.22158865,2.354836702,-13.20030499,3.75134778,2024-06-11 14:43:14.221589
50.26158865,2.354836702,-13.20030499,3.75134778,2024-06-11 14:43:14.261589
50.30158865,2.354836702,-13.20030499,3.75134778,2024-06-11 14:43:14.301589
50.34158865,2.354836702,-13.20030499,3.75134778,2024-06-11 14:43:14.341589
50.38158865,2.354836702,-13.20030499,3.75134778,2024-06-11 14:43:14.381589
50.42158865,2.354836702,-13.20030499,3.75134778,2024-06-11 14:43:14.421589
50.46158865,2.354836702,-13.20030499,3.75134778,2024-06-11 14:43:14.461589
50.50158865,2.354836702,-13.20030499,3.75134778,2024-06-11 14:43:14.501589
50.54158865,2.354836702,-13.20030499,3.75134778,2024-06-11 14:43:14.541589
50.58158865,2.354836702,-13.20030499,3.75134778,2024-06-11 14:43:14.581589
50.62158865,2.354836702,-13.20030499,3.75134778,2024-06-11 14:43:14.621589
50.66158865,2.354836702,-13.20030499,3.75134778,2024-06-11 14:43:14.661589
50.70158865,2.354836702,-13.20030499,3.75134778,2024-06-11 14:43:14.701589
50.74158865,2.354836702,-13.20030499,3.75134778,2024-06-11 14:43:14.741589
50.78158865,2.354836702,-13.20030499,3.75134778,2024-06-11 14:43:14.781589
50.82158865,2.354836702,-13.20030499,3.75134778,2024-06-11 14:43:14.821589
50.86158865,2.354836702,-13.20030499,3.75134778,2024-06-11 14:43:14.861589
50.90158865,2.354836702,-13.20030499,3.75134778,2024-06-11 14:43:14.901589
50.94158865,2.354836702,-13.20030499,3.75134778,2024-06-11 14:43:14.941589
50.98158865,2.354836702,-13.20030499,3.75134778,2024-06-11 14:43:14.981589
51.02158865,2.354836702,-13.20030499,3.75134778,2024-06-11 14:43:15.021589
51.06158865,2.354836702,-13.20030499,3.75134778,2024-06-11 14:43:15.061589
51.10158865,2.354836702,-13.20030499,3.75134778,2024-06-11 14:43:15.101589
51.14158865,-1.237388372,-10.75813103,-1.260120273,2024-06-11 14:43:15.141589
51.18158865,-1.237388372,-10.75813103,-1.260120273,2024-06-11 14:43:15.181589
51.22158865,-1.237388372,-10.75813103,-1.260120273,2024-06-11 14:43:15.221589
51.26158865,-1.237388372,-10.75813103,-1.260120273,2024-06-11 14:43:15.261589
51.30158865,9.932906151,-9.525827408,8.729315758,2024-06-11 14:43:15.301589
51.34158865,3.382553816,-8.120641708,5.29292345,2024-06-11 14:43:15.341589
51.38158865,0.02632104978,-9.330513,-0.5700899959,2024-06-11 14:43:15.381589
51.42158865,-1.983350873,-12.78724384,-2.654238462,2024-06-11 14:43:15.421589
51.46158865,0.3723830283,-15.75763416,-4.069892406,2024-06-11 14:43:15.461589
51.50158865,1.577468276,-10.60379314,-0.4169493318,2024-06-11 14:43:15.501589
51.54158865,3.430410385,-7.299006462,0.3352942765,2024-06-11 14:43:15.541589
51.58158865,2.224128723,-7.230811119,-1.001396298,2024-06-11 14:43:15.581589
51.62158865,2.964408159,-6.046363831,-1.954637051,2024-06-11 14:43:15.621589
51.66158865,2.964408159,-6.046363831,-1.954637051,2024-06-11 14:43:15.661589
51.70158865,2.964408159,-6.046363831,-1.954637051,2024-06-11 14:43:15.701589
51.74158865,2.964408159,-6.046363831,-1.954637051,2024-06-11 14:43:15.741589
51.78158865,2.964408159,-6.046363831,-1.954637051,2024-06-11 14:43:15.781589
51.82158865,2.964408159,-6.046363831,-1.954637051,2024-06-11 14:43:15.821589
51.86158865,2.964408159,-6.046363831,-1.954637051,2024-06-11 14:43:15.861589
51.90158865,2.964408159,-6.046363831,-1.954637051,2024-06-11 14:43:15.901589
51.94158865,2.964408159,-6.046363831,-1.954637051,2024-06-11 14:43:15.941589
51.98158865,2.964408159,-6.046363831,-1.954637051,2024-06-11 14:43:15.981589
52.02158865,2.964408159,-6.046363831,-1.954637051,2024-06-11 14:43:16.021589
52.06158865,2.964408159,-6.046363831,-1.954637051,2024-06-11 14:43:16.061589
52.10158865,2.964408159,-6.046363831,-1.954637051,2024-06-11 14:43:16.101589
52.14158865,2.964408159,-6.046363831,-1.954637051,2024-06-11 14:43:16.141589
52.18158865,2.964408159,-6.046363831,-1.954637051,2024-06-11 14:43:16.181589
52.22158865,2.964408159,-6.046363831,-1.954637051,2024-06-11 14:43:16.221589
52.26158865,2.964408159,-6.046363831,-1.954637051,2024-06-11 14:43:16.261589
52.30158865,2.964408159,-6.046363831,-1.954637051,2024-06-11 14:43:16.301589
52.34158865,2.964408159,-6.046363831,-1.954637051,2024-06-11 14:43:16.341589
52.38158865,2.964408159,-6.046363831,-1.954637051,2024-06-11 14:43:16.381589
52.42158865,2.964408159,-6.046363831,-1.954637051,2024-06-11 14:43:16.421589
52.46158865,2.964408159,-6.046363831,-1.954637051,2024-06-11 14:43:16.461589
52.50158865,2.964408159,-6.046363831,-1.954637051,2024-06-11 14:43:16.501589
52.54158865,2.964408159,-6.046363831,-1.954637051,2024-06-11 14:43:16.541589
52.58158865,2.964408159,-6.046363831,-1.954637051,2024-06-11 14:43:16.581589
52.62158865,2.964408159,-6.046363831,-1.954637051,2024-06-11 14:43:16.621589
52.66158865,2.964408159,-6.046363831,-1.954637051,2024-06-11 14:43:16.661589
52.70158865,2.964408159,-6.046363831,-1.954637051,2024-06-11 14:43:16.701589
52.74158865,2.964408159,-6.046363831,-1.954637051,2024-06-11 14:43:16.741589
52.78158865,2.964408159,-6.046363831,-1.954637051,2024-06-11 14:43:16.781589
52.82158865,2.964408159,-6.046363831,-1.954637051,2024-06-11 14:43:16.821589
52.86158865,2.964408159,-6.046363831,-1.954637051,2024-06-11 14:43:16.861589
52.90158865,2.964408159,-6.046363831,-1.954637051,2024-06-11 14:43:16.901589
52.94158865,2.964408159,-6.046363831,-1.954637051,2024-06-11 14:43:16.941589
52.98158865,12.49502087,-28.10998344,-12.69003582,2024-06-11 14:43:16.981589
53.02158865,21.8231411,-27.44059181,-11.73799133,2024-06-11 14:43:17.021589
53.06158865,7.217650414,-14.03151226,8.723334312,2024-06-11 14:43:17.061589
53.10158865,7.97467947,-18.50997925,-0.9643075466,2024-06-11 14:43:17.101589
53.14158865,-4.400400639,-8.927920341,-10.70070267,2024-06-11 14:43:17.141589
53.18158865,-0.3687937856,-1.85294199,-3.353840113,2024-06-11 14:43:17.181589
53.22158865,-2.540280342,1.73060894,2.080559254,2024-06-11 14:43:17.221589
53.26158865,-2.595614433,4.418646336,2.944069147,2024-06-11 14:43:17.261589
53.30158865,-0.7941179872,-2.278266191,7.403393269,2024-06-11 14:43:17.301589
53.34158865,-0.7941179872,-2.278266191,7.403393269,2024-06-11 14:43:17.341589
53.38158865,-0.7941179872,-2.278266191,7.403393269,2024-06-11 14:43:17.381589
53.42158865,-0.7941179872,-2.278266191,7.403393269,2024-06-11 14:43:17.421589
53.46158865,-0.7941179872,-2.278266191,7.403393269,2024-06-11 14:43:17.461589
53.50158865,-0.7941179872,-2.278266191,7.403393269,2024-06-11 14:43:17.501589
53.54158865,-0.7941179872,-2.278266191,7.403393269,2024-06-11 14:43:17.541589
53.58158865,-0.7941179872,-2.278266191,7.403393269,2024-06-11 14:43:17.581589
53.62158865,-0.7941179872,-2.278266191,7.403393269,2024-06-11 14:43:17.621589
53.66158865,-0.7941179872,-2.278266191,7.403393269,2024-06-11 14:43:17.661589
53.70158865,-0.7941179872,-2.278266191,7.403393269,2024-06-11 14:43:17.701589
53.74158865,-0.7941179872,-2.278266191,7.403393269,2024-06-11 14:43:17.741589
53.78158865,-0.7941179872,-2.278266191,7.403393269,2024-06-11 14:43:17.781589
53.82158865,-0.7941179872,-2.278266191,7.403393269,2024-06-11 14:43:17.821589
53.86158865,-0.7941179872,-2.278266191,7.403393269,2024-06-11 14:43:17.861589
53.90158865,4.340580463,-4.581357956,3.412464142,2024-06-11 14:43:17.901589
53.94158865,4.340580463,-4.581357956,3.412464142,2024-06-11 14:43:17.941589
53.98158865,4.340580463,-4.581357956,3.412464142,2024-06-11 14:43:17.981589
54.02158865,4.340580463,-4.581357956,3.412464142,2024-06-11 14:43:18.021589
54.06158865,4.340580463,-4.581357956,3.412464142,2024-06-11 14:43:18.061589
54.10158865,4.340580463,-4.581357956,3.412464142,2024-06-11 14:43:18.101589
54.14158865,4.340580463,-4.581357956,3.412464142,2024-06-11 14:43:18.141589
54.18158865,4.340580463,-4.581357956,3.412464142,2024-06-11 14:43:18.181589
54.22158865,4.340580463,-4.581357956,3.412464142,2024-06-11 14:43:18.221589
54.26158865,4.340580463,-4.581357956,3.412464142,2024-06-11 14:43:18.261589
54.30158865,4.340580463,-4.581357956,3.412464142,2024-06-11 14:43:18.301589
54.34158865,4.340580463,-4.581357956,3.412464142,2024-06-11 14:43:18.341589
54.38158865,4.340580463,-4.581357956,3.412464142,2024-06-11 14:43:18.381589
54.42158865,4.340580463,-4.581357956,3.412464142,2024-06-11 14:43:18.421589
54.46158865,4.340580463,-4.581357956,3.412464142,2024-06-11 14:43:18.461589
54.50158865,4.340580463,-4.581357956,3.412464142,2024-06-11 14:43:18.501589
54.54158865,4.340580463,-4.581357956,3.412464142,2024-06-11 14:43:18.541589
54.58158865,4.340580463,-4.581357956,3.412464142,2024-06-11 14:43:18.581589
54.62158865,4.340580463,-4.581357956,3.412464142,2024-06-11 14:43:18.621589
54.66158865,4.340580463,-4.581357956,3.412464142,2024-06-11 14:43:18.661589
54.70158865,-0.8491529226,-14.44128323,-2.611167669,2024-06-11 14:43:18.701589
54.74158865,-1.200000525,-12.00389385,7.877471447,2024-06-11 14:43:18.741589
54.78158865,1.79671073,-9.471689224,-2.684148788,2024-06-11 14:43:18.781589
54.82158865,3.164507866,-10.30439186,-1.398903966,2024-06-11 14:43:18.821589
54.86158865,4.614857674,-11.43380356,-1.905584097,2024-06-11 14:43:18.861589
54.90158865,10.72343445,-13.29990673,6.488138676,2024-06-11 14:43:18.901589
54.94158865,8.269295692,-9.223732948,6.986443996,2024-06-11 14:43:18.941589
54.98158865,-2.127219439,0.6514459848,0.323330164,2024-06-11 14:43:18.981589
55.02158865,-9.730413437,12.57637691,14.34676647,2024-06-11 14:43:19.021589
55.06158865,-9.730413437,12.57637691,14.34676647,2024-06-11 14:43:19.061589
55.10158865,-9.730413437,12.57637691,14.34676647,2024-06-11 14:43:19.101589
55.14158865,7.692027569,1.439581871,0.3101696372,2024-06-11 14:43:19.141589
55.18158865,7.692027569,1.439581871,0.3101696372,2024-06-11 14:43:19.181589
55.22158865,7.692027569,1.439581871,0.3101696372,2024-06-11 14:43:19.221589
55.26158865,7.692027569,1.439581871,0.3101696372,2024-06-11 14:43:19.261589
55.30158865,7.692027569,1.439581871,0.3101696372,2024-06-11 14:43:19.301589
55.34158865,7.692027569,1.439581871,0.3101696372,2024-06-11 14:43:19.341589
55.38158865,7.692027569,1.439581871,0.3101696372,2024-06-11 14:43:19.381589
55.42158865,7.692027569,1.439581871,0.3101696372,2024-06-11 14:43:19.421589
55.46158865,7.692027569,1.439581871,0.3101696372,2024-06-11 14:43:19.461589
55.50158865,7.692027569,1.439581871,0.3101696372,2024-06-11 14:43:19.501589
55.54158865,7.692027569,1.439581871,0.3101696372,2024-06-11 14:43:19.541589
55.58158865,7.692027569,1.439581871,0.3101696372,2024-06-11 14:43:19.581589
55.62158865,7.692027569,1.439581871,0.3101696372,2024-06-11 14:43:19.621589
55.66158865,7.692027569,1.439581871,0.3101696372,2024-06-11 14:43:19.661589
55.70158865,7.692027569,1.439581871,0.3101696372,2024-06-11 14:43:19.701589
55.74158865,7.692027569,1.439581871,0.3101696372,2024-06-11 14:43:19.741589
55.78158865,7.692027569,1.439581871,0.3101696372,2024-06-11 14:43:19.781589
55.82158865,7.692027569,1.439581871,0.3101696372,2024-06-11 14:43:19.821589
55.86158865,7.692027569,1.439581871,0.3101696372,2024-06-11 14:43:19.861589
55.90158865,7.692027569,1.439581871,0.3101696372,2024-06-11 14:43:19.901589
55.94158865,7.692027569,1.439581871,0.3101696372,2024-06-11 14:43:19.941589
55.98158865,7.692027569,1.439581871,0.3101696372,2024-06-11 14:43:19.981589
56.02158865,7.692027569,1.439581871,0.3101696372,2024-06-11 14:43:20.021589
56.06158865,7.692027569,1.439581871,0.3101696372,2024-06-11 14:43:20.061589
56.10158865,7.692027569,1.439581871,0.3101696372,2024-06-11 14:43:20.101589
56.14158865,7.692027569,1.439581871,0.3101696372,2024-06-11 14:43:20.141589
56.18158865,7.692027569,1.439581871,0.3101696372,2024-06-11 14:43:20.181589
56.22158865,7.692027569,1.439581871,0.3101696372,2024-06-11 14:43:20.221589
56.26158865,7.692027569,1.439581871,0.3101696372,2024-06-11 14:43:20.261589
56.30158865,7.692027569,1.439581871,0.3101696372,2024-06-11 14:43:20.301589
56.34158865,7.692027569,1.439581871,0.3101696372,2024-06-11 14:43:20.341589
56.38158865,-2.049452543,-13.21226978,-1.56191504,2024-06-11 14:43:20.381589
56.42158865,-1.600200176,-10.98335457,1.290030479,2024-06-11 14:43:20.421589
56.46158865,6.991229534,-8.234600067,-0.513858676,2024-06-11 14:43:20.461589
56.50158865,24.0448761,-10.91994476,6.403193474,2024-06-11 14:43:20.501589
56.54158865,16.56012726,-13.08664608,8.627322197,2024-06-11 14:43:20.541589
56.58158865,11.8528471,-4.08424902,0.7857431173,2024-06-11 14:43:20.581589
56.62158865,9.101698875,-2.922533751,-3.656831264,2024-06-11 14:43:20.621589
56.66158865,5.128716469,-2.933301449,-6.652346134,2024-06-11 14:43:20.661589
56.70158865,3.153740168,-3.396910906,-6.853642464,2024-06-11 14:43:20.701589
56.74158865,3.153740168,-3.396910906,-6.853642464,2024-06-11 14:43:20.741589
56.78158865,3.153740168,-3.396910906,-6.853642464,2024-06-11 14:43:20.781589
56.82158865,3.153740168,-3.396910906,-6.853642464,2024-06-11 14:43:20.821589
56.86158865,3.153740168,-3.396910906,-6.853642464,2024-06-11 14:43:20.861589
56.90158865,-1.882852316,-12.33918858,-8.611768723,2024-06-11 14:43:20.901589
56.94158865,-1.882852316,-12.33918858,-8.611768723,2024-06-11 14:43:20.941589
56.98158865,-1.882852316,-12.33918858,-8.611768723,2024-06-11 14:43:20.981589
57.02158865,-1.882852316,-12.33918858,-8.611768723,2024-06-11 14:43:21.021589
57.06158865,-1.882852316,-12.33918858,-8.611768723,2024-06-11 14:43:21.061589
57.10158865,-1.882852316,-12.33918858,-8.611768723,2024-06-11 14:43:21.101589
57.14158865,0.879063189,-4.980361462,0.2324029058,2024-06-11 14:43:21.141589
57.18158865,0.879063189,-4.980361462,0.2324029058,2024-06-11 14:43:21.181589
57.22158865,0.879063189,-4.980361462,0.2324029058,2024-06-11 14:43:21.221589
57.26158865,0.879063189,-4.980361462,0.2324029058,2024-06-11 14:43:21.261589
57.30158865,0.879063189,-4.980361462,0.2324029058,2024-06-11 14:43:21.301589
57.34158865,0.879063189,-4.980361462,0.2324029058,2024-06-11 14:43:21.341589
57.38158865,0.879063189,-4.980361462,0.2324029058,2024-06-11 14:43:21.381589
57.42158865,0.879063189,-4.980361462,0.2324029058,2024-06-11 14:43:21.421589
57.46158865,0.879063189,-4.980361462,0.2324029058,2024-06-11 14:43:21.461589
57.50158865,0.879063189,-4.980361462,0.2324029058,2024-06-11 14:43:21.501589
57.54158865,0.879063189,-4.980361462,0.2324029058,2024-06-11 14:43:21.541589
57.58158865,0.879063189,-4.980361462,0.2324029058,2024-06-11 14:43:21.581589
57.62158865,0.879063189,-4.980361462,0.2324029058,2024-06-11 14:43:21.621589
57.66158865,0.879063189,-4.980361462,0.2324029058,2024-06-11 14:43:21.661589
57.70158865,0.879063189,-4.980361462,0.2324029058,2024-06-11 14:43:21.701589
57.74158865,0.879063189,-4.980361462,0.2324029058,2024-06-11 14:43:21.741589
57.78158865,0.879063189,-4.980361462,0.2324029058,2024-06-11 14:43:21.781589
57.82158865,0.879063189,-4.980361462,0.2324029058,2024-06-11 14:43:21.821589
57.86158865,0.879063189,-4.980361462,0.2324029058,2024-06-11 14:43:21.861589
57.90158865,0.879063189,-4.980361462,0.2324029058,2024-06-11 14:43:21.901589
57.94158865,0.879063189,-4.980361462,0.2324029058,2024-06-11 14:43:21.941589
57.98158865,0.879063189,-4.980361462,0.2324029058,2024-06-11 14:43:21.981589
58.02158865,0.879063189,-4.980361462,0.2324029058,2024-06-11 14:43:22.021589
58.06158865,-3.278167009,-3.661616802,-2.327319145,2024-06-11 14:43:22.061589
58.10158865,2.109273195,-1.004985452,-4.799404144,2024-06-11 14:43:22.101589
58.14158865,12.44596767,-2.491227388,13.52991676,2024-06-11 14:43:22.141589
58.18158865,15.46541119,-15.17079449,-9.686145782,2024-06-11 14:43:22.181589
58.22158865,3.510569811,4.409972191,2.291426897,2024-06-11 14:43:22.221589
58.26158865,-3.545265913,-6.143272877,-5.034199715,2024-06-11 14:43:22.261589
58.30158865,2.173879385,-19.58435631,5.468796253,2024-06-11 14:43:22.301589
58.34158865,-0.3077768087,-18.67298889,-3.42323184,2024-06-11 14:43:22.341589
58.38158865,-2.377568483,-13.09382439,7.805686474,2024-06-11 14:43:22.381589
58.42158865,-2.377568483,-13.09382439,7.805686474,2024-06-11 14:43:22.421589
58.46158865,-2.377568483,-13.09382439,7.805686474,2024-06-11 14:43:22.461589
58.50158865,-2.377568483,-13.09382439,7.805686474,2024-06-11 14:43:22.501589
58.54158865,-2.377568483,-13.09382439,7.805686474,2024-06-11 14:43:22.541589
58.58158865,-2.377568483,-13.09382439,7.805686474,2024-06-11 14:43:22.581589
58.62158865,-2.377568483,-13.09382439,7.805686474,2024-06-11 14:43:22.621589
58.66158865,-2.377568483,-13.09382439,7.805686474,2024-06-11 14:43:22.661589
58.70158865,-2.377568483,-13.09382439,7.805686474,2024-06-11 14:43:22.701589
58.74158865,-2.377568483,-13.09382439,7.805686474,2024-06-11 14:43:22.741589
58.78158865,-2.377568483,-13.09382439,7.805686474,2024-06-11 14:43:22.781589
58.82158865,-2.377568483,-13.09382439,7.805686474,2024-06-11 14:43:22.821589
58.86158865,-2.377568483,-13.09382439,7.805686474,2024-06-11 14:43:22.861589
58.90158865,-2.377568483,-13.09382439,7.805686474,2024-06-11 14:43:22.901589
58.94158865,-2.377568483,-13.09382439,7.805686474,2024-06-11 14:43:22.941589
58.98158865,-2.377568483,-13.09382439,7.805686474,2024-06-11 14:43:22.981589
59.02158865,-2.377568483,-13.09382439,7.805686474,2024-06-11 14:43:23.021589
59.06158865,-2.377568483,-13.09382439,7.805686474,2024-06-11 14:43:23.061589
59.10158865,-2.377568483,-13.09382439,7.805686474,2024-06-11 14:43:23.101589
59.14158865,-2.377568483,-13.09382439,7.805686474,2024-06-11 14:43:23.141589
59.18158865,-2.377568483,-13.09382439,7.805686474,2024-06-11 14:43:23.181589
59.22158865,-2.377568483,-13.09382439,7.805686474,2024-06-11 14:43:23.221589
59.26158865,-2.377568483,-13.09382439,7.805686474,2024-06-11 14:43:23.261589
59.30158865,-2.377568483,-13.09382439,7.805686474,2024-06-11 14:43:23.301589
59.34158865,-2.377568483,-13.09382439,7.805686474,2024-06-11 14:43:23.341589
59.38158865,-2.377568483,-13.09382439,7.805686474,2024-06-11 14:43:23.381589
59.42158865,-2.377568483,-13.09382439,7.805686474,2024-06-11 14:43:23.421589
59.46158865,-2.377568483,-13.09382439,7.805686474,2024-06-11 14:43:23.461589
59.50158865,-2.377568483,-13.09382439,7.805686474,2024-06-11 14:43:23.501589
59.54158865,-2.377568483,-13.09382439,7.805686474,2024-06-11 14:43:23.541589
59.58158865,-2.377568483,-13.09382439,7.805686474,2024-06-11 14:43:23.581589
59.62158865,-2.377568483,-13.09382439,7.805686474,2024-06-11 14:43:23.621589
59.66158865,-2.377568483,-13.09382439,7.805686474,2024-06-11 14:43:23.661589
59.70158865,-2.377568483,-13.09382439,7.805686474,2024-06-11 14:43:23.701589
59.74158865,-0.6442674994,-11.67218876,-0.02751746029,2024-06-11 14:43:23.741589
59.78158865,0.5198407173,-10.4599247,1.339083314,2024-06-11 14:43:23.781589
59.82158865,3.203989506,-9.534201622,1.179661512,2024-06-11 14:43:23.821589
59.86158865,9.223732948,-13.49970722,0.02871387079,2024-06-11 14:43:23.861589
59.90158865,12.01466179,-15.16002655,1.543968797,2024-06-11 14:43:23.901589
59.94158865,12.61346531,-8.935098648,-2.63389945,2024-06-11 14:43:23.941589
59.98158865,5.295316696,-2.018345833,-3.490231037,2024-06-11 14:43:23.981589
60.02158865,6.035595894,-2.087737799,-2.140379906,2024-06-11 14:43:24.021589
60.06158865,3.294916868,-8.633303642,2.161915302,2024-06-11 14:43:24.061589
60.10158865,0.5282155871,-9.741181374,7.215257645,2024-06-11 14:43:24.101589
60.14158865,-1.033699393,-5.94078064,-0.1725823283,2024-06-11 14:43:24.141589
60.18158865,-1.033699393,-5.94078064,-0.1725823283,2024-06-11 14:43:24.181589
60.22158865,-1.033699393,-5.94078064,-0.1725823283,2024-06-11 14:43:24.221589
60.26158865,-1.033699393,-5.94078064,-0.1725823283,2024-06-11 14:43:24.261589
60.30158865,-1.033699393,-5.94078064,-0.1725823283,2024-06-11 14:43:24.301589
60.34158865,-1.033699393,-5.94078064,-0.1725823283,2024-06-11 14:43:24.341589
60.38158865,-1.033699393,-5.94078064,-0.1725823283,2024-06-11 14:43:24.381589
60.42158865,-1.033699393,-5.94078064,-0.1725823283,2024-06-11 14:43:24.421589
60.46158865,-1.033699393,-5.94078064,-0.1725823283,2024-06-11 14:43:24.461589
60.50158865,-1.033699393,-5.94078064,-0.1725823283,2024-06-11 14:43:24.501589
60.54158865,-1.033699393,-5.94078064,-0.1725823283,2024-06-11 14:43:24.541589
60.58158865,-1.033699393,-5.94078064,-0.1725823283,2024-06-11 14:43:24.581589
60.62158865,-1.033699393,-5.94078064,-0.1725823283,2024-06-11 14:43:24.621589
60.66158865,-1.033699393,-5.94078064,-0.1725823283,2024-06-11 14:43:24.661589
60.70158865,-1.033699393,-5.94078064,-0.1725823283,2024-06-11 14:43:24.701589
60.74158865,-1.033699393,-5.94078064,-0.1725823283,2024-06-11 14:43:24.741589
60.78158865,-1.033699393,-5.94078064,-0.1725823283,2024-06-11 14:43:24.781589
60.82158865,-1.033699393,-5.94078064,-0.1725823283,2024-06-11 14:43:24.821589
60.86158865,-1.033699393,-5.94078064,-0.1725823283,2024-06-11 14:43:24.861589
60.90158865,-1.033699393,-5.94078064,-0.1725823283,2024-06-11 14:43:24.901589
60.94158865,-1.033699393,-5.94078064,-0.1725823283,2024-06-11 14:43:24.941589
60.98158865,-1.033699393,-5.94078064,-0.1725823283,2024-06-11 14:43:24.981589
61.02158865,-1.033699393,-5.94078064,-0.1725823283,2024-06-11 14:43:25.021589
61.06158865,-1.033699393,-5.94078064,-0.1725823283,2024-06-11 14:43:25.061589
61.10158865,-1.033699393,-5.94078064,-0.1725823283,2024-06-11 14:43:25.101589
61.14158865,-1.033699393,-5.94078064,-0.1725823283,2024-06-11 14:43:25.141589
61.18158865,-1.033699393,-5.94078064,-0.1725823283,2024-06-11 14:43:25.181589
61.22158865,-1.033699393,-5.94078064,-0.1725823283,2024-06-11 14:43:25.221589
61.26158865,-1.033699393,-5.94078064,-0.1725823283,2024-06-11 14:43:25.261589
61.30158865,-1.033699393,-5.94078064,-0.1725823283,2024-06-11 14:43:25.301589
61.34158865,-1.033699393,-5.94078064,-0.1725823283,2024-06-11 14:43:25.341589
61.38158865,-1.033699393,-5.94078064,-0.1725823283,2024-06-11 14:43:25.381589
61.42158865,-1.033699393,-5.94078064,-0.1725823283,2024-06-11 14:43:25.421589
61.46158865,0.9918249846,-10.72821999,2.700898647,2024-06-11 14:43:25.461589
61.50158865,1.180858016,-9.670592308,3.073281527,2024-06-11 14:43:25.501589
61.54158865,0.1028913707,-7.761419296,3.456731319,2024-06-11 14:43:25.541589
61.58158865,4.407579422,-7.321738243,3.359822035,2024-06-11 14:43:25.581589
61.62158865,5.943173409,-8.257331848,4.963611603,2024-06-11 14:43:25.621589
61.66158865,4.284348965,-9.768997192,0.7725825906,2024-06-11 14:43:25.661589
61.70158865,3.001496792,-8.840581894,1.176072359,2024-06-11 14:43:25.701589
