Time (s),Gyroscope x (rad/s),Gyroscope y (rad/s),Gyroscope z (rad/s),Datetime
0.031836257,-0.3292901516,-2.028603077,0.0260982085,2024-06-11 14:42:24.031836
0.072260111,-0.9975907207,-1.267227888,-0.3573856652,2024-06-11 14:42:24.072260
0.168109018,0.2197043151,-0.2290250957,1.22022438,2024-06-11 14:42:24.168109
0.208533861,0.1187734827,-1.942585588,1.20690906,2024-06-11 14:42:24.208534
0.249009591,-0.3402087986,-2.772535324,0.9680305123,2024-06-11 14:42:24.249010
0.289558341,-0.250729233,-0.9489894509,1.000786424,2024-06-11 14:42:24.289558
0.329966153,-0.5095808506,-0.1717688292,1.36975646,2024-06-11 14:42:24.329966
0.37041808,-0.7999899983,-0.1038602218,2.252701521,2024-06-11 14:42:24.370418
0.410962299,-0.8449960947,-0.1190397888,2.066818476,2024-06-11 14:42:24.410962
0.451382559,-0.5298202634,0.4901403487,1.920482039,2024-06-11 14:42:24.451383
0.491884799,0.2620473206,0.3860138059,2.562018633,2024-06-11 14:42:24.491885
0.532362403,1.144193411,1.118228316,1.152315855,2024-06-11 14:42:24.532362
0.572826674,-0.7131735086,2.520740747,-0.1619154215,2024-06-11 14:42:24.572827
0.613356466,-0.7017222643,-0.6683005691,-1.032876611,2024-06-11 14:42:24.613356
0.653791934,1.152981639,-0.2719007432,-1.340329409,2024-06-11 14:42:24.653792
0.694239486,1.472151995,1.585199952,-1.137402534,2024-06-11 14:42:24.694239
0.734722768,-0.850055933,-2.288520098,-0.3105154335,2024-06-11 14:42:24.734723
0.775224486,-0.7629731297,-1.819950581,0.3236976862,2024-06-11 14:42:24.775224
0.815678445,0.8009220958,-2.141517878,0.2011958808,2024-06-11 14:42:24.815678
0.856190528,0.4119788706,-0.4668383598,0.542336762,2024-06-11 14:42:24.856191
0.896674591,-1.888924479,0.9954602718,0.5844134688,2024-06-11 14:42:24.896675
0.937123757,-1.177348852,-0.2466014475,1.926207662,2024-06-11 14:42:24.937124
0.977601205,1.327014089,-0.1195724085,1.89225328,2024-06-11 14:42:24.977601
1.018123705,1.594920158,1.304244637,0.7645710111,2024-06-11 14:42:25.018124
1.058584955,1.022490501,0.8383383751,1.727142215,2024-06-11 14:42:25.058585
1.099042507,0.5046541691,-1.046724558,0.5492607951,2024-06-11 14:42:25.099043
1.139566622,-0.0621829778,0.2131797522,0.5266245604,2024-06-11 14:42:25.139567
1.18000183,-1.605705619,-0.1701709777,0.8149032593,2024-06-11 14:42:25.180002
1.220484122,-0.7081136703,-1.524348497,0.8729584813,2024-06-11 14:42:25.220484
1.260966101,-0.05605788901,-1.573615432,1.132875323,2024-06-11 14:42:25.260966
1.301440528,-1.415295243,-0.78414464,1.685864449,2024-06-11 14:42:25.301441
1.341900111,-2.955622196,0.4693683088,2.561752319,2024-06-11 14:42:25.341900
1.382384226,-4.024317265,-0.2487319112,2.575866699,2024-06-11 14:42:25.382384
1.422894018,-4.550142765,1.185204864,2.9953022,2024-06-11 14:42:25.422894
1.46334933,-4.375178337,2.799565554,2.605426788,2024-06-11 14:42:25.463349
1.503826882,-3.240971565,2.955622196,2.234060049,2024-06-11 14:42:25.503827
1.544317924,-1.740990281,2.930322886,2.438318491,2024-06-11 14:42:25.544318
1.584780216,-0.5247604251,2.704227209,1.637396336,2024-06-11 14:42:25.584780
1.625255372,1.114633203,2.048176765,1.824611068,2024-06-11 14:42:25.625255
1.66573657,1.305975676,2.211423874,0.3556546867,2024-06-11 14:42:25.665737
1.706207299,1.088534951,1.28959775,0.4067858756,2024-06-11 14:42:25.706207
1.746688705,0.4346150756,0.9182308912,0.2456693649,2024-06-11 14:42:25.746689
1.787182039,-0.008388710208,0.367105931,-0.1930734813,2024-06-11 14:42:25.787182
1.827652664,0.1991985738,0.5949326158,0.2738980353,2024-06-11 14:42:25.827653
1.868125268,0.5169043541,0.975487113,-0.3797555864,2024-06-11 14:42:25.868125
1.908594695,1.031811357,0.788538754,-0.07323476672,2024-06-11 14:42:25.908595
1.949086257,1.580805779,0.9379376769,0.3623123765,2024-06-11 14:42:25.949086
1.989592976,1.619953156,0.3244965971,1.511166215,2024-06-11 14:42:25.989593
2.030048966,0.9516525269,0.4573844373,0.1476679295,2024-06-11 14:42:26.030049
2.07050407,0.4252942801,0.6567161679,-0.8291507363,2024-06-11 14:42:26.070504
2.110961518,-0.1029281393,0.3580514491,-0.8270202875,2024-06-11 14:42:26.110962
2.151443393,-0.1101184636,0.8146369457,-0.9817453623,2024-06-11 14:42:26.151443
2.191920216,0.1619154215,0.521032095,-0.2471340597,2024-06-11 14:42:26.191920
2.232408184,0.1336867511,0.3591166735,0.3058550358,2024-06-11 14:42:26.232408
2.272890841,0.1187734827,0.3588503897,0.3282249272,2024-06-11 14:42:26.272891
2.313372091,0.01557903271,0.1466026902,0.5833482146,2024-06-11 14:42:26.313372
2.353852455,-0.1125152409,0.2504629195,0.4861457348,2024-06-11 14:42:26.353852
2.394366101,-0.5194342732,-0.1302247345,0.5101134777,2024-06-11 14:42:26.394366
2.43482558,-0.1785596907,-0.01238333434,0.785343051,2024-06-11 14:42:26.434826
2.475295528,-0.3431381881,0.1567224115,0.9057143927,2024-06-11 14:42:26.475296
2.515779799,-0.536477983,0.221701622,0.8186315894,2024-06-11 14:42:26.515780
2.556249955,-0.3687037826,0.401992321,-0.01704372838,2024-06-11 14:42:26.556250
2.596757611,-0.6098458767,0.8298165202,0.2025274336,2024-06-11 14:42:26.596758
2.637250007,-0.4238295853,0.4174381793,0.3737636507,2024-06-11 14:42:26.637250
2.677675945,-0.3114475012,0.4773575366,0.1420754492,2024-06-11 14:42:26.677676
2.718144434,-0.4986622036,0.4829500318,0.1511299312,2024-06-11 14:42:26.718144
2.758618289,-0.3841496706,0.4459331632,0.117308788,2024-06-11 14:42:26.758618
2.799127716,-0.203592658,-0.0464707911,0.3647091687,2024-06-11 14:42:26.799128
2.839581934,0.1555240154,0.3649754524,0.0713706091,2024-06-11 14:42:26.839582
2.880043497,0.2713681161,-0.314776361,0.4472647011,2024-06-11 14:42:26.880043
2.920503549,0.0599193573,-0.06125089899,0.4629769027,2024-06-11 14:42:26.920504
2.960963601,-0.03608476743,-0.4359466136,0.5633751154,2024-06-11 14:42:26.960964
3.001538445,-0.1774944514,-0.7974600792,0.6456643939,2024-06-11 14:42:27.001538
3.042001257,-0.4576507509,-0.4902735054,0.06444659829,2024-06-11 14:42:27.042001
3.082491361,-0.593334794,-0.2503297627,-0.7465952039,2024-06-11 14:42:27.082491
3.122982664,-0.3418066502,-0.2356828004,-0.3097164929,2024-06-11 14:42:27.122983
3.163442716,-0.2440715134,0.1516625583,-0.5059856772,2024-06-11 14:42:27.163443
3.203923445,-0.3527252972,0.2198374718,-1.093861103,2024-06-11 14:42:27.203923
3.244383497,-0.416905582,0.2717675865,-1.190664172,2024-06-11 14:42:27.244383
3.284852247,-0.7243584394,0.006790860556,-1.143793941,2024-06-11 14:42:27.284852
3.325316101,-0.2291582525,0.4422048628,-0.6041202545,2024-06-11 14:42:27.325316
3.365838914,0.05059856921,0.1103847697,0.02450035885,2024-06-11 14:42:27.365839
3.406311049,0.3861469626,0.2470009029,0.2944037914,2024-06-11 14:42:27.406311
3.446775007,0.3086512685,-0.1038602218,0.5521901846,2024-06-11 14:42:27.446775
3.487238914,0.2330197245,-0.004394086078,0.5181027055,2024-06-11 14:42:27.487239
3.527702768,0.03035914153,0.1665758193,0.8489907384,2024-06-11 14:42:27.527703
3.568166674,0.02995967865,-0.2977326214,1.075619102,2024-06-11 14:42:27.568167
3.608742143,-0.02170412242,-0.3254286945,0.409715265,2024-06-11 14:42:27.608742
3.649157664,-0.02703028731,-0.9548482299,0.208119899,2024-06-11 14:42:27.649158
3.689632299,-0.3841496706,-0.9436632991,-0.3983971477,2024-06-11 14:42:27.689632
3.730109747,-0.4837489426,-0.5427362323,-1.263100028,2024-06-11 14:42:27.730110
3.770605893,-0.7965279818,-0.1355509013,-2.445508718,2024-06-11 14:42:27.770606
3.811060789,-1.105445623,0.4850804806,-3.123130083,2024-06-11 14:42:27.811061
3.851527039,-2.179733038,2.780657768,-3.957873344,2024-06-11 14:42:27.851527
3.891973914,-1.311967611,1.089200735,-3.760272503,2024-06-11 14:42:27.891974
3.932505789,0.8475260139,-1.080279469,-2.62446785,2024-06-11 14:42:27.932506
3.97297407,1.2235533,-0.5328828096,-1.625279307,2024-06-11 14:42:27.972974
4.013466361,-0.4920045137,-0.0599193573,-1.245790005,2024-06-11 14:42:28.013466
4.053952039,-0.02995967865,0.007323476952,-2.978524685,2024-06-11 14:42:28.053952
4.094355164,-0.05019910634,0.4792217016,-3.993026018,2024-06-11 14:42:28.094355
4.134905736,1.199585557,1.093728065,-1.737794518,2024-06-11 14:42:28.134906
4.17538183,0.3286243975,2.613948584,0.2856155932,2024-06-11 14:42:28.175382
4.215857559,-1.862559915,-2.92885828,-1.909296989,2024-06-11 14:42:28.215858
4.256337924,-3.182916164,-3.429118156,-3.935769796,2024-06-11 14:42:28.256338
4.296814434,-0.02463351376,-3.854545593,0.4328840673,2024-06-11 14:42:28.296814
4.337297664,1.666024446,1.550313473,1.326348305,2024-06-11 14:42:28.337298
4.377773341,1.888791323,1.218493462,-0.08042509109,2024-06-11 14:42:28.377773
4.418218861,0.7029206157,0.4555202723,-0.9913324714,2024-06-11 14:42:28.418219
4.458687768,-0.5572500229,0.4493951797,-1.613561749,2024-06-11 14:42:28.458688
4.499156622,-0.5013253093,-1.689725876,-0.3033251166,2024-06-11 14:42:28.499157
4.539625528,0.8571131229,-1.981466532,-0.4609795809,2024-06-11 14:42:28.539626
4.580163653,1.995847225,-0.5278229713,-0.2292914093,2024-06-11 14:42:28.580164
4.62067433,0.2340849638,-0.332885325,-0.09427312016,2024-06-11 14:42:28.620674
4.661090841,-0.4720313847,1.020493269,-0.007190322969,2024-06-11 14:42:28.661091
4.701572143,-0.7600437403,-0.3054555655,0.5551195741,2024-06-11 14:42:28.701572
4.742041049,-0.6279548407,-1.041398406,0.005059856921,2024-06-11 14:42:28.742041
4.782512872,-0.6282211542,3.022865057,-0.5234288573,2024-06-11 14:42:28.782513
4.823026257,-1.410768032,3.754813194,-0.3430050313,2024-06-11 14:42:28.823026
4.863458132,-1.280809522,3.744427204,-0.2018616647,2024-06-11 14:42:28.863458
4.903965164,-0.4278241992,3.088909388,-0.1880136281,2024-06-11 14:42:28.903965
4.944462924,-1.402778745,-2.404097795,-0.4026580751,2024-06-11 14:42:28.944463
4.984944643,-0.2446041405,-2.940842152,0.3292901516,2024-06-11 14:42:28.984945
5.025420164,-0.4376776218,-0.7793511152,0.5468640327,2024-06-11 14:42:29.025420
5.065899226,-0.9653674364,-0.6816160083,0.822093606,2024-06-11 14:42:29.065899
5.106375528,0.248199299,-0.1150451675,0.2336854935,2024-06-11 14:42:29.106376
5.146857559,0.9812127948,1.929935932,-0.05166380107,2024-06-11 14:42:29.146858
5.187332768,2.090386629,1.444056511,0.08441971987,2024-06-11 14:42:29.187333
5.227810007,2.598369598,1.660831451,-0.3272928596,2024-06-11 14:42:29.227810
5.268290632,1.071224928,3.241504192,-0.233286038,2024-06-11 14:42:29.268291
5.308741309,-1.266695261,0.3170399666,-0.2055899799,2024-06-11 14:42:29.308741
5.349236518,-1.555905938,-0.8597761989,-0.1986659616,2024-06-11 14:42:29.349237
5.389708549,-1.582004189,-2.270943642,-0.4513925016,2024-06-11 14:42:29.389709
5.430120789,-1.284271598,-3.783174992,-0.4162397981,2024-06-11 14:42:29.430121
5.470592768,-0.6671021581,-4.145886898,-0.2383458912,2024-06-11 14:42:29.470593
5.511064851,-1.246988416,1.039933681,0.6422023773,2024-06-11 14:42:29.511065
5.551536934,-0.123167567,0.7938649058,0.3545894325,2024-06-11 14:42:29.551537
5.592091049,1.270024061,1.207574844,-0.548728168,2024-06-11 14:42:29.592091
5.63255907,1.989455819,0.03608476743,0.05139749497,2024-06-11 14:42:29.632559
5.673031101,3.98716712,-1.883598328,-0.3352820873,2024-06-11 14:42:29.673031
5.713534695,3.909405231,0.389742136,-1.396520495,2024-06-11 14:42:29.713535
5.754008341,1.279877424,2.951094866,-0.1981333494,2024-06-11 14:42:29.754008
5.794493601,-0.1527277827,-1.353112221,0.149265781,2024-06-11 14:42:29.794494
5.834966726,0.7939980626,-0.3946688473,0.3149095178,2024-06-11 14:42:29.834967
5.875456153,-1.125684977,-0.9042496681,0.5479292274,2024-06-11 14:42:29.875456
5.915931361,-2.089454651,0.0003994623839,0.6318163276,2024-06-11 14:42:29.915931
5.956404486,-1.044194698,-1.029947162,0.2968005538,2024-06-11 14:42:29.956404
5.996857559,1.585865617,-4.12165308,-0.7937317491,2024-06-11 14:42:29.996858
6.037330684,-0.07789516449,-1.297187567,-0.3738967776,2024-06-11 14:42:30.037331
6.077803809,-1.631537557,3.226857185,0.1306242049,2024-06-11 14:42:30.077804
6.118344747,1.06989336,3.369864702,0.1822880059,2024-06-11 14:42:30.118345
6.158770893,-0.08854749799,1.398517847,0.3995955288,2024-06-11 14:42:30.158771
6.199253601,-0.9182308912,0.142874375,0.2746969759,2024-06-11 14:42:30.199254
6.239713445,-1.194259405,-2.19504571,-0.1147788614,2024-06-11 14:42:30.239713
6.280201726,-0.7424674034,-4.859726429,0.345801264,2024-06-11 14:42:30.280202
6.32067407,-0.3268933892,0.1138467789,0.009320789017,2024-06-11 14:42:30.320674
6.361141361,-1.418490887,2.786250114,0.415574044,2024-06-11 14:42:30.361141
6.401629486,-1.36309886,1.912093282,0.4592485726,2024-06-11 14:42:30.401629
6.442130789,-1.049787164,0.1769618392,-0.08841434121,2024-06-11 14:42:30.442131
6.482617611,-0.3916063011,0.1567224115,-0.5292876363,2024-06-11 14:42:30.482618
6.523094018,-0.6583139896,0.9493889213,-0.3099828064,2024-06-11 14:42:30.523094
6.563570424,-0.4999937415,1.810363531,-0.3051892519,2024-06-11 14:42:30.563570
6.603970372,-0.1657768935,1.929403305,-0.5734948516,2024-06-11 14:42:30.603970
6.644486049,-0.003595161485,2.074275017,-0.4886756539,2024-06-11 14:42:30.644486
6.685006309,0.06604444981,2.828326941,-0.2601831555,2024-06-11 14:42:30.685006
6.725465632,-0.3878779709,1.678940415,-0.1123820841,2024-06-11 14:42:30.725466
6.765915476,0.3019935489,-2.134593725,-1.336068511,2024-06-11 14:42:30.765915
6.806421518,1.792520881,1.862826228,-1.211968899,2024-06-11 14:42:30.806422
6.846919174,-0.01318225823,5.206992149,-0.7284862399,2024-06-11 14:42:30.846919
6.887393705,-1.730337858,4.775705814,-0.5220973492,2024-06-11 14:42:30.887394
6.927858497,-1.892919064,3.076392889,0.1828206182,2024-06-11 14:42:30.927858
6.968352039,-1.76762104,2.329398394,0.4368786812,2024-06-11 14:42:30.968352
7.008824799,-2.414750099,2.282261848,-0.006657706574,2024-06-11 14:42:31.008825
7.049292559,-3.1016922,2.377200603,-0.2929390669,2024-06-11 14:42:31.049293
7.089735997,-3.183715105,1.232075095,-0.09480573982,2024-06-11 14:42:31.089736
7.13022558,-2.420608997,2.612084627,0.06204982474,2024-06-11 14:42:31.130226
7.170692455,-2.217282534,2.47493577,-0.1174419373,2024-06-11 14:42:31.170692
7.211191986,-1.989056349,1.307174087,0.1213034093,2024-06-11 14:42:31.211192
7.251650632,-1.344457269,0.9914656281,0.3250292242,2024-06-11 14:42:31.251651
7.292159486,-0.3450023532,0.99013412,0.4222317338,2024-06-11 14:42:31.292159
7.332646257,0.8629719019,0.4659062922,0.5473966002,2024-06-11 14:42:31.332646
7.373045476,0.006524552125,-0.7588453889,-0.02636451647,2024-06-11 14:42:31.373045
7.413582507,-0.3220998347,-3.400623322,-0.3536573648,2024-06-11 14:42:31.413583
7.454070736,1.304377794,0.153793022,-0.4620448351,2024-06-11 14:42:31.454071
7.49451907,0.1312899739,2.749499559,0.07669677585,2024-06-11 14:42:31.494519
7.534993653,-0.05552527308,1.814890742,0.2952027023,2024-06-11 14:42:31.534994
7.575485945,-0.1311568171,0.9163666964,0.2166417688,2024-06-11 14:42:31.575486
7.615930945,-0.4677704573,0.1817553788,-0.02876129188,2024-06-11 14:42:31.615931
7.656443497,-0.4683030546,-0.3912068307,-0.0487344116,2024-06-11 14:42:31.656443
7.696943705,0.01451379992,0.8713606,0.05752258375,2024-06-11 14:42:31.696944
7.737420216,-0.153793022,2.282261848,0.1830869317,2024-06-11 14:42:31.737420
7.777897872,-0.3588503897,1.85030973,0.1029281393,2024-06-11 14:42:31.777898
7.818360007,-0.2547238469,0.6141068339,0.00186415785,2024-06-11 14:42:31.818360
7.858836101,-0.4185034335,0.1569887102,0.1402112991,2024-06-11 14:42:31.858836
7.89931157,-0.4850804806,1.254178762,0.2573869228,2024-06-11 14:42:31.899312
7.939804799,-0.2166417688,1.686663389,-0.05565842614,2024-06-11 14:42:31.939805
7.980238914,0.02303566411,2.575334072,-0.00186415785,2024-06-11 14:42:31.980239
8.020808809,-0.3868127465,2.226070642,-0.03541899845,2024-06-11 14:42:32.020809
8.061218445,-0.3255618513,1.699712396,-0.1443390697,2024-06-11 14:42:32.061218
8.101697039,-0.1058575287,1.095059514,-0.2205032408,2024-06-11 14:42:32.101697
8.142178393,-0.235283345,0.7946638465,-0.1374150664,2024-06-11 14:42:32.142178
8.18267532,-0.3500621915,0.356187284,-0.1712362021,2024-06-11 14:42:32.182675
8.223154591,0.6427350044,-0.1438064575,-0.4322183132,2024-06-11 14:42:32.223155
8.263622455,1.270556688,1.800243855,-0.451126188,2024-06-11 14:42:32.263622
8.304099382,1.041398406,2.734053612,-0.4063864052,2024-06-11 14:42:32.304099
8.344513289,1.25138247,2.701830387,-0.5521901846,2024-06-11 14:42:32.344513
8.38498907,1.131144285,2.481327057,-0.6589797735,2024-06-11 14:42:32.384989
8.425516778,0.1701709777,0.3492632806,-0.5785546899,2024-06-11 14:42:32.425517
8.465974643,-0.575891614,-0.7098446488,-0.1986659616,2024-06-11 14:42:32.465975
8.506491361,-0.9794817567,0.7342118621,0.1476679295,2024-06-11 14:42:32.506491
8.546974955,-1.67334795,0.4600475132,0.3220998347,2024-06-11 14:42:32.546975
8.587453341,-1.714625716,-0.5951989293,0.4081174135,2024-06-11 14:42:32.587453
8.627933184,-0.4368786812,-1.29958427,0.3098496497,2024-06-11 14:42:32.627933
8.668406986,-0.5858781338,1.35271275,0.1639127284,2024-06-11 14:42:32.668407
8.708871934,-0.4909392595,2.008763075,0.1066564545,2024-06-11 14:42:32.708872
8.749333601,-0.07230269164,0.5465977192,0.02716344222,2024-06-11 14:42:32.749334
8.789800997,-0.01025286783,-1.075752258,-0.05539211631,2024-06-11 14:42:32.789801
8.830297507,0.05885412544,-1.761895418,-0.1280942708,2024-06-11 14:42:32.830298
8.870796518,-0.0275629051,-1.26802671,-0.2415415943,2024-06-11 14:42:32.870797
8.911260372,0.0926752761,0.7877398133,-0.2290250957,2024-06-11 14:42:32.911260
8.951722351,-0.5050535798,0.950720489,-0.07003907114,2024-06-11 14:42:32.951722
8.992221674,-0.5167711973,0.1045259908,0.2603163123,2024-06-11 14:42:32.992222
9.032705789,-0.2363485843,-0.3640433848,0.258452177,2024-06-11 14:42:33.032706
9.073182455,-0.5127765536,-0.1493989378,0.2557890713,2024-06-11 14:42:33.073182
9.113657872,-0.5641740561,0.22303316,0.03967992961,2024-06-11 14:42:33.113658
9.154127768,-0.1335535944,1.369223952,-0.1238333359,2024-06-11 14:42:33.154128
9.194622091,-0.07256899774,2.3632195,0.0229025092,2024-06-11 14:42:33.194622
9.235078705,0.0458050184,1.766555786,0.07749570161,2024-06-11 14:42:33.235079
9.275516414,-0.05685681105,0.2986647189,0.1945381761,2024-06-11 14:42:33.275516
9.316020268,-0.3314206302,-0.5110455155,0.1151783243,2024-06-11 14:42:33.316020
9.356476778,0.2263620198,0.2608489394,-0.06418029219,2024-06-11 14:42:33.356477
9.396988289,0.05272903293,0.5816172361,-0.1062569916,2024-06-11 14:42:33.396988
9.437438705,-0.07070484012,0.8945294023,-0.1193061024,2024-06-11 14:42:33.437439
9.477937872,0.0003994623839,0.7746906877,-0.2186390758,2024-06-11 14:42:33.477938
9.518439018,0.02276935615,0.5608451962,-0.3046566546,2024-06-11 14:42:33.518439
9.558900528,-0.00599193573,0.9302147627,-0.1826874614,2024-06-11 14:42:33.558901
9.599360736,-0.3159747422,0.8258218765,-0.1472684592,2024-06-11 14:42:33.599361
9.639836726,-0.08641702682,0.6945319176,-0.3933372796,2024-06-11 14:42:33.639837
9.680292872,-0.0544600375,1.06656456,-0.4077179432,2024-06-11 14:42:33.680293
9.720765528,-0.2975994647,1.673081636,-0.3182383776,2024-06-11 14:42:33.720766
9.761268289,-0.5404726267,1.944582939,-0.4758928418,2024-06-11 14:42:33.761268
9.801763601,-0.6348788738,0.3476654291,-0.6262238622,2024-06-11 14:42:33.801764
9.84225532,-0.5303528905,-0.5246272683,-0.6989260316,2024-06-11 14:42:33.842255
9.882737716,-0.5351464152,0.7760222554,-0.4577838778,2024-06-11 14:42:33.882738
9.923201934,-0.7248910666,2.534588814,-0.186149478,2024-06-11 14:42:33.923202
9.963684747,-0.632748425,2.018616676,-0.2173075378,2024-06-11 14:42:33.963685
10.00416949,-0.8545832038,1.655771613,-0.2143781483,2024-06-11 14:42:34.004169
10.04463303,-0.8535179496,0.4446016252,-0.1826874614,2024-06-11 14:42:34.044633
10.08510454,-0.908111155,0.5611115098,-0.1802906841,2024-06-11 14:42:34.085105
10.12560334,-1.061504722,0.9818785191,-0.1382139921,2024-06-11 14:42:34.125603
10.166066,-1.385202408,1.500780225,0.05459319428,2024-06-11 14:42:34.166066
10.20655735,-1.234738231,1.37721312,0.2155765295,2024-06-11 14:42:34.206557
10.24700199,-0.9094427228,0.7179670334,0.4275579154,2024-06-11 14:42:34.247002
10.28751183,-0.5260919333,0.1588528752,0.521032095,2024-06-11 14:42:34.287512
10.32798876,-0.203592658,0.394269377,0.8740236759,2024-06-11 14:42:34.327989
10.36838761,-0.4882761836,1.288798809,0.8639039993,2024-06-11 14:42:34.368388
10.40892782,-0.7882724404,2.647769928,0.3660407066,2024-06-11 14:42:34.408928
10.4493897,0.7077142,-0.3824186623,0.545532465,2024-06-11 14:42:34.449390
10.48985865,-0.1612496525,1.468024254,-0.1893451661,2024-06-11 14:42:34.489859
10.53032193,-0.5641740561,3.926049471,-0.3062545061,2024-06-11 14:42:34.530322
10.57082204,-0.1966686398,4.251345158,-0.08308817446,2024-06-11 14:42:34.570822
10.61131089,-0.09067796171,3.005554914,0.2161091566,2024-06-11 14:42:34.611311
10.65180376,-0.5914706588,2.539382458,0.4776238501,2024-06-11 14:42:34.651804
10.69228615,-0.9147688746,1.984262824,0.2283593267,2024-06-11 14:42:34.692286
10.73276496,-1.043928385,1.461632848,0.05912043154,2024-06-11 14:42:34.732765
10.77323865,-1.561764717,0.2270277888,0.03621792421,2024-06-11 14:42:34.773239
10.81371897,-2.052970409,-1.156976223,0.2211690098,2024-06-11 14:42:34.813719
10.85419652,-0.424628526,0.2387453467,0.3971987665,2024-06-11 14:42:34.854197
10.89464563,-0.4912055731,3.399691105,0.3556546867,2024-06-11 14:42:34.894646
10.93509115,-1.119559884,2.999163628,0.273365438,2024-06-11 14:42:34.935091
10.97556844,-0.9850742221,1.346853971,0.1271621883,2024-06-11 14:42:34.975568
11.016036,-0.7616416216,0.2296908647,0.1021292135,2024-06-11 14:42:35.016036
11.05657147,-0.844197154,0.5909380317,0.329023838,2024-06-11 14:42:35.056571
11.09706173,-0.6300853491,1.443523884,0.4254274368,2024-06-11 14:42:35.097062
11.13752428,-0.2536586225,1.360435724,0.4089163244,2024-06-11 14:42:35.137524
11.17800584,0.6736267209,0.9147688746,0.1138467789,2024-06-11 14:42:35.178006
11.21849818,2.433924198,1.060439467,-0.4015928507,2024-06-11 14:42:35.218498
11.25895094,3.244300365,2.632057667,-0.9985228181,2024-06-11 14:42:35.258951
11.29944511,2.350836039,4.074915886,-1.040066838,2024-06-11 14:42:35.299445
11.33990464,1.811695099,1.500513911,-1.044860482,2024-06-11 14:42:35.339905
11.3803499,1.53340292,-1.279078603,-1.255643368,2024-06-11 14:42:35.380350
11.42085912,1.163367629,0.7017222643,-0.8600425124,2024-06-11 14:42:35.420859
11.46133511,-0.1543256342,1.720750809,-0.06977276504,2024-06-11 14:42:35.461335
11.50182824,-0.7387390733,-0.3469996452,0.1130478531,2024-06-11 14:42:35.501828
11.5423073,-1.116364241,-0.3933372796,0.3508611321,2024-06-11 14:42:35.542307
11.58279355,-2.252168894,-2.226203918,0.5910711884,2024-06-11 14:42:35.582794
11.62319912,-0.3215672076,-3.210479259,0.4842815697,2024-06-11 14:42:35.623199
11.66375001,0.6906704903,-0.7900034189,0.2232994735,2024-06-11 14:42:35.663750
11.70422063,-1.239265442,2.447772264,0.3463338912,2024-06-11 14:42:35.704221
11.74469761,-0.177760765,3.818727255,0.4454005659,2024-06-11 14:42:35.744698
11.78517459,1.321954131,-0.2093182951,-0.3352820873,2024-06-11 14:42:35.785175
11.82565167,0.6752246022,-4.89381361,0.0458050184,2024-06-11 14:42:35.825652
11.86612147,-0.4765586257,-3.403286457,0.3042571843,2024-06-11 14:42:35.866121
11.90659959,-0.1069227681,-3.219799995,0.4661726058,2024-06-11 14:42:35.906600
11.94708542,-2.100373268,4.423379898,1.117429495,2024-06-11 14:42:35.947085
11.98757428,-1.251249313,1.977605104,0.6861432195,2024-06-11 14:42:35.987574
12.02803902,1.038469076,-3.013011694,-0.1486000121,2024-06-11 14:42:36.028039
12.06850126,0.8126396537,-4.301677227,-0.2660419345,2024-06-11 14:42:36.068501
12.10898251,-1.524215341,2.530860424,-0.02396774292,2024-06-11 14:42:36.108983
12.14949548,-6.120429516,-3.525521755,0.1276948154,2024-06-11 14:42:36.149495
12.18997386,1.891188025,1.737794518,0.5934679508,2024-06-11 14:42:36.189974
12.23047365,3.932840347,2.100639582,0.6105116606,2024-06-11 14:42:36.230474
12.27093438,3.397427559,-2.023277044,-0.8046503663,2024-06-11 14:42:36.270934
12.31137261,-0.3351489305,1.003982067,0.2155765295,2024-06-11 14:42:36.311373
12.35181214,-1.349250793,3.152557135,0.6334142089,2024-06-11 14:42:36.351812
12.39227511,-0.1516625583,-0.5501928329,0.4438027143,2024-06-11 14:42:36.392275
12.43281365,1.270823002,-1.321687818,-0.1339530498,2024-06-11 14:42:36.432814
12.47330605,0.753519237,-1.06323576,-0.5094476938,2024-06-11 14:42:36.473306
12.51377636,-0.5330159664,-0.07696308941,0.08149032295,2024-06-11 14:42:36.513776
12.55423787,-0.4563191831,0.02170412242,0.1149120107,2024-06-11 14:42:36.554238
12.59469027,0.2372806519,-0.2122476846,0.009853405878,2024-06-11 14:42:36.594690
12.63516136,-0.5912043452,-0.8653686643,0.1987991184,2024-06-11 14:42:36.635161
12.67563407,-0.9595086575,0.2201037705,0.6206313968,2024-06-11 14:42:36.675634
12.71614131,-0.3276923001,-0.1129147038,0.3279586136,2024-06-11 14:42:36.716141
12.75663933,-0.5513912439,-0.9639027119,0.1202381775,2024-06-11 14:42:36.756639
12.79709662,-0.4661726058,-0.701322794,-0.1360835135,2024-06-11 14:42:36.797097
12.83758954,-0.5298202634,0.9240896702,-0.2639114857,2024-06-11 14:42:36.837590
12.87808048,-0.8284850121,1.815423369,-0.05698996782,2024-06-11 14:42:36.878080
12.91853214,-0.8399362564,1.713027835,0.4579170346,2024-06-11 14:42:36.918532
12.95900568,-0.2462019771,0.5640408993,0.2270277888,2024-06-11 14:42:36.959006
12.99945699,-0.7075810432,0.3780245781,0.1090532318,2024-06-11 14:42:36.999457
13.03994121,-0.1913424879,0.2621804774,0.2201037705,2024-06-11 14:42:37.039941
13.0804337,0.5962641835,1.029547691,-0.117974557,2024-06-11 14:42:37.080434
13.1209135,0.5504591465,3.982773066,-0.4620448351,2024-06-11 14:42:37.120914
13.16141844,0.8408682942,6.58460474,-0.8014547229,2024-06-11 14:42:37.161418
13.20188912,4.274513721,3.151225567,-1.140864611,2024-06-11 14:42:37.201889
13.24232496,6.582607269,-3.908606291,-3.252822161,2024-06-11 14:42:37.242325
13.28283131,2.669207573,3.344565392,-3.940296888,2024-06-11 14:42:37.282831
13.32333167,0.8358084559,4.02458334,-1.765224218,2024-06-11 14:42:37.323332
13.36376917,2.567477942,2.550301075,-1.581871033,2024-06-11 14:42:37.363769
13.40426443,2.627130985,0.09200949967,-1.049654007,2024-06-11 14:42:37.404264
13.44475074,2.015820265,-0.9985228181,-0.9481905699,2024-06-11 14:42:37.444751
13.48520673,1.740058184,-0.1744319052,-1.089866519,2024-06-11 14:42:37.485207
13.52567329,0.574693203,1.721549749,-1.453244209,2024-06-11 14:42:37.525673
13.56618246,1.044594169,-0.08069140464,-0.6280879974,2024-06-11 14:42:37.566182
13.60667485,0.03142437339,0.3665733039,-0.239144817,2024-06-11 14:42:37.606675
13.64711808,0.3715000153,-0.2612484097,0.2387453467,2024-06-11 14:42:37.647118
13.68763068,0.8291507363,-1.427678585,0.8955946565,2024-06-11 14:42:37.687631
13.72811449,0.3501953483,-1.482271791,0.7637720704,2024-06-11 14:42:37.728114
13.76858292,-0.2065220475,-0.2679060996,0.2920069993,2024-06-11 14:42:37.768583
13.80906016,-0.6580476761,-0.2580527067,0.4869446456,2024-06-11 14:42:37.809060
13.84950074,-0.4057206213,-0.4284899831,0.6744256616,2024-06-11 14:42:37.849501
13.88997808,0.1872147024,-1.20943892,0.4342156053,2024-06-11 14:42:37.889978
13.93042443,0.03089175746,-0.7772206664,0.333551079,2024-06-11 14:42:37.930424
13.97097048,-0.235283345,-0.2577863932,0.4539224207,2024-06-11 14:42:37.970970
14.01142511,-0.153793022,-0.5904054046,0.8495233655,2024-06-11 14:42:38.011425
14.05191673,-0.5726959109,-0.8326127529,1.553509235,2024-06-11 14:42:38.051917
14.09240579,-0.9089100957,-1.250184059,1.84112215,2024-06-11 14:42:38.092406
14.13286782,-1.336201668,-1.799444914,2.359757423,2024-06-11 14:42:38.132868
14.17336058,-2.541512728,-1.224618554,2.832055092,2024-06-11 14:42:38.173361
14.21383907,-3.859472513,-0.03688369319,3.373060465,2024-06-11 14:42:38.213839
14.25432157,-4.280106068,0.03821523488,4.387162209,2024-06-11 14:42:38.254322
14.2947485,-2.199440002,-2.490914345,2.738847256,2024-06-11 14:42:38.294749
14.33521834,-1.062037349,-1.215564013,-0.1478010863,2024-06-11 14:42:38.335218
14.37569548,-0.6497921348,1.866820931,-0.7516550422,2024-06-11 14:42:38.375695
14.41622891,0.3725652397,4.413793087,0.2198374718,2024-06-11 14:42:38.416229
14.45663308,-0.1793586165,3.21833539,-0.04314193875,2024-06-11 14:42:38.456633
14.49718308,-1.432605267,2.471473694,-0.3584509194,2024-06-11 14:42:38.497183
14.53765933,-1.376147866,1.365229249,-0.02077204362,2024-06-11 14:42:38.537659
14.57813824,-1.001052737,0.3340837061,0.1655105799,2024-06-11 14:42:38.578138
14.61861792,-1.452844739,0.3535242081,0.8255556226,2024-06-11 14:42:38.618618
14.65907459,-2.297174931,0.4981296062,0.8418003917,2024-06-11 14:42:38.659075
14.6995048,-1.78173542,1.832733393,0.3585840762,2024-06-11 14:42:38.699505
14.74002105,-0.2001306564,2.918072701,0.5010589957,2024-06-11 14:42:38.740021
14.78050959,-0.492537111,2.091318846,0.1631138027,2024-06-11 14:42:38.780510
14.82094141,-1.336201668,-0.2330197245,0.07003907114,2024-06-11 14:42:38.820941
14.86145798,-1.517024994,-1.426080704,0.2014621943,2024-06-11 14:42:38.861458
14.90190938,-0.08908011019,-1.368025541,0.03808208182,2024-06-11 14:42:38.901909
14.94242141,0.05938674137,1.598781586,0.08042509109,2024-06-11 14:42:38.942421
14.98291235,-0.1612496525,1.448583722,0.3631113172,2024-06-11 14:42:38.982912
15.0233911,1.488396883,-0.7487256527,0.04979964346,2024-06-11 14:42:39.023391
15.06386813,3.539369822,-1.18866694,-0.8041177988,2024-06-11 14:42:39.063868
15.10434006,3.517266273,-0.04806863889,-1.338199019,2024-06-11 14:42:39.104340
15.14477949,2.309558392,1.401447177,-2.00729847,2024-06-11 14:42:39.144779
15.18528318,1.442325473,1.493323565,-1.319823742,2024-06-11 14:42:39.185283
15.22576209,1.32115531,1.212102056,-1.070425987,2024-06-11 14:42:39.225762
15.26624761,1.738460302,-0.8595098853,-0.3824186623,2024-06-11 14:42:39.266248
15.30673522,0.799590528,-2.100239992,-0.0,2024-06-11 14:42:39.306735
15.34716725,-0.1647116542,-1.036338568,0.3700353205,2024-06-11 14:42:39.347167
15.3876297,-0.8987903595,-0.1246322617,0.7584459186,2024-06-11 14:42:39.387630
15.4281449,-1.206243277,-1.039800644,0.8449960947,2024-06-11 14:42:39.428145
15.46859402,-0.2467346042,-2.695838451,0.2003969699,2024-06-11 14:42:39.468594
15.50909782,0.451126188,-2.683588266,-0.05832150951,2024-06-11 14:42:39.509098
15.54956105,-1.272021413,-1.208107352,0.5495271087,2024-06-11 14:42:39.549561
15.59002751,0.4961322844,-0.4093157947,0.2432725877,2024-06-11 14:42:39.590028
15.63049136,0.1981333494,0.3545894325,0.4888088107,2024-06-11 14:42:39.630491
15.67102522,-1.036471725,1.725011706,0.2637783289,2024-06-11 14:42:39.671025
15.71149022,0.6287537813,-4.024184227,-0.5292876363,2024-06-11 14:42:39.711490
15.75194209,-0.1852173954,-0.6157047153,1.075352788,2024-06-11 14:42:39.751942
15.79243496,-0.886806488,1.307174087,1.767088413,2024-06-11 14:42:39.792435
15.83292923,-0.8673660159,2.009029388,1.768952608,2024-06-11 14:42:39.832929
15.8733947,-0.8183652759,1.494122505,1.064434052,2024-06-11 14:42:39.873395
15.91393157,-1.462964416,-1.887992382,0.6411371231,2024-06-11 14:42:39.913932
15.95439063,0.1994648874,-0.8818798065,0.1575213373,2024-06-11 14:42:39.954391
15.99481157,0.05406057462,1.246988416,0.3202356696,2024-06-11 14:42:39.994812
16.03526178,-0.3932041526,1.320755839,0.2999962568,2024-06-11 14:42:40.035262
16.07576511,0.071104303,0.416905582,0.1703041345,2024-06-11 14:42:40.075765
16.11624647,0.02037258074,-0.4252942801,0.1178414002,2024-06-11 14:42:40.116246
16.15672652,-0.4150414169,-0.7580464482,0.3527252972,2024-06-11 14:42:40.156727
16.19721678,-0.5173037648,-0.3166405261,0.3186378181,2024-06-11 14:42:40.197217
16.23770381,-0.1263632625,-0.07669677585,0.04234301299,2024-06-11 14:42:40.237704
16.2781686,0.06418029219,0.6745588183,0.03275591508,2024-06-11 14:42:40.278169
16.31863714,-0.1154446304,1.665358663,0.071104303,2024-06-11 14:42:40.318637
16.35911803,-0.1167761683,1.451513171,0.000266308256,2024-06-11 14:42:40.359118
16.3995274,-0.2350170314,0.6902710199,-0.1014634445,2024-06-11 14:42:40.399527
16.44005105,-0.3442034125,0.6873416305,-0.09374050796,2024-06-11 14:42:40.440051
16.48053605,-0.2456693649,0.8425993323,-0.158986032,2024-06-11 14:42:40.480536
16.52101344,0.007856093347,1.695451498,-0.3121132851,2024-06-11 14:42:40.521013
16.56150912,0.09081111848,1.824744225,-0.4812190235,2024-06-11 14:42:40.561509
16.60198693,0.3448691964,1.638195276,-0.5721632838,2024-06-11 14:42:40.601987
16.64248803,0.4687025249,1.416626811,-0.5154396296,2024-06-11 14:42:40.642488
16.6829574,0.3800218701,0.9302147627,-0.1786928326,2024-06-11 14:42:40.682957
16.72345068,0.1752308309,0.2256962508,0.1426080763,2024-06-11 14:42:40.723451
16.76393204,-0.6266233325,-0.3459344208,0.3705679476,2024-06-11 14:42:40.763932
16.80438141,-1.325016737,-2.005167961,0.1266295761,2024-06-11 14:42:40.804381
16.84484704,-0.9997211695,-4.481568336,-0.1531272531,2024-06-11 14:42:40.844847
16.88531162,0.2047910541,-2.272541523,-0.3198362291,2024-06-11 14:42:40.885312
16.92578246,0.4058537781,0.7129071951,0.2158428431,2024-06-11 14:42:40.925782
16.96628365,0.6549851298,-0.2548570037,0.24753353,2024-06-11 14:42:40.966284
17.00678011,0.7218285203,-0.6789528728,0.08149032295,2024-06-11 14:42:41.006780
17.04723667,0.5214315653,-0.1038602218,-0.6973281503,2024-06-11 14:42:41.047237
17.08769923,0.5304860473,-0.6601781845,-1.056045413,2024-06-11 14:42:41.087699
17.12821923,0.5941337347,-1.736596107,0.2573869228,2024-06-11 14:42:41.128219
17.16869631,0.1856168509,-3.339905024,0.5987941027,2024-06-11 14:42:41.168696
17.20915683,-0.1908098608,-3.470662355,0.1026618332,2024-06-11 14:42:41.209157
17.24963048,0.6749582887,-2.254166126,-0.0,2024-06-11 14:42:41.249630
17.29008949,1.204645395,-0.7761554122,0.03169068322,2024-06-11 14:42:41.290089
17.330586,1.224884868,-0.1954702586,0.08335448056,2024-06-11 14:42:41.330586
17.37106756,1.097056866,0.001198387123,0.08894696087,2024-06-11 14:42:41.371068
17.41150693,0.8485912681,0.07070484012,0.07909355313,2024-06-11 14:42:41.411507
17.45203537,0.6563166976,-0.446598947,0.1412765235,2024-06-11 14:42:41.452035
17.49250563,0.4071853161,-0.6845453978,0.239810586,2024-06-11 14:42:41.492506
17.53297095,0.004926702939,-0.3499290347,0.2291582525,2024-06-11 14:42:41.532971
17.57348704,-0.2499302924,-0.06071828306,0.3053224087,2024-06-11 14:42:41.573487
17.61396459,-0.2949363887,-0.1414096802,0.02769605815,2024-06-11 14:42:41.613965
17.6543737,-0.3399424851,-0.7761554122,-0.2932053804,2024-06-11 14:42:41.654374
17.69486246,-0.5540543199,-1.407172799,-0.2593842447,2024-06-11 14:42:41.694862
17.73533876,-0.9911993146,-2.279465437,-0.4764254689,2024-06-11 14:42:41.735339
17.77581516,-1.075885296,-9.862194061,-0.5985277891,2024-06-11 14:42:41.775815
17.81634813,2.017950773,-0.1459369212,-0.8041177988,2024-06-11 14:42:41.816348
17.85679772,0.1691057384,4.466522217,0.5207657814,2024-06-11 14:42:41.856798
17.89728657,-0.6258243918,2.773999929,0.3007951677,2024-06-11 14:42:41.897287
17.93776292,-1.433670521,-3.103157043,0.0490007177,2024-06-11 14:42:41.937763
17.97822636,1.905036092,-4.68742466,-0.3794892728,2024-06-11 14:42:41.978226
18.01872563,1.005180478,-2.679060936,-0.270835489,2024-06-11 14:42:42.018726
18.0592011,0.1994648874,-1.634866357,0.2129134536,2024-06-11 14:42:42.059201
18.09966506,0.3856143653,-1.933797359,0.1404775977,2024-06-11 14:42:42.099665
18.14014402,0.9559134841,-3.877714634,0.08282186836,2024-06-11 14:42:42.140144
18.18054647,1.732068896,-5.047073841,-0.03222329915,2024-06-11 14:42:42.180546
18.22109678,1.671883225,-4.227910042,0.1766955256,2024-06-11 14:42:42.221097
18.26157173,1.165498137,-3.75041914,0.2014621943,2024-06-11 14:42:42.261572
18.30203042,0.5515244007,-3.419531107,0.009054481052,2024-06-11 14:42:42.302030
18.34253626,0.2239652425,-3.108216763,0.08788172156,2024-06-11 14:42:42.342536
18.38298141,0.08575125784,-2.465348721,-0.7316819429,2024-06-11 14:42:42.382981
18.42343449,0.4790885448,-1.419689298,-1.416759968,2024-06-11 14:42:42.423434
18.46401068,0.6440665126,0.09840089828,-0.6565830112,2024-06-11 14:42:42.464011
18.504431,0.7367417812,0.7078473568,0.02077204362,2024-06-11 14:42:42.504431
18.54490704,0.8565804958,1.019161701,-0.03861469775,2024-06-11 14:42:42.544907
18.58538308,1.05657804,0.5263582468,-0.7055837512,2024-06-11 14:42:42.585383
18.62586246,0.3435376585,-0.6660369635,-0.5902722478,2024-06-11 14:42:42.625862
18.66635162,-0.6090469956,-1.538196445,0.1948044896,2024-06-11 14:42:42.666352
18.70683282,-0.8013215661,-1.69079113,0.9456605911,2024-06-11 14:42:42.706833
18.7472912,-0.5319507122,-1.38427031,1.193327308,2024-06-11 14:42:42.747291
18.78775902,-0.4869446456,-0.918364048,0.913969934,2024-06-11 14:42:42.787759
18.82824141,-0.6463301182,-0.6183677912,1.04579258,2024-06-11 14:42:42.828241
18.86874006,-1.002117991,-0.2018616647,0.4147751033,2024-06-11 14:42:42.868740
18.90922522,-0.2983984053,0.6087806821,-0.7306166887,2024-06-11 14:42:42.909225
18.94969256,0.7745575905,3.593430519,-0.9636363983,2024-06-11 14:42:42.949693
18.99014735,0.6098458767,4.483831882,-0.750323534,2024-06-11 14:42:42.990147
19.03062277,-0.1005313694,1.791189313,-0.2311555594,2024-06-11 14:42:43.030623
19.0711161,-0.2840177417,-0.1584534049,0.1929403245,2024-06-11 14:42:43.071116
19.11161204,0.1669752747,-1.231276274,0.1908098608,2024-06-11 14:42:43.111612
19.15208282,0.1334204376,-2.25816083,0.34846434,2024-06-11 14:42:43.152083
19.19257834,-0.4744281471,-1.007044673,0.7339455485,2024-06-11 14:42:43.192578
19.2330724,-0.7973269224,0.6625749469,0.5197005868,2024-06-11 14:42:43.233072
19.27352824,-1.077483177,0.8215609789,-0.02716344222,2024-06-11 14:42:43.273528
19.31403303,-0.7147713304,1.229145765,-0.2117150575,2024-06-11 14:42:43.314033
19.35446996,-0.5449998379,2.364284754,-0.4497946501,2024-06-11 14:42:43.354470
19.39488693,-0.6394061446,3.1307199,-0.2615146935,2024-06-11 14:42:43.394887
19.4353887,-0.5228962898,2.89277339,0.05166380107,2024-06-11 14:42:43.435389
19.47585928,-0.06937330216,1.666157603,0.5710980296,2024-06-11 14:42:43.475859
19.51634459,-0.08135717362,-0.6880073547,0.4259600639,2024-06-11 14:42:43.516345
19.5568412,-0.7959953547,-2.139653683,0.2723001838,2024-06-11 14:42:43.556841
19.59732298,-1.256309152,-1.811695099,0.7845441103,2024-06-11 14:42:43.597323
19.63780209,0.2109161317,0.149265781,0.3817528784,2024-06-11 14:42:43.637802
19.67829574,-0.1050586104,1.582536817,0.502923131,2024-06-11 14:42:43.678296
19.71878115,-0.480286926,1.199851871,0.329023838,2024-06-11 14:42:43.718781
19.7592472,-0.5687012672,-0.06524552405,0.1274285018,2024-06-11 14:42:43.759247
19.79974412,-0.648194313,-0.8078460693,-0.07243584841,2024-06-11 14:42:43.799744
19.84020516,-0.7821473479,-0.8509880304,-0.05512581021,2024-06-11 14:42:43.840205
19.88066735,-0.6354115009,-0.6866758466,0.06178351492,2024-06-11 14:42:43.880667
19.92114449,-0.3069202602,0.2070546746,0.005592473317,2024-06-11 14:42:43.921144
19.9616222,-0.1183740199,1.168161154,0.02636451647,2024-06-11 14:42:43.961622
20.00209464,0.07456631213,1.287467241,0.2158428431,2024-06-11 14:42:44.002095
20.0425685,0.06418029219,0.003328853287,0.2424736619,2024-06-11 14:42:44.042569
20.08304954,0.327026546,-1.328611851,0.167374745,2024-06-11 14:42:44.083050
20.1235635,1.250050902,-2.009428978,-0.1440727711,2024-06-11 14:42:44.123563
20.16405824,2.549368858,-1.332872868,-1.007310987,2024-06-11 14:42:44.164058
20.20448298,2.821269751,0.2920069993,-1.556039095,2024-06-11 14:42:44.204483
20.24493344,2.166018248,2.004502296,-1.02169168,2024-06-11 14:42:44.244933
20.28543141,1.335003257,2.936714411,-0.3861469626,2024-06-11 14:42:44.285431
20.32591855,1.107176542,1.608368754,0.1442059278,2024-06-11 14:42:44.325919
20.36639313,1.221422791,-0.9748213887,-0.08122401685,2024-06-11 14:42:44.366393
20.4068697,0.8448629379,-1.926873446,-0.1874810159,2024-06-11 14:42:44.406870
20.44735355,0.03967992961,-0.5296871066,0.2462019771,2024-06-11 14:42:44.447354
20.48783928,-0.9605738521,0.1210371032,0.5226299763,2024-06-11 14:42:44.487839
20.5283085,-1.479475498,-0.7428668737,0.6280879974,2024-06-11 14:42:44.528309
20.5688624,-1.581471562,-2.742974997,0.4571181238,2024-06-11 14:42:44.568862
20.60931272,0.9079779983,-1.755504012,-0.1802906841,2024-06-11 14:42:44.609313
20.64976303,0.5840139985,0.9659000635,-0.1645784974,2024-06-11 14:42:44.649763
20.690231,-0.9275516272,0.7560491562,-0.03675054014,2024-06-11 14:42:44.690231
20.73070037,-0.4435364008,0.8210283518,-0.240476355,2024-06-11 14:42:44.730700
20.7711599,0.1288931966,0.6615096927,-0.1991985738,2024-06-11 14:42:44.771160
20.81168855,-0.7078473568,-0.5872097015,0.4137098789,2024-06-11 14:42:44.811689
20.85211584,-1.131810069,-1.576012254,0.1950708032,2024-06-11 14:42:44.852116
20.89261443,-0.2738980353,-1.182808161,-0.4593817294,2024-06-11 14:42:44.892614
20.93307006,-0.4573844373,-0.796394825,0.1535267085,2024-06-11 14:42:44.933070
20.97361631,-1.096124768,1.44325757,0.4264926612,2024-06-11 14:42:44.973616
21.01409496,-0.8724258542,2.838180304,0.844197154,2024-06-11 14:42:45.014095
21.0545723,-0.2299571782,1.132076383,0.2837514579,2024-06-11 14:42:45.054572
21.0950497,0.2838846147,-0.7394048572,-0.3017272651,2024-06-11 14:42:45.095050
21.13542589,-0.1479342431,-0.05579157919,-0.2596505582,2024-06-11 14:42:45.135426
21.17590324,-1.389995933,0.9078448415,-0.1283605844,2024-06-11 14:42:45.175903
21.21645339,-0.6141068339,1.323152542,0.009853405878,2024-06-11 14:42:45.216453
21.25691449,0.1158440933,2.284125805,-0.4181039631,2024-06-11 14:42:45.256914
21.29738782,0.12117026,3.115273952,-0.729018867,2024-06-11 14:42:45.297388
21.33786808,0.9907998443,2.986114502,-0.02423405088,2024-06-11 14:42:45.337868
21.37835162,0.6605776548,2.401700974,0.06045197323,2024-06-11 14:42:45.378352
21.41878589,-0.6561835408,-0.4151745737,-0.6134410501,2024-06-11 14:42:45.418786
21.45930818,-0.1937392503,-1.547783613,-2.081332207,2024-06-11 14:42:45.459308
21.4997662,0.04287562892,3.287841797,-0.7889382243,2024-06-11 14:42:45.499766
21.54026761,-0.602389276,2.851495743,0.2312887162,2024-06-11 14:42:45.540268
21.58072136,-0.2781589627,-1.066697717,-0.7457962632,2024-06-11 14:42:45.580721
21.62121746,0.1049254537,0.7722939253,-0.4122451842,2024-06-11 14:42:45.621217
21.661691,-1.015167117,3.242303133,0.3881442845,2024-06-11 14:42:45.661691
21.70216563,-1.225950003,2.018616676,0.9666989446,2024-06-11 14:42:45.702166
21.74265975,-0.8133054376,1.262434244,1.407838583,2024-06-11 14:42:45.742660
21.78312714,-0.9326115251,0.7062494755,1.407039642,2024-06-11 14:42:45.783127
21.82363048,-1.237933874,-0.6255580783,0.7137061357,2024-06-11 14:42:45.823630
21.86412407,-1.197987676,-2.259492397,0.1679073572,2024-06-11 14:42:45.864124
21.90455183,-0.9989222884,-1.023289442,0.84020257,2024-06-11 14:42:45.904552
21.94502943,-0.9075785279,1.664293408,0.1780270636,2024-06-11 14:42:45.945029
21.98545933,-0.2667077184,2.38732028,-0.1539261788,2024-06-11 14:42:45.985459
22.02593688,0.05113118514,0.2936048508,-0.8776188493,2024-06-11 14:42:46.025937
22.06643449,-0.02117150649,-1.700111866,-0.6904041767,2024-06-11 14:42:46.066434
22.10694803,-0.07922670245,-3.088643074,-0.1065233052,2024-06-11 14:42:46.106948
22.14741735,1.307573557,0.7991910577,0.411046803,2024-06-11 14:42:46.147417
22.18788996,0.2335523367,2.445109367,0.09320788831,2024-06-11 14:42:46.187890
22.22836511,0.08868064731,0.8370068669,-0.145404309,2024-06-11 14:42:46.228365
22.26885959,1.154845715,-0.9865389466,-0.3059881926,2024-06-11 14:42:46.268860
22.30935772,0.7926664948,-1.913291693,-0.2561885417,2024-06-11 14:42:46.309358
22.34987053,0.08708280325,-0.839004159,-0.05752258375,2024-06-11 14:42:46.349871
22.3903486,0.5232957006,0.99013412,0.244337827,2024-06-11 14:42:46.390349
22.43075865,1.375748396,1.496519208,-0.1645784974,2024-06-11 14:42:46.430759
22.47124058,2.922200441,1.205178022,-1.091730714,2024-06-11 14:42:46.471241
22.51171412,4.797410011,-0.08788172156,-1.768419981,2024-06-11 14:42:46.511714
22.5521961,5.66637373,-1.794917703,-2.888113022,2024-06-11 14:42:46.552196
22.59267214,0.8283518553,-0.2063889056,-2.057364464,2024-06-11 14:42:46.592672
22.63313225,-2.596106052,3.136312246,-1.200251341,2024-06-11 14:42:46.633132
22.67360792,-2.898632288,1.156576753,-1.246056318,2024-06-11 14:42:46.673608
22.71412423,-3.296629906,-0.9119726419,-0.3251623809,2024-06-11 14:42:46.714124
22.7545711,-2.935382843,-2.521672964,0.9238233566,2024-06-11 14:42:46.754571
22.7950586,-3.080387592,-1.847114086,1.643787742,2024-06-11 14:42:46.795059
22.83555605,-3.102757454,-1.302247405,1.95203948,2024-06-11 14:42:46.835556
22.87603376,-2.225005388,-1.517424464,1.229278922,2024-06-11 14:42:46.876034
22.91644662,-0.4746944606,-0.317972064,0.7443315983,2024-06-11 14:42:46.916447
22.95696381,-0.1620485783,4.147617817,0.4573844373,2024-06-11 14:42:46.956964
22.9974511,-0.5428693891,7.448775291,0.1396786869,2024-06-11 14:42:46.997451
23.03792917,-0.484814167,7.961817741,-0.3600487709,2024-06-11 14:42:47.037929
23.07841423,0.8011884093,3.923918962,0.5958647132,2024-06-11 14:42:47.078414
23.11889813,0.8472597003,0.499727428,1.56868875,2024-06-11 14:42:47.118898
23.15937777,0.1350182891,0.356187284,0.8873391151,2024-06-11 14:42:47.159378
23.19985704,-0.650857389,2.03592658,0.1367492825,2024-06-11 14:42:47.199857
23.24036261,-1.094260573,3.365337372,0.05246272683,2024-06-11 14:42:47.240363
23.2808049,-1.607569814,3.337907791,-0.2021279633,2024-06-11 14:42:47.280805
23.32126855,-2.590247154,-2.654827118,-0.3741630912,2024-06-11 14:42:47.321269
23.36175068,0.6565830112,-0.8965267539,-0.49506706,2024-06-11 14:42:47.361751
23.4021823,-0.1681736708,3.545628071,0.06204982474,2024-06-11 14:42:47.402182
23.44269756,0.21784015,1.677875161,-0.03701684624,2024-06-11 14:42:47.442698
23.48319063,-0.1375482082,-0.7433995008,-0.1944050342,2024-06-11 14:42:47.483191
23.52369808,-0.4312862158,-1.686530232,-0.122501798,2024-06-11 14:42:47.523698
23.56416475,-0.007323476952,-2.181197882,-0.1789591461,2024-06-11 14:42:47.564165
23.60462891,0.1744319052,-2.72326827,-0.5065183043,2024-06-11 14:42:47.604629
23.64504704,0.3344831765,-2.999962568,-0.1736329794,2024-06-11 14:42:47.645047
23.68552449,0.65871346,-1.954569459,0.9067795873,2024-06-11 14:42:47.685524
23.72600204,0.768432498,0.1343525201,0.959774971,2024-06-11 14:42:47.726002
23.76647954,0.744731009,0.1713693589,-0.8200962543,2024-06-11 14:42:47.766480
23.80698912,1.536066055,-2.289585114,-0.9167661667,2024-06-11 14:42:47.806989
23.84748313,1.699046731,-3.340437651,0.8777520061,2024-06-11 14:42:47.847483
23.88796298,0.59599787,-2.315417051,1.050586104,2024-06-11 14:42:47.887963
23.92844048,0.1081211492,-6.326685429,0.9813459516,2024-06-11 14:42:47.928440
23.96890881,0.2095845938,-5.476629257,0.0410114713,2024-06-11 14:42:47.968909
24.00945912,1.049654007,-0.4114462435,-0.2372806519,2024-06-11 14:42:48.009459
24.04986798,1.461499691,1.670418501,0.5117112994,2024-06-11 14:42:48.049868
24.09041787,1.154579401,1.54418838,0.4464657903,2024-06-11 14:42:48.090418
24.13083438,0.5802856684,0.3609808385,0.1135804728,2024-06-11 14:42:48.130834
24.17131188,0.1094526947,-0.321167767,0.1284937263,2024-06-11 14:42:48.171312
24.21183042,-0.2416747361,-0.4287562966,0.1258306503,2024-06-11 14:42:48.211830
24.25226459,-0.6476616859,-0.3651086092,-0.09666989744,2024-06-11 14:42:48.252265
24.2927586,-1.356707454,0.235283345,-0.3390104175,2024-06-11 14:42:48.292759
24.33322183,-1.558569074,-0.2247641683,-0.4926702678,2024-06-11 14:42:48.333222
24.37371959,-1.785730004,-1.937792063,-0.952185154,2024-06-11 14:42:48.373720
24.41419756,-3.133915663,-7.759157181,-0.8296833634,2024-06-11 14:42:48.414198
24.45461464,1.464695454,-5.681819916,-0.4250279665,2024-06-11 14:42:48.454615
24.49509261,-0.6402050257,3.131252527,-0.6882736683,2024-06-11 14:42:48.495093
24.53557058,-0.08748225868,1.335402727,-0.09666989744,2024-06-11 14:42:48.535571
24.57604855,0.7449973226,0.7656362653,-0.06151720881,2024-06-11 14:42:48.576049
24.61655324,0.5453993082,-0.915168345,-0.01651111245,2024-06-11 14:42:48.616553
24.65703006,-0.2187722325,-1.99398303,0.04207670316,2024-06-11 14:42:48.657030
24.69753605,-0.2206363827,-1.243526459,-0.08894696087,2024-06-11 14:42:48.697536
24.73799938,0.2343512625,-0.3805544972,-0.3677717149,2024-06-11 14:42:48.737999
24.77850386,0.1712362021,0.7488588095,-0.3656412363,2024-06-11 14:42:48.778504
24.81900735,0.288944453,0.6010577083,-0.2697702646,2024-06-11 14:42:48.819007
24.85943256,0.1938724071,-0.6850779653,-0.1403444558,2024-06-11 14:42:48.859433
24.89992121,-0.01983996481,-1.265630007,-0.06737598777,2024-06-11 14:42:48.899921
24.94039897,0.116643019,-0.722627461,0.05512581021,2024-06-11 14:42:48.940399
24.98087631,0.2535254657,-0.3121132851,-0.003994623665,2024-06-11 14:42:48.980876
25.0213511,0.6904041767,0.2219679356,0.004793548491,2024-06-11 14:42:49.021351
25.06182152,0.7431331873,0.001997311832,0.2123808414,2024-06-11 14:42:49.061822
25.10231272,0.2466014475,-0.9455274343,0.2065220475,2024-06-11 14:42:49.102313
25.14278167,0.8581783772,-2.97998929,-0.4849473238,2024-06-11 14:42:49.142782
25.18325949,1.924476624,-2.344444752,-0.9564461112,2024-06-11 14:42:49.183259
25.22377714,2.298107147,-1.085072994,-0.9580439329,2024-06-11 14:42:49.223777
25.26423225,2.190252304,-0.1829537749,-1.102116704,2024-06-11 14:42:49.264232
25.30465298,1.303845167,0.6077154279,-1.35231328,2024-06-11 14:42:49.304653
25.34513074,0.8611077666,0.4224980474,-0.9346088171,2024-06-11 14:42:49.345131
25.38559485,1.00384903,-0.9804138541,-0.4961322844,2024-06-11 14:42:49.385595
25.42608891,0.8019872904,-0.7958621979,-0.2316881865,2024-06-11 14:42:49.426089
25.46659647,-0.4256937504,-0.08708280325,0.2326202542,2024-06-11 14:42:49.466596
25.50707032,-1.410235405,0.7512555718,0.7906692028,2024-06-11 14:42:49.507070
25.54756089,-1.211303115,0.4078511,0.6142399907,2024-06-11 14:42:49.547561
25.58804449,-0.2563216984,-1.136204123,0.354855746,2024-06-11 14:42:49.588044
25.62851615,0.01291595027,-1.57201767,0.3386109471,2024-06-11 14:42:49.628516
25.66898214,-0.06671021879,1.437398791,-0.3624455333,2024-06-11 14:42:49.668982
25.70947652,-0.006790860556,2.124873638,-0.3304885328,2024-06-11 14:42:49.709477
25.74995292,-0.6021229625,0.3737636507,-0.6579145193,2024-06-11 14:42:49.749953
25.79043704,-0.1162435561,0.9121057987,-0.4236964285,2024-06-11 14:42:49.790437
25.8309248,1.623681426,-0.4758928418,0.09427312016,2024-06-11 14:42:49.830925
25.87138834,-2.207695484,-1.691323757,0.2062557489,2024-06-11 14:42:49.871388
25.91184938,-2.070812941,5.412848473,0.3220998347,2024-06-11 14:42:49.911849
25.9523449,-2.272408247,6.651581287,0.4451342523,2024-06-11 14:42:49.952345
25.99280782,-1.432605267,3.877048731,0.7927996516,2024-06-11 14:42:49.992808
26.03330443,-1.027417302,-0.4047885537,0.6030550599,2024-06-11 14:42:50.033304
26.07383933,-1.12222302,-2.807687998,-0.009320789017,2024-06-11 14:42:50.073839
26.11426699,-1.196123481,-1.416759968,0.2022611201,2024-06-11 14:42:50.114267
26.15467308,-1.107309699,1.327147245,0.5870765448,2024-06-11 14:42:50.154673
26.19515079,-1.336201668,1.393458009,0.5460650921,2024-06-11 14:42:50.195151
26.23564334,-1.229145765,0.7177007794,0.4552539587,2024-06-11 14:42:50.235643
26.27615766,-1.611830711,0.5552527308,0.5607120395,2024-06-11 14:42:50.276158
26.316646,-1.532470822,-0.7694976926,0.5276898146,2024-06-11 14:42:50.316646
26.35710459,0.1395455301,0.5021241903,-0.09693620354,2024-06-11 14:42:50.357105
26.39752631,0.0171768833,2.519941807,0.1977338791,2024-06-11 14:42:50.397526
26.43805303,0.3861469626,0.7797505856,0.8005226254,2024-06-11 14:42:50.438053
26.47855251,2.417945862,-1.315030217,0.2829525173,2024-06-11 14:42:50.478553
26.51903777,3.724587202,-0.7396711707,-0.417571336,2024-06-11 14:42:50.519038
26.5595173,2.993304729,1.627010345,-1.153647423,2024-06-11 14:42:50.559517
26.59999209,2.646038771,0.9539161921,-2.065087318,2024-06-11 14:42:50.599992
26.64046006,2.096778154,0.1734998226,-1.204512239,2024-06-11 14:42:50.640460
26.68092193,1.767487884,0.5420704484,-1.22315383,2024-06-11 14:42:50.680922
26.72142048,0.5965304971,-1.198786616,-0.6033213735,2024-06-11 14:42:50.721420
26.7619036,0.01824211515,-0.7524539828,-0.02396774292,2024-06-11 14:42:50.761904
26.80240511,-0.883610785,-0.3398093283,0.5657718778,2024-06-11 14:42:50.802405
26.84287188,-2.230864286,-1.639926195,1.226349473,2024-06-11 14:42:50.842872
26.88331787,-1.15710938,-3.810871124,0.4339492917,2024-06-11 14:42:50.883318
26.92378584,1.57281661,-2.39770627,-1.596251726,2024-06-11 14:42:50.923786
26.96426376,0.5059856772,0.8945294023,-0.3480648994,2024-06-11 14:42:50.964264
27.00471615,-1.244591594,1.740457654,-0.1019960642,2024-06-11 14:42:51.004716
27.04518121,-0.6932004094,3.650154114,0.2169080675,2024-06-11 14:42:51.045181
27.08565902,-0.977883935,3.197563171,0.5647066832,2024-06-11 14:42:51.085659
27.12613683,-1.151516914,1.869750261,0.329023838,2024-06-11 14:42:51.126137
27.16661787,-1.732202053,-0.466039449,-0.05272903293,2024-06-11 14:42:51.166618
27.20713652,-3.060148239,-4.129375935,0.9086437821,2024-06-11 14:42:51.207137
27.24761751,-0.7067821026,0.7184996605,0.8527190089,2024-06-11 14:42:51.247618
27.2881048,-1.599314213,1.985061765,0.9717588425,2024-06-11 14:42:51.288105
27.32860641,-2.096378565,1.003982067,0.674159348,2024-06-11 14:42:51.328606
27.36904485,-2.075872898,0.6279548407,0.3625786901,2024-06-11 14:42:51.369045
27.40956006,-1.517557621,-1.476413012,0.05379426852,2024-06-11 14:42:51.409560
27.45002298,0.2513949871,-0.281221509,-0.2924064696,2024-06-11 14:42:51.450023
27.49049105,0.1509967744,2.52393651,0.2893439233,2024-06-11 14:42:51.490491
27.53098115,1.271089315,-0.6869421601,0.3633776009,2024-06-11 14:42:51.530981
27.57146615,3.625653744,-1.429808974,-0.6579145193,2024-06-11 14:42:51.571466
27.61192303,2.894770861,1.195590973,-0.5750926733,2024-06-11 14:42:51.611923
27.65245839,2.802894354,2.400103092,-0.8872059584,2024-06-11 14:42:51.652458
27.69289704,2.617543936,0.3407414258,-0.5671034455,2024-06-11 14:42:51.692897
27.7333999,1.46735847,1.041265249,-0.2186390758,2024-06-11 14:42:51.733400
27.7738922,0.8097102642,0.5909380317,-0.2782921195,2024-06-11 14:42:51.773892
27.81434787,0.06657706201,-2.134593725,0.258452177,2024-06-11 14:42:51.814348
27.85482574,0.1209039465,-2.063755751,0.5197005868,2024-06-11 14:42:51.854826
27.89530532,-0.9131709933,-1.023289442,0.3359478712,2024-06-11 14:42:51.895305
27.93570428,-2.067617416,-2.870004177,0.4251611233,2024-06-11 14:42:51.935704
27.9761911,2.879591227,-2.357227564,-0.6171693802,2024-06-11 14:42:51.976191
28.01672886,-0.1796249151,-1.500380754,0.108254306,2024-06-11 14:42:52.016729
28.05718673,-1.476279855,4.212730408,-0.09320788831,2024-06-11 14:42:52.057187
28.09765636,-0.2952027023,3.739633799,0.1274285018,2024-06-11 14:42:52.097656
28.13812027,-1.249651432,0.339409858,0.05778888986,2024-06-11 14:42:52.138120
28.17859902,-1.866021991,-2.753360987,0.2193048447,2024-06-11 14:42:52.178599
28.21909996,-1.586797714,-2.268280506,0.3633776009,2024-06-11 14:42:52.219100
28.25956782,-2.146977186,-0.7391385436,0.9970580935,2024-06-11 14:42:52.259568
28.30004553,-0.9232907295,1.489062667,0.8647028804,2024-06-11 14:42:52.300046
28.34054136,-1.106777072,-0.06790860742,0.7805495262,2024-06-11 14:42:52.340541
28.38098595,-0.9467258453,-1.033409238,0.5663045049,2024-06-11 14:42:52.380986
28.42145943,0.2364817262,-1.537663817,-0.128626883,2024-06-11 14:42:52.421459
28.46197652,1.381340981,0.6971949935,-0.3219666779,2024-06-11 14:42:52.461977
28.50245303,2.921934128,0.4853467941,-0.9231575727,2024-06-11 14:42:52.502453
28.5429322,3.317002535,0.4738955498,-1.345389366,2024-06-11 14:42:52.542932
28.58338391,4.132837772,0.9102416039,-1.026218891,2024-06-11 14:42:52.583384
28.62394193,3.203555107,-1.282274246,-0.9519188404,2024-06-11 14:42:52.623942
28.66432089,1.620752096,3.740965128,-0.07456631213,2024-06-11 14:42:52.664321
28.70479084,0.3914731443,0.7200975418,0.4240958989,2024-06-11 14:42:52.704791
28.74532423,-0.343937099,-2.343379498,0.6118432283,2024-06-11 14:42:52.745324
28.78575058,-0.803984642,-3.105021,0.7856093645,2024-06-11 14:42:52.785751
28.82624652,-1.404376626,-3.156418562,1.39798522,2024-06-11 14:42:52.826247
28.86673048,3.16227746,-14.92071915,-1.881600976,2024-06-11 14:42:52.866730
28.90722777,0.7354102731,0.8788172603,-1.921813488,2024-06-11 14:42:52.907228
28.94770381,-0.7243584394,7.450372696,0.6765561104,2024-06-11 14:42:52.947704
28.98817386,-0.1982664913,0.2549901605,0.1857500076,2024-06-11 14:42:52.988174
29.02865105,0.1406107545,1.82288003,0.8236914277,2024-06-11 14:42:53.028651
29.06914709,0.09613727778,-2.439250469,0.03621792421,2024-06-11 14:42:53.069147
29.10961725,-0.499727428,0.8465939164,0.9142362475,2024-06-11 14:42:53.109617
29.150071,0.2055899799,-1.116763711,0.4632432163,2024-06-11 14:42:53.150071
29.19058881,0.5600462556,-1.153247952,0.0954715088,2024-06-11 14:42:53.190589
29.23105579,0.3414071798,-1.386134505,0.5263582468,2024-06-11 14:42:53.231056
29.27155985,0.214644447,-0.9343425035,0.6826812029,2024-06-11 14:42:53.271560
29.31200006,0.3203688264,-0.6872084737,0.5418041348,2024-06-11 14:42:53.312000
29.35247527,-0.06777545065,0.2153102309,-0.04340824485,2024-06-11 14:42:53.352475
29.39291386,-0.1913424879,0.01957365684,0.005858781748,2024-06-11 14:42:53.392914
29.43341412,0.09587097168,0.3551220596,0.01970681176,2024-06-11 14:42:53.433414
29.47395667,0.2607157826,0.1247654185,-0.1086537689,2024-06-11 14:42:53.473957
29.51440506,0.7396711707,-0.9583102465,0.009853405878,2024-06-11 14:42:53.514405
29.5548374,0.8081123829,-1.548848867,0.3162410557,2024-06-11 14:42:53.554837
29.59531647,0.7346113324,-1.925275564,0.6872084737,2024-06-11 14:42:53.595316
29.63578996,0.5403394699,-1.673214793,0.7973269224,2024-06-11 14:42:53.635790
29.67627214,0.5283555984,-2.270144701,0.4547213614,2024-06-11 14:42:53.676272
29.71675699,0.5246272683,-2.826063156,0.6118432283,2024-06-11 14:42:53.716757
29.75723891,0.2098509073,-3.477852583,1.246322632,2024-06-11 14:42:53.757239
29.79774266,0.1440727711,-3.661072731,1.67334795,2024-06-11 14:42:53.797743
29.83821996,-0.05605788901,-3.312475204,1.262301087,2024-06-11 14:42:53.838220
29.87868318,0.1017297506,-3.096099854,0.5189016461,2024-06-11 14:42:53.878683
29.91915699,0.8877385855,-4.727637291,-0.4284899831,2024-06-11 14:42:53.919157
29.95963829,1.16789484,-5.424166679,0.7712287307,2024-06-11 14:42:53.959638
30.00011714,1.276149154,-3.818061352,-0.003994623665,2024-06-11 14:42:54.000117
30.04060558,2.130332947,-0.7902697325,0.08308817446,2024-06-11 14:42:54.040606
30.08109516,3.368399858,-1.5475173,-0.2247641683,2024-06-11 14:42:54.081095
30.12156943,2.885183573,-0.8166342378,-0.5572500229,2024-06-11 14:42:54.121569
30.16204407,1.399183631,1.613694906,0.1503310055,2024-06-11 14:42:54.162044
30.20251542,0.4676373005,-0.7359428406,0.6105116606,2024-06-11 14:42:54.202515
30.24299449,0.1637795717,-0.06444659829,1.064966679,2024-06-11 14:42:54.242994
30.28351256,-0.7685656548,-0.06338136643,1.426213861,2024-06-11 14:42:54.283513
30.32400053,-0.4491288662,-1.716889381,1.232208252,2024-06-11 14:42:54.324001
30.36447397,0.03941362351,-2.693441629,0.7621742487,2024-06-11 14:42:54.364474
30.4048412,-0.3644428551,-0.1320888996,0.3468665183,2024-06-11 14:42:54.404841
30.44533808,0.02942706272,-0.8326127529,0.09760197252,2024-06-11 14:42:54.445338
30.48582506,-0.1828206182,-1.484135866,-0.3509942889,2024-06-11 14:42:54.485825
30.52635412,-0.6772218943,0.2477998286,0.3713668585,2024-06-11 14:42:54.526354
30.56680621,-1.135005832,1.220623851,0.5995930433,2024-06-11 14:42:54.566806
30.60731199,-1.509568334,2.194646358,-0.1302247345,2024-06-11 14:42:54.607312
30.64775803,-1.139266729,2.470674753,-0.0868164897,2024-06-11 14:42:54.647758
30.68824631,-1.272820354,-1.667888641,0.277892679,2024-06-11 14:42:54.688246
30.72872131,-0.3210346103,-1.84817934,0.6408708096,2024-06-11 14:42:54.728721
30.7692012,-0.3244965971,-0.6441996694,0.6776213646,2024-06-11 14:42:54.769201
30.8096635,-1.022623658,0.9762860537,0.6661701202,2024-06-11 14:42:54.809663
30.85018105,-1.366294503,2.267348528,0.6738930345,2024-06-11 14:42:54.850181
30.89064464,-1.483203888,1.53087306,0.3750951886,2024-06-11 14:42:54.890645
30.93112303,-1.066031933,-2.029402018,-0.1073222235,2024-06-11 14:42:54.931123
30.97160714,0.5672366023,-0.5584484339,-0.2492645234,2024-06-11 14:42:54.971607
31.01208006,0.09187635034,1.814358115,0.09214265645,2024-06-11 14:42:55.012080
31.05256657,0.7726933956,-0.1853505522,0.2563216984,2024-06-11 14:42:55.052567
31.09304678,2.880123854,-0.9990554452,-0.1832200736,2024-06-11 14:42:55.093047
31.13352798,3.391302586,-0.4881430268,-0.6509905457,2024-06-11 14:42:55.133528
31.17400641,2.946967125,0.9041165113,-1.809431434,2024-06-11 14:42:55.174006
31.21443298,2.16468668,0.9302147627,-1.457505107,2024-06-11 14:42:55.214433
31.25491136,1.438597202,0.7629731297,-0.3142437339,2024-06-11 14:42:55.254911
31.2953898,1.336334825,0.3386109471,-0.5271571875,2024-06-11 14:42:55.295390
31.33586824,0.6130415797,-1.835929155,0.03941362351,2024-06-11 14:42:55.335868
31.37637376,0.6565830112,-1.225950003,0.4446016252,2024-06-11 14:42:55.376374
31.41679897,-0.1932066381,-0.5094476938,0.5375432372,2024-06-11 14:42:55.416799
31.45733084,-1.893185377,-1.199585557,0.7856093645,2024-06-11 14:42:55.457331
31.49783214,-2.013290405,-2.042717457,0.6110442877,2024-06-11 14:42:55.497832
31.53830011,1.582137346,-1.376547337,-0.304390341,2024-06-11 14:42:55.538300
31.57876256,0.1909430176,-0.3712337017,-0.2093182951,2024-06-11 14:42:55.578763
31.61922334,-1.761495948,1.920615196,-0.518369019,2024-06-11 14:42:55.619223
31.65969647,-0.7632394433,4.740020752,-0.3291569948,2024-06-11 14:42:55.659696
31.70020355,-0.6764229536,2.861881733,-0.071104303,2024-06-11 14:42:55.700204
31.7406824,-0.4491288662,0.4629769027,0.4275579154,2024-06-11 14:42:55.740682
31.78112798,-1.124619722,-2.396108627,0.2347507328,2024-06-11 14:42:55.781128
31.82166766,-2.005567551,-1.636730552,0.7259563208,2024-06-11 14:42:55.821668
31.86209303,-2.127802849,0.414242506,0.9179645777,2024-06-11 14:42:55.862093
31.90259496,-2.259093046,0.6111774445,0.5631088018,2024-06-11 14:42:55.902595
31.94307371,-0.4525908828,0.04540555924,-0.09027849883,2024-06-11 14:42:55.943074
31.98357917,-0.1838858575,1.802640557,0.1252980381,2024-06-11 14:42:55.983579
32.02405553,-1.32821238,1.351114988,0.1780270636,2024-06-11 14:42:56.024056
32.0644799,-1.577210665,-0.7231600881,-0.02636451647,2024-06-11 14:42:56.064480
32.10495844,0.4985290468,-0.7146382332,-0.3118469715,2024-06-11 14:42:56.104958
32.14543699,0.3805544972,0.2866808474,0.2813546658,2024-06-11 14:42:56.145437
32.18591548,0.7985253334,-1.030479789,0.4920045137,2024-06-11 14:42:56.185915
32.22639844,3.320730686,-1.111171246,-0.5266245604,2024-06-11 14:42:56.226398
32.26688574,3.361209631,0.8854749799,-0.7183665037,2024-06-11 14:42:56.266886
32.30736282,2.707289696,1.612363338,-1.336334825,2024-06-11 14:42:56.307363
32.34783376,1.679339886,1.370022774,-0.573228538,2024-06-11 14:42:56.347834
32.38830272,1.523283243,0.883610785,-0.1965354979,2024-06-11 14:42:56.388303
32.4287898,1.370954871,-0.7276872993,-0.05059856921,2024-06-11 14:42:56.428790
32.46928178,0.6440665126,-2.032065153,0.3649754524,2024-06-11 14:42:56.469282
32.509751,0.5416709781,-0.9713593721,0.3734973371,2024-06-11 14:42:56.509751
32.55022548,-0.5117112994,-0.9955934286,0.3564535975,2024-06-11 14:42:56.550225
32.59069891,-1.699179769,-1.362166762,0.6515231729,2024-06-11 14:42:56.590699
32.63118147,-1.806102633,-2.597304344,0.2603163123,2024-06-11 14:42:56.631181
32.6716623,1.216629267,-1.833532333,-0.1027949899,2024-06-11 14:42:56.671662
32.71214266,0.3888100684,-0.5632419586,0.09760197252,2024-06-11 14:42:56.712143
32.75262949,-1.603841424,1.454975128,-0.112115778,2024-06-11 14:42:56.752629
32.79311454,-0.2805557549,2.800098181,-0.2101172209,2024-06-11 14:42:56.793115
32.83362318,0.04926702753,1.319157958,0.2975994647,2024-06-11 14:42:56.833623
32.87408433,-0.3146432042,-0.8736242056,0.4722976983,2024-06-11 14:42:56.874084
32.91452183,-1.178946614,-3.468265533,0.01917419396,2024-06-11 14:42:56.914522
32.95498011,-1.921414018,-2.345510006,0.698659718,2024-06-11 14:42:56.954980
32.99545829,-1.842054248,-0.2761616707,1.091597557,2024-06-11 14:42:56.995458
33.03595183,-0.3732310236,-1.865489364,0.1569887102,2024-06-11 14:42:57.035952
33.07643667,-0.4760259986,1.149120092,0.2773600519,2024-06-11 14:42:57.076437
33.11691167,-0.9896014929,2.546040058,0.273365438,2024-06-11 14:42:57.116912
33.1573885,-0.8801487684,1.462165475,0.1194392517,2024-06-11 14:42:57.157389
33.19787209,-1.051118731,-0.9950608015,0.08282186836,2024-06-11 14:42:57.197872
33.23835084,-0.5981283188,-1.926607132,-0.1027949899,2024-06-11 14:42:57.238351
33.27883423,0.3973319232,0.2315550297,-0.204258427,2024-06-11 14:42:57.278834
33.31931496,0.8653686643,0.4222317338,0.3790898025,2024-06-11 14:42:57.319315
33.35980345,2.789046288,-0.2940043211,-0.1427412182,2024-06-11 14:42:57.359803
33.40028725,3.372394562,0.742733717,-0.134485662,2024-06-11 14:42:57.400287
33.44076141,2.991973162,1.850842357,-0.7511224151,2024-06-11 14:42:57.440761
33.48123647,2.059494972,1.078814745,-1.072290182,2024-06-11 14:42:57.481236
33.52171318,1.325682521,0.232087642,-0.06577813625,2024-06-11 14:42:57.521713
33.56217209,1.300649524,-0.2218347788,-0.14993155,2024-06-11 14:42:57.562172
33.6026572,0.2809551954,-1.547783613,0.2587184608,2024-06-11 14:42:57.602657
33.64310423,-0.0171768833,-1.196389794,0.5175700784,2024-06-11 14:42:57.643104
33.68363084,-0.570032835,-0.4870778024,0.3034582436,2024-06-11 14:42:57.683631
33.7241435,-1.922212958,-0.842199862,0.6967955232,2024-06-11 14:42:57.724143
33.76455329,-2.101438522,-2.654560804,0.502923131,2024-06-11 14:42:57.764553
33.80501496,1.280676365,-0.9657669067,-0.2846835256,2024-06-11 14:42:57.805015
33.84547527,-0.2528596818,0.3279586136,-0.2047910541,2024-06-11 14:42:57.845475
33.88600235,-0.7568480372,2.431527615,-0.579886198,2024-06-11 14:42:57.886002
33.92648042,0.2026605755,2.92180109,-0.02583190054,2024-06-11 14:42:57.926480
33.96696459,0.003062544856,0.9603075981,0.04660394415,2024-06-11 14:42:57.966965
34.00745006,-0.02623136342,0.4432700872,-0.1155777797,2024-06-11 14:42:58.007450
34.04791975,-0.6804175973,1.383338213,-0.4801537991,2024-06-11 14:42:58.047920
34.08839522,-1.764958024,1.680538297,0.1918751001,2024-06-11 14:42:58.088395
34.12887667,-3.269732714,-1.01423502,-0.3845491111,2024-06-11 14:42:58.128877
34.1693097,0.06684337556,-1.661497235,0.5031894445,2024-06-11 14:42:58.169310
34.2098336,0.05006595328,1.826341987,-0.3493964374,2024-06-11 14:42:58.209834
34.25030438,-0.7818810344,3.32885313,-0.04127778113,2024-06-11 14:42:58.250304
34.29079157,-1.098255277,1.649912834,-0.1193061024,2024-06-11 14:42:58.290792
34.33126459,0.4463326335,2.375336409,-0.5782883763,2024-06-11 14:42:58.331265
34.37175574,0.4002613127,4.301943779,-0.6712299585,2024-06-11 14:42:58.371756
34.41222605,0.6810833812,4.261198521,-0.8419335485,2024-06-11 14:42:58.412226
34.45269933,0.6282211542,2.362686872,-1.106643915,2024-06-11 14:42:58.452699
34.4931711,0.3272928596,1.638994217,-1.173620462,2024-06-11 14:42:58.493171
34.53369772,-0.8473928571,1.437665105,-1.198919773,2024-06-11 14:42:58.533698
34.57417808,-0.8348763585,1.795716524,-0.8406019807,2024-06-11 14:42:58.574178
34.61455652,-0.2374138087,0.6220960617,-0.9844084978,2024-06-11 14:42:58.614557
34.65504485,-0.168706283,-2.604228497,-1.070958614,2024-06-11 14:42:58.655045
34.69552318,-0.691069901,2.483723879,-0.3304885328,2024-06-11 14:42:58.695523
34.73602959,-2.467212915,6.776479721,0.03142437339,2024-06-11 14:42:58.736030
34.77653157,-1.817287564,3.927913666,0.1695052087,2024-06-11 14:42:58.776532
34.81705657,-0.8394036293,0.7579132915,-0.1027949899,2024-06-11 14:42:58.817057
34.85745173,-1.74232173,-2.905156851,-0.267639786,2024-06-11 14:42:58.857452
34.89793777,-2.140053034,-3.069202662,-0.0221035853,2024-06-11 14:42:58.897938
34.93841553,-1.999176025,0.8284850121,0.5540543199,2024-06-11 14:42:58.938416
34.97891428,-2.563616514,3.226324558,0.7845441103,2024-06-11 14:42:58.978914
35.0193736,-1.756702423,3.017006159,0.813039124,2024-06-11 14:42:59.019374
35.05988527,-0.3830844164,2.162955761,0.8580452204,2024-06-11 14:42:59.059885
35.10032094,-0.1948044896,2.53352356,1.100918293,2024-06-11 14:42:59.100321
35.14083329,-0.4179708064,3.528318167,0.7978595495,2024-06-11 14:42:59.140833
35.18134907,-0.4531235099,2.504762411,-0.2713681161,2024-06-11 14:42:59.181349
35.22183454,-0.5906717181,-4.378773689,-0.6781539917,2024-06-11 14:42:59.221835
35.26225016,0.09453943372,-0.231421873,0.4477973282,2024-06-11 14:42:59.262250
35.30272339,0.4231638312,2.77852726,1.606238246,2024-06-11 14:42:59.302723
35.34318746,0.3248960674,4.524843693,1.444056511,2024-06-11 14:42:59.343187
35.3837549,0.1568555683,5.507521152,0.5585815907,2024-06-11 14:42:59.383755
35.42410647,0.3142437339,5.144942284,0.3873453438,2024-06-11 14:42:59.424106
35.46468105,-0.1969349533,2.950295925,-0.07749570161,2024-06-11 14:42:59.464681
35.5051461,-1.313831806,-1.533935547,-0.1728340536,2024-06-11 14:42:59.505146
35.54560303,-1.338864803,-2.872134447,0.343937099,2024-06-11 14:42:59.545603
35.58608178,-1.163500786,-2.341515303,0.1713693589,2024-06-11 14:42:59.586082
35.6265573,0.2303566486,1.82288003,-0.006391398143,2024-06-11 14:42:59.626557
35.66702574,0.07376738638,3.175725937,0.385214895,2024-06-11 14:42:59.667026
35.70750959,-0.2416747361,1.500780225,0.1527277827,2024-06-11 14:42:59.707510
35.74799496,-0.614639461,-0.3416734934,0.0705716908,2024-06-11 14:42:59.747995
35.78846209,-0.9477910995,0.03022598661,-0.08015878499,2024-06-11 14:42:59.788462
35.82893147,-1.109706521,-1.328079224,-0.09986559302,2024-06-11 14:42:59.828931
35.86942344,-0.3354152441,-1.162835002,-0.2117150575,2024-06-11 14:42:59.869423
35.90990037,-0.1737661362,1.768553138,-0.03914731368,2024-06-11 14:42:59.909900
35.95037506,0.2774932086,1.685598135,-0.03994623944,2024-06-11 14:42:59.950375
35.99084881,1.47774446,-0.02303566411,-0.1222354919,2024-06-11 14:42:59.990849
36.03133042,3.020468235,-1.339264274,-0.270835489,2024-06-11 14:43:00.031330
36.07180261,3.685972452,1.019960642,-0.9047822952,2024-06-11 14:43:00.071803
36.11228725,2.920069933,3.60088706,-1.845649362,2024-06-11 14:43:00.112287
36.15277985,2.640446424,0.1407439113,-1.125152349,2024-06-11 14:43:00.152780
36.19326407,1.914889574,-1.923677683,-0.5572500229,2024-06-11 14:43:00.193264
36.23374923,2.236323595,-2.399836779,-0.354189992,2024-06-11 14:43:00.233749
36.27420943,2.137256861,-1.394123673,0.3631113172,2024-06-11 14:43:00.274209
36.31468933,1.660964608,-2.430994987,0.3351489305,2024-06-11 14:43:00.314689
36.35518105,1.27295351,-3.268001795,-0.1669752747,2024-06-11 14:43:00.355181
36.39561683,1.804238439,-2.994636297,-0.9204944968,2024-06-11 14:43:00.395617
36.43612037,1.222754359,-2.241915941,-0.1616491079,2024-06-11 14:43:00.436120
36.47658423,0.9886693954,-2.471473694,-0.83314538,2024-06-11 14:43:00.476584
36.51706042,2.09118557,0.2691044807,-1.890921712,2024-06-11 14:43:00.517060
36.55755542,1.59278965,0.828751266,-1.613561749,2024-06-11 14:43:00.557555
36.59801954,2.353765488,-0.9607070088,-1.02169168,2024-06-11 14:43:00.598020
36.63850261,2.821003437,1.089467049,-3.375856638,2024-06-11 14:43:00.638503
36.67897152,3.536973,-3.534310102,-3.037378788,2024-06-11 14:43:00.678972
36.71946407,1.959362984,1.294657588,-2.321542263,2024-06-11 14:43:00.719464
36.7599448,1.553109765,-1.232874036,0.2983984053,2024-06-11 14:43:00.759945
36.80043001,0.1640458852,0.3703016341,0.6203650832,2024-06-11 14:43:00.800430
36.84089912,-0.527423501,0.2083862126,1.311035514,2024-06-11 14:43:00.840899
36.8813898,-1.120625138,-0.04620448127,1.676809907,2024-06-11 14:43:00.881390
36.92187824,-1.395322084,0.1463363916,1.496519208,2024-06-11 14:43:00.921878
36.96234506,-1.775344014,0.002529928461,1.53007412,2024-06-11 14:43:00.962345
37.00281891,-1.703707099,0.3007951677,1.180278182,2024-06-11 14:43:01.002819
37.04331282,-1.397452593,0.3585840762,0.5308855176,2024-06-11 14:43:01.043313
37.0838099,-0.9579107761,-0.1733666807,0.3668396175,2024-06-11 14:43:01.083810
37.12424178,-0.7664351463,-0.1613828093,0.5231625438,2024-06-11 14:43:01.124242
37.16472782,-1.061238408,-0.07376738638,0.6635070443,2024-06-11 14:43:01.164728
37.20522006,-1.347386599,0.4845478833,0.9959928989,2024-06-11 14:43:01.205220
37.24565027,-1.251249313,0.4672378302,1.174419403,2024-06-11 14:43:01.245650
37.28621246,-1.217428207,0.5146406889,1.817154408,2024-06-11 14:43:01.286212
37.326621,-1.032743454,0.05232957378,2.334458113,2024-06-11 14:43:01.326621
37.3671537,-0.6764229536,-1.239798069,2.354697704,2024-06-11 14:43:01.367154
37.40751897,-0.4776238501,-1.843119383,2.108096123,2024-06-11 14:43:01.407519
37.44808344,-0.2925396264,-1.518756032,1.608901381,2024-06-11 14:43:01.448083
37.48852907,0.8821461201,-2.719007254,0.5793536305,2024-06-11 14:43:01.488529
37.52901891,1.766955256,-0.6468627453,-0.8640371561,2024-06-11 14:43:01.529019
37.56948584,1.688926935,1.893185377,-1.656437397,2024-06-11 14:43:01.569486
37.60996766,1.092529655,1.45737195,-1.160571337,2024-06-11 14:43:01.609968
37.65044766,-0.4920045137,1.732468367,-0.4495283365,2024-06-11 14:43:01.650448
37.69092563,-0.6945319176,1.600379467,0.429155767,2024-06-11 14:43:01.690926
37.73140704,-0.8495233655,0.235283345,1.061238408,2024-06-11 14:43:01.731407
37.77186725,-0.7025212049,-0.547529757,1.036471725,2024-06-11 14:43:01.771867
37.81239355,-0.1982664913,-0.7732260227,1.053781748,2024-06-11 14:43:01.812394
37.85282001,-1.015433431,0.217174381,1.033542395,2024-06-11 14:43:01.852820
37.8933335,-0.8620398045,-0.8288844228,0.5564510822,2024-06-11 14:43:01.893333
37.93381199,-0.3452686667,-2.062424183,0.3908073604,2024-06-11 14:43:01.933812
37.97429298,-0.4778901637,1.348718166,0.1418091506,2024-06-11 14:43:01.974293
38.01471657,-1.581471562,1.369490266,0.8732247949,2024-06-11 14:43:02.014717
38.05519777,-2.03512764,2.00104022,0.3106485903,2024-06-11 14:43:02.055198
38.09567626,-1.654440045,0.6194329858,0.07669677585,2024-06-11 14:43:02.095676
38.13622303,-0.9459269047,1.142462373,0.1375482082,2024-06-11 14:43:02.136223
38.17667027,-1.396653652,-0.01398118306,-0.5950657725,2024-06-11 14:43:02.176670
38.21715589,-0.8407351375,0.8668333888,-0.07643046975,2024-06-11 14:43:02.217156
38.25762511,-0.2424736619,0.8516538143,0.4083836973,2024-06-11 14:43:02.257625
38.2981185,-0.4691019952,0.2664414048,0.5793536305,2024-06-11 14:43:02.298119
38.33858376,-0.9190297723,0.7877398133,0.515173316,2024-06-11 14:43:02.338584
38.37904313,-1.241129637,1.548449397,0.4898740351,2024-06-11 14:43:02.379043
38.41947803,-1.591857553,1.335935354,0.4222317338,2024-06-11 14:43:02.419478
38.46002178,-1.416626811,-0.222367391,0.3308880031,2024-06-11 14:43:02.460022
38.50049584,0.1129147038,-0.7287525535,0.0410114713,2024-06-11 14:43:02.500496
38.54098152,0.1869483888,1.663760781,0.3181052208,2024-06-11 14:43:02.540982
38.58143256,0.8443303108,0.5515244007,0.2896102369,2024-06-11 14:43:02.581433
38.62195063,2.372673512,-1.023822069,-0.1131810099,2024-06-11 14:43:02.621951
38.66245542,2.834851503,0.4081174135,-0.5258256793,2024-06-11 14:43:02.662455
38.70288746,2.213953733,2.329398394,-1.533136606,2024-06-11 14:43:02.702887
38.74334579,2.286123276,0.6924014688,-1.80170846,2024-06-11 14:43:02.743346
38.78387886,2.114088058,-1.568022966,-1.208773136,2024-06-11 14:43:02.783879
38.82433813,1.774411917,-0.8949288726,-0.9410002232,2024-06-11 14:43:02.824338
38.8647461,0.7780195475,0.4696346223,-0.5220973492,2024-06-11 14:43:02.864746
38.90530662,-0.03395430371,0.4067858756,0.1242327988,2024-06-11 14:43:02.905307
38.94572141,0.3464670479,-0.8485912681,0.06710968167,2024-06-11 14:43:02.945721
38.98621954,1.012104511,-0.513176024,-0.4295552075,2024-06-11 14:43:02.986220
39.0267098,-0.990933001,0.4163729548,0.3311543167,2024-06-11 14:43:03.026710
39.06717251,-1.964023352,2.275071383,0.5625761747,2024-06-11 14:43:03.067173
39.10765277,-1.536465526,1.94911015,1.311301827,2024-06-11 14:43:03.107653
39.14813636,-0.9872047305,-1.529940963,1.146989703,2024-06-11 14:43:03.148136
39.18860345,-2.567610979,0.4025249183,0.7544512749,2024-06-11 14:43:03.188603
39.22911792,-2.579328537,4.808461666,0.1031944528,2024-06-11 14:43:03.229118
39.26957725,-2.44004941,5.188350677,-0.5097140074,2024-06-11 14:43:03.269577
39.31004542,-1.87267971,4.463326454,-0.6768224239,2024-06-11 14:43:03.310045
39.3505361,-1.580672622,4.306204319,-1.182941318,2024-06-11 14:43:03.350536
39.3909822,-1.12595129,3.206085205,-1.00091958,2024-06-11 14:43:03.390982
39.43144985,-1.3348701,-0.7729597092,-0.8288844228,2024-06-11 14:43:03.431450
39.47197542,-1.183207631,0.4206338823,-0.600391984,2024-06-11 14:43:03.471975
39.51244225,-3.378652811,-0.08308817446,-0.5940005779,2024-06-11 14:43:03.512442
39.55291391,-2.547371626,0.03954677656,-0.937271893,2024-06-11 14:43:03.552914
39.59340761,-0.7749570012,-2.779991865,-0.284417212,2024-06-11 14:43:03.593408
39.63390459,1.234471917,2.001839161,0.6563166976,2024-06-11 14:43:03.633905
39.67431772,2.773067951,0.1663095057,2.467612267,2024-06-11 14:43:03.674318
39.71477829,3.410742998,-1.992651582,2.214353085,2024-06-11 14:43:03.714778
39.75526667,3.874518871,-3.250425339,0.2195711583,2024-06-11 14:43:03.755267
39.7957711,4.197816849,-1.045126796,-1.996912479,2024-06-11 14:43:03.795771
39.83626787,4.965051174,-2.374004841,-1.143527627,2024-06-11 14:43:03.836268
39.87675376,4.769713879,-5.198337078,-1.779072285,2024-06-11 14:43:03.876754
39.91723308,0.9955934286,-1.745650649,-1.650578618,2024-06-11 14:43:03.917233
39.95771506,-1.822081089,1.472817779,0.6973281503,2024-06-11 14:43:03.957715
39.99820605,-2.879724264,-1.292127609,2.640579462,2024-06-11 14:43:03.998206
40.0386722,-0.04407401755,-3.621392727,1.955235243,2024-06-11 14:43:04.038672
40.07913277,1.567224145,1.015167117,-0.03408745676,2024-06-11 14:43:04.079133
40.11962839,2.250704288,1.302114248,-1.06696403,2024-06-11 14:43:04.119628
40.16011782,-0.800788939,3.960669518,-0.3568530679,2024-06-11 14:43:04.160118
40.20054511,-3.694627523,1.998909712,0.6187672615,2024-06-11 14:43:04.200545
40.24104191,-3.515535355,0.7339455485,0.5969299674,2024-06-11 14:43:04.241042
40.28153071,-2.811549425,-0.304390341,0.1162435561,2024-06-11 14:43:04.281531
40.32199967,-6.428814411,-2.260291338,1.160305023,2024-06-11 14:43:04.322000
40.36248306,0.006258244161,3.154687643,-0.1451379955,2024-06-11 14:43:04.362483
40.40296738,-0.1069227681,0.04141093418,0.5812177658,2024-06-11 14:43:04.402967
40.44347863,1.462564945,0.2264951766,0.3913399875,2024-06-11 14:43:04.443479
40.48396233,1.602376819,-0.1307573467,0.2837514579,2024-06-11 14:43:04.483962
40.52438686,2.453364849,-0.2556559145,0.1748313755,2024-06-11 14:43:04.524387
40.56484108,3.877980709,-0.4985290468,-2.098375797,2024-06-11 14:43:04.564841
40.60531993,3.061479807,-4.992747307,-3.278387785,2024-06-11 14:43:04.605320
40.64578504,0.6390066743,4.469451427,-0.2790910602,2024-06-11 14:43:04.645785
40.68629623,-0.8647028804,4.125780582,-0.4505935609,2024-06-11 14:43:04.686296
40.7267903,-0.6535204649,1.59025979,-0.5793536305,2024-06-11 14:43:04.726790
40.76723889,-0.2589847744,0.1532603949,-0.4141093493,2024-06-11 14:43:04.767239
40.80774972,0.9844084978,0.2414084375,0.347132802,2024-06-11 14:43:04.807750
40.84822149,5.456123352,0.9153015018,0.9824111462,2024-06-11 14:43:04.848221
40.88868842,-1.116896868,-0.04247616604,-0.747926712,2024-06-11 14:43:04.888688
40.92916733,-1.154179931,3.916462421,-1.210104704,2024-06-11 14:43:04.929167
40.96964254,-1.077483177,-3.710073471,-1.510500431,2024-06-11 14:43:04.969643
41.0101291,-1.169359565,1.093461752,-0.311580658,2024-06-11 14:43:05.010129
41.05059832,-3.477719545,2.903958321,-0.548728168,2024-06-11 14:43:05.050598
41.09106639,-0.9464595318,0.1042596847,-1.743919611,2024-06-11 14:43:05.091066
41.13156478,-0.3934704363,1.534068704,-1.907965541,2024-06-11 14:43:05.131565
41.17204285,0.3936035931,5.726692677,-2.566412687,2024-06-11 14:43:05.172043
41.21250759,1.293725491,8.388177872,-3.003025055,2024-06-11 14:43:05.212508
41.25299118,1.167362213,-0.2311555594,-1.820616364,2024-06-11 14:43:05.252991
41.29350665,-2.479196787,2.384657383,-0.4050548673,2024-06-11 14:43:05.293507
41.33399446,-4.990483761,1.832200766,2.790244818,2024-06-11 14:43:05.333994
41.37441467,-4.261997223,-4.66532135,1.818485975,2024-06-11 14:43:05.374415
41.41486894,-5.684882164,-2.42007637,0.3205019832,2024-06-11 14:43:05.414869
41.45534702,-4.781831264,1.44698596,1.208506823,2024-06-11 14:43:05.455347
41.49582483,-4.47637558,6.910432816,0.6563166976,2024-06-11 14:43:05.495825
41.5363004,-2.762814999,7.302305698,0.5987941027,2024-06-11 14:43:05.536300
41.57681264,-0.8388710022,5.2589221,0.2613815665,2024-06-11 14:43:05.576813
41.61731795,0.6485937834,3.56347084,-0.273498565,2024-06-11 14:43:05.617318
41.65778993,-0.02303566411,-0.4002613127,-1.056045413,2024-06-11 14:43:05.657790
41.69825389,-0.1980001926,0.01504641678,0.3553883731,2024-06-11 14:43:05.698254
41.7387405,0.1573881805,1.207308531,0.9712262154,2024-06-11 14:43:05.738740
41.77920733,-0.06884068251,4.643350601,0.6219629049,2024-06-11 14:43:05.779207
41.8196678,-0.109585844,6.235474586,0.7528534532,2024-06-11 14:43:05.819668
41.86016504,-0.1521951705,5.379027367,0.5476629138,2024-06-11 14:43:05.860165
41.9006353,-1.282407403,2.906621456,0.4576507509,2024-06-11 14:43:05.900635
41.94111337,-2.2311306,0.9065132737,0.3415403366,2024-06-11 14:43:05.941113
41.98157957,-2.274006128,0.1540593207,0.1681736708,2024-06-11 14:43:05.981580
42.02205498,-1.211569428,0.3596493006,0.03967992961,2024-06-11 14:43:06.022055
42.06256228,-0.3255618513,2.873332977,0.1138467789,2024-06-11 14:43:06.062562
42.10301352,-1.774811387,2.755624771,0.2438052148,2024-06-11 14:43:06.103014
42.14356431,-0.7669677734,0.1817553788,0.1844184697,2024-06-11 14:43:06.143564
42.18404217,-0.06351451576,0.02463351376,0.3330184817,2024-06-11 14:43:06.184042
42.22445009,0.8158353567,-0.4932028949,1.153913617,2024-06-11 14:43:06.224450
42.26492795,2.746170759,-0.6553846002,0.709178865,2024-06-11 14:43:06.264928
42.30538873,3.257083178,0.8149032593,-0.5097140074,2024-06-11 14:43:06.305389
42.34587191,2.872400761,1.478676558,-1.981466532,2024-06-11 14:43:06.345872
42.3863441,2.322607517,1.705038667,-1.231941938,2024-06-11 14:43:06.386344
42.42682066,1.315030217,2.363752127,-0.4018591642,2024-06-11 14:43:06.426821
42.46733811,1.134073734,-0.222367391,-0.2910749316,2024-06-11 14:43:06.467338
42.50783118,1.250849843,-1.180411339,0.3002625704,2024-06-11 14:43:06.507831
42.54830561,0.3842828274,-0.2303566486,0.6400718689,2024-06-11 14:43:06.548306
42.58878071,-0.6362104416,-0.3430050313,-0.1874810159,2024-06-11 14:43:06.588781
42.62924436,-1.238732815,-1.352579594,-0.2742975056,2024-06-11 14:43:06.629244
42.66972774,-1.636064768,-2.813812971,-0.235949114,2024-06-11 14:43:06.669728
42.71022629,1.068828225,0.4515256584,-0.08894696087,2024-06-11 14:43:06.710226
42.75072431,-0.3543231487,-0.8770862222,-0.05619104207,2024-06-11 14:43:06.750724
42.79118321,-0.9467258453,2.376135349,-0.3206351399,2024-06-11 14:43:06.791183
42.83166649,-0.687874198,2.181330919,0.2107829899,2024-06-11 14:43:06.831666
42.8721228,-0.8527190089,0.9238233566,0.2909417748,2024-06-11 14:43:06.872123
42.912588,-0.5476629138,0.2155765295,-0.04447348043,2024-06-11 14:43:06.912588
42.95306509,-1.28959775,-1.005446792,-0.1970681101,2024-06-11 14:43:06.953065
42.99355936,-3.160279989,-3.212609529,0.5553858876,2024-06-11 14:43:06.993559
43.03408462,-0.9581770897,-0.8898690343,0.5106461048,2024-06-11 14:43:07.034085
43.07458175,-0.5479292274,2.078802347,0.810642302,2024-06-11 14:43:07.074582
43.11505988,-1.064434052,2.235125303,0.4544550478,2024-06-11 14:43:07.115060
43.15553806,-1.481339693,0.7430000305,0.09027849883,2024-06-11 14:43:07.155538
43.19601623,-1.719951868,-1.913025379,-0.1632469594,2024-06-11 14:43:07.196016
43.23644347,0.4162397981,-2.103968382,-0.1003982127,2024-06-11 14:43:07.236443
43.27689181,0.6308842301,1.31489706,0.1199718714,2024-06-11 14:43:07.276892
43.31738175,1.609300733,-0.1155777797,0.4485962689,2024-06-11 14:43:07.317382
43.35786129,3.917927027,-0.7860088348,-0.1661763489,2024-06-11 14:43:07.357861
43.39830102,2.925928831,2.064687967,-0.756182313,2024-06-11 14:43:07.398301
43.43879519,2.517944574,1.557503819,-1.780403852,2024-06-11 14:43:07.438795
43.47927722,2.259492397,-0.8469933867,-0.8664339185,2024-06-11 14:43:07.479277
43.51977035,1.949243307,-0.4418053925,-1.180810809,2024-06-11 14:43:07.519770
43.56025446,0.7154371142,-0.2394111156,-0.4721645415,2024-06-11 14:43:07.560254
43.60071431,-0.01211702544,-0.7804163694,0.2826862037,2024-06-11 14:43:07.600714
43.64124436,-0.2571206093,0.2390116602,0.5689675808,2024-06-11 14:43:07.641244
43.68171722,-1.367626071,-0.562443018,1.193060994,2024-06-11 14:43:07.681717
43.72216134,-2.302501202,-4.200213909,1.142196059,2024-06-11 14:43:07.722161
43.76263457,1.329410791,-2.647104025,-0.3778914213,2024-06-11 14:43:07.762635
43.80313837,0.7761554122,-0.4332835376,-0.09959928691,2024-06-11 14:43:07.803138
43.84364686,-1.384137154,1.937126279,-0.03621792421,2024-06-11 14:43:07.843647
43.88413202,-0.01051917579,4.487826824,-0.6150389314,2024-06-11 14:43:07.884132
43.92453488,0.6061176062,2.185591936,0.07563154399,2024-06-11 14:43:07.924535
43.96497545,-0.4896077216,0.4568518102,0.6957303286,2024-06-11 14:43:07.964975
44.005453,-1.629673362,-1.262167931,0.5159722567,2024-06-11 14:43:08.005453
44.04593056,-1.881467819,-1.982265472,0.4736292362,2024-06-11 14:43:08.045931
44.08648108,-1.869750261,-1.378944159,1.111570716,2024-06-11 14:43:08.086481
44.12695743,-1.451779485,0.02170412242,0.5585815907,2024-06-11 14:43:08.126957
44.16743493,-1.107043386,0.9829437733,0.603853941,2024-06-11 14:43:08.167435
44.20790353,-1.471220016,0.1159772426,0.3218335211,2024-06-11 14:43:08.207904
44.24837519,-1.366294503,-0.5693670511,0.05033225939,2024-06-11 14:43:08.248375
44.28885576,-1.043395758,-2.250171661,0.0298265256,2024-06-11 14:43:08.288856
44.32933769,0.451126188,0.5691007376,-0.08575125784,2024-06-11 14:43:08.329338
44.36979431,0.9228912592,1.048988223,0.1271621883,2024-06-11 14:43:08.369794
44.4102892,3.38411212,-0.1651111245,-0.4308867455,2024-06-11 14:43:08.410289
44.45078842,4.224447727,-0.8818798065,-0.915967226,2024-06-11 14:43:08.450788
44.49125332,3.147630453,0.834343791,-0.8174331784,2024-06-11 14:43:08.491253
44.53170373,2.302634239,-0.3778914213,-1.6106323,2024-06-11 14:43:08.531704
44.57218165,2.532058954,-0.8488575816,-1.228213668,2024-06-11 14:43:08.572182
44.61268014,2.118615389,-0.1802906841,-0.1571218669,2024-06-11 14:43:08.612680
44.65310785,0.5762910843,-1.343791485,0.4126446545,2024-06-11 14:43:08.653108
44.69368472,0.4979964495,0.7379401922,0.899056673,2024-06-11 14:43:08.693685
44.73417061,-0.6780208349,-2.699566841,1.925675035,2024-06-11 14:43:08.734171
44.77464946,-2.436587334,-6.002188683,2.301968575,2024-06-11 14:43:08.774649
44.81512832,-2.035393953,-7.33506155,2.587584257,2024-06-11 14:43:08.815128
44.85560712,0.2463351339,-5.359719753,0.6270228028,2024-06-11 14:43:08.855607
44.89608592,1.503043771,0.1588528752,-0.768432498,2024-06-11 14:43:08.896086
44.93648952,1.312899709,0.844197154,0.9888025522,2024-06-11 14:43:08.936490
44.97700519,0.213312909,-0.6885399818,0.1878804713,2024-06-11 14:43:08.977005
45.01747764,-0.05499265343,-1.563495755,0.6099790335,2024-06-11 14:43:09.017478
45.05795316,-0.6585803032,-5.749462128,1.480008125,2024-06-11 14:43:09.057953
45.09841868,-0.1974675655,-8.803884506,1.058042645,2024-06-11 14:43:09.098419
45.13889665,0.1161103994,0.1958697289,0.3141105771,2024-06-11 14:43:09.138897
45.17937535,-0.1372819096,2.626997709,0.2624467909,2024-06-11 14:43:09.179375
45.21985665,0.3981308341,-2.228334427,-0.04633763805,2024-06-11 14:43:09.219857
45.2603378,0.5419372916,-1.81915164,-0.3219666779,2024-06-11 14:43:09.260338
45.30078826,0.3896089792,-1.345123053,-0.3035914004,2024-06-11 14:43:09.300788
45.34128248,0.4202344418,-3.801017761,-0.3632444739,2024-06-11 14:43:09.341282
45.38175743,1.151383758,-1.527544141,-0.8821461201,2024-06-11 14:43:09.381757
45.42220905,1.201715946,0.4118457139,-0.3073197305,2024-06-11 14:43:09.422209
45.46273452,0.5627093315,0.2355496585,-0.02902759984,2024-06-11 14:43:09.462735
45.50318118,0.7002575397,-0.6497921348,-0.03861469775,2024-06-11 14:43:09.503181
45.54373696,0.9034507871,-0.9303479195,0.05645735189,2024-06-11 14:43:09.543737
45.58421983,1.090399146,-1.406107545,-0.4780233204,2024-06-11 14:43:09.584220
45.62462056,1.216629267,-1.007310987,-0.7939980626,2024-06-11 14:43:09.624621
45.66506358,0.8749557734,-0.4271584451,-0.4953333437,2024-06-11 14:43:09.665064
45.70554155,0.7282199264,-1.593854904,-0.5897396207,2024-06-11 14:43:09.705542
45.74605493,0.5675029159,-2.315683365,-0.08495233208,2024-06-11 14:43:09.746055
45.78657274,0.01238333434,-0.9196955562,0.2387453467,2024-06-11 14:43:09.786573
45.82707827,-0.9560466409,2.257761478,0.5308855176,2024-06-11 14:43:09.827078
45.86751228,-1.667489171,3.6980896,0.5660381913,2024-06-11 14:43:09.867512
45.9079954,-1.18866694,-1.10850811,0.2422073632,2024-06-11 14:43:09.907995
45.94847123,-1.274950743,-1.733400464,0.3071865737,2024-06-11 14:43:09.948471
45.98894243,-1.857500076,0.2738980353,0.6081148982,2024-06-11 14:43:09.988942
46.02941597,-1.89265275,1.935262084,0.5955983996,2024-06-11 14:43:10.029416
46.06989222,-1.123554587,1.222488046,0.4840152562,2024-06-11 14:43:10.069892
46.11038686,-0.1713693589,-1.117296338,-0.1957365721,2024-06-11 14:43:10.110387
46.15090962,-0.357518822,-7.276207447,-0.656050384,2024-06-11 14:43:10.150910
46.19136769,1.504907966,-4.483698845,0.5053198934,2024-06-11 14:43:10.191368
46.23181441,0.6667027473,2.951094866,-0.08628387749,2024-06-11 14:43:10.231814
46.27229738,0.3651086092,4.675041199,-0.04420717061,2024-06-11 14:43:10.272297
46.312753,0.6298190355,1.24059701,0.2605826259,2024-06-11 14:43:10.312753
46.35326102,0.3009283245,-2.197442532,-0.3059881926,2024-06-11 14:43:10.353261
46.39372722,0.08548495173,-1.208906293,-0.3850817382,2024-06-11 14:43:10.393727
46.4341704,0.06604444981,-1.509435177,-0.6685668826,2024-06-11 14:43:10.434170
46.47469045,1.586398244,-3.08837676,-1.001718521,2024-06-11 14:43:10.474690
46.51516899,1.695584655,-0.8933310509,-1.008109927,2024-06-11 14:43:10.515169
46.55564769,2.866542101,0.1532603949,-0.9327446818,2024-06-11 14:43:10.555648
46.59612707,3.419797421,0.347132802,-1.335003257,2024-06-11 14:43:10.596127
46.63659873,3.637104988,-0.7308830023,-0.625158608,2024-06-11 14:43:10.636599
46.67706733,6.211373806,-3.269333363,-0.1070559174,2024-06-11 14:43:10.677067
46.71755113,4.519917011,-2.332727194,-0.9636363983,2024-06-11 14:43:10.717551
46.75801858,3.932574034,-1.77760756,0.3306216896,2024-06-11 14:43:10.758019
46.79848931,3.700086832,-2.992772102,1.706636429,2024-06-11 14:43:10.798489
46.83897561,0.6408708096,0.8945294023,1.131810069,2024-06-11 14:43:10.838976
46.87947347,-0.7946638465,1.429675817,1.859497428,2024-06-11 14:43:10.879473
46.91995978,-0.4350145459,0.5664376616,2.014621973,2024-06-11 14:43:10.919960
46.96041915,0.3691032529,-1.119959354,1.485866904,2024-06-11 14:43:10.960419
47.00088618,3.044968605,-4.450676918,0.2880123854,2024-06-11 14:43:11.000886
47.04136274,0.3046566546,0.8143706322,1.079347372,2024-06-11 14:43:11.041363
47.08183967,-0.04167724028,1.215564013,1.152315855,2024-06-11 14:43:11.081840
47.12236389,-1.977871418,3.346429586,0.6563166976,2024-06-11 14:43:11.122364
47.1628653,-0.7453967929,1.29998374,0.2528596818,2024-06-11 14:43:11.162865
47.2033253,0.157654494,-1.865489364,0.1380808353,2024-06-11 14:43:11.203325
47.24378269,-0.268838197,-0.906113863,0.418769747,2024-06-11 14:43:11.243783
47.28424113,-0.8362079263,0.00998655986,0.5141080618,2024-06-11 14:43:11.284241
47.32471238,-0.5761579275,-0.7433995008,0.1516625583,2024-06-11 14:43:11.324712
47.36519056,-0.8407351375,-0.4857462645,-0.1411433816,2024-06-11 14:43:11.365191
47.40566509,-0.880415082,0.1793586165,-0.3142437339,2024-06-11 14:43:11.405665
47.44616702,-0.5764242411,-0.1999974996,-0.1946713328,2024-06-11 14:43:11.446167
47.48662785,-0.5170374513,-0.336081028,-0.1059906855,2024-06-11 14:43:11.486628
47.52711879,-0.7552502155,0.06058513001,-0.01917419396,2024-06-11 14:43:11.527119
47.56759774,-0.9067795873,0.6127753258,-0.1475347728,2024-06-11 14:43:11.567598
47.60808488,-0.9619054198,0.4073184729,-0.07856093347,2024-06-11 14:43:11.608085
47.64854222,-0.8577789068,-1.881734133,0.3234313726,2024-06-11 14:43:11.648542
47.68904123,-0.8585777879,-1.479076028,0.02370143496,2024-06-11 14:43:11.689041
47.72949509,-0.9336767197,1.63846159,0.02529928461,2024-06-11 14:43:11.729495
47.76998165,-1.070825458,1.777341247,0.156456098,2024-06-11 14:43:11.769982
47.81047514,-1.114233732,1.016232252,0.3300890923,2024-06-11 14:43:11.810475
47.85093941,-1.200384498,-0.2953358591,0.1087869257,2024-06-11 14:43:11.850939
47.89141056,-1.270689845,-1.066431403,-0.005326164886,2024-06-11 14:43:11.891411
47.93188879,-1.454708815,0.01025286783,0.1924077123,2024-06-11 14:43:11.931889
47.97237738,-2.14351511,2.934850216,0.5426030755,2024-06-11 14:43:11.972377
48.01285743,-1.927805424,2.731124401,0.5492607951,2024-06-11 14:43:12.012857
48.0533079,-1.647249699,2.263886452,0.4267589748,2024-06-11 14:43:12.053308
48.09384577,-1.495986581,1.723946452,0.4746944606,2024-06-11 14:43:12.093846
48.13429899,-1.188134313,1.149386406,0.5069177747,2024-06-11 14:43:12.134299
48.17477743,-0.8950620294,1.223819613,0.5937342644,2024-06-11 14:43:12.174777
48.21525582,-0.5983946323,1.278679132,0.7680330276,2024-06-11 14:43:12.215256
48.25571967,-0.3665733039,1.935528398,0.7749570012,2024-06-11 14:43:12.255720
48.29619806,-0.4342156053,3.375723362,0.2142449915,2024-06-11 14:43:12.296198
48.3366741,-0.2853493094,1.173753619,-0.4354139864,2024-06-11 14:43:12.336674
48.37713379,0.09240896255,-0.1243659556,-0.513974905,2024-06-11 14:43:12.377134
48.41760191,0.4830831885,2.816076756,0.02716344222,2024-06-11 14:43:12.417602
48.45812066,0.4354139864,3.675187111,1.462431788,2024-06-11 14:43:12.458121
48.4985841,0.1568555683,3.930576801,1.162968159,2024-06-11 14:43:12.498584
48.53905983,0.09134373069,3.389038801,0.5625761747,2024-06-11 14:43:12.539060
48.57952462,-0.2131797522,2.696770668,0.3460675776,2024-06-11 14:43:12.579525
48.62002764,-1.427279115,1.834863901,0.1471353173,2024-06-11 14:43:12.620028
48.66050316,-2.497039318,-0.09853405505,0.09706936032,2024-06-11 14:43:12.660503
48.70098868,-2.812082052,-2.003037453,0.1252980381,2024-06-11 14:43:12.700989
48.74145285,-1.497850776,-5.268908978,0.2169080675,2024-06-11 14:43:12.741453
48.78190978,0.2916075289,0.9246222377,-0.2950695455,2024-06-11 14:43:12.781910
48.8224417,-0.6564498544,4.639888763,0.4030575454,2024-06-11 14:43:12.822442
48.86289952,-0.3825518191,1.92753911,0.21264714,2024-06-11 14:43:12.862900
48.90337467,0.7838783264,-0.1925408691,0.0519301109,2024-06-11 14:43:12.903375
48.94385285,1.935661554,-0.9447285533,-0.294803232,2024-06-11 14:43:12.943853
48.9843729,3.627251625,0.9488562942,-0.9692289233,2024-06-11 14:43:12.984373
49.02476608,3.720326424,3.035914183,-1.093328595,2024-06-11 14:43:13.024766
49.06528811,2.90435791,2.547637939,-1.075219631,2024-06-11 14:43:13.065288
49.10576644,1.393324852,1.033276081,-0.4798874855,2024-06-11 14:43:13.105766
49.14624472,1.802374244,0.684412241,-0.294803232,2024-06-11 14:43:13.146245
49.18672217,1.247920513,-0.8097102642,-0.07430000603,2024-06-11 14:43:13.186722
49.22720061,0.2319544852,-1.517424464,0.2089188248,2024-06-11 14:43:13.227201
49.26768254,-0.2557890713,-0.5539211631,0.006924014539,2024-06-11 14:43:13.267683
49.30816149,-0.9603075981,-0.4982627332,0.04687025398,2024-06-11 14:43:13.308161
49.34863269,-2.91727376,-2.846835375,0.8825455308,2024-06-11 14:43:13.348633
49.38906816,0.03022598661,-4.367055893,-0.01837527007,2024-06-11 14:43:13.389068
49.42954587,2.384923697,-0.2761616707,-1.285736203,2024-06-11 14:43:13.429546
49.47005983,-1.125152349,-1.204645395,0.1077216864,2024-06-11 14:43:13.470060
49.5105254,-1.974143147,2.541512728,0.221701622,2024-06-11 14:43:13.510525
49.55102103,-0.6585803032,4.985956192,-0.3304885328,2024-06-11 14:43:13.551021
49.59151452,-1.050319791,1.591591239,0.04367455468,2024-06-11 14:43:13.591515
49.63200311,-1.612363338,-1.796781778,0.04607132822,2024-06-11 14:43:13.632003
49.67248754,-0.9904004335,-1.997977734,0.2102503628,2024-06-11 14:43:13.672488
49.71291696,-1.365229249,-1.503576398,0.6123758554,2024-06-11 14:43:13.712917
49.75341373,-1.419556141,-0.2292914093,0.5457987785,2024-06-11 14:43:13.753414
49.7939267,-0.2113156021,1.50637269,0.6246260405,2024-06-11 14:43:13.793927
49.83437321,-0.4432700872,1.064966679,0.6331478953,2024-06-11 14:43:13.834373
49.87481754,-0.6684337258,0.8418003917,0.3292901516,2024-06-11 14:43:13.874818
49.91529602,-1.015965939,0.5930684805,-0.3384777904,2024-06-11 14:43:13.915296
49.95578472,-1.717022538,-2.187855482,0.03035914153,2024-06-11 14:43:13.955785
49.99627217,-0.08109086752,-3.933372974,-0.1326215118,2024-06-11 14:43:13.996272
50.03676566,0.531817615,0.657248795,-0.2322207987,2024-06-11 14:43:14.036766
50.07725472,0.3339505494,1.23100996,0.2360822707,2024-06-11 14:43:14.077255
50.117723,3.037778378,-0.7149044871,-0.4212996662,2024-06-11 14:43:14.117723
50.15819571,3.843094349,0.1466026902,-0.6989260316,2024-06-11 14:43:14.158196
50.19868868,2.634054899,2.245511293,-0.753785491,2024-06-11 14:43:14.198689
50.2391655,2.230198383,-0.1363498271,-0.7473941445,2024-06-11 14:43:14.239165
50.27963155,2.220078707,-1.170824289,-0.5993267298,2024-06-11 14:43:14.279632
50.32010644,1.75683558,0.4347482324,-0.4924039543,2024-06-11 14:43:14.320106
50.36057649,0.546730876,-0.7306166887,0.1676410437,2024-06-11 14:43:14.360576
50.40102425,0.1187734827,-1.630871773,0.5503259897,2024-06-11 14:43:14.401024
50.44153774,-0.6039870977,-1.219558716,0.8609746099,2024-06-11 14:43:14.441538
50.48203077,-3.018870354,-4.011933804,1.21649611,2024-06-11 14:43:14.482031
50.52249952,-0.2728328109,-7.16728735,-0.4271584451,2024-06-11 14:43:14.522500
50.56298998,2.509422779,-2.462152958,-1.319291115,2024-06-11 14:43:14.562990
50.60350149,-1.218227148,2.121411562,0.6999912262,2024-06-11 14:43:14.603501
50.64391274,-1.54418838,5.731752396,0.6033213735,2024-06-11 14:43:14.643913
50.68435165,0.7274209857,4.550675392,0.3476654291,2024-06-11 14:43:14.684352
50.72484347,0.9452611804,1.674679518,0.8383383751,2024-06-11 14:43:14.724843
50.76532602,-0.2712349594,-1.165231824,0.7611089945,2024-06-11 14:43:14.765326
50.80583931,-1.353245378,-1.518489718,0.1599181145,2024-06-11 14:43:14.805839
50.84633759,-1.746582747,-0.5390079021,0.5239614844,2024-06-11 14:43:14.846338
50.8868067,-1.939522982,0.142874375,0.4493951797,2024-06-11 14:43:14.886807
50.92728571,-2.505028725,-1.280143738,0.2563216984,2024-06-11 14:43:14.927286
50.96774936,-2.408891439,-3.390237331,0.1884130985,2024-06-11 14:43:14.967749
51.00825702,-0.1436733007,-3.376655579,-0.2535254657,2024-06-11 14:43:15.008257
51.04872384,-0.6519225836,2.574801445,0.1063901484,2024-06-11 14:43:15.048724
51.08917191,-0.2456693649,3.357880831,0.04607132822,2024-06-11 14:43:15.089172
51.12967644,0.3640433848,1.308771968,-0.07989247888,2024-06-11 14:43:15.129676
51.17014665,0.414375633,0.07390054315,0.03382114694,2024-06-11 14:43:15.170147
51.2106178,-0.2142449915,-1.38054204,0.4709661603,2024-06-11 14:43:15.210618
51.25115873,0.01584534161,-2.635652781,0.5737611651,2024-06-11 14:43:15.251159
51.29163493,2.194246769,-5.45825386,-0.9700278044,2024-06-11 14:43:15.291635
51.33205389,3.389971018,-0.8885374665,-2.058962345,2024-06-11 14:43:15.332054
51.37254327,2.566679001,2.939643621,-1.31449759,2024-06-11 14:43:15.372543
51.41295363,1.85110867,2.543643236,-0.1368824393,2024-06-11 14:43:15.412954
51.45350743,1.536066055,-0.1392792165,0.1868152469,2024-06-11 14:43:15.453507
51.49402863,1.790390372,-2.594375134,0.4675041437,2024-06-11 14:43:15.494029
51.53440254,1.442059159,-2.62073946,0.2350170314,2024-06-11 14:43:15.534403
51.57488056,0.5584484339,-1.466026902,0.5388747454,2024-06-11 14:43:15.574881
51.61535858,-0.5181027055,-0.5794867873,0.7927996516,2024-06-11 14:43:15.615359
51.65585696,-1.438197732,-0.6877411008,0.8870728016,2024-06-11 14:43:15.655857
51.69637915,-1.716223598,-3.405416727,0.9459269047,2024-06-11 14:43:15.696379
51.73685748,1.528609395,-8.775123596,-0.5740274191,2024-06-11 14:43:15.736857
51.77730681,0.5714974999,-0.05685681105,-0.5977289081,2024-06-11 14:43:15.777307
51.81778946,-0.6410039663,6.637466908,0.07270215452,2024-06-11 14:43:15.817789
51.85830108,0.2588516176,2.071878195,-0.148067385,2024-06-11 14:43:15.858301
51.89875774,0.6549851298,-2.527531624,-0.0977351293,2024-06-11 14:43:15.898758
51.93922561,-0.8495233655,-1.494788289,-0.0298265256,2024-06-11 14:43:15.939226
51.97969436,-1.922479272,-1.048056126,-0.04021254554,2024-06-11 14:43:15.979694
52.02018504,3.118602753,-0.04434032366,-1.172821522,2024-06-11 14:43:16.020185
52.06067228,3.474124432,2.838712931,-1.656703711,2024-06-11 14:43:16.060672
52.10116472,1.691057444,-0.6647053957,-1.085871935,2024-06-11 14:43:16.101165
52.14163863,0.2700365782,-0.5600462556,-1.111437559,2024-06-11 14:43:16.141639
52.18208368,-0.04567186534,-0.2884118557,-1.390661716,2024-06-11 14:43:16.182084
52.22259457,-0.02916075476,-0.6284874678,-0.6904041767,2024-06-11 14:43:16.222595
52.26306993,0.8003894687,-1.237401366,-1.075485945,2024-06-11 14:43:16.263070
52.303583,0.05352795869,-0.9657669067,-0.826753974,2024-06-11 14:43:16.303583
52.34405582,-1.503709555,-0.2572537661,0.02929390781,2024-06-11 14:43:16.344056
52.38447967,-2.465881348,-0.7796174288,1.152315855,2024-06-11 14:43:16.384480
52.42491915,-1.271755099,-1.261102796,1.436067224,2024-06-11 14:43:16.424919
52.46541884,-0.363910228,0.1221023351,-1.026218891,2024-06-11 14:43:16.465419
52.5058966,-3.494496822,6.526017189,0.3567199111,2024-06-11 14:43:16.505897
52.54638603,-3.343233824,5.710181713,0.5652392507,2024-06-11 14:43:16.546386
52.58689337,-1.318625331,0.2661750913,0.2118482143,2024-06-11 14:43:16.586893
52.62737592,-1.479741812,-5.849327564,-0.7268883586,2024-06-11 14:43:16.627376
52.66784941,-2.959883213,-1.545120478,0.3700353205,2024-06-11 14:43:16.667849
52.70833972,-4.927368641,-0.3741630912,1.824611068,2024-06-11 14:43:16.708340
52.74879337,-3.021267176,-4.428573132,0.1071890742,2024-06-11 14:43:16.748793
52.78926405,0.8376725912,-5.963573933,-0.5428693891,2024-06-11 14:43:16.789264
52.8297404,-1.253379822,1.435534596,2.015953541,2024-06-11 14:43:16.829740
52.87022061,-0.2065220475,7.384594917,1.484535336,2024-06-11 14:43:16.870221
52.91070733,3.308746815,4.461195946,3.469996691,2024-06-11 14:43:16.910707
52.95118155,7.033067703,2.349371433,3.206351519,2024-06-11 14:43:16.951182
52.99165441,5.230560303,1.569487691,1.46482861,2024-06-11 14:43:16.991654
53.03214545,4.247350216,-8.173666,0.8125064969,2024-06-11 14:43:17.032145
53.07263566,10.72756195,-12.59691334,-2.330330372,2024-06-11 14:43:17.072636
53.11310644,2.10609889,3.307814837,-3.444564104,2024-06-11 14:43:17.113106
53.153573,1.179079771,-1.581604719,-1.233007193,2024-06-11 14:43:17.153573
53.19402587,1.358438373,-0.3272928596,-0.3672390878,2024-06-11 14:43:17.194026
53.23453212,0.9702941179,-2.086391926,1.04579258,2024-06-11 14:43:17.234532
53.275008,-0.3159747422,-2.999429941,1.905835032,2024-06-11 14:43:17.275008
53.31548108,-0.5834813714,-3.221397877,2.742841959,2024-06-11 14:43:17.315481
53.35595967,-1.495986581,-2.892906666,3.081852198,2024-06-11 14:43:17.355960
53.39642347,-1.385735035,-3.399558067,1.901307821,2024-06-11 14:43:17.396423
53.43692691,6.071961403,0.9318125844,0.4163729548,2024-06-11 14:43:17.436927
53.47741936,3.64615941,-5.810979366,2.030600548,2024-06-11 14:43:17.477419
53.51788066,-1.987192154,3.152290821,-0.955380857,2024-06-11 14:43:17.517881
53.55834952,0.7346113324,1.66961956,0.1639127284,2024-06-11 14:43:17.558350
53.59883905,-1.626211405,3.258814096,-0.4095821083,2024-06-11 14:43:17.598839
53.63933191,-0.3633776009,0.5816172361,0.2491313666,2024-06-11 14:43:17.639332
53.67979722,-1.207308531,-0.8083786964,-0.116643019,2024-06-11 14:43:17.679797
53.72028681,-1.346587658,-0.05392742157,0.1516625583,2024-06-11 14:43:17.720287
53.76077149,-1.507970452,-0.4764254689,0.6941324472,2024-06-11 14:43:17.760771
53.80126061,-0.9733566642,-1.74644959,0.8689638376,2024-06-11 14:43:17.801261
53.84171728,-0.8138380051,-2.798367262,0.8929315805,2024-06-11 14:43:17.841717
53.88217415,-0.7872071862,-2.365483046,0.4227643609,2024-06-11 14:43:17.882174
53.92264889,-0.9682968259,-0.6965292692,-0.3768261969,2024-06-11 14:43:17.922649
53.96312894,-0.238479048,-0.332885325,-0.226894632,2024-06-11 14:43:17.963129
54.00366571,0.06657706201,-1.852706552,-0.04473978654,2024-06-11 14:43:18.003666
54.04412363,0.5011921525,-1.994249344,0.001597849536,2024-06-11 14:43:18.044124
54.08457754,0.8094439507,-2.252568483,0.3673722446,2024-06-11 14:43:18.084578
54.12505613,1.034208059,-2.110892296,0.7991910577,2024-06-11 14:43:18.125056
54.16555149,1.125818133,-1.564294696,1.108641267,2024-06-11 14:43:18.165551
54.20603009,2.460288763,-5.095808506,-0.8605751395,2024-06-11 14:43:18.206030
54.24648467,3.052158833,-4.483166218,-1.514761329,2024-06-11 14:43:18.246485
54.28696144,3.89742136,-0.1717688292,-0.8792167306,2024-06-11 14:43:18.286961
54.32745478,2.100239992,0.2400768995,-0.9577776194,2024-06-11 14:43:18.327455
54.36793134,-0.492537111,1.76389277,0.1758965999,2024-06-11 14:43:18.367931
54.40840993,-0.7866745591,1.92088151,0.8966599107,2024-06-11 14:43:18.408410
54.44890077,-0.3295564651,0.385214895,0.6725615263,2024-06-11 14:43:18.448901
54.48939191,-1.236868739,-0.9588428736,0.2123808414,2024-06-11 14:43:18.489392
54.52986295,-2.149640322,1.792520881,-0.3696358502,2024-06-11 14:43:18.529863
54.57031884,-1.950175405,5.897928715,-0.1717688292,2024-06-11 14:43:18.570319
54.61078806,-0.3106485903,3.080387592,-0.9130378366,2024-06-11 14:43:18.610788
54.65127082,0.677355051,0.2142449915,-1.237800717,2024-06-11 14:43:18.651271
54.69174728,-1.823945284,1.013302922,-1.065366149,2024-06-11 14:43:18.691747
54.73225571,-0.2414084375,3.644561529,-0.3195699155,2024-06-11 14:43:18.732256
54.77271649,-0.277892679,2.257495165,-0.5947995186,2024-06-11 14:43:18.772716
54.81322649,-0.3817528784,4.26492691,-1.097855806,2024-06-11 14:43:18.813226
54.8537129,0.7378070354,3.40235424,-1.392792225,2024-06-11 14:43:18.853713
54.89419675,2.466547012,0.6479279995,-2.895835876,2024-06-11 14:43:18.894197
54.9345966,3.276257277,1.443790197,-4.366789818,2024-06-11 14:43:18.934597
54.97507952,0.7146382332,0.9568455815,-2.256296635,2024-06-11 14:43:18.975080
55.01559368,1.013436079,-0.6733604074,-0.6813496947,2024-06-11 14:43:19.015594
55.05607222,1.586930871,-1.905835032,-0.5189016461,2024-06-11 14:43:19.056072
55.09655394,2.301835299,-2.03259778,-0.2647103965,2024-06-11 14:43:19.096554
55.13704837,0.608248055,-0.4652405083,0.4496614933,2024-06-11 14:43:19.137048
55.17746071,-1.199319243,-0.4966649115,0.844197154,2024-06-11 14:43:19.177461
55.2179955,-2.365616322,-0.7149044871,1.039401174,2024-06-11 14:43:19.217996
55.25845842,-1.965354919,-0.4977301359,0.6509905457,2024-06-11 14:43:19.258458
55.29893827,-0.7384728193,-1.546452045,0.5431357026,2024-06-11 14:43:19.298938
55.33943102,0.349662751,-2.947499752,0.4310199022,2024-06-11 14:43:19.339431
55.37990832,-0.01691057347,-1.31742692,1.829404593,2024-06-11 14:43:19.379908
55.42034754,-0.08987903595,0.4376776218,1.364163995,2024-06-11 14:43:19.420348
55.46084894,0.8222267628,0.0352858454,0.4440690279,2024-06-11 14:43:19.460849
55.50134217,0.6231613159,1.517823935,-0.2466014475,2024-06-11 14:43:19.501342
55.54181306,0.7756227851,1.972278953,0.003462007269,2024-06-11 14:43:19.541813
55.58229613,0.8294170499,0.08694964647,0.6792191863,2024-06-11 14:43:19.582296
55.62275993,-0.4352808297,1.092130184,1.256708622,2024-06-11 14:43:19.622760
55.66317998,-0.5808182955,-0.01611164957,2.174407005,2024-06-11 14:43:19.663180
55.70377728,0.2298240215,-0.6781539917,2.003170729,2024-06-11 14:43:19.703777
55.74424941,-0.2379464209,-1.91009593,1.412099481,2024-06-11 14:43:19.744249
55.78462019,-0.4299546778,-1.223286986,1.527410984,2024-06-11 14:43:19.784620
55.8251617,-0.5079829693,-0.6784203053,0.8705616593,2024-06-11 14:43:19.825162
55.86563545,-0.7792179585,0.3055887222,0.2243647128,2024-06-11 14:43:19.865635
55.90608686,-1.071890712,0.7789516449,-0.3808208108,2024-06-11 14:43:19.906087
55.94656972,-1.317560077,0.7512555718,-0.9836095572,2024-06-11 14:43:19.946570
55.98705681,0.9234238863,0.9579107761,-1.084806681,2024-06-11 14:43:19.987057
56.02753889,0.5640408993,-2.51022172,-0.3334179223,2024-06-11 14:43:20.027539
56.06801884,-0.4592485726,1.204645395,-0.5014584661,2024-06-11 14:43:20.068019
56.10849186,1.204379082,-0.8416672349,-0.6794854999,2024-06-11 14:43:20.108492
56.14898431,-0.2014621943,0.2256962508,-0.9641690254,2024-06-11 14:43:20.148984
56.18949342,-0.5375432372,1.973077893,-0.58894068,2024-06-11 14:43:20.189493
56.22994217,-0.3500621915,0.1516625583,-0.4822842479,2024-06-11 14:43:20.229942
56.27041936,0.24234052,-0.860308826,-0.9015865922,2024-06-11 14:43:20.270419
56.31090576,-1.198786616,0.4302209914,-0.4929365814,2024-06-11 14:43:20.310906
56.35137222,-2.541246414,2.254832029,0.5452661514,2024-06-11 14:43:20.351372
56.39183358,-2.902360439,2.514882088,1.869350791,2024-06-11 14:43:20.391834
56.43231618,-1.365495563,-1.10105145,2.075340271,2024-06-11 14:43:20.432316
56.47279514,-0.2707023323,-7.698705196,-0.5197005868,2024-06-11 14:43:20.472795
56.51328795,1.160970807,-5.437748432,-2.837780714,2024-06-11 14:43:20.513288
56.55382566,2.265883684,4.481169224,-0.5146406889,2024-06-11 14:43:20.553826
56.59427353,1.568022966,6.967955589,-0.4697677493,2024-06-11 14:43:20.594274
56.63469186,-0.3814865649,7.808824062,-1.222088575,2024-06-11 14:43:20.634692
56.6751753,-2.785717487,7.700969219,-1.42501545,2024-06-11 14:43:20.675175
56.71565905,-4.955330849,6.203251362,-1.890655518,2024-06-11 14:43:20.715659
56.75616269,-6.452516079,3.516334295,-1.39092803,2024-06-11 14:43:20.756163
56.7966892,-5.338016033,1.237401366,-0.2892107666,2024-06-11 14:43:20.796689
56.83714592,-1.678407788,0.3862801194,-0.7223611474,2024-06-11 14:43:20.837146
56.87759379,-1.314630747,1.471752524,-1.349650264,2024-06-11 14:43:20.877594
56.9180666,-2.82007122,2.029002666,-0.4202344418,2024-06-11 14:43:20.918067
56.95854478,-4.346949577,-2.484789133,-0.9505873322,2024-06-11 14:43:20.958545
56.99903405,1.986792803,-6.061042786,0.07536523789,2024-06-11 14:43:20.999034
57.03952144,0.1083874628,7.576602936,-0.04687025398,2024-06-11 14:43:21.039521
57.0799804,-1.089200735,3.825118542,0.4280905128,2024-06-11 14:43:21.079980
57.12045837,-0.4296883643,-1.030479789,1.078015804,2024-06-11 14:43:21.120458
57.16094175,0.07749570161,-0.09746882319,0.8937305212,2024-06-11 14:43:21.160942
57.2014204,0.05725627393,0.5050535798,-0.02423405088,2024-06-11 14:43:21.201420
57.24189306,-0.37296471,-1.310236573,0.00186415785,2024-06-11 14:43:21.241893
57.28236748,-0.09786828607,-1.451912642,0.3181052208,2024-06-11 14:43:21.282367
57.3228554,0.5379426479,1.127016544,-0.1600512564,2024-06-11 14:43:21.322855
57.36336155,0.1829537749,2.993571043,0.2065220475,2024-06-11 14:43:21.363362
57.40375186,0.07563154399,3.242036819,0.3902747631,2024-06-11 14:43:21.403752
57.44427738,0.05432688445,2.582790613,0.3061213493,2024-06-11 14:43:21.444277
57.48474696,-0.07869409025,1.295989156,-0.2071878165,2024-06-11 14:43:21.484747
57.52520931,-0.1170424819,-0.6513900161,-0.4135767221,2024-06-11 14:43:21.525209
57.56572425,-0.5575163364,-1.387199759,-0.2386122048,2024-06-11 14:43:21.565724
57.60622665,-1.57534647,-3.022865057,0.05858781561,2024-06-11 14:43:21.606227
57.64668342,0.1520620137,-3.42352581,-0.03408745676,2024-06-11 14:43:21.646683
57.68715847,0.4268921316,2.443511486,-0.02503297664,2024-06-11 14:43:21.687158
57.72763962,0.08974587917,2.911947727,-0.1746982187,2024-06-11 14:43:21.727640
57.76812743,1.179612398,2.43632102,-0.3648423254,2024-06-11 14:43:21.768127
57.8085855,3.263474464,-3.122064829,-0.9362066984,2024-06-11 14:43:21.808585
57.84909196,5.882882595,-0.7165023685,-0.805449307,2024-06-11 14:43:21.849092
57.88955889,5.770766735,1.387066603,-1.796382308,2024-06-11 14:43:21.889559
57.93003748,3.993824959,-0.9149020314,-2.23073101,2024-06-11 14:43:21.930037
57.97050717,2.097310781,4.280106068,-0.9236901999,2024-06-11 14:43:21.970507
58.01096764,-0.3218335211,1.532737136,0.3993292153,2024-06-11 14:43:22.010968
58.051468,0.4431369305,-2.519808769,1.957365632,2024-06-11 14:43:22.051468
58.09194363,-0.4446016252,-2.981587172,1.755370855,2024-06-11 14:43:22.091944
58.13241493,2.436853647,-7.342517853,0.9187634587,2024-06-11 14:43:22.132415
58.17289337,5.211386204,-5.235087872,0.6640396118,2024-06-11 14:43:22.172893
58.21336748,-2.727928638,5.053065777,1.335669041,2024-06-11 14:43:22.213367
58.25388806,-1.84365201,2.003969669,3.020867586,2024-06-11 14:43:22.253888
58.29431957,-1.295456529,1.227547884,4.053344727,2024-06-11 14:43:22.294320
58.33479795,0.009187635034,-2.658288956,2.709819555,2024-06-11 14:43:22.334798
58.37527639,-0.7083799839,-3.441900969,1.393191695,2024-06-11 14:43:22.375276
58.41571686,-0.3849485815,-1.671883225,2.091585159,2024-06-11 14:43:22.415717
58.45624332,-0.3745625615,-3.465602398,2.132330179,2024-06-11 14:43:22.456243
58.4967379,-0.5503259897,-4.011401176,1.16456604,2024-06-11 14:43:22.496738
58.53718639,-0.9342093468,-3.224327326,-0.01304910425,2024-06-11 14:43:22.537186
58.57771165,-0.2123808414,-3.590767384,-0.3003957272,2024-06-11 14:43:22.577712
58.61817832,1.546185732,-3.702350616,-0.03595161438,2024-06-11 14:43:22.618178
58.65866326,2.375070095,-3.058816671,-0.3957340717,2024-06-11 14:43:22.658663
58.69910066,3.501820326,-2.782921314,-0.6749582887,2024-06-11 14:43:22.699101
58.73961712,3.677051306,-3.111945152,-0.7884055972,2024-06-11 14:43:22.739617
58.78006561,1.981200218,0.4272916019,-0.1491326243,2024-06-11 14:43:22.780066
58.82056806,0.1384802908,0.8668333888,0.7954627872,2024-06-11 14:43:22.820568
58.86104425,-1.80210793,-0.08362079412,-0.03115806542,2024-06-11 14:43:22.861044
58.90151389,-2.397839546,-1.20650959,0.3058550358,2024-06-11 14:43:22.901514
58.94199274,-2.908751965,-0.3901416063,0.5122439265,2024-06-11 14:43:22.941993
58.98246108,-2.540714025,-0.9441959262,-0.1065233052,2024-06-11 14:43:22.982461
59.02295248,-2.278799772,-1.606637716,-0.01011971384,2024-06-11 14:43:23.022952
59.06343472,-3.047898054,-0.659911871,0.5492607951,2024-06-11 14:43:23.063435
59.10394608,-3.542432308,1.07322228,0.7251573801,2024-06-11 14:43:23.103946
59.14443123,-2.617943287,2.100373268,0.6704310179,2024-06-11 14:43:23.144431
59.1848254,2.22860074,0.4805532396,-0.3587172329,2024-06-11 14:43:23.184825
59.22530326,0.1251648813,-0.7591117024,-0.2599168718,2024-06-11 14:43:23.225303
59.26581004,-0.6378082633,2.716477394,-0.4439358711,2024-06-11 14:43:23.265810
59.30629202,0.7364754677,-0.2069215178,-0.5207657814,2024-06-11 14:43:23.306292
59.34678087,0.1214365661,-1.755237699,-0.0,2024-06-11 14:43:23.346781
59.38722988,0.06817491353,-0.1201050207,0.2177069932,2024-06-11 14:43:23.387230
59.42769332,0.1794917583,-0.4641752839,-0.317972064,2024-06-11 14:43:23.427693
59.46821702,-0.05499265343,-0.1813559234,-0.5918700695,2024-06-11 14:43:23.468217
59.50869978,-0.03448691964,0.5667039752,-0.3027924895,2024-06-11 14:43:23.508700
59.54916785,0.1786928326,0.1029281393,-0.2455362082,2024-06-11 14:43:23.549168
59.58965342,-0.0166442655,-0.8563141823,0.09733566642,2024-06-11 14:43:23.589653
59.63013358,0.03834838793,-1.622882485,0.03462007269,2024-06-11 14:43:23.630134
59.67061467,-0.02889444493,-1.000386953,-0.002929390874,2024-06-11 14:43:23.670615
59.71108175,0.1307573467,-1.186270118,0.1761629134,2024-06-11 14:43:23.711082
59.75156149,0.3802881837,-1.362699389,0.3450023532,2024-06-11 14:43:23.751561
59.79204264,0.9937292337,-1.266428947,0.37296471,2024-06-11 14:43:23.792043
59.83253139,1.742987514,-1.34192729,0.221701622,2024-06-11 14:43:23.832531
59.87299019,2.802095413,-2.415016413,-0.7007901669,2024-06-11 14:43:23.872990
59.91347941,4.01619482,-2.273340464,-0.6459306479,2024-06-11 14:43:23.913479
59.95396967,3.158815384,0.7163692117,-0.5298202634,2024-06-11 14:43:23.953970
59.99444233,2.121012211,1.437132478,-0.4159734845,2024-06-11 14:43:23.994442
60.03486228,1.584800482,0.08481918275,-1.188267469,2024-06-11 14:43:24.034862
60.07534207,2.121544838,-3.265338659,-0.8014547229,2024-06-11 14:43:24.075342
60.11582321,0.1983996481,1.790922999,0.09107742459,2024-06-11 14:43:24.115823
60.15629535,-1.526878357,1.543123245,1.173354149,2024-06-11 14:43:24.156295
60.19681259,-0.4214328229,-0.4761591554,0.5833482146,2024-06-11 14:43:24.196813
60.23730118,0.6282211542,-0.0820229426,-0.1728340536,2024-06-11 14:43:24.237301
60.27777967,-1.747647882,0.672162056,0.3625786901,2024-06-11 14:43:24.277780
60.31826915,-1.467491627,0.6615096927,1.809964061,2024-06-11 14:43:24.318269
60.35872248,-2.875197172,3.662404299,0.5434020162,2024-06-11 14:43:24.358722
60.39918639,-2.71168375,6.897916317,0.2834851444,2024-06-11 14:43:24.399186
60.4396928,-1.87188077,3.290771008,-0.2458025217,2024-06-11 14:43:24.439693
60.48015967,-1.370555401,1.099853039,-0.7303503752,2024-06-11 14:43:24.480160
60.52066795,-0.9744219184,0.9158340693,-0.2620473206,2024-06-11 14:43:24.520668
60.56113478,-1.186136961,0.5247604251,-0.9742887616,2024-06-11 14:43:24.561135
60.60160373,-2.898632288,0.9744219184,-0.8517869711,2024-06-11 14:43:24.601604
60.64211566,-0.9624380469,3.542964935,0.5465977192,2024-06-11 14:43:24.642116
60.68256566,-0.6178351641,0.6527215242,0.150597319,2024-06-11 14:43:24.682566
60.72302571,0.583747685,1.527943611,0.1617822647,2024-06-11 14:43:24.723026
60.76350889,2.20410037,4.680634022,0.7451304793,2024-06-11 14:43:24.763509
60.80401587,3.500755072,2.510354757,0.5868102312,2024-06-11 14:43:24.804016
60.84452108,3.674121857,-1.582936287,0.8255556226,2024-06-11 14:43:24.844521
60.88495707,-0.3543231487,3.829645872,-1.86855185,2024-06-11 14:43:24.884957
60.92541082,0.6346125603,1.293059707,-0.06098458916,2024-06-11 14:43:24.925411
60.96587972,0.7583127618,-0.710909903,-0.7761554122,2024-06-11 14:43:24.965880
61.00635326,1.085605621,-2.405695677,-1.715025187,2024-06-11 14:43:25.006353
61.04682931,0.2007964253,-1.225151181,-1.404509783,2024-06-11 14:43:25.046829
61.08732545,-0.8431319594,-0.05579157919,-1.280410051,2024-06-11 14:43:25.087325
61.1278329,-1.179212928,2.290783644,-0.8983908892,2024-06-11 14:43:25.127833
61.16831118,-1.504774809,1.9104954,-0.4079842567,2024-06-11 14:43:25.168311
61.20878795,0.7519213557,0.176429227,-0.8464608192,2024-06-11 14:43:25.208788
61.24925384,-0.6908035874,2.580660105,-0.02236989327,2024-06-11 14:43:25.249254
61.28971905,-0.9648348093,0.3450023532,-0.05352795869,2024-06-11 14:43:25.289719
61.33022196,-0.7437989712,1.40464294,-0.2804225981,2024-06-11 14:43:25.330222
61.37066717,-0.220370084,-0.05232957378,-1.040865779,2024-06-11 14:43:25.370667
