Time (s),Linear Acceleration x (m/s^2),Linear Acceleration y (m/s^2),Linear Acceleration z (m/s^2),Datetime
0.052048184,0.0,0.0,0.0,2024-06-11 14:42:24.052048
0.092510476,-0.8081843853,-0.06141424179,0.2791900635,2024-06-11 14:42:24.092510
0.168109018,-0.7264232635,-0.2578282356,0.1548900604,2024-06-11 14:42:24.168109
0.208533861,-0.527534008,-0.9986612797,-3.152579308,2024-06-11 14:42:24.208534
0.249009591,-0.1857751608,-0.8276367188,-0.5152425766,2024-06-11 14:42:24.249010
0.289558341,0.5125982761,-1.1599195,3.694386482,2024-06-11 14:42:24.289558
0.329966153,-0.7196398377,-0.8303880692,0.494427681,2024-06-11 14:42:24.329966
0.37041808,0.1172932684,-2.461522579,0.5603303909,2024-06-11 14:42:24.370418
0.410962299,1.931825757,-1.977815628,0.9892377853,2024-06-11 14:42:24.410962
0.451382559,1.536138892,-0.9669314623,0.211643219,2024-06-11 14:42:24.451383
0.491884799,0.8474186063,-3.006603241,-1.380596161,2024-06-11 14:42:24.491885
0.532362403,2.159343719,-2.654247284,0.7895555496,2024-06-11 14:42:24.532362
0.572826674,2.559628248,-1.161015391,-6.089063168,2024-06-11 14:42:24.572827
0.613356466,1.941567898,0.5069110394,-4.242793083,2024-06-11 14:42:24.613356
0.653791934,2.969667435,-0.5527260303,3.82365799,2024-06-11 14:42:24.653792
0.694239486,2.142886162,-1.148036599,-1.750590801,2024-06-11 14:42:24.694239
0.734722768,-4.449477196,2.682674646,-6.83128643,2024-06-11 14:42:24.734723
0.775224486,-0.3373458087,0.3859788179,1.608078003,2024-06-11 14:42:24.775224
0.815678445,0.4455569983,2.315501451,3.402448654,2024-06-11 14:42:24.815678
0.856190528,1.06443882,0.8579325676,3.13248539,2024-06-11 14:42:24.856191
0.896674591,3.522400141,-2.201997519,-2.427717209,2024-06-11 14:42:24.896675
0.937123757,-3.685945988,0.06450521946,0.6316671371,2024-06-11 14:42:24.937124
0.977601205,0.7697944641,-0.4338300228,1.753781319,2024-06-11 14:42:24.977601
1.018123705,2.853098392,-2.091797352,0.6451950073,2024-06-11 14:42:25.018124
1.058584955,-1.737298608,-1.467454553,-3.612474442,2024-06-11 14:42:25.058585
1.099042507,3.445268393,2.376304388,-5.953369141,2024-06-11 14:42:25.099043
1.139566622,0.7532787323,0.5592741966,-2.620898247,2024-06-11 14:42:25.139567
1.18000183,0.6701567173,1.446563125,-5.209298134,2024-06-11 14:42:25.180002
1.220484122,0.2309868336,-0.1152843237,-1.733901024,2024-06-11 14:42:25.220484
1.260966101,0.1500585079,-1.569262981,-3.158638477,2024-06-11 14:42:25.260966
1.301440528,-2.416739464,-3.468159676,-6.105951309,2024-06-11 14:42:25.301441
1.341900111,-1.46235919,-5.300116539,-6.377475739,2024-06-11 14:42:25.341900
1.382384226,-0.07020735741,-5.752896786,-4.80874157,2024-06-11 14:42:25.382384
1.422894018,-1.778543711,-8.590957642,2.025069714,2024-06-11 14:42:25.422894
1.46334933,0.9718368053,-6.480405807,7.174355507,2024-06-11 14:42:25.463349
1.503826882,-0.6517476439,-6.212293148,10.61061859,2024-06-11 14:42:25.503827
1.544317924,-0.9842697382,-4.802314758,11.88060379,2024-06-11 14:42:25.544318
1.584780216,1.160809755,-1.657442093,12.33686161,2024-06-11 14:42:25.584780
1.625255372,-3.656155586,-2.352483749,11.47182274,2024-06-11 14:42:25.625255
1.66573657,7.104903221,4.519650459,5.106969833,2024-06-11 14:42:25.665737
1.706207299,-0.03438520432,2.317507267,0.6843481064,2024-06-11 14:42:25.706207
1.746688705,1.61123848,3.423492193,-2.685342073,2024-06-11 14:42:25.746689
1.787182039,1.3764925,2.837061882,-2.902470112,2024-06-11 14:42:25.787182
1.827652664,-1.347448349,0.2294249535,1.182826996,2024-06-11 14:42:25.827653
1.868125268,1.548171997,2.964942217,1.968621731,2024-06-11 14:42:25.868125
1.908594695,-2.209309578,-0.8610601425,3.275003433,2024-06-11 14:42:25.908595
1.949086257,-2.378596783,-2.215383053,1.845919132,2024-06-11 14:42:25.949086
1.989592976,-4.342875957,-5.172428131,-3.256108284,2024-06-11 14:42:25.989593
2.030048966,8.246290207,-0.5089855194,-5.453970432,2024-06-11 14:42:26.030049
2.07050407,5.87404871,-1.045380592,-3.783401966,2024-06-11 14:42:26.070504
2.110961518,1.08579874,1.123192787,-2.687182426,2024-06-11 14:42:26.110962
2.151443393,0.9561595917,4.150330544,2.238617897,2024-06-11 14:42:26.151443
2.191920216,-2.785758972,3.043768883,0.816321373,2024-06-11 14:42:26.191920
2.232408184,0.009720802307,2.153567076,0.861325264,2024-06-11 14:42:26.232408
2.272890841,1.978233337,1.802708149,0.5738248825,2024-06-11 14:42:26.272891
2.313372091,0.1120262146,1.121492624,0.6511445045,2024-06-11 14:42:26.313372
2.353852455,0.6893382072,1.124298573,0.07244873047,2024-06-11 14:42:26.353852
2.394366101,-1.322832584,-0.01094102859,-1.016812801,2024-06-11 14:42:26.394366
2.43482558,-2.012560844,-2.071015358,2.743828773,2024-06-11 14:42:26.434826
2.475295528,-1.306891918,-1.915569782,-1.076001167,2024-06-11 14:42:26.475296
2.515779799,-0.3192658424,-3.057799816,-1.266870499,2024-06-11 14:42:26.515780
2.556249955,4.581633568,-2.074028015,-1.392622232,2024-06-11 14:42:26.556250
2.596757611,-0.9679646492,-2.824629784,0.5558223724,2024-06-11 14:42:26.596758
2.637250007,-0.113503933,-0.7996134758,-0.2456505299,2024-06-11 14:42:26.637250
2.677675945,1.104963303,0.4979791641,0.7968866825,2024-06-11 14:42:26.677676
2.718144434,1.434985161,1.495254755,-1.7176615,2024-06-11 14:42:26.718144
2.758618289,1.03706646,2.627637148,1.074897051,2024-06-11 14:42:26.758618
2.799127716,-0.1234178543,3.30920887,0.1287207603,2024-06-11 14:42:26.799128
2.839581934,1.818785191,4.126129627,3.794722319,2024-06-11 14:42:26.839582
2.880043497,-1.357665062,0.5726940632,-1.92873323,2024-06-11 14:42:26.880043
2.920503549,0.2988395691,0.2427515984,0.225714922,2024-06-11 14:42:26.920504
2.960963601,0.08938217163,-0.2330629826,-0.3390302658,2024-06-11 14:42:26.960964
3.001538445,-0.2840890884,-1.000713348,-0.8180551529,2024-06-11 14:42:27.001538
3.042001257,1.473387241,-0.05446243286,0.1058778763,2024-06-11 14:42:27.042001
3.082491361,1.254763603,-1.136190176,0.1316485405,2024-06-11 14:42:27.082491
3.122982664,-3.963404655,-5.316454887,0.2822027206,2024-06-11 14:42:27.122983
3.163442716,0.5145249367,-5.093009472,-1.927918196,2024-06-11 14:42:27.163443
3.203923445,1.396036625,-3.284514904,-4.047843933,2024-06-11 14:42:27.203923
3.244383497,-0.7583804131,0.5909757614,0.2298083305,2024-06-11 14:42:27.244383
3.284852247,-1.134899616,5.239655018,-1.320266724,2024-06-11 14:42:27.284852
3.325316101,-3.887578011,5.250307083,3.870354176,2024-06-11 14:42:27.325316
3.365838914,-1.691541195,5.776172638,0.937650919,2024-06-11 14:42:27.365839
3.406311049,0.5694909096,1.772052526,4.252325058,2024-06-11 14:42:27.406311
3.446775007,0.4079227448,0.3626737595,-0.4809246063,2024-06-11 14:42:27.446775
3.487238914,0.03083229065,-0.01446437836,1.142194986,2024-06-11 14:42:27.487239
3.527702768,-3.924270153,-0.1058006287,-1.747205853,2024-06-11 14:42:27.527703
3.568166674,-0.5418205261,0.6724116802,-1.075244427,2024-06-11 14:42:27.568167
3.608742143,3.680256367,2.053918362,0.05068922043,2024-06-11 14:42:27.608742
3.649157664,1.865631104,-1.03651619,-0.6943340302,2024-06-11 14:42:27.649158
3.689632299,3.369542599,-3.165646553,-0.9626369476,2024-06-11 14:42:27.689632
3.730109747,2.646264076,-0.8055095673,0.1920442581,2024-06-11 14:42:27.730110
3.770605893,2.201549053,0.609869957,-0.1803290844,2024-06-11 14:42:27.770606
3.811060789,3.889759302,2.529218197,1.131190777,2024-06-11 14:42:27.811061
3.851527039,4.086120605,3.699009418,-0.3959507942,2024-06-11 14:42:27.851527
3.891973914,-3.929978371,-2.061506271,-0.6980837584,2024-06-11 14:42:27.891974
3.932505789,-7.065634251,-2.537965775,2.686196327,2024-06-11 14:42:27.932506
3.97297407,-5.27351141,-1.314366341,-2.174561024,2024-06-11 14:42:27.972974
4.013466361,-1.42264533,-0.5444116592,-4.570986748,2024-06-11 14:42:28.013466
4.053952039,7.158742905,-0.7199325562,6.304702282,2024-06-11 14:42:28.053952
4.094355164,5.07156229,-1.670578003,2.651871443,2024-06-11 14:42:28.094355
4.134905736,-5.913668156,-5.040516853,4.218900681,2024-06-11 14:42:28.134906
4.17538183,-6.021550179,-3.081373215,-5.229424477,2024-06-11 14:42:28.175382
4.215857559,-6.1606884,-1.473118782,-11.66585064,2024-06-11 14:42:28.215858
4.256337924,-1.202186823,0.582695961,-3.679022074,2024-06-11 14:42:28.256338
4.296814434,-3.536283493,-3.055404663,2.096444607,2024-06-11 14:42:28.296814
4.337297664,17.85342216,3.037353516,0.8239980936,2024-06-11 14:42:28.337298
4.377773341,5.594322681,5.166501522,7.346126556,2024-06-11 14:42:28.377773
4.418218861,3.271255255,4.761039257,1.64231348,2024-06-11 14:42:28.418219
4.458687768,1.561702251,3.084190369,-3.107424021,2024-06-11 14:42:28.458688
4.499156622,0.0007698535919,-3.086714745,-2.196927309,2024-06-11 14:42:28.499157
4.539625528,-0.03199768066,-4.714448929,1.778149486,2024-06-11 14:42:28.539626
4.580163653,-4.924993515,-2.773495674,3.948720455,2024-06-11 14:42:28.580164
4.62067433,-0.7070817947,0.7406568527,-0.5942213535,2024-06-11 14:42:28.620674
4.661090841,1.524038315,2.620454788,1.986531973,2024-06-11 14:42:28.661091
4.701572143,0.1909399033,1.886323929,-0.03701031208,2024-06-11 14:42:28.701572
4.742041049,4.634848118,-1.185560226,2.778543949,2024-06-11 14:42:28.742041
4.782512872,3.756964207,-4.231529236,0.7568618059,2024-06-11 14:42:28.782513
4.823026257,-1.542515993,3.433476925,-4.613488197,2024-06-11 14:42:28.823026
4.863458132,-2.664171219,2.314940453,-3.402672529,2024-06-11 14:42:28.863458
4.903965164,-0.9868061543,-2.569406509,-3.212975025,2024-06-11 14:42:28.903965
4.944462924,-2.479855776,-4.38312149,-7.367647171,2024-06-11 14:42:28.944463
4.984944643,-5.400131226,-2.394997597,5.635523319,2024-06-11 14:42:28.984945
5.025420164,-3.118739843,1.054812431,1.927873373,2024-06-11 14:42:29.025420
5.065899226,1.236812115,0.08812046051,2.809363365,2024-06-11 14:42:29.065899
5.106375528,4.556694984,1.706458092,6.569934845,2024-06-11 14:42:29.106376
5.146857559,1.997315645,-0.1585683823,2.454262257,2024-06-11 14:42:29.146858
5.187332768,0.481069088,-2.629772186,-0.01902604103,2024-06-11 14:42:29.187333
5.227810007,0.6702721119,-1.800024033,-0.355014801,2024-06-11 14:42:29.227810
5.268290632,1.191596985,0.3648443222,-7.100320816,2024-06-11 14:42:29.268291
5.308741309,1.22368741,-0.6459293365,-10.82988548,2024-06-11 14:42:29.308741
5.349236518,-0.5416133404,0.6872119904,-4.022177696,2024-06-11 14:42:29.349237
5.389708549,1.252392054,-0.3198299408,-3.769949913,2024-06-11 14:42:29.389709
5.430120789,0.805532217,-1.153138161,-0.7984012365,2024-06-11 14:42:29.430121
5.470592768,-1.776477814,-1.484254837,6.593954086,2024-06-11 14:42:29.470593
5.511064851,-2.519388199,-1.183275223,5.621910095,2024-06-11 14:42:29.511065
5.551536934,3.144107819,0.2852058411,7.231619835,2024-06-11 14:42:29.551537
5.592091049,-0.3942251205,-0.2784786224,3.821236134,2024-06-11 14:42:29.592091
5.63255907,-2.903161049,-3.322237015,-1.59842658,2024-06-11 14:42:29.632559
5.673031101,1.566244125,-4.284410477,5.704543114,2024-06-11 14:42:29.673031
5.713534695,2.791555882,-0.04099941254,1.422858,2024-06-11 14:42:29.713535
5.754008341,-1.076494932,0.8854279518,-9.434282303,2024-06-11 14:42:29.754008
5.794493601,-0.9130616188,-1.005949497,-8.330357552,2024-06-11 14:42:29.794494
5.834966726,-0.3979413509,-2.56140089,2.35345602,2024-06-11 14:42:29.834967
5.875456153,-2.392105103,4.038663864,-5.427798271,2024-06-11 14:42:29.875456
5.915931361,-2.007849216,2.803421021,-1.43828845,2024-06-11 14:42:29.915931
5.956404486,0.7057189941,1.07371521,1.56956172,2024-06-11 14:42:29.956404
5.996857559,4.426689625,1.747569561,7.156335831,2024-06-11 14:42:29.996858
6.037330684,1.412683964,-1.583843231,7.009933472,2024-06-11 14:42:30.037331
6.077803809,1.479532719,-3.93239212,-0.1586999893,2024-06-11 14:42:30.077804
6.118344747,-0.3870587349,-7.389340401,2.08662343,2024-06-11 14:42:30.118345
6.158770893,-1.463732719,3.088764191,-10.82956219,2024-06-11 14:42:30.158771
6.199253601,-2.041238785,4.145431995,-6.066158295,2024-06-11 14:42:30.199254
6.239713445,1.782024145,-1.931726456,-5.013134003,2024-06-11 14:42:30.239713
6.280201726,2.807746887,-1.532598495,-0.3461391926,2024-06-11 14:42:30.280202
6.32067407,0.5720787048,0.04075431824,6.0989151,2024-06-11 14:42:30.320674
6.361141361,-2.82518816,-0.8178396225,-1.381090403,2024-06-11 14:42:30.361141
6.401629486,-0.4193644524,0.8458757401,-1.704959154,2024-06-11 14:42:30.401629
6.442130789,2.919231892,1.661803722,-0.9936760664,2024-06-11 14:42:30.442131
6.482617611,0.5733041763,0.8421430588,1.186611891,2024-06-11 14:42:30.482618
6.523094018,-3.303331852,-1.316755295,0.7941340804,2024-06-11 14:42:30.523094
6.563570424,-2.263396025,-0.2894353867,2.313269615,2024-06-11 14:42:30.563570
6.603970372,-1.696068287,0.1516704559,0.6349027157,2024-06-11 14:42:30.603970
6.644486049,-4.161456585,-1.414341927,-1.299301505,2024-06-11 14:42:30.644486
6.685006309,-3.740312338,-2.841744423,-2.8198843,2024-06-11 14:42:30.685006
6.725465632,0.7127792835,-4.297519684,-5.782560349,2024-06-11 14:42:30.725466
6.765915476,9.693056107,-2.902680397,-1.496545196,2024-06-11 14:42:30.765915
6.806421518,3.060845852,0.07046890259,7.658807278,2024-06-11 14:42:30.806422
6.846919174,1.833520889,3.653104782,-1.442456722,2024-06-11 14:42:30.846919
6.887393705,-0.03805565834,3.780215263,-6.044615746,2024-06-11 14:42:30.887394
6.927858497,-2.434869051,1.198879719,-5.296252251,2024-06-11 14:42:30.927858
6.968352039,0.648170948,0.699631691,-3.849001884,2024-06-11 14:42:30.968352
7.008824799,2.009072065,1.188130856,-3.87259388,2024-06-11 14:42:31.008825
7.049292559,0.4396965504,0.9454660416,-2.75663662,2024-06-11 14:42:31.049293
7.089735997,-1.31544292,-1.623351097,-0.2520250082,2024-06-11 14:42:31.089736
7.13022558,-0.6614584923,-1.667737961,2.898681164,2024-06-11 14:42:31.130226
7.170692455,-0.7155367136,-0.596997261,0.7325642109,2024-06-11 14:42:31.170692
7.211191986,-2.934295416,-1.791259766,1.136243582,2024-06-11 14:42:31.211192
7.251650632,-4.255821228,-4.694999695,3.712757111,2024-06-11 14:42:31.251651
7.292159486,-4.482746601,-4.594455719,8.410268784,2024-06-11 14:42:31.292159
7.332646257,-0.2687573433,0.1674051285,2.059322357,2024-06-11 14:42:31.332646
7.373045476,1.947650433,1.104482651,-2.098169565,2024-06-11 14:42:31.373045
7.413582507,4.747223854,-1.614035606,0.894738555,2024-06-11 14:42:31.413583
7.454070736,3.610564947,0.3941917419,10.4493494,2024-06-11 14:42:31.454071
7.49451907,-1.509595156,-0.1199903488,-0.251855731,2024-06-11 14:42:31.494519
7.534993653,-1.337116241,0.6820774078,-0.5639019012,2024-06-11 14:42:31.534994
7.575485945,0.421630621,0.956372261,-0.9161400199,2024-06-11 14:42:31.575486
7.615930945,2.142614365,0.8573493958,-1.07040906,2024-06-11 14:42:31.615931
7.656443497,1.211709738,-0.1121492386,0.6374590993,2024-06-11 14:42:31.656443
7.696943705,-0.7799377441,-0.3397140503,3.737641335,2024-06-11 14:42:31.696944
7.737420216,-0.305157423,-0.01296138763,0.7532438636,2024-06-11 14:42:31.737420
7.777897872,0.3052561283,0.5943660736,-0.651645422,2024-06-11 14:42:31.777898
7.818360007,-0.6497242451,-0.3160533905,-0.2815689445,2024-06-11 14:42:31.818360
7.858836101,-0.8716773987,-0.6689739227,0.2974788547,2024-06-11 14:42:31.858836
7.89931157,0.1948525906,0.06414031982,1.830397129,2024-06-11 14:42:31.899312
7.939804799,1.82658577,0.6711759567,1.901737928,2024-06-11 14:42:31.939805
7.980238914,0.2979488373,-0.1925582886,0.4001021385,2024-06-11 14:42:31.980239
8.020808809,0.1472036839,0.09633922577,-1.533765554,2024-06-11 14:42:32.020809
8.061218445,0.3166389465,0.2034225464,-0.6365749836,2024-06-11 14:42:32.061218
8.101697039,-0.1330401897,-0.4587287903,-0.6565127373,2024-06-11 14:42:32.101697
8.142178393,-0.3608560562,-0.5262336731,-0.8834468126,2024-06-11 14:42:32.142178
8.18267532,0.535349369,-0.05033111572,-0.5093175173,2024-06-11 14:42:32.182675
8.223154591,1.102780819,-0.1446990967,3.311050177,2024-06-11 14:42:32.223155
8.263622455,0.6343479156,-0.2025594711,3.081034899,2024-06-11 14:42:32.263622
8.304099382,0.6830482483,0.377737999,0.1707584858,2024-06-11 14:42:32.304099
8.344513289,1.694370985,0.1296491623,-0.9254559278,2024-06-11 14:42:32.344513
8.38498907,2.088778734,0.4543247223,-3.547094345,2024-06-11 14:42:32.384989
8.425516778,-0.1954193115,0.8027877808,-6.095804691,2024-06-11 14:42:32.425517
8.465974643,-1.754742503,-0.7008628845,-2.22696352,2024-06-11 14:42:32.465975
8.506491361,-1.164283276,0.1363506317,0.6551122665,2024-06-11 14:42:32.506491
8.546974955,-0.7733020782,0.7255048752,-1.504532218,2024-06-11 14:42:32.546975
8.587453341,-0.3849592209,0.8900880814,-0.2224767208,2024-06-11 14:42:32.587453
8.627933184,0.2744772434,0.6309995651,6.660223961,2024-06-11 14:42:32.627933
8.668406986,1.974832535,-0.8210639954,4.364694118,2024-06-11 14:42:32.668407
8.708871934,0.7614145279,-1.055117607,-0.21246773,2024-06-11 14:42:32.708872
8.749333601,0.4586136341,0.4284248352,-1.566633463,2024-06-11 14:42:32.749334
8.789800997,0.2010257244,1.979418755,-1.915671825,2024-06-11 14:42:32.789801
8.830297507,0.5285127163,0.7891979218,-1.210652828,2024-06-11 14:42:32.830298
8.870796518,1.89312458,-0.2484464645,0.2492626607,2024-06-11 14:42:32.870797
8.911260372,0.2994990349,-0.5403728485,3.066151142,2024-06-11 14:42:32.911260
8.951722351,-0.4732172489,-1.056119919,-1.554921627,2024-06-11 14:42:32.951722
8.992221674,-2.213863611,-1.388910294,-0.1160497069,2024-06-11 14:42:32.992222
9.032705789,-0.7699897289,-0.4802951813,0.7235631347,2024-06-11 14:42:33.032706
9.073182455,-0.234749794,0.4690666199,0.6307102442,2024-06-11 14:42:33.073182
9.113657872,1.431969166,0.6062583923,1.657557845,2024-06-11 14:42:33.113658
9.154127768,1.396025419,0.312376976,2.67338109,2024-06-11 14:42:33.154128
9.194622091,0.2374837399,-0.6159133911,-0.1676431298,2024-06-11 14:42:33.194622
9.235078705,-1.048465014,-0.9516820908,-1.153866768,2024-06-11 14:42:33.235079
9.275516414,-2.058656216,-0.2419424057,-2.286301613,2024-06-11 14:42:33.275516
9.316020268,-0.1329193115,1.28971386,-0.6691204309,2024-06-11 14:42:33.316020
9.356476778,1.889420748,1.039258957,1.703023911,2024-06-11 14:42:33.356477
9.396988289,2.284558773,0.328997612,-0.8009182811,2024-06-11 14:42:33.396988
9.437438705,1.803207874,-0.2994785309,-0.3538556993,2024-06-11 14:42:33.437439
9.477937872,1.175715446,0.1654663086,-0.6801310182,2024-06-11 14:42:33.477938
9.518439018,0.7013304234,0.3946361542,-0.8009303808,2024-06-11 14:42:33.518439
9.558900528,-0.0942530632,0.1913843155,-1.358773708,2024-06-11 14:42:33.558901
9.599360736,1.985141993,0.07575893402,-1.942469239,2024-06-11 14:42:33.599361
9.639836726,2.1520257,0.8975744247,-0.2936125398,2024-06-11 14:42:33.639837
9.680292872,0.3238141537,0.3075752258,-1.294219017,2024-06-11 14:42:33.680293
9.720765528,0.4192316532,0.2910919189,-2.350630045,2024-06-11 14:42:33.720766
9.761268289,1.90380764,0.3662939072,-2.840008497,2024-06-11 14:42:33.761268
9.801763601,1.940283298,0.7847452164,-2.543196678,2024-06-11 14:42:33.801764
9.84225532,0.2299747467,1.321267605,0.002924621105,2024-06-11 14:42:33.842255
9.882737716,-0.9953918457,-0.8510494232,2.323840618,2024-06-11 14:42:33.882738
9.923201934,-1.13600111,-1.025799751,1.955231547,2024-06-11 14:42:33.923202
9.963684747,0.200070858,0.4268922806,-0.2453365326,2024-06-11 14:42:33.963685
10.00416949,-0.4021553993,0.6330480576,-2.151258707,2024-06-11 14:42:34.004169
10.04463303,-0.5572733879,0.1889429092,-1.708571911,2024-06-11 14:42:34.044633
10.08510454,0.151330471,0.1739034653,-0.3352563679,2024-06-11 14:42:34.085105
10.12560334,0.7069406509,0.3928518295,0.4823511243,2024-06-11 14:42:34.125603
10.166066,-0.1689391136,-0.2052383423,-0.09551157802,2024-06-11 14:42:34.166066
10.20655735,-0.6072397232,0.1564998627,-0.1453369558,2024-06-11 14:42:34.206557
10.24700199,-0.2810339928,0.8723216057,0.09899288416,2024-06-11 14:42:34.247002
10.28751183,1.333101273,0.730340004,1.271250725,2024-06-11 14:42:34.287512
10.32798876,0.06234717369,0.4161491394,2.663028717,2024-06-11 14:42:34.327989
10.36838761,0.8886809349,0.1549968719,1.967858434,2024-06-11 14:42:34.368388
10.40892782,4.474056721,-2.320212364,0.401563406,2024-06-11 14:42:34.408928
10.4493897,2.778645754,-2.763021469,2.418001652,2024-06-11 14:42:34.449390
10.48985865,1.971169472,4.584018707,-0.783498764,2024-06-11 14:42:34.489859
10.53032193,-1.614895463,4.686056614,-0.8501226902,2024-06-11 14:42:34.530322
10.57082204,-1.030421257,-2.859243393,-2.205478191,2024-06-11 14:42:34.570822
10.61131089,-1.578906178,-5.815404892,-4.114855766,2024-06-11 14:42:34.611311
10.65180376,-2.507261276,-0.3202133179,-2.967604399,2024-06-11 14:42:34.651804
10.69228615,-2.085548878,2.719769955,-2.115487099,2024-06-11 14:42:34.692286
10.73276496,-1.588717341,0.9451885223,-1.622480392,2024-06-11 14:42:34.732765
10.77323865,-0.5372498035,-0.7687749863,-2.266006231,2024-06-11 14:42:34.773239
10.81371897,-0.787299633,-1.543328285,-0.656165421,2024-06-11 14:42:34.813719
10.85419652,0.06924104691,-0.7643060684,11.82089806,2024-06-11 14:42:34.854197
10.89464563,0.9828977585,-0.1216773987,0.4561113119,2024-06-11 14:42:34.894646
10.93509115,0.1492648125,1.136791229,-0.8784091473,2024-06-11 14:42:34.935091
10.97556844,0.008849143982,0.03639698029,0.1382386684,2024-06-11 14:42:34.975568
11.016036,-0.7373063564,-0.3246841431,0.975274682,2024-06-11 14:42:35.016036
11.05657147,-1.091347218,-0.6756792068,2.20521903,2024-06-11 14:42:35.056571
11.09706173,-0.237837553,-0.5951375961,3.168391228,2024-06-11 14:42:35.097062
11.13752428,1.113633752,-2.302656174,2.392561436,2024-06-11 14:42:35.137524
11.17800584,2.101313353,-2.89081955,3.02825141,2024-06-11 14:42:35.178006
11.21849818,2.925914764,-2.553356171,5.16442585,2024-06-11 14:42:35.218498
11.25895094,3.416554451,0.4156341553,2.352743626,2024-06-11 14:42:35.258951
11.29944511,2.360106468,0.8640508652,-5.150495529,2024-06-11 14:42:35.299445
11.33990464,1.360286951,0.2249155045,-6.093621254,2024-06-11 14:42:35.339905
11.3803499,0.6010816097,-2.896637917,-6.047252178,2024-06-11 14:42:35.380350
11.42085912,0.3890039921,-4.374175072,0.3810887337,2024-06-11 14:42:35.420859
11.46133511,-2.998243809,0.1524572372,-5.341656208,2024-06-11 14:42:35.461335
11.50182824,-3.3987813,2.310823917,-6.250167847,2024-06-11 14:42:35.501828
11.5423073,-2.15908885,2.191775322,-4.118808746,2024-06-11 14:42:35.542307
11.58279355,-1.41226995,0.5491847992,-4.67021656,2024-06-11 14:42:35.582794
11.62319912,0.7684452534,-2.784692764,8.996709824,2024-06-11 14:42:35.623199
11.66375001,5.134025574,0.1653394699,9.352682114,2024-06-11 14:42:35.663750
11.70422063,2.321046114,3.895632267,-2.203241825,2024-06-11 14:42:35.704221
11.74469761,1.25685215,-1.366085052,-2.330430269,2024-06-11 14:42:35.744698
11.78517459,3.16312933,-4.692788124,-6.139747143,2024-06-11 14:42:35.785175
11.82565167,-3.405728102,0.2754745483,-7.809374809,2024-06-11 14:42:35.825652
11.86612147,-2.141046047,-1.690501213,-5.066175938,2024-06-11 14:42:35.866121
11.90659959,5.335888863,-2.094853401,7.691632271,2024-06-11 14:42:35.906600
11.94708542,-2.660370827,0.712305069,0.7513010502,2024-06-11 14:42:35.947085
11.98757428,-0.8294104338,1.455174446,-1.55472374,2024-06-11 14:42:35.987574
12.02803902,0.8666787148,1.01331234,-0.7417625785,2024-06-11 14:42:36.028039
12.06850126,3.308251619,-0.3139982224,3.800030708,2024-06-11 14:42:36.068501
12.10898251,1.356915236,1.91052866,7.287714481,2024-06-11 14:42:36.108983
12.14949548,6.329358101,-14.38564682,8.278393745,2024-06-11 14:42:36.149495
12.18997386,-3.621578217,12.20940971,18.13376236,2024-06-11 14:42:36.189974
12.23047365,-1.69381845,11.84686375,-7.89217329,2024-06-11 14:42:36.230474
12.27093438,6.877642632,-5.888408661,-7.508817196,2024-06-11 14:42:36.270934
12.31137261,-3.746348858,-9.716650009,6.969061852,2024-06-11 14:42:36.311373
12.35181214,-0.6542432308,1.760988235,0.3718099594,2024-06-11 14:42:36.351812
12.39227511,1.204171419,1.37551403,-2.238266945,2024-06-11 14:42:36.392275
12.43281365,1.21329236,-0.1580543518,1.772436619,2024-06-11 14:42:36.432814
12.47330605,1.804419041,0.8412446976,0.02752113342,2024-06-11 14:42:36.473306
12.51377636,-0.3601119518,0.5681257248,2.048729897,2024-06-11 14:42:36.513776
12.55423787,-0.5510547161,-1.716725349,0.3244533539,2024-06-11 14:42:36.554238
12.59469027,0.8659691811,1.35224247,0.2954756021,2024-06-11 14:42:36.594690
12.63516136,-0.5414085388,0.8121871948,-0.5882102251,2024-06-11 14:42:36.635161
12.67563407,-1.472664952,-2.075643539,1.385978937,2024-06-11 14:42:36.675634
12.71614131,1.474036455,0.9154882431,1.216015697,2024-06-11 14:42:36.716141
12.75663933,1.439172506,0.3384408951,-1.329147577,2024-06-11 14:42:36.756639
12.79709662,2.632032871,0.5907239914,1.162306905,2024-06-11 14:42:36.797097
12.83758954,1.884731293,0.3068275452,1.397919536,2024-06-11 14:42:36.837590
12.87808048,-0.4718922377,-0.5423774719,-0.003203339875,2024-06-11 14:42:36.878080
12.91853214,-2.096254826,-0.08555316925,-0.2814025581,2024-06-11 14:42:36.918532
12.95900568,-1.035002112,0.5227689743,1.277617931,2024-06-11 14:42:36.959006
12.99945699,-0.438683629,-0.1668548584,-0.6936615705,2024-06-11 14:42:36.999457
13.03994121,1.656856537,-0.4299860001,2.897612333,2024-06-11 14:42:37.039941
13.0804337,4.42224884,0.3126525879,4.92909956,2024-06-11 14:42:37.080434
13.1209135,3.0106709,1.105958939,4.984052181,2024-06-11 14:42:37.120914
13.16141844,2.262348175,-0.4687070847,-0.01542425156,2024-06-11 14:42:37.161418
13.20188912,4.47847271,-7.801934242,1.84617734,2024-06-11 14:42:37.201889
13.24232496,5.799387455,-11.84238243,0.9859013557,2024-06-11 14:42:37.242325
13.28283131,4.442946434,-4.654630661,-5.692214966,2024-06-11 14:42:37.282831
13.32333167,-0.5382227898,-5.256868362,-9.666727066,2024-06-11 14:42:37.323332
13.36376917,5.630227566,-7.552686691,-1.576557636,2024-06-11 14:42:37.363769
13.40426443,-1.863943696,-4.341415405,-8.279918671,2024-06-11 14:42:37.404264
13.44475074,-6.866308212,2.503009081,-4.504735947,2024-06-11 14:42:37.444751
13.48520673,-5.010260105,2.844200134,-1.006340981,2024-06-11 14:42:37.485207
13.52567329,3.803221941,-2.396022797,-6.279573917,2024-06-11 14:42:37.525673
13.56618246,0.4226727486,-0.6005792618,-2.583300591,2024-06-11 14:42:37.566182
13.60667485,-2.432019234,2.120116234,-1.027908325,2024-06-11 14:42:37.606675
13.64711808,-2.68893528,-0.8163371086,0.6395606995,2024-06-11 14:42:37.647118
13.68763068,-5.408801556,-1.25100553,-2.775163651,2024-06-11 14:42:37.687631
13.72811449,-0.7876973152,3.81567359,-4.64093399,2024-06-11 14:42:37.728114
13.76858292,3.805170059,2.73425436,0.3024177551,2024-06-11 14:42:37.768583
13.80906016,-2.200611353,1.219722509,1.217728615,2024-06-11 14:42:37.809060
13.84950074,-3.319581032,0.2101681232,1.435311317,2024-06-11 14:42:37.849501
13.88997808,-0.2807621956,0.01661598682,0.609582901,2024-06-11 14:42:37.889978
13.93042443,-0.1621890068,1.670090556,0.808681488,2024-06-11 14:42:37.930424
13.97097048,-0.9224414825,1.238951445,0.3290295601,2024-06-11 14:42:37.970970
14.01142511,-2.082284451,0.2555298805,-0.03650712967,2024-06-11 14:42:38.011425
14.05191673,-3.307082653,0.2673358917,-0.7940449715,2024-06-11 14:42:38.051917
14.09240579,-1.797205448,1.087486029,-1.642506123,2024-06-11 14:42:38.092406
14.13286782,-2.179689884,1.423316956,-1.55332756,2024-06-11 14:42:38.132868
14.17336058,-2.402311325,2.223435879,-2.111273766,2024-06-11 14:42:38.173361
14.21383907,-2.761723757,2.280053139,-1.317506075,2024-06-11 14:42:38.213839
14.25432157,1.162961006,-0.2753458023,0.1544308662,2024-06-11 14:42:38.254322
14.2947485,14.78653336,-1.682934761,5.664392948,2024-06-11 14:42:38.294749
14.33521834,14.01422119,-3.968899727,3.591013908,2024-06-11 14:42:38.335218
14.37569548,7.585147381,-12.25924873,7.489492416,2024-06-11 14:42:38.375695
14.41622891,2.417836428,-3.859309196,0.8005032539,2024-06-11 14:42:38.416229
14.45663308,1.908250093,5.077999592,-6.332051277,2024-06-11 14:42:38.456633
14.49718308,-1.435247779,6.156990528,-6.902894497,2024-06-11 14:42:38.497183
14.53765933,-1.517278433,-2.00583744,-5.124876976,2024-06-11 14:42:38.537659
14.57813824,-1.176928163,-4.967721939,-4.525866508,2024-06-11 14:42:38.578138
14.61861792,-2.313367128,1.594414234,-2.610217094,2024-06-11 14:42:38.618618
14.65907459,-0.8810606003,2.162778854,-1.589520216,2024-06-11 14:42:38.659075
14.6995048,0.1578146219,-1.979277611,11.18786621,2024-06-11 14:42:38.699505
14.74002105,-0.4293999672,0.307598114,2.132483959,2024-06-11 14:42:38.740021
14.78050959,0.4486278296,1.460553169,-1.444134116,2024-06-11 14:42:38.780510
14.82094141,0.2361268997,0.08528232574,-2.385041952,2024-06-11 14:42:38.820941
14.86145798,-0.03088879585,-0.5858802795,0.5822166204,2024-06-11 14:42:38.861458
14.90190938,0.7033441067,0.7502307892,8.473005295,2024-06-11 14:42:38.901909
14.94242141,-0.6710979342,-1.209540367,2.663300991,2024-06-11 14:42:38.942421
14.98291235,-0.3666942716,-2.823243141,0.5902448297,2024-06-11 14:42:38.982912
15.0233911,0.4011070132,-3.560490608,4.102201462,2024-06-11 14:42:39.023391
15.06386813,1.676504731,-3.875082016,3.11715889,2024-06-11 14:42:39.063868
15.10434006,3.168955326,-2.929868698,-1.279253483,2024-06-11 14:42:39.104340
15.14477949,5.899085999,0.4323377609,-4.690246105,2024-06-11 14:42:39.144779
15.18528318,2.49453187,0.1621990204,-5.259131432,2024-06-11 14:42:39.185283
15.22576209,0.4657487869,-0.956114769,-4.56994915,2024-06-11 14:42:39.225762
15.26624761,-3.964350462,-2.745167732,-3.612365484,2024-06-11 14:42:39.266248
15.30673522,-5.159691811,0.2177653313,-4.22096777,2024-06-11 14:42:39.306735
15.34716725,-4.018216133,2.299565792,-2.320505619,2024-06-11 14:42:39.347167
15.3876297,-0.9498140812,2.352644444,-3.502085447,2024-06-11 14:42:39.387630
15.4281449,1.895031691,1.472523689,-3.559073687,2024-06-11 14:42:39.428145
15.46859402,4.415837288,1.025439262,0.06005954742,2024-06-11 14:42:39.468594
15.50909782,3.258665323,0.7957220078,3.988455296,2024-06-11 14:42:39.509098
15.54956105,1.161442757,0.3192958832,3.071480513,2024-06-11 14:42:39.549561
15.59002751,2.114320517,-1.064957619,6.953024864,2024-06-11 14:42:39.590028
15.63049136,-1.264657497,1.719278336,-3.288212776,2024-06-11 14:42:39.630491
15.67102522,0.3350932598,-1.373432159,-5.260111332,2024-06-11 14:42:39.671025
15.71149022,8.921792984,-9.300619125,-1.899836183,2024-06-11 14:42:39.711490
15.75194209,-3.475390196,-0.3498373032,-2.643613338,2024-06-11 14:42:39.751942
15.79243496,-4.286427498,3.805119991,-1.437797546,2024-06-11 14:42:39.792435
15.83292923,-3.534167051,1.426470757,-0.8273556232,2024-06-11 14:42:39.832929
15.8733947,-1.986190915,-1.275348663,-1.545147181,2024-06-11 14:42:39.873395
15.91393157,1.571470141,-1.336399078,-1.946463585,2024-06-11 14:42:39.913932
15.95439063,1.270505786,0.5656995773,5.311317444,2024-06-11 14:42:39.954391
15.99481157,0.06125235558,0.5837211609,0.8065261841,2024-06-11 14:42:39.994812
16.03526178,0.6748430729,0.3811178207,-0.8345349431,2024-06-11 14:42:40.035262
16.07576511,-0.3247074485,0.2538499832,-0.7110465765,2024-06-11 14:42:40.075765
16.11624647,-1.244215727,-0.5166902542,-1.433994055,2024-06-11 14:42:40.116246
16.15672652,-1.847463369,-0.882727623,-1.081588507,2024-06-11 14:42:40.156727
16.19721678,0.2200728953,-0.1750259399,-0.1101004034,2024-06-11 14:42:40.197217
16.23770381,2.361375093,0.6346845627,1.152158499,2024-06-11 14:42:40.237704
16.2781686,1.644493818,0.1785144806,0.6609972119,2024-06-11 14:42:40.278169
16.31863714,0.6324213147,0.3379640579,-0.3413496315,2024-06-11 14:42:40.318637
16.35911803,0.1476952434,0.2933883667,-0.7168729305,2024-06-11 14:42:40.359118
16.3995274,-0.2658332586,0.08459377289,-0.8284423351,2024-06-11 14:42:40.399527
16.44005105,-0.07434618473,-0.2344341278,-0.09258586168,2024-06-11 14:42:40.440051
16.48053605,-0.09737628698,0.1071567535,1.215031624,2024-06-11 14:42:40.480536
16.52101344,0.3163360953,0.3292236328,1.336119413,2024-06-11 14:42:40.521013
16.56150912,-0.2853180766,0.2463684082,0.189759478,2024-06-11 14:42:40.561509
16.60198693,-1.037728667,0.1640968323,-0.4819954634,2024-06-11 14:42:40.601987
16.64248803,-2.118328571,-0.7096796036,-1.328022718,2024-06-11 14:42:40.642488
16.6829574,-3.462241411,-1.303955078,-1.974343538,2024-06-11 14:42:40.682957
16.72345068,-3.769866228,-1.03455162,-2.260005713,2024-06-11 14:42:40.723451
16.76393204,-2.387461424,0.2756767273,-2.670000553,2024-06-11 14:42:40.763932
16.80438141,-0.3271062374,1.199759483,-1.979228735,2024-06-11 14:42:40.804381
16.84484704,1.942515731,-0.4276990891,1.040427208,2024-06-11 14:42:40.844847
16.88531162,2.932570457,-0.6525859833,7.729074478,2024-06-11 14:42:40.885312
16.92578246,-1.264739871,-0.6720170975,2.230463028,2024-06-11 14:42:40.925782
16.96628365,0.07235532999,-0.9653654099,-1.448471308,2024-06-11 14:42:40.966284
17.00678011,1.739516973,0.1884298325,-1.937206268,2024-06-11 14:42:41.006780
17.04723667,4.436273575,1.469051361,-1.805061817,2024-06-11 14:42:41.047237
17.08769923,3.611518383,1.521756172,-1.529352784,2024-06-11 14:42:41.087699
17.12821923,-1.354901314,0.5699768066,-1.176364779,2024-06-11 14:42:41.128219
17.16869631,1.33106029,-1.951994896,-1.876098514,2024-06-11 14:42:41.168696
17.20915683,1.481684923,-1.450453758,-0.00996491313,2024-06-11 14:42:41.209157
17.24963048,-0.1041436195,0.572303772,2.572723389,2024-06-11 14:42:41.249630
17.29008949,0.4792835712,0.3800153732,0.79567945,2024-06-11 14:42:41.290089
17.330586,1.350506306,0.4775390625,-1.150397897,2024-06-11 14:42:41.330586
17.37106756,1.268012047,0.4409227371,-2.021012068,2024-06-11 14:42:41.371068
17.41150693,0.7356337309,-0.01699352264,-2.677823544,2024-06-11 14:42:41.411507
17.45203537,0.02856099606,-0.3907203674,-3.143487215,2024-06-11 14:42:41.452035
17.49250563,0.844707489,0.2854747772,-3.292818546,2024-06-11 14:42:41.492506
17.53297095,1.519795775,1.13877964,-3.190500975,2024-06-11 14:42:41.532971
17.57348704,1.38405478,1.458476067,-2.837198257,2024-06-11 14:42:41.573487
17.61396459,2.288030624,0.5562782288,-2.782543659,2024-06-11 14:42:41.613965
17.6543737,3.325428009,-2.032647133,-3.225771904,2024-06-11 14:42:41.654374
17.69486246,1.868326426,-1.26909256,-2.642492056,2024-06-11 14:42:41.694862
17.73533876,0.6062146425,-0.6580247879,-1.795860291,2024-06-11 14:42:41.735339
17.77581516,4.023932934,-5.995804787,0.3532402515,2024-06-11 14:42:41.775815
17.81634813,2.325189829,-0.2642621994,22.95480156,2024-06-11 14:42:41.816348
17.85679772,-3.199951887,1.179922104,-1.78676033,2024-06-11 14:42:41.856798
17.89728657,0.282710433,1.993077278,-3.340670109,2024-06-11 14:42:41.897287
17.93776292,-0.6708731651,1.696260452,-3.912826777,2024-06-11 14:42:41.937763
17.97822636,-1.047697186,-0.6268987656,10.59906006,2024-06-11 14:42:41.978226
18.01872563,-2.035636902,-0.9161577225,-0.5952590108,2024-06-11 14:42:42.018726
18.0592011,-1.767394304,-0.678771019,-0.4859520495,2024-06-11 14:42:42.059201
18.09966506,-2.42233181,0.2505092621,-0.8470585346,2024-06-11 14:42:42.099665
18.14014402,-2.321337938,0.3692483902,-0.8981989026,2024-06-11 14:42:42.140144
18.18054647,-1.926721334,-0.5166568756,-0.003845274448,2024-06-11 14:42:42.180546
18.22109678,-2.230530739,-2.291284561,-0.8609731793,2024-06-11 14:42:42.221097
18.26157173,0.6268622875,-0.8963489532,-0.5924774408,2024-06-11 14:42:42.261572
18.30203042,0.523709774,1.086556435,-2.308033943,2024-06-11 14:42:42.302030
18.34253626,-1.259966373,-0.120844841,-3.276379108,2024-06-11 14:42:42.342536
18.38298141,3.295776606,-0.1215810776,-2.259557009,2024-06-11 14:42:42.382981
18.42343449,3.556859493,0.9297428131,-0.1905583739,2024-06-11 14:42:42.423434
18.46401068,0.2854480743,1.268432617,-1.110990524,2024-06-11 14:42:42.464011
18.504431,-0.4418933392,-0.3725252151,-1.701682448,2024-06-11 14:42:42.504431
18.54490704,-0.9507899284,-0.6658277512,-0.4889378548,2024-06-11 14:42:42.544907
18.58538308,1.236398935,-0.9836006165,0.3464345932,2024-06-11 14:42:42.585383
18.62586246,2.5703125,-2.711741447,-1.167024136,2024-06-11 14:42:42.625862
18.66635162,-0.6490991116,-0.8409547806,-0.7633448839,2024-06-11 14:42:42.666352
18.70683282,-2.809039116,0.8812141418,0.5362122059,2024-06-11 14:42:42.706833
18.7472912,-0.4492144585,1.460866451,1.494832158,2024-06-11 14:42:42.747291
18.78775902,2.226819754,1.679646492,0.93088907,2024-06-11 14:42:42.787759
18.82824141,2.955303431,1.55237484,0.6839177012,2024-06-11 14:42:42.828241
18.86874006,6.801922798,2.755154133,0.8804386854,2024-06-11 14:42:42.868740
18.90922522,9.021997452,2.550035954,4.580429077,2024-06-11 14:42:42.909225
18.94969256,3.829579592,-0.3259143829,5.972370148,2024-06-11 14:42:42.949693
18.99014735,0.6512846947,-1.871923447,0.03474855423,2024-06-11 14:42:42.990147
19.03062277,-3.041987896,-1.51899147,-3.94078207,2024-06-11 14:42:43.030623
19.0711161,-3.496606588,0.5358867645,-2.391011953,2024-06-11 14:42:43.071116
19.11161204,-1.900430083,0.343542099,0.3345718384,2024-06-11 14:42:43.111612
19.15208282,-1.346440077,-0.5464868546,1.543043256,2024-06-11 14:42:43.152083
19.19257834,1.315917253,-0.2438192368,3.06295085,2024-06-11 14:42:43.192578
19.2330724,4.537343979,1.249898911,2.012240648,2024-06-11 14:42:43.233072
19.27352824,3.992753983,0.8623342514,0.8040361404,2024-06-11 14:42:43.273528
19.31403303,1.496196032,1.220584869,2.207618475,2024-06-11 14:42:43.314033
19.35446996,0.841124773,1.786100864,0.744527936,2024-06-11 14:42:43.354470
19.39488693,-0.3485615253,0.4501171112,-1.071645021,2024-06-11 14:42:43.394887
19.4353887,-1.339033484,-1.016674995,-1.851608038,2024-06-11 14:42:43.435389
19.47585928,-2.769957542,-1.149515152,-2.488107681,2024-06-11 14:42:43.475859
19.51634459,-2.235898495,-0.281411171,-3.589062214,2024-06-11 14:42:43.516345
19.5568412,-2.175593138,-0.9220552444,-2.612247467,2024-06-11 14:42:43.556841
19.59732298,-1.187716603,-1.375015259,0.9037654996,2024-06-11 14:42:43.597323
19.63780209,0.9808082581,-0.1144914627,7.179318428,2024-06-11 14:42:43.637802
19.67829574,-1.405633211,0.5896568298,-0.2781262994,2024-06-11 14:42:43.678296
19.71878115,-0.05800294876,1.428462029,-1.077581167,2024-06-11 14:42:43.718781
19.7592472,0.824462533,0.2101707458,-0.8271942735,2024-06-11 14:42:43.759247
19.79974412,0.5303108692,0.03095245361,-0.1046898365,2024-06-11 14:42:43.799744
19.84020516,-0.6039009094,-0.1553535461,0.9534341097,2024-06-11 14:42:43.840205
19.88066735,-0.6399246454,-0.5075616837,2.683726311,2024-06-11 14:42:43.880667
19.92114449,0.1398282051,-0.5663518906,3.997066498,2024-06-11 14:42:43.921144
19.9616222,-1.51134479,-0.258646965,2.669952631,2024-06-11 14:42:43.961622
20.00209464,-1.796647906,-0.644405365,1.174227953,2024-06-11 14:42:44.002095
20.0425685,-0.536172986,-3.376534462,-0.2435233593,2024-06-11 14:42:44.042569
20.08304954,-0.5747658014,-2.284193993,0.6618227363,2024-06-11 14:42:44.083050
20.1235635,-0.3367640972,-1.752067566,2.483165979,2024-06-11 14:42:44.123563
20.16405824,2.953114986,0.6528406143,4.062711239,2024-06-11 14:42:44.164058
20.20448298,3.126213551,1.92347908,1.27349174,2024-06-11 14:42:44.204483
20.24493344,-0.3926398754,-0.08890533447,-2.070780277,2024-06-11 14:42:44.244933
20.28543141,-1.58392036,-2.767097473,-4.672845364,2024-06-11 14:42:44.285431
20.32591855,-0.109493494,-4.71980381,-5.634786606,2024-06-11 14:42:44.325919
20.36639313,0.2779269218,-0.06724643707,-4.472200394,2024-06-11 14:42:44.366393
20.4068697,-1.754875302,1.554636478,-2.660048246,2024-06-11 14:42:44.406870
20.44735355,-2.556308508,1.575046062,-2.223475456,2024-06-11 14:42:44.447354
20.48783928,-0.8442800045,2.285707474,-3.96070528,2024-06-11 14:42:44.487839
20.5283085,0.2466711998,2.57745409,-3.343677282,2024-06-11 14:42:44.528309
20.5688624,0.6168293953,0.9737892151,-1.029446721,2024-06-11 14:42:44.568862
20.60931272,4.055671215,-4.869316101,15.09352493,2024-06-11 14:42:44.609313
20.64976303,4.451930046,-0.2167787552,5.648789406,2024-06-11 14:42:44.649763
20.690231,0.5457849503,0.7167215347,-3.280266285,2024-06-11 14:42:44.690231
20.73070037,-0.8077845573,-2.997660637,-2.911950588,2024-06-11 14:42:44.730700
20.7711599,0.01311182976,-1.815406799,-3.795834064,2024-06-11 14:42:44.771160
20.81168855,-1.506283283,2.482865334,-4.806519032,2024-06-11 14:42:44.811689
20.85211584,0.7572245598,2.85505867,-2.33930397,2024-06-11 14:42:44.852116
20.89261443,4.16543293,-0.7716150284,0.1039061546,2024-06-11 14:42:44.892614
20.93307006,-0.5134708881,-2.181712151,-0.2430368662,2024-06-11 14:42:44.933070
20.97361631,-2.23361063,-0.9009027481,0.7787706256,2024-06-11 14:42:44.973616
21.01409496,-2.745867968,-0.3772497177,0.4287454784,2024-06-11 14:42:45.014095
21.0545723,-0.1097524166,1.507576942,-0.7256593108,2024-06-11 14:42:45.054572
21.0950497,0.5844054222,0.7100887299,-0.954587698,2024-06-11 14:42:45.095050
21.13542589,0.4403028488,-0.1984329224,-1.546537042,2024-06-11 14:42:45.135426
21.17590324,-0.3788712025,-0.05368995667,-1.166185379,2024-06-11 14:42:45.175903
21.21645339,-1.249489546,-1.001963615,4.249500751,2024-06-11 14:42:45.216453
21.25691449,1.05453229,0.01690673828,1.81709373,2024-06-11 14:42:45.256914
21.29738782,-0.1977982521,0.2050848007,-0.679802835,2024-06-11 14:42:45.297388
21.33786808,-3.21101141,-3.045322418,-1.91543901,2024-06-11 14:42:45.337868
21.37835162,-0.6339123249,-2.803732872,-4.873622894,2024-06-11 14:42:45.378352
21.41878589,2.47425437,1.621199608,-6.174694061,2024-06-11 14:42:45.418786
21.45930818,6.213979721,2.753703117,0.9175459146,2024-06-11 14:42:45.459308
21.4997662,-2.035841465,0.4898824692,-0.502175808,2024-06-11 14:42:45.499766
21.54026761,-1.193762064,-0.6092472076,-4.60381031,2024-06-11 14:42:45.540268
21.58072136,1.436208963,-1.807842255,-0.4587846994,2024-06-11 14:42:45.580721
21.62121746,0.01588582993,1.252808571,4.753649712,2024-06-11 14:42:45.621217
21.661691,-2.270961761,1.863149643,0.7047240734,2024-06-11 14:42:45.661691
21.70216563,-2.877604008,0.06902217865,-3.245293856,2024-06-11 14:42:45.702166
21.74265975,-1.595169544,-0.4498825073,-3.372416973,2024-06-11 14:42:45.742660
21.78312714,0.5969848633,0.1680879593,-3.454634905,2024-06-11 14:42:45.783127
21.82363048,4.409103394,0.07552719116,-2.651159286,2024-06-11 14:42:45.823630
21.86412407,6.515198231,-0.4941825867,-1.213881969,2024-06-11 14:42:45.864124
21.90455183,5.19146347,-0.7947320938,0.7338778973,2024-06-11 14:42:45.904552
21.94502943,5.572452068,2.013440132,1.714506149,2024-06-11 14:42:45.945029
21.98545933,2.774013519,1.904461861,1.497190595,2024-06-11 14:42:45.985459
22.02593688,2.763506413,-1.381189346,-0.5568895936,2024-06-11 14:42:46.025937
22.06643449,-0.7584111691,-2.29804039,-0.3119418025,2024-06-11 14:42:46.066434
22.10694803,-3.211377621,-1.576684952,0.8971130848,2024-06-11 14:42:46.106948
22.14741735,-4.612686634,-2.418196678,11.22476006,2024-06-11 14:42:46.147417
22.18788996,0.08327996731,-0.06569862366,-1.311554313,2024-06-11 14:42:46.187890
22.22836511,-0.818567276,-0.6659917831,0.08224710822,2024-06-11 14:42:46.228365
22.26885959,-1.706510067,-1.151162148,0.7725207806,2024-06-11 14:42:46.268860
22.30935772,-1.14900136,0.3016757965,-2.13910079,2024-06-11 14:42:46.309358
22.34987053,-0.3216465712,0.3694648743,-1.297264814,2024-06-11 14:42:46.349871
22.3903486,0.0695207119,-0.2949419022,2.05071187,2024-06-11 14:42:46.390349
22.43075865,2.911595821,-0.08868980408,0.2956809998,2024-06-11 14:42:46.430759
22.47124058,4.70618248,-0.4807109833,0.8144254684,2024-06-11 14:42:46.471241
22.51171412,3.62135005,-1.434019089,-0.4881267548,2024-06-11 14:42:46.511714
22.5521961,2.868740559,0.3876814842,-1.777810812,2024-06-11 14:42:46.552196
22.59267214,-0.1251292229,2.026603699,-5.643701553,2024-06-11 14:42:46.592672
22.63313225,-2.598620653,1.440621376,-5.38822794,2024-06-11 14:42:46.633132
22.67360792,-3.046778917,-1.289415359,-0.4298100471,2024-06-11 14:42:46.673608
22.71412423,-7.035300255,-6.239327431,0.8380885124,2024-06-11 14:42:46.714124
22.7545711,-5.565431595,-2.509739876,1.258933306,2024-06-11 14:42:46.754571
22.7950586,-2.400341034,-0.4308795929,0.4323414564,2024-06-11 14:42:46.795059
22.83555605,0.8901369572,0.2198905945,0.4110788405,2024-06-11 14:42:46.835556
22.87603376,7.191794395,1.331238747,2.705827236,2024-06-11 14:42:46.876034
22.91644662,8.73267746,3.88998127,7.680205345,2024-06-11 14:42:46.916447
22.95696381,4.344999313,2.295100212,7.70400238,2024-06-11 14:42:46.956964
22.9974511,4.285399437,-3.162961006,-0.1731715351,2024-06-11 14:42:46.997451
23.03792917,3.023602486,-4.374175072,-4.309511185,2024-06-11 14:42:47.037929
23.07841423,-3.275918007,-2.888744354,-5.910260677,2024-06-11 14:42:47.078414
23.11889813,-5.343080521,-2.303665161,-7.733621597,2024-06-11 14:42:47.118898
23.15937777,-2.890093327,-1.162118912,-5.156272411,2024-06-11 14:42:47.159378
23.19985704,-3.149703979,1.945415497,-3.160229206,2024-06-11 14:42:47.199857
23.24036261,-2.67236495,4.256743908,-2.043023348,2024-06-11 14:42:47.240363
23.2808049,-1.284599543,1.65845108,-2.29049015,2024-06-11 14:42:47.280805
23.32126855,-1.448642015,-4.20241642,-2.672161579,2024-06-11 14:42:47.321269
23.36175068,-1.618008852,-2.248555183,13.93845081,2024-06-11 14:42:47.361751
23.4021823,-3.333010435,-1.081183434,-0.5170885324,2024-06-11 14:42:47.402182
23.44269756,-2.923667431,0.952375412,-0.5285995603,2024-06-11 14:42:47.442698
23.48319063,-3.508390903,-0.3470993042,-2.403031826,2024-06-11 14:42:47.483191
23.52369808,-2.121004581,-0.3188714981,-0.1331036389,2024-06-11 14:42:47.523698
23.56416475,-0.4528038502,0.0007991790771,1.776149869,2024-06-11 14:42:47.564165
23.60462891,-0.3224600554,0.01719856262,1.930843234,2024-06-11 14:42:47.604629
23.64504704,-4.033874989,-2.303040504,0.4708356261,2024-06-11 14:42:47.645047
23.68552449,-5.235604286,-3.089046478,-1.686065912,2024-06-11 14:42:47.685524
23.72600204,1.210925579,0.7757034302,-2.247007847,2024-06-11 14:42:47.726002
23.76647954,8.038047791,2.546735764,-3.397001266,2024-06-11 14:42:47.766480
23.80698912,6.459771156,1.12435627,-2.774515629,2024-06-11 14:42:47.806989
23.84748313,3.036371231,2.256697655,-3.333327055,2024-06-11 14:42:47.847483
23.88796298,3.261978388,-1.033419609,-3.384310961,2024-06-11 14:42:47.887963
23.92844048,-0.08018708229,-3.234625816,-2.918933392,2024-06-11 14:42:47.928440
23.96890881,2.545902729,1.491259575,0.6413451433,2024-06-11 14:42:47.968909
24.00945912,0.4556747675,-0.7897558212,2.210855007,2024-06-11 14:42:48.009459
24.04986798,-0.004562139511,-1.198168755,-1.449662447,2024-06-11 14:42:48.049868
24.09041787,1.904536009,1.515673161,-3.469530582,2024-06-11 14:42:48.090418
24.13083438,2.454850912,1.58378315,-4.640748501,2024-06-11 14:42:48.130834
24.17131188,1.890428543,-0.00412273407,-4.40767765,2024-06-11 14:42:48.171312
24.21183042,1.84018302,0.7538080215,-4.028711319,2024-06-11 14:42:48.211830
24.25226459,1.543616414,1.154854774,-3.700693607,2024-06-11 14:42:48.252265
24.2927586,1.840059876,0.601934433,-3.850960493,2024-06-11 14:42:48.292759
24.33322183,2.318016768,-1.981071472,-2.734074354,2024-06-11 14:42:48.333222
24.37371959,3.015177965,-2.310144424,-1.671056271,2024-06-11 14:42:48.373720
24.41419756,0.1822222471,-2.105822563,-3.4424088,2024-06-11 14:42:48.414198
24.45461464,-0.9035959244,-3.390132904,22.51160049,2024-06-11 14:42:48.454615
24.49509261,0.4757213593,-2.256786346,2.259632111,2024-06-11 14:42:48.495093
24.53557058,-2.943231821,-0.8313837051,4.187194824,2024-06-11 14:42:48.535571
24.57604855,-1.623636484,0.5006694794,0.6515740156,2024-06-11 14:42:48.576049
24.61655324,-0.8759304285,-0.941819191,-1.996841192,2024-06-11 14:42:48.616553
24.65703006,0.138456583,-0.2222471237,-1.202347755,2024-06-11 14:42:48.657030
24.69753605,0.3613317013,1.388421059,1.745008945,2024-06-11 14:42:48.697536
24.73799938,0.3514096737,0.05691432953,4.171327114,2024-06-11 14:42:48.737999
24.77850386,-0.2702798843,-0.02038860321,1.60008502,2024-06-11 14:42:48.778504
24.81900735,-1.867989779,-0.4207630157,0.7056895494,2024-06-11 14:42:48.819007
24.85943256,-2.24252224,-1.050005913,-1.046147227,2024-06-11 14:42:48.859433
24.89992121,-2.027869463,-0.3806362152,-0.2911986113,2024-06-11 14:42:48.899921
24.94039897,-1.50911057,-0.09560394287,1.163931847,2024-06-11 14:42:48.940399
24.98087631,0.1572277546,-0.2136087418,1.126247764,2024-06-11 14:42:48.980876
25.0213511,-0.8116955757,-0.07109546661,0.6755542159,2024-06-11 14:42:49.021351
25.06182152,-1.674190998,-0.1490306854,-1.093580723,2024-06-11 14:42:49.061822
25.10231272,-0.2136623859,0.5807771683,-2.096692801,2024-06-11 14:42:49.102313
25.14278167,3.234861374,2.275195599,1.029390812,2024-06-11 14:42:49.142782
25.18325949,2.322737932,-0.1039981842,3.677447081,2024-06-11 14:42:49.183259
25.22377714,1.733121872,-3.579027176,4.082736015,2024-06-11 14:42:49.223777
25.26423225,1.562057972,-2.369660378,2.90737915,2024-06-11 14:42:49.264232
25.30465298,2.118481636,0.127664566,-2.739205837,2024-06-11 14:42:49.304653
25.34513074,0.9519634247,1.05497694,-4.122653008,2024-06-11 14:42:49.345131
25.38559485,0.1719789505,2.208595276,-3.068409443,2024-06-11 14:42:49.385595
25.42608891,-0.7512216568,0.3127942085,-0.7311441898,2024-06-11 14:42:49.426089
25.46659647,-1.698148489,0.4535512924,-2.037285566,2024-06-11 14:42:49.466596
25.50707032,-1.900614738,1.996851921,-1.739167571,2024-06-11 14:42:49.507070
25.54756089,0.6793427467,2.361271858,-0.1850821972,2024-06-11 14:42:49.547561
25.58804449,3.010796547,1.867094994,1.147654653,2024-06-11 14:42:49.588044
25.62851615,3.323097229,0.7273468971,3.820674896,2024-06-11 14:42:49.628516
25.66898214,5.811623573,-1.068719864,8.592998505,2024-06-11 14:42:49.668982
25.70947652,2.498039722,0.06243133545,2.285218,2024-06-11 14:42:49.709477
25.74995292,2.549559116,-0.09905052185,-4.136312008,2024-06-11 14:42:49.749953
25.79043704,0.9923086166,-1.486302376,-2.54602623,2024-06-11 14:42:49.790437
25.8309248,-1.737448215,-0.1540117264,3.182555199,2024-06-11 14:42:49.830925
25.87138834,1.348603725,6.308549404,-6.272370815,2024-06-11 14:42:49.871388
25.91184938,2.400406837,2.16295433,5.921940804,2024-06-11 14:42:49.911849
25.9523449,1.746157646,-5.583749771,-5.707008362,2024-06-11 14:42:49.952345
25.99280782,-1.83915472,-1.90456295,-4.428157806,2024-06-11 14:42:49.992808
26.03330443,-3.049443483,0.3893356323,-4.898892403,2024-06-11 14:42:50.033304
26.07383933,-2.032161951,-0.9106321335,-2.920643806,2024-06-11 14:42:50.073839
26.11426699,-0.2672584057,-0.2417354584,3.24895072,2024-06-11 14:42:50.114267
26.15467308,-0.08228158951,-0.097864151,2.112131596,2024-06-11 14:42:50.154673
26.19515079,-0.3601384163,1.093903542,-0.03577634692,2024-06-11 14:42:50.195151
26.23564334,-0.690484643,0.824341774,0.1103228331,2024-06-11 14:42:50.235643
26.27615766,-0.1826789379,0.4151096344,0.1663408279,2024-06-11 14:42:50.276158
26.316646,1.578045368,0.4490728378,2.891251564,2024-06-11 14:42:50.316646
26.35710459,1.366562366,-0.2827301025,10.68571758,2024-06-11 14:42:50.357105
26.39752631,-3.508143663,-2.623114586,3.306487322,2024-06-11 14:42:50.397526
26.43805303,-3.907793045,-4.050840378,1.333917499,2024-06-11 14:42:50.438053
26.47855251,0.5301597118,-2.874008179,5.585175514,2024-06-11 14:42:50.478553
26.51903777,2.109142303,-1.536572456,2.924278021,2024-06-11 14:42:50.519038
26.5595173,3.05123806,-1.770623207,-3.537472248,2024-06-11 14:42:50.559517
26.59999209,8.018352509,-3.102827072,-4.585644722,2024-06-11 14:42:50.599992
26.64046006,3.473206758,-1.426416397,-5.388359547,2024-06-11 14:42:50.640460
26.68092193,-0.9280166626,0.585682869,-2.580789566,2024-06-11 14:42:50.680922
26.72142048,-6.285066605,0.1322951317,-7.171806335,2024-06-11 14:42:50.721420
26.7619036,-4.729978561,1.804935932,-4.029204845,2024-06-11 14:42:50.761904
26.80240511,-3.299867392,3.270324707,-5.034758568,2024-06-11 14:42:50.802405
26.84287188,-1.497591138,2.989283085,-4.878496647,2024-06-11 14:42:50.842872
26.88331787,4.742391586,0.6113061905,4.801501274,2024-06-11 14:42:50.883318
26.92378584,13.44844818,-6.992285728,13.55253506,2024-06-11 14:42:50.923786
26.96426376,4.934400558,-0.02420139313,1.391789913,2024-06-11 14:42:50.964264
27.00471615,2.525812626,1.127911568,-4.65155077,2024-06-11 14:42:51.004716
27.04518121,-2.138535023,-2.902274132,-2.7530725,2024-06-11 14:42:51.045181
27.08565902,-2.631474972,2.327008247,-6.330770016,2024-06-11 14:42:51.085659
27.12613683,-1.868555546,2.029309273,-5.154356956,2024-06-11 14:42:51.126137
27.16661787,-0.8163888454,-3.197900772,-5.889732361,2024-06-11 14:42:51.166618
27.20713652,-3.771238804,-3.085073471,-3.606945276,2024-06-11 14:42:51.207137
27.24761751,0.3011200428,0.1352977753,12.18514633,2024-06-11 14:42:51.247618
27.2881048,-1.283696651,0.8135414124,-1.278914928,2024-06-11 14:42:51.288105
27.32860641,1.037431002,1.919450283,-0.5914436579,2024-06-11 14:42:51.328606
27.36904485,1.88326335,1.166462898,1.156872272,2024-06-11 14:42:51.369045
27.40956006,2.1712327,-0.4983205795,3.085101604,2024-06-11 14:42:51.409560
27.45002298,-0.8716436625,-3.230093956,11.54562569,2024-06-11 14:42:51.450023
27.49049105,-3.952519894,-4.152439117,4.373339653,2024-06-11 14:42:51.490491
27.53098115,-0.77530545,-3.587790489,4.056932449,2024-06-11 14:42:51.530981
27.57146615,1.104399085,-1.931381226,5.57548666,2024-06-11 14:42:51.571466
27.61192303,-0.783929348,-2.727478027,-2.22501564,2024-06-11 14:42:51.611923
27.65245839,2.861697912,-4.153536797,-2.061779499,2024-06-11 14:42:51.652458
27.69289704,2.02665925,-5.785150528,-4.618334293,2024-06-11 14:42:51.692897
27.7333999,0.2575514317,0.8876800537,-4.55354166,2024-06-11 14:42:51.733400
27.7738922,-1.210008264,3.160909176,-5.952392101,2024-06-11 14:42:51.773892
27.81434787,-2.977124214,2.784973145,-9.930955887,2024-06-11 14:42:51.814348
27.85482574,-3.53672123,3.210175514,-5.103351593,2024-06-11 14:42:51.854826
27.89530532,-1.592030406,4.187849998,-6.769264221,2024-06-11 14:42:51.895305
27.93570428,-0.2134509087,-0.9849395752,-4.104474545,2024-06-11 14:42:51.935704
27.9761911,8.764143944,-10.8516283,28.07352448,2024-06-11 14:42:51.976191
28.01672886,1.803208828,1.938824177,-6.596328735,2024-06-11 14:42:52.016729
28.05718673,2.372110605,-0.4746589661,-4.714269638,2024-06-11 14:42:52.057187
28.09765636,1.354295015,-3.237714767,-5.276052475,2024-06-11 14:42:52.097656
28.13812027,-0.7800519466,2.942641735,-7.557630539,2024-06-11 14:42:52.138120
28.17859902,-1.947768927,-0.0604391098,-4.303208828,2024-06-11 14:42:52.178599
28.21909996,-1.532059431,-3.878821373,-1.252074003,2024-06-11 14:42:52.219100
28.25956782,-2.320275784,0.487159729,4.326710224,2024-06-11 14:42:52.259568
28.30004553,0.2764804363,-0.08546829224,4.882480621,2024-06-11 14:42:52.300046
28.34054136,-0.5888098478,0.5467433929,-0.2316481471,2024-06-11 14:42:52.340541
28.38098595,0.01526796818,1.908097267,1.680936098,2024-06-11 14:42:52.380986
28.42145943,4.09599781,0.8846769333,7.838026047,2024-06-11 14:42:52.421459
28.46197652,1.295633554,-1.645898819,7.042658806,2024-06-11 14:42:52.461977
28.50245303,2.995446444,1.770479202,4.942465305,2024-06-11 14:42:52.502453
28.5429322,-0.3720974922,1.417669773,-2.699908018,2024-06-11 14:42:52.542932
28.58338391,-3.074901819,-6.44836998,-2.962473631,2024-06-11 14:42:52.583384
28.62394193,0.2196500301,-20.02280045,-2.099470139,2024-06-11 14:42:52.623942
28.66432089,2.95851922,-5.66217804,-4.226036072,2024-06-11 14:42:52.664321
28.70479084,-1.522620916,3.804706097,-12.40418816,2024-06-11 14:42:52.704791
28.74532423,-3.739703894,4.819493771,-11.23823071,2024-06-11 14:42:52.745324
28.78575058,-4.017192364,4.853136063,-9.199437141,2024-06-11 14:42:52.785751
28.82624652,-2.734405279,2.159767628,-7.225635529,2024-06-11 14:42:52.826247
28.86673048,11.65097713,-3.205670357,8.525093079,2024-06-11 14:42:52.866730
28.90722777,5.616439819,-3.218206882,4.967089653,2024-06-11 14:42:52.907228
28.94770381,5.56704855,2.871137619,-7.124438286,2024-06-11 14:42:52.947704
28.98817386,3.037758827,-0.7538461685,-6.00211525,2024-06-11 14:42:52.988174
29.02865105,-5.513463974,-5.447756767,-3.04117775,2024-06-11 14:42:53.028651
29.06914709,-4.255324841,-3.580013275,2.017067671,2024-06-11 14:42:53.069147
29.10961725,-2.435550213,0.5027627945,4.570578575,2024-06-11 14:42:53.109617
29.150071,0.59496665,0.7017273903,-0.8555095196,2024-06-11 14:42:53.150071
29.19058881,-1.986751556,-1.313043594,-0.4933464527,2024-06-11 14:42:53.190589
29.23105579,-0.4486563206,-0.4468173981,-1.103700399,2024-06-11 14:42:53.231056
29.27155985,-0.8709583282,-1.518630981,-1.028897762,2024-06-11 14:42:53.271560
29.31200006,0.0917069912,-2.806339264,-2.546509743,2024-06-11 14:42:53.312000
29.35247527,2.357566833,1.943428516,-3.561791658,2024-06-11 14:42:53.352475
29.39291386,1.385370493,3.100739002,-3.069244862,2024-06-11 14:42:53.392914
29.43341412,0.943764925,-1.117498398,3.702693462,2024-06-11 14:42:53.433414
29.47395667,-0.04672002792,-1.443984032,2.362239122,2024-06-11 14:42:53.473957
29.51440506,-2.373545408,-0.3217153549,0.7294929028,2024-06-11 14:42:53.514405
29.5548374,-3.408195496,-1.654314995,-0.4993479252,2024-06-11 14:42:53.554837
29.59531647,-3.747214317,-2.647195816,-1.677664042,2024-06-11 14:42:53.595316
29.63578996,-1.164906025,-0.4108963013,-1.638680816,2024-06-11 14:42:53.635790
29.67627214,-0.3121185303,-0.4713869095,-2.166527748,2024-06-11 14:42:53.676272
29.71675699,-3.693473577,-2.644028664,-2.322764158,2024-06-11 14:42:53.716757
29.75723891,-5.433450699,-2.814677238,-2.525836945,2024-06-11 14:42:53.757239
29.79774266,-4.920987606,-1.364253044,-1.512787104,2024-06-11 14:42:53.797743
29.83821996,-2.204739809,0.3007230759,-2.328624725,2024-06-11 14:42:53.838220
29.87868318,1.30010581,0.2612962723,-1.373542309,2024-06-11 14:42:53.878683
29.91915699,6.459821224,-2.987215042,0.1313544512,2024-06-11 14:42:53.919157
29.95963829,6.861340046,-4.142104149,0.5096693635,2024-06-11 14:42:53.959638
30.00011714,6.23856926,1.744225502,2.288811445,2024-06-11 14:42:54.000117
30.04060558,1.217684269,0.1770830154,3.455471277,2024-06-11 14:42:54.040606
30.08109516,1.760926247,-0.712053299,1.417871118,2024-06-11 14:42:54.081095
30.12156943,0.8518686295,0.9001350403,-2.058806658,2024-06-11 14:42:54.121569
30.16204407,-1.993210316,3.291912079,-4.838525772,2024-06-11 14:42:54.162044
30.20251542,-3.142356634,2.866865635,-4.698753357,2024-06-11 14:42:54.202515
30.24299449,-2.623093367,0.2773551941,-0.1146857738,2024-06-11 14:42:54.242994
30.28351256,-2.372323513,0.7116918564,-2.629602909,2024-06-11 14:42:54.283513
30.32400053,-0.4256277084,1.643314362,0.409309864,2024-06-11 14:42:54.324001
30.36447397,2.806177855,2.640557766,1.237822294,2024-06-11 14:42:54.364474
30.4048412,3.007605076,0.3419818878,6.011754036,2024-06-11 14:42:54.404841
30.44533808,1.975208044,-2.804585457,1.873177767,2024-06-11 14:42:54.445338
30.48582506,5.130223274,-6.593663216,-3.275706768,2024-06-11 14:42:54.485825
30.52635412,2.118276119,-2.644007683,-2.767543077,2024-06-11 14:42:54.526354
30.56680621,0.2098200321,7.061870098,-2.501382351,2024-06-11 14:42:54.566806
30.60731199,1.08453989,7.795488834,-1.72909236,2024-06-11 14:42:54.607312
30.64775803,2.582140446,-2.000138283,-0.9187844396,2024-06-11 14:42:54.647758
30.68824631,-0.3442287445,-4.423552513,-2.882358313,2024-06-11 14:42:54.688246
30.72872131,-2.014160156,-0.001719474792,2.783549309,2024-06-11 14:42:54.728721
30.7692012,-1.71244514,0.8243722916,1.374527931,2024-06-11 14:42:54.769201
30.8096635,-0.2848550081,0.6201992035,0.4797899425,2024-06-11 14:42:54.809663
30.85018105,-0.1117937565,1.561274529,0.9397849441,2024-06-11 14:42:54.850181
30.89064464,0.3545292616,1.404825211,0.7988820076,2024-06-11 14:42:54.890645
30.93112303,0.5700849295,-0.4935760498,2.061523438,2024-06-11 14:42:54.931123
30.97160714,-1.775957465,-2.423872948,7.487523556,2024-06-11 14:42:54.971607
31.01208006,-3.336551666,-2.843153,2.305212736,2024-06-11 14:42:55.012080
31.05256657,-1.778920531,-4.342022896,3.096791267,2024-06-11 14:42:55.052567
31.09304678,0.2742944956,-2.461798668,4.443660259,2024-06-11 14:42:55.093047
31.13352798,1.043426752,-1.532030106,0.5608605146,2024-06-11 14:42:55.133528
31.17400641,4.67813015,-0.8989543915,-2.765656471,2024-06-11 14:42:55.174006
31.21443298,3.56770134,-3.857963562,-4.471842289,2024-06-11 14:42:55.214433
31.25491136,-0.1698215008,-0.2686786652,-4.062443256,2024-06-11 14:42:55.254911
31.2953898,-1.247899413,1.651913643,-3.844679356,2024-06-11 14:42:55.295390
31.33586824,-3.657668591,0.5110425949,-8.804694176,2024-06-11 14:42:55.335868
31.37637376,-3.484531164,1.342734814,-3.791461468,2024-06-11 14:42:55.376374
31.41679897,-1.193630457,3.244185448,-4.947113037,2024-06-11 14:42:55.416799
31.45733084,0.6768229008,3.075803757,-6.093940735,2024-06-11 14:42:55.457331
31.49783214,2.779667854,0.5703334808,0.1604585648,2024-06-11 14:42:55.497832
31.53830011,7.236303329,-8.150392532,19.13956833,2024-06-11 14:42:55.538300
31.57876256,4.592878342,1.294465542,0.8417308331,2024-06-11 14:42:55.578763
31.61922334,3.376656055,-1.272101402,-4.848366261,2024-06-11 14:42:55.619223
31.65969647,1.523525,-5.042243958,-3.392720461,2024-06-11 14:42:55.659696
31.70020355,-1.196692228,3.416225433,-6.281928062,2024-06-11 14:42:55.700204
31.7406824,-3.633835793,3.553386688,-4.727737904,2024-06-11 14:42:55.740682
31.78112798,-0.3296296597,-3.188157082,-6.545607567,2024-06-11 14:42:55.781128
31.82166766,-1.79377234,-3.011135101,-1.700095177,2024-06-11 14:42:55.821668
31.86209303,-1.683549762,2.454293251,0.3968283832,2024-06-11 14:42:55.862093
31.90259496,-0.2101897001,1.010649681,0.710038662,2024-06-11 14:42:55.902595
31.94307371,3.596491814,0.06140232086,9.501694679,2024-06-11 14:42:55.943074
31.98357917,-2.280693293,0.2053146362,0.8033379316,2024-06-11 14:42:55.983579
32.02405553,-1.18672061,-0.06795024872,-1.240843534,2024-06-11 14:42:56.024056
32.0644799,-0.2244448662,-1.084136963,1.15552175,2024-06-11 14:42:56.064480
32.10495844,-2.297832489,-1.786293983,7.911077499,2024-06-11 14:42:56.104958
32.14543699,-3.315618038,-2.891079903,0.8080010414,2024-06-11 14:42:56.145437
32.18591548,0.21654737,-4.205435753,2.627526045,2024-06-11 14:42:56.185915
32.22639844,2.279273987,-1.262737274,7.309632778,2024-06-11 14:42:56.226398
32.26688574,0.3736217022,-0.7513303757,0.0718973875,2024-06-11 14:42:56.266886
32.30736282,4.41603756,-1.349757195,-3.475883484,2024-06-11 14:42:56.307363
32.34783376,1.209149837,-3.581451416,-5.153903008,2024-06-11 14:42:56.347834
32.38830272,-1.386269569,-1.292056084,-3.251646042,2024-06-11 14:42:56.388303
32.4287898,-1.797743797,-0.3403606415,-5.608615875,2024-06-11 14:42:56.428790
32.46928178,-2.825684547,0.7890219688,-6.811337948,2024-06-11 14:42:56.469282
32.509751,-1.976349473,2.145332813,-2.99860239,2024-06-11 14:42:56.509751
32.55022548,0.05469989777,3.351680756,-5.986206055,2024-06-11 14:42:56.550225
32.59069891,0.4989392757,3.539761066,-4.750213146,2024-06-11 14:42:56.590699
32.63118147,2.599128008,1.103064537,0.5100245476,2024-06-11 14:42:56.631181
32.6716623,2.999742746,-7.973392487,15.34366798,2024-06-11 14:42:56.671662
32.71214266,2.64474678,-0.4105129242,3.148479223,2024-06-11 14:42:56.712143
32.75262949,2.122506618,-1.280261993,-3.777274132,2024-06-11 14:42:56.752629
32.79311454,0.9488339424,-4.899122238,-2.248451471,2024-06-11 14:42:56.793115
32.83362318,-1.724094868,2.558329105,-5.014271736,2024-06-11 14:42:56.833623
32.87408433,-2.892900467,4.876337051,-4.858086586,2024-06-11 14:42:56.874084
32.91452183,0.5449545383,-1.250588417,-5.396127701,2024-06-11 14:42:56.914522
32.95498011,-0.1482634544,-4.546656609,-1.908574581,2024-06-11 14:42:56.954980
32.99545829,-0.5404384136,0.8199729919,0.9924132824,2024-06-11 14:42:56.995458
33.03595183,2.879969358,2.22185421,6.667760372,2024-06-11 14:42:57.035952
33.07643667,0.279096365,-0.532916069,1.717502117,2024-06-11 14:42:57.076437
33.11691167,-0.6527354717,0.9732913971,0.4531682134,2024-06-11 14:42:57.116912
33.1573885,-1.307451963,0.5989112854,0.428316474,2024-06-11 14:42:57.157389
33.19787209,-1.119169235,-1.009667397,-0.2329369783,2024-06-11 14:42:57.197872
33.23835084,-0.4317345619,-0.6346950531,3.428479671,2024-06-11 14:42:57.238351
33.27883423,-2.295725346,-0.9069271088,6.119727135,2024-06-11 14:42:57.278834
33.31931496,-1.655951023,-4.16456604,3.953406334,2024-06-11 14:42:57.319315
33.35980345,1.368894458,-2.550540924,5.513161182,2024-06-11 14:42:57.359803
33.40028725,-1.356748819,-1.868585587,0.7213704586,2024-06-11 14:42:57.400287
33.44076141,3.552199602,-0.7713470459,-3.048727274,2024-06-11 14:42:57.440761
33.48123647,5.905935287,-3.57909584,-5.733545303,2024-06-11 14:42:57.481236
33.52171318,0.4925305843,-1.791210175,-4.151705742,2024-06-11 14:42:57.521713
33.56217209,-2.059649944,0.7239723206,-2.722638845,2024-06-11 14:42:57.562172
33.6026572,-3.49456358,0.5229063034,-7.599931717,2024-06-11 14:42:57.602657
33.64310423,-2.610155106,1.9090271,-4.347057343,2024-06-11 14:42:57.643104
33.68363084,0.1028194427,3.704965591,-4.883928776,2024-06-11 14:42:57.683631
33.7241435,0.5413403511,2.574367523,-5.945962429,2024-06-11 14:42:57.724143
33.76455329,3.175608873,-0.09719657898,-1.041692138,2024-06-11 14:42:57.764553
33.80501496,4.606624603,-4.96191597,18.4209404,2024-06-11 14:42:57.805015
33.84547527,3.443399906,-0.2769269943,2.479344845,2024-06-11 14:42:57.845475
33.88600235,3.015186548,-6.353325844,-2.515204668,2024-06-11 14:42:57.886002
33.92648042,1.307262897,-4.301681519,-4.368301868,2024-06-11 14:42:57.926480
33.96696459,-1.44145298,5.30900383,-6.059732914,2024-06-11 14:42:57.966965
34.00745006,-1.397221565,6.963197708,-3.994523287,2024-06-11 14:42:58.007450
34.04791975,4.139113903,-1.930689812,-6.096419334,2024-06-11 14:42:58.047920
34.08839522,2.852796316,-6.006121635,-5.585574627,2024-06-11 14:42:58.088395
34.12887667,-0.359341383,1.367030144,-4.866647243,2024-06-11 14:42:58.128877
34.1693097,-7.112155914,-2.48118782,15.23501778,2024-06-11 14:42:58.169310
34.2098336,1.628354073,0.4432163239,-1.334175825,2024-06-11 14:42:58.209834
34.25030438,-0.5734871626,0.7626972198,-1.753068686,2024-06-11 14:42:58.250304
34.29079157,1.844970703,0.1897678375,-1.818179846,2024-06-11 14:42:58.290792
34.33126459,0.07574605942,-0.004769325256,5.178670883,2024-06-11 14:42:58.331265
34.37175574,0.1967988014,0.8267326355,-1.79831636,2024-06-11 14:42:58.371756
34.41222605,1.36529541,0.2948732376,-3.23701787,2024-06-11 14:42:58.412226
34.45269933,1.101345062,-2.525822639,-5.634907722,2024-06-11 14:42:58.452699
34.4931711,-0.8178811073,-4.910972595,-6.989209175,2024-06-11 14:42:58.493171
34.53369772,0.2454874516,-2.422782898,-6.763834476,2024-06-11 14:42:58.533698
34.57417808,-1.737400651,0.4962654114,-2.353639126,2024-06-11 14:42:58.574178
34.61455652,-0.653075695,1.28249073,-0.6811459064,2024-06-11 14:42:58.614557
34.65504485,2.01748085,0.6459417343,-0.5161916018,2024-06-11 14:42:58.655045
34.69552318,2.916888237,1.630460739,7.903616905,2024-06-11 14:42:58.695523
34.73602959,0.5694277287,3.453368187,-0.1730380058,2024-06-11 14:42:58.736030
34.77653157,-2.036137342,-0.0935459137,-3.137268782,2024-06-11 14:42:58.776532
34.81705657,-1.550632954,0.3247203827,-4.833841324,2024-06-11 14:42:58.817057
34.85745173,-0.8948562145,0.8408317566,-4.98377037,2024-06-11 14:42:58.857452
34.89793777,1.139653206,-1.772938728,1.037958264,2024-06-11 14:42:58.897938
34.93841553,1.873303652,-1.441345215,4.385753155,2024-06-11 14:42:58.938416
34.97891428,2.208038092,1.096658707,2.002518892,2024-06-11 14:42:58.978914
35.0193736,1.946134806,0.9151248932,2.428624868,2024-06-11 14:42:59.019374
35.05988527,2.035729647,1.090702057,1.881682515,2024-06-11 14:42:59.059885
35.10032094,0.6602292061,0.8293905258,0.4902355671,2024-06-11 14:42:59.100321
35.14083329,2.460771799,-0.4510889053,0.07685834169,2024-06-11 14:42:59.140833
35.18134907,4.826579094,-2.729369164,-0.2625816464,2024-06-11 14:42:59.181349
35.22183454,0.1916460991,-5.258609772,-1.157726645,2024-06-11 14:42:59.221835
35.26225016,-4.683951378,-0.6833314896,5.051422119,2024-06-11 14:42:59.262250
35.30272339,-6.532772064,-0.1668930054,2.762226105,2024-06-11 14:42:59.302723
35.34318746,-3.324977636,0.04810333252,1.48380363,2024-06-11 14:42:59.343187
35.3837549,-1.105454922,2.411857128,0.01161375642,2024-06-11 14:42:59.383755
35.42410647,-1.075291157,2.280468941,-0.7826459408,2024-06-11 14:42:59.424106
35.46468105,-0.6912977695,0.5983066559,-2.842587948,2024-06-11 14:42:59.464681
35.5051461,-3.105105162,-2.454260826,-4.129873276,2024-06-11 14:42:59.505146
35.54560303,-2.937298775,-1.417995453,0.06781518459,2024-06-11 14:42:59.545603
35.58608178,1.304618835,0.5086727142,6.3337183,2024-06-11 14:42:59.586082
35.6265573,-0.3167321682,-0.2091274261,5.86149025,2024-06-11 14:42:59.626557
35.66702574,-1.178171992,0.2157716751,0.1615792513,2024-06-11 14:42:59.667026
35.70750959,-0.5604534149,-0.3699769974,-1.255943537,2024-06-11 14:42:59.707510
35.74799496,-0.8103652596,-0.7542695999,-1.058800101,2024-06-11 14:42:59.747995
35.78846209,0.319163084,0.03381347656,0.07753098011,2024-06-11 14:42:59.788462
35.82893147,1.06314683,-0.8888950348,0.5655943155,2024-06-11 14:42:59.828931
35.86942344,1.508913994,-0.4533586502,5.555140972,2024-06-11 14:42:59.869423
35.90990037,-0.7169918418,-0.6454582214,6.061029434,2024-06-11 14:42:59.909900
35.95037506,-1.604391694,-1.252415657,3.704368353,2024-06-11 14:42:59.950375
35.99084881,-1.968520641,-4.11737442,2.27354002,2024-06-11 14:42:59.990849
36.03133042,-2.320244551,-3.936994553,4.333170414,2024-06-11 14:43:00.031330
36.07180261,1.688767433,-1.763730049,0.8658126593,2024-06-11 14:43:00.071803
36.11228725,5.362593651,-0.7014770508,-5.022234917,2024-06-11 14:43:00.112287
36.15277985,4.198122025,-1.290966988,-6.578962326,2024-06-11 14:43:00.152780
36.19326407,2.716305733,0.8547263145,-6.510165215,2024-06-11 14:43:00.193264
36.23374923,-2.991157293,-1.454644203,-2.690768719,2024-06-11 14:43:00.233749
36.27420943,-5.482545853,-1.603102207,-4.985873222,2024-06-11 14:43:00.274209
36.31468933,-3.671355009,0.7448449135,-6.999080181,2024-06-11 14:43:00.314689
36.35518105,-1.16765976,1.559645176,-6.698525906,2024-06-11 14:43:00.355181
36.39561683,2.365064621,0.7098464966,-1.946036577,2024-06-11 14:43:00.395617
36.43612037,3.357425213,1.664471626,-3.594356537,2024-06-11 14:43:00.436120
36.47658423,6.920721054,6.862060547,-1.029137373,2024-06-11 14:43:00.476584
36.51706042,4.79818058,0.5508637428,7.405017853,2024-06-11 14:43:00.517060
36.55755542,0.6409945488,-2.254498959,-0.3602194786,2024-06-11 14:43:00.557555
36.59801954,0.8000302315,-1.598678589,4.452299595,2024-06-11 14:43:00.598020
36.63850261,5.169075489,2.421745062,1.78885603,2024-06-11 14:43:00.638503
36.67897152,-4.036710739,2.076932669,-3.581454039,2024-06-11 14:43:00.678972
36.71946407,-0.3169784546,-12.83583736,7.417472363,2024-06-11 14:43:00.719464
36.7599448,-6.819981098,-6.914267063,-1.106437683,2024-06-11 14:43:00.759945
36.80043001,8.137629509,-1.350874782,1.75331974,2024-06-11 14:43:00.800430
36.84089912,0.003206253052,-3.891435146,-1.398621798,2024-06-11 14:43:00.840899
36.8813898,0.4508190155,-3.24257803,-1.429756165,2024-06-11 14:43:00.881390
36.92187824,0.570101738,-0.7684098482,0.1394171715,2024-06-11 14:43:00.921878
36.96234506,-2.227392197,-0.8518481255,-0.2357735634,2024-06-11 14:43:00.962345
37.00281891,-0.5940899849,-0.4646475315,1.949384689,2024-06-11 14:43:01.002819
37.04331282,-1.127493382,-0.1103458405,0.9364333153,2024-06-11 14:43:01.043313
37.0838099,-1.774665833,-1.207539082,0.2625794411,2024-06-11 14:43:01.083810
37.12424178,-1.340648174,-1.892589569,1.255937099,2024-06-11 14:43:01.124242
37.16472782,-0.2069077492,-1.170945168,-0.1166305542,2024-06-11 14:43:01.164728
37.20522006,-0.0233259201,-0.02869749069,0.5387887955,2024-06-11 14:43:01.205220
37.24565027,-0.007791042328,0.9841322899,1.064612389,2024-06-11 14:43:01.245650
37.28621246,-1.080311775,-0.1683526039,0.5906653404,2024-06-11 14:43:01.286212
37.326621,-0.4029145241,-0.6663508415,0.3743896484,2024-06-11 14:43:01.326621
37.3671537,-0.1976237297,-0.06208658218,1.03977704,2024-06-11 14:43:01.367154
37.40751897,0.6812677383,0.0823135376,1.590205431,2024-06-11 14:43:01.407519
37.44808344,3.921267033,0.387928009,1.232021809,2024-06-11 14:43:01.448083
37.48852907,6.092747688,2.618776321,3.403786182,2024-06-11 14:43:01.488529
37.52901891,8.314489365,3.134376526,3.772428989,2024-06-11 14:43:01.529019
37.56948584,5.551665783,2.857777596,-1.93815279,2024-06-11 14:43:01.569486
37.60996766,-1.101739407,2.054955006,-4.410624504,2024-06-11 14:43:01.609968
37.65044766,-3.201472998,-2.23559618,-4.001054287,2024-06-11 14:43:01.650448
37.69092563,-2.587916851,-1.491312504,-1.385356426,2024-06-11 14:43:01.690926
37.73140704,-3.521121025,0.1514434814,-1.057860374,2024-06-11 14:43:01.731407
37.77186725,-2.740503073,0.09581661224,2.352772236,2024-06-11 14:43:01.771867
37.81239355,-1.435644627,0.2950057983,6.640069962,2024-06-11 14:43:01.812394
37.85282001,1.499994755,4.213717937,3.15597105,2024-06-11 14:43:01.852820
37.8933335,1.620332479,4.136611462,-0.1167047024,2024-06-11 14:43:01.893333
37.93381199,0.9092841148,-2.391571999,-0.6826151609,2024-06-11 14:43:01.933812
37.97429298,5.49510479,-10.38019085,6.079110146,2024-06-11 14:43:01.974293
38.01471657,1.0324018,3.008680344,-5.242667198,2024-06-11 14:43:02.014717
38.05519777,2.522648573,7.656742573,-2.583716154,2024-06-11 14:43:02.055198
38.09567626,2.385294676,3.598418236,-0.7212002277,2024-06-11 14:43:02.095676
38.13622303,2.013060331,-0.7338762283,0.7496039867,2024-06-11 14:43:02.136223
38.17667027,0.2931361198,-1.09738636,-0.8837044835,2024-06-11 14:43:02.176670
38.21715589,-2.53689146,-1.926341057,2.412971497,2024-06-11 14:43:02.217156
38.25762511,-2.635267019,-1.005655289,0.3758827448,2024-06-11 14:43:02.257625
38.2981185,-1.850588441,-0.03136539459,-1.025153995,2024-06-11 14:43:02.298119
38.33858376,-1.034684539,0.5390377045,-0.1903555989,2024-06-11 14:43:02.338584
38.37904313,-0.702285409,0.917634964,0.3302918077,2024-06-11 14:43:02.379043
38.41947803,0.1613621712,0.0967092514,0.3408712149,2024-06-11 14:43:02.419478
38.46002178,0.09315514565,0.4186172485,1.656808615,2024-06-11 14:43:02.460022
38.50049584,-0.4895492792,0.5450248718,6.18419838,2024-06-11 14:43:02.500496
38.54098152,-3.244364262,-2.845397949,2.989379406,2024-06-11 14:43:02.540982
38.58143256,-0.4829596281,-4.477365494,2.338586807,2024-06-11 14:43:02.581433
38.62195063,1.64155519,-4.04488945,3.317709208,2024-06-11 14:43:02.621951
38.66245542,2.346209526,-0.5306749344,1.219542503,2024-06-11 14:43:02.662455
38.70288746,4.85158062,1.881107807,-3.224726677,2024-06-11 14:43:02.702887
38.74334579,6.418165207,0.621515274,-4.2297225,2024-06-11 14:43:02.743346
38.78387886,3.53636241,1.482866764,-4.530462742,2024-06-11 14:43:02.783879
38.82433813,-2.358977318,-1.103544235,-0.9587156773,2024-06-11 14:43:02.824338
38.8647461,-3.467907906,-1.055758476,-2.230588913,2024-06-11 14:43:02.864746
38.90530662,-2.203864574,1.205737591,-3.366555452,2024-06-11 14:43:02.905307
38.94572141,2.865840435,1.971117496,-0.4147171974,2024-06-11 14:43:02.945721
38.98621954,5.832337856,2.699136734,6.384572029,2024-06-11 14:43:02.986220
39.0267098,-2.97287631,4.90862751,-1.176754951,2024-06-11 14:43:03.026710
39.06717251,-2.339528561,4.061970711,-3.055182457,2024-06-11 14:43:03.067173
39.10765277,1.441035748,-2.454108238,-2.912341595,2024-06-11 14:43:03.107653
39.14813636,5.453274727,-4.306513786,-1.093497753,2024-06-11 14:43:03.148136
39.18860345,7.616351128,-3.476822853,-1.152732134,2024-06-11 14:43:03.188603
39.22911792,4.374657631,2.325980663,-0.6200646758,2024-06-11 14:43:03.229118
39.26957725,0.7019031048,7.559951305,-0.9178295135,2024-06-11 14:43:03.269577
39.31004542,0.1951897144,4.479594707,-0.5215462446,2024-06-11 14:43:03.310045
39.3505361,3.011250257,-0.8133630753,-2.358579159,2024-06-11 14:43:03.350536
39.3909822,-2.380983829,0.505232811,-2.486952782,2024-06-11 14:43:03.390982
39.43144985,-6.199502945,-2.869943619,-0.8847862482,2024-06-11 14:43:03.431450
39.47197542,-3.781260967,-3.79913044,5.923526287,2024-06-11 14:43:03.471975
39.51244225,-5.366194725,-6.487338066,-1.650529981,2024-06-11 14:43:03.512442
39.55291391,-7.723600388,-8.995871544,14.30180168,2024-06-11 14:43:03.552914
39.59340761,-3.381861687,-9.717281342,12.47711182,2024-06-11 14:43:03.593408
39.63390459,-2.084089518,-6.15374279,12.198349,2024-06-11 14:43:03.633905
39.67431772,-6.217882156,-3.090102196,-3.290846586,2024-06-11 14:43:03.674318
39.71477829,-0.7581632137,0.7239265442,-3.582979441,2024-06-11 14:43:03.714778
39.75526667,7.082315445,-4.295251846,-5.821797371,2024-06-11 14:43:03.755267
39.7957711,13.82560825,-9.677666664,-5.671612263,2024-06-11 14:43:03.795771
39.83626787,8.597148895,-3.003237724,-6.174681664,2024-06-11 14:43:03.836268
39.87675376,1.112992287,5.456145763,-3.597275019,2024-06-11 14:43:03.876754
39.91723308,-8.004401207,4.407524109,-2.589290619,2024-06-11 14:43:03.917233
39.95771506,-11.7177372,3.004584789,-4.169131756,2024-06-11 14:43:03.957715
39.99820605,-9.337322235,4.599636555,-3.327021599,2024-06-11 14:43:03.998206
40.0386722,2.903993607,4.490539551,9.790602684,2024-06-11 14:43:04.038672
40.07913277,7.458836555,-1.26287365,-0.4308180809,2024-06-11 14:43:04.079133
40.11962839,12.76473904,-7.850480556,-4.183326244,2024-06-11 14:43:04.119628
40.16011782,0.5102586746,-3.292529583,-14.41884327,2024-06-11 14:43:04.160118
40.20054118,-6.003922462,-3.561166763,-13.58619308,2024-06-11 14:43:04.200541
40.24104129,-4.184514523,-9.26924324,-5.256980896,2024-06-11 14:43:04.241041
40.28153071,-3.813277245,-7.851290703,-2.975096703,2024-06-11 14:43:04.281531
40.32199967,-4.952231884,-3.69379425,-7.806779861,2024-06-11 14:43:04.322000
40.36248306,7.240339279,-1.075128555,41.36900711,2024-06-11 14:43:04.362483
40.40296738,-3.408500195,1.212410927,-1.016677141,2024-06-11 14:43:04.402967
40.44347863,-3.256886721,7.061806679,5.996325493,2024-06-11 14:43:04.443479
40.4839629,-1.66960156,8.315146446,-1.756583214,2024-06-11 14:43:04.483963
40.52438686,-1.586880207,5.744436264,-0.9029819965,2024-06-11 14:43:04.524387
40.56484108,6.85771656,-11.62854671,-3.365887165,2024-06-11 14:43:04.564841
40.60531993,8.212745667,-25.64757538,-1.241877913,2024-06-11 14:43:04.605320
40.64578504,-4.322646141,-2.667054176,2.562484503,2024-06-11 14:43:04.645785
40.68629623,-0.8884220123,2.731075287,-7.923224926,2024-06-11 14:43:04.686296
40.7267903,-1.686875701,5.038874626,-7.090659142,2024-06-11 14:43:04.726790
40.76723889,-3.137458801,6.489975929,-5.750061989,2024-06-11 14:43:04.767239
40.80774972,-4.155211449,6.696075439,-3.937490702,2024-06-11 14:43:04.807750
40.84822149,-2.639249802,2.212630749,11.08916664,2024-06-11 14:43:04.848221
40.88868842,9.242895126,-6.380150318,-18.95842743,2024-06-11 14:43:04.888688
40.92916733,3.780149698,-13.35234833,-9.958629608,2024-06-11 14:43:04.929167
40.96964254,-1.190201044,-12.72712135,-5.50357151,2024-06-11 14:43:04.969643
41.0101291,-3.941279411,-10.10512924,1.050235271,2024-06-11 14:43:05.010129
41.05059832,-0.031219244,-5.262494087,-7.888155937,2024-06-11 14:43:05.050598
41.09106639,0.7829976082,-1.57612896,2.93025279,2024-06-11 14:43:05.091066
41.13156478,0.008508205414,2.815729618,1.085956097,2024-06-11 14:43:05.131565
41.17204285,2.199000359,6.483541012,1.179661751,2024-06-11 14:43:05.172043
41.21250759,4.051692963,6.328903675,-4.764492035,2024-06-11 14:43:05.212508
41.25299118,-0.4244937897,-4.375418663,-6.102785587,2024-06-11 14:43:05.252991
41.29350665,-8.245027542,-6.19652462,-3.89205265,2024-06-11 14:43:05.293507
41.33399446,-5.572014332,0.01297283173,-8.807982445,2024-06-11 14:43:05.333994
41.37441467,11.1463232,1.24049139,-3.163344145,2024-06-11 14:43:05.374415
41.41486894,14.6357832,-5.836831093,-3.523871899,2024-06-11 14:43:05.414869
41.45534702,9.06068325,-7.989163399,6.147620678,2024-06-11 14:43:05.455347
41.49582483,2.937350273,-1.925244331,5.263654232,2024-06-11 14:43:05.495825
41.5363004,-0.1331443787,2.386048317,4.793550968,2024-06-11 14:43:05.536300
41.57681264,1.232306957,3.101081848,1.990888357,2024-06-11 14:43:05.576813
41.61731795,0.4455194473,-1.414793968,1.010282278,2024-06-11 14:43:05.617318
41.65778993,-2.047264814,-9.085716248,-3.491023064,2024-06-11 14:43:05.657790
41.69825389,-9.714084625,-7.018882751,0.7509681582,2024-06-11 14:43:05.698254
41.7387405,-8.501301765,-0.963262558,2.03698945,2024-06-11 14:43:05.738740
41.77920733,-6.002310276,1.027730942,1.906529784,2024-06-11 14:43:05.779207
41.8196678,-4.229342937,0.7015008926,-0.2334830314,2024-06-11 14:43:05.819668
41.86016504,-3.066331863,1.502232552,-1.874144793,2024-06-11 14:43:05.860165
41.9006353,-3.193675041,3.370943069,-4.218398571,2024-06-11 14:43:05.900635
41.94111337,-2.490847111,2.895360947,-1.878090858,2024-06-11 14:43:05.941113
41.98157957,-1.886635661,1.929973602,0.6202262044,2024-06-11 14:43:05.981580
42.02205498,1.699486494,-1.813555717,10.19407082,2024-06-11 14:43:06.022055
42.06256228,-1.210700989,-1.171636581,2.946139812,2024-06-11 14:43:06.062562
42.10301352,-3.027814627,-1.572137833,0.2245855331,2024-06-11 14:43:06.103014
42.14356431,-2.996934414,-1.98086071,6.116170883,2024-06-11 14:43:06.143564
42.18404217,-4.140949249,-4.023038864,4.665161133,2024-06-11 14:43:06.184042
42.22445009,-5.304615498,-6.108204842,4.2702775,2024-06-11 14:43:06.224450
42.26492795,1.342893481,-3.197955132,8.127900124,2024-06-11 14:43:06.264928
42.30538873,3.703516006,-1.722930908,1.219798803,2024-06-11 14:43:06.305389
42.34587191,7.252009392,-3.288630486,-2.998823881,2024-06-11 14:43:06.345872
42.3863441,3.892104864,-3.88643074,-4.750818253,2024-06-11 14:43:06.386344
42.42682066,1.779351234,1.096107483,-6.645598412,2024-06-11 14:43:06.426821
42.46733811,-1.820285797,2.116956234,-5.396298885,2024-06-11 14:43:06.467338
42.50783118,-4.019927502,1.554367065,-3.674528599,2024-06-11 14:43:06.507831
42.54830561,-3.39890027,1.960374832,-5.506171227,2024-06-11 14:43:06.548306
42.58878071,0.7665286064,5.011002541,-6.006205559,2024-06-11 14:43:06.588781
42.62924436,0.2206654549,4.373702049,-4.267636299,2024-06-11 14:43:06.629244
42.66972774,3.558015108,1.718178749,1.805297852,2024-06-11 14:43:06.669728
42.71022629,2.843250275,-9.929143906,19.35310745,2024-06-11 14:43:06.710226
42.75072431,2.797086477,-5.051782608,-2.341309309,2024-06-11 14:43:06.750724
42.79118321,3.833785772,-3.676643372,-4.624910355,2024-06-11 14:43:06.791183
42.83166649,-0.9597287178,3.784594059,-5.357879162,2024-06-11 14:43:06.831666
42.8721228,-2.372229099,6.791721821,-4.588328362,2024-06-11 14:43:06.872123
42.912588,-0.2437300682,2.417746544,-3.478898525,2024-06-11 14:43:06.912588
42.95306509,1.506278515,-4.652714729,-4.800237179,2024-06-11 14:43:06.953065
42.99355936,-1.889681339,-2.03246212,-4.10725832,2024-06-11 14:43:06.993559
43.03408462,0.2878906727,0.2850923538,16.17064095,2024-06-11 14:43:07.034085
43.07458175,-0.3289802074,-1.435891151,0.2012066245,2024-06-11 14:43:07.074582
43.11505988,0.8601088524,2.247389793,-0.6877729297,2024-06-11 14:43:07.115060
43.15553806,1.036999226,2.091368675,-0.6814296246,2024-06-11 14:43:07.155538
43.19601623,0.7248427868,0.04211902618,0.3806358576,2024-06-11 14:43:07.196016
43.23644347,-2.806777954,-2.626418114,10.95131302,2024-06-11 14:43:07.236443
43.27689181,-2.134342194,-2.720068932,3.239948988,2024-06-11 14:43:07.276892
43.31738175,-0.4079271555,-4.935441017,3.555360317,2024-06-11 14:43:07.317382
43.35786129,2.204102516,-3.85472393,5.084717274,2024-06-11 14:43:07.357861
43.39830102,3.645603657,-1.513930321,-3.720707417,2024-06-11 14:43:07.398301
43.43879519,8.527850151,-1.156946182,-4.667211533,2024-06-11 14:43:07.438795
43.47927722,2.453820705,-1.176640511,-5.24055624,2024-06-11 14:43:07.479277
43.51977035,-1.610426784,0.6637134552,-1.487295151,2024-06-11 14:43:07.519770
43.56025446,-5.376194477,0.2737674713,-6.252493382,2024-06-11 14:43:07.560254
43.60071431,-4.522408962,0.9639844894,-6.698727608,2024-06-11 14:43:07.600714
43.64124436,-2.326874733,3.208560467,-4.720090866,2024-06-11 14:43:07.641244
43.68171722,-1.097190976,3.718773842,-6.380897999,2024-06-11 14:43:07.681717
43.72216134,1.962744951,0.3804569244,-3.303771496,2024-06-11 14:43:07.722161
43.76263457,8.274225235,-7.68628788,20.47631645,2024-06-11 14:43:07.762635
43.80313837,6.157764435,1.123311043,1.543889284,2024-06-11 14:43:07.803138
43.84364686,3.271900654,3.466068268,-5.352575779,2024-06-11 14:43:07.843647
43.88413202,5.084849834,-7.150086403,-1.172467709,2024-06-11 14:43:07.884132
43.92453488,-2.206911564,0.1890916824,-7.197525501,2024-06-11 14:43:07.924535
43.96497545,-4.274888039,3.486229897,-6.857570648,2024-06-11 14:43:07.964975
44.005453,-2.415679216,-1.44334507,-5.650541306,2024-06-11 14:43:08.005453
44.04593056,-2.948268652,-4.09127903,-2.549152374,2024-06-11 14:43:08.045931
44.08648108,-2.594036341,0.9496212006,0.2466428876,2024-06-11 14:43:08.086481
44.12695743,1.872708559,1.680006981,5.376234531,2024-06-11 14:43:08.126957
44.16743493,0.1074364185,-0.4883413315,0.9725221992,2024-06-11 14:43:08.167435
44.20790353,0.9386179447,2.092755318,-0.305639267,2024-06-11 14:43:08.207904
44.24837519,0.7805165052,1.440020561,0.938195467,2024-06-11 14:43:08.248375
44.28885576,1.517856121,-1.410346985,3.635828733,2024-06-11 14:43:08.288856
44.32933769,0.3508774042,-1.857347488,9.614364624,2024-06-11 14:43:08.329338
44.36979431,0.3103780746,-2.055566788,3.952212811,2024-06-11 14:43:08.369794
44.4102892,-0.1031031609,-4.085009575,7.928422451,2024-06-11 14:43:08.410289
44.45078842,-0.6497676373,-4.475280762,0.7529894114,2024-06-11 14:43:08.450788
44.49125332,-0.300911665,-3.710147858,-5.169909477,2024-06-11 14:43:08.491253
44.53170373,5.300745964,-3.036281586,-5.75942421,2024-06-11 14:43:08.531704
44.57218165,0.7259292603,-4.66121006,-2.54923749,2024-06-11 14:43:08.572182
44.61268014,-5.406332016,-2.248884201,-3.853975773,2024-06-11 14:43:08.612680
44.65310785,-6.409738541,1.866302967,-9.310836792,2024-06-11 14:43:08.653108
44.69368472,-5.374212742,2.036008358,-3.958379984,2024-06-11 14:43:08.693685
44.73417061,-4.005442619,0.7345027924,-11.10190487,2024-06-11 14:43:08.734171
44.77464946,-0.7450945377,0.1793937683,-8.294128418,2024-06-11 14:43:08.774649
44.81512832,1.659314871,-3.088284492,-0.8047677279,2024-06-11 14:43:08.815128
44.85560712,6.462625504,-4.185993195,3.974884272,2024-06-11 14:43:08.855607
44.89608592,9.782073975,-1.901438713,-0.1767340899,2024-06-11 14:43:08.896086
44.93648952,6.365912437,0.167883873,-5.781196117,2024-06-11 14:43:08.936490
44.97700519,5.350683212,2.179842472,-5.87431097,2024-06-11 14:43:08.977005
45.01747764,-2.282335997,-2.384757042,-3.155040979,2024-06-11 14:43:09.017478
45.05795316,-5.660253525,-0.6456031799,-4.234602451,2024-06-11 14:43:09.057953
45.09841868,-1.006945848,0.1845989227,3.903774738,2024-06-11 14:43:09.098419
45.13889665,1.57362628,-0.4409141541,8.631558418,2024-06-11 14:43:09.138897
45.17937535,-0.4484993219,0.7418527603,0.6856299639,2024-06-11 14:43:09.179375
45.21985665,0.8264335394,1.524698257,-2.049093962,2024-06-11 14:43:09.219857
45.2603378,-0.374678731,0.3262052536,-0.3059044182,2024-06-11 14:43:09.260338
45.30078826,-0.01690626144,-1.104044914,-0.8428941369,2024-06-11 14:43:09.300788
45.34128248,1.886224031,0.3343000412,-0.5353170037,2024-06-11 14:43:09.341282
45.38175743,1.702932596,1.068984032,2.740148067,2024-06-11 14:43:09.381757
45.42220905,-2.92371273,-0.72453022,-0.5768784881,2024-06-11 14:43:09.422209
45.46273452,-2.149406433,-0.3899059296,-2.801491261,2024-06-11 14:43:09.462735
45.50318118,0.06049156189,-1.186846733,-2.310441971,2024-06-11 14:43:09.503181
45.54373696,1.044481993,-0.6252126694,-2.576537609,2024-06-11 14:43:09.543737
45.58421983,3.797074556,0.6409540176,-1.274117708,2024-06-11 14:43:09.584220
45.62462056,3.896013975,-1.024497032,0.6687369347,2024-06-11 14:43:09.624621
45.66506358,1.519530773,-0.8861131668,0.8045871258,2024-06-11 14:43:09.665064
45.70554155,0.08384227753,0.7883582115,1.004212618,2024-06-11 14:43:09.705542
45.74605493,-1.804911613,1.096273422,1.873466969,2024-06-11 14:43:09.746055
45.78657274,-1.335588455,2.255756378,1.789899707,2024-06-11 14:43:09.786573
45.82707827,-1.158970833,3.605128765,-1.242535949,2024-06-11 14:43:09.827078
45.86751228,1.632159472,3.561870098,-3.789169312,2024-06-11 14:43:09.867512
45.9079954,5.255162716,2.737343788,-3.083330154,2024-06-11 14:43:09.907995
45.94847123,3.861655951,0.1861343384,-1.339312077,2024-06-11 14:43:09.948471
45.98894243,0.3204517365,0.003566741943,-0.4728624225,2024-06-11 14:43:09.988942
46.02941597,0.4046626091,0.4978256226,0.2104444504,2024-06-11 14:43:10.029416
46.06989222,2.207985878,-0.6998643875,-0.3752270937,2024-06-11 14:43:10.069892
46.11038686,5.611659527,-4.558071136,-0.1237629652,2024-06-11 14:43:10.110387
46.15090962,1.538022995,-3.541136742,-0.1699738503,2024-06-11 14:43:10.150910
46.19136769,-5.557179451,-1.336829185,14.51370525,2024-06-11 14:43:10.191368
46.23181441,-2.107983589,0.7896337509,5.89286232,2024-06-11 14:43:10.231814
46.27229738,-1.822679758,-1.191101074,0.8108609915,2024-06-11 14:43:10.272297
46.312753,-0.06328940392,-2.667099953,-2.5828619,2024-06-11 14:43:10.312753
46.35326102,2.095243454,1.882538319,-2.251959085,2024-06-11 14:43:10.353261
46.39372722,-0.6954123974,2.385596752,-0.007306277752,2024-06-11 14:43:10.393727
46.4341704,-0.9990487099,2.08717823,0.2425242662,2024-06-11 14:43:10.434170
46.47469045,-2.075120926,-0.5875988007,6.88043499,2024-06-11 14:43:10.474690
46.51516899,-2.381277561,-4.103141785,5.641312599,2024-06-11 14:43:10.515169
46.55564769,-2.038820982,0.5829153061,7.583449364,2024-06-11 14:43:10.555648
46.59612707,-2.280350924,3.715194225,2.065428734,2024-06-11 14:43:10.596127
46.63659873,-6.865195274,2.037047386,-0.3291201591,2024-06-11 14:43:10.636599
46.67706733,-8.092733383,-10.86307144,8.574066162,2024-06-11 14:43:10.677067
46.71755113,1.123058796,-13.82248688,-0.4922041893,2024-06-11 14:43:10.717551
46.75801858,-1.603208065,-1.979876995,-4.953499794,2024-06-11 14:43:10.758019
46.79848931,4.133094788,3.970237732,-1.885425091,2024-06-11 14:43:10.798489
46.83897561,5.494944096,6.772455215,-0.4075064659,2024-06-11 14:43:10.838976
46.87947347,-2.440003157,3.204502106,-3.251268148,2024-06-11 14:43:10.879473
46.91995978,-1.722853899,2.53183341,-2.365690708,2024-06-11 14:43:10.919960
46.96041915,-1.602611065,2.423289061,-1.588629246,2024-06-11 14:43:10.960419
47.00088618,-0.6866941452,0.3800854683,12.51241779,2024-06-11 14:43:11.000886
47.04136274,-0.2938690186,-2.713581085,-10.19623566,2024-06-11 14:43:11.041363
47.08183967,4.714021206,-2.035042763,-2.034118176,2024-06-11 14:43:11.081840
47.12236389,0.2498142719,-4.575666428,-9.611759186,2024-06-11 14:43:11.122364
47.1628653,-1.798345566,-6.060704708,-0.3753862381,2024-06-11 14:43:11.162865
47.2033253,-2.663602591,-7.869821072,-2.519176722,2024-06-11 14:43:11.203325
47.24378269,0.2000415325,-3.65461874,-0.9206809998,2024-06-11 14:43:11.243783
47.28424113,1.85905242,-1.577259064,-0.9460215569,2024-06-11 14:43:11.284241
47.32471238,0.8629529476,-0.04411172867,-1.335726738,2024-06-11 14:43:11.324712
47.36519056,-0.1631801128,0.1385598183,-1.83900857,2024-06-11 14:43:11.365191
47.40566509,-0.364200592,-1.007653713,-1.325750113,2024-06-11 14:43:11.405665
47.44616702,-0.9676411152,-0.691488266,-1.098124504,2024-06-11 14:43:11.446167
47.48662785,-0.4499781132,-0.1820859909,-1.801038504,2024-06-11 14:43:11.486628
47.52711879,-0.8362879753,-0.6478462219,-3.393502235,2024-06-11 14:43:11.527119
47.56759774,-0.2836022377,-1.363010406,-3.562307358,2024-06-11 14:43:11.567598
47.60808488,0.2487034798,-2.180426598,-2.462101698,2024-06-11 14:43:11.608085
47.64854222,2.026979446,0.9159302711,0.6088967323,2024-06-11 14:43:11.648542
47.68904123,3.535643578,3.342867851,6.329252243,2024-06-11 14:43:11.689041
47.72949509,1.05335331,0.1449575424,5.627829552,2024-06-11 14:43:11.729495
47.76998165,-0.665667057,0.1320095062,0.217089653,2024-06-11 14:43:11.769982
47.81047514,-0.4765729904,1.899971485,-1.649195194,2024-06-11 14:43:11.810475
47.85093941,1.595601082,2.560997009,-2.337121964,2024-06-11 14:43:11.850939
47.89141056,1.867559433,1.471749306,-0.6729134321,2024-06-11 14:43:11.891411
47.93188879,0.4651918411,0.9765043259,1.746759653,2024-06-11 14:43:11.931889
47.97237738,-0.1910233498,0.1197109222,1.182488322,2024-06-11 14:43:11.972377
48.01285743,1.385956526,0.06272029877,0.8443727493,2024-06-11 14:43:12.012857
48.0533079,1.270293236,0.6897354126,0.08766260743,2024-06-11 14:43:12.053308
48.09384577,1.260272264,0.9882316589,0.1046027541,2024-06-11 14:43:12.093846
48.13429899,2.379598618,0.830414772,0.8867249489,2024-06-11 14:43:12.134299
48.17477743,1.209008694,0.7082138062,1.532678008,2024-06-11 14:43:12.174777
48.21525582,0.05185627937,0.6905374527,1.857154846,2024-06-11 14:43:12.215256
48.25571967,0.9985687733,0.6161718369,1.960804939,2024-06-11 14:43:12.255720
48.29619806,4.071953773,-0.942653656,1.058746457,2024-06-11 14:43:12.296198
48.3366741,4.644491196,-3.860279083,-0.1288442612,2024-06-11 14:43:12.336674
48.37713379,-0.683463335,1.433328629,1.49040699,2024-06-11 14:43:12.377134
48.41760191,-4.493506432,2.899982452,0.9391635656,2024-06-11 14:43:12.417602
48.45812066,-6.448759079,-4.180283546,-2.161698818,2024-06-11 14:43:12.458121
48.4985841,-3.066788673,-4.113121033,-2.750584841,2024-06-11 14:43:12.498584
48.53905983,-2.920840263,1.230568886,-2.361847639,2024-06-11 14:43:12.539060
48.57952462,-2.81873703,4.029254436,-2.31112051,2024-06-11 14:43:12.579525
48.62002764,-1.770120382,2.136212349,-3.417171955,2024-06-11 14:43:12.620028
48.66050316,-1.322700262,-1.786455154,-2.805598736,2024-06-11 14:43:12.660503
48.70098868,-0.06737214327,-2.83378315,-0.1993887424,2024-06-11 14:43:12.700989
48.74145285,2.527294397,-2.250716209,8.103364944,2024-06-11 14:43:12.741453
48.78190978,2.568366766,-0.9631242752,10.9448452,2024-06-11 14:43:12.781910
48.8224417,-0.8585926294,-1.237924576,1.849248767,2024-06-11 14:43:12.822442
48.86289952,-0.1284492016,-1.385406494,3.409818172,2024-06-11 14:43:12.862900
48.90337467,-0.08967399597,-2.43597126,2.740714073,2024-06-11 14:43:12.903375
48.94385285,1.210556149,-3.044224739,6.69691658,2024-06-11 14:43:12.943853
48.9843729,1.657884955,-2.332588196,6.313080788,2024-06-11 14:43:12.984373
49.02476608,0.3902307749,-2.748944283,-0.9200242758,2024-06-11 14:43:13.024766
49.06528811,2.79417038,-3.388331413,-5.131236076,2024-06-11 14:43:13.065288
49.10576644,1.147234797,-3.614600182,-6.899218082,2024-06-11 14:43:13.105766
49.14624472,-1.719532132,-1.276165009,-2.357018471,2024-06-11 14:43:13.146245
49.18672217,-3.169311047,0.7545247078,-7.545632362,2024-06-11 14:43:13.186722
49.22720061,-2.686434031,2.077656746,-6.89073658,2024-06-11 14:43:13.227201
49.26768254,-0.1878035069,3.330739021,-5.17673254,2024-06-11 14:43:13.267683
49.30816149,0.09688234329,4.092640877,-5.725700378,2024-06-11 14:43:13.308161
49.34863269,0.03623008728,1.817173004,-6.904049873,2024-06-11 14:43:13.348633
49.38906816,6.268922329,-6.380767822,17.44909859,2024-06-11 14:43:13.389068
49.42954587,7.497937202,-6.568451881,10.78726768,2024-06-11 14:43:13.429546
49.47005983,-0.247597456,3.863027096,-7.042072296,2024-06-11 14:43:13.470060
49.5105254,-0.7929391861,2.150734901,-3.704574585,2024-06-11 14:43:13.510525
49.55102103,3.443439007,-4.905297279,-2.858501911,2024-06-11 14:43:13.551021
49.59151452,0.359865427,-0.6679334641,-7.169911861,2024-06-11 14:43:13.591515
49.63200311,-1.430840731,3.507726192,-3.789162397,2024-06-11 14:43:13.632003
49.67248754,-1.380180836,-1.390691757,-1.025544286,2024-06-11 14:43:13.672488
49.71291696,-2.596519947,-2.199393272,-1.146560907,2024-06-11 14:43:13.712917
49.75341373,-0.7655113935,1.304763794,6.361716747,2024-06-11 14:43:13.753414
49.7939267,-0.03201699257,-1.071052551,3.649461269,2024-06-11 14:43:13.793927
49.83437321,-0.3400130272,0.4864082336,-0.9317878485,2024-06-11 14:43:13.834373
49.87481754,0.3378564119,3.121318817,-0.3225046396,2024-06-11 14:43:13.874818
49.91529602,1.806162357,1.82601738,-0.3378195763,2024-06-11 14:43:13.915296
49.95578472,0.2143836021,-3.472331047,-1.240972281,2024-06-11 14:43:13.955785
49.99627217,0.7375547886,-0.4948415756,8.297250748,2024-06-11 14:43:13.996272
50.03676566,-0.1432260275,-1.741653442,5.845890045,2024-06-11 14:43:14.036766
50.07725472,-1.304983854,-3.112034798,2.200170994,2024-06-11 14:43:14.077255
50.117723,0.2648773193,-3.103857994,8.407093048,2024-06-11 14:43:14.117723
50.15819571,0.2595558167,-3.096094131,1.010760188,2024-06-11 14:43:14.158196
50.19868868,1.143758774,-0.2986860275,-5.069026947,2024-06-11 14:43:14.198689
50.2391655,1.28307724,-2.1593647,-4.917765617,2024-06-11 14:43:14.239165
50.27963155,-1.128897905,-3.008956909,-2.932809353,2024-06-11 14:43:14.279632
50.32010644,-2.572442293,-1.237343788,-2.681257725,2024-06-11 14:43:14.320106
50.36057649,-3.031778097,-0.2921600342,-8.135334015,2024-06-11 14:43:14.360576
50.40102425,-2.280297041,2.5068717,-6.572629452,2024-06-11 14:43:14.401024
50.44153774,-2.464971304,4.642202377,-5.909473419,2024-06-11 14:43:14.441538
50.48203077,-1.485699892,2.3786273,-7.709466934,2024-06-11 14:43:14.482031
50.52249952,9.069235802,-7.765676498,11.87150383,2024-06-11 14:43:14.522500
50.56298998,8.067741394,-4.248993874,14.6334095,2024-06-11 14:43:14.562990
50.60350149,-1.382529259,4.495322227,-4.023334503,2024-06-11 14:43:14.603501
50.64391274,0.2241501808,-1.693604469,-3.074918747,2024-06-11 14:43:14.643913
50.68435165,3.690638065,-7.878828049,-4.020159721,2024-06-11 14:43:14.684352
50.72484347,-1.608623743,2.476633549,-6.011876106,2024-06-11 14:43:14.724843
50.76532602,-1.586889505,4.721025467,-7.504933357,2024-06-11 14:43:14.765326
50.80583931,0.6254088879,-1.247514725,-5.091446877,2024-06-11 14:43:14.805839
50.84633759,-1.207572699,-1.602863312,-2.325039387,2024-06-11 14:43:14.846338
50.8868067,-1.046065927,1.852090836,-1.153299809,2024-06-11 14:43:14.886807
50.92728571,-0.5912368298,0.2340669632,-1.8690871,2024-06-11 14:43:14.927286
50.96774936,0.8742352724,-1.47796154,0.9724500775,2024-06-11 14:43:14.967749
51.00825702,3.185518265,-0.6160831451,9.570750237,2024-06-11 14:43:15.008257
51.04872384,-0.2217491865,-0.8347063065,5.545188427,2024-06-11 14:43:15.048724
51.08917191,-0.4717876911,-0.3122119904,2.988933802,2024-06-11 14:43:15.089172
51.12967644,-2.589529991,-0.9273471832,0.3546511531,2024-06-11 14:43:15.129676
51.17014665,-3.076926708,-1.590214729,-0.8517123461,2024-06-11 14:43:15.170147
51.2106178,-3.54542017,-3.066730499,-1.51815784,2024-06-11 14:43:15.210618
51.25115873,-1.903729558,-2.100831032,0.8039672375,2024-06-11 14:43:15.251159
51.29163493,5.829728127,-0.5233507156,6.257517815,2024-06-11 14:43:15.291635
51.33205389,2.659224033,1.315573692,6.118940353,2024-06-11 14:43:15.332054
51.37254327,-1.663636804,0.5969486237,-1.446784496,2024-06-11 14:43:15.372543
51.41295363,-4.178136826,-2.756784439,-5.057248116,2024-06-11 14:43:15.412954
51.45350743,-2.386486053,-5.923089027,-7.19859314,2024-06-11 14:43:15.453507
51.49402863,-1.616890192,-3.725444794,-4.698997974,2024-06-11 14:43:15.494029
51.53440254,0.6778936386,1.00517416,-3.791921854,2024-06-11 14:43:15.534403
51.57488056,-0.2325210571,1.447813988,-4.301711559,2024-06-11 14:43:15.574881
51.61535858,0.1042702198,2.394260883,-5.367424965,2024-06-11 14:43:15.615359
51.65585696,0.3845052719,1.88603878,-5.264344215,2024-06-11 14:43:15.655857
51.69637915,-0.5314853191,-0.05920696259,-3.196944714,2024-06-11 14:43:15.696379
51.73685748,5.750398159,-1.504525185,10.04257298,2024-06-11 14:43:15.736857
51.77730681,5.573344231,-0.328209877,9.841365814,2024-06-11 14:43:15.777307
51.81778946,0.9894483089,2.20790863,-3.152088165,2024-06-11 14:43:15.817789
51.85830108,6.858911037,-4.957007408,-7.689161301,2024-06-11 14:43:15.858301
51.89875774,0.3706245422,-0.6498231888,-5.251842499,2024-06-11 14:43:15.898758
51.93922561,-1.540464759,3.047273636,-4.852687836,2024-06-11 14:43:15.939226
51.97969436,-0.7036926746,0.01713562012,-3.101350546,2024-06-11 14:43:15.979694
52.02018504,5.279866695,-5.377527237,18.53932571,2024-06-11 14:43:16.020185
52.06067228,3.02767086,-0.4244775772,-0.8974683285,2024-06-11 14:43:16.060672
52.10116472,-2.875129938,4.977729797,-7.648220062,2024-06-11 14:43:16.101165
52.14163863,-3.507930279,4.261920929,-5.530681133,2024-06-11 14:43:16.141639
52.18208368,0.04463291168,0.2816691399,1.964839458,2024-06-11 14:43:16.182084
52.22259457,-1.50514555,2.698156357,2.017794132,2024-06-11 14:43:16.222595
52.26306993,3.652621746,2.44947648,8.016906738,2024-06-11 14:43:16.263070
52.303583,-1.037895203,2.021719456,3.121305943,2024-06-11 14:43:16.303583
52.34405582,-3.640194654,2.670081854,-1.86489439,2024-06-11 14:43:16.344056
52.38447967,-1.297122478,3.089011192,-5.418629169,2024-06-11 14:43:16.384480
52.42491915,3.857306957,2.273710728,0.5251190662,2024-06-11 14:43:16.424919
52.46541884,10.44492912,-7.102088928,4.115296841,2024-06-11 14:43:16.465419
52.5058966,-4.911244869,-2.417016506,-4.532016277,2024-06-11 14:43:16.505897
52.54638603,-5.969946861,4.132621288,-3.513073444,2024-06-11 14:43:16.546386
52.58689337,-4.76146698,-0.5930013657,-3.090160847,2024-06-11 14:43:16.586893
52.62737592,-3.861794949,-6.729635239,-5.797579288,2024-06-11 14:43:16.627376
52.66784941,-6.51536274,-7.859679222,9.668649673,2024-06-11 14:43:16.667849
52.70833972,-8.240104675,-13.65106964,1.719876289,2024-06-11 14:43:16.708340
52.74879337,6.97077179,-4.788036346,7.305686951,2024-06-11 14:43:16.748793
52.78926405,7.898151875,1.359880447,18.60468674,2024-06-11 14:43:16.789264
52.8297404,4.857872009,4.407122612,18.51434898,2024-06-11 14:43:16.829740
52.87022061,0.2409665585,3.240810871,13.49644852,2024-06-11 14:43:16.870221
52.91070733,-3.304410934,-2.842899323,3.770017624,2024-06-11 14:43:16.910707
52.95118155,4.853090763,-18.17113495,-5.215691566,2024-06-11 14:43:16.951182
52.99165441,15.28991127,-18.54369164,-13.5264225,2024-06-11 14:43:16.991654
53.03214545,18.01453018,-14.62818336,-14.68078613,2024-06-11 14:43:17.032145
53.07263566,2.654735565,-10.17952347,28.99168777,2024-06-11 14:43:17.072636
53.11310644,-1.454702854,-8.94043541,-17.57801437,2024-06-11 14:43:17.113106
53.153573,-9.434944153,-2.065884113,-13.22758961,2024-06-11 14:43:17.153573
53.19402587,-6.348193169,3.46784234,-9.963294983,2024-06-11 14:43:17.194026
53.23453212,-10.1084528,7.495089054,-4.664207935,2024-06-11 14:43:17.234532
53.275008,-8.093042374,7.891465187,-0.1243643761,2024-06-11 14:43:17.275008
53.31548108,-7.784046173,1.019526482,0.7721438408,2024-06-11 14:43:17.315481
53.35595967,-4.128110886,-3.659838676,-3.705067635,2024-06-11 14:43:17.355960
53.39642347,-0.1526827812,-1.502606869,-7.395205975,2024-06-11 14:43:17.396423
53.43692691,5.585485935,4.743965626,26.58614349,2024-06-11 14:43:17.436927
53.47741936,-12.39618492,1.913333416,-8.55402565,2024-06-11 14:43:17.477419
53.51788066,6.650925636,-11.51622391,-11.75815201,2024-06-11 14:43:17.517881
53.55834952,-1.401604176,-29.18078995,12.8150425,2024-06-11 14:43:17.558350
53.59883905,0.7202076912,-7.591348648,-16.73089981,2024-06-11 14:43:17.598839
53.63933191,-9.695083618,-3.333190441,3.566445827,2024-06-11 14:43:17.639332
53.67979722,1.301940918,-1.88403368,-4.62477684,2024-06-11 14:43:17.679797
53.72028681,-1.251494408,-2.941928387,0.271791935,2024-06-11 14:43:17.720287
53.76077149,-4.973476887,-2.416916847,-0.869820118,2024-06-11 14:43:17.760771
53.80126061,-2.752597332,0.6082606316,2.100059986,2024-06-11 14:43:17.801261
53.84171728,-2.045935154,4.050695419,2.053151608,2024-06-11 14:43:17.841717
53.88217415,-0.4156084061,6.545300484,4.548742294,2024-06-11 14:43:17.882174
53.92264889,-0.465282917,2.529644966,2.509132624,2024-06-11 14:43:17.922649
53.96312894,-2.778428078,-2.499329567,1.709343672,2024-06-11 14:43:17.963129
54.00366571,-3.403170824,-2.660305977,-0.1125110686,2024-06-11 14:43:18.003666
54.04412363,-4.522743225,-2.287751198,0.6834975481,2024-06-11 14:43:18.044124
54.08457754,-4.97760582,-2.102680206,-0.3367457092,2024-06-11 14:43:18.084578
54.12505613,-4.719344616,-1.451491356,-0.3413915634,2024-06-11 14:43:18.125056
54.16555149,-2.328774452,-0.3231287003,-0.8602692485,2024-06-11 14:43:18.165551
54.20603009,8.804900169,0.08675575256,1.535470843,2024-06-11 14:43:18.206030
54.24648467,12.07207298,-0.5617227554,0.0843783021,2024-06-11 14:43:18.246485
54.28696144,2.204415321,4.854600906,3.206360579,2024-06-11 14:43:18.286961
54.32745478,-1.520948172,0.4511475563,-2.356036901,2024-06-11 14:43:18.327455
54.36793134,-1.282686472,-1.404572487,0.6240932941,2024-06-11 14:43:18.367931
54.40840993,-0.968665123,2.258220673,-0.7696254253,2024-06-11 14:43:18.408410
54.44890077,1.553225994,2.234972477,5.952696323,2024-06-11 14:43:18.448901
54.48939191,1.120619297,3.757014275,1.110402584,2024-06-11 14:43:18.489392
54.52986295,1.259290695,2.399291039,-4.211507797,2024-06-11 14:43:18.529863
54.57031884,4.383015633,-2.000396729,-4.545649529,2024-06-11 14:43:18.570319
54.61078806,6.550566196,1.98714304,-2.985698938,2024-06-11 14:43:18.610788
54.65127082,-0.2109723091,0.1570482254,-3.360030174,2024-06-11 14:43:18.651271
54.69174728,-4.507573605,-5.067382812,-7.045489311,2024-06-11 14:43:18.691747
54.73225571,-7.172492981,-5.035356522,5.629039764,2024-06-11 14:43:18.732256
54.77271649,-2.88960743,-1.335786819,-5.571447849,2024-06-11 14:43:18.772716
54.81322649,-1.167984486,-1.751823425,-5.141712189,2024-06-11 14:43:18.813226
54.8537129,0.01360011101,-3.269618034,-6.134700775,2024-06-11 14:43:18.853713
54.89419675,3.930018425,-5.442173004,-3.600268602,2024-06-11 14:43:18.894197
54.9345966,5.345231533,-5.125508308,1.165775299,2024-06-11 14:43:18.934597
54.97507952,-4.248177528,3.487262726,-4.721227646,2024-06-11 14:43:18.975080
55.01559368,-14.72243309,11.38543606,2.940752506,2024-06-11 14:43:19.015594
55.05607222,-10.33567047,8.148516655,10.19791031,2024-06-11 14:43:19.056072
55.09655394,10.61501884,-7.835990429,5.956411839,2024-06-11 14:43:19.096554
55.13704837,2.956357002,5.124535561,-0.07643461227,2024-06-11 14:43:19.137048
55.17746071,0.2961702347,0.2008299828,-4.255828381,2024-06-11 14:43:19.177461
55.2179955,-1.542916775,-0.07944917679,-2.432359934,2024-06-11 14:43:19.217996
55.25845842,-0.3619856834,1.453546524,1.202990055,2024-06-11 14:43:19.258458
55.29893827,-1.946379185,0.7113518715,2.116073132,2024-06-11 14:43:19.298938
55.33943102,3.55739069,0.9149718285,3.644877434,2024-06-11 14:43:19.339431
55.37990832,1.54675436,-0.4692745209,5.874918461,2024-06-11 14:43:19.379908
55.42034754,3.092151165,1.489903927,5.625222206,2024-06-11 14:43:19.420348
55.46084894,4.469976425,-0.6340408325,5.437700272,2024-06-11 14:43:19.460849
55.50134217,3.757163048,1.442986488,-3.364058495,2024-06-11 14:43:19.501342
55.54181306,-1.611528397,4.007769108,-4.309876442,2024-06-11 14:43:19.541813
55.58229613,-4.964045525,0.6569156647,-3.490294933,2024-06-11 14:43:19.582296
55.62275993,-4.59498167,-1.511140823,-3.195988417,2024-06-11 14:43:19.622760
55.66317998,-4.69410038,-0.2913680077,-2.742325783,2024-06-11 14:43:19.663180
55.70377728,-2.076481581,-1.614684105,1.578327656,2024-06-11 14:43:19.703777
55.74424941,-2.33905077,-1.960007191,-1.106328249,2024-06-11 14:43:19.744249
55.78462019,0.3545536995,-0.5551843643,-2.55614996,2024-06-11 14:43:19.784620
55.8251617,3.886725426,0.9962520599,-3.956393719,2024-06-11 14:43:19.825162
55.86563545,4.105576038,2.114794731,-3.099861622,2024-06-11 14:43:19.865635
55.90608686,3.344248295,1.808876514,-3.075314045,2024-06-11 14:43:19.906087
55.94656972,1.952879906,-1.177079201,-1.609060287,2024-06-11 14:43:19.946570
55.98705681,0.5238146782,-1.708724976,3.178903103,2024-06-11 14:43:19.987057
56.02753889,-3.208945751,-1.064908504,-1.379722834,2024-06-11 14:43:20.027539
56.06801884,-2.642860651,1.06687355,-0.01338887215,2024-06-11 14:43:20.068019
56.10849186,0.3614678383,-1.229951382,3.128025293,2024-06-11 14:43:20.108492
56.14898431,2.004718304,-2.800851822,-1.628685594,2024-06-11 14:43:20.148984
56.18949342,0.3157682419,-1.497368813,-0.9037992954,2024-06-11 14:43:20.189493
56.22994217,-3.737425089,-0.991724968,-2.136320353,2024-06-11 14:43:20.229942
56.27041936,0.2362771034,-1.882788181,0.2032489777,2024-06-11 14:43:20.270419
56.31090576,-3.268386364,-2.462193489,-2.378237247,2024-06-11 14:43:20.310906
56.35137222,-6.453311443,-4.894557953,-4.365020752,2024-06-11 14:43:20.351372
56.39183358,-6.859482288,-4.62607193,-3.858700037,2024-06-11 14:43:20.391834
56.43231618,-3.991719961,-1.098964691,-0.008788824081,2024-06-11 14:43:20.432316
56.47279514,6.732456207,0.1655292511,-0.7983000278,2024-06-11 14:43:20.472795
56.51328795,16.94470406,-4.325813293,9.298063278,2024-06-11 14:43:20.513288
56.55382566,11.12277603,-1.974093437,4.172551632,2024-06-11 14:43:20.553826
56.59427353,5.654242516,3.985404015,-4.288707733,2024-06-11 14:43:20.594274
56.63469186,3.736516953,4.43321991,-9.557800293,2024-06-11 14:43:20.634692
56.6751753,1.589755535,5.007846832,-12.16100121,2024-06-11 14:43:20.675175
56.71565905,0.1372280121,4.458179474,-11.35612679,2024-06-11 14:43:20.715659
56.75616269,-2.668068886,0.8410100937,-8.730908394,2024-06-11 14:43:20.756163
56.7966892,-2.042442322,-2.251252174,-2.276806593,2024-06-11 14:43:20.796689
56.83714592,0.2580194473,-0.9328174591,2.01946044,2024-06-11 14:43:20.837146
56.87759379,-1.535859942,0.03267478943,-4.233785152,2024-06-11 14:43:20.877594
56.9180666,-5.301804543,-4.329688072,-4.911058426,2024-06-11 14:43:20.918067
56.95854478,-1.158532381,-10.13513851,0.001438856125,2024-06-11 14:43:20.958545
56.99903405,-1.241213918,-17.63577271,27.75236702,2024-06-11 14:43:20.999034
57.03952144,-0.8210804462,-5.444111824,-4.414748192,2024-06-11 14:43:21.039521
57.0799804,-0.8748707771,-7.706824303,-4.676826954,2024-06-11 14:43:21.079980
57.12045837,-1.786168337,0.02972507477,1.26662147,2024-06-11 14:43:21.120458
57.16094175,-1.669195056,4.981282234,2.745831728,2024-06-11 14:43:21.160942
57.2014204,0.8567883968,3.941280365,1.818795085,2024-06-11 14:43:21.201420
57.24189306,0.3180394173,-1.214178085,0.3761732578,2024-06-11 14:43:21.241893
57.28236748,-0.3403887749,0.3115749359,4.296937466,2024-06-11 14:43:21.282367
57.3228554,1.316041231,-0.09508419037,5.057190418,2024-06-11 14:43:21.322855
57.36336155,-0.3822822571,-1.106076241,1.21432054,2024-06-11 14:43:21.363362
57.40375186,-0.4871470928,-0.8489131927,0.2129260302,2024-06-11 14:43:21.403752
57.44427738,0.09799981117,0.812171936,-0.9844990969,2024-06-11 14:43:21.444277
57.48474696,0.674795866,1.918640137,-2.349628687,2024-06-11 14:43:21.484747
57.52520931,-0.9410052299,0.1513795853,-2.251216888,2024-06-11 14:43:21.525209
57.56572425,-2.450581551,-1.282776833,-1.264178157,2024-06-11 14:43:21.565724
57.60622665,-2.300470591,-1.471319199,-0.5251061916,2024-06-11 14:43:21.606227
57.64668342,-0.02113556862,-0.952173233,11.3625803,2024-06-11 14:43:21.646683
57.68715847,-0.6833671331,0.8090047836,9.112277985,2024-06-11 14:43:21.687158
57.72763962,-2.284568548,-0.4951105118,4.168854713,2024-06-11 14:43:21.727640
57.76812743,-3.369104147,-3.084960938,1.480397582,2024-06-11 14:43:21.768127
57.8085855,-5.040008068,-7.182261467,2.325201988,2024-06-11 14:43:21.808585
57.84909196,-4.694296837,-7.156370163,8.105845451,2024-06-11 14:43:21.849092
57.88955889,3.047289848,-1.819117546,-2.337182283,2024-06-11 14:43:21.889559
57.93003748,8.560180664,-1.120659828,-7.586751938,2024-06-11 14:43:21.930037
57.97050717,6.258573055,-2.781025887,-1.947192669,2024-06-11 14:43:21.970507
58.01096764,-5.534321785,-0.07269763947,-12.00003624,2024-06-11 14:43:22.010968
58.051468,-9.144873619,1.887942314,-5.891120911,2024-06-11 14:43:22.051468
58.09194363,-2.564614534,5.973333359,-9.8960495,2024-06-11 14:43:22.091944
58.13241493,2.405072212,4.902513981,0.3377256393,2024-06-11 14:43:22.132415
58.17289337,19.71735573,-7.757356644,17.63702011,2024-06-11 14:43:22.172893
58.21336748,6.183193207,8.276376724,-8.755929947,2024-06-11 14:43:22.213367
58.25388806,-6.092922211,6.076746941,-3.617610455,2024-06-11 14:43:22.253888
58.29431957,-1.37662065,-7.641578674,-4.850328922,2024-06-11 14:43:22.294320
58.33479795,-0.915443182,-11.57179546,-3.18429184,2024-06-11 14:43:22.334798
58.37527639,-3.013536453,-3.965501785,-0.1430373192,2024-06-11 14:43:22.375276
58.41571686,-3.848495007,-3.154272079,-1.617250204,2024-06-11 14:43:22.415717
58.45624332,-0.3274058998,0.4763898849,-3.423247814,2024-06-11 14:43:22.456243
58.4967379,2.836289406,1.87104845,-3.964869499,2024-06-11 14:43:22.496738
58.53718639,3.509170532,2.755887985,-3.718204975,2024-06-11 14:43:22.537186
58.57771165,1.842411876,3.317278862,-1.595122695,2024-06-11 14:43:22.577712
58.61817832,0.293598175,3.024568558,0.2108356953,2024-06-11 14:43:22.618178
58.65866326,0.6386427879,2.374131203,-2.504388094,2024-06-11 14:43:22.658663
58.69910066,-0.02394008636,-1.686146736,-1.285038471,2024-06-11 14:43:22.699101
58.73961712,2.479649544,-6.85261488,1.01845789,2024-06-11 14:43:22.739617
58.78006561,2.127318859,-2.047446251,1.698726654,2024-06-11 14:43:22.780066
58.82056806,-2.127057314,-1.305264473,-1.69596839,2024-06-11 14:43:22.820568
58.86104425,-0.3735694885,1.0369277,-3.930296898,2024-06-11 14:43:22.861044
58.90151389,-0.5774748325,1.810317039,-1.589128494,2024-06-11 14:43:22.901514
58.94199274,3.108845949,1.093663216,-2.923213243,2024-06-11 14:43:22.941993
58.98246108,3.461102009,2.69503212,-0.8692176342,2024-06-11 14:43:22.982461
59.02295248,-0.3511590958,3.705106735,0.1419634223,2024-06-11 14:43:23.022952
59.06343472,-2.45190382,2.161083698,0.2337645292,2024-06-11 14:43:23.063435
59.10394608,-2.348161936,-0.145526886,1.983999729,2024-06-11 14:43:23.103946
59.14443123,-3.233613729,-2.334322929,3.401611805,2024-06-11 14:43:23.144431
59.1848254,0.8354234695,-9.386634827,15.80017471,2024-06-11 14:43:23.184825
59.22530326,0.9105060101,-5.660803795,-2.174821615,2024-06-11 14:43:23.225303
59.26581004,-0.1391944885,1.738883018,1.972132206,2024-06-11 14:43:23.265810
59.30629202,-1.973647118,-2.770944595,1.035814047,2024-06-11 14:43:23.306292
59.34678087,-5.11206913,-0.6620473862,-1.211980939,2024-06-11 14:43:23.346781
59.38722988,-2.872668743,2.192873955,5.158545494,2024-06-11 14:43:23.387230
59.42769332,1.173306465,-0.6159677505,5.13479948,2024-06-11 14:43:23.427693
59.46821702,2.628287315,-0.6623601913,4.361422539,2024-06-11 14:43:23.468217
59.50869978,-0.2533340454,-0.4994850159,2.804103851,2024-06-11 14:43:23.508700
59.54916785,-3.857718468,-1.182492256,1.777412891,2024-06-11 14:43:23.549168
59.58965342,-4.349740505,-2.062279701,-0.4109210968,2024-06-11 14:43:23.589653
59.63013358,-2.174550533,0.1964693069,2.671898365,2024-06-11 14:43:23.630134
59.67061467,-2.630509138,-0.08497714996,2.98926115,2024-06-11 14:43:23.670615
59.71108175,-4.034832001,-1.768175125,1.845881343,2024-06-11 14:43:23.711082
59.75156149,-4.129796028,-2.441280365,1.65831089,2024-06-11 14:43:23.751561
59.79204264,-2.94213295,-0.7474527359,2.852707863,2024-06-11 14:43:23.792043
59.83253139,1.305708647,-1.443223953,1.641172171,2024-06-11 14:43:23.832531
59.87299019,6.39884758,-4.593600273,0.4299582541,2024-06-11 14:43:23.872990
59.91347941,8.13066864,-5.083016396,-0.4499471784,2024-06-11 14:43:23.913479
59.95396967,6.858733177,2.327367306,-5.495410919,2024-06-11 14:43:23.953970
59.99444233,0.6024413109,6.624326229,-6.037265778,2024-06-11 14:43:23.994442
60.03486228,1.495702267,4.953276634,-6.034954071,2024-06-11 14:43:24.034862
60.07534207,-2.487427473,-1.692123413,-0.08909249306,2024-06-11 14:43:24.075342
60.11582321,-5.369652271,-1.13881731,0.3691778183,2024-06-11 14:43:24.115823
60.15629535,-3.208396912,2.804676056,-3.067993402,2024-06-11 14:43:24.156295
60.19681259,1.50767374,4.060584545,4.381096363,2024-06-11 14:43:24.196813
60.23730118,5.62929678,1.752201557,5.089904785,2024-06-11 14:43:24.237301
60.27777967,2.668170452,1.58820343,-8.531996727,2024-06-11 14:43:24.277780
60.31826915,-3.770407915,-1.686123848,4.071051598,2024-06-11 14:43:24.318269
60.35872248,10.41182041,-9.581650734,-1.239855528,2024-06-11 14:43:24.358722
60.39918639,8.983845711,-3.178266525,-5.014842033,2024-06-11 14:43:24.399186
60.4396928,3.016187191,8.276589394,-2.423942566,2024-06-11 14:43:24.439693
60.48015967,0.7759072781,9.027638435,-2.032009363,2024-06-11 14:43:24.480160
60.52066795,0.5791227818,0.02069282532,-2.786846638,2024-06-11 14:43:24.520668
60.56113478,0.3908026218,-3.141661644,-3.574201107,2024-06-11 14:43:24.561135
60.60160373,-5.086244583,-2.638970375,-0.09142559767,2024-06-11 14:43:24.601604
60.64211566,-6.377974033,-3.006736755,10.75905418,2024-06-11 14:43:24.642116
60.68256566,-1.560747623,1.369497299,-0.869014442,2024-06-11 14:43:24.682566
60.72302571,-2.88301754,2.881900311,3.373478651,2024-06-11 14:43:24.723026
60.76350889,-2.06887579,3.2145648,8.049799919,2024-06-11 14:43:24.763509
60.80401587,5.588223457,1.863589764,1.608777523,2024-06-11 14:43:24.804016
60.84452108,6.967806339,-5.719647408,-1.36043334,2024-06-11 14:43:24.844521
60.88495707,20.20057487,-12.42196655,-2.956203938,2024-06-11 14:43:24.884957
60.92541082,2.245014668,-2.260016441,-1.727087498,2024-06-11 14:43:24.925411
60.96587972,3.033654928,4.92015934,-6.344996929,2024-06-11 14:43:24.965880
61.00635326,2.88129735,2.758414745,-2.620409012,2024-06-11 14:43:25.006353
61.04682931,1.739901066,-0.1877708435,-3.438953638,2024-06-11 14:43:25.046829
61.08732545,4.414063931,3.961941004,-0.5482988358,2024-06-11 14:43:25.087325
61.1278329,0.314637661,6.08280468,0.4534988403,2024-06-11 14:43:25.127833
61.16831118,-0.679005146,5.62146759,0.8964700699,2024-06-11 14:43:25.168311
61.20878795,2.159930229,0.9514918327,8.908855438,2024-06-11 14:43:25.208788
61.24925384,-4.426643848,-8.389636993,-12.19213295,2024-06-11 14:43:25.249254
61.28971905,0.8850741386,-3.085426807,-4.541928768,2024-06-11 14:43:25.289719
61.33022196,-1.574369192,-3.170680046,-4.156606197,2024-06-11 14:43:25.330222
61.37066717,5.190063,-4.052252769,-1.6857481,2024-06-11 14:43:25.370667
61.41111905,-0.7584927082,-0.9347963333,-3.234423637,2024-06-11 14:43:25.411119
61.45167144,-2.793370724,-1.624722481,0.08275675774,2024-06-11 14:43:25.451671
61.49213243,-2.664311171,-1.618338585,-1.067728519,2024-06-11 14:43:25.492132
61.53261004,-3.00929451,0.650724411,0.4768748283,2024-06-11 14:43:25.532610
61.57307629,-1.137247562,1.439920425,0.5173127651,2024-06-11 14:43:25.573076
61.61355233,2.699883938,1.043379784,1.955293179,2024-06-11 14:43:25.613552
61.6540116,1.96634078,-0.4188461304,-1.136062384,2024-06-11 14:43:25.654012
61.69456905,0.1068251133,-0.1046476364,-1.893584132,2024-06-11 14:43:25.694569
61.73504743,0.2593033314,0.3710098267,-1.663993835,2024-06-11 14:43:25.735047
61.7755278,2.13436079,0.3088693619,-2.657888889,2024-06-11 14:43:25.775528
61.81600717,1.957574844,-0.3837242126,-2.820873499,2024-06-11 14:43:25.816007
61.85648649,2.018933296,0.2341070175,-4.252684116,2024-06-11 14:43:25.856486
61.89692519,0.1093761921,1.399858475,-2.026149273,2024-06-11 14:43:25.896925
61.93740457,-1.202755928,-1.404959679,7.584388733,2024-06-11 14:43:25.937405
61.97785082,-0.1837508678,-1.263970375,1.945594311,2024-06-11 14:43:25.977851
62.01837436,0.9716176987,0.4337568283,0.8272941113,2024-06-11 14:43:26.018374
62.0588316,1.720041752,0.1595659256,2.875528097,2024-06-11 14:43:26.058832
62.09932087,-1.24792099,1.02808094,-2.57134819,2024-06-11 14:43:26.099321
62.13977748,-3.106686115,0.6116862297,-6.247343063,2024-06-11 14:43:26.139777
