Time (s),Acceleration x (m/s^2),Acceleration y (m/s^2),Acceleration z (m/s^2),Datetime
0.002807101,-3.947858334,5.322834015,7.272685528,2024-06-04 16:20:41.002807
0.023051997,-5.444868088,4.515555382,6.307480335,2024-06-04 16:20:41.023052
0.063051997,-4.117748737,5.406582832,6.779165745,2024-06-04 16:20:41.063052
0.103051997,-4.117748737,5.406582832,6.779165745,2024-06-04 16:20:41.103052
0.143051997,-4.117748737,5.406582832,6.779165745,2024-06-04 16:20:41.143052
0.183051997,-4.117748737,5.406582832,6.779165745,2024-06-04 16:20:41.183052
0.223051997,-4.117748737,5.406582832,6.779165745,2024-06-04 16:20:41.223052
0.263051997,-4.117748737,5.406582832,6.779165745,2024-06-04 16:20:41.263052
0.303051997,-4.117748737,5.406582832,6.779165745,2024-06-04 16:20:41.303052
0.343051997,-4.117748737,5.406582832,6.779165745,2024-06-04 16:20:41.343052
0.383051997,-4.117748737,5.406582832,6.779165745,2024-06-04 16:20:41.383052
0.423051997,-4.117748737,5.406582832,6.779165745,2024-06-04 16:20:41.423052
0.463051997,-4.117748737,5.406582832,6.779165745,2024-06-04 16:20:41.463052
0.503051997,-4.117748737,5.406582832,6.779165745,2024-06-04 16:20:41.503052
0.543051997,-4.117748737,5.406582832,6.779165745,2024-06-04 16:20:41.543052
0.583051997,-4.117748737,5.406582832,6.779165745,2024-06-04 16:20:41.583052
0.623051997,-4.117748737,5.406582832,6.779165745,2024-06-04 16:20:41.623052
0.663051997,-4.117748737,5.406582832,6.779165745,2024-06-04 16:20:41.663052
0.703051997,-4.117748737,5.406582832,6.779165745,2024-06-04 16:20:41.703052
0.743051997,-4.117748737,5.406582832,6.779165745,2024-06-04 16:20:41.743052
0.783051997,-4.117748737,5.406582832,6.779165745,2024-06-04 16:20:41.783052
0.823051997,3.101098061,4.449752808,9.77737236,2024-06-04 16:20:41.823052
0.863051997,3.101098061,4.449752808,9.77737236,2024-06-04 16:20:41.863052
0.903051997,3.101098061,4.449752808,9.77737236,2024-06-04 16:20:41.903052
0.943051997,3.101098061,4.449752808,9.77737236,2024-06-04 16:20:41.943052
0.983051997,3.101098061,4.449752808,9.77737236,2024-06-04 16:20:41.983052
1.023051997,3.101098061,4.449752808,9.77737236,2024-06-04 16:20:42.023052
1.063051997,2.747558594,4.120141506,7.568498135,2024-06-04 16:20:42.063052
1.103051997,2.747558594,4.120141506,7.568498135,2024-06-04 16:20:42.103052
1.143051997,2.747558594,4.120141506,7.568498135,2024-06-04 16:20:42.143052
1.183051997,2.747558594,4.120141506,7.568498135,2024-06-04 16:20:42.183052
1.223051997,2.747558594,4.120141506,7.568498135,2024-06-04 16:20:42.223052
1.263051997,2.747558594,4.120141506,7.568498135,2024-06-04 16:20:42.263052
1.303051997,-0.1905284971,2.080559254,11.99432278,2024-06-04 16:20:42.303052
1.343051997,2.896212816,4.130908966,13.54188061,2024-06-04 16:20:42.343052
1.383051997,0.4109672904,3.691527128,8.974879265,2024-06-04 16:20:42.383052
1.423051997,-0.675673306,2.807379246,9.997511864,2024-06-04 16:20:42.423052
1.463051997,-1.254138112,2.611167669,14.59352589,2024-06-04 16:20:42.463052
1.503051997,-1.864906192,0.1028913707,11.04197884,2024-06-04 16:20:42.503052
1.543051997,-2.709273338,0.7737790346,11.79422283,2024-06-04 16:20:42.543052
1.583051997,-2.900998354,-0.4755735099,7.997411251,2024-06-04 16:20:42.583052
1.623051997,0.2132603228,0.9149555564,5.003093243,2024-06-04 16:20:42.623052
1.663051997,2.230110645,2.124826431,5.010271549,2024-06-04 16:20:42.663052
1.703051997,2.230110645,2.124826431,5.010271549,2024-06-04 16:20:42.703052
1.743051997,13.00887966,3.384946823,11.97757244,2024-06-04 16:20:42.743052
1.783051997,13.00887966,3.384946823,11.97757244,2024-06-04 16:20:42.783052
1.823051997,13.00887966,3.384946823,11.97757244,2024-06-04 16:20:42.823052
1.863051997,13.00887966,3.384946823,11.97757244,2024-06-04 16:20:42.863052
1.903051997,13.00887966,3.384946823,11.97757244,2024-06-04 16:20:42.903052
1.943051997,13.00887966,3.384946823,11.97757244,2024-06-04 16:20:42.943052
1.983051997,-1.472184181,0.2730808854,9.924530983,2024-06-04 16:20:42.983052
2.023051997,-1.472184181,0.2730808854,9.924530983,2024-06-04 16:20:43.023052
2.063051997,-1.472184181,0.2730808854,9.924530983,2024-06-04 16:20:43.063052
2.103051997,-1.472184181,0.2730808854,9.924530983,2024-06-04 16:20:43.103052
2.143051997,-1.472184181,0.2730808854,9.924530983,2024-06-04 16:20:43.143052
2.183051997,-1.472184181,0.2730808854,9.924530983,2024-06-04 16:20:43.183052
2.223051997,-1.472184181,0.2730808854,9.924530983,2024-06-04 16:20:43.223052
2.263051997,-1.472184181,0.2730808854,9.924530983,2024-06-04 16:20:43.263052
2.303051997,-1.472184181,0.2730808854,9.924530983,2024-06-04 16:20:43.303052
2.343051997,-1.472184181,0.2730808854,9.924530983,2024-06-04 16:20:43.343052
2.383051997,-1.472184181,0.2730808854,9.924530983,2024-06-04 16:20:43.383052
2.423051997,-1.472184181,0.2730808854,9.924530983,2024-06-04 16:20:43.423052
2.463051997,-1.472184181,0.2730808854,9.924530983,2024-06-04 16:20:43.463052
2.503051997,-1.472184181,0.2730808854,9.924530983,2024-06-04 16:20:43.503052
2.543051997,-1.472184181,0.2730808854,9.924530983,2024-06-04 16:20:43.543052
2.583051997,-1.472184181,0.2730808854,9.924530983,2024-06-04 16:20:43.583052
2.623051997,-1.472184181,0.2730808854,9.924530983,2024-06-04 16:20:43.623052
2.663051997,-1.472184181,0.2730808854,9.924530983,2024-06-04 16:20:43.663052
2.703051997,-1.472184181,0.2730808854,9.924530983,2024-06-04 16:20:43.703052
2.743051997,-1.472184181,0.2730808854,9.924530983,2024-06-04 16:20:43.743052
2.783051997,-1.472184181,0.2730808854,9.924530983,2024-06-04 16:20:43.783052
2.823051997,-1.472184181,0.2730808854,9.924530983,2024-06-04 16:20:43.823052
2.863051997,-1.472184181,0.2730808854,9.924530983,2024-06-04 16:20:43.863052
2.903051997,-1.472184181,0.2730808854,9.924530983,2024-06-04 16:20:43.903052
2.943051997,-3.27577424,-3.337987661,3.726222992,2024-06-04 16:20:43.943052
2.983051997,-10.31994534,-6.937391281,5.971887112,2024-06-04 16:20:43.983052
3.023051997,-10.42044353,-5.652146339,1.638485312,2024-06-04 16:20:44.023052
3.063051997,-13.65434361,-4.737190723,7.133901596,2024-06-04 16:20:44.063052
3.103051997,-10.35583687,-5.050949574,5.549254894,2024-06-04 16:20:44.103052
3.143051997,-13.38245869,-5.751448154,0.6334998012,2024-06-04 16:20:44.143052
3.183051997,-13.3022995,-5.246263504,1.013360381,2024-06-04 16:20:44.183052
3.223051997,-11.00369358,-5.752644539,6.647560596,2024-06-04 16:20:44.223052
3.263051997,-12.06491089,-3.572783232,9.150752068,2024-06-04 16:20:44.263052
3.303051997,-13.5215416,-4.24367094,5.094020367,2024-06-04 16:20:44.303052
3.343051997,-13.5215416,-4.24367094,5.094020367,2024-06-04 16:20:44.343052
3.383051997,-13.5215416,-4.24367094,5.094020367,2024-06-04 16:20:44.383052
3.423051997,-13.5215416,-4.24367094,5.094020367,2024-06-04 16:20:44.423052
3.463051997,-13.5215416,-4.24367094,5.094020367,2024-06-04 16:20:44.463052
3.503051997,-13.5215416,-4.24367094,5.094020367,2024-06-04 16:20:44.503052
3.543051997,-13.5215416,-4.24367094,5.094020367,2024-06-04 16:20:44.543052
3.583051997,-13.5215416,-4.24367094,5.094020367,2024-06-04 16:20:44.583052
3.623051997,-13.5215416,-4.24367094,5.094020367,2024-06-04 16:20:44.623052
3.663051997,-13.5215416,-4.24367094,5.094020367,2024-06-04 16:20:44.663052
3.703051997,-13.5215416,-4.24367094,5.094020367,2024-06-04 16:20:44.703052
3.743051997,-8.506484032,-2.542972326,1.802692771,2024-06-04 16:20:44.743052
3.783051997,-8.506484032,-2.542972326,1.802692771,2024-06-04 16:20:44.783052
3.823051997,-8.506484032,-2.542972326,1.802692771,2024-06-04 16:20:44.823052
3.863051997,-8.506484032,-2.542972326,1.802692771,2024-06-04 16:20:44.863052
3.903051997,-8.506484032,-2.542972326,1.802692771,2024-06-04 16:20:44.903052
3.943051997,-8.506484032,-2.542972326,1.802692771,2024-06-04 16:20:44.943052
3.983051997,-10.44197845,-6.789933205,4.453341961,2024-06-04 16:20:44.983052
4.023051997,-10.44197845,-6.789933205,4.453341961,2024-06-04 16:20:45.023052
4.063051997,-10.44197845,-6.789933205,4.453341961,2024-06-04 16:20:45.063052
4.103051997,-10.44197845,-6.789933205,4.453341961,2024-06-04 16:20:45.103052
4.143051997,-10.44197845,-6.789933205,4.453341961,2024-06-04 16:20:45.143052
4.183051997,-10.44197845,-6.789933205,4.453341961,2024-06-04 16:20:45.183052
4.223051997,-10.44197845,-6.789933205,4.453341961,2024-06-04 16:20:45.223052
4.263051997,-10.44197845,-6.789933205,4.453341961,2024-06-04 16:20:45.263052
4.303051997,-10.44197845,-6.789933205,4.453341961,2024-06-04 16:20:45.303052
4.343051997,-10.44197845,-6.789933205,4.453341961,2024-06-04 16:20:45.343052
4.383051997,-10.44197845,-6.789933205,4.453341961,2024-06-04 16:20:45.383052
4.423051997,-10.44197845,-6.789933205,4.453341961,2024-06-04 16:20:45.423052
4.463051997,-10.44197845,-6.789933205,4.453341961,2024-06-04 16:20:45.463052
4.503051997,-10.44197845,-6.789933205,4.453341961,2024-06-04 16:20:45.503052
4.543051997,-10.44197845,-6.789933205,4.453341961,2024-06-04 16:20:45.543052
4.583051997,-4.114159584,0.9029914737,5.57318306,2024-06-04 16:20:45.583052
4.623051997,-6.299105644,3.472284794,4.474877357,2024-06-04 16:20:45.623052
4.663051997,-5.009075165,-0.856331408,2.054238319,2024-06-04 16:20:45.663052
4.703051997,-4.532305241,-3.77049017,4.022035599,2024-06-04 16:20:45.703052
4.743051997,-5.092823982,-3.984946966,1.837388635,2024-06-04 16:20:45.743052
4.783051997,-0.6263213158,-5.746662617,3.236292601,2024-06-04 16:20:45.783052
4.823051997,-12.2674036,-19.79881287,1.961815476,2024-06-04 16:20:45.823052
4.863051997,-6.08225584,-13.79103374,2.006082773,2024-06-04 16:20:45.863052
4.903051997,-4.710869789,-11.60728359,4.247260094,2024-06-04 16:20:45.903052
4.943051997,-6.154040813,-9.693324089,6.457031727,2024-06-04 16:20:45.943052
4.983051997,-5.831906796,-8.64167881,4.106980801,2024-06-04 16:20:45.983052
5.023051997,-5.831906796,-8.64167881,4.106980801,2024-06-04 16:20:46.023052
5.063051997,-5.831906796,-8.64167881,4.106980801,2024-06-04 16:20:46.063052
5.103051997,-5.831906796,-8.64167881,4.106980801,2024-06-04 16:20:46.103052
5.143051997,-5.831906796,-8.64167881,4.106980801,2024-06-04 16:20:46.143052
5.183051997,-5.831906796,-8.64167881,4.106980801,2024-06-04 16:20:46.183052
5.223051997,-5.831906796,-8.64167881,4.106980801,2024-06-04 16:20:46.223052
5.263051997,-5.831906796,-8.64167881,4.106980801,2024-06-04 16:20:46.263052
5.303051997,-5.831906796,-8.64167881,4.106980801,2024-06-04 16:20:46.303052
5.343051997,-5.831906796,-8.64167881,4.106980801,2024-06-04 16:20:46.343052
5.383051997,-5.831906796,-8.64167881,4.106980801,2024-06-04 16:20:46.383052
5.423051997,-5.831906796,-8.64167881,4.106980801,2024-06-04 16:20:46.423052
5.463051997,-5.831906796,-8.64167881,4.106980801,2024-06-04 16:20:46.463052
5.503051997,-5.831906796,-8.64167881,4.106980801,2024-06-04 16:20:46.503052
5.543051997,-5.831906796,-8.64167881,4.106980801,2024-06-04 16:20:46.543052
5.583051997,-5.831906796,-8.64167881,4.106980801,2024-06-04 16:20:46.583052
5.623051997,-5.831906796,-8.64167881,4.106980801,2024-06-04 16:20:46.623052
5.663051997,-5.831906796,-8.64167881,4.106980801,2024-06-04 16:20:46.663052
5.703051997,-5.831906796,-8.64167881,4.106980801,2024-06-04 16:20:46.703052
5.743051997,-5.606682777,-4.406383038,3.752544165,2024-06-04 16:20:46.743052
5.783051997,-5.606682777,-4.406383038,3.752544165,2024-06-04 16:20:46.783052
5.823051997,-5.606682777,-4.406383038,3.752544165,2024-06-04 16:20:46.823052
5.863051997,-5.606682777,-4.406383038,3.752544165,2024-06-04 16:20:46.863052
5.903051997,-5.606682777,-4.406383038,3.752544165,2024-06-04 16:20:46.903052
5.943051997,-5.606682777,-4.406383038,3.752544165,2024-06-04 16:20:46.943052
5.983051997,-5.606682777,-4.406383038,3.752544165,2024-06-04 16:20:46.983052
6.023051997,-5.606682777,-4.406383038,3.752544165,2024-06-04 16:20:47.023052
6.063051997,-5.606682777,-4.406383038,3.752544165,2024-06-04 16:20:47.063052
6.103051997,-5.606682777,-4.406383038,3.752544165,2024-06-04 16:20:47.103052
6.143051997,-5.606682777,-4.406383038,3.752544165,2024-06-04 16:20:47.143052
6.183051997,-5.606682777,-4.406383038,3.752544165,2024-06-04 16:20:47.183052
6.223051997,-5.606682777,-4.406383038,3.752544165,2024-06-04 16:20:47.223052
6.263051997,-5.885745525,-8.168797493,4.342973232,2024-06-04 16:20:47.263052
6.303051997,-7.429714203,-6.891927242,4.176671982,2024-06-04 16:20:47.303052
6.343051997,-7.846364498,-7.406982422,4.859224796,2024-06-04 16:20:47.343052
6.383051997,-7.776972771,-7.629814148,4.466502666,2024-06-04 16:20:47.383052
6.423051997,-6.982854843,-7.107580662,4.586143494,2024-06-04 16:20:47.423052
6.463051997,-6.02363205,-5.272584915,3.870988846,2024-06-04 16:20:47.463052
6.503051997,-5.448457241,-5.119144917,4.103391647,2024-06-04 16:20:47.503052
6.543051997,-4.684548378,-5.41136837,3.619742393,2024-06-04 16:20:47.543052
6.583051997,-4.971986294,-4.69411993,3.849453449,2024-06-04 16:20:47.583052
6.623051997,-3.939483404,-2.966800928,3.940679789,2024-06-04 16:20:47.623052
6.663051997,-3.939483404,-2.966800928,3.940679789,2024-06-04 16:20:47.663052
6.703051997,-3.939483404,-2.966800928,3.940679789,2024-06-04 16:20:47.703052
6.743051997,-2.182254314,-0.5748756528,4.272384644,2024-06-04 16:20:47.743052
6.783051997,-2.182254314,-0.5748756528,4.272384644,2024-06-04 16:20:47.783052
6.823051997,-2.182254314,-0.5748756528,4.272384644,2024-06-04 16:20:47.823052
6.863051997,-2.182254314,-0.5748756528,4.272384644,2024-06-04 16:20:47.863052
6.903051997,-2.182254314,-0.5748756528,4.272384644,2024-06-04 16:20:47.903052
6.943051997,-2.182254314,-0.5748756528,4.272384644,2024-06-04 16:20:47.943052
6.983051997,-9.304191589,-10.73779202,4.193421841,2024-06-04 16:20:47.983052
7.023051997,-9.304191589,-10.73779202,4.193421841,2024-06-04 16:20:48.023052
7.063051997,-9.304191589,-10.73779202,4.193421841,2024-06-04 16:20:48.063052
7.103051997,-9.304191589,-10.73779202,4.193421841,2024-06-04 16:20:48.103052
7.143051997,-9.304191589,-10.73779202,4.193421841,2024-06-04 16:20:48.143052
7.183051997,-9.304191589,-10.73779202,4.193421841,2024-06-04 16:20:48.183052
7.223051997,-9.304191589,-10.73779202,4.193421841,2024-06-04 16:20:48.223052
7.263051997,-9.304191589,-10.73779202,4.193421841,2024-06-04 16:20:48.263052
7.303051997,-9.304191589,-10.73779202,4.193421841,2024-06-04 16:20:48.303052
7.343051997,-9.304191589,-10.73779202,4.193421841,2024-06-04 16:20:48.343052
7.383051997,-9.304191589,-10.73779202,4.193421841,2024-06-04 16:20:48.383052
7.423051997,-9.304191589,-10.73779202,4.193421841,2024-06-04 16:20:48.423052
7.463051997,-9.304191589,-10.73779202,4.193421841,2024-06-04 16:20:48.463052
7.503051997,-9.304191589,-10.73779202,4.193421841,2024-06-04 16:20:48.503052
7.543051997,-9.304191589,-10.73779202,4.193421841,2024-06-04 16:20:48.543052
7.583051997,-9.304191589,-10.73779202,4.193421841,2024-06-04 16:20:48.583052
7.623051997,-9.304191589,-10.73779202,4.193421841,2024-06-04 16:20:48.623052
7.663051997,-9.304191589,-10.73779202,4.193421841,2024-06-04 16:20:48.663052
7.703051997,-9.304191589,-10.73779202,4.193421841,2024-06-04 16:20:48.703052
7.743051997,-9.304191589,-10.73779202,4.193421841,2024-06-04 16:20:48.743052
7.783051997,-9.304191589,-10.73779202,4.193421841,2024-06-04 16:20:48.783052
7.823051997,-9.304191589,-10.73779202,4.193421841,2024-06-04 16:20:48.823052
7.863051997,-9.304191589,-10.73779202,4.193421841,2024-06-04 16:20:48.863052
7.903051997,-6.525227547,-5.719145298,4.077070713,2024-06-04 16:20:48.903052
7.943051997,-7.120740891,-6.506084919,4.269991875,2024-06-04 16:20:48.943052
7.983051997,-8.433503151,-7.514659405,4.110570431,2024-06-04 16:20:48.983052
8.023051997,-8.983254433,-9.900602341,4.690530777,2024-06-04 16:20:49.023052
8.063051997,-7.947162151,-9.541379929,5.218447208,2024-06-04 16:20:49.063052
8.103051997,-8.027321815,-8.458627701,4.656732082,2024-06-04 16:20:49.103052
8.143051997,-6.715755939,-8.191529274,5.301298618,2024-06-04 16:20:49.143052
8.183051997,-5.76849699,-7.828418255,3.719044685,2024-06-04 16:20:49.183052
8.223051997,-4.757529736,-7.191329479,3.748954773,2024-06-04 16:20:49.223052
8.263051997,-4.757529736,-7.191329479,3.748954773,2024-06-04 16:20:49.263052
8.303051997,-4.757529736,-7.191329479,3.748954773,2024-06-04 16:20:49.303052
8.343051997,-4.757529736,-7.191329479,3.748954773,2024-06-04 16:20:49.343052
8.383051997,-4.757529736,-7.191329479,3.748954773,2024-06-04 16:20:49.383052
8.423051997,-4.757529736,-7.191329479,3.748954773,2024-06-04 16:20:49.423052
8.463051997,-4.757529736,-7.191329479,3.748954773,2024-06-04 16:20:49.463052
8.503051997,-7.241578579,-7.633403301,4.454538345,2024-06-04 16:20:49.503052
8.543051997,-7.241578579,-7.633403301,4.454538345,2024-06-04 16:20:49.543052
8.583051997,-7.241578579,-7.633403301,4.454538345,2024-06-04 16:20:49.583052
8.623051997,-7.241578579,-7.633403301,4.454538345,2024-06-04 16:20:49.623052
8.663051997,-7.241578579,-7.633403301,4.454538345,2024-06-04 16:20:49.663052
8.703051997,-7.241578579,-7.633403301,4.454538345,2024-06-04 16:20:49.703052
8.743051997,-2.347658157,0.5198407173,3.463909864,2024-06-04 16:20:49.743052
8.783051997,-2.347658157,0.5198407173,3.463909864,2024-06-04 16:20:49.783052
8.823051997,-2.347658157,0.5198407173,3.463909864,2024-06-04 16:20:49.823052
8.863051997,-2.347658157,0.5198407173,3.463909864,2024-06-04 16:20:49.863052
8.903051997,-2.347658157,0.5198407173,3.463909864,2024-06-04 16:20:49.903052
8.943051997,-2.347658157,0.5198407173,3.463909864,2024-06-04 16:20:49.943052
8.983051997,-2.347658157,0.5198407173,3.463909864,2024-06-04 16:20:49.983052
9.023051997,-2.347658157,0.5198407173,3.463909864,2024-06-04 16:20:50.023052
9.063051997,-2.347658157,0.5198407173,3.463909864,2024-06-04 16:20:50.063052
9.103051997,-2.347658157,0.5198407173,3.463909864,2024-06-04 16:20:50.103052
9.143051997,-2.347658157,0.5198407173,3.463909864,2024-06-04 16:20:50.143052
9.183051997,-2.347658157,0.5198407173,3.463909864,2024-06-04 16:20:50.183052
9.223051997,-2.347658157,0.5198407173,3.463909864,2024-06-04 16:20:50.223052
9.263051997,-2.347658157,0.5198407173,3.463909864,2024-06-04 16:20:50.263052
9.303051997,-2.347658157,0.5198407173,3.463909864,2024-06-04 16:20:50.303052
9.343051997,-2.347658157,0.5198407173,3.463909864,2024-06-04 16:20:50.343052
9.383051997,-2.347658157,0.5198407173,3.463909864,2024-06-04 16:20:50.383052
9.423051997,-2.347658157,0.5198407173,3.463909864,2024-06-04 16:20:50.423052
9.463051997,-2.347658157,0.5198407173,3.463909864,2024-06-04 16:20:50.463052
9.503051997,-2.347658157,0.5198407173,3.463909864,2024-06-04 16:20:50.503052
9.543051997,-2.783450842,-6.894320011,1.75722909,2024-06-04 16:20:50.543052
9.583051997,-2.167897224,-6.27966404,2.214557409,2024-06-04 16:20:50.583052
9.623051997,-3.820739508,-7.296613693,2.702095032,2024-06-04 16:20:50.623052
9.663051997,-5.967101574,-7.536194801,3.17407918,2024-06-04 16:20:50.663052
9.703051997,-7.670492172,-8.870492935,3.614956856,2024-06-04 16:20:50.703052
9.743051997,-8.49332428,-8.490931511,3.928715706,2024-06-04 16:20:50.743052
9.783051997,-6.700202465,-8.938688278,4.546662331,2024-06-04 16:20:50.783052
9.823051997,-6.488138676,-8.191529274,4.348955154,2024-06-04 16:20:50.823052
9.863051997,-4.677071095,-7.036693096,2.753540754,2024-06-04 16:20:50.863052
9.903051997,-6.473781586,-7.351648331,4.382454872,2024-06-04 16:20:50.903052
9.943051997,-6.473781586,-7.351648331,4.382454872,2024-06-04 16:20:50.943052
9.983051997,-6.473781586,-7.351648331,4.382454872,2024-06-04 16:20:50.983052
10.023052,-8.762815475,-8.626125336,5.668895721,2024-06-04 16:20:51.023052
10.063052,-8.762815475,-8.626125336,5.668895721,2024-06-04 16:20:51.063052
10.103052,-8.762815475,-8.626125336,5.668895721,2024-06-04 16:20:51.103052
10.143052,-8.762815475,-8.626125336,5.668895721,2024-06-04 16:20:51.143052
10.183052,-8.762815475,-8.626125336,5.668895721,2024-06-04 16:20:51.183052
10.223052,-8.762815475,-8.626125336,5.668895721,2024-06-04 16:20:51.223052
10.263052,-8.762815475,-8.626125336,5.668895721,2024-06-04 16:20:51.263052
10.303052,-8.762815475,-8.626125336,5.668895721,2024-06-04 16:20:51.303052
10.343052,-8.762815475,-8.626125336,5.668895721,2024-06-04 16:20:51.343052
10.383052,-8.762815475,-8.626125336,5.668895721,2024-06-04 16:20:51.383052
10.423052,-8.762815475,-8.626125336,5.668895721,2024-06-04 16:20:51.423052
10.463052,-8.762815475,-8.626125336,5.668895721,2024-06-04 16:20:51.463052
10.503052,-8.762815475,-8.626125336,5.668895721,2024-06-04 16:20:51.503052
10.543052,-8.762815475,-8.626125336,5.668895721,2024-06-04 16:20:51.543052
10.583052,-8.762815475,-8.626125336,5.668895721,2024-06-04 16:20:51.583052
10.623052,-8.762815475,-8.626125336,5.668895721,2024-06-04 16:20:51.623052
10.663052,-8.762815475,-8.626125336,5.668895721,2024-06-04 16:20:51.663052
10.703052,-8.762815475,-8.626125336,5.668895721,2024-06-04 16:20:51.703052
10.743052,-8.762815475,-8.626125336,5.668895721,2024-06-04 16:20:51.743052
10.783052,-5.863013744,-8.601000786,3.783650875,2024-06-04 16:20:51.783052
10.823052,-5.863013744,-8.601000786,3.783650875,2024-06-04 16:20:51.823052
10.863052,-5.863013744,-8.601000786,3.783650875,2024-06-04 16:20:51.863052
10.903052,-5.863013744,-8.601000786,3.783650875,2024-06-04 16:20:51.903052
10.943052,-5.863013744,-8.601000786,3.783650875,2024-06-04 16:20:51.943052
10.983052,-5.863013744,-8.601000786,3.783650875,2024-06-04 16:20:51.983052
11.023052,-5.863013744,-8.601000786,3.783650875,2024-06-04 16:20:52.023052
11.063052,-5.863013744,-8.601000786,3.783650875,2024-06-04 16:20:52.063052
11.103052,-5.863013744,-8.601000786,3.783650875,2024-06-04 16:20:52.103052
11.143052,-5.863013744,-8.601000786,3.783650875,2024-06-04 16:20:52.143052
11.183052,-5.863013744,-8.601000786,3.783650875,2024-06-04 16:20:52.183052
11.223052,-5.428118229,-3.260220766,3.609872103,2024-06-04 16:20:52.223052
11.263052,-3.933501244,-2.921337366,3.588336706,2024-06-04 16:20:52.263052
11.303052,-3.472284794,-0.8168498278,3.642474174,2024-06-04 16:20:52.303052
11.343052,-2.440978289,0.08853443712,3.212364435,2024-06-04 16:20:52.343052
11.383052,-3.255435228,-0.332901448,3.418446302,2024-06-04 16:20:52.383052
11.423052,-4.281956196,-1.901994944,3.760919094,2024-06-04 16:20:52.423052
11.463052,-3.532105207,-3.254238844,3.504587889,2024-06-04 16:20:52.463052
11.503052,-5.010271549,-4.874777794,4.197010994,2024-06-04 16:20:52.503052
11.543052,-5.507380486,-6.88594532,4.421039104,2024-06-04 16:20:52.543052
11.583052,-7.129116058,-8.021339417,5.719145298,2024-06-04 16:20:52.583052
11.623052,-7.129116058,-8.021339417,5.719145298,2024-06-04 16:20:52.623052
11.663052,-7.129116058,-8.021339417,5.719145298,2024-06-04 16:20:52.663052
11.703052,-7.129116058,-8.021339417,5.719145298,2024-06-04 16:20:52.703052
11.743052,-7.129116058,-8.021339417,5.719145298,2024-06-04 16:20:52.743052
11.783052,-7.712366581,-7.248756886,4.127319813,2024-06-04 16:20:52.783052
11.823052,-7.712366581,-7.248756886,4.127319813,2024-06-04 16:20:52.823052
11.863052,-7.712366581,-7.248756886,4.127319813,2024-06-04 16:20:52.863052
11.903052,-7.712366581,-7.248756886,4.127319813,2024-06-04 16:20:52.903052
11.943052,-7.712366581,-7.248756886,4.127319813,2024-06-04 16:20:52.943052
11.983052,-7.712366581,-7.248756886,4.127319813,2024-06-04 16:20:52.983052
12.023052,-7.712366581,-7.248756886,4.127319813,2024-06-04 16:20:53.023052
12.063052,-7.712366581,-7.248756886,4.127319813,2024-06-04 16:20:53.063052
12.103052,-7.712366581,-7.248756886,4.127319813,2024-06-04 16:20:53.103052
12.143052,-7.712366581,-7.248756886,4.127319813,2024-06-04 16:20:53.143052
12.183052,-7.712366581,-7.248756886,4.127319813,2024-06-04 16:20:53.183052
12.223052,-7.712366581,-7.248756886,4.127319813,2024-06-04 16:20:53.223052
12.263052,-7.712366581,-7.248756886,4.127319813,2024-06-04 16:20:53.263052
12.303052,-7.712366581,-7.248756886,4.127319813,2024-06-04 16:20:53.303052
12.343052,-7.712366581,-7.248756886,4.127319813,2024-06-04 16:20:53.343052
12.383052,-7.712366581,-7.248756886,4.127319813,2024-06-04 16:20:53.383052
12.423052,-7.712366581,-7.248756886,4.127319813,2024-06-04 16:20:53.423052
12.463052,-7.712366581,-7.248756886,4.127319813,2024-06-04 16:20:53.463052
12.503052,-7.712366581,-7.248756886,4.127319813,2024-06-04 16:20:53.503052
12.543052,-7.712366581,-7.248756886,4.127319813,2024-06-04 16:20:53.543052
12.583052,-7.712366581,-7.248756886,4.127319813,2024-06-04 16:20:53.583052
12.623052,-7.712366581,-7.248756886,4.127319813,2024-06-04 16:20:53.623052
12.663052,-7.712366581,-7.248756886,4.127319813,2024-06-04 16:20:53.663052
12.703052,-7.712366581,-7.248756886,4.127319813,2024-06-04 16:20:53.703052
12.743052,-7.712366581,-7.248756886,4.127319813,2024-06-04 16:20:53.743052
12.783052,-7.999804497,-8.27767086,4.502394676,2024-06-04 16:20:53.783052
12.823052,-7.999804497,-8.27767086,4.502394676,2024-06-04 16:20:53.823052
12.863052,-7.907680511,-8.311170578,4.208974838,2024-06-04 16:20:53.863052
12.903052,-4.41625309,-6.74925518,3.961018801,2024-06-04 16:20:53.903052
12.943052,-5.171787262,-7.246364117,3.913162231,2024-06-04 16:20:53.943052
12.983052,-4.763511658,-7.133901596,3.916751623,2024-06-04 16:20:53.983052
13.023052,-5.818746567,-7.159026146,3.328416348,2024-06-04 16:20:54.023052
13.063052,-8.001000404,-7.671688557,3.845864296,2024-06-04 16:20:54.063052
13.103052,-9.223732948,-7.355237484,4.437788486,2024-06-04 16:20:54.103052
13.143052,-8.201100349,-8.217850685,4.240081787,2024-06-04 16:20:54.143052
13.183052,-7.809275627,-8.075178146,4.770689964,2024-06-04 16:20:54.183052
13.223052,-6.48933506,-6.809075832,4.171886444,2024-06-04 16:20:54.223052
13.263052,-6.48933506,-6.809075832,4.171886444,2024-06-04 16:20:54.263052
13.303052,-6.48933506,-6.809075832,4.171886444,2024-06-04 16:20:54.303052
13.343052,-6.48933506,-6.809075832,4.171886444,2024-06-04 16:20:54.343052
13.383052,-6.48933506,-6.809075832,4.171886444,2024-06-04 16:20:54.383052
13.423052,-6.48933506,-6.809075832,4.171886444,2024-06-04 16:20:54.423052
13.463052,-6.48933506,-6.809075832,4.171886444,2024-06-04 16:20:54.463052
13.503052,-6.48933506,-6.809075832,4.171886444,2024-06-04 16:20:54.503052
13.543052,-4.36211586,-2.760719061,4.396811485,2024-06-04 16:20:54.543052
13.583052,-4.36211586,-2.760719061,4.396811485,2024-06-04 16:20:54.583052
13.623052,-4.36211586,-2.760719061,4.396811485,2024-06-04 16:20:54.623052
13.663052,-4.36211586,-2.760719061,4.396811485,2024-06-04 16:20:54.663052
13.703052,-4.36211586,-2.760719061,4.396811485,2024-06-04 16:20:54.703052
13.743052,-4.36211586,-2.760719061,4.396811485,2024-06-04 16:20:54.743052
13.783052,-7.658527851,-8.841778755,4.220939159,2024-06-04 16:20:54.783052
13.823052,-7.658527851,-8.841778755,4.220939159,2024-06-04 16:20:54.823052
13.863052,-7.658527851,-8.841778755,4.220939159,2024-06-04 16:20:54.863052
13.903052,-7.658527851,-8.841778755,4.220939159,2024-06-04 16:20:54.903052
13.943052,-7.658527851,-8.841778755,4.220939159,2024-06-04 16:20:54.943052
13.983052,-7.658527851,-8.841778755,4.220939159,2024-06-04 16:20:54.983052
14.023052,-7.658527851,-8.841778755,4.220939159,2024-06-04 16:20:55.023052
14.063052,-7.658527851,-8.841778755,4.220939159,2024-06-04 16:20:55.063052
14.103052,-7.658527851,-8.841778755,4.220939159,2024-06-04 16:20:55.103052
14.143052,-7.658527851,-8.841778755,4.220939159,2024-06-04 16:20:55.143052
14.183052,-7.658527851,-8.841778755,4.220939159,2024-06-04 16:20:55.183052
14.223052,-7.658527851,-8.841778755,4.220939159,2024-06-04 16:20:55.223052
14.263052,-7.658527851,-8.841778755,4.220939159,2024-06-04 16:20:55.263052
14.303052,-7.658527851,-8.841778755,4.220939159,2024-06-04 16:20:55.303052
14.343052,-7.658527851,-8.841778755,4.220939159,2024-06-04 16:20:55.343052
14.383052,-7.658527851,-8.841778755,4.220939159,2024-06-04 16:20:55.383052
14.423052,-7.658527851,-8.841778755,4.220939159,2024-06-04 16:20:55.423052
14.463052,-7.658527851,-8.841778755,4.220939159,2024-06-04 16:20:55.463052
14.503052,-7.658527851,-8.841778755,4.220939159,2024-06-04 16:20:55.503052
14.543052,-3.435195923,-1.554736495,3.408874989,2024-06-04 16:20:55.543052
14.583052,-5.003093243,-3.097508907,4.127319813,2024-06-04 16:20:55.583052
14.623052,-5.515755177,-4.206582069,3.875774384,2024-06-04 16:20:55.623052
14.663052,-6.895516872,-6.131309032,4.679463863,2024-06-04 16:20:55.663052
14.703052,-8.841778755,-8.035696983,4.703691006,2024-06-04 16:20:55.703052
14.743052,-8.998807907,-8.719744682,4.86281395,2024-06-04 16:20:55.743052
14.783052,-10.74138069,-9.641879082,5.889334679,2024-06-04 16:20:55.783052
14.823052,-7.459624767,-7.439285755,4.047160625,2024-06-04 16:20:55.823052
14.863052,-5.983851433,-5.760122299,2.176272154,2024-06-04 16:20:55.863052
14.903052,-5.983851433,-5.760122299,2.176272154,2024-06-04 16:20:55.903052
14.943052,-5.983851433,-5.760122299,2.176272154,2024-06-04 16:20:55.943052
14.983052,-5.983851433,-5.760122299,2.176272154,2024-06-04 16:20:55.983052
15.023052,-7.57806921,-7.465606689,4.089034557,2024-06-04 16:20:56.023052
15.063052,-7.57806921,-7.465606689,4.089034557,2024-06-04 16:20:56.063052
15.103052,-7.57806921,-7.465606689,4.089034557,2024-06-04 16:20:56.103052
15.143052,-7.57806921,-7.465606689,4.089034557,2024-06-04 16:20:56.143052
15.183052,-7.57806921,-7.465606689,4.089034557,2024-06-04 16:20:56.183052
15.223052,-7.57806921,-7.465606689,4.089034557,2024-06-04 16:20:56.223052
15.263052,-7.57806921,-7.465606689,4.089034557,2024-06-04 16:20:56.263052
15.303052,-7.57806921,-7.465606689,4.089034557,2024-06-04 16:20:56.303052
15.343052,-7.57806921,-7.465606689,4.089034557,2024-06-04 16:20:56.343052
15.383052,-7.57806921,-7.465606689,4.089034557,2024-06-04 16:20:56.383052
15.423052,-7.57806921,-7.465606689,4.089034557,2024-06-04 16:20:56.423052
15.463052,-7.57806921,-7.465606689,4.089034557,2024-06-04 16:20:56.463052
15.503052,-7.57806921,-7.465606689,4.089034557,2024-06-04 16:20:56.503052
15.543052,-7.57806921,-7.465606689,4.089034557,2024-06-04 16:20:56.543052
15.583052,-7.57806921,-7.465606689,4.089034557,2024-06-04 16:20:56.583052
15.623052,-7.57806921,-7.465606689,4.089034557,2024-06-04 16:20:56.623052
15.663052,-7.57806921,-7.465606689,4.089034557,2024-06-04 16:20:56.663052
15.703052,-7.57806921,-7.465606689,4.089034557,2024-06-04 16:20:56.703052
15.743052,-7.57806921,-7.465606689,4.089034557,2024-06-04 16:20:56.743052
15.783052,-8.361419678,-7.282256603,3.675973892,2024-06-04 16:20:56.783052
15.823052,-8.361419678,-7.282256603,3.675973892,2024-06-04 16:20:56.823052
15.863052,-8.361419678,-7.282256603,3.675973892,2024-06-04 16:20:56.863052
15.903052,-8.361419678,-7.282256603,3.675973892,2024-06-04 16:20:56.903052
15.943052,-8.361419678,-7.282256603,3.675973892,2024-06-04 16:20:56.943052
15.983052,-8.361419678,-7.282256603,3.675973892,2024-06-04 16:20:56.983052
16.023052,-8.361419678,-7.282256603,3.675973892,2024-06-04 16:20:57.023052
16.063052,-8.361419678,-7.282256603,3.675973892,2024-06-04 16:20:57.063052
16.103052,-8.361419678,-7.282256603,3.675973892,2024-06-04 16:20:57.103052
16.143052,-8.361419678,-7.282256603,3.675973892,2024-06-04 16:20:57.143052
16.183052,-10.01067257,-8.264510155,4.071088791,2024-06-04 16:20:57.183052
16.223052,-8.866903305,-7.112366199,4.068696022,2024-06-04 16:20:57.223052
16.263052,-6.061916828,-6.743273258,3.368196964,2024-06-04 16:20:57.263052
16.303052,-6.99003315,-5.186143875,3.254238844,2024-06-04 16:20:57.303052
16.343052,-8.848957062,-6.027221203,3.508177042,2024-06-04 16:20:57.343052
16.383052,-5.945566177,-4.325026989,2.753540754,2024-06-04 16:20:57.383052
16.423052,-3.827918053,-2.481656075,3.56680131,2024-06-04 16:20:57.423052
16.463052,-4.468895435,-1.918744683,3.824328899,2024-06-04 16:20:57.463052
16.503052,-1.93190515,-0.5353940725,3.377768278,2024-06-04 16:20:57.503052
16.543052,-1.9797616,0.418145746,3.416053534,2024-06-04 16:20:57.543052
16.583052,-1.9797616,0.418145746,3.416053534,2024-06-04 16:20:57.583052
16.623052,-1.9797616,0.418145746,3.416053534,2024-06-04 16:20:57.623052
16.663052,-1.9797616,0.418145746,3.416053534,2024-06-04 16:20:57.663052
16.703052,-1.9797616,0.418145746,3.416053534,2024-06-04 16:20:57.703052
16.743052,-1.9797616,0.418145746,3.416053534,2024-06-04 16:20:57.743052
16.783052,-7.496713161,-8.127820015,3.998107433,2024-06-04 16:20:57.783052
16.823052,-7.496713161,-8.127820015,3.998107433,2024-06-04 16:20:57.823052
16.863052,-7.496713161,-8.127820015,3.998107433,2024-06-04 16:20:57.863052
16.903052,-7.496713161,-8.127820015,3.998107433,2024-06-04 16:20:57.903052
16.943052,-7.496713161,-8.127820015,3.998107433,2024-06-04 16:20:57.943052
16.983052,-7.496713161,-8.127820015,3.998107433,2024-06-04 16:20:57.983052
17.023052,-7.496713161,-8.127820015,3.998107433,2024-06-04 16:20:58.023052
17.063052,-7.496713161,-8.127820015,3.998107433,2024-06-04 16:20:58.063052
17.103052,-7.496713161,-8.127820015,3.998107433,2024-06-04 16:20:58.103052
17.143052,-7.496713161,-8.127820015,3.998107433,2024-06-04 16:20:58.143052
17.183052,-7.496713161,-8.127820015,3.998107433,2024-06-04 16:20:58.183052
17.223052,-7.496713161,-8.127820015,3.998107433,2024-06-04 16:20:58.223052
17.263052,-7.496713161,-8.127820015,3.998107433,2024-06-04 16:20:58.263052
17.303052,-7.496713161,-8.127820015,3.998107433,2024-06-04 16:20:58.303052
17.343052,-7.496713161,-8.127820015,3.998107433,2024-06-04 16:20:58.343052
17.383052,-7.496713161,-8.127820015,3.998107433,2024-06-04 16:20:58.383052
17.423052,-7.496713161,-8.127820015,3.998107433,2024-06-04 16:20:58.423052
17.463052,-7.496713161,-8.127820015,3.998107433,2024-06-04 16:20:58.463052
17.503052,-7.496713161,-8.127820015,3.998107433,2024-06-04 16:20:58.503052
17.543052,-7.496713161,-8.127820015,3.998107433,2024-06-04 16:20:58.543052
17.583052,-7.496713161,-8.127820015,3.998107433,2024-06-04 16:20:58.583052
17.623052,-7.496713161,-8.127820015,3.998107433,2024-06-04 16:20:58.623052
17.663052,-7.496713161,-8.127820015,3.998107433,2024-06-04 16:20:58.663052
17.703052,-7.496713161,-8.127820015,3.998107433,2024-06-04 16:20:58.703052
17.743052,-7.496713161,-8.127820015,3.998107433,2024-06-04 16:20:58.743052
17.783052,-5.218447208,-8.082356453,2.748754978,2024-06-04 16:20:58.783052
17.823052,-5.031806946,-8.059624672,2.542972326,2024-06-04 16:20:58.823052
17.863052,-4.486841679,-6.819843769,2.757129908,2024-06-04 16:20:58.863052
17.903052,-4.50957346,-7.196115017,2.771486759,2024-06-04 16:20:58.903052
17.943052,-5.113162994,-7.770990849,3.080759048,2024-06-04 16:20:58.943052
17.983052,-5.405386448,-6.862017155,2.686541557,2024-06-04 16:20:58.983052
18.023052,-5.840281963,-8.392526627,2.93090868,2024-06-04 16:20:59.023052
18.063052,-5.953940868,-7.968697548,2.454138756,2024-06-04 16:20:59.063052
18.103052,-6.131309032,-7.709973812,2.766701221,2024-06-04 16:20:59.103052
18.143052,-6.821040154,-8.293224335,3.508177042,2024-06-04 16:20:59.143052
18.183052,-4.795814991,-6.968497753,3.417249918,2024-06-04 16:20:59.183052
18.223052,-4.795814991,-6.968497753,3.417249918,2024-06-04 16:20:59.223052
18.263052,-4.795814991,-6.968497753,3.417249918,2024-06-04 16:20:59.263052
18.303052,-4.795814991,-6.968497753,3.417249918,2024-06-04 16:20:59.303052
18.343052,-4.795814991,-6.968497753,3.417249918,2024-06-04 16:20:59.343052
18.383052,-4.795814991,-6.968497753,3.417249918,2024-06-04 16:20:59.383052
18.423052,-4.795814991,-6.968497753,3.417249918,2024-06-04 16:20:59.423052
18.463052,-4.795814991,-6.968497753,3.417249918,2024-06-04 16:20:59.463052
18.503052,-4.795814991,-6.968497753,3.417249918,2024-06-04 16:20:59.503052
18.543052,-8.61655426,-6.02363205,3.622135162,2024-06-04 16:20:59.543052
18.583052,-8.61655426,-6.02363205,3.622135162,2024-06-04 16:20:59.583052
18.623052,-8.61655426,-6.02363205,3.622135162,2024-06-04 16:20:59.623052
18.663052,-8.61655426,-6.02363205,3.622135162,2024-06-04 16:20:59.663052
18.703052,-8.61655426,-6.02363205,3.622135162,2024-06-04 16:20:59.703052
18.743052,-8.61655426,-6.02363205,3.622135162,2024-06-04 16:20:59.743052
18.783052,-1.395314693,-0.3963112533,3.389732361,2024-06-04 16:20:59.783052
18.823052,-1.395314693,-0.3963112533,3.389732361,2024-06-04 16:20:59.823052
18.863052,-1.395314693,-0.3963112533,3.389732361,2024-06-04 16:20:59.863052
18.903052,-1.395314693,-0.3963112533,3.389732361,2024-06-04 16:20:59.903052
18.943052,-1.395314693,-0.3963112533,3.389732361,2024-06-04 16:20:59.943052
18.983052,-1.395314693,-0.3963112533,3.389732361,2024-06-04 16:20:59.983052
19.023052,-1.395314693,-0.3963112533,3.389732361,2024-06-04 16:21:00.023052
19.063052,-1.395314693,-0.3963112533,3.389732361,2024-06-04 16:21:00.063052
19.103052,-1.395314693,-0.3963112533,3.389732361,2024-06-04 16:21:00.103052
19.143052,-1.395314693,-0.3963112533,3.389732361,2024-06-04 16:21:00.143052
19.183052,-1.395314693,-0.3963112533,3.389732361,2024-06-04 16:21:00.183052
19.223052,-1.395314693,-0.3963112533,3.389732361,2024-06-04 16:21:00.223052
19.263052,-1.395314693,-0.3963112533,3.389732361,2024-06-04 16:21:00.263052
19.303052,-1.395314693,-0.3963112533,3.389732361,2024-06-04 16:21:00.303052
19.343052,-1.395314693,-0.3963112533,3.389732361,2024-06-04 16:21:00.343052
19.383052,-1.395314693,-0.3963112533,3.389732361,2024-06-04 16:21:00.383052
19.423052,-1.395314693,-0.3963112533,3.389732361,2024-06-04 16:21:00.423052
19.463052,-1.395314693,-0.3963112533,3.389732361,2024-06-04 16:21:00.463052
19.503052,-9.050253868,-7.537391186,3.02662158,2024-06-04 16:21:00.503052
19.543052,-9.518648148,-7.182954311,3.854238987,2024-06-04 16:21:00.543052
19.583052,-8.181958199,-6.858428001,3.643670797,2024-06-04 16:21:00.583052
19.623052,-8.932705879,-6.125326633,4.377668858,2024-06-04 16:21:00.623052
19.663052,-6.259325027,-3.964607954,1.717448473,2024-06-04 16:21:00.663052
19.703052,-3.346661568,-1.402493119,2.183450699,2024-06-04 16:21:00.703052
19.743052,-2.073380709,-0.8156534433,2.663809776,2024-06-04 16:21:00.743052
19.783052,-4.327419758,-1.300798178,3.565604925,2024-06-04 16:21:00.783052
19.823052,-5.884549141,-1.472184181,4.320241451,2024-06-04 16:21:00.823052
19.863052,-4.477270126,-1.13419795,3.916751623,2024-06-04 16:21:00.863052
19.903052,-4.477270126,-1.13419795,3.916751623,2024-06-04 16:21:00.903052
19.943052,-4.477270126,-1.13419795,3.916751623,2024-06-04 16:21:00.943052
19.983052,-4.477270126,-1.13419795,3.916751623,2024-06-04 16:21:00.983052
20.023052,-4.477270126,-1.13419795,3.916751623,2024-06-04 16:21:01.023052
20.063052,-4.477270126,-1.13419795,3.916751623,2024-06-04 16:21:01.063052
20.103052,-4.477270126,-1.13419795,3.916751623,2024-06-04 16:21:01.103052
20.143052,-4.477270126,-1.13419795,3.916751623,2024-06-04 16:21:01.143052
20.183052,-4.477270126,-1.13419795,3.916751623,2024-06-04 16:21:01.183052
20.223052,-4.477270126,-1.13419795,3.916751623,2024-06-04 16:21:01.223052
20.263052,-4.477270126,-1.13419795,3.916751623,2024-06-04 16:21:01.263052
20.303052,-4.477270126,-1.13419795,3.916751623,2024-06-04 16:21:01.303052
20.343052,-4.477270126,-1.13419795,3.916751623,2024-06-04 16:21:01.343052
20.383052,-4.477270126,-1.13419795,3.916751623,2024-06-04 16:21:01.383052
20.423052,-4.477270126,-1.13419795,3.916751623,2024-06-04 16:21:01.423052
20.463052,-4.477270126,-1.13419795,3.916751623,2024-06-04 16:21:01.463052
20.503052,-4.477270126,-1.13419795,3.916751623,2024-06-04 16:21:01.503052
20.543052,-7.218846798,-7.397411346,2.376372099,2024-06-04 16:21:01.543052
20.583052,-7.218846798,-7.397411346,2.376372099,2024-06-04 16:21:01.583052
20.623052,-7.218846798,-7.397411346,2.376372099,2024-06-04 16:21:01.623052
20.663052,-7.218846798,-7.397411346,2.376372099,2024-06-04 16:21:01.663052
20.703052,-7.218846798,-7.397411346,2.376372099,2024-06-04 16:21:01.703052
20.743052,-7.218846798,-7.397411346,2.376372099,2024-06-04 16:21:01.743052
20.783052,-7.218846798,-7.397411346,2.376372099,2024-06-04 16:21:01.783052
20.823052,-7.218846798,-7.397411346,2.376372099,2024-06-04 16:21:01.823052
20.863052,-7.218846798,-7.397411346,2.376372099,2024-06-04 16:21:01.863052
20.903052,-7.218846798,-7.397411346,2.376372099,2024-06-04 16:21:01.903052
20.943052,-7.218846798,-7.397411346,2.376372099,2024-06-04 16:21:01.943052
20.983052,-7.218846798,-7.397411346,2.376372099,2024-06-04 16:21:01.983052
21.023052,-7.218846798,-7.397411346,2.376372099,2024-06-04 16:21:02.023052
21.063052,-7.218846798,-7.397411346,2.376372099,2024-06-04 16:21:02.063052
21.103052,-7.218846798,-7.397411346,2.376372099,2024-06-04 16:21:02.103052
21.143052,-7.772187233,-7.187740326,2.854338408,2024-06-04 16:21:02.143052
21.183052,-7.832007408,-5.94078064,2.647060156,2024-06-04 16:21:02.183052
21.223052,-7.778169155,-8.217850685,3.12383008,2024-06-04 16:21:02.223052
21.263052,-9.672985077,-9.274281502,4.020839214,2024-06-04 16:21:02.263052
21.303052,-9.157930374,-8.38534832,3.990929127,2024-06-04 16:21:02.303052
21.343052,-7.313363075,-7.106384277,3.662813187,2024-06-04 16:21:02.343052
21.383052,-6.361319065,-7.671688557,3.090330362,2024-06-04 16:21:02.383052
21.423052,-5.898906231,-7.170990467,2.391925335,2024-06-04 16:21:02.423052
21.463052,-7.749455452,-6.544369698,3.184846878,2024-06-04 16:21:02.463052
21.503052,-8.161319733,-6.768397808,3.601497173,2024-06-04 16:21:02.503052
21.543052,-8.472985268,-6.727719784,3.436392307,2024-06-04 16:21:02.543052
21.583052,-8.472985268,-6.727719784,3.436392307,2024-06-04 16:21:02.583052
21.623052,-8.472985268,-6.727719784,3.436392307,2024-06-04 16:21:02.623052
21.663052,-8.472985268,-6.727719784,3.436392307,2024-06-04 16:21:02.663052
21.703052,-8.472985268,-6.727719784,3.436392307,2024-06-04 16:21:02.703052
21.743052,-8.472985268,-6.727719784,3.436392307,2024-06-04 16:21:02.743052
21.783052,-6.543173313,-4.41625309,2.476870537,2024-06-04 16:21:02.783052
21.823052,-6.543173313,-4.41625309,2.476870537,2024-06-04 16:21:02.823052
21.863052,-6.543173313,-4.41625309,2.476870537,2024-06-04 16:21:02.863052
21.903052,-6.543173313,-4.41625309,2.476870537,2024-06-04 16:21:02.903052
21.943052,-6.543173313,-4.41625309,2.476870537,2024-06-04 16:21:02.943052
21.983052,-6.543173313,-4.41625309,2.476870537,2024-06-04 16:21:02.983052
22.023052,-6.543173313,-4.41625309,2.476870537,2024-06-04 16:21:03.023052
22.063052,-6.543173313,-4.41625309,2.476870537,2024-06-04 16:21:03.063052
22.103052,-6.543173313,-4.41625309,2.476870537,2024-06-04 16:21:03.103052
22.143052,-6.543173313,-4.41625309,2.476870537,2024-06-04 16:21:03.143052
22.183052,-6.543173313,-4.41625309,2.476870537,2024-06-04 16:21:03.183052
22.223052,-6.543173313,-4.41625309,2.476870537,2024-06-04 16:21:03.223052
22.263052,-6.543173313,-4.41625309,2.476870537,2024-06-04 16:21:03.263052
22.303052,-6.543173313,-4.41625309,2.476870537,2024-06-04 16:21:03.303052
22.343052,-6.543173313,-4.41625309,2.476870537,2024-06-04 16:21:03.343052
22.383052,-6.543173313,-4.41625309,2.476870537,2024-06-04 16:21:03.383052
22.423052,-6.543173313,-4.41625309,2.476870537,2024-06-04 16:21:03.423052
22.463052,-6.543173313,-4.41625309,2.476870537,2024-06-04 16:21:03.463052
22.503052,-6.543173313,-4.41625309,2.476870537,2024-06-04 16:21:03.503052
22.543052,-6.543173313,-4.41625309,2.476870537,2024-06-04 16:21:03.543052
22.583052,-6.543173313,-4.41625309,2.476870537,2024-06-04 16:21:03.583052
22.623052,-6.543173313,-4.41625309,2.476870537,2024-06-04 16:21:03.623052
22.663052,-6.543173313,-4.41625309,2.476870537,2024-06-04 16:21:03.663052
22.703052,-6.543173313,-4.41625309,2.476870537,2024-06-04 16:21:03.703052
22.743052,-6.543173313,-4.41625309,2.476870537,2024-06-04 16:21:03.743052
22.783052,-6.543173313,-4.41625309,2.476870537,2024-06-04 16:21:03.783052
22.823052,-9.706484795,-2.501995087,2.785843849,2024-06-04 16:21:03.823052
22.863052,-5.103591442,-4.624428749,3.169293642,2024-06-04 16:21:03.863052
22.903052,-4.756333351,-2.26241374,3.215953588,2024-06-04 16:21:03.903052
22.943052,-2.037488461,-0.171385929,2.753540754,2024-06-04 16:21:03.943052
22.983052,-3.305684566,1.16769743,2.953640461,2024-06-04 16:21:03.983052
23.023052,-3.961018801,-1.964208245,3.294916868,2024-06-04 16:21:04.023052
23.063052,-5.04736042,-3.400500059,3.673580885,2024-06-04 16:21:04.063052
23.103052,-8.002197266,-3.96341157,4.133302212,2024-06-04 16:21:04.103052
23.143052,-9.166305542,-5.586343765,3.803989887,2024-06-04 16:21:04.143052
23.183052,-9.166305542,-5.586343765,3.803989887,2024-06-04 16:21:04.183052
23.223052,-9.166305542,-5.586343765,3.803989887,2024-06-04 16:21:04.223052
23.263052,-9.166305542,-5.586343765,3.803989887,2024-06-04 16:21:04.263052
23.303052,-9.166305542,-5.586343765,3.803989887,2024-06-04 16:21:04.303052
23.343052,-9.166305542,-5.586343765,3.803989887,2024-06-04 16:21:04.343052
23.383052,-9.166305542,-5.586343765,3.803989887,2024-06-04 16:21:04.383052
23.423052,-9.166305542,-5.586343765,3.803989887,2024-06-04 16:21:04.423052
23.463052,-9.166305542,-5.586343765,3.803989887,2024-06-04 16:21:04.463052
23.503052,-9.166305542,-5.586343765,3.803989887,2024-06-04 16:21:04.503052
23.543052,-9.166305542,-5.586343765,3.803989887,2024-06-04 16:21:04.543052
23.583052,-9.166305542,-5.586343765,3.803989887,2024-06-04 16:21:04.583052
23.623052,-9.166305542,-5.586343765,3.803989887,2024-06-04 16:21:04.623052
23.663052,-9.166305542,-5.586343765,3.803989887,2024-06-04 16:21:04.663052
23.703052,-9.166305542,-5.586343765,3.803989887,2024-06-04 16:21:04.703052
23.743052,-9.166305542,-5.586343765,3.803989887,2024-06-04 16:21:04.743052
23.783052,-8.434700012,-6.21505785,3.045764208,2024-06-04 16:21:04.783052
23.823052,-8.434700012,-6.21505785,3.045764208,2024-06-04 16:21:04.823052
23.863052,-8.434700012,-6.21505785,3.045764208,2024-06-04 16:21:04.863052
23.903052,-8.434700012,-6.21505785,3.045764208,2024-06-04 16:21:04.903052
23.943052,-8.434700012,-6.21505785,3.045764208,2024-06-04 16:21:04.943052
23.983052,-8.434700012,-6.21505785,3.045764208,2024-06-04 16:21:04.983052
24.023052,-8.434700012,-6.21505785,3.045764208,2024-06-04 16:21:05.023052
24.063052,-8.434700012,-6.21505785,3.045764208,2024-06-04 16:21:05.063052
24.103052,-8.434700012,-6.21505785,3.045764208,2024-06-04 16:21:05.103052
24.143052,-8.434700012,-6.21505785,3.045764208,2024-06-04 16:21:05.143052
24.183052,-8.434700012,-6.21505785,3.045764208,2024-06-04 16:21:05.183052
24.223052,-8.434700012,-6.21505785,3.045764208,2024-06-04 16:21:05.223052
24.263052,-8.434700012,-6.21505785,3.045764208,2024-06-04 16:21:05.263052
24.303052,-8.434700012,-6.21505785,3.045764208,2024-06-04 16:21:05.303052
24.343052,-8.434700012,-6.21505785,3.045764208,2024-06-04 16:21:05.343052
24.383052,-8.434700012,-6.21505785,3.045764208,2024-06-04 16:21:05.383052
24.423052,-8.434700012,-6.21505785,3.045764208,2024-06-04 16:21:05.423052
24.463052,-9.850353241,-7.76500845,4.320241451,2024-06-04 16:21:05.463052
24.503052,-9.046664238,-6.797111988,2.983550787,2024-06-04 16:21:05.503052
24.543052,-4.165904045,-5.932405472,2.751147747,2024-06-04 16:21:05.543052
24.583052,-5.341976643,-7.32891655,2.366800785,2024-06-04 16:21:05.583052
24.623052,-10.01545811,-6.268896103,2.773879766,2024-06-04 16:21:05.623052
24.663052,-11.87318611,-7.462017536,3.974179268,2024-06-04 16:21:05.663052
24.703052,-9.396315575,-7.890631676,3.138186932,2024-06-04 16:21:05.703052
24.743052,-7.628617764,-7.06301403,2.809772015,2024-06-04 16:21:05.743052
24.783052,-6.398407936,-6.327819347,2.662613392,2024-06-04 16:21:05.783052
24.823052,-6.804290295,-5.200500965,3.268595695,2024-06-04 16:21:05.823052
24.863052,-6.804290295,-5.200500965,3.268595695,2024-06-04 16:21:05.863052
24.903052,-6.804290295,-5.200500965,3.268595695,2024-06-04 16:21:05.903052
24.943052,-6.804290295,-5.200500965,3.268595695,2024-06-04 16:21:05.943052
24.983052,-6.804290295,-5.200500965,3.268595695,2024-06-04 16:21:05.983052
25.023052,-6.804290295,-5.200500965,3.268595695,2024-06-04 16:21:06.023052
25.063052,-6.804290295,-5.200500965,3.268595695,2024-06-04 16:21:06.063052
25.103052,-6.804290295,-5.200500965,3.268595695,2024-06-04 16:21:06.103052
25.143052,-6.804290295,-5.200500965,3.268595695,2024-06-04 16:21:06.143052
25.183052,-6.804290295,-5.200500965,3.268595695,2024-06-04 16:21:06.183052
25.223052,-6.804290295,-5.200500965,3.268595695,2024-06-04 16:21:06.223052
25.263052,-6.804290295,-5.200500965,3.268595695,2024-06-04 16:21:06.263052
25.303052,-6.804290295,-5.200500965,3.268595695,2024-06-04 16:21:06.303052
25.343052,-6.804290295,-5.200500965,3.268595695,2024-06-04 16:21:06.343052
25.383052,-6.804290295,-5.200500965,3.268595695,2024-06-04 16:21:06.383052
25.423052,-6.804290295,-5.200500965,3.268595695,2024-06-04 16:21:06.423052
25.463052,-6.804290295,-5.200500965,3.268595695,2024-06-04 16:21:06.463052
25.503052,-6.804290295,-5.200500965,3.268595695,2024-06-04 16:21:06.503052
25.543052,-6.804290295,-5.200500965,3.268595695,2024-06-04 16:21:06.543052
25.583052,-6.804290295,-5.200500965,3.268595695,2024-06-04 16:21:06.583052
25.623052,-6.804290295,-5.200500965,3.268595695,2024-06-04 16:21:06.623052
25.663052,-6.804290295,-5.200500965,3.268595695,2024-06-04 16:21:06.663052
25.703052,-6.804290295,-5.200500965,3.268595695,2024-06-04 16:21:06.703052
25.743052,-6.804290295,-5.200500965,3.268595695,2024-06-04 16:21:06.743052
25.783052,-6.804290295,-5.200500965,3.268595695,2024-06-04 16:21:06.783052
25.823052,-6.804290295,-5.200500965,3.268595695,2024-06-04 16:21:06.823052
25.863052,-6.804290295,-5.200500965,3.268595695,2024-06-04 16:21:06.863052
25.903052,-6.804290295,-5.200500965,3.268595695,2024-06-04 16:21:06.903052
25.943052,-6.804290295,-5.200500965,3.268595695,2024-06-04 16:21:06.943052
25.983052,-6.804290295,-5.200500965,3.268595695,2024-06-04 16:21:06.983052
26.023052,-6.804290295,-5.200500965,3.268595695,2024-06-04 16:21:07.023052
26.063052,-6.804290295,-5.200500965,3.268595695,2024-06-04 16:21:07.063052
26.103052,-3.42323184,-0.1857428551,2.831606388,2024-06-04 16:21:07.103052
26.143052,-5.324030399,-1.361815214,3.150151014,2024-06-04 16:21:07.143052
26.183052,-5.515755177,-2.73798728,3.349054337,2024-06-04 16:21:07.183052
26.223052,-6.42472887,-4.212564468,3.739383698,2024-06-04 16:21:07.223052
26.263052,-7.445267677,-5.183751106,4.309473515,2024-06-04 16:21:07.263052
26.303052,-8.240582466,-5.927619934,4.382454872,2024-06-04 16:21:07.303052
26.343052,-8.937491417,-7.450053215,3.278167009,2024-06-04 16:21:07.343052
26.383052,-8.957830429,-8.101499557,3.460320711,2024-06-04 16:21:07.383052
26.423052,-8.608179092,-7.919644833,3.293720484,2024-06-04 16:21:07.423052
26.463052,-10.18205833,-8.668000221,4.089034557,2024-06-04 16:21:07.463052
26.503052,-10.18205833,-8.668000221,4.089034557,2024-06-04 16:21:07.503052
26.543052,-7.337291718,-7.088139057,3.28414917,2024-06-04 16:21:07.543052
26.583052,-7.337291718,-7.088139057,3.28414917,2024-06-04 16:21:07.583052
26.623052,-7.337291718,-7.088139057,3.28414917,2024-06-04 16:21:07.623052
26.663052,-7.337291718,-7.088139057,3.28414917,2024-06-04 16:21:07.663052
26.703052,-7.337291718,-7.088139057,3.28414917,2024-06-04 16:21:07.703052
26.743052,-7.337291718,-7.088139057,3.28414917,2024-06-04 16:21:07.743052
26.783052,-9.083752632,-5.531308651,2.678166628,2024-06-04 16:21:07.783052
26.823052,-9.083752632,-5.531308651,2.678166628,2024-06-04 16:21:07.823052
26.863052,-9.083752632,-5.531308651,2.678166628,2024-06-04 16:21:07.863052
26.903052,-9.083752632,-5.531308651,2.678166628,2024-06-04 16:21:07.903052
26.943052,-9.083752632,-5.531308651,2.678166628,2024-06-04 16:21:07.943052
26.983052,-9.083752632,-5.531308651,2.678166628,2024-06-04 16:21:07.983052
27.023052,-4.902295589,-2.61714983,3.064906597,2024-06-04 16:21:08.023052
27.063052,-4.902295589,-2.61714983,3.064906597,2024-06-04 16:21:08.063052
27.103052,-4.902295589,-2.61714983,3.064906597,2024-06-04 16:21:08.103052
27.143052,-4.902295589,-2.61714983,3.064906597,2024-06-04 16:21:08.143052
27.183052,-4.902295589,-2.61714983,3.064906597,2024-06-04 16:21:08.183052
27.223052,-4.902295589,-2.61714983,3.064906597,2024-06-04 16:21:08.223052
27.263052,-4.902295589,-2.61714983,3.064906597,2024-06-04 16:21:08.263052
27.303052,-4.902295589,-2.61714983,3.064906597,2024-06-04 16:21:08.303052
27.343052,-4.902295589,-2.61714983,3.064906597,2024-06-04 16:21:08.343052
27.383052,-4.902295589,-2.61714983,3.064906597,2024-06-04 16:21:08.383052
27.423052,-4.902295589,-2.61714983,3.064906597,2024-06-04 16:21:08.423052
27.463052,-4.902295589,-2.61714983,3.064906597,2024-06-04 16:21:08.463052
27.503052,-4.902295589,-2.61714983,3.064906597,2024-06-04 16:21:08.503052
27.543052,-4.902295589,-2.61714983,3.064906597,2024-06-04 16:21:08.543052
27.583052,-4.902295589,-2.61714983,3.064906597,2024-06-04 16:21:08.583052
27.623052,-4.902295589,-2.61714983,3.064906597,2024-06-04 16:21:08.623052
27.663052,-4.902295589,-2.61714983,3.064906597,2024-06-04 16:21:08.663052
27.703052,-4.902295589,-2.61714983,3.064906597,2024-06-04 16:21:08.703052
27.743052,-4.902295589,-2.61714983,3.064906597,2024-06-04 16:21:08.743052
27.783052,-7.607979774,-6.824928284,3.27577424,2024-06-04 16:21:08.783052
27.823052,-8.823832512,-6.425925255,4.260420799,2024-06-04 16:21:08.823052
27.863052,-10.57747269,-7.911269665,3.075674295,2024-06-04 16:21:08.863052
27.903052,-9.693324089,-7.212864876,4.494019985,2024-06-04 16:21:08.903052
27.943052,-8.444271088,-5.690431118,4.405186653,2024-06-04 16:21:08.943052
27.983052,-7.462017536,-4.115355968,3.126222849,2024-06-04 16:21:08.983052
28.023052,-5.049753189,-3.341576815,2.236092806,2024-06-04 16:21:09.023052
28.063052,-3.587140322,-1.45633173,2.593221426,2024-06-04 16:21:09.063052
28.103052,-5.514558792,-1.729412556,4.29750967,2024-06-04 16:21:09.103052
28.143052,-4.502394676,-0.7031907439,4.155136585,2024-06-04 16:21:09.143052
28.183052,-4.502394676,-0.7031907439,4.155136585,2024-06-04 16:21:09.183052
28.223052,-4.502394676,-0.7031907439,4.155136585,2024-06-04 16:21:09.223052
28.263052,-4.502394676,-0.7031907439,4.155136585,2024-06-04 16:21:09.263052
28.303052,-4.502394676,-0.7031907439,4.155136585,2024-06-04 16:21:09.303052
28.343052,-4.502394676,-0.7031907439,4.155136585,2024-06-04 16:21:09.343052
28.383052,-4.502394676,-0.7031907439,4.155136585,2024-06-04 16:21:09.383052
28.423052,-4.502394676,-0.7031907439,4.155136585,2024-06-04 16:21:09.423052
28.463052,-4.502394676,-0.7031907439,4.155136585,2024-06-04 16:21:09.463052
28.503052,-4.502394676,-0.7031907439,4.155136585,2024-06-04 16:21:09.503052
28.543052,-7.96391201,-5.318048477,3.328416348,2024-06-04 16:21:09.543052
28.583052,-7.96391201,-5.318048477,3.328416348,2024-06-04 16:21:09.583052
28.623052,-7.96391201,-5.318048477,3.328416348,2024-06-04 16:21:09.623052
28.663052,-7.96391201,-5.318048477,3.328416348,2024-06-04 16:21:09.663052
28.703052,-7.96391201,-5.318048477,3.328416348,2024-06-04 16:21:09.703052
28.743052,-7.96391201,-5.318048477,3.328416348,2024-06-04 16:21:09.743052
28.783052,-9.017950058,-5.846263885,3.195614576,2024-06-04 16:21:09.783052
28.823052,-9.017950058,-5.846263885,3.195614576,2024-06-04 16:21:09.823052
28.863052,-9.017950058,-5.846263885,3.195614576,2024-06-04 16:21:09.863052
28.903052,-9.017950058,-5.846263885,3.195614576,2024-06-04 16:21:09.903052
28.943052,-9.017950058,-5.846263885,3.195614576,2024-06-04 16:21:09.943052
28.983052,-9.017950058,-5.846263885,3.195614576,2024-06-04 16:21:09.983052
29.023052,-9.017950058,-5.846263885,3.195614576,2024-06-04 16:21:10.023052
29.063052,-9.017950058,-5.846263885,3.195614576,2024-06-04 16:21:10.063052
29.103052,-9.017950058,-5.846263885,3.195614576,2024-06-04 16:21:10.103052
29.143052,-9.017950058,-5.846263885,3.195614576,2024-06-04 16:21:10.143052
29.183052,-9.017950058,-5.846263885,3.195614576,2024-06-04 16:21:10.183052
29.223052,-9.017950058,-5.846263885,3.195614576,2024-06-04 16:21:10.223052
29.263052,-9.017950058,-5.846263885,3.195614576,2024-06-04 16:21:10.263052
29.303052,-9.017950058,-5.846263885,3.195614576,2024-06-04 16:21:10.303052
29.343052,-9.017950058,-5.846263885,3.195614576,2024-06-04 16:21:10.343052
29.383052,-9.017950058,-5.846263885,3.195614576,2024-06-04 16:21:10.383052
29.423052,-7.582854748,-5.974279881,2.595614433,2024-06-04 16:21:10.423052
29.463052,-9.325727463,-9.258728027,2.261217356,2024-06-04 16:21:10.463052
29.503052,-9.816853523,-7.690831184,2.611167669,2024-06-04 16:21:10.503052
29.543052,-9.332905769,-7.108777046,3.105883837,2024-06-04 16:21:10.543052
29.583052,-7.671688557,-7.672884941,4.443770885,2024-06-04 16:21:10.583052
29.623052,-7.837989807,-7.748258591,3.253042459,2024-06-04 16:21:10.623052
29.663052,-9.144769669,-7.530212879,3.895216227,2024-06-04 16:21:10.663052
29.703052,-6.86082077,-6.593721867,3.208775282,2024-06-04 16:21:10.703052
29.743052,-4.932205677,-6.358926296,2.290230274,2024-06-04 16:21:10.743052
29.783052,-8.5148592,-6.398407936,1.998904228,2024-06-04 16:21:10.783052
29.823052,-8.5148592,-6.398407936,1.998904228,2024-06-04 16:21:10.823052
29.863052,-8.5148592,-6.398407936,1.998904228,2024-06-04 16:21:10.863052
29.903052,-8.5148592,-6.398407936,1.998904228,2024-06-04 16:21:10.903052
29.943052,-8.5148592,-6.398407936,1.998904228,2024-06-04 16:21:10.943052
29.983052,-8.5148592,-6.398407936,1.998904228,2024-06-04 16:21:10.983052
30.023052,-8.5148592,-6.398407936,1.998904228,2024-06-04 16:21:11.023052
30.023052,-8.323134422,-4.688137531,3.554837227,2024-06-04 16:21:11.023052
30.103052,-8.323134422,-4.688137531,3.554837227,2024-06-04 16:21:11.103052
30.143052,-8.323134422,-4.688137531,3.554837227,2024-06-04 16:21:11.143052
30.183052,-8.323134422,-4.688137531,3.554837227,2024-06-04 16:21:11.183052
30.223052,-8.323134422,-4.688137531,3.554837227,2024-06-04 16:21:11.223052
30.263052,-8.323134422,-4.688137531,3.554837227,2024-06-04 16:21:11.263052
30.303052,-8.323134422,-4.688137531,3.554837227,2024-06-04 16:21:11.303052
30.343052,-8.323134422,-4.688137531,3.554837227,2024-06-04 16:21:11.343052
30.383052,-8.323134422,-4.688137531,3.554837227,2024-06-04 16:21:11.383052
30.423052,-8.323134422,-4.688137531,3.554837227,2024-06-04 16:21:11.423052
30.463052,-8.323134422,-4.688137531,3.554837227,2024-06-04 16:21:11.463052
30.503052,-8.323134422,-4.688137531,3.554837227,2024-06-04 16:21:11.503052
30.543052,-8.323134422,-4.688137531,3.554837227,2024-06-04 16:21:11.543052
30.583052,-8.323134422,-4.688137531,3.554837227,2024-06-04 16:21:11.583052
30.623052,-8.323134422,-4.688137531,3.554837227,2024-06-04 16:21:11.623052
30.663052,-8.323134422,-4.688137531,3.554837227,2024-06-04 16:21:11.663052
30.703052,-8.323134422,-4.688137531,3.554837227,2024-06-04 16:21:11.703052
30.743052,-8.323134422,-4.688137531,3.554837227,2024-06-04 16:21:11.743052
30.783052,-8.628518105,-7.145865917,3.381357431,2024-06-04 16:21:11.783052
30.823052,-8.628518105,-7.145865917,3.381357431,2024-06-04 16:21:11.823052
30.863052,-8.628518105,-7.145865917,3.381357431,2024-06-04 16:21:11.863052
30.903052,-8.628518105,-7.145865917,3.381357431,2024-06-04 16:21:11.903052
30.943052,-8.628518105,-7.145865917,3.381357431,2024-06-04 16:21:11.943052
30.983052,-8.628518105,-7.145865917,3.381357431,2024-06-04 16:21:11.983052
31.023052,-8.628518105,-7.145865917,3.381357431,2024-06-04 16:21:12.023052
31.063052,-8.628518105,-7.145865917,3.381357431,2024-06-04 16:21:12.063052
31.103052,-3.693919897,-1.351047516,2.038684845,2024-06-04 16:21:12.103052
31.143052,-3.662813187,-1.16769743,3.126222849,2024-06-04 16:21:12.143052
31.183052,-2.280659199,0.1220339537,2.700898647,2024-06-04 16:21:12.183052
31.223052,-2.948854923,-0.06939185411,3.055335522,2024-06-04 16:21:12.223052
31.263052,-4.590929508,-2.506780863,2.862713099,2024-06-04 16:21:12.263052
31.303052,-7.597211838,-5.123930454,3.506980658,2024-06-04 16:21:12.303052
31.343052,-9.064610481,-6.476174355,3.766901016,2024-06-04 16:21:12.343052
31.383052,-8.148159027,-6.160022736,3.668795347,2024-06-04 16:21:12.383052
31.423052,-9.051449776,-9.065806389,1.751247048,2024-06-04 16:21:12.423052
31.463052,-9.051449776,-9.065806389,1.751247048,2024-06-04 16:21:12.463052
31.503052,-9.051449776,-9.065806389,1.751247048,2024-06-04 16:21:12.503052
31.543052,-10.7054882,-8.315956116,4.014857292,2024-06-04 16:21:12.543052
31.583052,-10.7054882,-8.315956116,4.014857292,2024-06-04 16:21:12.583052
31.623052,-10.7054882,-8.315956116,4.014857292,2024-06-04 16:21:12.623052
31.663052,-10.7054882,-8.315956116,4.014857292,2024-06-04 16:21:12.663052
31.703052,-10.7054882,-8.315956116,4.014857292,2024-06-04 16:21:12.703052
31.743052,-10.7054882,-8.315956116,4.014857292,2024-06-04 16:21:12.743052
31.783052,-11.0001049,-7.442874908,3.133401155,2024-06-04 16:21:12.783052
31.823052,-11.0001049,-7.442874908,3.133401155,2024-06-04 16:21:12.823052
31.863052,-11.0001049,-7.442874908,3.133401155,2024-06-04 16:21:12.863052
31.903052,-11.0001049,-7.442874908,3.133401155,2024-06-04 16:21:12.903052
31.943052,-11.0001049,-7.442874908,3.133401155,2024-06-04 16:21:12.943052
31.983052,-11.0001049,-7.442874908,3.133401155,2024-06-04 16:21:12.983052
32.023052,-11.0001049,-7.442874908,3.133401155,2024-06-04 16:21:13.023052
32.063052,-11.0001049,-7.442874908,3.133401155,2024-06-04 16:21:13.063052
32.103052,-11.0001049,-7.442874908,3.133401155,2024-06-04 16:21:13.103052
32.143052,-11.0001049,-7.442874908,3.133401155,2024-06-04 16:21:13.143052
32.183052,-11.0001049,-7.442874908,3.133401155,2024-06-04 16:21:13.183052
32.223052,-11.0001049,-7.442874908,3.133401155,2024-06-04 16:21:13.223052
32.263052,-11.0001049,-7.442874908,3.133401155,2024-06-04 16:21:13.263052
32.303052,-11.0001049,-7.442874908,3.133401155,2024-06-04 16:21:13.303052
32.343052,-11.0001049,-7.442874908,3.133401155,2024-06-04 16:21:13.343052
32.383052,-11.0001049,-7.442874908,3.133401155,2024-06-04 16:21:13.383052
32.423052,-11.0001049,-7.442874908,3.133401155,2024-06-04 16:21:13.423052
32.463052,-11.0001049,-7.442874908,3.133401155,2024-06-04 16:21:13.463052
32.503052,-11.0001049,-7.442874908,3.133401155,2024-06-04 16:21:13.503052
32.543052,-11.0001049,-7.442874908,3.133401155,2024-06-04 16:21:13.543052
32.583052,-11.0001049,-7.442874908,3.133401155,2024-06-04 16:21:13.583052
32.623052,-11.0001049,-7.442874908,3.133401155,2024-06-04 16:21:13.623052
32.663052,-11.0001049,-7.442874908,3.133401155,2024-06-04 16:21:13.663052
32.703052,-11.0001049,-7.442874908,3.133401155,2024-06-04 16:21:13.703052
32.743052,-8.46102047,-7.194918633,3.521337509,2024-06-04 16:21:13.743052
32.783052,-9.056235313,-7.75424099,3.339184046,2024-06-04 16:21:13.783052
32.823052,-10.20359421,-8.106285095,2.530709028,2024-06-04 16:21:13.823052
32.863052,-9.506684303,-7.564908981,3.46271348,2024-06-04 16:21:13.863052
32.903052,-7.380661488,-5.671288967,3.096312523,2024-06-04 16:21:13.903052
32.943052,-8.544769287,-5.852245808,2.722434044,2024-06-04 16:21:13.943052
32.983052,-7.71475935,-5.036592484,2.655434847,2024-06-04 16:21:13.983052
33.023052,-6.513263226,-3.282952785,1.427617788,2024-06-04 16:21:14.023052
33.063052,-3.119044304,-1.759621978,1.94865489,2024-06-04 16:21:14.063052
33.103052,-2.559721947,0.2970091105,2.595614433,2024-06-04 16:21:14.103052
33.143052,-2.559721947,0.2970091105,2.595614433,2024-06-04 16:21:14.143052
33.183052,-2.559721947,0.2970091105,2.595614433,2024-06-04 16:21:14.183052
33.223052,-2.559721947,0.2970091105,2.595614433,2024-06-04 16:21:14.223052
33.263052,-2.559721947,0.2970091105,2.595614433,2024-06-04 16:21:14.263052
33.303052,-2.559721947,0.2970091105,2.595614433,2024-06-04 16:21:14.303052
33.343052,-2.559721947,0.2970091105,2.595614433,2024-06-04 16:21:14.343052
33.383052,-2.559721947,0.2970091105,2.595614433,2024-06-04 16:21:14.383052
33.423052,-2.559721947,0.2970091105,2.595614433,2024-06-04 16:21:14.423052
33.463052,-2.559721947,0.2970091105,2.595614433,2024-06-04 16:21:14.463052
33.503052,-2.559721947,0.2970091105,2.595614433,2024-06-04 16:21:14.503052
33.543052,-9.590433121,-7.456035137,3.911965847,2024-06-04 16:21:14.543052
33.543052,-9.590433121,-7.456035137,3.911965847,2024-06-04 16:21:14.543052
33.623052,-9.590433121,-7.456035137,3.911965847,2024-06-04 16:21:14.623052
33.663052,-9.590433121,-7.456035137,3.911965847,2024-06-04 16:21:14.663052
33.703052,-9.590433121,-7.456035137,3.911965847,2024-06-04 16:21:14.703052
33.743052,-9.590433121,-7.456035137,3.911965847,2024-06-04 16:21:14.743052
33.783052,-12.63739395,-7.548159122,3.352643728,2024-06-04 16:21:14.783052
33.823052,-12.63739395,-7.548159122,3.352643728,2024-06-04 16:21:14.823052
33.863052,-12.63739395,-7.548159122,3.352643728,2024-06-04 16:21:14.863052
33.903052,-12.63739395,-7.548159122,3.352643728,2024-06-04 16:21:14.903052
33.943052,-12.63739395,-7.548159122,3.352643728,2024-06-04 16:21:14.943052
33.983052,-12.63739395,-7.548159122,3.352643728,2024-06-04 16:21:14.983052
34.023052,-12.63739395,-7.548159122,3.352643728,2024-06-04 16:21:15.023052
34.063052,-12.63739395,-7.548159122,3.352643728,2024-06-04 16:21:15.063052
34.103052,-12.63739395,-7.548159122,3.352643728,2024-06-04 16:21:15.103052
34.143052,-12.63739395,-7.548159122,3.352643728,2024-06-04 16:21:15.143052
34.183052,-12.63739395,-7.548159122,3.352643728,2024-06-04 16:21:15.183052
34.223052,-12.63739395,-7.548159122,3.352643728,2024-06-04 16:21:15.223052
34.263052,-12.63739395,-7.548159122,3.352643728,2024-06-04 16:21:15.263052
34.303052,-12.63739395,-7.548159122,3.352643728,2024-06-04 16:21:15.303052
34.343052,-12.63739395,-7.548159122,3.352643728,2024-06-04 16:21:15.343052
34.383052,-9.341280937,-7.932805061,2.682952404,2024-06-04 16:21:15.383052
34.423052,-8.015357971,-7.632206917,2.570489645,2024-06-04 16:21:15.423052
34.463052,-8.011768341,-7.888238907,3.000300407,2024-06-04 16:21:15.463052
34.503052,-9.671789169,-6.55394125,3.934697628,2024-06-04 16:21:15.503052
34.543052,-9.341280937,-8.415258408,4.104588032,2024-06-04 16:21:15.543052
34.583052,-7.485945702,-7.082156658,3.400500059,2024-06-04 16:21:15.583052
34.623052,-6.296712875,-5.794818401,2.9476583,2024-06-04 16:21:15.623052
34.663052,-5.665306568,-7.022336483,3.290131092,2024-06-04 16:21:15.663052
34.703052,-8.791529655,-7.212864876,3.002693415,2024-06-04 16:21:15.703052
34.743052,-10.53649521,-7.47398138,3.753740549,2024-06-04 16:21:15.743052
34.783052,-10.67198944,-7.720741272,2.806182861,2024-06-04 16:21:15.783052
34.823052,-10.67198944,-7.720741272,2.806182861,2024-06-04 16:21:15.823052
34.863052,-10.67198944,-7.720741272,2.806182861,2024-06-04 16:21:15.863052
34.903052,-10.67198944,-7.720741272,2.806182861,2024-06-04 16:21:15.903052
34.943052,-10.67198944,-7.720741272,2.806182861,2024-06-04 16:21:15.943052
34.983052,-10.67198944,-7.720741272,2.806182861,2024-06-04 16:21:15.983052
35.023052,-10.67198944,-7.720741272,2.806182861,2024-06-04 16:21:16.023052
35.063052,-10.67198944,-7.720741272,2.806182861,2024-06-04 16:21:16.063052
35.103052,-10.67198944,-7.720741272,2.806182861,2024-06-04 16:21:16.103052
35.143052,-10.67198944,-7.720741272,2.806182861,2024-06-04 16:21:16.143052
35.183052,-10.67198944,-7.720741272,2.806182861,2024-06-04 16:21:16.183052
35.223052,-10.67198944,-7.720741272,2.806182861,2024-06-04 16:21:16.223052
35.263052,-10.67198944,-7.720741272,2.806182861,2024-06-04 16:21:16.263052
35.303052,-10.67198944,-7.720741272,2.806182861,2024-06-04 16:21:16.303052
35.343052,-10.67198944,-7.720741272,2.806182861,2024-06-04 16:21:16.343052
35.383052,-10.67198944,-7.720741272,2.806182861,2024-06-04 16:21:16.383052
35.423052,-10.67198944,-7.720741272,2.806182861,2024-06-04 16:21:16.423052
35.463052,-10.67198944,-7.720741272,2.806182861,2024-06-04 16:21:16.463052
35.503052,-10.67198944,-7.720741272,2.806182861,2024-06-04 16:21:16.503052
35.543052,-10.67198944,-7.720741272,2.806182861,2024-06-04 16:21:16.543052
35.583052,-10.67198944,-7.720741272,2.806182861,2024-06-04 16:21:16.583052
35.623052,-10.67198944,-7.720741272,2.806182861,2024-06-04 16:21:16.623052
35.663052,-10.67198944,-7.720741272,2.806182861,2024-06-04 16:21:16.663052
35.703052,-10.67198944,-7.720741272,2.806182861,2024-06-04 16:21:16.703052
35.743052,-10.67198944,-7.720741272,2.806182861,2024-06-04 16:21:16.743052
35.783052,-10.25384331,-7.025925636,3.771686792,2024-06-04 16:21:16.783052
35.823052,-10.25384331,-7.025925636,3.771686792,2024-06-04 16:21:16.823052
35.863052,-10.25384331,-7.025925636,3.771686792,2024-06-04 16:21:16.863052
35.903052,-10.25384331,-7.025925636,3.771686792,2024-06-04 16:21:16.903052
35.943052,-10.25384331,-7.025925636,3.771686792,2024-06-04 16:21:16.943052
35.983052,-10.25384331,-7.025925636,3.771686792,2024-06-04 16:21:16.983052
36.023052,-10.25384331,-7.025925636,3.771686792,2024-06-04 16:21:17.023052
36.063052,-2.393121719,0.03349951655,3.233899832,2024-06-04 16:21:17.063052
36.103052,-2.785843849,-0.7953144312,2.139183521,2024-06-04 16:21:17.103052
36.143052,-5.680860043,-3.007478952,2.625524759,2024-06-04 16:21:17.143052
36.183052,-8.519644737,-5.594718456,3.400500059,2024-06-04 16:21:17.183052
36.223052,-9.229715347,-8.393722534,3.623331785,2024-06-04 16:21:17.223052
36.263052,-10.02263641,-8.012965202,2.705684185,2024-06-04 16:21:17.263052
36.303052,-8.863314629,-7.120740891,3.330809116,2024-06-04 16:21:17.303052
36.343052,-7.799704552,-7.349255562,4.198207378,2024-06-04 16:21:17.343052
36.383052,-9.533005714,-8.944669724,4.503591537,2024-06-04 16:21:17.383052
36.423052,-9.533005714,-8.944669724,4.503591537,2024-06-04 16:21:17.423052
36.463052,-9.533005714,-8.944669724,4.503591537,2024-06-04 16:21:17.463052
36.503052,-9.533005714,-8.944669724,4.503591537,2024-06-04 16:21:17.503052
36.543052,-6.331408501,-6.333801746,2.778665304,2024-06-04 16:21:17.543052
36.583052,-6.331408501,-6.333801746,2.778665304,2024-06-04 16:21:17.583052
36.623052,-6.331408501,-6.333801746,2.778665304,2024-06-04 16:21:17.623052
36.663052,-6.331408501,-6.333801746,2.778665304,2024-06-04 16:21:17.663052
36.703052,-6.331408501,-6.333801746,2.778665304,2024-06-04 16:21:17.703052
36.743052,-6.331408501,-6.333801746,2.778665304,2024-06-04 16:21:17.743052
36.783052,-6.331408501,-6.333801746,2.778665304,2024-06-04 16:21:17.783052
36.823052,-6.331408501,-6.333801746,2.778665304,2024-06-04 16:21:17.823052
36.863052,-6.331408501,-6.333801746,2.778665304,2024-06-04 16:21:17.863052
36.903052,-6.331408501,-6.333801746,2.778665304,2024-06-04 16:21:17.903052
36.943052,-6.331408501,-6.333801746,2.778665304,2024-06-04 16:21:17.943052
36.983052,-6.331408501,-6.333801746,2.778665304,2024-06-04 16:21:17.983052
37.023052,-6.331408501,-6.333801746,2.778665304,2024-06-04 16:21:18.023052
37.063052,-6.331408501,-6.333801746,2.778665304,2024-06-04 16:21:18.063052
37.103052,-6.331408501,-6.333801746,2.778665304,2024-06-04 16:21:18.103052
37.143052,-6.331408501,-6.333801746,2.778665304,2024-06-04 16:21:18.143052
37.183052,-6.331408501,-6.333801746,2.778665304,2024-06-04 16:21:18.183052
37.223052,-6.331408501,-6.333801746,2.778665304,2024-06-04 16:21:18.223052
37.263052,-6.331408501,-6.333801746,2.778665304,2024-06-04 16:21:18.263052
37.303052,-6.331408501,-6.333801746,2.778665304,2024-06-04 16:21:18.303052
37.343052,-6.331408501,-6.333801746,2.778665304,2024-06-04 16:21:18.343052
37.383052,-6.331408501,-6.333801746,2.778665304,2024-06-04 16:21:18.383052
37.423052,-6.331408501,-6.333801746,2.778665304,2024-06-04 16:21:18.423052
37.463052,-6.331408501,-6.333801746,2.778665304,2024-06-04 16:21:18.463052
37.503052,-6.331408501,-6.333801746,2.778665304,2024-06-04 16:21:18.503052
37.543052,-6.331408501,-6.333801746,2.778665304,2024-06-04 16:21:18.543052
37.583052,-6.331408501,-6.333801746,2.778665304,2024-06-04 16:21:18.583052
37.623052,-6.331408501,-6.333801746,2.778665304,2024-06-04 16:21:18.623052
37.663052,-6.331408501,-6.333801746,2.778665304,2024-06-04 16:21:18.663052
37.703052,-10.48744297,-6.007779598,3.317648649,2024-06-04 16:21:18.703052
37.743052,-8.077570915,-5.593522072,2.427817583,2024-06-04 16:21:18.743052
37.783052,-7.303792,-5.585147381,2.109273195,2024-06-04 16:21:18.783052
37.823052,-7.575676441,-4.490430832,2.983550787,2024-06-04 16:21:18.823052
37.863052,-6.25453949,-2.098505497,2.76909399,2024-06-04 16:21:18.863052
37.903052,1.05523479,0.4755735099,1.316351533,2024-06-04 16:21:18.903052
37.943052,-0.2228316069,1.966601133,1.518844128,2024-06-04 16:21:18.943052
37.983052,-2.55254364,0.5964110494,2.204986095,2024-06-04 16:21:18.983052
38.023052,-10.84337521,-3.098705292,4.563411713,2024-06-04 16:21:19.023052
38.063052,-7.414160728,-5.24506712,3.401696444,2024-06-04 16:21:19.063052
38.103052,-7.414160728,-5.24506712,3.401696444,2024-06-04 16:21:19.103052
38.143052,-7.414160728,-5.24506712,3.401696444,2024-06-04 16:21:19.143052
38.183052,-7.414160728,-5.24506712,3.401696444,2024-06-04 16:21:19.183052
38.223052,-7.414160728,-5.24506712,3.401696444,2024-06-04 16:21:19.223052
38.263052,-7.414160728,-5.24506712,3.401696444,2024-06-04 16:21:19.263052
38.303052,-7.414160728,-5.24506712,3.401696444,2024-06-04 16:21:19.303052
38.343052,-7.414160728,-5.24506712,3.401696444,2024-06-04 16:21:19.343052
38.383052,-7.414160728,-5.24506712,3.401696444,2024-06-04 16:21:19.383052
38.423052,-7.414160728,-5.24506712,3.401696444,2024-06-04 16:21:19.423052
38.463052,-7.414160728,-5.24506712,3.401696444,2024-06-04 16:21:19.463052
38.503052,-7.414160728,-5.24506712,3.401696444,2024-06-04 16:21:19.503052
38.543052,-9.774979591,-7.139883518,3.212364435,2024-06-04 16:21:19.543052
38.583052,-9.774979591,-7.139883518,3.212364435,2024-06-04 16:21:19.583052
38.623052,-9.774979591,-7.139883518,3.212364435,2024-06-04 16:21:19.623052
38.663052,-9.774979591,-7.139883518,3.212364435,2024-06-04 16:21:19.663052
38.703052,-9.774979591,-7.139883518,3.212364435,2024-06-04 16:21:19.703052
38.743052,-9.774979591,-7.139883518,3.212364435,2024-06-04 16:21:19.743052
38.783052,-6.149255276,-4.902295589,2.195414782,2024-06-04 16:21:19.783052
38.823052,-6.149255276,-4.902295589,2.195414782,2024-06-04 16:21:19.823052
38.863052,-6.149255276,-4.902295589,2.195414782,2024-06-04 16:21:19.863052
38.903052,-6.149255276,-4.902295589,2.195414782,2024-06-04 16:21:19.903052
38.943052,-6.149255276,-4.902295589,2.195414782,2024-06-04 16:21:19.943052
38.983052,-6.149255276,-4.902295589,2.195414782,2024-06-04 16:21:19.983052
39.023052,-6.149255276,-4.902295589,2.195414782,2024-06-04 16:21:20.023052
39.063052,-6.149255276,-4.902295589,2.195414782,2024-06-04 16:21:20.063052
39.103052,-6.149255276,-4.902295589,2.195414782,2024-06-04 16:21:20.103052
39.143052,-6.149255276,-4.902295589,2.195414782,2024-06-04 16:21:20.143052
39.183052,-6.149255276,-4.902295589,2.195414782,2024-06-04 16:21:20.183052
39.223052,-6.149255276,-4.902295589,2.195414782,2024-06-04 16:21:20.223052
39.263052,-6.149255276,-4.902295589,2.195414782,2024-06-04 16:21:20.263052
39.303052,-6.149255276,-4.902295589,2.195414782,2024-06-04 16:21:20.303052
39.343052,-8.480163574,-8.673981667,4.096213341,2024-06-04 16:21:20.343052
39.383052,-6.484549522,-7.633403301,3.259024382,2024-06-04 16:21:20.383052
39.423052,-4.855635166,-5.75025177,2.765504837,2024-06-04 16:21:20.423052
39.463052,-6.004190445,-6.294320107,3.116651535,2024-06-04 16:21:20.463052
39.503052,-7.9782691,-7.709973812,2.772683144,2024-06-04 16:21:20.503052
39.543052,-9.965209007,-7.137490749,2.893819809,2024-06-04 16:21:20.543052
39.583052,-11.30429268,-6.97567606,3.557229996,2024-06-04 16:21:20.583052
39.623052,-11.69372463,-7.150651455,3.292523861,2024-06-04 16:21:20.623052
39.663052,-7.339684486,-6.137290955,4.600500584,2024-06-04 16:21:20.663052
39.703052,-8.960223198,-5.369493961,1.683948994,2024-06-04 16:21:20.703052
39.743052,-8.960223198,-5.369493961,1.683948994,2024-06-04 16:21:20.743052
39.783052,-7.696813107,-5.931209087,3.27577424,2024-06-04 16:21:20.783052
39.823052,-7.696813107,-5.931209087,3.27577424,2024-06-04 16:21:20.823052
39.863052,-7.696813107,-5.931209087,3.27577424,2024-06-04 16:21:20.863052
39.903052,-7.696813107,-5.931209087,3.27577424,2024-06-04 16:21:20.903052
39.943052,-7.696813107,-5.931209087,3.27577424,2024-06-04 16:21:20.943052
39.983052,-7.696813107,-5.931209087,3.27577424,2024-06-04 16:21:20.983052
40.023052,-7.696813107,-5.931209087,3.27577424,2024-06-04 16:21:21.023052
40.063052,-7.295417309,-8.696713448,3.748954773,2024-06-04 16:21:21.063052
40.103052,-10.77129078,-10.05284595,-0.3580260873,2024-06-04 16:21:21.103052
40.143052,-5.935994625,-9.74477005,4.471288204,2024-06-04 16:21:21.143052
40.183052,-11.58455181,-11.37248802,7.10159874,2024-06-04 16:21:21.183052
40.223052,-14.89891052,-11.20738316,7.89182806,2024-06-04 16:21:21.223052
40.263052,-7.628617764,-7.575676441,3.231507063,2024-06-04 16:21:21.263052
40.303052,-2.887837887,-6.195915222,3.117847919,2024-06-04 16:21:21.303052
40.343052,-5.879763603,-11.6829567,2.490031004,2024-06-04 16:21:21.343052
40.383052,-10.0839529,-10.27537823,7.438089371,2024-06-04 16:21:21.383052
40.423052,-9.731609344,-6.204289913,2.872284412,2024-06-04 16:21:21.423052
40.463052,-10.07557774,-6.51445961,4.338187218,2024-06-04 16:21:21.463052
40.503052,-8.559126854,-7.537391186,4.392025948,2024-06-04 16:21:21.503052
40.543052,-9.324530602,-7.221239567,1.374975681,2024-06-04 16:21:21.543052
40.583052,-5.431707382,-5.571986675,2.560918331,2024-06-04 16:21:21.583052
40.623052,-8.495717049,-2.86630249,3.159722328,2024-06-04 16:21:21.623052
40.663052,-3.256631613,0.07537391037,2.006082773,2024-06-04 16:21:21.663052
40.703052,-1.424028635,-1.26490593,2.807379246,2024-06-04 16:21:21.703052
40.743052,-0.613160789,-1.486541033,2.845963478,2024-06-04 16:21:21.743052
40.783052,-1.621735573,-0.6646065116,3.023032188,2024-06-04 16:21:21.783052
40.823052,-3.223132133,-2.621935368,2.434996128,2024-06-04 16:21:21.823052
40.863052,-5.240281582,-4.366901398,3.404089212,2024-06-04 16:21:21.863052
40.903052,-8.04287529,-6.930212498,3.690330744,2024-06-04 16:21:21.903052
40.943052,-8.04287529,-6.930212498,3.690330744,2024-06-04 16:21:21.943052
40.983052,-8.04287529,-6.930212498,3.690330744,2024-06-04 16:21:21.983052
41.023052,-9.004789352,-7.111169815,4.418646336,2024-06-04 16:21:22.023052
41.063052,-8.64167881,-14.12752438,2.82682085,2024-06-04 16:21:22.063052
41.103052,-9.403493881,-10.84935665,2.923730135,2024-06-04 16:21:22.103052
41.143052,-5.257031441,-5.982655048,1.19880414,2024-06-04 16:21:22.143052
41.183052,-5.125126839,-6.127719879,1.32113719,2024-06-04 16:21:22.183052
41.223052,-5.884549141,-7.037889481,1.430010676,2024-06-04 16:21:22.223052
41.263052,-6.647560596,-10.73779202,3.889234066,2024-06-04 16:21:22.263052
41.303052,-6.051149368,-10.31157017,2.848356247,2024-06-04 16:21:22.303052
41.343052,-8.087141991,-11.59053421,-0.5449653864,2024-06-04 16:21:22.343052
41.383052,-3.738187075,-11.20140076,0.9595218897,2024-06-04 16:21:22.383052
41.423052,-3.556033611,-8.30279541,-0.3173480928,2024-06-04 16:21:22.423052
41.463052,-2.335694075,-6.097809315,-0.5401797295,2024-06-04 16:21:22.463052
41.503052,-3.067299604,-6.737291336,-0.6912266612,2024-06-04 16:21:22.503052
41.543052,-3.072085142,-7.883453369,1.166501045,2024-06-04 16:21:22.543052
41.583052,-2.178664923,-8.760422707,1.636092424,2024-06-04 16:21:22.583052
41.623052,-3.739383698,-9.494421005,1.949851394,2024-06-04 16:21:22.623052
41.663052,-5.139483929,-7.656135082,0.8814560175,2024-06-04 16:21:22.663052
41.703052,-6.881159782,-11.22173977,1.723430514,2024-06-04 16:21:22.703052
41.743052,-2.653042078,-9.762716293,0.7929216027,2024-06-04 16:21:22.743052
41.783052,-4.296313286,-8.663214684,-0.02273181453,2024-06-04 16:21:22.783052
41.823052,0.4719842672,-9.102895737,1.655235052,2024-06-04 16:21:22.823052
41.863052,-3.061317444,-7.972286701,0.9822536707,2024-06-04 16:21:22.863052
41.903052,-2.957229614,-9.243174553,2.159522533,2024-06-04 16:21:22.903052
41.943052,-3.290131092,-7.282256603,0.7151548862,2024-06-04 16:21:22.943052
41.983052,-3.445963621,-12.18245792,2.458924294,2024-06-04 16:21:22.983052
42.023052,-3.734597921,-9.472886086,3.10947299,2024-06-04 16:21:23.023052
42.063052,-4.666303158,-9.923335075,1.643270969,2024-06-04 16:21:23.063052
42.103052,-2.732005358,-9.912567139,1.576271892,2024-06-04 16:21:23.103052
42.143052,-4.546662331,-10.74377346,2.525923491,2024-06-04 16:21:23.143052
42.183052,-2.541476727,-9.874281883,0.803689301,2024-06-04 16:21:23.183052
42.223052,-4.804189682,-9.629914284,2.510370016,2024-06-04 16:21:23.223052
42.263052,-4.543072701,-9.435796738,2.153540373,2024-06-04 16:21:23.263052
42.303052,-4.777868748,-8.242975235,1.425225019,2024-06-04 16:21:23.303052
42.343052,-3.932304859,-8.804690361,1.916351795,2024-06-04 16:21:23.343052
42.383052,-3.932304859,-8.804690361,1.916351795,2024-06-04 16:21:23.383052
42.423052,-3.932304859,-8.804690361,1.916351795,2024-06-04 16:21:23.423052
42.463052,-4.395615101,-7.539783955,1.650449395,2024-06-04 16:21:23.463052
42.503052,-4.077070713,-7.351648331,1.243370414,2024-06-04 16:21:23.503052
42.543052,-3.418446302,-8.467002869,1.089930773,2024-06-04 16:21:23.543052
42.583052,-4.065106392,-8.309973717,1.928315997,2024-06-04 16:21:23.583052
42.623052,-4.065106392,-8.309973717,1.928315997,2024-06-04 16:21:23.623052
42.663052,-5.079663277,-8.002197266,0.9535398483,2024-06-04 16:21:23.663052
42.703052,-4.193421841,-8.743673325,0.9173483849,2024-06-04 16:21:23.703052
42.743052,-4.345366001,-9.675378799,1.36899364,2024-06-04 16:21:23.743052
42.783052,-4.786243439,-9.505488396,1.487737536,2024-06-04 16:21:23.783052
42.823052,-3.687937975,-7.869096279,0.06939185411,2024-06-04 16:21:23.823052
42.863052,-3.294916868,-8.823832512,0.9185447693,2024-06-04 16:21:23.863052
42.903052,-3.10947299,-9.089735031,1.057627559,2024-06-04 16:21:23.903052
42.943052,-3.005086184,-9.452547073,1.45633173,2024-06-04 16:21:23.943052
42.983052,-3.056531906,-8.242975235,0.8276175261,2024-06-04 16:21:23.983052
43.023052,-3.323630571,-8.366205215,1.067198873,2024-06-04 16:21:24.023052
43.063052,-4.201796532,-8.995218277,1.301994562,2024-06-04 16:21:24.063052
43.103052,-2.23130703,-8.821439743,0.8587242365,2024-06-04 16:21:24.103052
43.143052,-3.933501244,-8.654839516,2.031506538,2024-06-04 16:21:24.143052
43.183052,-2.086541414,-9.07059288,0.1016949639,2024-06-04 16:21:24.183052
43.223052,-3.215953588,-9.374779701,2.015953064,2024-06-04 16:21:24.223052
43.263052,-3.238685369,-9.814460754,1.913959026,2024-06-04 16:21:24.263052
43.303052,-3.659224033,-8.864510536,1.453938842,2024-06-04 16:21:24.303052
43.343052,-2.723630428,-7.663313389,1.258923769,2024-06-04 16:21:24.343052
43.383052,-3.952643871,-11.40628624,2.813660383,2024-06-04 16:21:24.383052
43.423052,-2.668595552,-9.43460083,1.245763302,2024-06-04 16:21:24.423052
43.463052,-5.16221571,-10.97258759,2.559721947,2024-06-04 16:21:24.463052
43.503052,-3.99451828,-9.785747528,2.06261301,2024-06-04 16:21:24.503052
43.543052,-4.651946545,-9.025128365,1.595414519,2024-06-04 16:21:24.543052
43.583052,-3.083152056,-10.25862885,1.789532185,2024-06-04 16:21:24.583052
43.623052,-3.993321896,-9.105288506,1.772782445,2024-06-04 16:21:24.623052
43.663052,-3.788436413,-9.783354759,2.038684845,2024-06-04 16:21:24.663052
43.703052,-3.404089212,-8.997611046,1.812264085,2024-06-04 16:21:24.703052
43.743052,-3.370589733,-8.549555779,1.949851394,2024-06-04 16:21:24.743052
43.783052,-4.734797955,-8.477770805,1.97138679,2024-06-04 16:21:24.783052
43.823052,-4.734797955,-8.477770805,1.97138679,2024-06-04 16:21:24.823052
43.863052,-4.644767761,-7.451249599,2.515155792,2024-06-04 16:21:24.863052
43.903052,-4.212564468,-7.147062302,1.65762794,2024-06-04 16:21:24.903052
43.943052,-4.18145752,-7.588837147,0.8491529226,2024-06-04 16:21:24.943052
43.983052,-3.987339735,-8.590232849,2.436192513,2024-06-04 16:21:24.983052
44.023052,-3.889234066,-8.887242317,1.025324464,2024-06-04 16:21:25.023052
44.063052,-3.889234066,-8.887242317,1.025324464,2024-06-04 16:21:25.063052
44.103052,-3.393321514,-7.544569969,0.5006981492,2024-06-04 16:21:25.103052
44.143052,-3.92991209,-8.672785759,1.336690545,2024-06-04 16:21:25.143052
44.183052,-4.944169998,-7.453642368,2.291426897,2024-06-04 16:21:25.183052
44.223052,-4.032803535,-8.626125336,1.492523074,2024-06-04 16:21:25.223052
44.263052,-4.032803535,-8.626125336,1.492523074,2024-06-04 16:21:25.263052
44.303052,-4.032803535,-8.626125336,1.492523074,2024-06-04 16:21:25.303052
44.343052,-5.73948431,-11.17268753,3.156133175,2024-06-04 16:21:25.343052
44.383052,-7.772187233,-8.844171524,1.965404749,2024-06-04 16:21:25.383052
44.423052,-5.196911812,-6.097809315,1.639681697,2024-06-04 16:21:25.423052
44.463052,-3.64127779,-6.412764549,2.357229471,2024-06-04 16:21:25.463052
44.503052,-4.740779877,-8.280063629,4.37288332,2024-06-04 16:21:25.503052
44.543052,-7.806882858,-7.202096939,4.485645294,2024-06-04 16:21:25.543052
44.583052,-7.259524822,-7.061817646,4.309473515,2024-06-04 16:21:25.583052
44.623052,-9.943673134,-7.835597038,3.869792461,2024-06-04 16:21:25.623052
44.663052,-8.172386169,-5.599503994,3.400500059,2024-06-04 16:21:25.663052
44.703052,-7.656135082,-5.00787878,1.968993902,2024-06-04 16:21:25.703052
44.743052,-8.72453022,-7.477570534,2.927319288,2024-06-04 16:21:25.743052
44.783052,-9.000003815,-7.651349545,3.53330183,2024-06-04 16:21:25.783052
44.823052,-7.112366199,-3.327219963,4.309473515,2024-06-04 16:21:25.823052
44.863052,-2.452942371,-2.654238462,0.5796613097,2024-06-04 16:21:25.863052
44.903052,2.806182861,-0.2718844712,3.320041418,2024-06-04 16:21:25.903052
44.943052,-9.263513565,-2.330908298,4.473680973,2024-06-04 16:21:25.943052
44.983052,-5.472385406,-1.363011599,5.800800323,2024-06-04 16:21:25.983052
45.023052,-4.079463482,-2.14157629,3.290131092,2024-06-04 16:21:26.023052
45.063052,-7.156633377,-4.16710043,3.905983925,2024-06-04 16:21:26.063052
45.103052,-8.752047539,-6.543173313,3.217149973,2024-06-04 16:21:26.103052
45.143052,-5.79721117,-5.711966991,2.791825771,2024-06-04 16:21:26.143052
45.183052,-7.314559937,-4.665106773,2.665006161,2024-06-04 16:21:26.183052
45.223052,-10.59063339,-4.242474556,4.570590496,2024-06-04 16:21:26.223052
45.263052,-9.280263901,-10.76530933,3.472284794,2024-06-04 16:21:26.263052
45.303052,-9.124430656,-6.358926296,4.250849247,2024-06-04 16:21:26.303052
45.343052,-10.35464096,-7.366304398,1.882852316,2024-06-04 16:21:26.343052
45.383052,-9.022735596,-8.765208244,2.169093609,2024-06-04 16:21:26.383052
45.423052,-7.796115398,-7.628617764,2.07098794,2024-06-04 16:21:26.423052
45.463052,-9.000003815,-7.098009109,4.562215328,2024-06-04 16:21:26.463052
45.503052,-6.647560596,-6.804290295,3.131008387,2024-06-04 16:21:26.503052
45.543052,-3.230310678,-5.582754135,0.6442674994,2024-06-04 16:21:26.543052
45.583052,-7.079763889,-6.014957905,4.458127499,2024-06-04 16:21:26.583052
45.623052,-10.90080261,-7.169794083,3.591925859,2024-06-04 16:21:26.623052
45.663052,-10.84935665,-5.487041473,2.154736757,2024-06-04 16:21:26.663052
45.703052,-10.13659477,-7.086942673,2.993122101,2024-06-04 16:21:26.703052
45.743052,-9.193822861,-8.877671242,3.656831264,2024-06-04 16:21:26.743052
45.783052,-7.573283672,-5.177769184,3.869792461,2024-06-04 16:21:26.783052
45.823052,-5.564808369,-2.778665304,0.04546362907,2024-06-04 16:21:26.823052
45.863052,-4.265206337,-1.803889155,2.216950178,2024-06-04 16:21:26.863052
45.903052,-4.234099865,-2.857927561,2.717648268,2024-06-04 16:21:26.903052
45.943052,-4.234099865,-2.857927561,2.717648268,2024-06-04 16:21:26.943052
45.983052,-3.812364578,-2.190629244,2.900998354,2024-06-04 16:21:26.983052
46.023052,-6.342176437,-1.453938842,3.644867182,2024-06-04 16:21:27.023052
46.063052,0.665802896,-0.6622136831,2.960819006,2024-06-04 16:21:27.063052
46.103052,-5.634200096,-3.693919897,3.970590115,2024-06-04 16:21:27.103052
46.143052,-8.893224716,-7.297810078,4.108177185,2024-06-04 16:21:27.143052
46.183052,-8.24895668,-6.903891563,4.871188641,2024-06-04 16:21:27.183052
46.223052,-12.82194042,-8.589036942,4.026821613,2024-06-04 16:21:27.223052
46.263052,-5.896512985,-7.154240608,2.287837505,2024-06-04 16:21:27.263052
46.303052,-5.302495003,-5.613861084,1.882852316,2024-06-04 16:21:27.303052
46.343052,-8.30279541,-7.91366291,2.184647083,2024-06-04 16:21:27.343052
46.383052,-8.799904823,-8.041678429,3.418446302,2024-06-04 16:21:27.383052
46.423052,-10.74736309,-7.458428383,4.085445404,2024-06-04 16:21:27.423052
46.463052,-10.11625576,-8.108677864,4.922634602,2024-06-04 16:21:27.463052
46.503052,-8.112266541,-8.156534195,4.121337891,2024-06-04 16:21:27.503052
46.543052,-5.315655708,-6.841678143,1.36061883,2024-06-04 16:21:27.543052
46.583052,-2.214557409,-8.366205215,2.797807932,2024-06-04 16:21:27.583052
46.623052,-7.747062206,-6.823432922,3.607479334,2024-06-04 16:21:27.623052
46.663052,-15.03051567,-6.430710793,2.892623425,2024-06-04 16:21:27.663052
46.703052,-11.19422245,-6.655935287,3.245863914,2024-06-04 16:21:27.703052
46.743052,-8.286046028,-8.088338852,2.11046958,2024-06-04 16:21:27.743052
46.783052,-7.503891945,-5.921638012,2.966800928,2024-06-04 16:21:27.783052
46.823052,-10.15813065,-1.750050664,1.532004714,2024-06-04 16:21:27.823052
46.863052,-6.62243557,-3.394518137,2.565704107,2024-06-04 16:21:27.863052
46.903052,-3.609872103,-2.97039032,1.863709688,2024-06-04 16:21:27.903052
46.943052,0.6334998012,-1.063609719,1.186840057,2024-06-04 16:21:27.943052
46.983052,-3.962215185,-0.304187566,3.544069529,2024-06-04 16:21:27.983052
47.023052,-4.441378117,-0.9053842425,3.265006542,2024-06-04 16:21:28.023052
47.063052,-5.454439163,-2.801397085,3.544069529,2024-06-04 16:21:28.063052
47.103052,-5.740680695,-4.074677944,4.057928085,2024-06-04 16:21:28.103052
47.143052,-7.94955492,-6.55782938,3.288934708,2024-06-04 16:21:28.143052
47.183052,-9.96042347,-7.148258686,3.68674159,2024-06-04 16:21:28.183052
47.223052,-10.32592678,-7.409375191,3.279363394,2024-06-04 16:21:28.223052
47.263052,-9.099306107,-8.117053032,2.883052111,2024-06-04 16:21:28.263052
47.303052,-7.966304779,-8.476573944,3.211168051,2024-06-04 16:21:28.303052
47.343052,-11.17388344,-8.272885323,2.357229471,2024-06-04 16:21:28.343052
47.383052,-10.41206837,-8.288438797,4.14646244,2024-06-04 16:21:28.383052
47.423052,-8.51844883,-7.172186852,3.105883837,2024-06-04 16:21:28.423052
47.463052,-6.669095993,-6.743273258,2.500798702,2024-06-04 16:21:28.463052
47.503052,-5.947958946,-7.409375191,3.491427422,2024-06-04 16:21:28.503052
47.543052,-5.947958946,-7.409375191,3.491427422,2024-06-04 16:21:28.543052
47.583052,-5.947958946,-7.409375191,3.491427422,2024-06-04 16:21:28.583052
47.623052,-9.993923187,-7.206882477,3.862613916,2024-06-04 16:21:28.623052
47.663052,-12.92842102,-6.440282345,3.058924675,2024-06-04 16:21:28.663052
47.703052,-10.94746304,-7.920841217,2.100898266,2024-06-04 16:21:28.703052
47.743052,-7.639385223,-7.301399231,3.225524902,2024-06-04 16:21:28.743052
47.783052,-7.587640762,-5.431707382,1.534397483,2024-06-04 16:21:28.783052
47.823052,-6.272485256,-2.297408819,1.152144074,2024-06-04 16:21:28.823052
47.863052,-5.149055004,-1.675574064,2.105684042,2024-06-04 16:21:28.863052
47.903052,-3.626920938,-2.371586323,3.330809116,2024-06-04 16:21:28.903052
47.943052,-2.985943556,-1.756032705,2.559721947,2024-06-04 16:21:28.943052
47.983052,-3.186043262,-0.698405087,2.596810818,2024-06-04 16:21:28.983052
48.023052,-1.290030479,-1.069591761,1.663609982,2024-06-04 16:21:29.023052
48.063052,-3.902394533,-3.226721287,1.941476464,2024-06-04 16:21:29.063052
48.103052,-7.136294365,-6.730112553,2.554936409,2024-06-04 16:21:29.103052
48.143052,-11.29352474,-10.25264645,4.129712582,2024-06-04 16:21:29.143052
48.183052,-8.571090698,-7.00439024,3.788436413,2024-06-04 16:21:29.183052
48.223052,-9.427422523,-8.580661774,2.734398127,2024-06-04 16:21:29.223052
48.263052,-6.881159782,-10.04207802,2.46371007,2024-06-04 16:21:29.263052
48.303052,-5.694020748,-9.991530418,2.884248495,2024-06-04 16:21:29.303052
48.343052,-8.193922043,-8.446663857,1.936690807,2024-06-04 16:21:29.343052
48.383052,-6.228218079,-11.19422245,2.000100613,2024-06-04 16:21:29.383052
48.423052,-6.591329098,-7.894220829,3.24466753,2024-06-04 16:21:29.423052
48.463052,-7.489534855,-8.09671402,2.335694075,2024-06-04 16:21:29.463052
48.503052,-3.896412611,-8.14696312,0.3963112533,2024-06-04 16:21:29.503052
48.543052,-3.116651535,-7.774580002,0.418145746,2024-06-04 16:21:29.543052
48.583052,-3.339184046,-7.494320393,1.322333574,2024-06-04 16:21:29.583052
48.623052,-5.012664318,-9.287442207,1.606182218,2024-06-04 16:21:29.623052
48.663052,-4.406383038,-7.837989807,-0.03230310604,2024-06-04 16:21:29.663052
48.703052,-3.819543123,-9.106484413,1.542772412,2024-06-04 16:21:29.703052
48.743052,-4.060320854,-8.780761719,1.680359721,2024-06-04 16:21:29.743052
48.783052,-4.831707001,-8.69940567,2.252842426,2024-06-04 16:21:29.783052
48.823052,-4.287938118,-9.423832893,0.9738788009,2024-06-04 16:21:29.823052
48.863052,-5.291727066,-8.369794846,0.4229314029,2024-06-04 16:21:29.863052
48.903052,-4.301098824,-10.05165005,1.906780601,2024-06-04 16:21:29.903052
48.943052,-4.775475979,-7.953144073,-0.7103692293,2024-06-04 16:21:29.943052
48.983052,-1.428814173,-8.581858635,-0.2754737139,2024-06-04 16:21:29.983052
49.023052,-3.875774384,-9.401101112,1.736590981,2024-06-04 16:21:30.023052
49.063052,-3.253042459,-9.110074043,-0.3915255964,2024-06-04 16:21:30.063052
49.103052,-4.012464523,-9.028717995,1.57028985,2024-06-04 16:21:30.103052
49.143052,-2.33449769,-7.885846138,0.6526423693,2024-06-04 16:21:30.143052
49.183052,-3.601497173,-8.35304451,0.6960122585,2024-06-04 16:21:30.183052
49.223052,-3.601497173,-8.35304451,0.6960122585,2024-06-04 16:21:30.223052
49.263052,-3.601497173,-8.35304451,0.6960122585,2024-06-04 16:21:30.263052
49.303052,-3.296113253,-9.373583794,1.753639936,2024-06-04 16:21:30.303052
49.343052,-3.512962818,-8.524430275,0.3891327679,2024-06-04 16:21:30.343052
49.383052,-3.511766434,-9.181859016,1.567897081,2024-06-04 16:21:30.383052
49.423052,-3.070888758,-9.760323524,1.287637711,2024-06-04 16:21:30.423052
49.463052,-3.649652719,-9.03828907,1.039681435,2024-06-04 16:21:30.463052
49.503052,-4.326223373,-9.522237778,2.122433662,2024-06-04 16:21:30.503052
49.543052,-2.785843849,-9.840782166,0.8994022012,2024-06-04 16:21:30.543052
49.583052,-3.380161047,-9.312566757,1.943869352,2024-06-04 16:21:30.583052
49.623052,-3.395714521,-9.873085022,1.262513041,2024-06-04 16:21:30.623052
49.663052,-2.390728951,-10.03220844,1.703091502,2024-06-04 16:21:30.663052
49.703052,-3.702294827,-8.851349831,1.762014747,2024-06-04 16:21:30.703052
49.743052,-4.346562386,-10.01785088,1.819442511,2024-06-04 16:21:30.743052
49.783052,-3.579961777,-7.674081326,0.8479565382,2024-06-04 16:21:30.783052
49.823052,-3.422035456,-8.801100731,1.463510156,2024-06-04 16:21:30.823052
49.863052,-3.608675718,-10.64088249,2.11645174,2024-06-04 16:21:30.863052
49.903052,-4.552644253,-8.966505051,1.346261859,2024-06-04 16:21:30.903052
49.943052,-5.12273407,-8.67039299,1.357029557,2024-06-04 16:21:30.943052
49.983052,-3.145365477,-9.454939842,1.396511078,2024-06-04 16:21:30.983052
50.023052,-3.853042603,-8.678768158,1.401296735,2024-06-04 16:21:31.023052
50.063052,-4.907081127,-8.835796356,2.255235434,2024-06-04 16:21:31.063052
50.103052,-3.650849104,-7.477570534,0.3891327679,2024-06-04 16:21:31.103052
50.143052,-3.288934708,-7.601997375,0.7677969933,2024-06-04 16:21:31.143052
50.183052,-4.210171223,-9.261120796,2.438585281,2024-06-04 16:21:31.183052
50.223052,-4.304687977,-8.421239853,0.2132603228,2024-06-04 16:21:31.223052
50.263052,-3.740580082,-8.990432739,1.595414519,2024-06-04 16:21:31.263052
50.303052,-3.883252144,-8.902795792,1.087537885,2024-06-04 16:21:31.303052
50.343052,-3.812364578,-8.475378036,0.1268195957,2024-06-04 16:21:31.343052
50.383052,-3.413660526,-9.173483849,1.465902925,2024-06-04 16:21:31.383052
50.423052,-3.131008387,-9.338887215,0.8682954907,2024-06-04 16:21:31.423052
50.463052,-4.091427803,-8.738887787,1.025324464,2024-06-04 16:21:31.463052
50.503052,-3.438785315,-8.775976181,0.9185447693,2024-06-04 16:21:31.503052
50.543052,-2.960819006,-8.156534195,0.5054838061,2024-06-04 16:21:31.543052
50.583052,-3.08434844,-9.4310112,1.127019525,2024-06-04 16:21:31.583052
50.623052,-3.428017616,-9.029914856,1.374975681,2024-06-04 16:21:31.623052
50.663052,-3.363411427,-8.860920906,1.1820544,2024-06-04 16:21:31.663052
50.703052,-2.674577475,-8.359026909,0.3005983531,2024-06-04 16:21:31.703052
50.743052,-3.292523861,-8.677571297,1.422832131,2024-06-04 16:21:31.743052
50.783052,-3.433999538,-9.3807621,1.135394335,2024-06-04 16:21:31.783052
50.823052,-2.920140982,-9.350852013,0.7821539044,2024-06-04 16:21:31.823052
50.863052,-4.060320854,-9.476474762,2.024327993,2024-06-04 16:21:31.863052
50.903052,-4.060320854,-9.476474762,2.024327993,2024-06-04 16:21:31.903052
50.943052,-3.635295868,-9.466903687,1.65762794,2024-06-04 16:21:31.943052
50.983052,-3.201596737,-8.825029373,1.15094769,2024-06-04 16:21:31.983052
51.023052,-2.842374086,-8.893224716,1.183250785,2024-06-04 16:21:32.023052
51.063052,-2.842374086,-8.893224716,1.183250785,2024-06-04 16:21:32.063052
51.103052,-3.346661568,-9.369994164,1.248156071,2024-06-04 16:21:32.103052
51.143052,-3.874577999,-10.26700401,1.767996788,2024-06-04 16:21:32.143052
51.183052,-3.921537161,-9.934102058,1.806282043,2024-06-04 16:21:32.183052
51.223052,-3.545265913,-9.240781784,1.528415442,2024-06-04 16:21:32.223052
51.263052,-4.232903481,-8.936295509,1.488933921,2024-06-04 16:21:32.263052
51.303052,-3.206382275,-8.761619568,1.361815214,2024-06-04 16:21:32.303052
51.343052,-3.412464142,-8.907581329,1.428814173,2024-06-04 16:21:32.343052
51.383052,-4.214957237,-9.01675415,1.759621978,2024-06-04 16:21:32.383052
51.423052,-3.917948008,-8.77477932,1.092323542,2024-06-04 16:21:32.423052
51.463052,-4.091427803,-8.605786324,1.390529037,2024-06-04 16:21:32.463052
51.503052,-3.927519321,-8.617751122,1.288834095,2024-06-04 16:21:32.503052
51.543052,-3.777668715,-8.441878319,1.305583835,2024-06-04 16:21:32.543052
51.583052,-3.59790802,-8.250153542,0.7378866673,2024-06-04 16:21:32.583052
51.623052,-3.10947299,-9.386744499,1.479362607,2024-06-04 16:21:32.623052
51.663052,-5.231906891,-7.954340458,1.58703959,2024-06-04 16:21:32.663052
51.703052,-3.460320711,-8.391329765,0.2706880569,2024-06-04 16:21:32.703052
51.743052,-3.585943937,-8.370990753,0.8527421951,2024-06-04 16:21:32.743052
51.783052,-3.689134359,-8.834600449,1.498505235,2024-06-04 16:21:32.783052
51.823052,-4.568197727,-8.929117203,0.8204390407,2024-06-04 16:21:32.823052
51.863052,-3.611068487,-8.838189125,0.7606185079,2024-06-04 16:21:32.863052
51.903052,-3.713062525,-9.209376335,1.959422588,2024-06-04 16:21:32.903052
51.943052,-3.978965044,-8.851349831,-0.009571290575,2024-06-04 16:21:32.943052
51.983052,-3.266202927,-8.791529655,1.162911773,2024-06-04 16:21:32.983052
52.023052,-2.566900492,-9.313762665,1.660020709,2024-06-04 16:21:33.023052
52.063052,-3.96341157,-8.379365921,0.6311069727,2024-06-04 16:21:33.063052
52.103052,-5.895316601,-7.462017536,1.299601793,2024-06-04 16:21:33.103052
52.143052,-6.118148327,-7.904091358,0.5042873621,2024-06-04 16:21:33.143052
52.183052,-5.717948914,-9.862318039,3.43160677,2024-06-04 16:21:33.183052
52.223052,-2.562114954,-8.846564293,2.775076151,2024-06-04 16:21:33.223052
52.263052,-2.793022156,-7.255935669,1.840977907,2024-06-04 16:21:33.263052
52.303052,-5.092823982,-8.01775074,2.114058733,2024-06-04 16:21:33.303052
52.343052,-5.268995285,-8.451449394,2.83519578,2024-06-04 16:21:33.343052
52.383052,-4.992325306,-8.598608017,3.622135162,2024-06-04 16:21:33.383052
52.423052,-4.951647282,-7.054639339,4.381258488,2024-06-04 16:21:33.423052
52.463052,-7.671688557,-7.408178806,3.692723513,2024-06-04 16:21:33.463052
52.503052,-9.08853817,-7.37587595,3.699902058,2024-06-04 16:21:33.503052
52.543052,-9.08853817,-7.37587595,3.699902058,2024-06-04 16:21:33.543052
52.583052,-10.44556808,-7.254739285,2.830410004,2024-06-04 16:21:33.583052
52.623052,-10.4168539,-7.048657417,3.589533091,2024-06-04 16:21:33.623052
52.663052,-9.051449776,-7.696813107,4.366901398,2024-06-04 16:21:33.663052
52.703052,-7.218846798,-5.935994625,3.634099483,2024-06-04 16:21:33.703052
52.743052,-6.878767014,-3.695116282,1.49132669,2024-06-04 16:21:33.743052
52.783052,-2.163111687,-1.551147223,3.528516054,2024-06-04 16:21:33.783052
52.823052,-5.950351715,-1.84456718,2.862713099,2024-06-04 16:21:33.823052
52.863052,-3.436392307,-0.774975419,2.437388897,2024-06-04 16:21:33.863052
52.903052,-2.209771633,0.4061816335,2.154736757,2024-06-04 16:21:33.903052
52.943052,-3.687937975,-0.2599203587,2.556132793,2024-06-04 16:21:33.943052
52.983052,-5.976672649,-1.543968797,2.450549603,2024-06-04 16:21:33.983052
53.023052,-8.536395073,-3.756133318,3.255435228,2024-06-04 16:21:34.023052
53.063052,-8.700602531,-5.169394016,3.410071373,2024-06-04 16:21:34.063052
53.103052,-8.743673325,-6.069095612,3.683152199,2024-06-04 16:21:34.103052
53.143052,-11.18824005,-7.434499741,3.172882795,2024-06-04 16:21:34.143052
53.183052,-9.385547638,-8.156534195,3.310470104,2024-06-04 16:21:34.183052
53.223052,-7.72911644,-6.547959328,2.466102839,2024-06-04 16:21:34.223052
53.263052,-8.559126854,-7.846364498,2.68175602,2024-06-04 16:21:34.263052
53.303052,-10.24307537,-8.020143509,1.300798178,2024-06-04 16:21:34.303052
53.343052,-8.083553314,-6.993622303,1.997707844,2024-06-04 16:21:34.343052
53.383052,-8.083553314,-6.993622303,1.997707844,2024-06-04 16:21:34.383052
53.423052,-8.877671242,-6.902695179,3.876971006,2024-06-04 16:21:34.423052
53.463052,-5.184947491,-6.204289913,1.237388372,2024-06-04 16:21:34.463052
53.503052,-4.751547337,-8.208278656,3.060121059,2024-06-04 16:21:34.503052
53.543052,-9.347262383,-6.906284332,3.184846878,2024-06-04 16:21:34.543052
53.583052,-13.55743408,-5.845067501,2.691327333,2024-06-04 16:21:34.583052
53.623052,-10.56042385,-5.876173973,2.631506681,2024-06-04 16:21:34.623052
53.663052,-8.376973152,-6.62243557,2.311765671,2024-06-04 16:21:34.663052
53.703052,-8.495717049,-4.552644253,3.183650494,2024-06-04 16:21:34.703052
53.743052,-7.182954311,-3.679563046,0.7606185079,2024-06-04 16:21:34.743052
53.783052,-6.641578197,-1.681556106,2.283051968,2024-06-04 16:21:34.783052
53.823052,-4.92143774,-2.21216464,2.256431818,2024-06-04 16:21:34.823052
53.863052,-3.293720484,-1.067198873,2.382354021,2024-06-04 16:21:34.863052
53.903052,-3.293720484,-1.067198873,2.382354021,2024-06-04 16:21:34.903052
53.943052,-3.628117323,-1.347458243,2.599203587,2024-06-04 16:21:34.943052
53.983052,-5.286941528,-2.117648125,2.809772015,2024-06-04 16:21:34.983052
54.023052,-6.463014126,-3.719044685,3.032603502,2024-06-04 16:21:35.023052
54.063052,-7.089335442,-5.549254894,3.510569811,2024-06-04 16:21:35.063052
54.103052,-8.808279037,-6.545566559,2.48883462,2024-06-04 16:21:35.103052
54.143052,-9.470493317,-8.009375572,2.717648268,2024-06-04 16:21:35.143052
54.183052,-8.361419678,-7.385447025,2.338086843,2024-06-04 16:21:35.183052
54.223052,-8.361419678,-7.385447025,2.338086843,2024-06-04 16:21:35.223052
54.263052,-6.063113689,-8.002197266,3.346661568,2024-06-04 16:21:35.263052
54.303052,-8.894420624,-9.055039406,1.980958104,2024-06-04 16:21:35.303052
54.343052,-8.750851631,-8.606983185,1.313958764,2024-06-04 16:21:35.343052
54.383052,-8.307580948,-8.747262001,1.434796333,2024-06-04 16:21:35.383052
54.423052,-8.280063629,-8.480163574,2.260020971,2024-06-04 16:21:35.423052
54.463052,-7.22482872,-7.291827679,1.661217093,2024-06-04 16:21:35.463052
54.503052,-4.616054058,-7.282256603,0.3436691463,2024-06-04 16:21:35.503052
54.543052,-3.466302633,-7.534998417,-0.2766701281,2024-06-04 16:21:35.543052
54.583052,-2.613560438,-8.953044891,0.7079764009,2024-06-04 16:21:35.583052
54.623052,-4.786243439,-9.279067039,1.745265007,2024-06-04 16:21:35.623052
54.663052,-4.738387108,-7.302595615,0.5988038778,2024-06-04 16:21:35.663052
54.703052,-3.364607811,-5.695217133,0.561715126,2024-06-04 16:21:35.703052
54.743052,-4.785047054,-8.338687897,1.992922187,2024-06-04 16:21:35.743052
54.783052,-7.339684486,-8.321938515,1.619342685,2024-06-04 16:21:35.783052
54.823052,-7.482356548,-9.659825325,1.769193292,2024-06-04 16:21:35.823052
54.863052,-7.971090317,-10.2837534,2.536691189,2024-06-04 16:21:35.863052
54.903052,-5.610271931,-8.501698494,1.003789067,2024-06-04 16:21:35.903052
54.943052,-3.661616802,-8.144570351,1.232602715,2024-06-04 16:21:35.943052
54.983052,-2.188236237,-5.968297958,0.6000002623,2024-06-04 16:21:35.983052
55.023052,-2.82682085,-7.202096939,0.8766704202,2024-06-04 16:21:36.023052
55.063052,-5.193322659,-6.952944279,1.042074203,2024-06-04 16:21:36.063052
55.103052,-5.496612549,-7.433303356,0.3747758567,2024-06-04 16:21:36.103052
55.143052,-5.994618893,-9.043074608,1.067198873,2024-06-04 16:21:36.143052
55.183052,-6.212665081,-9.374779701,1.607378602,2024-06-04 16:21:36.183052
55.223052,-6.063113689,-9.651450157,2.433799744,2024-06-04 16:21:36.223052
55.263052,-5.2737813,-8.397312164,1.11984098,2024-06-04 16:21:36.263052
55.303052,-5.128716469,-8.561519623,1.238584876,2024-06-04 16:21:36.303052
55.343052,-4.685744762,-7.971090317,1.100698471,2024-06-04 16:21:36.343052
55.383052,-4.089034557,-7.506284714,0.6251249313,2024-06-04 16:21:36.383052
55.423052,-4.786243439,-7.895716667,1.276870012,2024-06-04 16:21:36.423052
55.463052,-3.972982883,-7.768597603,0.7402794957,2024-06-04 16:21:36.463052
55.503052,-5.025825024,-8.628518105,1.349851131,2024-06-04 16:21:36.503052
55.543052,-4.867599487,-8.500502586,1.094716311,2024-06-04 16:21:36.543052
55.583052,-4.867599487,-8.500502586,1.094716311,2024-06-04 16:21:36.583052
55.623052,-4.867599487,-8.500502586,1.094716311,2024-06-04 16:21:36.623052
55.663052,-4.884349346,-7.686045647,1.396511078,2024-06-04 16:21:36.663052
55.703052,-5.488237858,-7.696813107,1.195214868,2024-06-04 16:21:36.703052
55.743052,-4.824528694,-7.549355507,0.9233304262,2024-06-04 16:21:36.743052
55.783052,-5.172983646,-8.624929428,1.178465128,2024-06-04 16:21:36.783052
55.823052,-5.594718456,-9.161520004,1.45633173,2024-06-04 16:21:36.823052
55.863052,-5.594718456,-9.161520004,1.45633173,2024-06-04 16:21:36.863052
55.903052,-4.30827713,-8.202297211,0.9774680734,2024-06-04 16:21:36.903052
55.943052,-4.329812527,-8.535198212,1.243370414,2024-06-04 16:21:36.943052
55.983052,-4.468895435,-7.432106972,1.140179992,2024-06-04 16:21:36.983052
56.023052,-4.881956577,-8.27408123,1.458724499,2024-06-04 16:21:37.023052
56.063052,-5.117948532,-8.084749222,1.028913736,2024-06-04 16:21:37.063052
56.103052,-5.744269848,-8.414061546,1.535593987,2024-06-04 16:21:37.103052
56.143052,-5.616253853,-8.809475899,1.488933921,2024-06-04 16:21:37.143052
56.183052,-4.390829563,-8.288438797,0.7354938388,2024-06-04 16:21:37.183052
56.223052,-5.181358337,-8.280063629,1.573879123,2024-06-04 16:21:37.223052
56.263052,-3.920340776,-8.238189697,0.9978070259,2024-06-04 16:21:37.263052
56.303052,-4.762315273,-7.984251022,1.021735311,2024-06-04 16:21:37.303052
56.343052,-4.64716053,-8.131409645,1.148554921,2024-06-04 16:21:37.343052
56.383052,-4.890331268,-8.668000221,1.246959686,2024-06-04 16:21:37.383052
56.423052,-5.459224701,-8.240582466,1.527219057,2024-06-04 16:21:37.423052
56.463052,-4.947759151,-7.951947689,1.00737834,2024-06-04 16:21:37.463052
56.503052,-5.01864624,-8.397312164,1.071984529,2024-06-04 16:21:37.503052
56.543052,-4.802993298,-8.287241936,1.391725421,2024-06-04 16:21:37.543052
56.583052,-4.599304199,-9.116056442,1.279262781,2024-06-04 16:21:37.583052
56.623052,-5.184947491,-8.791529655,1.664806366,2024-06-04 16:21:37.623052
56.663052,-3.983750582,-8.059624672,1.223031521,2024-06-04 16:21:37.663052
56.703052,-4.903491974,-8.166404724,1.272084355,2024-06-04 16:21:37.703052
56.743052,-4.520340919,-7.980661869,1.351047516,2024-06-04 16:21:37.743052
56.783052,-5.318048477,-8.877671242,1.364207983,2024-06-04 16:21:37.783052
56.823052,-5.159822941,-8.411668777,1.390529037,2024-06-04 16:21:37.823052
56.863052,-5.343173027,-8.597412109,1.534397483,2024-06-04 16:21:37.863052
56.903052,-5.186143875,-8.474181175,1.262513041,2024-06-04 16:21:37.903052
56.943052,-4.624428749,-8.126624107,1.57866478,2024-06-04 16:21:37.943052
56.983052,-4.714458942,-7.692027569,1.240977645,2024-06-04 16:21:37.983052
57.023052,-5.010271549,-7.904091358,1.050449133,2024-06-04 16:21:38.023052
57.063052,-4.564608097,-7.624729156,1.031306505,2024-06-04 16:21:38.063052
57.103052,-4.973182678,-8.432307243,1.327119231,2024-06-04 16:21:38.103052
57.143052,-5.545665741,-8.250153542,1.128215909,2024-06-04 16:21:38.143052
57.183052,-4.734797955,-8.471788406,1.390529037,2024-06-04 16:21:38.183052
57.223052,-4.594518661,-8.052446365,0.9798609018,2024-06-04 16:21:38.223052
57.263052,-5.115555763,-8.422436714,1.41685009,2024-06-04 16:21:38.263052
57.303052,-4.743172646,-8.253742218,1.014556766,2024-06-04 16:21:38.303052
57.343052,-4.303491592,-8.373383522,0.9523434043,2024-06-04 16:21:38.343052
57.383052,-5.435296535,-8.967700958,1.777568102,2024-06-04 16:21:38.383052
57.423052,-4.685744762,-7.671688557,1.022931695,2024-06-04 16:21:38.423052
57.463052,-4.685744762,-7.671688557,1.022931695,2024-06-04 16:21:38.463052
57.503052,-4.685744762,-7.671688557,1.022931695,2024-06-04 16:21:38.503052
57.543052,-4.685744762,-7.671688557,1.022931695,2024-06-04 16:21:38.543052
57.583052,-5.207679272,-8.924330711,1.437189102,2024-06-04 16:21:38.583052
57.623052,-5.076074123,-8.20468998,1.188036442,2024-06-04 16:21:38.623052
57.663052,-5.150251865,-7.75424099,1.237388372,2024-06-04 16:21:38.663052
57.703052,-4.237689018,-8.956634521,1.306780219,2024-06-04 16:21:38.703052
57.743052,-4.934598446,-8.275278091,1.189232826,2024-06-04 16:21:38.743052
57.783052,-5.449653625,-8.348258972,1.536790371,2024-06-04 16:21:38.783052
57.823052,-4.963611603,-7.884649754,1.019342422,2024-06-04 16:21:38.823052
57.863052,-4.175475597,-7.363911629,0.9185447693,2024-06-04 16:21:38.863052
57.903052,-4.963611603,-9.201001167,1.8840487,2024-06-04 16:21:38.903052
57.943052,-4.987539768,-7.959126472,0.7366902828,2024-06-04 16:21:38.943052
57.983052,-5.824728489,-9.161520004,1.754836321,2024-06-04 16:21:38.983052
58.023052,-4.241278172,-8.027321815,0.6334998012,2024-06-04 16:21:39.023052
58.063052,-4.775475979,-8.43948555,1.604985833,2024-06-04 16:21:39.063052
58.103052,-4.459323883,-7.822436333,1.172483087,2024-06-04 16:21:39.103052
58.143052,-4.913063049,-7.860721588,1.149751306,2024-06-04 16:21:39.143052
58.183052,-4.838885784,-8.583054543,1.309173107,2024-06-04 16:21:39.183052
58.223052,-5.088038445,-8.704191208,1.449153185,2024-06-04 16:21:39.223052
58.263052,-5.40060091,-7.969893932,1.410868049,2024-06-04 16:21:39.263052
58.303052,-4.477270126,-7.918448448,0.9786644578,2024-06-04 16:21:39.303052
58.343052,-4.683351994,-7.476374149,1.027717352,2024-06-04 16:21:39.343052
58.383052,-4.336990833,-9.138788223,1.458724499,2024-06-04 16:21:39.383052
58.423052,-5.21605444,-8.658429146,1.155733347,2024-06-04 16:21:39.423052
58.463052,-5.894120216,-8.635697365,1.97138679,2024-06-04 16:21:39.463052
58.503052,-4.384847641,-7.991429329,0.6574280262,2024-06-04 16:21:39.503052
58.543052,-4.577768803,-8.075178146,1.503290772,2024-06-04 16:21:39.543052
58.583052,-4.913063049,-7.596015453,1.32113719,2024-06-04 16:21:39.583052
58.623052,-5.574379444,-8.082356453,1.347458243,2024-06-04 16:21:39.623052
58.663052,-4.37288332,-8.809475899,1.075573802,2024-06-04 16:21:39.663052
58.703052,-5.41136837,-8.746066093,1.624128342,2024-06-04 16:21:39.703052
58.743052,-5.515755177,-7.730312824,1.526022673,2024-06-04 16:21:39.743052
58.783052,-5.062913418,-5.601896763,-0.1100698411,2024-06-04 16:21:39.783052
58.823052,-3.089133978,-10.40369415,1.646860242,2024-06-04 16:21:39.823052
58.863052,-5.139483929,-8.966505051,1.60378933,2024-06-04 16:21:39.863052
58.903052,-7.514659405,-9.438189507,1.911566138,2024-06-04 16:21:39.903052
58.943052,-4.513162613,-9.22492981,1.49132669,2024-06-04 16:21:39.943052
58.983052,-4.095016956,-4.74436903,1.462313771,2024-06-04 16:21:39.983052
59.023052,-4.095016956,-4.74436903,1.462313771,2024-06-04 16:21:40.023052
59.063052,-5.766104221,-7.348059177,1.75722909,2024-06-04 16:21:40.063052
59.103052,-5.766104221,-7.348059177,1.75722909,2024-06-04 16:21:40.103052
59.143052,-10.25384331,-12.80040455,2.238485575,2024-06-04 16:21:40.143052
59.183052,-10.25384331,-12.80040455,2.238485575,2024-06-04 16:21:40.183052
59.223052,-4.110570431,-7.67527771,1.318744421,2024-06-04 16:21:40.223052
59.263052,-3.613760471,-8.051250458,2.584846735,2024-06-04 16:21:40.263052
59.303052,-3.067299604,-5.246263504,1.593021631,2024-06-04 16:21:40.303052
59.343052,-4.049553394,-5.059324265,1.946262121,2024-06-04 16:21:40.343052
59.383052,-7.184150696,-7.543373585,1.733001828,2024-06-04 16:21:40.383052
59.423052,-8.977272034,-8.41047287,3.160918713,2024-06-04 16:21:40.423052
59.463052,-7.092027187,-8.845368385,3.646063566,2024-06-04 16:21:40.463052
59.503052,-7.478767395,-7.613961697,4.427021027,2024-06-04 16:21:40.503052
59.543052,-6.209075451,-7.042675018,1.933101535,2024-06-04 16:21:40.543052
59.583052,-8.145766258,-6.318248272,2.239681959,2024-06-04 16:21:40.583052
59.623052,-9.153144836,-6.158826351,2.636292458,2024-06-04 16:21:40.623052
59.663052,-10.28853893,-6.840481758,2.598007202,2024-06-04 16:21:40.663052
59.703052,-9.954441071,-7.18893671,2.918944597,2024-06-04 16:21:40.703052
59.743052,-10.09711361,-6.540780544,3.839882135,2024-06-04 16:21:40.743052
59.783052,-9.652647018,-5.184947491,3.03499651,2024-06-04 16:21:40.783052
59.823052,-7.751848221,-3.506980658,1.56191504,2024-06-04 16:21:40.823052
59.863052,-2.082952023,-1.534397483,2.464906454,2024-06-04 16:21:40.863052
59.903052,-2.903391123,-0.9834501147,2.065006018,2024-06-04 16:21:40.903052
59.943052,-4.206582069,0.2443670183,2.390728951,2024-06-04 16:21:40.943052
59.983052,-3.27577424,0.2192423791,2.464906454,2024-06-04 16:21:40.983052
60.023052,-5.413761139,-1.296012521,3.136990547,2024-06-04 16:21:41.023052
60.063052,-7.222435951,-2.512762785,2.375175476,2024-06-04 16:21:41.063052
60.103052,-8.925527573,-4.710869789,3.314059258,2024-06-04 16:21:41.103052
60.143052,-7.918448448,-5.182554722,2.291426897,2024-06-04 16:21:41.143052
60.183052,-7.503891945,-5.818746567,2.351247311,2024-06-04 16:21:41.183052
60.223052,-10.35823059,-8.779565811,2.915355206,2024-06-04 16:21:41.223052
60.263052,-8.653642654,-8.559126854,1.946262121,2024-06-04 16:21:41.263052
60.303052,-8.69940567,-7.17457962,2.629113913,2024-06-04 16:21:41.303052
60.343052,-9.964012146,-8.351848602,3.136990547,2024-06-04 16:21:41.343052
60.383052,-10.39651489,-7.824829102,3.662813187,2024-06-04 16:21:41.383052
60.423052,-10.1401844,-7.346862793,3.609872103,2024-06-04 16:21:41.423052
60.463052,-7.176972389,-7.024729252,3.163311481,2024-06-04 16:21:41.463052
60.503052,-4.931009293,-6.65114975,2.382354021,2024-06-04 16:21:41.503052
60.543052,-5.997011662,-7.118348122,3.07836628,2024-06-04 16:21:41.543052
60.583052,-8.158926964,-6.419943333,2.507977247,2024-06-04 16:21:41.583052
60.623052,-8.522037506,-7.186543941,2.770290375,2024-06-04 16:21:41.623052
60.663052,-9.368798256,-7.4010005,2.381157637,2024-06-04 16:21:41.663052
60.703052,-8.983254433,-6.089434624,2.298605204,2024-06-04 16:21:41.703052
60.743052,-9.033503532,-6.26530695,3.006282568,2024-06-04 16:21:41.743052
60.783052,-8.882456779,-5.73948431,2.878266573,2024-06-04 16:21:41.783052
60.823052,-8.882456779,-5.73948431,2.878266573,2024-06-04 16:21:41.823052
60.863052,-8.991629601,-4.581357956,2.735594511,2024-06-04 16:21:41.863052
60.903052,-6.69063139,-2.722434044,1.63489604,2024-06-04 16:21:41.903052
60.943052,-4.531108856,-2.264806747,2.443371058,2024-06-04 16:21:41.943052
60.983052,-3.575176239,-0.727118969,2.656631231,2024-06-04 16:21:41.983052
61.023052,-4.780261517,-0.6035895348,3.336791277,2024-06-04 16:21:42.023052
61.063052,-4.402793884,-1.380957723,3.634099483,2024-06-04 16:21:42.063052
61.103052,-4.673481941,-0.8742775917,3.268595695,2024-06-04 16:21:42.103052
61.143052,-6.047560215,-2.578864574,3.235096216,2024-06-04 16:21:42.143052
61.183052,-7.154240608,-3.74536562,2.395514488,2024-06-04 16:21:42.183052
61.223052,-7.555337429,-5.133502007,2.886641502,2024-06-04 16:21:42.223052
61.263052,-9.661021233,-5.526523113,3.027817965,2024-06-04 16:21:42.263052
61.303052,-10.10429192,-7.406982422,1.703091502,2024-06-04 16:21:42.303052
61.343052,-7.402196884,-7.610372543,3.253042459,2024-06-04 16:21:42.343052
61.383052,-8.257331848,-8.27408123,2.732005358,2024-06-04 16:21:42.383052
61.423052,-9.361619949,-7.148258686,2.635095835,2024-06-04 16:21:42.423052
61.463052,-9.770194054,-6.709774017,3.157329559,2024-06-04 16:21:42.463052
61.503052,-10.28255749,-8.66680336,3.514159203,2024-06-04 16:21:42.503052
61.543052,-8.422436714,-6.526423931,2.93090868,2024-06-04 16:21:42.543052
61.583052,-6.294320107,-6.679863453,3.243471146,2024-06-04 16:21:42.583052
61.623052,-4.927420139,-6.040381432,3.199203968,2024-06-04 16:21:42.623052
61.663052,-6.12173748,-7.281060219,2.674577475,2024-06-04 16:21:42.663052
61.703052,-10.92831993,-6.708577156,3.316452265,2024-06-04 16:21:42.703052
61.743052,-9.163912773,-7.24995327,2.734398127,2024-06-04 16:21:42.743052
61.783052,-11.58574772,-7.312166691,2.497209549,2024-06-04 16:21:42.783052
61.823052,-11.58574772,-7.312166691,2.497209549,2024-06-04 16:21:42.823052
61.863052,-6.63679266,-5.339583874,2.133201361,2024-06-04 16:21:42.863052
61.903052,-11.00728321,-5.195715427,1.85892415,2024-06-04 16:21:42.903052
61.943052,-8.324331284,-3.052942514,1.85294199,2024-06-04 16:21:42.943052
61.983052,-6.065506458,-2.753540754,0.8084749579,2024-06-04 16:21:42.983052
62.023052,-5.211268425,-2.795415163,3.177668571,2024-06-04 16:21:43.023052
62.063052,-5.211268425,-2.795415163,3.177668571,2024-06-04 16:21:43.063052
62.103052,-3.827918053,-0.3257229924,2.467299223,2024-06-04 16:21:43.103052
62.143052,-3.52731967,-1.002592683,3.054138899,2024-06-04 16:21:43.143052
62.183052,-2.87467742,-1.764407635,3.400500059,2024-06-04 16:21:43.183052
62.223052,-6.16121912,-2.855534792,3.243471146,2024-06-04 16:21:43.223052
62.263052,-8.970093727,-4.797011375,2.479263306,2024-06-04 16:21:43.263052
62.303052,-11.82891846,-6.079863071,2.708076954,2024-06-04 16:21:43.303052
62.343052,-9.710074425,-6.170790672,1.66600275,2024-06-04 16:21:43.343052
62.383052,-9.635896683,-7.315756321,1.331904888,2024-06-04 16:21:43.383052
62.423052,-6.710970402,-6.18634367,2.836392164,2024-06-04 16:21:43.423052
62.463052,-6.710970402,-6.18634367,2.836392164,2024-06-04 16:21:43.463052
62.503052,-6.710970402,-6.18634367,2.836392164,2024-06-04 16:21:43.503052
62.543052,-11.49362469,-10.12223816,4.589733124,2024-06-04 16:21:43.543052
62.583052,-11.99910831,-7.279863834,2.263610125,2024-06-04 16:21:43.583052
62.623052,-7.181757927,-5.721538067,2.16670084,2024-06-04 16:21:43.623052
62.663052,-5.003093243,-7.156633377,2.557329178,2024-06-04 16:21:43.663052
62.703052,-3.921537161,-7.945965767,1.621735573,2024-06-04 16:21:43.703052
62.743052,-7.252346516,-6.183950901,2.694916487,2024-06-04 16:21:43.743052
62.783052,-9.672985077,-6.818647385,2.951247692,2024-06-04 16:21:43.783052
62.823052,-10.45872879,-6.398407936,2.035095692,2024-06-04 16:21:43.823052
62.863052,-10.55683422,-7.299006462,2.972783089,2024-06-04 16:21:43.863052
62.903052,-10.45633602,-6.671488762,2.041077614,2024-06-04 16:21:43.903052
62.943052,-8.009375572,-5.053342342,2.896212816,2024-06-04 16:21:43.943052
62.983052,-10.11386299,-5.090431213,2.019542217,2024-06-04 16:21:43.983052
63.023052,-8.85733223,-4.299902439,1.767996788,2024-06-04 16:21:44.023052
63.063052,-4.59691143,-1.311565876,0.8024929166,2024-06-04 16:21:44.063052
63.103052,-3.193221807,-0.8706883192,2.172683001,2024-06-04 16:21:44.103052
63.143052,-4.418646336,-1.897209287,2.512762785,2024-06-04 16:21:44.143052
63.183052,-5.079663277,-0.3508476317,2.735594511,2024-06-04 16:21:44.183052
63.223052,-4.957629204,-1.47457695,3.459124327,2024-06-04 16:21:44.223052
63.263052,-4.613661289,-2.109273195,2.614757061,2024-06-04 16:21:44.263052
63.303052,-5.664110184,-2.911766052,3.103491068,2024-06-04 16:21:44.303052
63.343052,-7.638188839,-4.191029072,2.924926519,2024-06-04 16:21:44.343052
63.383052,-9.917352676,-5.794818401,3.86620307,2024-06-04 16:21:44.383052
63.423052,-8.913563728,-6.018547058,2.550150633,2024-06-04 16:21:44.423052
63.463052,-9.499206543,-7.182954311,2.369193554,2024-06-04 16:21:44.463052
63.503052,-7.591229916,-7.735098362,1.499701619,2024-06-04 16:21:44.503052
63.543052,-9.187840462,-7.497909546,1.897209287,2024-06-04 16:21:44.543052
63.583052,-9.471689224,-6.867999077,2.091326952,2024-06-04 16:21:44.583052
63.623052,-9.980762482,-6.541976929,3.562015533,2024-06-04 16:21:44.623052
63.663052,-9.263513565,-7.993822098,4.071088791,2024-06-04 16:21:44.663052
63.703052,-7.726723194,-6.742076874,2.69850564,2024-06-04 16:21:44.703052
63.743052,-7.115955353,-7.861917973,3.829114437,2024-06-04 16:21:44.743052
63.783052,-6.063113689,-7.07737112,1.367797256,2024-06-04 16:21:44.783052
63.823052,-4.968397141,-6.256932259,2.688934565,2024-06-04 16:21:44.823052
