Time (s),Gyroscope x (rad/s),Gyroscope y (rad/s),Gyroscope z (rad/s),Datetime
0.003573768,-0.1683068126,-0.3127790391,-0.7103772759,2024-06-04 16:20:41.003574
0.044018143,0.3034582436,-1.120092511,-0.4920045137,2024-06-04 16:20:41.044018
0.129093403,-0.7159697413,-1.209305763,-0.4597811997,2024-06-04 16:20:41.129093
0.169550434,-0.3131785095,-1.652043223,-0.3175725937,2024-06-04 16:20:41.169550
0.210055851,-0.02889444493,-1.520753264,-0.339409858,2024-06-04 16:20:41.210056
0.25053132,0.04513924941,-1.231409431,0.09959928691,2024-06-04 16:20:41.250531
0.291017518,0.492537111,-1.011705041,-0.01091863867,2024-06-04 16:20:41.291018
0.331523038,0.6979939342,-0.3378120363,0.4109136462,2024-06-04 16:20:41.331523
0.372038768,-0.24234052,-0.4081174135,1.562963128,2024-06-04 16:20:41.372039
0.412503768,-1.514495015,-1.347386599,2.25443244,2024-06-04 16:20:41.412504
0.452996007,-2.276003599,-0.406519562,2.250970602,2024-06-04 16:20:41.452996
0.493464236,-1.812227726,-1.97574091,2.127137184,2024-06-04 16:20:41.493464
0.533972466,-1.135405302,-0.9350082874,2.10609889,2024-06-04 16:20:41.533972
0.574460903,-0.5539211631,0.4042559266,1.769751549,2024-06-04 16:20:41.574461
0.614953299,1.09399426,1.179745555,0.9122389555,2024-06-04 16:20:41.614953
0.655486945,1.779205441,1.628208637,-0.3854812086,2024-06-04 16:20:41.655487
0.695940382,1.137802005,-0.4126446545,-0.4118457139,2024-06-04 16:20:41.695940
0.736390747,1.29998374,0.5729622245,-0.2659088075,2024-06-04 16:20:41.736391
0.776880799,0.8266208172,0.4418053925,0.1326215118,2024-06-04 16:20:41.776881
0.817386736,1.294391274,-0.3937367499,0.04687025398,2024-06-04 16:20:41.817387
0.857898143,1.676543593,-0.6166367531,-0.3412740231,2024-06-04 16:20:41.857898
0.898404757,0.684412241,-0.5314181447,-0.255256474,2024-06-04 16:20:41.898405
0.938928247,-0.02596505545,-0.1671084315,0.1195724085,2024-06-04 16:20:41.938928
0.979375799,0.1069227681,-0.1535267085,0.1350182891,2024-06-04 16:20:41.979376
1.019877049,0.1508636326,-0.4376776218,-0.06977276504,2024-06-04 16:20:42.019877
1.060356007,0.1822880059,0.2865476906,0.637408793,2024-06-04 16:20:42.060356
1.100790382,0.4078511,-0.7127740383,0.2588516176,2024-06-04 16:20:42.100790
1.141296788,0.06697652489,-1.291861296,0.3888100684,2024-06-04 16:20:42.141297
1.181829341,-0.1198387146,-0.3085181117,0.6416697502,2024-06-04 16:20:42.181829
1.222304705,-1.095725298,0.4580501914,0.4596480429,2024-06-04 16:20:42.222305
1.262769288,-0.9447285533,1.088801265,0.9551145434,2024-06-04 16:20:42.262769
1.30327283,-1.000653267,2.414084435,2.12234354,2024-06-04 16:20:42.303273
1.34376507,-0.7402037978,3.554149866,2.048842669,2024-06-04 16:20:42.343765
1.384270851,-1.709965348,4.63469553,2.092517138,2024-06-04 16:20:42.384271
1.424786216,-1.858299017,3.801816702,2.132729769,2024-06-04 16:20:42.424786
1.465230799,-0.7910686731,2.227002859,2.204632998,2024-06-04 16:20:42.465231
1.505714497,-0.3030588031,0.46018067,2.650832415,2024-06-04 16:20:42.505714
1.546236893,0.1045259908,0.09880036116,3.089841604,2024-06-04 16:20:42.546237
1.586679966,0.6854774356,-1.633667946,3.812735319,2024-06-04 16:20:42.586680
1.627163403,0.000133154128,-1.35191381,3.895557165,2024-06-04 16:20:42.627163
1.66765257,-0.8360747695,-0.7512555718,3.460276365,2024-06-04 16:20:42.667653
1.70815507,-1.031811357,0.1757634431,2.448171854,2024-06-04 16:20:42.708155
1.748670903,-1.366960287,2.024874926,0.2484655976,2024-06-04 16:20:42.748671
1.789143038,0.2941374779,0.7473941445,0.4300878346,2024-06-04 16:20:42.789143
1.829627986,0.2664414048,-0.1295589656,0.3978645205,2024-06-04 16:20:42.829628
1.870135122,0.1183740199,-0.6318163276,0.1070559174,2024-06-04 16:20:42.870135
1.910644028,-0.1541924775,0.5234288573,0.07962616533,2024-06-04 16:20:42.910644
1.95112908,-0.05206326395,2.043250084,0.01704372838,2024-06-04 16:20:42.951129
1.991592622,0.3125127256,3.834838867,-0.2493976802,2024-06-04 16:20:42.991593
2.032088507,0.06537867337,4.131239891,-0.77042979,2024-06-04 16:20:43.032089
2.072585538,-0.8824124336,2.945236206,-0.7119750977,2024-06-04 16:20:43.072586
2.113069288,-0.4215659797,1.737528205,-0.5383421183,2024-06-04 16:20:43.113069
2.153571841,-0.07230269164,0.2918738425,-0.1894783229,2024-06-04 16:20:43.153572
2.194069028,-0.2940043211,-0.5681686401,0.4074516296,2024-06-04 16:20:43.194069
2.234536997,0.6569824815,-0.4190360308,0.8475260139,2024-06-04 16:20:43.234537
2.275012361,0.4150414169,-0.1798912287,0.7242252827,2024-06-04 16:20:43.275012
2.315529028,0.1229012609,0.2593842447,0.1794917583,2024-06-04 16:20:43.315529
2.356045747,0.1727008969,0.4077179432,0.1882799417,2024-06-04 16:20:43.356046
2.396503091,0.1985328048,0.5447335243,0.001065233024,2024-06-04 16:20:43.396503
2.43695908,0.7089125514,0.2873466015,0.3435376585,2024-06-04 16:20:43.436959
2.477447778,0.3010614812,0.2319544852,0.2681724131,2024-06-04 16:20:43.477448
2.517937309,-0.2497971505,0.7481930256,-0.7595111728,2024-06-04 16:20:43.517937
2.55845033,0.4746944606,1.002251148,-0.4435364008,2024-06-04 16:20:43.558450
2.598960382,0.1508636326,0.8840102553,-0.09001219273,2024-06-04 16:20:43.598960
2.639452413,-0.004394086078,-0.06204982474,0.1515294015,2024-06-04 16:20:43.639452
2.679946476,-0.2175738513,-0.2613815665,-0.4067858756,2024-06-04 16:20:43.679946
2.720434184,-0.5022573471,-0.9496552348,-1.374816418,2024-06-04 16:20:43.720434
2.760916893,0.1916087866,-0.8037183285,-1.493856192,2024-06-04 16:20:43.760917
2.801394966,1.16789484,-0.7682993412,-1.597183824,2024-06-04 16:20:43.801395
2.841892413,1.017031193,-0.4254274368,-2.919670582,2024-06-04 16:20:43.841892
2.882385538,1.362033606,-0.3628450036,-3.033916712,2024-06-04 16:20:43.882386
2.922878663,1.36602819,-0.3481980562,-3.435642719,2024-06-04 16:20:43.922879
2.963368768,0.7869408727,0.3243634701,-3.667597294,2024-06-04 16:20:43.963369
3.003857466,0.5307523608,0.2410089672,-3.660140753,2024-06-04 16:20:44.003857
3.044338403,-0.2761616707,0.8621729612,-3.229786634,2024-06-04 16:20:44.044338
3.084813768,0.2938711643,2.776529789,-3.153888702,2024-06-04 16:20:44.084814
3.12530158,-0.104392834,2.403431892,-2.840843439,2024-06-04 16:20:44.125302
3.165811997,-1.569887161,1.733000994,-1.53007412,2024-06-04 16:20:44.165812
3.206273663,-2.051505566,1.483603239,-0.9927971959,2024-06-04 16:20:44.206274
3.246744393,-1.127416015,1.65590477,-0.7392717004,2024-06-04 16:20:44.246744
3.287278143,-0.3435376585,1.979336143,-0.2725664973,2024-06-04 16:20:44.287278
3.327747257,-1.021425366,1.397053123,0.811840713,2024-06-04 16:20:44.327747
3.368236684,0.1354177445,0.7497909069,0.1797580719,2024-06-04 16:20:44.368237
3.408746684,1.238732815,0.2756290436,0.422098577,2024-06-04 16:20:44.408747
3.449215434,0.7866745591,0.1470021605,0.3576519787,2024-06-04 16:20:44.449215
3.489705174,1.12595129,-0.2829525173,1.036338568,2024-06-04 16:20:44.489705
3.530207882,0.9797480702,0.2117150575,2.72619772,2024-06-04 16:20:44.530208
3.570734028,0.2246310115,0.4930697381,1.159239888,2024-06-04 16:20:44.570734
3.611201788,-0.08535179496,-0.2256962508,0.7359428406,2024-06-04 16:20:44.611202
3.651685591,0.5350132585,-1.042330503,1.544055223,2024-06-04 16:20:44.651686
3.692167674,-0.3957340717,-0.2163754553,0.2695039511,2024-06-04 16:20:44.692168
3.732675695,-1.180145025,-0.1894783229,-0.04926702753,2024-06-04 16:20:44.732676
3.773180382,-1.213433623,-0.7635057569,-0.04633763805,2024-06-04 16:20:44.773180
3.813643143,-0.2380795777,0.1736329794,-0.5529890656,2024-06-04 16:20:44.813643
3.854153976,0.6074491143,1.244724751,-1.136603594,2024-06-04 16:20:44.854154
3.894600122,0.5181027055,-0.09453943372,-0.9400681257,2024-06-04 16:20:44.894600
3.935118247,0.3332847953,-0.3657743931,-0.8902685046,2024-06-04 16:20:44.935118
3.975610122,-0.09959928691,-0.3854812086,-1.824078441,2024-06-04 16:20:44.975610
4.016098716,0.2177069932,0.1637795717,-1.039667487,2024-06-04 16:20:45.016099
4.05658882,0.7113093734,0.6576482654,-0.6493926644,2024-06-04 16:20:45.056589
4.097078976,1.203313828,-0.6219629049,-1.336201668,2024-06-04 16:20:45.097079
4.137569132,0.3623123765,-0.2944037914,-0.277892679,2024-06-04 16:20:45.137569
4.178045434,0.7965279818,-0.6400718689,0.5047873259,2024-06-04 16:20:45.178045
4.218537986,1.205178022,-0.710909903,0.8768199086,2024-06-04 16:20:45.218538
4.258992309,1.307174087,-0.8071803451,0.8286181092,2024-06-04 16:20:45.258992
4.299485591,1.484535336,-0.7170349956,0.820895195,2024-06-04 16:20:45.299486
4.340001268,1.092662811,-0.6765561104,0.7585790753,2024-06-04 16:20:45.340001
4.380506997,0.6202319264,-0.6629744172,0.4689688385,2024-06-04 16:20:45.380507
4.420996841,0.1346188188,-0.05406057462,0.3853480518,2024-06-04 16:20:45.420997
4.461487309,-0.2463351339,-0.4438027143,0.1834863871,2024-06-04 16:20:45.461487
4.501974236,-0.2548570037,0.2841508985,-0.1484668553,2024-06-04 16:20:45.501974
4.542453611,-0.1651111245,1.002251148,-0.4376776218,2024-06-04 16:20:45.542454
4.582928038,0.1130478531,1.580006838,-1.113967419,2024-06-04 16:20:45.582928
4.623438768,-0.2244978547,1.617023706,-1.19199574,2024-06-04 16:20:45.623439
4.663928559,-0.7694976926,0.5878754854,-1.95949614,2024-06-04 16:20:45.663929
4.704401111,-0.7002575397,0.9820116758,-3.038976669,2024-06-04 16:20:45.704401
4.74490408,-0.7780195475,-0.3002625704,-3.28730917,2024-06-04 16:20:45.744904
4.78540533,-1.360835195,1.370422244,-3.126592159,2024-06-04 16:20:45.785405
4.825851788,-0.90291816,-0.1591191888,-1.998909712,2024-06-04 16:20:45.825852
4.866389497,-0.9900009632,-0.736874938,-0.4776238501,2024-06-04 16:20:45.866389
4.906879445,-0.8784177899,-0.7664351463,-0.141542837,2024-06-04 16:20:45.906879
4.947336632,-0.3267602324,0.146735847,-0.1330209672,2024-06-04 16:20:45.947337
4.987822674,0.1969349533,0.09533835202,0.1877473146,2024-06-04 16:20:45.987823
5.028312309,0.3953346014,0.1675078869,0.548728168,2024-06-04 16:20:46.028312
5.068810747,0.6266233325,0.2170412242,0.3416734934,2024-06-04 16:20:46.068811
5.109299497,0.7251573801,0.1584534049,0.3472659588,2024-06-04 16:20:46.109299
5.149796841,0.9041165113,0.112115778,0.4756265581,2024-06-04 16:20:46.149797
5.190305903,0.9091764092,0.1363498271,0.5886744261,2024-06-04 16:20:46.190306
5.230753872,0.8471265435,0.3722989559,0.7939980626,2024-06-04 16:20:46.230754
5.271231632,0.7573806643,0.3446028829,1.105844975,2024-06-04 16:20:46.271232
5.311737622,0.9730903506,0.1523283273,1.228479981,2024-06-04 16:20:46.311738
5.352245747,1.192927837,-0.5218310356,1.255643368,2024-06-04 16:20:46.352246
5.392739913,1.505041122,-1.047390342,1.18533802,2024-06-04 16:20:46.392740
5.43322033,1.408637524,-1.218360305,0.967631042,2024-06-04 16:20:46.433220
5.473711059,1.13300848,-0.7962616682,0.7926664948,2024-06-04 16:20:46.473711
5.514208663,0.7512555718,-0.2161091566,0.5766905546,2024-06-04 16:20:46.514209
5.554700122,0.2456693649,0.1845516264,0.2660419345,2024-06-04 16:20:46.554700
5.595173559,-0.1491326243,0.1006645188,-0.05885412544,2024-06-04 16:20:46.595174
5.635685643,-0.4689688385,0.06524552405,-0.4882761836,2024-06-04 16:20:46.635686
5.676184341,-0.8416672349,0.311580658,-0.9075785279,2024-06-04 16:20:46.676184
5.716630747,-1.030746102,0.5322170258,-1.19199574,2024-06-04 16:20:46.716631
5.75709257,-1.140198827,0.5380758047,-1.339663625,2024-06-04 16:20:46.757093
5.797582309,-1.121823549,0.3986634612,-1.4187572,2024-06-04 16:20:46.797582
5.838090538,-1.137269378,0.001065233024,-1.419289827,2024-06-04 16:20:46.838091
5.878588507,-1.077616334,-0.1878804713,-1.335669041,2024-06-04 16:20:46.878589
5.919081997,-1.025686264,-0.2970668674,-0.9690957665,2024-06-04 16:20:46.919082
5.959588507,-1.042197347,-0.09054480493,-0.797593236,2024-06-04 16:20:46.959589
6.000085174,-1.021957874,-0.09533835202,-0.4709661603,2024-06-04 16:20:47.000085
6.040566111,-0.9202281833,-0.1540593207,-0.1812227666,2024-06-04 16:20:47.040566
6.081048611,-0.5999925137,-0.1737661362,0.07403369248,2024-06-04 16:20:47.081049
6.121532986,-0.1821548492,-0.1788259894,0.3821523488,2024-06-04 16:20:47.121533
6.162031945,0.1271621883,0.04234301299,0.554586947,2024-06-04 16:20:47.162032
6.20253158,0.4651073813,0.1115831584,0.6019898057,2024-06-04 16:20:47.202532
6.242967361,0.7102441192,0.145404309,0.661909163,2024-06-04 16:20:47.242967
6.283483663,0.822892487,-0.000266308256,0.7298177481,2024-06-04 16:20:47.283484
6.323994861,0.8588441014,0.1158440933,0.9489894509,2024-06-04 16:20:47.323995
6.364479653,0.8298165202,0.04154408723,1.148321152,2024-06-04 16:20:47.364480
6.404976632,0.8135717511,0.0221035853,1.211169958,2024-06-04 16:20:47.404977
6.445455018,0.9134373069,-0.4587159753,1.034208059,2024-06-04 16:20:47.445455
6.486018091,1.005846262,-0.6568493247,0.8467270732,2024-06-04 16:20:47.486018
6.526465174,0.9587097168,-0.7002575397,0.8326127529,2024-06-04 16:20:47.526465
6.566912934,0.7925333977,-0.4235632718,0.7402037978,2024-06-04 16:20:47.566913
6.607394601,0.6415365934,-0.28241992,0.6762897968,2024-06-04 16:20:47.607395
6.647866424,0.3628450036,-0.004793548491,0.3893426657,2024-06-04 16:20:47.647866
6.688392882,0.06298190355,0.07563154399,0.04074516147,2024-06-04 16:20:47.688393
6.728889288,-0.2588516176,0.4838820994,-0.4941349626,2024-06-04 16:20:47.728889
6.769379028,-0.6119763851,0.7833457589,-1.014101863,2024-06-04 16:20:47.769379
6.80985033,-0.9383371472,0.8065145612,-1.279078603,2024-06-04 16:20:47.809850
6.850340122,-1.086937189,0.7005238533,-1.368691325,2024-06-04 16:20:47.850340
6.890890747,-1.221955419,0.7316819429,-1.534335017,2024-06-04 16:20:47.890891
6.931330278,-1.29332602,0.4854799509,-1.783865809,2024-06-04 16:20:47.931330
6.971847778,-1.179079771,0.03648423031,-1.647249699,2024-06-04 16:20:47.971848
7.012337205,-1.016898036,-0.1881467849,-1.169625878,2024-06-04 16:20:48.012337
7.052846632,-0.9524514675,-0.156456098,-0.8993229866,2024-06-04 16:20:48.052847
7.09328033,-0.7971937656,-0.04793548584,-0.5548532605,2024-06-04 16:20:48.093280
7.133781216,-0.4881430268,-0.1631138027,-0.1878804713,2024-06-04 16:20:48.133781
7.174255278,-0.06537867337,-0.1972012669,0.2623136342,2024-06-04 16:20:48.174255
7.214755434,0.3093170524,-0.0181089621,0.5399399996,2024-06-04 16:20:48.214755
7.255202153,0.6905373335,0.08548495173,0.7279536128,2024-06-04 16:20:48.255202
7.295696841,0.8340774775,0.3435376585,0.6054518223,2024-06-04 16:20:48.295697
7.33628507,1.0591079,-0.05805519968,0.7758890986,2024-06-04 16:20:48.336285
7.376774445,1.166030645,0.2383458912,1.099187374,2024-06-04 16:20:48.376774
7.417192049,1.205976963,-0.2347507328,1.166696429,2024-06-04 16:20:48.417192
7.457687153,1.0109061,0.1989322603,1.119293571,2024-06-04 16:20:48.457687
7.498198403,1.257108092,-0.5663045049,1.407172799,2024-06-04 16:20:48.498198
7.538687778,1.482138634,-1.225816846,1.484135866,2024-06-04 16:20:48.538688
7.579152257,1.219292402,-0.9600412846,1.303845167,2024-06-04 16:20:48.579152
7.619678038,0.9592423439,-0.5042546988,1.181343436,2024-06-04 16:20:48.619678
7.660162882,0.5248935819,0.008788172156,0.8275529146,2024-06-04 16:20:48.660163
7.700646893,-0.07896039635,0.1760297567,0.339276731,2024-06-04 16:20:48.700647
7.741160018,-0.5406057835,0.2532591522,-0.2837514579,2024-06-04 16:20:48.741160
7.781649393,-0.9194292426,0.5673697591,-0.853251636,2024-06-04 16:20:48.781649
7.822097726,-1.069360852,0.8744231462,-1.241529107,2024-06-04 16:20:48.822098
7.862590591,-1.094926357,0.8051829934,-1.478942871,2024-06-04 16:20:48.862591
7.903155122,-1.100518823,0.6211640239,-1.627010345,2024-06-04 16:20:48.903155
7.943563143,-1.073888063,0.3363473415,-1.679473042,2024-06-04 16:20:48.943563
7.984048403,-1.12555182,0.1762960702,-1.580139995,2024-06-04 16:20:48.984048
8.024537726,-1.002517462,0.008521864191,-1.301714778,2024-06-04 16:20:49.024538
8.06503158,-0.7796174288,-0.02503297664,-0.9456605911,2024-06-04 16:20:49.065032
8.105539809,-0.5794867873,-0.0596530512,-0.5447335243,2024-06-04 16:20:49.105540
8.14602283,-0.213312909,-0.3511274457,-0.1046591476,2024-06-04 16:20:49.146023
8.186495382,0.1426080763,-0.357518822,0.243672058,2024-06-04 16:20:49.186495
8.226984653,0.3412740231,-0.2661750913,0.3933372796,2024-06-04 16:20:49.226985
8.267441216,0.3447360396,0.06524552405,0.3757609427,2024-06-04 16:20:49.267441
8.307952413,0.5235620141,0.0980014354,0.4282236695,2024-06-04 16:20:49.307952
8.348476372,0.7624405622,0.03355484083,0.6978607774,2024-06-04 16:20:49.348476
8.388959288,0.8551158309,0.1240996495,0.9351414442,2024-06-04 16:20:49.388959
8.429459236,0.785343051,0.2114487588,1.244458437,2024-06-04 16:20:49.429459
8.469957518,0.8942631483,0.1509967744,1.39385736,2024-06-04 16:20:49.469958
8.510412778,1.181742907,-0.5870765448,1.469755292,2024-06-04 16:20:49.510413
8.550902049,1.518356562,-1.188267469,1.268958807,2024-06-04 16:20:49.550902
8.591395382,1.319157958,-1.069494009,1.033142924,2024-06-04 16:20:49.591395
8.631907622,0.938470304,-0.6999912262,0.8999887705,2024-06-04 16:20:49.631908
8.67240408,0.492537111,-0.107588537,0.652854681,2024-06-04 16:20:49.672404
8.712863611,0.147401616,0.1531272531,0.3603150845,2024-06-04 16:20:49.712864
8.753379007,-0.2644441128,0.1944050342,-0.2347507328,2024-06-04 16:20:49.753379
8.793859319,-0.5936011076,0.408516854,-0.7856093645,2024-06-04 16:20:49.793859
8.834336559,-1.039268017,0.7966611385,-1.179479241,2024-06-04 16:20:49.834337
8.874827028,-1.378677845,0.8278192282,-1.451779485,2024-06-04 16:20:49.874827
8.915324163,-1.453244209,0.7825468183,-1.6555053,2024-06-04 16:20:49.915324
8.955854632,-1.385069251,0.5319507122,-1.723147511,2024-06-04 16:20:49.955855
8.996307601,-1.32115531,0.2420742065,-1.628341794,2024-06-04 16:20:49.996308
9.036780569,-1.025952578,-0.006657706574,-1.269491434,2024-06-04 16:20:50.036781
9.077235205,-0.884809196,-0.05139749497,-1.095059514,2024-06-04 16:20:50.077235
9.117737549,-0.884809196,0.01438064594,-0.968829453,2024-06-04 16:20:50.117738
9.158251507,-0.7881392837,-0.07003907114,-0.862306118,2024-06-04 16:20:50.158252
9.198763069,-0.4151745737,-0.1006645188,-0.3340837061,2024-06-04 16:20:50.198763
9.239209111,-0.04247616604,0.03808208182,0.01917419396,2024-06-04 16:20:50.239209
9.279688746,0.1844184697,0.08788172156,0.2748301327,2024-06-04 16:20:50.279689
9.32020833,0.3748288751,-0.02023942769,0.5335485935,2024-06-04 16:20:50.320208
9.360703486,0.4677704573,-0.07696308941,0.7822805047,2024-06-04 16:20:50.360703
9.401182444,0.4877435565,-0.1142462417,0.6880073547,2024-06-04 16:20:50.401182
9.441669944,0.3969324529,-0.04766917601,0.5290213227,2024-06-04 16:20:50.441670
9.482178694,0.2877460718,-0.1588528752,0.2098509073,2024-06-04 16:20:50.482179
9.522666976,0.04886756465,-0.056723658,-0.1737661362,2024-06-04 16:20:50.522667
9.56313958,-0.1352845877,-0.005858781748,-0.597995162,2024-06-04 16:20:50.563140
9.60363359,-0.3414071798,0.16031757,-0.8053161502,2024-06-04 16:20:50.603634
9.644123434,-0.3547225893,0.2039921284,-0.6930672526,2024-06-04 16:20:50.644123
9.684609059,-0.1515294015,0.2420742065,-0.3780245781,2024-06-04 16:20:50.684609
9.725104528,0.05019910634,-0.1237001866,0.1395455301,2024-06-04 16:20:50.725105
9.765587444,0.1820216924,-0.2485987544,0.5114449859,2024-06-04 16:20:50.765587
9.806072496,0.3487306535,-0.2589847744,0.6097127795,2024-06-04 16:20:50.806072
9.846562757,0.3559209704,-0.159651801,0.58228302,2024-06-04 16:20:50.846563
9.887032861,0.590139091,-0.3543231487,0.6701647043,2024-06-04 16:20:50.887033
9.927513851,0.8407351375,0.002929390874,0.9591091871,2024-06-04 16:20:50.927514
9.968034111,1.05245018,-0.1017297506,0.9577776194,2024-06-04 16:20:50.968034
10.00851229,1.119027257,0.09666989744,1.296122313,2024-06-04 16:20:51.008512
10.04900255,1.063368917,-0.0708379969,1.471885681,2024-06-04 16:20:51.049003
10.08948833,1.138334632,-0.4408733249,1.549914002,2024-06-04 16:20:51.089488
10.12999448,1.248586297,-1.041531563,1.579474211,2024-06-04 16:20:51.129994
10.17047255,0.981079638,-0.7512555718,1.406906486,2024-06-04 16:20:51.170473
10.21099182,0.6710968018,-0.1174419373,0.9239565134,2024-06-04 16:20:51.210992
10.25147734,0.4057206213,0.1363498271,0.5197005868,2024-06-04 16:20:51.251477
10.29192177,0.00599193573,-0.01438064594,0.09081111848,2024-06-04 16:20:51.291922
10.33241151,-0.5552527308,0.211981371,-0.4595148861,2024-06-04 16:20:51.332412
10.37294994,-0.976685524,0.6081148982,-0.8452624083,2024-06-04 16:20:51.372950
10.41342338,-1.308106184,0.8464608192,-1.18160975,2024-06-04 16:20:51.413423
10.45390515,-1.436733007,0.8182321191,-1.408104897,2024-06-04 16:20:51.453905
10.49441073,-1.477211952,0.570032835,-1.50557375,2024-06-04 16:20:51.494411
10.53491281,-1.431673169,0.283085674,-1.72900641,2024-06-04 16:20:51.534913
10.57539484,-1.295190215,-0.05725627393,-1.586531401,2024-06-04 16:20:51.575395
10.61589021,-1.0914644,0.04234301299,-1.343392015,2024-06-04 16:20:51.615890
10.65636484,-0.8350095153,0.3467333615,-1.173354149,2024-06-04 16:20:51.656365
10.69680635,-0.3640433848,0.3371462524,-0.6912030578,2024-06-04 16:20:51.696806
10.73729198,-0.07656362653,0.06018566713,-0.1727008969,2024-06-04 16:20:51.737292
10.77778166,0.3718994856,-0.3585840762,0.3957340717,2024-06-04 16:20:51.777782
10.81828536,0.6553846002,0.1826874614,0.5905385613,2024-06-04 16:20:51.818285
10.8587913,0.724624753,0.2143781483,0.4849473238,2024-06-04 16:20:51.858791
10.8992964,0.822093606,0.2045247406,0.4833494723,2024-06-04 16:20:51.899296
10.9397826,0.9312799573,-0.07376738638,0.6874747872,2024-06-04 16:20:51.939783
10.98028,0.9946613312,-0.0458050184,0.9692289233,2024-06-04 16:20:51.980280
11.0207738,1.109440207,0.03089175746,1.33526957,2024-06-04 16:20:52.020774
11.06121302,1.178547144,-0.4339492917,1.333671689,2024-06-04 16:20:52.061213
11.1017789,1.191862583,-0.4810858667,1.216762424,2024-06-04 16:20:52.101779
11.14222192,1.237401366,-0.8146369457,1.178680301,2024-06-04 16:20:52.142222
11.18272432,1.068428755,-1.155511498,1.161636591,2024-06-04 16:20:52.182724
11.2232089,0.8340774775,-0.9089100957,0.8688306808,2024-06-04 16:20:52.223209
11.26368744,0.5595136285,-0.7406032681,0.7210295796,2024-06-04 16:20:52.263687
11.30417062,0.084020257,-0.4480636418,0.597995162,2024-06-04 16:20:52.304171
11.34468041,-0.4974638224,-0.1716356725,0.1094526947,2024-06-04 16:20:52.344680
11.38517052,-1.127416015,0.2354165018,-0.3026593328,2024-06-04 16:20:52.385171
11.42565156,-1.436999321,0.5266245604,-0.5532553792,2024-06-04 16:20:52.425652
11.4661613,-1.61436069,0.8680317402,-1.002650619,2024-06-04 16:20:52.466161
11.50665146,-1.513962388,0.9700278044,-1.341261506,2024-06-04 16:20:52.506651
11.54714156,-1.342459917,0.92741853,-1.585998774,2024-06-04 16:20:52.547142
11.58758885,-0.8962604403,0.4862788618,-1.571884513,2024-06-04 16:20:52.587589
11.62809541,-0.756981194,0.2095845938,-1.623015642,2024-06-04 16:20:52.628095
11.66861239,-0.6822817326,0.3038577139,-1.38014257,2024-06-04 16:20:52.668612
11.7091038,-0.6167699099,0.3174394369,-1.025286794,2024-06-04 16:20:52.709104
11.7495988,-0.5480623841,0.06577813625,-0.6794854999,2024-06-04 16:20:52.749599
11.79004401,-0.4231638312,-0.5287550688,-0.3079854846,2024-06-04 16:20:52.790044
11.83054609,-0.09666989744,-0.6099790335,0.1808233112,2024-06-04 16:20:52.830546
11.87105843,0.2099840641,-0.3878779709,0.4300878346,2024-06-04 16:20:52.871058
11.91155354,0.3873453438,0.0713706091,0.4165061116,2024-06-04 16:20:52.911554
11.95205401,0.4118457139,0.018907886,0.4396749437,2024-06-04 16:20:52.952054
11.99251672,0.5336817503,-0.07643046975,0.6304848194,2024-06-04 16:20:52.992517
12.03296369,0.614639461,-0.2214353085,0.9407339096,2024-06-04 16:20:53.032964
12.07345791,0.6945319176,-0.1987991184,1.325416207,2024-06-04 16:20:53.073458
12.11397135,0.8601756692,-0.1639127284,1.501445889,2024-06-04 16:20:53.113971
12.15448411,0.9829437733,-0.4161066413,1.343258858,2024-06-04 16:20:53.154484
12.19495375,1.197455049,-0.8226261735,1.397852063,2024-06-04 16:20:53.194954
12.23543833,1.323418856,-1.397186279,1.420754552,2024-06-04 16:20:53.235438
12.27591916,0.9834764004,-0.9861394763,1.166430116,2024-06-04 16:20:53.275919
12.31639166,0.5669702888,-0.4374113083,0.9564461112,2024-06-04 16:20:53.316392
12.35688932,0.05073172227,-0.006657706574,0.6696321368,2024-06-04 16:20:53.356889
12.39738343,-0.3861469626,0.1757634431,0.1552577168,2024-06-04 16:20:53.397383
12.43786239,-0.769231379,0.4936023653,-0.3660407066,2024-06-04 16:20:53.437862
12.47838458,-1.032610297,0.9130378366,-0.8271534443,2024-06-04 16:20:53.478385
12.51887312,-1.162568688,1.10145092,-1.174419403,2024-06-04 16:20:53.518873
12.55935687,-1.131144285,0.9892020226,-1.384669781,2024-06-04 16:20:53.559357
12.59984047,-1.128214955,0.8153027296,-1.538329601,2024-06-04 16:20:53.599840
12.64034156,-1.1188941,0.588141799,-1.684532881,2024-06-04 16:20:53.640342
12.68082974,-0.9537830353,0.204258427,-1.621950388,2024-06-04 16:20:53.680830
12.72132109,-0.9673647285,0.1382139921,-1.249252081,2024-06-04 16:20:53.721321
12.76181349,-0.9604407549,0.05592473224,-1.035140157,2024-06-04 16:20:53.761813
12.80230302,-0.7793511152,0.04926702753,-0.6105116606,2024-06-04 16:20:53.802303
12.84278646,-0.4889419675,-0.3535242081,-0.2581858635,2024-06-04 16:20:53.842786
12.88326208,-0.0977351293,-0.4842815697,0.2205032408,2024-06-04 16:20:53.883262
12.92375396,0.2166417688,-0.1814890802,0.3446028829,2024-06-04 16:20:53.923754
12.96427213,0.3756277859,0.305721879,0.3952014446,2024-06-04 16:20:53.964272
13.00475234,0.5754921436,0.3517931998,0.4665720761,2024-06-04 16:20:54.004752
13.04523099,0.6958634853,0.08362079412,0.7207632661,2024-06-04 16:20:54.045231
13.08571177,0.7342118621,0.2580527067,1.041132092,2024-06-04 16:20:54.085712
13.12621151,0.7659025192,0.2822867632,1.355242729,2024-06-04 16:20:54.126212
13.16668802,0.8937305212,0.000266308256,1.528875709,2024-06-04 16:20:54.166688
13.20715494,1.089999676,-0.1892120093,1.565093637,2024-06-04 16:20:54.207155
13.24763812,1.261369109,-0.4499278069,1.448983192,2024-06-04 16:20:54.247638
13.28818494,1.286934614,-0.7525871396,1.260969639,2024-06-04 16:20:54.288185
13.32867041,1.119027257,-0.7411358953,0.9758865833,2024-06-04 16:20:54.328670
13.3691625,0.810642302,-0.389742136,0.729018867,2024-06-04 16:20:54.369162
13.40962927,0.3892095089,-0.003462007269,0.3387441039,2024-06-04 16:20:54.409629
13.45011583,-0.1294258088,0.1856168509,-0.2155765295,2024-06-04 16:20:54.450116
13.49059838,-0.5451329947,0.7170349956,-0.7941312194,2024-06-04 16:20:54.490598
13.53114625,-0.8536511064,0.9881367683,-1.144326568,2024-06-04 16:20:54.531146
13.57163588,-1.053382277,1.021957874,-1.576678038,2024-06-04 16:20:54.571636
13.61208349,-1.120225668,1.047257185,-1.759631753,2024-06-04 16:20:54.612083
13.65260567,-1.053914905,0.8616403341,-1.801175833,2024-06-04 16:20:54.652606
13.69303979,-0.9380708337,0.6190335155,-1.733000994,2024-06-04 16:20:54.693040
13.73355177,-0.805449307,0.3592498302,-1.451246858,2024-06-04 16:20:54.733552
13.7740376,-0.6330147386,0.2021279633,-1.278545976,2024-06-04 16:20:54.774038
13.81450854,-0.4916050434,0.2231663167,-0.861507237,2024-06-04 16:20:54.814509
13.85502192,-0.2905423045,-0.0298265256,-0.3508611321,2024-06-04 16:20:54.855022
13.89553099,0.02223674022,-0.2206363827,0.03701684624,2024-06-04 16:20:54.895531
13.93602484,0.2853493094,-0.05326165259,0.2873466015,2024-06-04 16:20:54.936025
13.97644963,0.3982639909,0.1762960702,0.3355484009,2024-06-04 16:20:54.976450
14.01695396,0.6769555807,0.04260931909,0.3475322723,2024-06-04 16:20:55.016954
14.05747422,0.8884043694,0.08947957307,0.5625761747,2024-06-04 16:20:55.057474
14.09795635,0.8918663263,0.1672415882,0.8443303108,2024-06-04 16:20:55.097956
14.13841526,1.038069606,0.1858831644,1.243659496,2024-06-04 16:20:55.138415
14.17894125,1.063102603,-0.01251648832,1.326747775,2024-06-04 16:20:55.178941
14.21940515,1.226216316,-0.3223661482,1.417026281,2024-06-04 16:20:55.219405
14.2599164,1.233672976,-0.539673686,1.489728332,2024-06-04 16:20:55.259916
14.30038963,1.346587658,-1.126217604,1.279078603,2024-06-04 16:20:55.300390
14.34089828,1.260836482,-1.519155502,1.113701105,2024-06-04 16:20:55.340898
14.38137781,0.8404688835,-0.7792179585,0.7031869292,2024-06-04 16:20:55.381378
14.42185802,0.4720313847,-0.04207670316,0.2804225981,2024-06-04 16:20:55.421858
14.46234609,-0.07443315536,0.2340849638,-0.2059894353,2024-06-04 16:20:55.462346
14.50282937,-0.4910724163,0.449262023,-0.6821485758,2024-06-04 16:20:55.502829
14.54333302,-0.8344769478,0.6509905457,-1.090532303,2024-06-04 16:20:55.543333
14.58379942,-0.9876041412,0.8126396537,-1.359104156,2024-06-04 16:20:55.583799
14.62429323,-1.02169168,0.7742912769,-1.609433889,2024-06-04 16:20:55.624293
14.66480515,-0.9761528969,0.630751133,-1.734865189,2024-06-04 16:20:55.664805
14.70527578,-0.9252880216,0.1832200736,-1.699446082,2024-06-04 16:20:55.705276
14.7457902,-0.7822805047,-0.06444659829,-1.389729619,2024-06-04 16:20:55.745790
14.78626088,-0.466039449,-0.1756303012,-0.7661688328,2024-06-04 16:20:55.786261
14.82675338,-0.3975982368,-0.02370143496,-0.5194342732,2024-06-04 16:20:55.826753
14.86720604,-0.5541874766,-0.3511274457,-0.4137098789,2024-06-04 16:20:55.867206
14.90775458,-0.5115781426,-0.6089138389,-0.1790923029,2024-06-04 16:20:55.907755
14.94823573,-0.1776276082,-0.5087819099,0.1613828093,2024-06-04 16:20:55.948236
14.988715,0.1276948154,-0.08095771074,0.4013265371,2024-06-04 16:20:55.988715
15.02917135,0.2989310026,-0.07643046975,0.5689675808,2024-06-04 16:20:56.029171
15.06965854,0.4621779919,-0.06444659829,0.8065145612,2024-06-04 16:20:56.069659
15.1101864,0.5920032263,-0.1354177445,0.9077116847,2024-06-04 16:20:56.110186
15.15069729,0.715570271,0.09374050796,1.197321892,2024-06-04 16:20:56.150697
15.19118724,0.7946638465,0.0146469539,1.422618747,2024-06-04 16:20:56.191187
15.2316714,0.993596077,-0.1364829838,1.440727711,2024-06-04 16:20:56.231671
15.27213422,1.249118924,-0.6110442877,1.425281763,2024-06-04 16:20:56.272134
15.31261104,1.481339693,-1.099320531,1.252714038,2024-06-04 16:20:56.312611
15.35310531,1.125152349,-0.7207632661,1.137402534,2024-06-04 16:20:56.353105
15.39362026,0.8551158309,-0.4842815697,0.656050384,2024-06-04 16:20:56.393620
15.43411463,0.3918725848,-0.2440715134,0.3821523488,2024-06-04 16:20:56.434115
15.4745714,-0.1201050207,-0.02663082629,-0.02716344222,2024-06-04 16:20:56.474571
15.51506099,-0.5997262001,0.3294233084,-0.6009245515,2024-06-04 16:20:56.515061
15.55556505,-0.9668321013,0.7785521746,-0.9733566642,2024-06-04 16:20:56.555565
15.59606172,-1.207841039,1.018229604,-1.315829039,2024-06-04 16:20:56.596062
15.63655307,-1.279478073,1.005180478,-1.581471562,2024-06-04 16:20:56.636553
15.67699125,-1.182275534,0.7700303197,-1.734066248,2024-06-04 16:20:56.676991
15.71749047,-1.087203503,0.4135767221,-1.686929703,2024-06-04 16:20:56.717490
15.75798922,-0.8858743906,-0.1396786869,-1.561498404,2024-06-04 16:20:56.757989
15.79847791,-0.7127740383,-0.2872134447,-1.269491434,2024-06-04 16:20:56.798478
15.83898567,-0.687874198,-0.071104303,-0.9645684958,2024-06-04 16:20:56.838986
15.87946661,-0.5821498632,-0.113447316,-0.5250267386,2024-06-04 16:20:56.879467
15.91997359,-0.1994648874,-0.2954690158,-0.103061296,2024-06-04 16:20:56.919974
15.96048942,0.09334104508,-0.2592510879,0.3432713449,2024-06-04 16:20:56.960489
16.00095015,0.2762948275,-0.2438052148,0.4932028949,2024-06-04 16:20:57.000950
16.04139489,0.3569862247,-0.1102516204,0.5058525205,2024-06-04 16:20:57.041395
16.08190187,0.5792204738,-0.1266295761,0.6477948427,2024-06-04 16:20:57.081902
16.12241307,0.6489931941,-0.2754958868,0.7556496859,2024-06-04 16:20:57.122413
16.16293052,0.7177007794,-0.01304910425,1.211968899,2024-06-04 16:20:57.162931
16.20339312,0.8756215572,-0.1679073572,1.487065315,2024-06-04 16:20:57.203393
16.24386666,1.103581429,-0.392937839,1.504907966,2024-06-04 16:20:57.243867
16.28432234,1.364430308,-0.9051817656,1.437798262,2024-06-04 16:20:57.284322
16.32485442,1.228879452,-0.8764204979,1.293459177,2024-06-04 16:20:57.324854
16.36536578,0.8250229955,-0.5926690102,1.413297892,2024-06-04 16:20:57.365366
16.40584994,0.5600462556,-0.3173062801,1.144859195,2024-06-04 16:20:57.405850
16.44630156,0.2067883611,-0.112115778,0.7178338766,2024-06-04 16:20:57.446302
16.48677203,-0.1336867511,0.01517957076,0.2527265251,2024-06-04 16:20:57.486772
16.52726729,-0.5659050345,0.451126188,-0.3868127465,2024-06-04 16:20:57.527267
16.56775958,-0.8882712126,0.7183665037,-0.9523183107,2024-06-04 16:20:57.567760
16.60833646,-1.160171866,0.7521876693,-1.250583529,2024-06-04 16:20:57.608336
16.64876255,-1.299184799,0.704518497,-1.569221377,2024-06-04 16:20:57.648763
16.68926817,-1.391726971,0.7002575397,-1.746316433,2024-06-04 16:20:57.689268
16.72976718,-1.46442914,0.4109136462,-1.64139092,2024-06-04 16:20:57.729767
16.77022364,-1.273352981,0.06471290439,-1.40464294,2024-06-04 16:20:57.770224
16.8107226,-1.051518202,-0.2438052148,-1.218093991,2024-06-04 16:20:57.810723
16.85121323,-0.8371400237,0.1057243794,-0.9669652581,2024-06-04 16:20:57.851213
16.89174,-0.7548507452,0.2234326303,-0.8692301512,2024-06-04 16:20:57.891740
16.93220567,-0.4572512805,0.2071878165,-0.4773575366,2024-06-04 16:20:57.932206
16.97268797,-0.3310211599,0.1358172148,-0.123167567,2024-06-04 16:20:57.972688
17.01320854,-0.028361829,0.1368824393,0.163513273,2024-06-04 16:20:58.013209
17.05362208,0.2456693649,0.001597849536,0.3818860352,2024-06-04 16:20:58.053622
17.09413375,0.4722976983,-0.04820179567,0.6019898057,2024-06-04 16:20:58.094134
17.1346301,0.5914706588,0.006657706574,0.6387403607,2024-06-04 16:20:58.134630
17.17514937,0.6364767551,-0.0705716908,0.4953333437,2024-06-04 16:20:58.175149
17.21562203,0.4714987576,-0.02636451647,0.3230319023,2024-06-04 16:20:58.215622
17.25611104,0.3316869438,-0.03595161438,0.1011971384,2024-06-04 16:20:58.256111
17.2965788,0.1047922969,0.1177082509,-0.1926740259,2024-06-04 16:20:58.296579
17.33705974,-0.08921326697,0.2559222281,-0.3932041526,2024-06-04 16:20:58.337060
17.37754843,-0.155790329,0.2410089672,-0.4773575366,2024-06-04 16:20:58.377548
17.41806291,-0.133154124,0.3059881926,-0.4424711764,2024-06-04 16:20:58.418063
17.45853974,-0.1038602218,0.1840189993,-0.3676385581,2024-06-04 16:20:58.458540
17.49902437,-0.1312899739,0.09480573982,-0.2792242169,2024-06-04 16:20:58.499024
17.53954859,-0.1110505462,-0.09453943372,-0.123167567,2024-06-04 16:20:58.539549
17.58000218,-0.02037258074,-0.02343512699,-0.006924014539,2024-06-04 16:20:58.580002
17.62051359,0.08268871158,-0.1158440933,0.1483336985,2024-06-04 16:20:58.620514
17.66098724,0.1244991124,-0.112115778,0.195203945,2024-06-04 16:20:58.660987
17.70150151,0.1093195379,-0.1806901544,0.2021279633,2024-06-04 16:20:58.701502
17.74196729,-0.000932078925,-0.2003969699,0.2434057444,2024-06-04 16:20:58.741967
17.78246698,-0.08641702682,-0.1543256342,0.2625799477,2024-06-04 16:20:58.782467
17.82294323,-0.1832200736,0.07856093347,0.2745638192,2024-06-04 16:20:58.822943
17.86346229,-0.1864157766,0.1451379955,0.07989247888,2024-06-04 16:20:58.863462
17.90392302,-0.116643019,0.1944050342,-0.09933298081,2024-06-04 16:20:58.903923
17.94441354,-0.06165036187,0.09666989744,-0.3002625704,2024-06-04 16:20:58.944414
17.98491213,-0.02356828004,0.1118494645,-0.4049217105,2024-06-04 16:20:58.984912
18.02544208,-0.09240896255,0.1555240154,-0.3836170435,2024-06-04 16:20:59.025442
18.06586916,-0.1267627329,0.1174419373,-0.21264714,2024-06-04 16:20:59.065869
18.10638838,-0.1438064575,0.05698996782,-0.02023942769,2024-06-04 16:20:59.106388
18.14687802,0.008122402243,-0.1242327988,0.1501978636,2024-06-04 16:20:59.146878
18.1873151,0.2906754613,-0.1918751001,0.2452699095,2024-06-04 16:20:59.187315
18.22781698,0.497064352,-0.2379464209,0.2335523367,2024-06-04 16:20:59.227817
18.26834359,0.5789541602,-0.1671084315,0.3858806491,2024-06-04 16:20:59.268344
18.30885661,0.6702978611,-0.09720251709,0.6448654532,2024-06-04 16:20:59.308857
18.34933791,0.7288857102,-0.1268958896,0.4713656008,2024-06-04 16:20:59.349338
18.38982192,1.064700365,0.1035939083,1.315030217,2024-06-04 16:20:59.389822
18.43030849,0.9760197401,-0.04394086078,1.402911901,2024-06-04 16:20:59.430308
18.47077515,0.8708279729,-0.2808220685,1.357373238,2024-06-04 16:20:59.470775
18.51127562,1.095325828,-0.4653736651,1.501179695,2024-06-04 16:20:59.511276
18.55177724,1.063901424,-0.6608439088,1.510234118,2024-06-04 16:20:59.551777
18.59225349,1.095592141,-0.7525871396,1.350981832,2024-06-04 16:20:59.592253
18.6327639,0.7174344659,-0.3372794092,0.9489894509,2024-06-04 16:20:59.632764
18.67325265,0.4206338823,-0.06977276504,0.5612446666,2024-06-04 16:20:59.673253
18.71374203,0.09174319357,0.07962616533,0.3387441039,2024-06-04 16:20:59.713742
18.75419828,-0.3158415854,0.2276935577,-0.01704372838,2024-06-04 16:20:59.754198
18.7946963,-0.6452649236,0.5607120395,-0.4816184938,2024-06-04 16:20:59.794696
18.83518619,-0.9063801765,0.9244890809,-1.014368176,2024-06-04 16:20:59.835186
18.87568505,-1.081344724,0.9662995338,-1.401447177,2024-06-04 16:20:59.875685
18.9161889,-1.169492722,0.95857656,-1.637928963,2024-06-04 16:20:59.916189
18.95665323,-1.091198087,0.7545844316,-1.722615004,2024-06-04 16:20:59.956653
18.99710364,-1.016898036,0.5234288573,-1.674945831,2024-06-04 16:20:59.997104
19.03758547,-0.8366073966,0.1187734827,-1.476546168,2024-06-04 16:21:00.037585
19.07811172,-0.7183665037,0.1222354919,-1.230077863,2024-06-04 16:21:00.078112
19.11860385,-0.6183677912,0.1062569916,-0.9539161921,2024-06-04 16:21:00.118604
19.15910198,-0.423430115,0.0758978501,-0.5495271087,2024-06-04 16:21:00.159102
19.19958046,-0.03768261895,-0.1062569916,-0.1157109365,2024-06-04 16:21:00.199580
19.24006619,0.270169735,-0.1418091506,0.2604494691,2024-06-04 16:21:00.240066
19.28054526,0.3830844164,-0.224897325,0.4034570158,2024-06-04 16:21:00.280545
19.32103958,0.4872109592,-0.08974587917,0.4271584451,2024-06-04 16:21:00.321040
19.36153396,0.6098458767,-0.09480573982,0.4535229504,2024-06-04 16:21:00.361534
19.40202979,0.7198312283,-0.05912043154,0.6342130899,2024-06-04 16:21:00.402030
19.44254505,0.8005226254,-0.0229025092,0.9692289233,2024-06-04 16:21:00.442545
19.48301937,0.8788172603,-0.01091863867,1.341394663,2024-06-04 16:21:00.483019
19.52350729,0.917165637,-0.3005288541,1.421819806,2024-06-04 16:21:00.523507
19.56399531,0.9738892913,-0.6073159575,1.50597322,2024-06-04 16:21:00.563995
19.60447515,1.083075643,-0.9885362387,1.551778197,2024-06-04 16:21:00.604475
19.64496286,1.072423339,-1.304111481,1.543256402,2024-06-04 16:21:00.644963
19.68545442,0.8822792768,-0.9904004335,1.09812212,2024-06-04 16:21:00.685454
19.72594479,0.5371437669,-0.4794880152,0.5447335243,2024-06-04 16:21:00.725945
19.76641672,-0.04460663348,0.0817566365,0.2308892608,2024-06-04 16:21:00.766417
19.80691,-0.5115781426,0.281221509,-0.1255643368,2024-06-04 16:21:00.806910
19.84738442,-0.8041177988,0.3960003853,-0.5071840882,2024-06-04 16:21:00.847384
19.88785739,-1.023023129,0.7529866099,-0.8902685046,2024-06-04 16:21:00.887857
19.92841166,-1.102649331,1.139266729,-1.323019385,2024-06-04 16:21:00.928412
19.96888698,-1.126617074,1.018495917,-1.492790937,2024-06-04 16:21:00.968887
20.00941765,-1.145524979,0.768432498,-1.495187759,2024-06-04 16:21:01.009418
20.04981682,-1.041931033,0.4058537781,-1.669885874,2024-06-04 16:21:01.049817
20.09035666,-0.9330109954,-0.005326164886,-1.531671882,2024-06-04 16:21:01.090357
20.13083427,-0.8733579516,0.1054580659,-1.227681041,2024-06-04 16:21:01.130834
20.17132651,-0.9513862729,0.3430050313,-0.929415822,2024-06-04 16:21:01.171327
20.2118189,-0.6916025281,0.000266308256,-0.5354127288,2024-06-04 16:21:01.211819
20.25230937,-0.426625818,-0.34846434,-0.1577876359,2024-06-04 16:21:01.252309
20.29277718,-0.1555240154,-0.1958697289,0.2972000241,2024-06-04 16:21:01.292777
20.33330531,0.1013302878,0.05778888986,0.5774894357,2024-06-04 16:21:01.333305
20.37376161,0.4011933804,0.1901440918,0.5777557492,2024-06-04 16:21:01.373762
20.414285,0.6436670423,0.2543243766,0.4742949903,2024-06-04 16:21:01.414285
20.45473422,0.8780183196,0.2170412242,0.7713618875,2024-06-04 16:21:01.454734
20.49523744,0.9800143838,0.09161003679,0.9188966155,2024-06-04 16:21:01.495237
20.53573442,1.08440721,0.3981308341,1.224751711,2024-06-04 16:21:01.535734
20.57622364,1.055113316,-0.03169068322,1.472950935,2024-06-04 16:21:01.576224
20.6167202,1.040732622,-0.2264951766,1.605838776,2024-06-04 16:21:01.616720
20.65720937,0.9307473302,-0.6597787142,1.492924094,2024-06-04 16:21:01.657209
20.69769901,0.8788172603,-0.9070459008,1.421287179,2024-06-04 16:21:01.697699
20.7381789,0.767234087,-0.9776176214,1.136070967,2024-06-04 16:21:01.738179
20.77867875,0.5358121991,-0.5963973403,0.6339467764,2024-06-04 16:21:01.778679
20.81916093,0.2896102369,-0.3316869438,0.340608269,2024-06-04 16:21:01.819161
20.85967854,-0.06351451576,0.08095771074,-0.2131797522,2024-06-04 16:21:01.859679
20.90012198,-0.4420717061,0.5348801613,-0.8356752992,2024-06-04 16:21:01.900122
20.94062718,-0.6457974911,0.762839973,-1.198120832,2024-06-04 16:21:01.940627
20.98109218,-0.7367417812,0.5604457259,-1.444589138,2024-06-04 16:21:01.981092
21.02157422,-0.7876066566,0.4761591554,-1.66669023,2024-06-04 16:21:02.021574
21.06206583,-0.8006557822,0.2977326214,-1.79877913,2024-06-04 16:21:02.062066
21.10255739,-0.9623048902,0.1342193633,-1.73273468,2024-06-04 16:21:02.102557
21.14304625,-0.9167661667,-0.04500609636,-1.449116349,2024-06-04 16:21:02.143046
21.18356494,-0.9806801677,-0.2432725877,-1.235137701,2024-06-04 16:21:02.183565
21.22406281,-0.9569787383,-0.1516625583,-1.033276081,2024-06-04 16:21:02.224063
21.26451953,-0.7639052272,-0.1700378209,-0.5271571875,2024-06-04 16:21:02.264520
21.30497922,-0.414375633,-0.2259625494,0.0490007177,2024-06-04 16:21:02.304979
21.34546802,0.0006657706108,-0.2190385461,0.3770924807,2024-06-04 16:21:02.345468
21.3860177,0.3122464418,-0.1753639877,0.4484631121,2024-06-04 16:21:02.386018
21.42650651,0.4861457348,-0.2629793882,0.3672390878,2024-06-04 16:21:02.426507
21.46699536,0.5430025458,-0.4134435654,0.5207657814,2024-06-04 16:21:02.466995
21.50743984,0.4967980385,-0.3242303133,0.8238245845,2024-06-04 16:21:02.507440
21.54793896,0.509314537,-0.1078548431,1.185071707,2024-06-04 16:21:02.547939
21.58843703,0.511977613,0.1041265279,1.549914002,2024-06-04 16:21:02.588437
21.62895026,0.6170362234,-0.01091863867,1.621550918,2024-06-04 16:21:02.628950
21.66944307,0.7387390733,-0.2888112962,1.619953156,2024-06-04 16:21:02.669443
21.70992119,0.9603075981,-0.646463275,1.491326213,2024-06-04 16:21:02.709921
21.75041161,0.9480574131,-1.018096447,1.405574918,2024-06-04 16:21:02.750412
21.79088474,0.7411358953,-0.8564473391,1.235936642,2024-06-04 16:21:02.790885
21.83137463,0.4792217016,-0.5665708184,0.9575113058,2024-06-04 16:21:02.831375
21.87187521,0.07709623873,0.03382114694,0.4042559266,2024-06-04 16:21:02.871875
21.91237343,-0.3826849759,0.3296896219,-0.3013277948,2024-06-04 16:21:02.912373
21.95283984,-0.768432498,0.7641715407,-0.8567136526,2024-06-04 16:21:02.952840
21.99333901,-0.9154346585,0.9199618697,-1.146989703,2024-06-04 16:21:02.993339
22.03381182,-1.065366149,1.146989703,-1.416360497,2024-06-04 16:21:03.033812
22.07430156,-0.9764192104,1.342459917,-1.684266567,2024-06-04 16:21:03.074302
22.11480869,-0.8520532846,1.124087095,-1.755903482,2024-06-04 16:21:03.114809
22.15531255,-0.684412241,0.3203688264,-1.703973413,2024-06-04 16:21:03.155313
22.19579791,-0.4444684684,-0.5567173958,-1.593455434,2024-06-04 16:21:03.195798
22.23627916,-0.4199681282,-0.3279586136,-1.375082731,2024-06-04 16:21:03.236279
22.27674614,-0.4442021847,0.04314193875,-1.036471725,2024-06-04 16:21:03.276746
22.31721302,-0.3533910513,-0.0599193573,-0.4416722357,2024-06-04 16:21:03.317213
22.35770619,-0.2002638131,-0.2691044807,0.04181039706,2024-06-04 16:21:03.357706
22.39819604,-0.02596505545,-0.2983984053,0.3906742036,2024-06-04 16:21:03.398196
22.43872578,0.1972012669,-0.07962616533,0.5894733071,2024-06-04 16:21:03.438726
22.47921718,0.333551079,0.0074566314,0.5713643432,2024-06-04 16:21:03.479217
22.51968218,0.5944000483,0.01784265228,0.656050384,2024-06-04 16:21:03.519682
22.56017911,0.8165011406,-0.1213034093,0.7314156294,2024-06-04 16:21:03.560179
22.60067312,0.8649691939,-0.03568530455,1.041398406,2024-06-04 16:21:03.600673
22.64115776,0.8457950354,-0.02183727734,1.482804418,2024-06-04 16:21:03.641158
22.68164427,0.8271534443,-0.07509893179,1.48892951,2024-06-04 16:21:03.681644
22.72215599,1.091331244,-0.5697665215,1.363764524,2024-06-04 16:21:03.722156
22.76262906,1.272820354,-1.195191503,1.462032318,2024-06-04 16:21:03.762629
22.80311401,0.7286193967,-0.5876091719,1.218626618,2024-06-04 16:21:03.803114
22.84358833,0.4789553881,-0.4563191831,1.013436079,2024-06-04 16:21:03.843588
22.88408307,0.208119899,-0.3524589837,0.7018554211,2024-06-04 16:21:03.884083
22.92461177,-0.04220985994,-0.003462007269,0.3171731234,2024-06-04 16:21:03.924612
22.96508078,-0.3789566457,0.1254311949,-0.3588503897,2024-06-04 16:21:03.965081
23.00554922,-0.6625749469,0.5319507122,-0.9344756603,2024-06-04 16:21:04.005549
23.04603744,-0.8456618786,0.6818822622,-1.151783228,2024-06-04 16:21:04.046037
23.08651526,-0.9556471705,0.7678998709,-1.453377366,2024-06-04 16:21:04.086515
23.12699906,-0.8962604403,0.817699492,-1.702641845,2024-06-04 16:21:04.126999
23.16749458,-0.8864070177,0.6573819518,-1.789990902,2024-06-04 16:21:04.167495
23.20799229,-0.8469933867,0.02556559257,-1.557237506,2024-06-04 16:21:04.207992
23.24849156,-0.8477923274,-0.2621804774,-1.305176735,2024-06-04 16:21:04.248492
23.2889601,-0.8366073966,-0.2592510879,-1.110239148,2024-06-04 16:21:04.288960
23.32945661,-0.8121070266,-0.2581858635,-0.7496577501,2024-06-04 16:21:04.329457
23.36994854,-0.6066502333,-0.3079854846,-0.3213009238,2024-06-04 16:21:04.369949
23.41043562,-0.2761616707,-0.3862801194,0.1507304758,2024-06-04 16:21:04.410436
23.45092156,0.006258244161,-0.2515281439,0.3983971477,2024-06-04 16:21:04.450922
23.49142453,0.2685718834,-0.1247654185,0.5018579364,2024-06-04 16:21:04.491425
23.53191573,0.5047873259,-0.1822880059,0.5452661514,2024-06-04 16:21:04.531916
23.5724376,0.6258243918,-0.1836195439,0.6834801435,2024-06-04 16:21:04.572438
23.61288135,0.7832126021,0.1219691783,0.9247553945,2024-06-04 16:21:04.612881
23.65338,0.7291520238,0.1366161406,1.06323576,2024-06-04 16:21:04.653380
23.69387323,0.8095771074,0.1709699035,1.294790745,2024-06-04 16:21:04.693873
23.73435078,0.779484272,0.1539261788,1.336334825,2024-06-04 16:21:04.734351
23.77485916,0.825289309,-0.3436708152,1.476945639,2024-06-04 16:21:04.774859
23.81533713,0.9784165621,-1.007710457,1.640458822,2024-06-04 16:21:04.815337
23.85582823,0.9440627694,-1.309437752,1.436733007,2024-06-04 16:21:04.855828
23.89631781,0.7816147208,-1.064700365,1.173354149,2024-06-04 16:21:04.896318
23.93680734,0.4477973282,-0.4696346223,0.6890726089,2024-06-04 16:21:04.936807
23.97729692,-0.01877473295,0.05272903293,0.05565842614,2024-06-04 16:21:04.977297
24.01773984,-0.4966649115,0.5508586168,-0.5820167065,2024-06-04 16:21:05.017740
24.05822937,-0.9476579428,0.7492582798,-1.025553107,2024-06-04 16:21:05.058229
24.09875,-1.192927837,0.8997224569,-1.31449759,2024-06-04 16:21:05.098750
24.13926833,-1.225417495,0.8730916381,-1.551911354,2024-06-04 16:21:05.139268
24.1797313,-1.163633943,0.7897371054,-1.78466475,2024-06-04 16:21:05.179731
24.22025531,-1.125818133,0.2167749256,-1.820616364,2024-06-04 16:21:05.220255
24.26070968,-1.163633943,-0.1014634445,-1.46030128,2024-06-04 16:21:05.260710
24.30118625,-1.10105145,-0.1011971384,-1.259904385,2024-06-04 16:21:05.301186
24.34174437,-0.9702941179,0.02050573565,-1.033009768,2024-06-04 16:21:05.341744
24.3821814,-0.7228937745,0.07749570161,-0.6621754766,2024-06-04 16:21:05.382181
24.42267083,-0.3275591433,-0.2059894353,-0.06125089899,2024-06-04 16:21:05.422671
24.4631676,0.1529940963,-0.3271597028,0.6563166976,2024-06-04 16:21:05.463168
24.5036426,0.2936048508,-0.5812177658,0.8216941357,2024-06-04 16:21:05.503643
24.54414677,0.2707023323,-0.256588012,0.3294233084,2024-06-04 16:21:05.544147
24.58464307,0.3489969671,-0.1516625583,0.2434057444,2024-06-04 16:21:05.584643
24.62512505,0.5154396296,-0.1966686398,0.5766905546,2024-06-04 16:21:05.625125
24.66560734,0.5272903442,-0.07696308941,0.8983908892,2024-06-04 16:21:05.665607
24.70611562,0.5813509226,0.03222329915,1.05657804,2024-06-04 16:21:05.706116
24.74654796,0.682015419,0.1451379955,1.319024801,2024-06-04 16:21:05.746548
24.7870401,0.8844097257,-0.2251636237,1.587197185,2024-06-04 16:21:05.787040
24.82755432,1.168161154,-0.5476629138,1.837127447,2024-06-04 16:21:05.827554
24.86806036,1.166829586,-0.9065132737,1.647649169,2024-06-04 16:21:05.868060
24.90855713,1.066830873,-1.038335919,1.220757008,2024-06-04 16:21:05.908557
24.94904416,0.6516563296,-0.656050384,0.8736242056,2024-06-04 16:21:05.949044
24.98954088,-0.006258244161,-0.06444659829,0.2719007432,2024-06-04 16:21:05.989541
25.02999161,-0.4292888939,0.1637795717,-0.238479048,2024-06-04 16:21:06.029992
25.07048718,-0.6978607774,0.4247616827,-0.7182333469,2024-06-04 16:21:06.070487
25.11097823,-0.9561797976,0.7255568504,-1.116630554,2024-06-04 16:21:06.110978
25.15148083,-1.123155117,0.9292826653,-1.436599851,2024-06-04 16:21:06.151481
25.19195536,-1.144726038,0.9524514675,-1.551378727,2024-06-04 16:21:06.191955
25.23244994,-1.071491241,0.7780195475,-1.701576591,2024-06-04 16:21:06.232450
25.27295869,-0.9098421335,0.4191691875,-1.681337118,2024-06-04 16:21:06.272959
25.31343526,-0.7902697325,0.01571218669,-1.427811742,2024-06-04 16:21:06.313435
25.3539177,-0.7641715407,0.1083874628,-1.252980351,2024-06-04 16:21:06.353918
25.39442526,-0.8238245845,0.08868064731,-0.9131709933,2024-06-04 16:21:06.394425
25.43490796,-0.635944128,-0.006657706574,-0.3489969671,2024-06-04 16:21:06.434908
25.47539494,-0.3400756419,-0.5186353326,0.06471290439,2024-06-04 16:21:06.475395
25.5158888,0.0573894307,-0.3063876629,0.3525921404,2024-06-04 16:21:06.515889
25.55636698,0.3010614812,0.208785668,0.5961310267,2024-06-04 16:21:06.556367
25.59683416,0.4882761836,0.1659100503,0.5428693891,2024-06-04 16:21:06.596834
25.63731661,0.6551182866,0.1459369212,0.6834801435,2024-06-04 16:21:06.637317
25.67782015,0.6457974911,0.1235670298,0.8517869711,2024-06-04 16:21:06.677820
25.71833833,0.7682993412,0.3906742036,1.10850811,2024-06-04 16:21:06.718338
25.75880869,0.9304810166,0.1898777932,1.356307983,2024-06-04 16:21:06.758809
25.79928432,1.120625138,0.07696308941,1.568555593,2024-06-04 16:21:06.799284
25.83976906,1.148720622,-0.4262263775,1.626877189,2024-06-04 16:21:06.839769
25.88027323,1.269624591,-0.806647718,1.339264274,2024-06-04 16:21:06.880273
25.92078218,1.350582361,-1.458969831,1.095991611,2024-06-04 16:21:06.920782
25.96127119,1.030080318,-1.273752332,0.7881392837,2024-06-04 16:21:06.961271
26.00173604,0.556584239,-0.4038564563,0.3834838867,2024-06-04 16:21:07.001736
26.04221468,0.0126496423,0.1840189993,-0.01757634431,2024-06-04 16:21:07.042215
26.08272588,-0.476958096,0.5785546899,-0.4800206423,2024-06-04 16:21:07.082726
26.12321651,-0.8491238952,0.769231379,-0.8684312105,2024-06-04 16:21:07.123217
26.16371276,-1.004647851,0.8712274432,-1.180278182,2024-06-04 16:21:07.163713
26.20421859,-1.065366149,1.034474373,-1.397452593,2024-06-04 16:21:07.204219
26.24470463,-1.042996287,1.049387693,-1.59025979,2024-06-04 16:21:07.244705
26.28512411,-0.9135704637,0.994794488,-1.687728524,2024-06-04 16:21:07.285124
26.3256575,-0.7433995008,0.4111799598,-1.649113894,2024-06-04 16:21:07.325657
26.36616812,-0.638607204,0.07456631213,-1.493856192,2024-06-04 16:21:07.366168
26.40665718,-0.4468652606,0.05725627393,-1.201582909,2024-06-04 16:21:07.406657
26.44712531,-0.4577838778,0.07935985923,-0.8308817744,2024-06-04 16:21:07.447125
26.48759656,-0.278025806,-0.2760285139,-0.2699034214,2024-06-04 16:21:07.487597
26.52810052,-0.06378082931,-0.3745625615,0.1342193633,2024-06-04 16:21:07.528101
26.56860724,0.08135717362,-0.146070078,0.3587172329,2024-06-04 16:21:07.568607
26.60907927,0.1761629134,-0.00186415785,0.4689688385,2024-06-04 16:21:07.609079
26.64955552,0.388410598,0.09027849883,0.5780220628,2024-06-04 16:21:07.649556
26.6900564,0.429155767,0.07962616533,0.6264901757,2024-06-04 16:21:07.690056
26.73053302,0.6801512837,0.3033251166,0.8973256946,2024-06-04 16:21:07.730533
26.77108797,0.7872071862,0.05725627393,1.092529655,2024-06-04 16:21:07.771088
26.81150849,0.9627043605,0.2055899799,1.24845314,2024-06-04 16:21:07.811508
26.85198672,0.8497896194,-0.1482005417,1.276948094,2024-06-04 16:21:07.851987
26.89251849,0.9914656281,-0.6025224328,1.514495015,2024-06-04 16:21:07.892518
26.9330263,1.044993639,-1.025819421,1.376281023,2024-06-04 16:21:07.933026
26.97347828,1.039667487,-1.186403275,1.04912138,2024-06-04 16:21:07.973478
27.01395885,0.8670997024,-0.8953283429,0.7892045379,2024-06-04 16:21:08.013959
27.05445698,0.4475310147,-0.4270252883,0.5122439265,2024-06-04 16:21:08.054457
27.09494359,0.07523208112,-0.1772281379,0.06790860742,2024-06-04 16:21:08.094944
27.13544942,-0.3395430148,0.1773612946,-0.4808195531,2024-06-04 16:21:08.135449
27.1759126,-0.7106435895,0.5809514523,-0.8585777879,2024-06-04 16:21:08.175913
27.21640192,-1.169492722,0.967631042,-1.268958807,2024-06-04 16:21:08.216402
27.25689781,-1.350981832,1.083741426,-1.566558361,2024-06-04 16:21:08.256898
27.29735172,-1.321954131,1.119826198,-1.701043963,2024-06-04 16:21:08.297352
27.33790073,-1.146057606,0.6190335155,-1.686130762,2024-06-04 16:21:08.337901
27.37835354,-1.03953433,0.0005326165119,-1.480807066,2024-06-04 16:21:08.378354
27.41886786,-0.7612421513,-0.06231613085,-1.266029477,2024-06-04 16:21:08.418868
27.45933984,-0.6378082633,0.04181039706,-1.156843066,2024-06-04 16:21:08.459340
27.49982854,-0.5025236607,0.01358172111,-0.6834801435,2024-06-04 16:21:08.499829
27.54031276,-0.2737648785,-0.09001219273,-0.2515281439,2024-06-04 16:21:08.540313
27.58080172,-0.03368799388,-0.2280930281,0.1515294015,2024-06-04 16:21:08.580802
27.6212951,0.2368811965,-0.3029256463,0.323830843,2024-06-04 16:21:08.621295
27.66177859,0.4829500318,-0.1806901544,0.5143743753,2024-06-04 16:21:08.661779
27.70227656,0.6644390821,0.052196417,0.5122439265,2024-06-04 16:21:08.702277
27.74275416,0.8513875008,0.1723014414,0.7159697413,2024-06-04 16:21:08.742754
27.78324364,0.8963935971,0.09374050796,0.7697640061,2024-06-04 16:21:08.783244
27.82373265,1.10517931,0.6824148893,1.09066546,2024-06-04 16:21:08.823733
27.86421177,1.127549171,0.1523283273,1.481739163,2024-06-04 16:21:08.864212
27.90474552,1.186003804,0.2644441128,1.55870223,2024-06-04 16:21:08.904746
27.94520224,1.195590973,-0.4107804894,1.570153475,2024-06-04 16:21:08.945202
27.98569375,1.239265442,-0.9717588425,1.482804418,2024-06-04 16:21:08.985694
28.02618802,1.085472465,-0.7419347763,1.064567208,2024-06-04 16:21:09.026188
28.06667703,0.6503247619,-0.2794905007,0.4372781515,2024-06-04 16:21:09.066677
28.10715546,0.2057231218,0.06950645149,-0.0114512546,2024-06-04 16:21:09.107155
28.14763682,-0.2820204496,0.270835489,-0.6576482654,2024-06-04 16:21:09.147637
28.18814291,-0.5374100804,0.3571193814,-1.0591079,2024-06-04 16:21:09.188143
28.22862021,-0.7260894775,0.6877411008,-1.33859849,2024-06-04 16:21:09.228620
28.26912468,-0.8350095153,0.8038514853,-1.574813843,2024-06-04 16:21:09.269125
28.30960031,-0.829949677,0.8781514764,-1.893318534,2024-06-04 16:21:09.309600
28.35010323,-0.6908035874,0.8975919485,-1.883465171,2024-06-04 16:21:09.350103
28.3906076,-0.6897383928,0.4023917615,-1.487731099,2024-06-04 16:21:09.390608
28.43108442,-0.540872097,0.1888125539,-1.479209185,2024-06-04 16:21:09.431084
28.47158984,-0.3973319232,0.08308817446,-0.9818785191,2024-06-04 16:21:09.471590
28.51204677,-0.2002638131,0.08495233208,-0.3713668585,2024-06-04 16:21:09.512047
28.55253932,-0.0512643382,-0.6448654532,-0.2174406946,2024-06-04 16:21:09.552539
28.593035,0.1191729456,-0.3649754524,0.1294258088,2024-06-04 16:21:09.593035
28.63353619,0.2067883611,-0.3487306535,0.311580658,2024-06-04 16:21:09.633536
28.67403031,0.2691044807,-0.3559209704,0.270835489,2024-06-04 16:21:09.674030
28.71449854,0.3644428551,0.03861469775,0.4908061028,2024-06-04 16:21:09.714499
28.7549977,0.4746944606,-0.3354152441,0.6272891164,2024-06-04 16:21:09.754998
28.79550343,0.6149057746,-0.2240983993,0.9718919992,2024-06-04 16:21:09.795503
28.83598218,0.7608426809,-0.168706283,1.470021605,2024-06-04 16:21:09.835982
28.87645963,0.7083799839,-0.2882786989,1.703041315,2024-06-04 16:21:09.876460
28.91694015,0.7667014599,-0.55778265,1.598115802,2024-06-04 16:21:09.916940
28.95740911,0.8354089856,-1.16003871,1.342726231,2024-06-04 16:21:09.957409
28.99792838,0.8037183285,-1.361234665,1.292393923,2024-06-04 16:21:09.997928
29.03839916,0.5962641835,-1.160305023,1.122489333,2024-06-04 16:21:10.038399
29.07891057,0.2744306624,-0.4408733249,0.7157034278,2024-06-04 16:21:10.078911
29.11941442,-0.04460663348,0.03275591508,0.3030588031,2024-06-04 16:21:10.119414
29.15990119,-0.3443365693,0.1419423074,-0.149265781,2024-06-04 16:21:10.159901
29.20039114,-0.6609770656,0.5567173958,-0.7848104239,2024-06-04 16:21:10.200391
29.24086984,-0.8874722719,0.9090432525,-1.171756268,2024-06-04 16:21:10.240870
29.28133078,-1.056844354,1.098388433,-1.461899161,2024-06-04 16:21:10.281331
29.32182942,-1.095458984,1.18906641,-1.644586682,2024-06-04 16:21:10.321829
29.36232291,-0.9724246264,1.018229604,-1.72527802,2024-06-04 16:21:10.362323
29.4028251,-0.8954614997,0.4774906933,-1.813159704,2024-06-04 16:21:10.402825
29.44330661,-0.8187647462,0.1896114796,-1.462431788,2024-06-04 16:21:10.443307
29.48379656,-0.7652367949,-0.2214353085,-1.161636591,2024-06-04 16:21:10.483797
29.5242876,-0.6782871485,-0.0490007177,-0.7216953635,2024-06-04 16:21:10.524288
29.56478698,-0.441539079,-0.2110492885,-0.2866808474,2024-06-04 16:21:10.564787
29.60527442,-0.03661738336,-0.1282274276,0.1014634445,2024-06-04 16:21:10.605274
29.64574849,0.1378145218,-0.3045234978,0.3896089792,2024-06-04 16:21:10.645748
29.68623218,0.3489969671,-0.02929390781,0.5985277891,2024-06-04 16:21:10.686232
29.72672156,0.4981296062,0.08601756394,0.5724295974,2024-06-04 16:21:10.726722
29.76719359,0.5432688594,-0.1527277827,0.6256912351,2024-06-04 16:21:10.767194
29.80767416,0.7659025192,-0.05725627393,1.027550459,2024-06-04 16:21:10.807674
29.84821349,0.8071803451,0.05912043154,1.271621943,2024-06-04 16:21:10.848213
29.88868635,0.7288857102,0.02556559257,1.490260959,2024-06-04 16:21:10.888686
29.92916557,0.800788939,-0.3505948186,1.671350598,2024-06-04 16:21:10.929166
29.96967281,0.8953283429,-0.8276860714,1.521152735,2024-06-04 16:21:10.969673
30.01015135,1.027150989,-1.411034346,1.354710102,2024-06-04 16:21:11.010151
30.05060817,1.037270665,-1.649646521,1.097589493,2024-06-04 16:21:11.050608
30.09114416,0.6095796227,-0.7015891075,0.7426005602,2024-06-04 16:21:11.091144
30.13164411,0.03422060981,0.2247641683,0.2252967805,2024-06-04 16:21:11.131644
30.17212776,-0.3829512596,0.6989260316,-0.3220998347,2024-06-04 16:21:11.172128
30.21258854,-0.6537867785,0.8893364072,-0.8431319594,2024-06-04 16:21:11.212589
30.25312838,-0.8485912681,0.9793485999,-1.238067031,2024-06-04 16:21:11.253128
30.29357031,-0.9215596914,1.078148961,-1.517823935,2024-06-04 16:21:11.293570
30.33407646,-0.8736242056,1.101983547,-1.665092349,2024-06-04 16:21:11.334076
30.37455448,-0.7407364249,0.9298152924,-1.802773714,2024-06-04 16:21:11.374554
30.41505474,-0.6423355341,0.1845516264,-1.843785167,2024-06-04 16:21:11.415055
30.45553791,-0.6607108116,-0.1521951705,-1.552177668,2024-06-04 16:21:11.455538
30.49602953,-0.6226286888,-0.1857500076,-1.160571337,2024-06-04 16:21:11.496030
30.53651875,-0.5832150578,-0.1814890802,-0.7991910577,2024-06-04 16:21:11.536519
30.57698406,-0.3073197305,-0.3434045017,-0.2983984053,2024-06-04 16:21:11.576984
30.6174889,0.0467370972,-0.2933385372,0.2572537661,2024-06-04 16:21:11.617489
30.65796994,0.2118482143,-0.386546433,0.3936035931,2024-06-04 16:21:11.657970
30.69846896,0.3505948186,-0.02822867595,0.5143743753,2024-06-04 16:21:11.698469
30.73896422,0.4704335332,-0.1945381761,0.6994586587,2024-06-04 16:21:11.738964
30.77945093,0.6529878378,-0.1396786869,0.8238245845,2024-06-04 16:21:11.779451
30.81993994,0.6170362234,-0.07696308941,1.144060254,2024-06-04 16:21:11.819940
30.86043015,0.6138405204,0.05059856921,1.47401619,2024-06-04 16:21:11.860430
30.90094974,0.6724283695,-0.1215697154,1.581604719,2024-06-04 16:21:11.900950
30.94140849,0.7299509048,-0.3886769116,1.556571722,2024-06-04 16:21:11.941408
30.98189599,0.8764204979,-0.852452755,1.525679946,2024-06-04 16:21:11.981896
31.02237823,1.001052737,-1.164299726,1.308372498,2024-06-04 16:21:12.022378
31.06283078,0.8037183285,-1.008243084,0.9079779983,2024-06-04 16:21:12.062831
31.10337432,0.2459356785,-0.160983339,0.486012578,2024-06-04 16:21:12.103374
31.1438575,-0.1651111245,0.1235670298,0.03648423031,2024-06-04 16:21:12.143857
31.18437078,-0.4777570069,0.4495283365,-0.6027887464,2024-06-04 16:21:12.184371
31.22481786,-0.7231600881,0.7236927152,-1.138467789,2024-06-04 16:21:12.224818
31.2653413,-0.955380857,1.063502073,-1.446719646,2024-06-04 16:21:12.265341
31.30579682,-0.9923977256,1.130478501,-1.601711035,2024-06-04 16:21:12.305797
31.34634052,-0.979881227,0.9529840946,-1.812360883,2024-06-04 16:21:12.346341
31.38678703,-0.906113863,0.8406019807,-2.018350363,2024-06-04 16:21:12.386787
31.42724291,-0.8869396448,0.1960028708,-1.86109519,2024-06-04 16:21:12.427243
31.46775599,-0.7982590199,-0.02023942769,-1.587064028,2024-06-04 16:21:12.467756
31.50826151,-0.7021217346,0.04473978654,-0.9533835649,2024-06-04 16:21:12.508262
31.54875192,-0.3592498302,-0.1836195439,-0.1966686398,2024-06-04 16:21:12.548752
31.58923104,-0.04141093418,-0.3772256374,0.3840165138,2024-06-04 16:21:12.589231
31.62971687,0.151928857,-0.2629793882,0.6153052449,2024-06-04 16:21:12.629717
31.67022994,0.2240983993,-0.1862826198,0.4942681193,2024-06-04 16:21:12.670230
31.71069854,0.4475310147,-0.1900109351,0.4239627421,2024-06-04 16:21:12.710699
31.75118474,0.6620423198,-0.01198387146,0.6659038067,2024-06-04 16:21:12.751185
31.79167349,0.7773538232,0.006391398143,1.161902905,2024-06-04 16:21:12.791673
31.83216521,0.7967942953,0.0708379969,1.294258118,2024-06-04 16:21:12.832165
31.87266349,0.8399362564,-0.2201037705,1.376014709,2024-06-04 16:21:12.872663
31.91317307,0.9896014929,-0.7275541425,1.581604719,2024-06-04 16:21:12.913173
31.95367265,1.013835549,-0.7286193967,1.622349858,2024-06-04 16:21:12.953673
31.99413031,0.9408670664,-1.082276702,1.60024631,2024-06-04 16:21:12.994130
32.03460463,0.8021204472,-1.050319791,1.263366342,2024-06-04 16:21:13.034605
32.07509682,0.3551220596,-0.4967980385,0.8014547229,2024-06-04 16:21:13.075097
32.11560562,-0.1595186442,0.1973344237,0.2782921195,2024-06-04 16:21:13.115606
32.15611828,-0.546730876,0.6802844405,-0.378823489,2024-06-04 16:21:13.156118
32.19659099,-0.7306166887,0.875754714,-0.8846760392,2024-06-04 16:21:13.196591
32.23706562,-0.9042496681,0.9897346497,-1.340462565,2024-06-04 16:21:13.237066
32.27754114,-0.9319457412,1.007044673,-1.618222117,2024-06-04 16:21:13.277541
32.31803505,-0.7527202964,1.040333152,-1.874676943,2024-06-04 16:21:13.318035
32.35853276,-0.7497909069,0.6264901757,-2.015953541,2024-06-04 16:21:13.358533
32.39905198,-0.826753974,0.2130466104,-1.970681071,2024-06-04 16:21:13.399052
32.43951703,-0.7159697413,-0.108920075,-1.493323565,2024-06-04 16:21:13.439517
32.47999432,-0.663107574,-0.02450035885,-1.121690392,2024-06-04 16:21:13.479994
32.52049036,-0.5200999975,-0.06551183015,-0.5852124095,2024-06-04 16:21:13.520490
32.56098125,-0.1459369212,-0.0817566365,-0.1038602218,2024-06-04 16:21:13.560981
32.6014725,0.133819893,-0.05379426852,0.2905423045,2024-06-04 16:21:13.601472
32.64195354,0.2419410497,-0.01225017942,0.548728168,2024-06-04 16:21:13.641954
32.68245729,0.4280905128,-0.09640359133,0.6360772848,2024-06-04 16:21:13.682457
32.72295599,0.6170362234,0.01784265228,0.6975944638,2024-06-04 16:21:13.722956
32.76344708,0.7105104327,0.1110505462,1.026485205,2024-06-04 16:21:13.763447
32.80393734,0.818897903,0.2213021666,1.255643368,2024-06-04 16:21:13.803937
32.84439781,0.8439308405,-0.02343512699,1.472418308,2024-06-04 16:21:13.844398
32.88489177,1.003715873,-0.5346138477,1.499049187,2024-06-04 16:21:13.884892
32.92538927,1.157242537,-0.8945294023,1.465494275,2024-06-04 16:21:13.925389
32.96587797,1.112369537,-1.220490694,1.528076768,2024-06-04 16:21:13.965878
33.00636734,0.8857412338,-1.102782488,1.333139181,2024-06-04 16:21:14.006367
33.04683692,0.6210308671,-0.7196980715,0.8840102553,2024-06-04 16:21:14.046837
33.0873176,0.2675066292,-0.2813546658,0.3336842358,2024-06-04 16:21:14.087318
33.1278101,-0.1749645174,0.2545906901,-0.3005288541,2024-06-04 16:21:14.127810
33.16829984,-0.4766917825,0.5745600462,-0.8969262242,2024-06-04 16:21:14.168300
33.20880031,-0.7402037978,0.8203625679,-1.329277635,2024-06-04 16:21:14.208800
33.24932463,-0.9926640391,0.8925321102,-1.597450018,2024-06-04 16:21:14.249325
33.28974724,-1.060039997,0.7934654355,-1.732468367,2024-06-04 16:21:14.289747
33.33032484,-1.05657804,0.6355446577,-1.904769778,2024-06-04 16:21:14.330325
33.37077411,-1.057376981,0.2969337106,-1.977072477,2024-06-04 16:21:14.370774
33.41124849,-1.033675551,-0.04713656008,-1.534867644,2024-06-04 16:21:14.411248
33.45173718,-1.004381537,-0.08655018359,-1.131810069,2024-06-04 16:21:14.451737
33.49223416,-0.8685643673,-0.09347419441,-0.7015891075,2024-06-04 16:21:14.492234
33.53274385,-0.535279572,-0.2784252763,-0.1817553788,2024-06-04 16:21:14.532744
33.57323276,-0.06884068251,-0.2781589627,0.4194355011,2024-06-04 16:21:14.573233
33.61369791,0.2794905007,-0.09613727778,0.9537830353,2024-06-04 16:21:14.613698
33.65419057,0.531817615,0.01757634431,0.9761528969,2024-06-04 16:21:14.654191
33.69468646,0.5818835497,-0.0705716908,0.5175700784,2024-06-04 16:21:14.694686
33.73519317,0.7256900072,0.103061296,0.4852136374,2024-06-04 16:21:14.735193
33.77564932,0.8724258542,0.3629781604,1.049654007,2024-06-04 16:21:14.775649
33.8161388,0.8180989623,0.2644441128,1.645252347,2024-06-04 16:21:14.816139
33.85663401,0.9411333799,-0.1977338791,1.707035899,2024-06-04 16:21:14.856634
33.89712349,1.199851871,-0.8495233655,1.663627625,2024-06-04 16:21:14.897123
33.93761296,1.166296959,-1.270024061,1.683068156,2024-06-04 16:21:14.937613
33.97808974,0.8479254842,-1.062836289,1.338731647,2024-06-04 16:21:14.978090
34.01861359,0.4414059222,-0.4451342523,0.881613493,2024-06-04 16:21:15.018614
34.05904396,0.06271559745,-0.03355484083,0.2548570037,2024-06-04 16:21:15.059044
34.09958672,-0.287612915,0.3201025128,-0.3362141848,2024-06-04 16:21:15.099587
34.14007416,-0.4777570069,0.6054518223,-0.9387366176,2024-06-04 16:21:15.140074
34.18057474,-0.6814828515,0.8461945057,-1.327946067,2024-06-04 16:21:15.180575
34.22103807,-0.8541837335,1.002783775,-1.694386244,2024-06-04 16:21:15.221038
34.26153328,-0.8326127529,0.8888037801,-1.844850421,2024-06-04 16:21:15.261533
34.30199739,-0.8105092049,0.7287525535,-1.983996511,2024-06-04 16:21:15.301997
34.34250187,-0.8131722808,0.06338136643,-1.849377632,2024-06-04 16:21:15.342502
34.38301703,-0.7551170588,-0.2675066292,-1.549514532,2024-06-04 16:21:15.383017
34.42349172,-0.7737586498,-0.01571218669,-1.147256017,2024-06-04 16:21:15.423492
34.46397838,-0.6886731386,-0.1194392517,-0.7039858699,2024-06-04 16:21:15.463978
34.50447869,-0.3730978668,-0.4153077304,-0.1402112991,2024-06-04 16:21:15.504479
34.54496114,0.03501953557,-0.3218335211,0.438876003,2024-06-04 16:21:15.544961
34.58548046,0.2770937383,-0.1458037645,0.6624417901,2024-06-04 16:21:15.585480
34.6259364,0.4193023443,-0.07962616533,0.6190335155,2024-06-04 16:21:15.625936
34.66644375,0.6543194056,-0.1155777797,0.4881430268,2024-06-04 16:21:15.666444
34.70691281,0.6724283695,-0.06471290439,0.5852124095,2024-06-04 16:21:15.706913
34.74740192,0.8330122232,0.1350182891,1.035805941,2024-06-04 16:21:15.747402
34.7878489,0.8809477091,0.02663082629,1.559767485,2024-06-04 16:21:15.787849
34.8283489,0.9304810166,-0.1014634445,1.807300925,2024-06-04 16:21:15.828349
34.86886651,1.160970807,-0.9488562942,1.814757586,2024-06-04 16:21:15.868867
34.9093663,1.29998374,-1.394523144,1.654040575,2024-06-04 16:21:15.909366
34.94985078,0.9797480702,-0.9129046798,1.170957446,2024-06-04 16:21:15.949851
34.99034093,0.4493951797,-0.3945356905,0.7793511152,2024-06-04 16:21:15.990341
35.03080989,-0.1246322617,0.1685731262,0.2018616647,2024-06-04 16:21:16.030810
35.07129083,-0.4820179343,0.4079842567,-0.2326202542,2024-06-04 16:21:16.071291
35.11181573,-0.7268883586,0.6195661426,-0.7536523938,2024-06-04 16:21:16.111816
35.15231656,-0.8579120636,0.9457937479,-1.273486137,2024-06-04 16:21:16.152317
35.19279416,-0.967631042,1.14006567,-1.746582747,2024-06-04 16:21:16.192794
35.23328625,-0.8951951861,1.077616334,-2.015687227,2024-06-04 16:21:16.233286
35.27374713,-0.8682980537,0.4726971686,-2.051372528,2024-06-04 16:21:16.273747
35.31424354,-0.9588428736,-0.009587096982,-1.856567979,2024-06-04 16:21:16.314244
35.35477312,-0.9074453712,-0.3228987455,-1.398517847,2024-06-04 16:21:16.354773
35.3952263,-0.8696296215,-0.06311506033,-1.012237668,2024-06-04 16:21:16.395226
35.43572849,-0.5461982489,-0.2723001838,-0.5596467853,2024-06-04 16:21:16.435728
35.47624343,-0.219171688,-0.4376776218,-0.1734998226,2024-06-04 16:21:16.476243
35.51673286,0.2528596818,-0.4683030546,0.3845491111,2024-06-04 16:21:16.516733
35.55722224,0.4914718866,0.04926702753,0.6177020073,2024-06-04 16:21:16.557222
35.59768614,0.611443758,-0.2254299372,0.65871346,2024-06-04 16:21:16.597686
35.63814828,0.7643046975,0.1736329794,0.768432498,2024-06-04 16:21:16.638148
35.67866484,0.754983902,0.03834838793,0.8616403341,2024-06-04 16:21:16.678665
35.71915974,0.8497896194,0.1003982127,1.180278182,2024-06-04 16:21:16.719160
35.75964427,0.8173000216,-0.01864157803,1.514228702,2024-06-04 16:21:16.759644
35.80013328,0.9011871219,-0.3756277859,1.858432174,2024-06-04 16:21:16.800133
35.84062328,0.9326115251,-0.7778863907,1.789724588,2024-06-04 16:21:16.840623
35.88113359,0.9685631394,-1.066031933,1.528343081,2024-06-04 16:21:16.881134
35.9216076,0.7320814133,-0.9065132737,0.9497883916,2024-06-04 16:21:16.921608
35.9620951,0.2944037914,-0.3591166735,0.5471302867,2024-06-04 16:21:16.962095
36.00258724,-0.06324820966,0.07163692266,0.1113168523,2024-06-04 16:21:17.002587
36.04304526,-0.4218322635,0.4952002168,-0.4216991365,2024-06-04 16:21:17.043045
36.08353234,-0.6967955232,0.8057156205,-1.010639787,2024-06-04 16:21:17.083532
36.12402729,-0.9063801765,1.004647851,-1.48932898,2024-06-04 16:21:17.124027
36.16455458,-1.05657804,0.9013202786,-1.838725328,2024-06-04 16:21:17.164555
36.20502859,-1.135671616,0.8834776282,-1.882932544,2024-06-04 16:21:17.205029
36.24550927,-1.180411339,0.314776361,-1.776409268,2024-06-04 16:21:17.245509
36.28598062,-0.9934629202,0.1046591476,-1.558835387,2024-06-04 16:21:17.285981
36.32646979,-0.839004159,-0.08282186836,-1.259371758,2024-06-04 16:21:17.326470
36.36695906,-0.62049824,0.1254311949,-0.809843421,2024-06-04 16:21:17.366959
36.40743432,-0.2860150635,-0.06684337556,-0.1942718774,2024-06-04 16:21:17.407434
36.4479613,0.09067796171,-0.253392309,0.2615146935,2024-06-04 16:21:17.447961
36.48844755,0.2749632597,-0.009320789017,0.4458000064,2024-06-04 16:21:17.488448
36.52892588,0.4230306745,0.04340824485,0.5212984085,2024-06-04 16:21:17.528926
36.56941515,0.6186341047,-0.06231613085,0.5575163364,2024-06-04 16:21:17.569415
36.60989708,0.7632394433,0.0926752761,0.796394825,2024-06-04 16:21:17.609897
36.65040161,0.8351426721,0.04926702753,1.166696429,2024-06-04 16:21:17.650402
36.69089151,0.9496552348,0.1163767055,1.524348497,2024-06-04 16:21:17.690892
36.73141114,1.168427467,-0.3452686667,1.642855644,2024-06-04 16:21:17.731411
36.77186843,1.314364433,-0.6267564893,1.607702971,2024-06-04 16:21:17.771868
36.8123576,1.297853231,-1.444056511,1.39758575,2024-06-04 16:21:17.812358
36.85285422,1.012237668,-1.270556688,1.161370277,2024-06-04 16:21:17.852854
36.8933552,0.6519225836,-0.9379376769,1.004381537,2024-06-04 16:21:17.893355
36.93380729,0.1961360276,-0.1284937263,0.4825505614,2024-06-04 16:21:17.933807
36.97430479,-0.352858454,0.3890763521,-0.2198374718,2024-06-04 16:21:17.974305
37.01482213,-0.7623074055,0.8206288815,-0.8338111639,2024-06-04 16:21:18.014822
37.0553113,-1.045925617,1.073888063,-1.239931226,2024-06-04 16:21:18.055311
37.09579807,-1.247521043,0.9247553945,-1.555373311,2024-06-04 16:21:18.095798
37.13628724,-1.352046967,0.9561797976,-1.783865809,2024-06-04 16:21:18.136287
37.1767764,-1.369889617,0.8001231551,-1.898378372,2024-06-04 16:21:18.176776
37.21721942,-1.197721362,0.1416759938,-1.470421076,2024-06-04 16:21:18.217219
37.25772776,-1.016898036,-0.1391460598,-1.315030217,2024-06-04 16:21:18.257728
37.29824979,-0.7681661844,0.006125089712,-1.031944513,2024-06-04 16:21:18.298250
37.33871088,-0.4308867455,0.09134373069,-0.489341408,2024-06-04 16:21:18.338711
37.37919005,-0.05073172227,0.08974587917,-0.006657706574,2024-06-04 16:21:18.379190
37.41969656,0.230756104,0.0929415822,0.3746957183,2024-06-04 16:21:18.419697
37.46018849,0.3447360396,-0.002130466048,0.5138418078,2024-06-04 16:21:18.460188
37.50066922,0.5781552196,-0.0149132628,0.6318163276,2024-06-04 16:21:18.500669
37.54116703,0.6870753169,-0.1466026902,0.7359428406,2024-06-04 16:21:18.541167
37.58165661,0.818897903,0.1374150664,1.186403275,2024-06-04 16:21:18.581657
37.62213172,0.9091764092,0.1624480337,1.410102248,2024-06-04 16:21:18.622132
37.66265005,0.9046491385,-0.03595161438,1.636197925,2024-06-04 16:21:18.662650
37.70313192,1.02794981,-0.4070521593,1.469222665,2024-06-04 16:21:18.703132
37.74360708,0.969628334,-0.5367442966,0.9631038308,2024-06-04 16:21:18.743607
37.78413432,0.9744219184,-1.057243824,0.7822805047,2024-06-04 16:21:18.784134
37.82462401,0.718765974,-0.9805470109,0.909309566,2024-06-04 16:21:18.824624
37.86505771,0.4451342523,-0.929415822,0.9790822864,2024-06-04 16:21:18.865058
37.90556255,0.151928857,-0.433683008,0.1874810159,2024-06-04 16:21:18.905563
37.94605843,-0.2777595222,-0.02529928461,-0.4640421271,2024-06-04 16:21:18.946058
37.98653307,-0.8075798154,0.7516550422,-1.076684237,2024-06-04 16:21:18.986533
38.02702276,-1.153514266,0.8973256946,-1.325016737,2024-06-04 16:21:19.027023
38.06748286,-1.213699818,0.640604496,-1.552443981,2024-06-04 16:21:19.067483
38.10798458,-1.274950743,0.7798837423,-1.741522789,2024-06-04 16:21:19.107985
38.14849927,-1.130079031,0.8256887197,-1.769751549,2024-06-04 16:21:19.148499
38.18900416,-0.7955959439,0.230090335,-1.539661169,2024-06-04 16:21:19.189004
38.22950656,-0.7319482565,-0.1812227666,-1.151516914,2024-06-04 16:21:19.229507
38.26995729,-0.7886719108,0.008788172156,-0.7909355164,2024-06-04 16:21:19.269957
38.31045156,-0.6718957424,-0.2667077184,-0.630751133,2024-06-04 16:21:19.310452
38.35098406,-0.4431369305,-0.2576532364,-0.4334166944,2024-06-04 16:21:19.350984
38.39145005,-0.09001219273,-0.3013277948,0.148067385,2024-06-04 16:21:19.391450
38.43192984,0.2773600519,0.03435376659,0.4953333437,2024-06-04 16:21:19.431930
38.47242369,0.6138405204,0.1946713328,0.6842790842,2024-06-04 16:21:19.472424
38.51291932,0.8798824549,0.1888125539,1.027550459,2024-06-04 16:21:19.512919
38.55340838,0.9238233566,-0.1274285018,1.259638071,2024-06-04 16:21:19.553408
38.59390312,0.8556483984,0.07509893179,1.549381375,2024-06-04 16:21:19.593903
38.63439474,0.7991910577,-0.2738980353,1.439396143,2024-06-04 16:21:19.634395
38.67486916,0.8396699429,-0.1769618392,1.156310439,2024-06-04 16:21:19.674869
38.7153651,0.8026530743,-0.4043890834,1.062436819,2024-06-04 16:21:19.715365
38.75585369,0.8513875008,-0.8159685135,1.180278182,2024-06-04 16:21:19.755854
38.79634906,0.7597774267,-0.9544488192,1.426879644,2024-06-04 16:21:19.796349
38.83683885,0.6710968018,-0.4126446545,1.195457816,2024-06-04 16:21:19.836839
38.87730823,0.3314206302,0.2519276142,0.408516854,2024-06-04 16:21:19.877308
38.91778869,-0.1102516204,0.5178363919,-0.3617797792,2024-06-04 16:21:19.917789
38.95828958,-0.4351477027,0.8171668649,-1.012770295,2024-06-04 16:21:19.958290
38.99877307,-0.6623086333,0.8611077666,-1.490660429,2024-06-04 16:21:19.998773
39.03925614,-0.6356778145,0.437011838,-1.749245763,2024-06-04 16:21:20.039256
39.07976265,-0.5885412693,0.1720351279,-1.94165349,2024-06-04 16:21:20.079763
39.12025578,-0.7005238533,0.04260931909,-2.085459948,2024-06-04 16:21:20.120256
39.16074703,-0.8549826741,-0.03994623944,-1.943783998,2024-06-04 16:21:20.160747
39.20123604,-0.921826005,-0.3410077095,-1.441127181,2024-06-04 16:21:20.201236
39.24172281,-0.8517869711,-0.2856155932,-0.9781502485,2024-06-04 16:21:20.241723
39.28221427,-0.8017209768,-0.4600475132,-0.4222317338,2024-06-04 16:21:20.282214
39.32268573,-0.5216978788,-0.6408708096,0.02769605815,2024-06-04 16:21:20.322686
39.36319005,-0.1462032348,-0.4299546778,0.3840165138,2024-06-04 16:21:20.363190
39.40367375,0.1167761683,-0.08042509109,0.5580489635,2024-06-04 16:21:20.403674
39.44417041,0.3641765416,-0.08069140464,0.6659038067,2024-06-04 16:21:20.444170
39.4846625,0.6316831708,0.1177082509,0.7966611385,2024-06-04 16:21:20.484662
39.52513963,0.7469946742,0.1483336985,0.9886693954,2024-06-04 16:21:20.525140
39.56562427,0.7414022088,0.1355509013,1.324350953,2024-06-04 16:21:20.565624
39.60611562,0.666303277,-0.05459319428,1.570419788,2024-06-04 16:21:20.606116
39.64658729,0.7552502155,-0.4075847864,1.755903482,2024-06-04 16:21:20.646587
39.68706323,0.797593236,-1.148321152,1.374150634,2024-06-04 16:21:20.687063
39.7275589,0.8034520149,-0.7741581202,0.9135704637,2024-06-04 16:21:20.727559
39.76806182,0.4741618633,-0.6296858788,1.226083159,2024-06-04 16:21:20.768062
39.80855078,-0.04860125855,-0.5886744261,0.5324833393,2024-06-04 16:21:20.808551
39.84903708,-0.78414464,1.533669233,-1.100651979,2024-06-04 16:21:20.849037
39.88954515,-1.397319436,1.67294848,-1.681603432,2024-06-04 16:21:20.889545
39.93003771,-1.831401825,1.672415853,-1.905302405,2024-06-04 16:21:20.930038
39.97052599,-1.46070075,1.516092896,-1.972545266,2024-06-04 16:21:20.970526
40.01099796,-1.183074474,0.7247579098,-2.411154985,2024-06-04 16:21:21.010998
40.0514664,-0.7085131407,-0.116643019,-2.43964982,2024-06-04 16:21:21.051466
40.09195541,-0.3094501793,-0.1439396143,-1.885861874,2024-06-04 16:21:21.091955
40.13245588,-0.1209039465,0.1627143472,-1.148054838,2024-06-04 16:21:21.132456
40.1729552,0.4789553881,0.1022623703,-0.5234288573,2024-06-04 16:21:21.172955
40.21345625,0.8332785368,0.5276898146,0.6826812029,2024-06-04 16:21:21.213456
40.25395349,1.152981639,0.4577838778,2.037125111,2024-06-04 16:21:21.253953
40.2943814,1.052716494,-0.01118494663,1.758566618,2024-06-04 16:21:21.294381
40.3349076,0.5547201037,0.1185071766,0.3139774203,2024-06-04 16:21:21.334908
40.37539984,0.7656362653,0.1057243794,0.413044095,2024-06-04 16:21:21.375400
40.41590375,0.9725577235,-0.4022586346,0.6853442788,2024-06-04 16:21:21.415904
40.45638682,1.220357537,-0.579886198,0.8046503663,2024-06-04 16:21:21.456387
40.49687948,1.470687389,-0.8495233655,0.8517869711,2024-06-04 16:21:21.496879
40.53733291,1.567623496,-1.979469299,1.436999321,2024-06-04 16:21:21.537333
40.57785,1.297320724,-1.317959547,1.588528752,2024-06-04 16:21:21.577850
40.618355,1.210237861,-2.388785124,1.436733007,2024-06-04 16:21:21.618355
40.65885234,0.6151720881,-0.4589822888,1.183473945,2024-06-04 16:21:21.658852
40.69932291,-0.05951989442,-0.01118494663,1.02541995,2024-06-04 16:21:21.699323
40.73979458,-0.6726946831,0.7324808836,0.490539819,2024-06-04 16:21:21.739795
40.78029317,-0.8866733313,0.9620385766,-0.3466002047,2024-06-04 16:21:21.780293
40.82078474,-1.173220992,1.172555208,-0.9531172514,2024-06-04 16:21:21.820785
40.86127198,-1.404243469,1.369090796,-1.546052575,2024-06-04 16:21:21.861272
40.90176114,-1.623415112,1.437798262,-1.802507401,2024-06-04 16:21:21.901761
40.94221869,-1.550180316,1.565626264,-2.201570272,2024-06-04 16:21:21.942219
40.98270781,-1.403444529,1.243126988,-2.825930119,2024-06-04 16:21:21.982708
41.02321906,-0.970826745,0.8187647462,-2.887713671,2024-06-04 16:21:22.023219
41.06370828,-0.5541874766,-0.03595161438,-2.379730463,2024-06-04 16:21:22.063708
41.10422448,0.1548582464,-0.3306216896,-1.421952963,2024-06-04 16:21:22.104224
41.14470536,0.1165098622,-0.5710980296,-1.09106493,2024-06-04 16:21:22.144705
41.18524823,-0.02676397935,0.1272953451,-0.8953283429,2024-06-04 16:21:22.185248
41.22570265,0.03342168778,0.1613828093,-0.5383421183,2024-06-04 16:21:22.225703
41.26615854,0.6162372828,0.190676704,-0.06764229387,2024-06-04 16:21:22.266159
41.3066477,0.8641703129,-0.1258306503,0.4045222402,2024-06-04 16:21:22.306648
41.34713953,0.4358134568,-0.2006632686,0.5063851476,2024-06-04 16:21:22.347140
41.38764333,0.112781547,-0.5018579364,0.2729659677,2024-06-04 16:21:22.387643
41.42813843,-0.154458791,-0.3252955377,0.1661763489,2024-06-04 16:21:22.428138
41.46864109,-0.4804200828,-0.4216991365,-0.09507204592,2024-06-04 16:21:22.468641
41.50911,-0.8387378454,-0.6552514434,-0.2808220685,2024-06-04 16:21:22.509110
41.54954833,-0.6569824815,-0.6272891164,-0.3636439145,2024-06-04 16:21:22.549548
41.59007229,-0.5587147474,-0.4704335332,-0.2933385372,2024-06-04 16:21:22.590072
41.6305938,-0.2487319112,-0.2219679356,-0.05459319428,2024-06-04 16:21:22.630594
41.67106906,-0.2822867632,-0.3330184817,0.3549889028,2024-06-04 16:21:22.671069
41.71155817,-0.4207670391,-0.08415340632,0.4577838778,2024-06-04 16:21:22.711558
41.75204734,-0.4468652606,-0.1521951705,0.464707911,2024-06-04 16:21:22.752047
41.79253651,-0.6141068339,0.03754946589,0.4452674091,2024-06-04 16:21:22.792537
41.83302562,-0.5714974999,0.03488638252,0.1001319066,2024-06-04 16:21:22.833026
41.87349078,-0.5187684894,0.2487319112,0.09187635034,2024-06-04 16:21:22.873491
41.91401911,-0.4071853161,0.3568530679,0.02956021577,2024-06-04 16:21:22.914019
41.95450119,-0.2964010835,0.3656412363,0.01757634431,2024-06-04 16:21:22.954501
41.99498192,-0.1001319066,0.3075860441,-0.003994623665,2024-06-04 16:21:22.994982
42.03547099,0.2816209793,0.6842790842,0.1403444558,2024-06-04 16:21:23.035471
42.07594474,0.3481980562,0.6320826411,0.1773612946,2024-06-04 16:21:23.075945
42.11646265,0.3748288751,0.7119750977,0.09001219273,2024-06-04 16:21:23.116463
42.15695046,0.5331491232,0.6816160083,0.01118494663,2024-06-04 16:21:23.156950
42.19743698,0.5525896549,0.5087819099,-0.1450048387,2024-06-04 16:21:23.197437
42.23789557,0.6655043364,0.5298202634,-0.149265781,2024-06-04 16:21:23.237896
42.27838698,0.6868090034,0.317972064,-0.1508636326,2024-06-04 16:21:23.278387
42.31887604,0.638607204,0.1145125479,-0.1529940963,2024-06-04 16:21:23.318876
42.35938396,0.6354115009,-0.04074516147,-0.2256962508,2024-06-04 16:21:23.359384
42.39993323,0.6814828515,-0.1107842326,-0.221701622,2024-06-04 16:21:23.399933
42.4403563,0.577888906,-0.3463338912,-0.1721682847,2024-06-04 16:21:23.440356
42.48083531,0.4667052329,-0.4259600639,-0.1476679295,2024-06-04 16:21:23.480835
42.52137531,0.3159747422,-0.5766905546,-0.1274285018,2024-06-04 16:21:23.521375
42.56178552,0.2129134536,-0.6579145193,-0.1282274276,2024-06-04 16:21:23.561786
42.60227583,0.2078536004,-0.5934679508,-0.05113118514,2024-06-04 16:21:23.602276
42.64278052,0.08135717362,-0.7053174376,0.04340824485,2024-06-04 16:21:23.642781
42.68329625,-0.1403444558,-0.7922670841,0.09880036116,2024-06-04 16:21:23.683296
42.72377114,-0.2655093372,-0.8439308405,0.1334204376,2024-06-04 16:21:23.723771
42.7642625,-0.2772268951,-0.7042521834,0.2226337045,2024-06-04 16:21:23.764263
42.80475093,-0.4308867455,-0.6893389225,0.3035914004,2024-06-04 16:21:23.804751
42.84524349,-0.6338136196,-0.6730940938,0.348331213,2024-06-04 16:21:23.845243
42.88573843,-0.6378082633,-0.5849460959,0.301194638,2024-06-04 16:21:23.885738
42.92623682,-0.7077142,-0.4198349714,0.2335523367,2024-06-04 16:21:23.926237
42.9667313,-0.6210308671,-0.265642494,0.2993304729,2024-06-04 16:21:23.966731
43.00719744,-0.6141068339,-0.1332872808,0.3091838956,2024-06-04 16:21:24.007197
43.0476826,-0.6724283695,-0.0074566314,0.340608269,2024-06-04 16:21:24.047683
43.0881689,-0.6260907054,0.08282186836,0.3605813682,2024-06-04 16:21:24.088169
43.12866073,-0.4620448351,0.1493989378,0.2769605815,2024-06-04 16:21:24.128661
43.16916828,-0.6399387121,0.2564548552,0.2175738513,2024-06-04 16:21:24.169168
43.20966583,-0.4290226102,0.2929390669,0.06737598777,2024-06-04 16:21:24.209666
43.25015724,-0.263112545,0.5308855176,0.1182408631,2024-06-04 16:21:24.250157
43.29063135,-0.1794917583,0.6624417901,0.1507304758,2024-06-04 16:21:24.290631
43.3311189,-0.03422060981,0.7002575397,0.2186390758,2024-06-04 16:21:24.331119
43.37160494,0.001198387123,0.5252930522,0.1677742004,2024-06-04 16:21:24.371605
43.412085,0.1753639877,0.8517869711,0.08122401685,2024-06-04 16:21:24.412085
43.45256146,0.3085181117,0.5644403696,0.08069140464,2024-06-04 16:21:24.452561
43.49306838,0.356187284,0.781481564,0.02183727734,2024-06-04 16:21:24.493068
43.53355885,0.4222317338,0.6536536217,0.1035939083,2024-06-04 16:21:24.533559
43.57404333,0.4320851564,0.5761579275,-0.018907886,2024-06-04 16:21:24.574043
43.61454979,0.5469971299,0.5492607951,-0.1252980381,2024-06-04 16:21:24.614550
43.65503781,0.5741605759,0.3557878435,-0.2619141638,2024-06-04 16:21:24.655038
43.69554203,0.593334794,0.3163742125,-0.3777582645,2024-06-04 16:21:24.695542
43.73601411,0.6511237025,0.2466014475,-0.3857475221,2024-06-04 16:21:24.736014
43.77652448,0.7171681523,0.137681365,-0.3228987455,2024-06-04 16:21:24.776524
43.81703073,0.6505910754,0.08921326697,-0.2680392563,2024-06-04 16:21:24.817031
43.85748515,0.6220960617,-0.1073222235,-0.1987991184,2024-06-04 16:21:24.857485
43.89798099,0.5360785127,-0.1271621883,-0.1471353173,2024-06-04 16:21:24.897981
43.93847312,0.3785571754,-0.405188024,-0.1119826213,2024-06-04 16:21:24.938473
43.97896937,0.2693707943,-0.4403406978,-0.1057243794,2024-06-04 16:21:24.978969
44.01945109,0.1412765235,-0.4832163453,-0.04500609636,2024-06-04 16:21:25.019451
44.0599338,0.132488355,-0.5407389402,-0.08575125784,2024-06-04 16:21:25.059934
44.10040427,0.01983996481,-0.6384740472,0.03541899845,2024-06-04 16:21:25.100404
44.14089109,-0.05232957378,-0.5953320861,0.1041265279,2024-06-04 16:21:25.140891
44.18137541,-0.05259587988,-0.5231625438,0.2908086181,2024-06-04 16:21:25.181375
44.22186052,0.02995967865,-0.6472622156,0.560978353,2024-06-04 16:21:25.221861
44.26236765,0.5874760151,-0.8543168902,0.9481905699,2024-06-04 16:21:25.262368
44.30285802,0.6676347852,-0.339409858,1.617023706,2024-06-04 16:21:25.302858
44.34334974,0.2675066292,0.06897383928,1.70783484,2024-06-04 16:21:25.343350
44.38383823,0.03448691964,0.06231613085,1.264697909,2024-06-04 16:21:25.383838
44.42431875,0.008655018173,-0.2326202542,0.9846747518,2024-06-04 16:21:25.424319
44.4648789,-0.1339530498,-0.2046578974,0.566837132,2024-06-04 16:21:25.464879
44.50532906,0.1529940963,-0.3258281648,0.5601794124,2024-06-04 16:21:25.505329
44.54574828,0.4131772518,0.1328878254,0.8472597003,2024-06-04 16:21:25.545748
44.58629161,0.5829487443,0.3579182923,0.909309566,2024-06-04 16:21:25.586292
44.62679401,0.6476616859,0.1744319052,1.30038321,2024-06-04 16:21:25.626794
44.6672863,0.5304860473,0.2444709837,1.227947354,2024-06-04 16:21:25.667286
44.70776135,0.6503247619,-0.4086500108,1.25511086,2024-06-04 16:21:25.707761
44.74825182,0.6814828515,-0.5338149071,1.303312659,2024-06-04 16:21:25.748252
44.78874765,0.9509868026,-1.0316782,1.575479627,2024-06-04 16:21:25.788748
44.82924109,0.6045197248,-0.4696346223,1.339264274,2024-06-04 16:21:25.829241
44.86973724,0.1561897993,-0.2691044807,1.307573557,2024-06-04 16:21:25.869737
44.9102051,0.2075872868,0.6792191863,0.656050384,2024-06-04 16:21:25.910205
44.95072802,-0.2463351339,1.01503396,0.3131785095,2024-06-04 16:21:25.950728
44.99118364,-0.5549864173,0.9686962962,-0.6091801524,2024-06-04 16:21:25.991184
45.03167276,-0.6194329858,1.089866519,-1.543655753,2024-06-04 16:21:26.031673
45.07212734,-0.6162372828,1.120625138,-1.927405953,2024-06-04 16:21:26.072127
45.1126327,-0.5770899653,0.4713656008,-2.112889767,2024-06-04 16:21:26.112633
45.15311593,-0.7287525535,0.4854799509,-2.241250277,2024-06-04 16:21:26.153116
45.19365463,-0.6210308671,0.4391423166,-1.96615386,2024-06-04 16:21:26.193655
45.23422146,-0.4721645415,0.5681686401,-1.389196992,2024-06-04 16:21:26.234221
45.27460838,-0.1765623689,0.4505935609,-0.7283530831,2024-06-04 16:21:26.274608
45.31504797,0.1031944528,-0.07616416365,-0.4003944695,2024-06-04 16:21:26.315048
45.35558265,-0.000932078925,-0.3718994856,-0.3005288541,2024-06-04 16:21:26.355583
45.39608666,0.07390054315,-0.5292876363,0.1182408631,2024-06-04 16:21:26.396087
45.43656557,0.1213034093,-0.7204970121,0.4133104086,2024-06-04 16:21:26.436566
45.47704031,0.3415403366,-0.5585815907,0.631550014,2024-06-04 16:21:26.477040
45.51752927,0.4363460839,-0.1841521561,0.6994586587,2024-06-04 16:21:26.517529
45.55800802,0.2315550297,-0.4709661603,0.3699021637,2024-06-04 16:21:26.558008
45.59851896,0.4571181238,-0.37296471,0.3858806491,2024-06-04 16:21:26.598519
45.63903859,0.9187634587,-0.3793561161,1.071224928,2024-06-04 16:21:26.639039
45.67951843,0.7299509048,-0.103061296,1.266562104,2024-06-04 16:21:26.679518
45.71997614,0.8194305301,-0.5527228117,1.675611496,2024-06-04 16:21:26.719976
45.76046093,0.6479279995,-0.9014534354,1.701443434,2024-06-04 16:21:26.760461
45.80098583,0.7192986012,-1.106777072,1.681203961,2024-06-04 16:21:26.800986
45.84146255,0.6263570189,-0.674159348,1.248719454,2024-06-04 16:21:26.841463
45.88193411,0.3346163332,-0.1199718714,0.9492557645,2024-06-04 16:21:26.881934
45.92242354,-0.03102491237,0.2154433727,0.760176897,2024-06-04 16:21:26.922424
45.96288703,-0.4519250989,0.7133066654,-0.01198387146,2024-06-04 16:21:26.962887
46.00339323,-0.7087793946,0.3818860352,-0.3218335211,2024-06-04 16:21:27.003393
46.04388187,-0.9657669067,1.064833522,-0.9983896613,2024-06-04 16:21:27.043882
46.08439901,-0.9058475494,1.30783987,-1.566025734,2024-06-04 16:21:27.084399
46.12487708,-0.937271893,1.320622683,-1.855502725,2024-06-04 16:21:27.124877
46.16536218,-0.6868090034,1.039001703,-1.957898259,2024-06-04 16:21:27.165362
46.20587364,-0.3986634612,0.204258427,-2.125139952,2024-06-04 16:21:27.205874
46.24635635,-0.5179695487,0.2724333405,-1.918617845,2024-06-04 16:21:27.246356
46.28682349,-0.487344116,-0.2129134536,-1.430741072,2024-06-04 16:21:27.286823
46.32730057,-0.5938674212,-0.3063876629,-1.358305216,2024-06-04 16:21:27.327301
46.3678213,-0.5725627542,-0.01837527007,-0.8764204979,2024-06-04 16:21:27.367821
46.40830833,-0.3504616618,-0.3950682878,-0.112781547,2024-06-04 16:21:27.408308
46.44880646,0.2938711643,-0.416905582,0.8006557822,2024-06-04 16:21:27.448806
46.4892825,0.9025186896,-0.4805532396,1.256708622,2024-06-04 16:21:27.489283
46.52975104,1.009574652,-0.3497959077,1.072822809,2024-06-04 16:21:27.529751
46.5702375,0.8204957247,-0.1378145218,0.4671046734,2024-06-04 16:21:27.570237
46.61074948,0.917165637,-0.4382102489,0.1584534049,2024-06-04 16:21:27.610749
46.6512325,1.139932513,-0.3828181326,0.829949677,2024-06-04 16:21:27.651232
46.69171198,1.120358825,0.008788172156,1.462831259,2024-06-04 16:21:27.691712
46.73218875,0.8577789068,-0.6022561193,1.62474668,2024-06-04 16:21:27.732189
46.77269802,0.8737573624,-1.374816418,1.963890195,2024-06-04 16:21:27.772698
46.81319619,0.7107767463,-1.191196799,1.818752289,2024-06-04 16:21:27.813196
46.85368573,0.2938711643,-0.8774856925,1.423683882,2024-06-04 16:21:27.853686
46.89417505,-0.0352858454,-0.8601756692,1.295057058,2024-06-04 16:21:27.894175
46.93467427,-0.4503272474,-0.002130466048,0.7671009302,2024-06-04 16:21:27.934674
46.97515041,-0.8432651162,0.4314193726,0.3352820873,2024-06-04 16:21:27.975150
47.01564609,-1.044061542,0.7921339273,-0.4211665094,2024-06-04 16:21:28.015646
47.05614317,-1.154046774,0.5721632838,-1.029814005,2024-06-04 16:21:28.056143
47.09662036,-1.175085187,0.9543156624,-1.479209185,2024-06-04 16:21:28.096620
47.13711994,-1.087203503,0.9111737013,-1.608901381,2024-06-04 16:21:28.137120
47.17761713,-1.037403822,0.6208977103,-1.869883418,2024-06-04 16:21:28.177617
47.21808265,-0.918630302,0.2442046702,-1.933397889,2024-06-04 16:21:28.218083
47.25859828,-0.7830794454,-0.07989247888,-1.652043223,2024-06-04 16:21:28.258598
47.29910672,-0.672960937,-0.2099840641,-1.319823742,2024-06-04 16:21:28.299107
47.33955416,-0.5786878467,-0.3250292242,-0.7026543617,2024-06-04 16:21:28.339554
47.38005297,-0.3880111277,-0.4738955498,0.09640359133,2024-06-04 16:21:28.380053
47.42053791,-0.0432750918,-0.9083774686,0.8853418231,2024-06-04 16:21:28.420538
47.46103239,0.1122489274,-0.4813521802,0.976685524,2024-06-04 16:21:28.461032
47.50152661,0.2358159572,-0.133819893,0.90291816,2024-06-04 16:21:28.501527
47.54196838,0.3170399666,-0.333551079,0.8627055883,2024-06-04 16:21:28.541968
47.58250343,0.3106485903,-0.3050560951,0.5348801613,2024-06-04 16:21:28.582503
47.62299208,0.4986622036,-0.1585865617,0.8813471794,2024-06-04 16:21:28.622992
47.66348666,0.5208989382,-0.04713656008,1.643654585,2024-06-04 16:21:28.663487
47.70398531,0.4299546778,-0.3695026934,1.867486596,2024-06-04 16:21:28.703985
47.7444564,0.433683008,-0.6882736683,2.079201698,2024-06-04 16:21:28.744456
47.78492541,0.5584484339,-1.186403275,2.047244787,2024-06-04 16:21:28.784925
47.82541411,0.4501941204,-0.5857450366,1.370688558,2024-06-04 16:21:28.825414
47.86590677,0.1830869317,-0.5351464152,0.9367392659,2024-06-04 16:21:28.865907
47.90642151,-0.1613828093,-0.01544587873,0.476958096,2024-06-04 16:21:28.906422
47.9469102,-0.5691007376,0.2918738425,0.03967992961,2024-06-04 16:21:28.946910
47.9873738,-0.85764575,0.6637732983,-0.5351464152,2024-06-04 16:21:28.987374
48.02788698,-1.149253249,1.201316595,-1.16456604,2024-06-04 16:21:29.027887
48.06837296,-1.333938003,1.566957831,-1.600645781,2024-06-04 16:21:29.068373
48.10883963,-1.451912642,1.772148252,-1.900775194,2024-06-04 16:21:29.108840
48.14932724,-1.137802005,1.162968159,-2.202635527,2024-06-04 16:21:29.149327
48.18981927,-0.9234238863,0.8619066477,-2.524069548,2024-06-04 16:21:29.189819
48.23034047,-0.8038514853,0.2383458912,-2.16215682,2024-06-04 16:21:29.230340
48.27080463,-0.525426209,0.3746957183,-1.92713964,2024-06-04 16:21:29.270805
48.31131286,-0.1813559234,0.417571336,-1.69784832,2024-06-04 16:21:29.311313
48.35178224,0.003062544856,0.4758928418,-1.210637331,2024-06-04 16:21:29.351782
48.39223984,0.2715012729,0.5673697591,-0.9270190597,2024-06-04 16:21:29.392240
48.43274041,0.7501903772,0.6059844494,-0.6352783442,2024-06-04 16:21:29.432740
48.47324552,0.6798849702,0.177094996,-0.4600475132,2024-06-04 16:21:29.473246
48.51375286,0.7009233236,-0.05592473224,-0.3497959077,2024-06-04 16:21:29.513753
48.55424229,0.5074504018,-0.2896102369,-0.4496614933,2024-06-04 16:21:29.554242
48.59473953,0.329023838,-0.1700378209,-0.3940030634,2024-06-04 16:21:29.594740
48.63522354,0.2616478503,-0.2187722325,-0.2882786989,2024-06-04 16:21:29.635224
48.67572729,0.009453942999,-0.4691019952,-0.1782933772,2024-06-04 16:21:29.675727
48.7161776,-0.06724283099,-0.4081174135,-0.1740324497,2024-06-04 16:21:29.716178
48.75666567,0.0621829778,-0.3450023532,-0.00186415785,2024-06-04 16:21:29.756666
48.79716208,0.1647116542,-0.4275579154,0.1177082509,2024-06-04 16:21:29.797162
48.83765161,0.08987903595,-0.5990604162,0.1129147038,2024-06-04 16:21:29.837652
48.87814187,-0.0384815447,-0.7339455485,0.2476666719,2024-06-04 16:21:29.878142
48.91862323,-0.006524552125,-0.7842777967,0.3137111366,2024-06-04 16:21:29.918623
48.95911625,-0.2742975056,-0.8045172691,0.449262023,2024-06-04 16:21:29.959116
48.99970302,-0.5446003675,-0.8503222466,0.2338186502,2024-06-04 16:21:29.999703
49.04010843,-0.5472634435,-0.5963973403,0.1296921223,2024-06-04 16:21:30.040108
49.08059187,-0.7223611474,-0.5977289081,0.07509893179,2024-06-04 16:21:30.080592
49.12106073,-0.6612433791,-0.4584496617,0.06151720881,2024-06-04 16:21:30.121061
49.16154963,-0.6290200949,-0.484814167,0.1107842326,2024-06-04 16:21:30.161550
49.20204781,-0.6439333558,-0.2304897904,0.1941387206,2024-06-04 16:21:30.202048
49.24253687,-0.5523233414,-0.2078536004,0.172567755,2024-06-04 16:21:30.242537
49.28304588,-0.4958659708,-0.1351514459,0.1712362021,2024-06-04 16:21:30.283046
49.32353531,-0.4039896131,0.01278279629,0.2175738513,2024-06-04 16:21:30.323535
49.36405911,-0.4066527188,0.02529928461,0.2292914093,2024-06-04 16:21:30.364059
49.40451567,-0.3877448142,0.2069215178,0.2854824364,2024-06-04 16:21:30.404516
49.44501489,-0.3027924895,0.3185046613,0.2607157826,2024-06-04 16:21:30.445015
49.48548922,-0.234617576,0.3304885328,0.2157096863,2024-06-04 16:21:30.485489
49.52596135,-0.1872147024,0.4079842567,0.1248985752,2024-06-04 16:21:30.525961
49.56645984,-0.05579157919,0.4338161349,0.01038602181,2024-06-04 16:21:30.566460
49.60694718,0.02010627277,0.3864132762,-0.037815772,2024-06-04 16:21:30.606947
49.64742468,0.1181077138,0.4212996662,-0.160983339,2024-06-04 16:21:30.647425
49.68791651,0.2709686458,0.5375432372,-0.108254306,2024-06-04 16:21:30.687917
49.72842833,0.3125127256,0.475093931,-0.02023942769,2024-06-04 16:21:30.728428
49.76893614,0.4089163244,0.6155715585,0.0221035853,2024-06-04 16:21:30.768936
49.80939849,0.3564535975,0.3331516385,-0.01198387146,2024-06-04 16:21:30.809398
49.84989994,0.4030575454,0.3677717149,-0.09640359133,2024-06-04 16:21:30.849900
49.89036041,0.5453993082,0.3073197305,-0.1098521575,2024-06-04 16:21:30.890360
49.93086119,0.4826837182,0.09666989744,-0.1774944514,2024-06-04 16:21:30.930861
49.97136401,0.3031919599,-0.02556559257,-0.2608489394,2024-06-04 16:21:30.971364
50.01184343,0.3617797792,-0.05166380107,-0.1785596907,2024-06-04 16:21:31.011843
50.05228146,0.3889431953,-0.1497983932,-0.08974587917,2024-06-04 16:21:31.052281
50.09282057,0.2467346042,-0.1532603949,-0.06391397864,2024-06-04 16:21:31.092821
50.1333226,0.1745650619,-0.3340837061,-0.07483261824,2024-06-04 16:21:31.133323
50.1738089,0.0621829778,-0.4691019952,-0.02902759984,2024-06-04 16:21:31.173809
50.21428666,0.04167724028,-0.4414059222,0.03435376659,2024-06-04 16:21:31.214287
50.25478536,-0.05286218971,-0.5436683297,0.004793548491,2024-06-04 16:21:31.254785
50.29528271,-0.1243659556,-0.5489944816,0.08974587917,2024-06-04 16:21:31.295283
50.33576213,-0.1981333494,-0.5039883852,0.1581871063,2024-06-04 16:21:31.335762
50.37624656,-0.3163742125,-0.5223636627,0.1246322617,2024-06-04 16:21:31.376247
50.41673276,-0.3339505494,-0.4965317547,0.1256974936,2024-06-04 16:21:31.416733
50.45722187,-0.3009283245,-0.350328505,0.2061225921,2024-06-04 16:21:31.457222
50.49771869,-0.3888100684,-0.3173062801,0.199731186,2024-06-04 16:21:31.497719
50.53819453,-0.4197018147,-0.2999962568,0.1691057384,2024-06-04 16:21:31.538195
50.57870239,-0.4481967986,-0.2334191799,0.1395455301,2024-06-04 16:21:31.578702
50.61919041,-0.4117125571,-0.1242327988,0.1363498271,2024-06-04 16:21:31.619190
50.65967359,-0.3693695366,-0.05832150951,0.151263088,2024-06-04 16:21:31.659674
50.70016396,-0.3832175732,0.05299534276,0.1451379955,2024-06-04 16:21:31.700164
50.74067515,-0.3480648994,0.07483261824,0.1283605844,2024-06-04 16:21:31.740675
50.78117531,-0.3001294136,0.1371487528,0.1171756312,2024-06-04 16:21:31.781175
50.82166468,-0.2657756507,0.2620473206,0.05166380107,2024-06-04 16:21:31.821665
50.86211479,-0.155790329,0.2367480397,0.04793548584,2024-06-04 16:21:31.862115
50.90256869,-0.09666989744,0.3264939189,0.07856093347,2024-06-04 16:21:31.902569
50.94310635,-0.05259587988,0.4657731354,0.08095771074,2024-06-04 16:21:31.943106
50.98358239,0.04247616604,0.456984967,0.07163692266,2024-06-04 16:21:31.983582
51.0240826,0.108254306,0.4439358711,0.02423405088,2024-06-04 16:21:32.024083
51.06457192,0.1716356725,0.5058525205,-0.01837527007,2024-06-04 16:21:32.064572
51.10502255,0.2448704392,0.4236964285,-0.05059856921,2024-06-04 16:21:32.105023
51.14556375,0.3199693561,0.4572512805,-0.08814803511,2024-06-04 16:21:32.145564
51.18602843,0.4054543078,0.4687025249,-0.06710968167,2024-06-04 16:21:32.186028
51.22652557,0.4525908828,0.4021254778,-0.04260931909,2024-06-04 16:21:32.226526
51.2670038,0.4368786812,0.4111799598,-0.06551183015,2024-06-04 16:21:32.267004
51.30745713,0.4366123974,0.2940043211,-0.1165098622,2024-06-04 16:21:32.307457
51.34795797,0.4880098701,0.2050573528,-0.1300915778,2024-06-04 16:21:32.347958
51.38846437,0.4949339032,0.1853505522,-0.1503310055,2024-06-04 16:21:32.388464
51.42895359,0.4320851564,0.009054481052,-0.1782933772,2024-06-04 16:21:32.428954
51.46944718,0.3998618424,-0.03808208182,-0.1572550237,2024-06-04 16:21:32.469447
51.50993489,0.3388772607,-0.1250317246,-0.149265781,2024-06-04 16:21:32.509935
51.55041239,0.3130453527,-0.2062557489,-0.1471353173,2024-06-04 16:21:32.550412
51.59091463,0.1958697289,-0.2856155932,-0.1817553788,2024-06-04 16:21:32.590915
51.63138166,0.221701622,-0.3705679476,-0.1577876359,2024-06-04 16:21:32.631382
51.67189265,0.2086525112,-0.3404751122,0.008788172156,2024-06-04 16:21:32.671893
51.71239343,0.0166442655,-0.4808195531,-0.01784265228,2024-06-04 16:21:32.712393
51.75287109,-0.0275629051,-0.4717650712,0.05166380107,2024-06-04 16:21:32.752871
51.79333442,-0.04860125855,-0.539673686,0.1504641622,2024-06-04 16:21:32.793334
51.83382369,-0.2063889056,-0.4738955498,0.1363498271,2024-06-04 16:21:32.833824
51.87432885,-0.2567211688,-0.5750926733,0.1251648813,2024-06-04 16:21:32.874329
51.91485302,-0.2583190203,-0.5836145282,0.1962691844,2024-06-04 16:21:32.914853
51.95533901,-0.4609795809,-0.5343475342,0.2010627389,2024-06-04 16:21:32.955339
51.99584349,-0.4977301359,-0.4829500318,0.2260957062,2024-06-04 16:21:32.995843
52.03629468,-0.3635107577,-0.3271597028,0.3118469715,2024-06-04 16:21:33.036295
52.07678396,-0.2977326214,-0.3519263566,0.5298202634,2024-06-04 16:21:33.076784
52.11727422,-0.3339505494,-0.3354152441,0.8065145612,2024-06-04 16:21:33.117274
52.15778672,-0.2905423045,-0.3655080795,1.361900449,2024-06-04 16:21:33.157787
52.19826484,0.2810883522,-0.168706283,1.838192701,2024-06-04 16:21:33.198265
52.23874385,0.3231650591,0.01944050193,1.654839516,2024-06-04 16:21:33.238744
52.27926448,0.2523270845,-0.1263632625,1.279344916,2024-06-04 16:21:33.279264
52.31969744,0.2177069932,-0.05539211631,0.8784177899,2024-06-04 16:21:33.319697
52.36021427,0.3109148741,0.1304910481,0.5950657725,2024-06-04 16:21:33.360214
52.40071333,0.2416747361,0.5330159664,0.449262023,2024-06-04 16:21:33.400713
52.44122291,0.3082517982,0.7673672438,0.2173075378,2024-06-04 16:21:33.441223
52.48171203,0.5789541602,1.287600398,0.6416697502,2024-06-04 16:21:33.481712
52.52213812,0.8210283518,0.9617722631,1.040066838,2024-06-04 16:21:33.522138
52.56264448,0.9102416039,0.5452661514,1.539528012,2024-06-04 16:21:33.562644
52.60315442,0.9834764004,0.01944050193,1.381607175,2024-06-04 16:21:33.603154
52.64364557,1.356174827,-0.6805507541,1.489195824,2024-06-04 16:21:33.643646
52.68411864,1.639260411,-1.327546597,1.480673909,2024-06-04 16:21:33.684119
52.724605,1.563895226,-1.007710457,1.114766359,2024-06-04 16:21:33.724605
52.76509854,1.338864803,-0.3300890923,0.6893389225,2024-06-04 16:21:33.765099
52.80559286,1.05697751,-0.07509893179,0.4761591554,2024-06-04 16:21:33.805593
52.84609208,0.5491276383,0.1398118287,0.1890788674,2024-06-04 16:21:33.846092
52.88657192,0.06591129303,0.09107742459,-0.4709661603,2024-06-04 16:21:33.886572
52.9270601,-0.3137111366,0.573228538,-1.013569236,2024-06-04 16:21:33.927060
52.96756385,-0.7300840616,0.7551170588,-1.348718166,2024-06-04 16:21:33.967564
53.00805614,-1.042197347,0.7769543529,-1.458703518,2024-06-04 16:21:34.008056
53.0485476,-1.263233185,0.7623074055,-1.598781586,2024-06-04 16:21:34.048548
53.08903864,-1.152715325,0.8643034697,-1.752707839,2024-06-04 16:21:34.089039
53.129535,-1.050186634,0.6280879974,-1.662163019,2024-06-04 16:21:34.129535
53.17001093,-0.7351439595,0.1736329794,-1.317959547,2024-06-04 16:21:34.170011
53.21049031,-0.3408745527,-0.1252980381,-1.041797876,2024-06-04 16:21:34.210490
53.25098869,-0.1632469594,-0.1476679295,-0.7095783353,2024-06-04 16:21:34.250989
53.29147958,-0.02170412242,-0.4129109383,-0.1151783243,2024-06-04 16:21:34.291480
53.33196385,-0.164844811,-0.3596493006,0.2231663167,2024-06-04 16:21:34.331964
53.37243869,0.02303566411,-0.2784252763,0.5908048749,2024-06-04 16:21:34.372439
53.41293354,0.4922707975,0.07030537724,0.9362066984,2024-06-04 16:21:34.412934
53.45341875,0.5549864173,-0.1282274276,0.842199862,2024-06-04 16:21:34.453419
53.49390088,0.559779942,0.140877068,0.3201025128,2024-06-04 16:21:34.493901
53.53441635,0.7954627872,-0.1529940963,0.266308248,2024-06-04 16:21:34.534416
53.57493901,1.086271405,0.2311555594,0.9292826653,2024-06-04 16:21:34.574939
53.61539333,1.006112576,-0.03967992961,1.28254056,2024-06-04 16:21:34.615393
53.65586724,0.9547150731,-0.3764267266,1.494255662,2024-06-04 16:21:34.655867
53.69635328,0.8660344481,-0.9781502485,1.540060639,2024-06-04 16:21:34.696353
53.73684156,0.9054480791,-1.298519015,1.626344562,2024-06-04 16:21:34.736842
53.77733375,0.7131735086,-0.8316806555,1.235404015,2024-06-04 16:21:34.777334
53.81783807,0.3673722446,-0.5090482235,0.9468590021,2024-06-04 16:21:34.817838
53.85839578,-0.01158440951,-0.07669677585,0.6339467764,2024-06-04 16:21:34.858396
53.89885656,-0.4394086301,0.3267602324,-0.08894696087,2024-06-04 16:21:34.898857
53.9392989,-0.7740249634,0.5710980296,-0.7595111728,2024-06-04 16:21:34.939299
53.97977953,-0.9649679661,0.8294170499,-1.237001896,2024-06-04 16:21:34.979780
54.02026541,-1.088002324,1.001185894,-1.582536817,2024-06-04 16:21:35.020265
54.06075265,-1.06696403,1.057909489,-1.921014547,2024-06-04 16:21:35.060753
54.10123588,-1.076018453,1.035539627,-2.278799772,2024-06-04 16:21:35.101236
54.14172203,-0.9825443029,0.7093120217,-2.365350008,2024-06-04 16:21:35.141722
54.18221109,-0.7295514941,0.1137136221,-2.185325623,2024-06-04 16:21:35.182211
54.22268224,-0.5605788827,-0.002929390874,-1.747647882,2024-06-04 16:21:35.222682
54.26318635,-0.2796236575,0.005592473317,-1.581471562,2024-06-04 16:21:35.263186
54.3037138,-0.3105154335,0.1158440933,-1.151250601,2024-06-04 16:21:35.303714
54.34419468,-0.2833519876,0.037815772,-0.6275554299,2024-06-04 16:21:35.344195
54.3846714,-0.2095845938,0.2109161317,-0.2131797522,2024-06-04 16:21:35.384671
54.42518932,0.06910699606,0.09693620354,0.221035853,2024-06-04 16:21:35.425189
54.46565635,0.1889457107,-0.1711030602,0.548728168,2024-06-04 16:21:35.465656
54.50615109,0.02862813696,-0.1753639877,0.5300865769,2024-06-04 16:21:35.506151
54.54662843,-0.02489982173,-0.1806901544,0.2905423045,2024-06-04 16:21:35.546628
54.58714651,-0.06884068251,-0.2547238469,0.05832150951,2024-06-04 16:21:35.587147
54.62760677,-0.01877473295,0.1749645174,-0.04394086078,2024-06-04 16:21:35.627607
54.6681175,0.03075860441,0.195203945,-0.07536523789,2024-06-04 16:21:35.668118
54.70861578,-0.08774857223,0.09027849883,-0.2941374779,2024-06-04 16:21:35.708616
54.7490989,-0.08668334037,0.1520620137,-0.3900084496,2024-06-04 16:21:35.749099
54.78956317,-0.01797580719,0.2122476846,-0.2850829959,2024-06-04 16:21:35.789563
54.83010364,0.06484606117,-0.05912043154,-0.1961360276,2024-06-04 16:21:35.830104
54.87055458,0.239810586,-0.1073222235,-0.02902759984,2024-06-04 16:21:35.870555
54.91112031,0.1508636326,-0.1790923029,0.07909355313,2024-06-04 16:21:35.911120
54.95154817,0.1838858575,-0.05432688445,0.09533835202,2024-06-04 16:21:35.951548
54.99199979,0.1063901484,0.07509893179,0.0149132628,2024-06-04 16:21:35.992000
55.03250005,0.04114462435,0.1198387146,-0.156456098,2024-06-04 16:21:36.032500
55.07302052,-0.03821523488,0.2122476846,-0.1974675655,2024-06-04 16:21:36.073021
55.11349135,-0.1400781423,-0.01065232977,-0.2360822707,2024-06-04 16:21:36.113491
55.15398593,-0.2053236663,-0.1123820841,-0.2059894353,2024-06-04 16:21:36.153986
55.19447208,-0.181622237,-0.07350108027,-0.1014634445,2024-06-04 16:21:36.194472
55.23494666,0.02489982173,-0.05858781561,0.04367455468,2024-06-04 16:21:36.234947
55.27545942,0.05818835273,-0.04314193875,0.1113168523,2024-06-04 16:21:36.275459
55.31591885,0.1042596847,-0.06950645149,0.1440727711,2024-06-04 16:21:36.315919
55.35641255,0.08295502514,-0.04660394415,0.1163767055,2024-06-04 16:21:36.356413
55.39691968,0.06031882018,-0.1038602218,0.06098458916,2024-06-04 16:21:36.396920
55.43739791,0.03288906813,-0.07163692266,0.0181089621,2024-06-04 16:21:36.437398
55.47792343,-0.05525896326,-0.09906667471,-0.06897383928,2024-06-04 16:21:36.477923
55.51837557,-0.06351451576,0.05406057462,-0.0817566365,2024-06-04 16:21:36.518376
55.55885932,-0.07762885839,-0.004260932095,-0.08468602598,2024-06-04 16:21:36.558859
55.59937546,0.0126496423,0.08894696087,-0.06204982474,2024-06-04 16:21:36.599375
55.63987489,0.0949388966,0.08921326697,0.006657706574,2024-06-04 16:21:36.639875
55.68035427,0.121836029,0.02183727734,0.0117175635,2024-06-04 16:21:36.680354
55.7208227,0.06165036187,-0.02130465955,-0.01038602181,2024-06-04 16:21:36.720823
55.76132963,-0.000932078925,-0.1290263534,-0.02450035885,2024-06-04 16:21:36.761330
55.80176552,-0.04966649041,-0.09347419441,-0.01304910425,2024-06-04 16:21:36.801766
55.84229229,-0.007057168987,-0.05352795869,0.0487344116,2024-06-04 16:21:36.842292
55.88280156,-0.05339480564,-0.07270215452,0.04793548584,2024-06-04 16:21:36.882802
55.92326812,-0.0683080703,0.0074566314,-0.01944050193,2024-06-04 16:21:36.923268
55.96375619,-0.03794892505,0.03328853101,-0.03595161438,2024-06-04 16:21:36.963756
56.00425672,-0.03288906813,-0.02450035885,-0.04793548584,2024-06-04 16:21:37.004257
56.04474208,-0.008921326138,0.07376738638,-0.009054481052,2024-06-04 16:21:37.044742
56.08521802,-0.005725627299,-0.05539211631,0.03142437339,2024-06-04 16:21:37.085218
56.12571052,-0.004926702939,-0.0519301109,0.06870753318,2024-06-04 16:21:37.125711
56.16621526,-0.001198387123,-0.02742975019,0.06684337556,2024-06-04 16:21:37.166215
56.20670291,-0.05153064802,-0.06497921795,0.02263620123,2024-06-04 16:21:37.206703
56.2471738,-0.07469946891,0.02716344222,-0.03169068322,2024-06-04 16:21:37.247174
56.28765729,-0.06431344151,0.0298265256,-0.04181039706,2024-06-04 16:21:37.287657
56.32815698,-0.09480573982,-0.02050573565,-0.0708379969,2024-06-04 16:21:37.328157
56.36864369,-0.09320788831,0.02450035885,-0.06737598777,2024-06-04 16:21:37.368644
56.40915698,-0.04380770773,0.05512581021,-0.006657706574,2024-06-04 16:21:37.409157
56.44963911,-0.07816147059,0.006924014539,0.05006595328,2024-06-04 16:21:37.449639
56.49012604,-0.07709623873,0.02716344222,0.07989247888,2024-06-04 16:21:37.490126
56.53060849,-0.08375394344,0.0298265256,0.07350108027,2024-06-04 16:21:37.530608
56.57109073,-0.07017222792,0.05139749497,0.04846810177,2024-06-04 16:21:37.571091
56.61159104,0.06351451576,0.07989247888,0.06764229387,2024-06-04 16:21:37.611591
56.65206552,0.09680305421,0.1259638071,0.06258244067,2024-06-04 16:21:37.652066
56.69254635,0.1178414002,0.1137136221,0.02503297664,2024-06-04 16:21:37.692546
56.73304078,0.123167567,0.1342193633,-0.04607132822,2024-06-04 16:21:37.733041
56.77353573,0.1210371032,0.1046591476,-0.06924014539,2024-06-04 16:21:37.773536
56.81402807,0.1918751001,0.1600512564,-0.03009283356,2024-06-04 16:21:37.814028
56.85454708,0.176429227,0.0705716908,-0.009587096982,2024-06-04 16:21:37.854547
56.89502724,0.1625811905,0.03967992961,-0.03888100386,2024-06-04 16:21:37.895027
56.9355188,0.1205044836,0.01864157803,-0.06977276504,2024-06-04 16:21:37.935519
56.97600729,0.08268871158,-0.000266308256,-0.07962616533,2024-06-04 16:21:37.976007
57.01649854,0.0126496423,-0.04633763805,-0.09320788831,2024-06-04 16:21:38.016499
57.05699067,-0.03422060981,-0.01517957076,-0.06284874678,2024-06-04 16:21:38.056991
57.09746979,-0.04913387448,-0.07962616533,-0.02343512699,2024-06-04 16:21:38.097470
57.13795,-0.03741630912,-0.09214265645,0.0149132628,2024-06-04 16:21:38.137950
57.17843614,-0.04913387448,-0.1189066395,0.02822867595,2024-06-04 16:21:38.178436
57.21891932,-0.05046541616,-0.08788172156,0.05139749497,2024-06-04 16:21:38.218919
57.25941937,-0.06724283099,-0.08761541545,0.0410114713,2024-06-04 16:21:38.259419
57.29991505,-0.06617759913,-0.1067896113,0.02876129188,2024-06-04 16:21:38.299915
57.34047776,-0.04567186534,-0.01864157803,-0.003195699072,2024-06-04 16:21:38.340478
57.38092244,-0.01904104091,-0.04553871229,-0.01438064594,2024-06-04 16:21:38.380922
57.42137088,0.02489982173,-0.01251648832,0.006391398143,2024-06-04 16:21:38.421371
57.46185989,-0.01824211515,0.03062544949,-0.0114512546,2024-06-04 16:21:38.461860
57.50234307,-0.01877473295,0.03062544949,-0.02583190054,2024-06-04 16:21:38.502343
57.54285578,0.01078548469,0.052196417,-0.01970681176,2024-06-04 16:21:38.542856
57.58331609,0.04354140162,0.06471290439,-0.02822867595,2024-06-04 16:21:38.583316
57.62380812,0.0384815447,0.03169068322,0.00186415785,2024-06-04 16:21:38.623808
57.66429646,-0.02383458801,0.003195699072,-0.01757634431,2024-06-04 16:21:38.664296
57.70479666,-0.01105179265,-0.001597849536,-0.003994623665,2024-06-04 16:21:38.704797
57.74527463,0.007856093347,0.07856093347,0.01944050193,2024-06-04 16:21:38.745275
57.7858125,0.04620448127,0.008255556226,0.05832150951,2024-06-04 16:21:38.785812
57.82625338,-0.01611164957,-0.008788172156,0.03808208182,2024-06-04 16:21:38.826253
57.86675536,-0.06351451576,-0.03621792421,0.02742975019,2024-06-04 16:21:38.866755
57.90727453,-0.01291595027,0.007722939365,0.007190322969,2024-06-04 16:21:38.907275
57.94774963,-0.01344856713,-0.05379426852,0.0260982085,2024-06-04 16:21:38.947750
57.98822151,-0.01557903271,-0.01251648832,0.006924014539,2024-06-04 16:21:38.988222
58.02870317,-0.07496577501,-0.04979964346,0.0007989247679,2024-06-04 16:21:39.028703
58.06921994,-0.02596505545,0.01917419396,0.03754946589,2024-06-04 16:21:39.069220
58.10969739,-0.05978620425,0.03967992961,0.02130465955,2024-06-04 16:21:39.109697
58.15016963,-0.05898727849,0.04713656008,0.005592473317,2024-06-04 16:21:39.150170
58.19067114,-0.0352858454,0.003462007269,-0.008521864191,2024-06-04 16:21:39.190671
58.23116224,-0.004926702939,0.06231613085,0.03994623944,2024-06-04 16:21:39.231162
58.27162109,-0.0126496423,0.02663082629,0.0929415822,2024-06-04 16:21:39.271621
58.31211067,-0.07017222792,0.05059856921,0.03035914153,2024-06-04 16:21:39.312111
58.35263776,-0.08375394344,0.05059856921,-0.004260932095,2024-06-04 16:21:39.352638
58.39310557,-0.0464707911,0.08601756394,-0.06444659829,2024-06-04 16:21:39.393106
58.43362453,0.02889444493,0.1139799356,0.004260932095,2024-06-04 16:21:39.433625
58.47413182,0.06963960826,0.1302247345,0.04074516147,2024-06-04 16:21:39.474132
58.51457047,-0.004394086078,0.08095771074,0.0117175635,2024-06-04 16:21:39.514570
58.55507838,0.02889444493,0.1656437367,0.04979964346,2024-06-04 16:21:39.555078
58.59557031,0.01611164957,0.09240896255,0.03062544949,2024-06-04 16:21:39.595570
58.63605521,0.02543243766,0.1129147038,0.005858781748,2024-06-04 16:21:39.636055
58.67655021,0.01051917579,0.052196417,-0.009054481052,2024-06-04 16:21:39.676550
58.71701901,0.06884068251,0.1153114736,0.05858781561,2024-06-04 16:21:39.717019
58.75753817,0.08322133124,0.1105179265,0.09560466558,2024-06-04 16:21:39.757538
58.79801573,-0.1131810099,0.05698996782,-0.07430000603,2024-06-04 16:21:39.798016
58.83850291,-0.04087831825,-0.1620485783,-0.1623148769,2024-06-04 16:21:39.838503
58.87896958,-0.01983996481,0.1464695334,-0.109585844,2024-06-04 16:21:39.878970
58.91947343,0.1026618332,0.2639114857,0.01997311972,2024-06-04 16:21:39.919473
58.95999437,0.2227668613,-0.04979964346,0.1999974996,2024-06-04 16:21:39.959994
59.00045885,0.1431406885,0.3555215299,0.297998935,2024-06-04 16:21:40.000459
59.04095218,0.06378082931,0.001331541222,0.1829537749,2024-06-04 16:21:40.040952
59.0814226,0.06138405204,0.3198362291,0.1501978636,2024-06-04 16:21:40.081423
59.12193375,0.01025286783,-0.05752258375,0.001331541222,2024-06-04 16:21:40.121934
59.16238505,0.1692388952,-0.3149095178,0.1001319066,2024-06-04 16:21:40.162385
59.20287328,0.1098521575,-0.3631113172,0.305721879,2024-06-04 16:21:40.202873
59.24337859,0.1620485783,-0.2723001838,0.518369019,2024-06-04 16:21:40.243379
59.28385864,0.1886793971,0.04660394415,0.5977289081,2024-06-04 16:21:40.283859
59.32434,0.2581858635,-0.02423405088,0.686409533,2024-06-04 16:21:40.324340
59.36486869,0.277892679,-0.2336854935,0.6059844494,2024-06-04 16:21:40.364869
59.40536161,0.3644428551,-0.3005288541,0.6299521923,2024-06-04 16:21:40.405362
59.44584161,0.4776238501,0.01731003635,0.6882736683,2024-06-04 16:21:40.445842
59.48633276,0.5424699187,0.4372781515,0.5122439265,2024-06-04 16:21:40.486333
59.5268188,0.3700353205,0.9817453623,0.634745717,2024-06-04 16:21:40.526819
59.56731635,0.4323514402,0.7119750977,0.8099765778,2024-06-04 16:21:40.567316
59.60781692,0.5603125691,0.4194355011,1.346454501,2024-06-04 16:21:40.607817
59.64828781,0.7802832127,0.1371487528,1.553109765,2024-06-04 16:21:40.648288
59.68878416,0.8583115339,-0.2254299372,1.783066869,2024-06-04 16:21:40.688784
59.72924906,0.8846760392,-0.3002625704,1.609300733,2024-06-04 16:21:40.729249
59.76975859,0.999987483,-0.8947957158,1.46735847,2024-06-04 16:21:40.769759
59.81028796,1.011705041,-1.26549685,1.188267469,2024-06-04 16:21:40.810288
59.85074276,0.7818810344,-0.818897903,0.8906679749,2024-06-04 16:21:40.850743
59.8912163,0.4714987576,-0.1271621883,0.5812177658,2024-06-04 16:21:40.891216
59.93169729,0.2438052148,0.2415415943,0.1611164957,2024-06-04 16:21:40.931697
59.9721788,-0.1488663107,0.5194342732,-0.5388747454,2024-06-04 16:21:40.972179
60.0126701,-0.2990641594,0.6581808329,-1.050053477,2024-06-04 16:21:41.012670
60.05317573,-0.4985290468,0.9971912503,-1.401979804,2024-06-04 16:21:41.053176
60.0936702,-0.685211122,0.7188991308,-1.410501719,2024-06-04 16:21:41.093670
60.13416286,-0.7058500051,0.3462007344,-1.664559722,2024-06-04 16:21:41.134163
60.17466067,-0.743932128,0.5713643432,-1.968284369,2024-06-04 16:21:41.174661
60.21514125,-0.7047848105,0.7170349956,-1.877073765,2024-06-04 16:21:41.215141
60.25561036,-0.5603125691,0.4780233204,-1.489861488,2024-06-04 16:21:41.255610
60.29607224,-0.426625818,0.142208606,-1.271621943,2024-06-04 16:21:41.296072
60.33662515,-0.417571336,0.116643019,-0.9099752903,2024-06-04 16:21:41.336625
60.37710151,-0.311580658,-0.1679073572,-0.3388772607,2024-06-04 16:21:41.377102
60.41758244,-0.02383458801,-0.2605826259,0.3605813682,2024-06-04 16:21:41.417582
60.45808437,0.2448704392,0.08362079412,0.7143719196,2024-06-04 16:21:41.458084
60.4985664,0.3846822679,0.08495233208,0.6294195652,2024-06-04 16:21:41.498566
60.53903885,0.572030127,0.234617576,0.5415378213,2024-06-04 16:21:41.539039
60.57952599,0.7294183373,0.2942706347,0.5173037648,2024-06-04 16:21:41.579526
60.62004937,0.8593767285,0.5641740561,0.6901378632,2024-06-04 16:21:41.620049
60.66054718,0.859110415,0.432484597,0.8062482476,2024-06-04 16:21:41.660547
60.7010288,0.9147688746,0.2726996541,1.172022581,2024-06-04 16:21:41.701029
60.74147927,0.8617734909,-0.1110505462,1.313698649,2024-06-04 16:21:41.741479
60.7819589,0.9941287041,-0.4533897936,1.430075288,2024-06-04 16:21:41.781959
60.82246328,1.101983547,-0.7453967929,1.535799742,2024-06-04 16:21:41.822463
