Time (s),Linear Acceleration x (m/s^2),Linear Acceleration y (m/s^2),Linear Acceleration z (m/s^2),Datetime
0.044018143,0.0,0.0,0.0,2024-06-04 16:20:41.044018
0.129093403,0.8542582989,0.7633733749,0.2547264099,2024-06-04 16:20:41.129093
0.169550434,-0.1596763134,-0.111471653,0.9761514664,2024-06-04 16:20:41.169550
0.210055851,-0.1958944798,-0.1009874344,0.6280193329,2024-06-04 16:20:41.210056
0.25053132,-0.2687175274,-0.5157694817,0.2975330353,2024-06-04 16:20:41.250531
0.291017518,-0.2755781412,0.1841874123,1.209849358,2024-06-04 16:20:41.291018
0.331523038,-1.234021068,-1.454047918,-0.3354825974,2024-06-04 16:20:41.331523
0.372038768,-2.088632107,-2.117744923,-3.472883224,2024-06-04 16:20:41.372039
0.412503768,-0.312644124,0.570836544,-1.330224514,2024-06-04 16:20:41.412504
0.452996007,2.592775106,-0.0304248333,-0.1885557175,2024-06-04 16:20:41.452996
0.493464236,2.324858189,-0.5060565472,1.404299736,2024-06-04 16:20:41.493464
0.533972466,2.692346096,-0.1654937267,3.298978806,2024-06-04 16:20:41.533972
0.574460903,2.061192989,-1.196632266,1.704901695,2024-06-04 16:20:41.574461
0.614953299,4.311611176,0.7593648434,2.191379547,2024-06-04 16:20:41.614953
0.655486945,2.252006769,-1.955778003,-3.985087872,2024-06-04 16:20:41.655487
0.695940382,0.3863102198,-0.5571813583,-0.6004600525,2024-06-04 16:20:41.695940
0.736390747,1.283116698,-0.7086417675,-0.2569522858,2024-06-04 16:20:41.736391
0.776880799,-0.3746681213,-0.4874317646,-2.295671463,2024-06-04 16:20:41.776881
0.817386736,1.417441845,-0.129509449,0.9397821426,2024-06-04 16:20:41.817387
0.857898143,1.266922832,-0.4182047844,-0.7132959366,2024-06-04 16:20:41.857898
0.898404757,-0.4394629002,-0.4345188141,-3.154705524,2024-06-04 16:20:41.898405
0.938928247,-0.06879150867,-0.7333464622,-1.210806847,2024-06-04 16:20:41.938928
0.979375799,0.6856548786,-0.1768937111,-1.259828091,2024-06-04 16:20:41.979376
1.019877049,-0.475998044,-1.339852095,-0.788869381,2024-06-04 16:20:42.019877
1.060356007,-0.429805994,-1.687813759,-0.3044419289,2024-06-04 16:20:42.060356
1.100790382,-0.2563583851,-0.6274018288,-3.270595074,2024-06-04 16:20:42.100790
1.141296788,-2.179899931,-2.149044037,-0.8727517128,2024-06-04 16:20:42.141297
1.181829341,-0.2470216751,-1.114698887,0.5475730896,2024-06-04 16:20:42.181829
1.222304705,-0.5759820938,-0.3906488419,-0.09822654724,2024-06-04 16:20:42.222305
1.262769288,-3.14277339,-2.443766832,3.884111404,2024-06-04 16:20:42.262769
1.30327283,-1.520307779,-0.7070083618,3.233559608,2024-06-04 16:20:42.303273
1.34376507,0.4817043543,0.687469244,3.41793251,2024-06-04 16:20:42.343765
1.384270851,-0.07667464018,1.771095514,0.3047208786,2024-06-04 16:20:42.384271
1.424786216,1.089533567,0.8818089962,1.655846596,2024-06-04 16:20:42.424786
1.465230799,-0.4991726875,0.1285665035,3.690018654,2024-06-04 16:20:42.465231
1.505714497,-0.3306391239,-1.149913907,2.830041885,2024-06-04 16:20:42.505714
1.546236893,-1.366793156,-2.090924501,1.319854736,2024-06-04 16:20:42.546237
1.586679966,-0.7603719234,-2.648179531,-2.481913567,2024-06-04 16:20:42.586680
1.627163403,0.7251561284,-1.402554989,-4.344108582,2024-06-04 16:20:42.627163
1.66765257,1.632421851,-0.2486326694,-4.250272751,2024-06-04 16:20:42.667653
1.70815507,7.39033556,0.05569720268,-0.7635040283,2024-06-04 16:20:42.708155
1.748670903,8.156350136,1.380406141,3.364200592,2024-06-04 16:20:42.748671
1.789143038,-0.5059828758,-1.70208168,2.535527229,2024-06-04 16:20:42.789143
1.829627986,-0.3539863825,-0.2740254402,-1.016677856,2024-06-04 16:20:42.829628
1.870135122,0.1304392219,1.408773065,-0.4180717468,2024-06-04 16:20:42.870135
1.910644028,-0.6640831828,0.5821070671,-0.6719646454,2024-06-04 16:20:42.910644
1.95112908,0.3640832901,-0.570750773,-0.2667284012,2024-06-04 16:20:42.951129
1.991592622,0.7253283262,-1.18742311,0.2955617905,2024-06-04 16:20:42.991593
2.032088507,3.249199629,0.5471644402,0.1612472534,2024-06-04 16:20:43.032089
2.072585538,-0.6551985741,1.908578157,-0.8673591614,2024-06-04 16:20:43.072586
2.113069288,0.3986997604,1.529103398,2.319274902,2024-06-04 16:20:43.113069
2.153571841,-0.258975029,-0.1587435007,-1.549703598,2024-06-04 16:20:43.153572
2.194069028,-1.207089901,-0.02211374044,-0.8746147156,2024-06-04 16:20:43.194069
2.234536997,-1.07770443,-0.7488878369,0.6036596298,2024-06-04 16:20:43.234537
2.275012361,0.4688515663,0.5865212679,-2.724999905,2024-06-04 16:20:43.275012
2.315529028,-0.7015709877,1.241558552,0.8001842499,2024-06-04 16:20:43.315529
2.356045747,0.3303775787,0.325928688,0.01302814484,2024-06-04 16:20:43.356046
2.396503091,0.8607997894,-0.2402572632,0.3093881607,2024-06-04 16:20:43.396503
2.43695908,-1.101531506,-0.4605059624,0.606900692,2024-06-04 16:20:43.436959
2.477447778,0.2938585281,1.102195263,-2.148391247,2024-06-04 16:20:43.477448
2.517937309,-0.6650242805,0.6586315632,-0.1296677589,2024-06-04 16:20:43.517937
2.55845033,0.4184207916,0.8341500759,1.984417915,2024-06-04 16:20:43.558450
2.598960382,-0.8358201981,0.9960436821,-0.2477526665,2024-06-04 16:20:43.598960
2.639452413,1.004690647,0.1995046139,1.693585873,2024-06-04 16:20:43.639452
2.679946476,1.892444134,0.5479528904,-1.607560635,2024-06-04 16:20:43.679946
2.720434184,4.280227661,-0.2285451889,-0.7228841782,2024-06-04 16:20:43.720434
2.760916893,-0.002924919128,-3.127959251,1.783243179,2024-06-04 16:20:43.760917
2.801394966,4.555745125,-2.991828918,0.7294650078,2024-06-04 16:20:43.801395
2.841892413,6.21147728,-2.966234922,-1.517130852,2024-06-04 16:20:43.841892
2.882385538,1.850450516,-6.896918297,0.1036396027,2024-06-04 16:20:43.882386
2.922878663,1.911529303,-4.381637573,-3.474505424,2024-06-04 16:20:43.922879
2.963368768,-3.152368546,-5.006225586,-2.475139618,2024-06-04 16:20:43.963369
3.003857466,-3.868191719,-4.951290131,-4.578297138,2024-06-04 16:20:44.003857
3.044338403,-8.046329498,-2.89725709,-2.482859612,2024-06-04 16:20:44.044338
3.084813768,-5.288296223,-2.006777048,0.09595870972,2024-06-04 16:20:44.084814
3.12530158,-5.174490452,-1.857060671,-5.06088829,2024-06-04 16:20:44.125302
3.165811997,-6.600863457,-0.6936483383,-5.309204578,2024-06-04 16:20:44.165812
3.206273663,-4.551186562,-0.4949431419,0.8353443146,2024-06-04 16:20:44.206274
3.246744393,-4.701510429,1.44505024,4.719343662,2024-06-04 16:20:44.246744
3.287278143,-5.620168209,1.40329361,3.309498549,2024-06-04 16:20:44.287278
3.327747257,-5.599425316,2.482783079,0.3088326454,2024-06-04 16:20:44.327747
3.368236684,6.657011986,5.616329193,11.01656342,2024-06-04 16:20:44.368237
3.408746684,-3.456729889,1.130317688,3.385205507,2024-06-04 16:20:44.408747
3.449215434,4.844690323,0.8830928802,-1.442381859,2024-06-04 16:20:44.449215
3.489705174,-4.078845024,-0.9815044403,1.160039425,2024-06-04 16:20:44.489705
3.530207882,-7.94265461,0.2992465496,-0.1567714214,2024-06-04 16:20:44.530208
3.570734028,5.461548805,0.2710008621,-4.416882515,2024-06-04 16:20:44.570734
3.611201788,2.465250015,-1.140522957,1.816436529,2024-06-04 16:20:44.611202
3.651685591,9.130409241,3.496364117,1.527066231,2024-06-04 16:20:44.651686
3.692167674,1.345838547,1.916026831,-0.4990684986,2024-06-04 16:20:44.692168
3.732675695,1.661692142,0.7817003727,-1.30724287,2024-06-04 16:20:44.732676
3.773180382,0.4721775055,-2.912680864,-2.366943359,2024-06-04 16:20:44.773180
3.813643143,-0.8900985718,-2.383975506,1.928832293,2024-06-04 16:20:44.813643
3.854153976,0.2159748077,-2.597966194,0.5479028225,2024-06-04 16:20:44.854154
3.894600122,-1.978574753,-4.136057854,-0.740336895,2024-06-04 16:20:44.894600
3.935118247,0.5736098289,0.1793339252,0.4132735729,2024-06-04 16:20:44.935118
3.975610122,-0.686671257,-1.486989975,-0.198321104,2024-06-04 16:20:44.975610
4.016098716,-3.441364288,-2.164319515,1.341161013,2024-06-04 16:20:45.016099
4.05658882,-1.787516117,0.8964958191,0.5273094177,2024-06-04 16:20:45.056589
4.097078976,1.395496845,0.5217032433,-0.09609222412,2024-06-04 16:20:45.097079
4.137569132,-1.98974514,-2.190910816,0.3741979599,2024-06-04 16:20:45.137569
4.178045434,-1.564243317,-1.222184658,-0.6073646545,2024-06-04 16:20:45.178045
4.218537986,0.2111287117,-0.1135268211,-1.323683739,2024-06-04 16:20:45.218538
4.258992309,0.7685050964,0.3683757782,-0.3994851112,2024-06-04 16:20:45.258992
4.299485591,0.170384407,-1.184798002,-0.5301699638,2024-06-04 16:20:45.299486
4.340001268,-0.7840733528,-1.443507433,-1.395345688,2024-06-04 16:20:45.340001
4.380506997,1.868343353,-0.4629848003,-1.798438072,2024-06-04 16:20:45.380507
4.420996841,1.754749298,-1.823299289,-1.421113491,2024-06-04 16:20:45.420997
4.461487309,2.989699364,1.853487492,-1.255097866,2024-06-04 16:20:45.461487
4.501974236,2.721340656,1.78057003,-0.2042484283,2024-06-04 16:20:45.501974
4.542453611,3.156047344,2.809022665,-0.18922472,2024-06-04 16:20:45.542454
4.582928038,2.444809914,3.572179794,0.3488764763,2024-06-04 16:20:45.582928
4.623438768,2.840230942,5.925970554,-0.8036503792,2024-06-04 16:20:45.623439
4.663928559,2.339344025,0.9529292583,-1.232391357,2024-06-04 16:20:45.663929
4.704401111,2.565028191,0.8206458092,-0.882475853,2024-06-04 16:20:45.704401
4.74490408,3.055207491,2.70869875,-0.932060957,2024-06-04 16:20:45.744904
4.78540533,4.550305367,-0.3063154221,-1.465257645,2024-06-04 16:20:45.785405
4.825851788,-14.15341568,-13.76860428,-0.1964013577,2024-06-04 16:20:45.825852
4.866389497,4.290137291,-5.955343723,-0.2450373173,2024-06-04 16:20:45.866389
4.906879445,0.2160916328,-3.068304062,1.392482519,2024-06-04 16:20:45.906879
4.947336632,-1.270306587,-1.415703773,3.342374802,2024-06-04 16:20:45.947337
4.987822674,-0.6433625221,-0.8209009171,0.976952076,2024-06-04 16:20:45.987823
5.028312309,-0.07453489304,-1.359177589,1.504397869,2024-06-04 16:20:46.028312
5.068810747,-0.2789130211,1.33607626,0.5905544758,2024-06-04 16:20:46.068811
5.109299497,-0.4542388916,-0.103621006,0.5129897594,2024-06-04 16:20:46.109299
5.149796841,0.212846756,-0.6640467644,0.1056876183,2024-06-04 16:20:46.149797
5.190305903,-0.579044342,-0.7193131447,0.1332759857,2024-06-04 16:20:46.190306
5.230753872,-1.785712719,-1.296773911,0.5001654625,2024-06-04 16:20:46.230754
5.271231632,-1.759362698,-1.580671787,-0.1045584679,2024-06-04 16:20:46.271232
5.311737622,-0.8835744858,-2.0952425,0.240875721,2024-06-04 16:20:46.311738
5.352245747,-0.4324979782,-2.385948181,-0.3747959137,2024-06-04 16:20:46.352246
5.392739913,-0.2047576904,-1.591268539,-0.9157886505,2024-06-04 16:20:46.392740
5.43322033,0.7266168594,-1.047300577,-2.232888222,2024-06-04 16:20:46.433220
5.473711059,2.213459492,-0.7410883904,-2.74511838,2024-06-04 16:20:46.473711
5.514208663,4.177630424,1.359817624,-2.22480154,2024-06-04 16:20:46.514209
5.554700122,2.663754463,1.095112085,-1.879205704,2024-06-04 16:20:46.554700
5.595173559,2.000210285,1.342265248,-2.093499184,2024-06-04 16:20:46.595174
5.635685643,3.316791534,2.442670345,-2.082968712,2024-06-04 16:20:46.635686
5.676184341,3.839800835,3.07078886,-2.299967289,2024-06-04 16:20:46.676184
5.716630747,2.280685902,1.681197643,-1.784790993,2024-06-04 16:20:46.716631
5.75709257,0.6262860298,-0.1803941727,-1.282250881,2024-06-04 16:20:46.757093
5.797582309,-0.401684761,-1.049253464,-0.236515522,2024-06-04 16:20:46.797582
5.838090538,-1.717429161,-1.39000988,0.3859219551,2024-06-04 16:20:46.838091
5.878588507,-2.589468002,-2.773545742,0.4089765549,2024-06-04 16:20:46.878589
5.919081997,-1.919483662,-0.9608726501,0.08717823029,2024-06-04 16:20:46.919082
5.959588507,-0.8489518166,0.2363357544,-0.1432564259,2024-06-04 16:20:46.959589
6.000085174,-1.157951832,-0.3681945801,-0.06086063385,2024-06-04 16:20:47.000085
6.040566111,-1.900415421,-1.288720608,0.8370292187,2024-06-04 16:20:47.040566
6.081048611,-1.312396526,-0.640499115,1.493087053,2024-06-04 16:20:47.081049
6.121532986,-0.7923407555,-0.383916378,1.372800589,2024-06-04 16:20:47.121533
6.162031945,-0.2250404358,-0.8597979546,1.151844025,2024-06-04 16:20:47.162032
6.20253158,0.001303672791,-0.8106107712,0.640802145,2024-06-04 16:20:47.202532
6.242967361,-0.2712025642,-1.210374355,0.7301092148,2024-06-04 16:20:47.242967
6.283483663,-1.17031908,-0.238219738,0.1771316528,2024-06-04 16:20:47.283484
6.323994861,-1.600859642,-0.7058410645,0.9631462097,2024-06-04 16:20:47.323995
6.364479653,-1.422354698,-1.646355152,0.1221041679,2024-06-04 16:20:47.364480
6.404976632,-0.6165261269,-1.804452419,0.186029911,2024-06-04 16:20:47.404977
6.445455018,0.8036441803,-0.4432768822,-1.061839581,2024-06-04 16:20:47.445455
6.486018091,1.227602005,-0.2439851761,-0.8498921394,2024-06-04 16:20:47.486018
6.526465174,1.958580494,-1.178073883,-1.76688242,2024-06-04 16:20:47.526465
6.566912934,1.921291828,-0.9548096657,-1.869522095,2024-06-04 16:20:47.566913
6.607394601,2.593808651,-0.09558677673,-2.179749012,2024-06-04 16:20:47.607395
6.647866424,2.492916107,1.297401428,-1.88601923,2024-06-04 16:20:47.647866
6.688392882,4.665747643,2.324602365,-2.62477994,2024-06-04 16:20:47.688393
6.728889288,4.985332489,3.165905714,-1.779370785,2024-06-04 16:20:47.728889
6.769379028,3.673018694,2.970700264,-1.140337467,2024-06-04 16:20:47.769379
6.80985033,1.217636108,1.52467823,-0.5219659805,2024-06-04 16:20:47.809850
6.850340122,0.4445109367,0.1896562576,-0.1574807167,2024-06-04 16:20:47.850340
6.890890747,0.3807911873,0.02640342712,-0.4926753044,2024-06-04 16:20:47.890891
6.931330278,-1.001200199,-0.3923692703,0.259676218,2024-06-04 16:20:47.931330
6.971847778,-3.18159008,-3.018889427,0.8122742176,2024-06-04 16:20:47.971848
7.012337205,-1.814094067,-1.200013638,1.431855202,2024-06-04 16:20:48.012337
7.052846632,-2.222258568,-0.5730419159,1.535580397,2024-06-04 16:20:48.052847
7.09328033,-1.49292326,-1.121314049,1.819235325,2024-06-04 16:20:48.093280
7.133781216,-2.030797958,-1.620649815,2.298470497,2024-06-04 16:20:48.133781
7.174255278,-2.670223713,-1.243275642,2.061727285,2024-06-04 16:20:48.174255
7.214755434,-0.6710510254,-1.107841015,1.674868345,2024-06-04 16:20:48.214755
7.255202153,0.9033637047,-1.365339279,1.147553444,2024-06-04 16:20:48.255202
7.295696841,-1.242784023,1.361378193,1.451200485,2024-06-04 16:20:48.295697
7.33628507,-1.40092659,-1.942396641,1.217230797,2024-06-04 16:20:48.336285
7.376774445,-2.24695158,-1.518033504,0.6355364323,2024-06-04 16:20:48.376774
7.417192049,-2.800337791,-2.644177914,1.554731846,2024-06-04 16:20:48.417192
7.457687153,-3.59140873,-3.825228214,0.9032940865,2024-06-04 16:20:48.457687
7.498198403,1.160337925,-2.658593655,-1.359938622,2024-06-04 16:20:48.498198
7.538687778,0.4022154808,-1.738542557,-1.837622166,2024-06-04 16:20:48.538688
7.579152257,2.479130745,-0.6497421265,-4.095408916,2024-06-04 16:20:48.579152
7.619678038,3.972723722,0.2357578278,-3.137926102,2024-06-04 16:20:48.619678
7.660162882,2.879567623,0.6681010723,-2.410619259,2024-06-04 16:20:48.660163
7.700646893,2.120558739,1.066222906,-1.658965588,2024-06-04 16:20:48.700647
7.741160018,3.22995472,1.728637934,-1.371465206,2024-06-04 16:20:48.741160
7.781649393,4.563756943,1.910301089,-1.453269958,2024-06-04 16:20:48.781649
7.822097726,3.831258774,1.332711935,-1.028813362,2024-06-04 16:20:48.822098
7.862590591,1.556111813,0.0434679985,-0.9101309776,2024-06-04 16:20:48.862591
7.903155122,0.1495461464,-0.8067417145,-0.2425851822,2024-06-04 16:20:48.903155
7.943563143,-0.796939373,-0.7390637398,0.1976237297,2024-06-04 16:20:48.943563
7.984048403,-2.671746731,-1.882897854,0.6051819324,2024-06-04 16:20:48.984048
8.024537726,-2.585095882,-2.838512421,1.524944067,2024-06-04 16:20:49.024538
8.06503158,-2.732022285,-2.021417618,1.846396446,2024-06-04 16:20:49.065032
8.105539809,-2.338831425,-0.9844260216,1.781455517,2024-06-04 16:20:49.105540
8.14602283,-1.072005749,-0.4794836044,1.884854555,2024-06-04 16:20:49.146023
8.186495382,0.06343603134,-0.1868877411,0.1704070568,2024-06-04 16:20:49.186495
8.226984653,0.3137660027,0.1304941177,0.4384202957,2024-06-04 16:20:49.226985
8.267441216,-0.4271388054,0.05778408051,0.5263495445,2024-06-04 16:20:49.267441
8.307952413,-0.961517334,-0.989979744,0.740552187,2024-06-04 16:20:49.307952
8.348476372,-1.51074028,-1.106460094,0.2648153305,2024-06-04 16:20:49.348476
8.388959288,-1.754415512,-1.262954235,0.4930005074,2024-06-04 16:20:49.388959
8.429459236,-1.436069489,-1.719508648,-0.3060097694,2024-06-04 16:20:49.429459
8.469957518,-1.223562241,-2.758723259,0.3693695068,2024-06-04 16:20:49.469958
8.510412778,0.3799743652,-2.12030983,-0.799038887,2024-06-04 16:20:49.510413
8.550902049,1.154167175,-0.984146595,-1.639305592,2024-06-04 16:20:49.550902
8.591395382,0.7794361115,-0.8054842949,-1.720298767,2024-06-04 16:20:49.591395
8.631907622,1.162882328,-1.872285128,-2.318833828,2024-06-04 16:20:49.631908
8.672402965,3.55287075,0.1968927383,-2.379294395,2024-06-04 16:20:49.672403
8.712862496,3.198181868,1.902899146,-2.041503429,2024-06-04 16:20:49.712862
8.753379007,4.966282845,3.239953518,-2.959652901,2024-06-04 16:20:49.753379
8.793859319,5.209296227,2.897001982,-3.044132948,2024-06-04 16:20:49.793859
8.834336559,3.322183132,1.9099406,-2.314863205,2024-06-04 16:20:49.834337
8.874827028,0.3265566826,0.3068127632,-0.5694823265,2024-06-04 16:20:49.874827
8.915324163,-0.5450053215,-1.471384525,0.3622727394,2024-06-04 16:20:49.915324
8.955854632,-0.1587152481,-2.037870884,0.4480204582,2024-06-04 16:20:49.955855
8.996308174,-1.273504257,-2.812039375,0.4540216923,2024-06-04 16:20:49.996308
9.036780569,-1.982871532,-1.711832523,1.090214729,2024-06-04 16:20:50.036781
9.077235205,-0.6171169281,0.1189603806,1.010048866,2024-06-04 16:20:50.077235
9.117737549,-0.6298289299,-0.6645526886,0.5349709988,2024-06-04 16:20:50.117738
9.158251507,-1.619008541,-0.9301667213,1.572039366,2024-06-04 16:20:50.158252
9.198763069,-3.162404537,-1.878522873,1.976194143,2024-06-04 16:20:50.198763
9.239209111,-1.950860023,-0.5516777039,1.670311689,2024-06-04 16:20:50.239209
9.279688746,-0.5866570473,-0.04588603973,0.4107022285,2024-06-04 16:20:50.279689
9.32020833,-0.1613717079,-0.7679481506,0.4809334278,2024-06-04 16:20:50.320208
9.360703486,-0.4900202751,-0.4021701813,-0.02827858925,2024-06-04 16:20:50.360703
9.401182444,0.2022709846,-0.3904614449,0.283370018,2024-06-04 16:20:50.401182
9.441669944,2.138742924,0.2859067917,-0.9483861923,2024-06-04 16:20:50.441670
9.482178694,1.94892168,-0.7537407875,-0.7567622662,2024-06-04 16:20:50.482179
9.522666976,2.28465724,-0.527680397,-1.400403857,2024-06-04 16:20:50.522667
9.56313958,3.298867464,0.9614849091,-1.194870234,2024-06-04 16:20:50.563140
9.60363359,1.769222021,0.6095991135,-0.7081818581,2024-06-04 16:20:50.603634
9.644123434,-0.6435322762,0.02023839951,-0.1724028587,2024-06-04 16:20:50.644123
9.684609059,-2.097552299,-0.5234298706,0.8006956577,2024-06-04 16:20:50.684609
9.725104528,-3.508610725,-0.8898124695,0.7068114281,2024-06-04 16:20:50.725105
9.765587444,-1.887247086,-1.168845654,1.315155506,2024-06-04 16:20:50.765587
9.806072496,-1.278796673,-0.9531025887,1.12177372,2024-06-04 16:20:50.806072
9.846562757,0.3742599487,-0.01640033722,-0.3956415653,2024-06-04 16:20:50.846563
9.887032861,-0.1777281761,-0.1203446388,0.4549329281,2024-06-04 16:20:50.887033
9.927513851,0.3769440651,-0.4936909676,0.1650240421,2024-06-04 16:20:50.927514
9.968034111,-0.3223400116,-1.697426796,0.2772808075,2024-06-04 16:20:50.968034
10.00851229,-2.368611813,-2.922684193,1.199539661,2024-06-04 16:20:51.008512
10.04900255,-2.08954668,-2.512171745,-0.3072657585,2024-06-04 16:20:51.049003
10.08948833,-1.406252384,-2.508527756,-0.6549854279,2024-06-04 16:20:51.089488
10.12999448,0.1277618408,-2.401523829,-2.335711956,2024-06-04 16:20:51.129994
10.17047255,2.794142723,-0.922683239,-2.985620022,2024-06-04 16:20:51.170473
10.21099182,4.174491882,1.103469849,-2.273097992,2024-06-04 16:20:51.210992
10.25147734,2.997086048,0.1706581116,-2.181111336,2024-06-04 16:20:51.251477
10.29192177,2.425930023,1.394030094,-2.236445427,2024-06-04 16:20:51.291922
10.33241151,4.191072464,3.44959259,-2.115525484,2024-06-04 16:20:51.332412
10.37294994,3.425243616,2.469557285,-1.847036839,2024-06-04 16:20:51.372950
10.41342338,2.539186001,1.42774868,-1.576581001,2024-06-04 16:20:51.413423
10.45390515,0.7180747986,0.003405094147,-0.7825858593,2024-06-04 16:20:51.453905
10.49441073,-0.6405920982,-0.9276518822,-0.2804765701,2024-06-04 16:20:51.494411
10.53491281,-0.7091464996,-0.2487835884,1.203966379,2024-06-04 16:20:51.534913
10.57539484,-1.089149475,-3.166937351,1.072057486,2024-06-04 16:20:51.575395
10.61589021,-0.7799873352,-2.339137077,1.567509651,2024-06-04 16:20:51.615890
10.65636484,-1.024383545,-1.286757946,1.724935293,2024-06-04 16:20:51.656365
10.69680635,-2.671414375,-2.505111217,2.013308287,2024-06-04 16:20:51.696806
10.73729198,-3.212104321,0.1170840263,2.007005453,2024-06-04 16:20:51.737292
10.77778166,-1.213355064,-1.250055313,0.7663040161,2024-06-04 16:20:51.777782
10.81828536,-0.6249732971,-0.9746451378,1.540298939,2024-06-04 16:20:51.818285
10.8587913,0.1812825203,-1.115329742,0.8034498692,2024-06-04 16:20:51.858791
10.8992964,-1.553937912,-1.474273682,1.06677103,2024-06-04 16:20:51.899296
10.9397826,-1.144668579,-0.8773736954,0.3858218193,2024-06-04 16:20:51.939783
10.98028,-2.242297173,-1.045489788,0.4838542938,2024-06-04 16:20:51.980280
11.0207738,-1.547358036,-2.1941576,0.1315736771,2024-06-04 16:20:52.020774
11.06121302,-0.7959465981,-2.072104931,-1.205236673,2024-06-04 16:20:52.061213
11.1017789,0.4317317009,-1.713788033,-1.239301682,2024-06-04 16:20:52.101779
11.14222192,0.4534516335,-1.648019791,-1.714183331,2024-06-04 16:20:52.142222
11.18272432,0.3428287506,-1.523454666,-3.013101339,2024-06-04 16:20:52.182724
11.2232089,1.635729313,-0.008164644241,-2.659939528,2024-06-04 16:20:52.223209
11.26368744,3.133509874,0.004800796509,-2.947448015,2024-06-04 16:20:52.263687
11.30417062,3.296533585,1.984234214,-3.323612213,2024-06-04 16:20:52.304171
11.34468041,3.450619698,2.931762218,-3.283819199,2024-06-04 16:20:52.344680
11.38517052,3.050004721,2.051552773,-2.712649107,2024-06-04 16:20:52.385171
11.42565156,2.757350206,1.148010492,-2.202841043,2024-06-04 16:20:52.425652
11.4661613,2.638429642,0.4409017563,-1.731812954,2024-06-04 16:20:52.466161
11.50665146,1.660819054,-0.6030950546,-0.7505755424,2024-06-04 16:20:52.506651
11.54714156,0.3704371452,-1.896461487,0.4987220764,2024-06-04 16:20:52.547142
11.58758885,-1.076597214,-1.798309803,1.259588242,2024-06-04 16:20:52.587589
11.62809541,-2.025854588,-1.453897953,0.4387049675,2024-06-04 16:20:52.628095
11.66861239,-2.558214664,-2.380577564,0.8548130989,2024-06-04 16:20:52.668612
11.7091038,-2.406095982,-1.28600502,1.12955761,2024-06-04 16:20:52.709104
11.7495988,-3.331032276,-0.09669685364,0.5721335411,2024-06-04 16:20:52.749599
11.79004401,-2.674053192,0.3089194298,1.140292168,2024-06-04 16:20:52.790044
11.83054609,-1.434524536,0.1211094856,0.9466600418,2024-06-04 16:20:52.830546
11.87105843,0.5702066422,-0.2278308868,0.5255601406,2024-06-04 16:20:52.871058
11.91155354,-0.04190826416,-0.4418330193,0.2131145,2024-06-04 16:20:52.911554
11.95205401,-1.061729908,-0.2321066856,0.2132687569,2024-06-04 16:20:52.952054
11.99251672,-2.834004402,0.08361387253,-0.2677381039,2024-06-04 16:20:52.992517
12.03296369,-2.122668743,-1.203485012,-0.3116846085,2024-06-04 16:20:53.032964
12.07345791,-2.915621758,-1.707284451,-0.112443924,2024-06-04 16:20:53.073458
12.11397135,-0.3488535881,-1.752020359,-0.6665506363,2024-06-04 16:20:53.113971
12.15448411,-0.4092407227,-1.527277946,-0.8698849678,2024-06-04 16:20:53.154484
12.19495375,0.003688812256,-1.819266796,-0.7332129478,2024-06-04 16:20:53.194954
12.23543833,-1.224785805,-1.853950977,-1.657740593,2024-06-04 16:20:53.235438
12.27591916,0.7167453766,-1.380624056,-2.489788771,2024-06-04 16:20:53.275919
12.31639166,2.447995186,-0.3190727234,-2.601499557,2024-06-04 16:20:53.316392
12.35688932,3.696470737,1.323954821,-2.740527868,2024-06-04 16:20:53.356889
12.39738343,4.150407791,2.082043886,-2.951230288,2024-06-04 16:20:53.397383
12.43786239,4.07704401,2.357884169,-2.367619991,2024-06-04 16:20:53.437862
12.47838458,3.784303188,1.818381548,-1.256691456,2024-06-04 16:20:53.478385
12.51887312,2.082372189,0.4851875305,-0.8791770935,2024-06-04 16:20:53.518873
12.55935687,0.5972566605,-0.479593277,-0.2894425392,2024-06-04 16:20:53.559357
12.59984047,-0.3489012718,-0.6757540703,0.3040966988,2024-06-04 16:20:53.599840
12.64034156,-0.9507269859,-0.5665798187,0.442363739,2024-06-04 16:20:53.640342
12.68082974,-1.945969582,-0.9074969292,0.7086904049,2024-06-04 16:20:53.680830
12.72132109,-2.67925024,-2.963425636,0.6927530766,2024-06-04 16:20:53.721321
12.76181349,-2.491436481,-2.061716557,0.7114779949,2024-06-04 16:20:53.761813
12.80230302,-2.379463673,-0.8544411659,1.652192354,2024-06-04 16:20:53.802303
12.84278646,-2.452823639,-0.544359684,1.762286663,2024-06-04 16:20:53.842786
12.88326208,0.09375667572,0.484790802,1.309388876,2024-06-04 16:20:53.883262
12.92375396,0.06318759918,0.3481845856,1.029105902,2024-06-04 16:20:53.923754
12.96427213,0.83680439,0.3207159042,0.9210131168,2024-06-04 16:20:53.964272
13.00475234,0.1831712723,0.1694264412,0.5628266335,2024-06-04 16:20:54.004752
13.04523099,-1.681072712,-0.5036282539,0.4613547325,2024-06-04 16:20:54.045231
13.08571177,-2.857848644,-0.6241054535,1.083210707,2024-06-04 16:20:54.085712
13.12621151,-1.685710907,-1.783129692,0.7406158447,2024-06-04 16:20:54.126212
13.16668802,-1.086837292,-2.536525726,0.9782133102,2024-06-04 16:20:54.166688
13.20715494,0.7217135429,-1.922815323,0.3000984192,2024-06-04 16:20:54.207155
13.24763812,0.1752114296,-2.096322536,0.5200018883,2024-06-04 16:20:54.247638
13.28818494,-0.1112408638,-1.66736722,-0.8300766945,2024-06-04 16:20:54.288185
13.32867041,1.665322781,-0.925412178,-1.455429077,2024-06-04 16:20:54.328670
13.3691625,3.82433176,0.3592367172,-1.805967093,2024-06-04 16:20:54.369162
13.40962927,4.687271595,1.657055855,-1.757455587,2024-06-04 16:20:54.409629
13.45011583,4.916958332,2.825238228,-2.109420061,2024-06-04 16:20:54.450116
13.49059838,5.19270134,2.556947708,-1.449076891,2024-06-04 16:20:54.490598
13.53114625,3.26326561,1.280659676,-0.5416822433,2024-06-04 16:20:54.531146
13.57163588,1.726804256,0.1483674049,-0.115790844,2024-06-04 16:20:54.571636
13.61208349,0.6743803024,-1.101693153,0.727111578,2024-06-04 16:20:54.612083
13.65260567,-0.128713131,-1.472956657,1.207857609,2024-06-04 16:20:54.652606
13.69303979,-1.518436909,-1.581446648,1.554693222,2024-06-04 16:20:54.693040
13.73355177,-1.994971275,-1.577093124,1.650923491,2024-06-04 16:20:54.733552
13.7740376,-1.25187397,-1.168043613,1.883290529,2024-06-04 16:20:54.774038
13.81450854,-2.685555935,-1.878556252,2.354072809,2024-06-04 16:20:54.814509
13.85502192,-2.724789143,-1.418277264,2.597695589,2024-06-04 16:20:54.855022
13.89553099,-2.200952053,-0.2665762901,2.635625601,2024-06-04 16:20:54.895531
13.93602484,-0.000816822052,-0.5824418068,1.71462965,2024-06-04 16:20:54.936025
13.97644963,-0.02070665359,0.5426211357,1.210027695,2024-06-04 16:20:54.976450
14.01695396,0.3751769066,-0.2009835243,1.36808753,2024-06-04 16:20:55.016954
14.05747422,-1.096206665,-0.6888232231,1.155453205,2024-06-04 16:20:55.057474
14.09795635,-1.240142822,-0.7111878395,1.153802395,2024-06-04 16:20:55.097956
14.13841526,-2.144238472,-1.266117096,0.598608017,2024-06-04 16:20:55.138415
14.17894125,-1.044521332,-1.966934204,0.2271237373,2024-06-04 16:20:55.178941
14.21940515,-0.0445189476,-1.874117374,0.6695480347,2024-06-04 16:20:55.219405
14.2599164,-1.145704746,-2.769578934,-0.3311240673,2024-06-04 16:20:55.259916
14.30038963,-0.5509853363,-1.438442707,-0.6873869896,2024-06-04 16:20:55.300390
14.34089828,2.446013451,-1.11068821,-2.528368711,2024-06-04 16:20:55.340898
14.38137781,4.504673958,0.9339076281,-2.804753542,2024-06-04 16:20:55.381378
14.42185802,5.428368568,1.81796813,-2.349153757,2024-06-04 16:20:55.421858
14.46234609,3.678594589,1.705436945,-2.423024654,2024-06-04 16:20:55.462346
14.50282937,4.01131916,2.217221737,-1.509718657,2024-06-04 16:20:55.502829
14.54333302,3.380388737,1.648580551,-1.50685358,2024-06-04 16:20:55.543333
14.58379942,2.022719383,0.6369585991,-0.5629425049,2024-06-04 16:20:55.583799
14.62429323,1.366322041,0.2111477852,-0.3801355362,2024-06-04 16:20:55.624293
14.66480515,-0.9318170547,-1.285514355,0.6774606705,2024-06-04 16:20:55.664805
14.70527578,-2.726179123,-2.265659332,0.8601608276,2024-06-04 16:20:55.705276
14.7457902,-3.576966286,-2.406944752,1.734171629,2024-06-04 16:20:55.745790
14.78626088,-3.842772007,-2.287619114,1.846063614,2024-06-04 16:20:55.786261
14.82675338,-1.259636402,-0.07929706573,0.07096743584,2024-06-04 16:20:55.826753
14.86720604,-0.4052081108,1.226465702,-0.9773375988,2024-06-04 16:20:55.867206
14.90775458,-0.6621456146,-0.3790311813,0.2056722641,2024-06-04 16:20:55.907755
14.94823573,-1.281004429,-0.9147238731,1.493088484,2024-06-04 16:20:55.948236
14.988715,-1.712239265,-0.2656431198,1.105184555,2024-06-04 16:20:55.988715
15.02917135,-2.0913167,-0.5880060196,0.4893939495,2024-06-04 16:20:56.029171
15.06965854,-1.043994904,-0.5711340904,-0.0306251049,2024-06-04 16:20:56.069659
15.1101864,-0.4749312401,-1.197941303,-0.01644134521,2024-06-04 16:20:56.110186
15.15069729,-1.999881744,-1.566525936,0.2640719414,2024-06-04 16:20:56.150697
15.19118724,-1.236967564,-1.704815865,-0.3030412197,2024-06-04 16:20:56.191187
15.2316714,-0.5203762054,-2.218322754,0.1565732956,2024-06-04 16:20:56.231671
15.27213422,0.07126998901,-2.060124874,-1.074756622,2024-06-04 16:20:56.272134
15.31261104,1.153501511,-1.675412893,-1.50089407,2024-06-04 16:20:56.312611
15.35310531,1.279798508,-1.07716012,-2.567264557,2024-06-04 16:20:56.353105
15.39362026,1.89659214,0.5908956528,-2.397575617,2024-06-04 16:20:56.393620
15.43411463,3.0719347,0.4286756516,-3.035407543,2024-06-04 16:20:56.434115
15.4745714,4.121760368,2.290438175,-2.271594048,2024-06-04 16:20:56.474571
15.51506099,4.510297298,2.987171173,-2.607296467,2024-06-04 16:20:56.515061
15.55556505,3.565195322,1.548851848,-2.267918587,2024-06-04 16:20:56.555565
15.59606172,2.76021719,0.7715294361,-1.319124222,2024-06-04 16:20:56.596062
15.63655307,0.07578849792,-0.5940003395,-0.1790494919,2024-06-04 16:20:56.636553
15.67699125,-1.573342323,-2.257856846,0.6491122246,2024-06-04 16:20:56.676991
15.71749047,-1.240769863,-1.689485073,0.4952626228,2024-06-04 16:20:56.717490
15.75798922,-1.640985489,-1.234701633,0.4600093365,2024-06-04 16:20:56.757989
15.79847791,-2.175189972,-0.7030797005,0.2466688156,2024-06-04 16:20:56.798478
15.83898567,-1.254105568,-1.010253906,0.7659015656,2024-06-04 16:20:56.838986
15.87946661,-2.573441505,-1.569049835,1.37336874,2024-06-04 16:20:56.879467
15.91997359,-3.612678051,-0.7768325806,1.111856461,2024-06-04 16:20:56.919974
15.96048942,-1.990129948,-0.1688866615,0.685716629,2024-06-04 16:20:56.960489
16.00095015,-0.5832448006,-0.426718235,0.04568171501,2024-06-04 16:20:57.000950
16.04139489,-0.6314301491,0.525159359,0.4036204815,2024-06-04 16:20:57.041395
16.08190187,-0.3916034698,-0.3541674614,-0.2569313049,2024-06-04 16:20:57.081902
16.12241307,-2.266727448,-1.428614616,-0.03829646111,2024-06-04 16:20:57.122413
16.16293052,-3.53571558,-2.047605038,0.3196210861,2024-06-04 16:20:57.162931
16.20339312,-2.247349262,-1.75444746,-0.3586659431,2024-06-04 16:20:57.203393
16.24386666,0.2158370018,-1.882380009,-1.16408515,2024-06-04 16:20:57.243867
16.28432234,0.4691228867,-1.214988232,-2.13188076,2024-06-04 16:20:57.284322
16.32485442,-1.003527164,-1.868207693,-2.311912537,2024-06-04 16:20:57.324854
16.36536578,0.3400673866,-1.836687088,-2.792603731,2024-06-04 16:20:57.365366
16.40584994,2.832577705,-0.2710065842,-2.115064859,2024-06-04 16:20:57.405850
16.44630156,2.801686287,0.5555400848,-2.555811644,2024-06-04 16:20:57.446302
16.48677203,5.219029427,1.28745234,-2.794565201,2024-06-04 16:20:57.486772
16.52726729,5.26777029,3.121781588,-2.298321247,2024-06-04 16:20:57.527267
16.56775958,3.980354071,2.001152039,-1.950404167,2024-06-04 16:20:57.567760
16.60833646,1.739620209,1.187471151,-1.120863438,2024-06-04 16:20:57.608336
16.64876255,-0.2000412941,0.187766552,-0.7875347137,2024-06-04 16:20:57.648763
16.68926817,-0.6373133659,-1.566919327,-0.7112753391,2024-06-04 16:20:57.689268
16.72976718,-1.864517212,-3.041224957,-0.4545686245,2024-06-04 16:20:57.729767
16.77022364,-1.438148975,-1.940525532,0.714908123,2024-06-04 16:20:57.770224
16.8107226,-1.321359158,-0.8438014984,0.7120153904,2024-06-04 16:20:57.810723
16.85121323,-0.5946483612,-0.829662323,1.278142452,2024-06-04 16:20:57.851213
16.89174,-0.6505403519,-1.542636395,1.16159749,2024-06-04 16:20:57.891740
16.93220567,-3.799751759,-0.6126790047,1.738290787,2024-06-04 16:20:57.932206
16.97268797,-2.853919506,-0.5991306305,1.442911863,2024-06-04 16:20:57.972688
17.01320854,-1.116725922,-0.4070448875,1.058338165,2024-06-04 16:20:58.013209
17.05362208,0.01978826523,-0.264755249,0.7560162544,2024-06-04 16:20:58.053622
17.09413375,-0.3805317879,-0.299141407,1.09599638,2024-06-04 16:20:58.094134
17.1346301,0.5538449287,-0.4880247116,0.4914543629,2024-06-04 16:20:58.134630
17.17514937,1.189354897,-0.8618822098,0.1123015881,2024-06-04 16:20:58.175149
17.21562203,1.088638306,-0.2404885292,-0.4389843941,2024-06-04 16:20:58.215622
17.25611104,1.603765011,-0.5419545174,-1.136702061,2024-06-04 16:20:58.256111
17.2965788,2.45661521,-0.2087473869,-1.065279722,2024-06-04 16:20:58.296579
17.33705974,1.519482136,0.1828155518,-0.7220723629,2024-06-04 16:20:58.337060
17.37754843,0.3243312836,0.06763935089,-0.3043196201,2024-06-04 16:20:58.377548
17.41806291,0.765443325,0.6523294449,-0.0198559761,2024-06-04 16:20:58.418063
17.45853974,-0.2904019356,0.3232212067,0.4451994896,2024-06-04 16:20:58.458540
17.49902437,-2.600749969,-0.7804021835,0.8440995216,2024-06-04 16:20:58.499024
17.53954859,-1.561606407,-0.765288353,0.5670192242,2024-06-04 16:20:58.539549
17.58000218,-0.7620630264,-0.7722444534,0.6487205029,2024-06-04 16:20:58.580002
17.62051359,-0.3454899788,0.6620445251,-0.03454041481,2024-06-04 16:20:58.620514
17.66098724,0.7890267372,0.6942954063,-0.1757674217,2024-06-04 16:20:58.660987
17.70150151,0.2690963745,0.3587551117,-0.3854279518,2024-06-04 16:20:58.701502
17.74196729,-0.1047620773,-0.2395377159,-0.3621490002,2024-06-04 16:20:58.741967
17.78246698,0.4876537323,-0.8130326271,-0.1856818199,2024-06-04 16:20:58.782467
17.82294323,0.9814610481,-0.5346040726,-0.2433216572,2024-06-04 16:20:58.822943
17.86346229,1.292746067,0.2131361961,-0.0814230442,2024-06-04 16:20:58.863462
17.90392302,1.586616516,-0.1325306892,0.2164311409,2024-06-04 16:20:58.903923
17.94441354,0.4054069519,-0.4299049377,0.218010664,2024-06-04 16:20:58.944414
17.98491213,0.2557735443,0.2994565964,0.08607530594,2024-06-04 16:20:58.984912
18.02544208,-0.2395553589,-1.069421768,0.2510781288,2024-06-04 16:20:59.025442
18.06586916,-0.3337922096,-0.134349823,-0.07733941078,2024-06-04 16:20:59.065869
18.10638838,-0.7238688469,-0.5254888535,0.4852993488,2024-06-04 16:20:59.106388
18.14687802,-0.7934780121,-0.4675130844,1.00513196,2024-06-04 16:20:59.146878
18.1873151,1.300873756,0.5633168221,0.697789669,2024-06-04 16:20:59.187315
18.22781698,0.5567135811,0.06997251511,0.5944070816,2024-06-04 16:20:59.227817
18.26834359,-2.703784943,-0.5481600761,1.52051115,2024-06-04 16:20:59.268344
18.30885661,-1.626322746,-0.9371705055,1.014621258,2024-06-04 16:20:59.308857
18.34933791,-0.5472488403,-0.5199913979,-0.05168867111,2024-06-04 16:20:59.349338
18.38982192,-3.779904366,-0.4919161797,0.7299573421,2024-06-04 16:20:59.389822
18.43030849,-0.8750982285,-2.068799496,-1.154001713,2024-06-04 16:20:59.430308
18.47077515,-1.221892834,-1.174824715,0.4131650925,2024-06-04 16:20:59.470775
18.51127562,-0.1799955368,-1.761045456,-0.9811999798,2024-06-04 16:20:59.511276
18.55177724,-0.7181558609,-1.766903162,-0.9491877556,2024-06-04 16:20:59.551777
18.59225349,2.034021378,-1.248820543,-2.115519047,2024-06-04 16:20:59.592253
18.6327639,2.292669773,0.006715297699,-2.35051465,2024-06-04 16:20:59.632764
18.67325265,3.5489254,0.34471488,-1.898054838,2024-06-04 16:20:59.673253
18.71374203,2.851003647,0.4673737288,-1.650902748,2024-06-04 16:20:59.713742
18.75419828,4.565133095,1.649004936,-1.873877525,2024-06-04 16:20:59.754198
18.7946963,5.657461643,2.436528444,-1.725032806,2024-06-04 16:20:59.794696
18.83518619,3.940960884,2.614655018,-1.281853914,2024-06-04 16:20:59.835186
18.87568505,1.37961483,0.8725759983,-0.4259309769,2024-06-04 16:20:59.875685
18.9161889,-1.106452942,-1.404987335,0.7673926353,2024-06-04 16:20:59.916189
18.95665323,-1.516085625,-2.179868221,1.402068853,2024-06-04 16:20:59.956653
18.99710364,-1.058911324,-2.343641758,0.3672378063,2024-06-04 16:20:59.997104
19.03758547,-1.692455769,-1.372149944,0.3975689411,2024-06-04 16:21:00.037585
19.07811172,-0.9004855156,-0.3804841042,0.9885406494,2024-06-04 16:21:00.078112
19.11860385,-1.174888134,-0.861541748,1.192877769,2024-06-04 16:21:00.118604
19.15910198,-2.900715351,-0.6398482323,2.430145502,2024-06-04 16:21:00.159102
19.19958046,-2.825347424,-0.8979682922,2.250210762,2024-06-04 16:21:00.199580
19.24006619,-2.589312077,-1.007585526,1.298103333,2024-06-04 16:21:00.240066
19.28054526,-1.525712013,-0.3988723755,0.3336744308,2024-06-04 16:21:00.280545
19.32103958,0.2434096336,0.01063203812,0.2424423695,2024-06-04 16:21:00.321040
19.36153396,0.8600959778,-0.07268667221,-0.1936802864,2024-06-04 16:21:00.361534
19.40202979,-0.9579563141,0.3402786255,-0.0503385067,2024-06-04 16:21:00.402030
19.44254505,-2.7064991,-0.3496251106,0.2419171333,2024-06-04 16:21:00.442545
19.48301937,-2.365015984,-1.926001072,-0.1171832085,2024-06-04 16:21:00.483019
19.52350729,-1.99845314,-2.166750431,-0.2828378677,2024-06-04 16:21:00.523507
19.56399531,-0.9048891068,-2.457135201,-0.530156374,2024-06-04 16:21:00.563995
19.60447515,-1.296025276,-2.407425165,-0.4201097488,2024-06-04 16:21:00.604475
19.64496286,0.8178710938,-1.372055769,-2.598871231,2024-06-04 16:21:00.644963
19.68545442,3.174768925,0.7584401369,-3.321169138,2024-06-04 16:21:00.685454
19.72594479,5.233472824,1.536817551,-3.532708168,2024-06-04 16:21:00.725945
19.76641672,3.843906879,1.136155009,-2.968635559,2024-06-04 16:21:00.766417
19.80691,1.814827919,1.103421569,-1.617381573,2024-06-04 16:21:00.806910
19.84738442,2.77762413,1.408469677,-1.355269909,2024-06-04 16:21:00.847384
19.88785739,4.001871109,1.75832963,-1.752538919,2024-06-04 16:21:00.887857
19.92841166,3.867405415,0.4996528625,-1.482183933,2024-06-04 16:21:00.928412
19.96888698,1.576945782,-0.7009420395,-0.661816597,2024-06-04 16:21:00.968887
20.00941765,-1.810248852,-1.206179142,0.8314003944,2024-06-04 16:21:01.009418
20.04981682,-2.537487984,-1.154204369,1.115240812,2024-06-04 16:21:01.049817
20.09035666,-2.789534569,-2.1159091,0.7102251053,2024-06-04 16:21:01.090357
20.13083427,-0.5586638451,-0.9277482033,0.6311545372,2024-06-04 16:21:01.130834
20.17132651,-2.029091358,-1.15376091,0.7337601185,2024-06-04 16:21:01.171327
20.2118189,-2.824856758,-0.9474473,1.634922743,2024-06-04 16:21:01.211819
20.25230937,-2.921345234,-0.1571016312,1.270608664,2024-06-04 16:21:01.252309
20.29277718,-1.154409409,-1.160618782,1.431204319,2024-06-04 16:21:01.292777
20.33330531,-0.2914795876,0.4780802727,1.561761856,2024-06-04 16:21:01.333305
20.37376161,1.393906116,0.730899334,1.071656942,2024-06-04 16:21:01.373762
20.414285,-1.425987244,-1.128959656,1.63099122,2024-06-04 16:21:01.414285
20.45473422,-1.880665302,-1.137692451,0.525490284,2024-06-04 16:21:01.454734
20.49523744,-2.511940479,-1.337757587,0.9936375618,2024-06-04 16:21:01.495237
20.53573442,-0.5393676758,-1.93276453,0.1624584198,2024-06-04 16:21:01.535734
20.57622364,-1.782115459,-1.417836666,-0.2660319805,2024-06-04 16:21:01.576224
20.6167202,-1.698072433,-1.685453415,0.003775835037,2024-06-04 16:21:01.616720
20.65720937,0.2962422371,-1.254037142,-1.123397112,2024-06-04 16:21:01.657209
20.69769901,0.7723417282,-1.592176437,-1.455219984,2024-06-04 16:21:01.697699
20.7381789,1.903858185,-1.470059633,-1.623525858,2024-06-04 16:21:01.738179
20.77867875,3.589592934,-0.4842426777,-1.911333323,2024-06-04 16:21:01.778679
20.81916093,2.933495045,0.2427937984,-1.51227355,2024-06-04 16:21:01.819161
20.85967854,5.960579872,2.491866112,-1.362165213,2024-06-04 16:21:01.859679
20.90012198,5.741831303,3.109376431,-2.218174934,2024-06-04 16:21:01.900122
20.94062718,2.938435078,1.789341331,-1.133807182,2024-06-04 16:21:01.940627
20.98109218,-0.2722616196,0.1922950745,-0.115811348,2024-06-04 16:21:01.981092
21.02157422,-1.040632248,-0.1942505836,0.1203093529,2024-06-04 16:21:02.021574
21.06206583,-0.3292689323,-0.5044345856,-0.1317951679,2024-06-04 16:21:02.062066
21.10255739,-0.5352745056,-1.319503307,-0.843221426,2024-06-04 16:21:02.102557
21.14304625,-1.122218132,-0.4046206474,-0.3332705498,2024-06-04 16:21:02.143046
21.18356494,-1.939527035,0.004418849945,-0.2216434479,2024-06-04 16:21:02.183565
21.22406281,-1.953003883,-1.394646168,0.05760979652,2024-06-04 16:21:02.224063
21.26451953,-3.93819952,-1.851442814,1.518736839,2024-06-04 16:21:02.264520
21.30497922,-3.003482819,-0.70297575,1.189943552,2024-06-04 16:21:02.304979
21.34546802,-1.07425642,-0.1622624397,1.053554535,2024-06-04 16:21:02.345468
21.3860177,-0.002544403076,-0.4644303322,0.2597849369,2024-06-04 16:21:02.386018
21.42650651,-0.3402004242,-0.06528043747,-0.525084734,2024-06-04 16:21:02.426507
21.46699536,-1.630589008,0.2236213684,0.01108002663,2024-06-04 16:21:02.466995
21.50743984,-2.130828381,-0.4611334801,-0.1436264515,2024-06-04 16:21:02.507440
21.54793896,-1.722043514,-0.6151514053,-0.1420917511,2024-06-04 16:21:02.547939
21.58843703,-2.776139259,-2.159585953,-0.1152791977,2024-06-04 16:21:02.588437
21.62895026,-1.069715023,-1.941067219,-0.5405802727,2024-06-04 16:21:02.628950
21.66944307,0.1058206558,-1.925245285,-0.9720489979,2024-06-04 16:21:02.669443
21.70992119,-0.01132631302,-2.118926287,-1.332327127,2024-06-04 16:21:02.709921
21.75041161,-0.2977252007,-2.269793987,-1.925708055,2024-06-04 16:21:02.750412
21.79088474,1.959350109,-1.453721523,-2.233528376,2024-06-04 16:21:02.790885
21.83137463,4.065130234,0.5879683495,-1.975744486,2024-06-04 16:21:02.831375
21.87187521,5.246232986,2.03196764,-2.079737663,2024-06-04 16:21:02.871875
21.91237343,4.294474602,3.123048306,-1.557834387,2024-06-04 16:21:02.912373
21.95283984,3.371979713,1.970660448,-1.350833654,2024-06-04 16:21:02.952840
21.99333901,2.528182507,0.3729760647,-0.9511649609,2024-06-04 16:21:02.993339
22.03381182,1.325745106,-0.2584600449,-0.7891955376,2024-06-04 16:21:03.033812
22.07430156,1.135231495,-0.8718085289,0.04521942139,2024-06-04 16:21:03.074302
22.11480869,0.3894553185,-1.102116108,0.4252445698,2024-06-04 16:21:03.114809
22.15531255,-0.8850879669,-0.943924427,0.7765169144,2024-06-04 16:21:03.155313
22.19579791,-2.788352013,-1.171081066,0.7852582932,2024-06-04 16:21:03.195798
22.23627916,-1.32158947,-0.7883152962,1.239554167,2024-06-04 16:21:03.236279
22.27674614,-1.784208775,-1.374521732,0.9825668335,2024-06-04 16:21:03.276746
22.31721302,-4.065788746,-0.4099054337,1.08553195,2024-06-04 16:21:03.317213
22.35770619,-3.314634323,0.1365571022,0.8696193695,2024-06-04 16:21:03.357706
22.39819604,-1.363183498,-1.364890575,0.4098393917,2024-06-04 16:21:03.398196
22.43872578,-0.2716178894,-0.8044314384,0.5150518417,2024-06-04 16:21:03.438726
22.47921718,-0.05856561661,1.147950649,0.9327123165,2024-06-04 16:21:03.479217
22.51968218,-0.4084672928,1.020849228,0.2547450066,2024-06-04 16:21:03.519682
22.56017911,-1.422245502,-0.9423975945,0.3866508007,2024-06-04 16:21:03.560179
22.60067312,-4.485305309,-2.388183117,1.033284903,2024-06-04 16:21:03.600673
22.64115776,-3.57636404,-2.294092655,0.2424943447,2024-06-04 16:21:03.641158
22.68164427,-0.1387195587,-2.496534348,-0.9554445744,2024-06-04 16:21:03.681644
22.72215599,2.996009827,-0.7455434799,-0.6338453293,2024-06-04 16:21:03.722156
22.76262906,0.9844236374,-1.201514482,-2.667234659,2024-06-04 16:21:03.762629
22.80311401,-1.860032082,-0.1141238213,-1.767415047,2024-06-04 16:21:03.803114
22.84358833,1.544350147,-1.770370245,-1.905635118,2024-06-04 16:21:03.843588
22.88408307,3.112205505,-0.5076990128,-2.178037167,2024-06-04 16:21:03.884083
22.92461177,5.13486433,1.297652006,-2.432934523,2024-06-04 16:21:03.924612
22.96508078,4.8853755,3.453868389,-2.072313547,2024-06-04 16:21:03.965081
23.00554922,4.01078701,1.54012394,-1.637750626,2024-06-04 16:21:04.005549
23.04603744,3.003142357,0.1037826538,-1.002469063,2024-06-04 16:21:04.046037
23.08651526,0.7304444313,0.1376914978,-0.1609940529,2024-06-04 16:21:04.086515
23.12699906,-1.430287361,-0.5666451454,0.178589344,2024-06-04 16:21:04.126999
23.16749458,-2.109218597,-1.388661385,0.5432677269,2024-06-04 16:21:04.167495
23.20799229,-2.819963932,-2.41587019,-0.01200985909,2024-06-04 16:21:04.207992
23.24849156,-1.442558289,0.0105509758,-0.204061985,2024-06-04 16:21:04.248492
23.2889601,-1.18669796,0.532646656,-0.1103146076,2024-06-04 16:21:04.288960
23.32945661,-1.490446568,-0.7842311859,0.623367548,2024-06-04 16:21:04.329457
23.36994854,-3.231695652,-1.496061325,1.422643661,2024-06-04 16:21:04.369949
23.41043562,-2.178813934,-0.4956326485,1.103199959,2024-06-04 16:21:04.410436
23.45092156,-1.187321186,-0.7685279846,0.6590461731,2024-06-04 16:21:04.450922
23.49142453,0.2853960991,-0.4777317047,0.08324384689,2024-06-04 16:21:04.491425
23.53191573,-0.2556676865,0.2495994568,0.3204100132,2024-06-04 16:21:04.531916
23.5724376,-1.731197834,0.4575667381,0.0321354866,2024-06-04 16:21:04.572438
23.61288135,-0.4888916016,-0.5679421425,-0.1346461773,2024-06-04 16:21:04.612881
23.65338,-1.053612709,-1.246928692,-0.2539458275,2024-06-04 16:21:04.653380
23.69387323,-2.746553421,-0.9588160515,0.1135630608,2024-06-04 16:21:04.693873
23.73435078,-1.495165348,-2.807666302,-0.8728551865,2024-06-04 16:21:04.734351
23.77485916,-0.9215936661,-2.602210999,-0.7177190781,2024-06-04 16:21:04.774859
23.81533713,0.1994628906,-2.284942627,-1.633749962,2024-06-04 16:21:04.815337
23.85582823,1.273648739,-0.9717068672,-2.493393898,2024-06-04 16:21:04.855828
23.89631781,3.232933998,-0.5231201649,-2.522022247,2024-06-04 16:21:04.896318
23.93680734,4.117088318,1.653359175,-2.159940004,2024-06-04 16:21:04.936807
23.97729692,3.07734251,1.463007689,-1.771332502,2024-06-04 16:21:04.977297
24.01773984,4.404063702,2.182772636,-1.801830292,2024-06-04 16:21:05.017740
24.05822937,2.333739758,1.748271585,-1.950639486,2024-06-04 16:21:05.058229
24.09875,1.078879356,0.2980258465,-1.269925833,2024-06-04 16:21:05.098750
24.13926833,0.9943394661,-0.4140396118,-0.6742565632,2024-06-04 16:21:05.139268
24.1797313,1.20239687,-0.2348856926,-0.423279047,2024-06-04 16:21:05.179731
24.22025531,0.1104469299,-1.005630493,-0.9666121006,2024-06-04 16:21:05.220255
24.26070968,-1.955756664,-1.146733761,0.2856397629,2024-06-04 16:21:05.260710
24.30118625,-2.029207706,-0.7945899963,0.6670589447,2024-06-04 16:21:05.301186
24.34174437,-2.112092495,-1.850270271,0.9017453194,2024-06-04 16:21:05.341744
24.3821814,-3.00779295,-1.924454689,1.16951251,2024-06-04 16:21:05.382181
24.42267083,-3.33151865,-0.8004927635,1.511526108,2024-06-04 16:21:05.422671
24.4631676,-3.436977386,-0.7437539101,1.273741484,2024-06-04 16:21:05.463168
24.5036426,-1.198922157,0.5237603188,-0.03878426552,2024-06-04 16:21:05.503643
24.54414677,2.468969822,0.2833180428,-0.02020597458,2024-06-04 16:21:05.544147
24.58464307,0.08054542542,-0.6922888756,-0.4303739071,2024-06-04 16:21:05.584643
24.62512505,-4.131272793,-0.2452974319,0.1775650978,2024-06-04 16:21:05.625125
24.66560734,-4.247448444,-1.678415298,0.4638826847,2024-06-04 16:21:05.665607
24.70611562,-1.574050903,-2.043418407,-0.3520712852,2024-06-04 16:21:05.706116
24.74654796,0.4647836685,-1.812015533,-0.9422256947,2024-06-04 16:21:05.746548
24.7870401,1.629165649,-1.3022542,-0.9097084999,2024-06-04 16:21:05.787040
24.82755432,1.11832428,-1.433976412,-0.8123240471,2024-06-04 16:21:05.827554
24.86806036,0.4391870499,-1.210441351,-1.330804348,2024-06-04 16:21:05.868060
24.90855713,-0.1022987366,-0.5620408058,-2.038139105,2024-06-04 16:21:05.908557
24.94904416,2.516371727,-0.2611076832,-2.1297822,2024-06-04 16:21:05.949044
24.98954088,3.516424656,1.826020956,-1.23642683,2024-06-04 16:21:05.989541
25.02999161,3.235297203,1.353626251,-1.3794415,2024-06-04 16:21:06.029992
25.07048718,4.611118317,1.792432547,-1.981648445,2024-06-04 16:21:06.070487
25.11097823,4.19914341,1.443220377,-1.784252882,2024-06-04 16:21:06.110978
25.15148083,3.491533279,0.3485729694,-1.486168385,2024-06-04 16:21:06.151481
25.19195536,0.9550919533,-0.8491744995,0.1915206909,2024-06-04 16:21:06.191955
25.23244994,-0.4933218956,-0.323486805,0.806265831,2024-06-04 16:21:06.232450
25.27295869,-1.829472542,-1.287802696,1.43254137,2024-06-04 16:21:06.272959
25.31343526,-2.874852657,-1.826966286,0.3327944279,2024-06-04 16:21:06.313435
25.3539177,-1.50845623,-0.6201453209,1.089838743,2024-06-04 16:21:06.353918
25.39442526,-2.694686413,-1.634239197,1.098580837,2024-06-04 16:21:06.394425
25.43490796,-3.785800457,-1.328864098,2.054360628,2024-06-04 16:21:06.434908
25.47539494,-2.809589863,-1.072641373,1.719957829,2024-06-04 16:21:06.475395
25.5158888,-0.9134263992,-0.6296644211,1.506262064,2024-06-04 16:21:06.515889
25.55636698,2.184663296,1.064530849,0.3333489895,2024-06-04 16:21:06.556367
25.59683416,0.6983366013,0.7192635536,0.8233993053,2024-06-04 16:21:06.596834
25.63731661,-1.073087692,-0.5470333099,0.9464099407,2024-06-04 16:21:06.637317
25.67782015,-2.815990925,-1.278357029,0.8234989643,2024-06-04 16:21:06.677820
25.71833833,-1.610514164,-1.059169292,1.014298201,2024-06-04 16:21:06.718338
25.75880869,-1.152753353,-1.71252203,0.7343175411,2024-06-04 16:21:06.758809
25.79928432,-1.444702148,-2.835862637,0.8889276981,2024-06-04 16:21:06.799284
25.83976906,-0.6853952408,-1.893204212,0.8605241776,2024-06-04 16:21:06.839769
25.88027323,0.2535638809,-1.993449211,-0.1140749454,2024-06-04 16:21:06.880273
25.92078218,1.383684158,-1.412110329,-1.690675497,2024-06-04 16:21:06.920782
25.96127119,2.786455631,-0.3461573124,-3.054863214,2024-06-04 16:21:06.961271
26.00173604,3.901611805,1.032828808,-2.452155113,2024-06-04 16:21:07.001736
26.04221468,4.919914246,1.674691439,-1.983858585,2024-06-04 16:21:07.042215
26.08272588,4.548536301,1.965096474,-1.815797806,2024-06-04 16:21:07.082726
26.12321651,3.171447754,1.577394605,-1.437765121,2024-06-04 16:21:07.123217
26.16371276,2.752467155,0.7193667889,-0.6769945621,2024-06-04 16:21:07.163713
26.20421859,1.775895596,-0.1219003201,0.02072882652,2024-06-04 16:21:07.204219
26.24470463,0.6254162788,-0.5270972252,1.023206472,2024-06-04 16:21:07.244705
26.28512411,-0.4042081833,-0.7006053925,1.584163189,2024-06-04 16:21:07.285124
26.3256575,-1.515831947,-1.543493271,1.008374214,2024-06-04 16:21:07.325657
26.36616812,-2.098459244,-1.791983604,1.160252333,2024-06-04 16:21:07.366168
26.40665718,-1.76012373,-1.525104523,1.563687563,2024-06-04 16:21:07.406657
26.44712531,-3.341416836,-1.568630219,1.833942175,2024-06-04 16:21:07.447125
26.48759656,-2.823435307,-0.5307326317,1.599560857,2024-06-04 16:21:07.487597
26.52810052,-1.451266766,0.1838335991,1.338074684,2024-06-04 16:21:07.528101
26.56860724,-0.2240571976,-0.5750818253,0.9266383648,2024-06-04 16:21:07.568607
26.60907927,-0.9946312904,0.6578149796,0.861874342,2024-06-04 16:21:07.609079
26.64955552,-0.9491629601,-0.3762059212,0.6868472099,2024-06-04 16:21:07.649556
26.6900564,-0.7625398636,-0.6621217728,0.5014708042,2024-06-04 16:21:07.690056
26.73053302,-1.515638828,-0.6174693108,1.064712048,2024-06-04 16:21:07.730533
26.77108797,-1.377980232,-0.0821480751,-0.02234220505,2024-06-04 16:21:07.771088
26.81150849,-0.8764157295,-1.144564152,0.01053786278,2024-06-04 16:21:07.811508
26.85198672,0.4716486931,-1.928172588,-0.6476230621,2024-06-04 16:21:07.851987
26.89251849,-0.7226352692,-1.857132196,0.02961921692,2024-06-04 16:21:07.892518
26.9330263,-0.2581472397,-1.627981663,-0.2164130211,2024-06-04 16:21:07.933026
26.97347828,1.854962349,-1.17999053,-2.220038176,2024-06-04 16:21:07.973478
27.01395885,2.994325638,-0.6603410244,-1.391268969,2024-06-04 16:21:08.013959
27.05445698,3.664426327,0.9005162716,-1.462596893,2024-06-04 16:21:08.054457
27.09494359,3.351505756,2.047538757,-1.46104002,2024-06-04 16:21:08.094944
27.13544942,5.368769169,2.231745481,-2.101258516,2024-06-04 16:21:08.135449
27.1759126,5.328448296,2.314931393,-2.132809877,2024-06-04 16:21:08.175913
27.21640192,2.454584122,1.804665327,-1.585168362,2024-06-04 16:21:08.216402
27.25689781,-0.275510788,-0.04038834572,-0.01700615883,2024-06-04 16:21:08.256898
27.29735172,-1.758275986,-1.193304539,1.284706593,2024-06-04 16:21:08.297352
27.33790073,-1.157140732,-2.116830826,1.277388811,2024-06-04 16:21:08.337901
27.37835354,-1.808960438,-2.0435853,0.4215171337,2024-06-04 16:21:08.378354
27.41886786,0.3858523369,-0.1853609085,1.176464558,2024-06-04 16:21:08.418868
27.45933984,-0.3622546196,-1.206790924,1.351371765,2024-06-04 16:21:08.459340
27.49982854,-2.13290453,-0.6741948128,1.816394806,2024-06-04 16:21:08.499829
27.54031276,-3.291210651,-0.7950100899,2.038154125,2024-06-04 16:21:08.540313
27.58080172,-2.277739048,-1.081335068,1.648187399,2024-06-04 16:21:08.580802
27.6212951,-0.4141955376,-0.1601352692,0.8849163055,2024-06-04 16:21:08.621295
27.66177859,0.076420784,-0.4911818504,1.507188082,2024-06-04 16:21:08.661779
27.70227656,-0.5188708305,0.4592165947,1.736293793,2024-06-04 16:21:08.702277
27.74275416,-0.2894973755,-0.5393676758,1.211693764,2024-06-04 16:21:08.742754
27.78324364,-0.6447558403,-0.5775723457,0.5429868698,2024-06-04 16:21:08.783244
27.82373265,-1.580667496,-1.412681103,1.511318207,2024-06-04 16:21:08.823733
27.86421177,-2.07608223,-3.099989891,0.4602994919,2024-06-04 16:21:08.864212
27.90474552,-1.223358154,-2.588010788,0.7983982563,2024-06-04 16:21:08.904746
27.94520224,-0.08973789215,-1.63810873,0.5539898872,2024-06-04 16:21:08.945202
27.98569375,1.929317474,-1.128516912,-1.861763239,2024-06-04 16:21:08.985694
28.02618802,3.371241093,-0.2926514149,-1.713931084,2024-06-04 16:21:09.026188
28.06667703,4.561594963,0.7482180595,-1.587059736,2024-06-04 16:21:09.066677
28.10715546,2.932754517,0.5912104845,-0.3693766594,2024-06-04 16:21:09.107155
28.14763682,3.184052467,1.710000753,-0.2666978836,2024-06-04 16:21:09.147637
28.18814291,3.904280186,1.473494887,-0.697507143,2024-06-04 16:21:09.188143
28.22862021,4.272839546,1.604944587,-0.7494368553,2024-06-04 16:21:09.228620
28.26912468,3.349424362,1.302396059,-0.7491576672,2024-06-04 16:21:09.269125
28.30960031,1.456297874,0.9489762783,0.2743492126,2024-06-04 16:21:09.309600
28.35010323,-1.988123417,-1.504917622,1.532397985,2024-06-04 16:21:09.350103
28.3906076,-3.742919922,-3.14867878,0.6327557564,2024-06-04 16:21:09.390608
28.43108442,-3.23099041,-1.784536362,1.502014875,2024-06-04 16:21:09.431084
28.47158984,-2.597980976,-2.032999039,0.8680188656,2024-06-04 16:21:09.471590
28.51204677,-1.031196594,0.9800677299,1.416116714,2024-06-04 16:21:09.512047
28.55253932,-3.431916714,0.05315351486,1.011543274,2024-06-04 16:21:09.552539
28.593035,-4.242337704,-3.143116951,1.456629753,2024-06-04 16:21:09.593035
28.63353619,-0.2388005257,-0.4930067062,0.09104585648,2024-06-04 16:21:09.633536
28.67403031,-0.3398151398,0.4457406998,0.06176924706,2024-06-04 16:21:09.674030
28.71449854,-0.2586894035,0.03936481476,-0.0908062458,2024-06-04 16:21:09.714499
28.7549977,0.2627873421,0.7775053978,-0.7864601612,2024-06-04 16:21:09.754998
28.79550343,-2.352714062,-0.2424964905,-0.06495404243,2024-06-04 16:21:09.795503
28.83598218,-2.953322887,-1.457479954,-0.7943291664,2024-06-04 16:21:09.835982
28.87645963,-1.644673347,-1.933857441,-1.161930323,2024-06-04 16:21:09.876460
28.91694015,-0.575299263,-2.375119209,-0.867821455,2024-06-04 16:21:09.916940
28.95740911,0.3764438629,-1.290098429,-1.583631992,2024-06-04 16:21:09.957409
28.99792838,0.4626431465,-1.423108101,-1.92749095,2024-06-04 16:21:09.997928
29.03839916,2.139222622,-1.082627058,-2.967197418,2024-06-04 16:21:10.038399
29.07891057,4.341195107,0.8512680531,-2.915296316,2024-06-04 16:21:10.078911
29.11941442,3.975429773,0.6282396317,-2.569133759,2024-06-04 16:21:10.119414
29.15990119,3.373075485,2.116215467,-1.935922384,2024-06-04 16:21:10.159901
29.20039114,4.977153778,2.258243561,-2.146692753,2024-06-04 16:21:10.200391
29.24086984,3.464057922,1.282155395,-1.356223583,2024-06-04 16:21:10.240870
29.28133078,1.671868324,0.02734947205,-0.6835353374,2024-06-04 16:21:10.281331
29.32182942,-0.4658608437,-1.10325098,0.3487336636,2024-06-04 16:21:10.321829
29.36232291,-1.595523357,-1.312094688,0.9073755741,2024-06-04 16:21:10.362323
29.4028251,-0.8905920982,-0.228934288,0.08143830299,2024-06-04 16:21:10.402825
29.44330661,-1.931344509,-2.139842987,-0.0397605896,2024-06-04 16:21:10.443307
29.48379656,-2.747272015,-1.296517849,0.2751264572,2024-06-04 16:21:10.483797
29.5242876,-3.627830982,-0.2741551399,1.175283432,2024-06-04 16:21:10.524288
29.56478698,-1.894893646,-0.5125808716,1.924944401,2024-06-04 16:21:10.564787
29.60527442,-1.30284977,-0.6415519714,1.091579199,2024-06-04 16:21:10.605274
29.64574849,-2.67188406,-0.6820755005,1.055037022,2024-06-04 16:21:10.645748
29.68623218,-1.249260902,-0.1488580704,1.050182581,2024-06-04 16:21:10.686232
29.72672156,1.460912704,0.2084870338,-0.03591132164,2024-06-04 16:21:10.726722
29.76719359,-0.6540646553,-0.01016664505,-0.8945281506,2024-06-04 16:21:10.767194
29.80767416,-3.296831131,-0.8290433884,0.6633858681,2024-06-04 16:21:10.807674
29.84821349,-2.618124008,-0.7942438126,-0.3319282532,2024-06-04 16:21:10.848213
29.88868635,-2.265615463,-1.683718204,-0.8866536617,2024-06-04 16:21:10.888686
29.92916557,-1.081581116,-2.279038906,-0.4875433445,2024-06-04 16:21:10.929166
29.96967281,-0.3075466156,-1.967747688,-0.7362549305,2024-06-04 16:21:10.969673
30.01015135,-0.215133667,-1.819148064,-1.058107138,2024-06-04 16:21:11.010151
30.05060817,1.414643764,-1.290361404,-3.267419338,2024-06-04 16:21:11.050608
30.09114416,5.101523876,0.02636551857,-3.472289562,2024-06-04 16:21:11.091144
30.13164411,5.880330563,2.197646618,-2.78441143,2024-06-04 16:21:11.131644
30.17212776,4.14329052,1.912348032,-1.310031414,2024-06-04 16:21:11.172128
30.21258854,3.768461227,1.493779063,-1.296546698,2024-06-04 16:21:11.212589
30.25312838,2.973984241,1.093616009,-0.9677388668,2024-06-04 16:21:11.253128
30.29357031,1.522307873,0.1139705181,0.1411550045,2024-06-04 16:21:11.293570
30.33407646,-1.069304943,-1.106776237,0.8732705116,2024-06-04 16:21:11.334076
30.37455448,-1.349319935,-1.259506702,1.254677773,2024-06-04 16:21:11.374554
30.41505474,-1.540552616,-0.6265511513,0.1859328747,2024-06-04 16:21:11.415055
30.45553791,-3.035373688,-1.597271919,0.1042320728,2024-06-04 16:21:11.455538
30.49602953,-1.427894115,-2.070607662,0.1842479706,2024-06-04 16:21:11.496030
30.53651875,-2.844499111,-0.442401886,1.467082977,2024-06-04 16:21:11.536519
30.57698406,-3.202920914,-0.3919868469,1.773900747,2024-06-04 16:21:11.576984
30.6174889,-0.7689976692,0.6473760605,0.6889765263,2024-06-04 16:21:11.617489
30.65796994,-1.645451069,-0.154153347,0.6998023987,2024-06-04 16:21:11.657970
30.69846896,-1.808298111,-0.1606340408,0.5612044334,2024-06-04 16:21:11.698469
30.73896422,-0.4806551933,-0.1665220261,-0.199835062,2024-06-04 16:21:11.738964
30.77945093,-1.340294838,-0.7210555077,-0.003180027008,2024-06-04 16:21:11.779451
30.81993994,-2.126315594,-0.9928827286,-0.4643867016,2024-06-04 16:21:11.819940
30.86043015,-2.70500803,-1.167406082,-0.7007291317,2024-06-04 16:21:11.860430
30.90094974,-0.7084856033,-1.997498512,-0.4655513763,2024-06-04 16:21:11.900950
30.94140849,0.4534692764,-2.365537643,-1.107666016,2024-06-04 16:21:11.941408
30.98189599,0.5069923401,-1.491274357,-1.383981705,2024-06-04 16:21:11.981896
31.02237823,0.05574131012,-1.325094461,-1.101089478,2024-06-04 16:21:12.022378
31.06283078,2.929614544,-1.367121935,-2.802580118,2024-06-04 16:21:12.062831
31.10337432,4.416708946,1.032985091,-2.556463718,2024-06-04 16:21:12.103374
31.1438575,4.058382034,1.536975265,-1.77536273,2024-06-04 16:21:12.143857
31.18437078,5.891390324,2.780726194,-2.20925045,2024-06-04 16:21:12.184371
31.22481786,4.447921753,2.391721725,-1.487326622,2024-06-04 16:21:12.224818
31.2653413,2.602381706,0.446434021,-0.8979091644,2024-06-04 16:21:12.265341
31.30579682,-0.1088438034,-1.328166008,0.08684706688,2024-06-04 16:21:12.305797
31.34634052,-1.639988422,-1.475792885,0.7193841934,2024-06-04 16:21:12.346341
31.38678703,-0.8643074036,-1.062367439,0.6862461567,2024-06-04 16:21:12.386787
31.42724291,-2.085515976,-2.667681217,-0.1899859905,2024-06-04 16:21:12.427243
31.46775599,-1.911658764,-1.341067791,0.9288313389,2024-06-04 16:21:12.467756
31.50826151,-4.35152483,-1.849874496,1.170339704,2024-06-04 16:21:12.508262
31.54875192,-4.624270439,-0.6485819817,1.916159987,2024-06-04 16:21:12.548752
31.58923104,-2.987514019,-0.7488064766,1.782625437,2024-06-04 16:21:12.589231
31.62971687,-0.1857728958,0.7228689194,0.320567131,2024-06-04 16:21:12.629717
31.67022994,1.895287514,0.701851368,0.3664059639,2024-06-04 16:21:12.670230
31.71069854,-0.0156211853,-1.117156029,0.6660301685,2024-06-04 16:21:12.710699
31.75118474,-3.23250246,-0.3671178818,0.585657835,2024-06-04 16:21:12.751185
31.79167349,-3.020177364,-1.3737607,0.3245410919,2024-06-04 16:21:12.791673
31.83216521,-0.8480730057,-1.637616158,-0.7010285854,2024-06-04 16:21:12.832165
31.87266349,-0.4971170425,-1.971798897,-0.2756173611,2024-06-04 16:21:12.872663
31.91317307,-0.7986178398,-2.140468121,-1.203475952,2024-06-04 16:21:12.913173
31.95367265,0.1474151611,-0.9725964069,-0.8271582127,2024-06-04 16:21:12.953673
31.99413031,0.4344959259,-1.187219858,-1.712411165,2024-06-04 16:21:12.994130
32.03460463,2.762955666,-0.9423351288,-3.032476187,2024-06-04 16:21:13.034605
32.07509682,4.026990891,0.5413608551,-2.764269829,2024-06-04 16:21:13.075097
32.11560562,4.648955345,1.653276801,-1.835773706,2024-06-04 16:21:13.115606
32.15611828,5.316367626,2.022341013,-1.501937628,2024-06-04 16:21:13.156118
32.19659099,4.111559868,1.23486197,-1.459560871,2024-06-04 16:21:13.196591
32.23706562,4.075128555,0.5702517033,-1.428754807,2024-06-04 16:21:13.237066
32.27754114,1.123250961,0.3329265118,0.347276926,2024-06-04 16:21:13.277541
32.31803505,-0.5361456871,-0.7526211739,1.182712793,2024-06-04 16:21:13.318035
32.35853276,-0.9860043526,-2.07519865,0.4653794765,2024-06-04 16:21:13.358533
32.39905198,-2.161002636,-1.944858074,0.4512789249,2024-06-04 16:21:13.399052
32.43951703,-2.51065588,-1.702889442,1.019441366,2024-06-04 16:21:13.439517
32.47999432,-2.489629745,-0.980243206,1.201303482,2024-06-04 16:21:13.479994
32.52049036,-3.378723621,-1.428915977,1.298775911,2024-06-04 16:21:13.520490
32.56098125,-2.291288376,-0.1344776154,1.708413601,2024-06-04 16:21:13.560981
32.6014725,-1.155194283,0.1811800003,0.9951089621,2024-06-04 16:21:13.601472
32.64195354,-0.3247327805,0.8773975372,0.7526204586,2024-06-04 16:21:13.641954
32.68245729,-0.8583726883,0.3053064346,1.099357367,2024-06-04 16:21:13.682457
32.72295599,-1.519833565,-0.6944651604,1.058983326,2024-06-04 16:21:13.722956
32.76344708,-1.658297062,-1.442135811,0.7523300648,2024-06-04 16:21:13.763447
32.80393734,-2.427902699,-2.344129562,0.1073656082,2024-06-04 16:21:13.803937
32.84439781,-1.905037403,-2.464633942,0.005973577499,2024-06-04 16:21:13.844398
32.88489177,0.01737880707,-1.565052986,-0.1124856472,2024-06-04 16:21:13.884892
32.92538927,-0.1026649475,-1.71419692,-0.8513889313,2024-06-04 16:21:13.925389
32.96587797,0.2046589851,-2.139104843,-1.522160053,2024-06-04 16:21:13.965878
33.00636734,1.307740211,-0.9687139988,-2.909456491,2024-06-04 16:21:14.006367
33.04683692,3.684352875,0.283343792,-2.852860689,2024-06-04 16:21:14.046837
33.0873176,5.716824055,1.88646245,-2.282335758,2024-06-04 16:21:14.087318
33.1278101,5.421989441,2.198675632,-2.232181787,2024-06-04 16:21:14.127810
33.16829984,4.166068077,1.859259844,-1.729270458,2024-06-04 16:21:14.168300
33.20880031,2.776170731,1.114476681,-1.512776136,2024-06-04 16:21:14.208800
33.24932463,1.974203587,0.0921189785,-0.9692800045,2024-06-04 16:21:14.249325
33.28974724,-0.2561235428,-0.2491230965,0.5742292404,2024-06-04 16:21:14.289747
33.33032484,-1.311513424,-0.9464797974,0.4868850708,2024-06-04 16:21:14.330325
33.37077411,-1.867982864,-1.82613039,0.1854064465,2024-06-04 16:21:14.370774
33.41124849,-3.071866989,-1.731790066,0.3319351673,2024-06-04 16:21:14.411248
33.45173718,-2.011958122,-1.53999424,0.5335581303,2024-06-04 16:21:14.451737
33.49223416,-2.324889183,-1.120579243,1.259396553,2024-06-04 16:21:14.492234
33.53274385,-3.274325371,-0.0311255455,2.042523861,2024-06-04 16:21:14.532744
33.57323276,-2.904844761,-1.248427391,2.357918024,2024-06-04 16:21:14.573233
33.61369791,-2.484583378,-0.002778530121,1.736399889,2024-06-04 16:21:14.613698
33.65419057,1.842983723,0.3508992195,0.3632116318,2024-06-04 16:21:14.654191
33.69468646,2.674265862,-1.268201828,-0.3399999142,2024-06-04 16:21:14.694686
33.73519317,-1.172821522,-0.4742465019,0.4267523289,2024-06-04 16:21:14.735193
33.77564932,-4.676848412,-1.427371979,0.8812475204,2024-06-04 16:21:14.775649
33.8161388,-3.998357296,-2.246749401,-0.03168559074,2024-06-04 16:21:14.816139
33.85663401,-1.002372742,-2.482309818,0.1643671989,2024-06-04 16:21:14.856634
33.89712349,0.05738925934,-2.68721962,-0.497246027,2024-06-04 16:21:14.897123
33.93761296,1.042318821,-1.929133415,-1.919159412,2024-06-04 16:21:14.937613
33.97808974,2.507014275,-0.1261353493,-2.766925573,2024-06-04 16:21:14.978090
34.01861359,3.268411636,0.3107386827,-2.34187603,2024-06-04 16:21:15.018614
34.05904396,5.526307106,1.668741345,-1.889090061,2024-06-04 16:21:15.059044
34.09958672,4.866621017,1.733225107,-1.562226534,2024-06-04 16:21:15.099587
34.14007416,5.780365944,2.028214931,-1.365598679,2024-06-04 16:21:15.140074
34.18057474,3.689321518,1.34332633,-1.068118095,2024-06-04 16:21:15.180575
34.22103807,1.403157711,0.06643986702,-0.5672912598,2024-06-04 16:21:15.221038
34.26153328,-1.130296707,-1.281968594,0.689428091,2024-06-04 16:21:15.261533
34.30199739,-1.537952423,-1.783265591,0.4899208546,2024-06-04 16:21:15.301997
34.34250187,-2.984582424,-2.802525997,0.06122398376,2024-06-04 16:21:15.342502
34.38301703,-2.174018383,-1.126992702,0.4101266861,2024-06-04 16:21:15.383017
34.42349172,-1.517719269,-1.147966385,0.4334535599,2024-06-04 16:21:15.423492
34.46397838,-2.144777298,-0.3762903214,1.060830593,2024-06-04 16:21:15.463978
34.50447869,-3.890755653,0.1090021133,1.716883659,2024-06-04 16:21:15.504479
34.54496114,-2.48275423,-1.422101498,1.734980822,2024-06-04 16:21:15.544961
34.58548046,-0.6235542297,0.3715820312,1.061201811,2024-06-04 16:21:15.585480
34.6259364,0.558927536,0.5923113823,0.421230793,2024-06-04 16:21:15.625936
34.66644375,0.7686977386,-0.6914811134,0.492890358,2024-06-04 16:21:15.666444
34.70691281,-2.778159142,-0.8915786743,0.3723857403,2024-06-04 16:21:15.706913
34.74740192,-3.463759422,-1.787324429,0.5633208752,2024-06-04 16:21:15.747402
34.7878489,-2.596929073,-2.276715755,-0.3386011124,2024-06-04 16:21:15.787849
34.8283489,-0.5663933754,-2.341825962,-0.4202320576,2024-06-04 16:21:15.828349
34.86886651,1.922929764,-2.091331959,-1.476845741,2024-06-04 16:21:15.868867
34.9093663,1.569779396,-1.049261808,-2.412207603,2024-06-04 16:21:15.909366
34.94985078,1.395689011,-0.8802227974,-3.232894182,2024-06-04 16:21:15.949851
34.99034093,3.434419155,-0.1428790092,-2.589704037,2024-06-04 16:21:15.990341
35.03080989,3.809442043,1.45975256,-2.106422424,2024-06-04 16:21:16.030810
35.07129083,3.626235962,0.8834652901,-1.481623411,2024-06-04 16:21:16.071291
35.11181573,5.334060669,2.326841593,-1.730314255,2024-06-04 16:21:16.111816
35.15231656,4.475846291,2.236635447,-1.531480789,2024-06-04 16:21:16.152317
35.19279416,2.920523167,1.538357019,-0.4633610249,2024-06-04 16:21:16.192794
35.23328625,-0.637693882,-0.4173402786,0.6346237659,2024-06-04 16:21:16.233286
35.27374713,-3.937390804,-2.893564701,0.6956233978,2024-06-04 16:21:16.273747
35.31424354,-4.121551514,-3.067794323,0.09318971634,2024-06-04 16:21:16.314244
35.35477312,-2.672614574,-1.128929138,0.4957475662,2024-06-04 16:21:16.354773
35.3952263,0.4490914345,0.8820471764,0.7547404766,2024-06-04 16:21:16.395226
35.43572849,0.7194395065,0.5837540627,1.010829926,2024-06-04 16:21:16.435728
35.47624343,-2.586220741,0.0858206749,1.464832306,2024-06-04 16:21:16.476243
35.51673286,-4.190241814,-0.9343681335,2.036777258,2024-06-04 16:21:16.516733
35.55722224,-2.225955963,-0.9029865265,0.8674070835,2024-06-04 16:21:16.557222
35.59768614,-1.523689747,-1.37106657,0.8438315392,2024-06-04 16:21:16.597686
35.63814828,-1.008491993,-0.8355975151,0.4320790768,2024-06-04 16:21:16.638148
35.67866484,-0.3795952797,-0.6728730202,-1.100021124,2024-06-04 16:21:16.678665
35.71915974,-1.790846825,-0.3584918976,-0.0453350544,2024-06-04 16:21:16.719160
35.75964427,-1.84321928,-1.992974758,-0.2187428474,2024-06-04 16:21:16.759644
35.80013328,-1.991530895,-2.88568449,-0.2503232956,2024-06-04 16:21:16.800133
35.84062328,0.58979702,-2.452562809,-0.7213995457,2024-06-04 16:21:16.840623
35.88113359,1.560317993,-0.5702822208,-1.69159317,2024-06-04 16:21:16.881134
35.9216076,2.762255192,-0.2198007107,-3.051886082,2024-06-04 16:21:16.921608
35.9620951,4.446403503,0.2717044353,-2.451231956,2024-06-04 16:21:16.962095
36.00258724,4.304406643,1.107165813,-2.023432493,2024-06-04 16:21:17.002587
36.04304526,4.966302395,2.074264526,-1.573632956,2024-06-04 16:21:17.043045
36.08353234,5.295488358,2.481117725,-2.013397694,2024-06-04 16:21:17.083532
36.12402729,3.08414793,1.08408165,-1.313221693,2024-06-04 16:21:17.124027
36.16455458,-0.2364559174,-0.7266769409,-0.5622506142,2024-06-04 16:21:17.164555
36.20502859,-1.666854858,-2.649113178,0.2856252193,2024-06-04 16:21:17.205029
36.24550927,-2.592837811,-2.574000359,0.1430268288,2024-06-04 16:21:17.245509
36.28598062,-2.266532421,-1.284692287,1.126491308,2024-06-04 16:21:17.285981
36.32646979,-1.3829422,-0.4725265503,1.660255194,2024-06-04 16:21:17.326470
36.36695906,-2.748306274,-1.407026768,1.968680143,2024-06-04 16:21:17.366959
36.40743432,-3.488015652,-0.6137633324,1.948501825,2024-06-04 16:21:17.407434
36.4479613,-2.089790344,0.3042693138,1.438426256,2024-06-04 16:21:17.447961
36.48844755,-0.5015687943,-0.6401071548,0.791435957,2024-06-04 16:21:17.488448
36.52892588,0.2240085602,0.05099391937,0.3386554718,2024-06-04 16:21:17.528926
36.56941515,-1.303380966,-0.3104977608,0.8053491116,2024-06-04 16:21:17.569415
36.60989708,-1.880739689,-0.9690151215,0.9933722019,2024-06-04 16:21:17.609897
36.65040161,-2.395284176,-1.772111416,0.667014122,2024-06-04 16:21:17.650402
36.69089151,-3.050364017,-2.13414669,0.6783533096,2024-06-04 16:21:17.690892
36.73141114,-0.2867918015,-2.256679058,-0.05827617645,2024-06-04 16:21:17.731411
36.77186843,-0.7348022461,-2.737784863,-0.4180784225,2024-06-04 16:21:17.771868
36.8123576,-0.988286972,-1.454263449,-1.472048283,2024-06-04 16:21:17.812358
36.85285422,0.5999884605,-2.167272329,-2.695803642,2024-06-04 16:21:17.852854
36.8933552,4.837723255,-0.6806128025,-3.46127224,2024-06-04 16:21:17.893355
36.93380729,6.757354259,2.530580997,-3.238658428,2024-06-04 16:21:17.933807
36.97430479,5.052083969,2.470293522,-2.655608177,2024-06-04 16:21:17.974305
37.01482213,5.739717484,2.208442211,-2.125541925,2024-06-04 16:21:18.014822
37.0553113,2.214289188,1.280085683,-0.869689703,2024-06-04 16:21:18.055311
37.09579807,0.513437748,-0.734500885,-0.9572613239,2024-06-04 16:21:18.095798
37.13628724,0.5448579788,-1.049576283,-0.2110037804,2024-06-04 16:21:18.136287
37.1767764,-2.016521454,-2.29272604,-0.4735062122,2024-06-04 16:21:18.176776
37.21721942,-2.791813374,-2.714253902,0.8557116985,2024-06-04 16:21:18.217219
37.25772776,-1.344048977,-0.5800404549,1.507768869,2024-06-04 16:21:18.257728
37.29824979,-1.816917896,-1.498757839,1.384757519,2024-06-04 16:21:18.298250
37.33871088,-1.28367424,-0.9269680977,2.202817917,2024-06-04 16:21:18.338711
37.37919005,-3.111795902,-1.672015667,2.059132099,2024-06-04 16:21:18.379190
37.41969656,-2.019214153,-0.3760838509,1.596350908,2024-06-04 16:21:18.419697
37.46018849,-0.8215193748,0.281920433,0.8140494823,2024-06-04 16:21:18.460188
37.50066922,0.02391529083,-1.740258217,0.8815243244,2024-06-04 16:21:18.500669
37.54116703,-1.674031734,-1.150874138,0.8035099506,2024-06-04 16:21:18.541167
37.58165661,-1.987091064,-0.7476639748,0.8144321442,2024-06-04 16:21:18.581657
37.62213172,-1.245287418,-1.473540783,0.04747414589,2024-06-04 16:21:18.622132
37.66265005,-1.769099236,-1.57642746,0.3462929726,2024-06-04 16:21:18.662650
37.70313192,-1.402099609,-1.933915138,-0.3997676373,2024-06-04 16:21:18.703132
37.74360708,0.652299881,-2.123023033,-1.487446547,2024-06-04 16:21:18.743607
37.78413432,1.119902611,-2.089118481,-1.90375495,2024-06-04 16:21:18.784134
37.82462401,0.7469029427,-1.849185467,-2.154009819,2024-06-04 16:21:18.824624
37.86505771,3.881893635,1.477636695,-2.701942682,2024-06-04 16:21:18.865058
37.90556255,9.470567703,3.247546196,-3.824011564,2024-06-04 16:21:18.905563
37.94605843,6.893478394,3.958016396,-3.483940125,2024-06-04 16:21:18.946058
37.98653307,3.69451189,2.602126122,-1.424556494,2024-06-04 16:21:18.986533
38.02702276,-2.972326756,-0.7084391117,0.1697010994,2024-06-04 16:21:19.027023
38.06748286,1.615688324,-0.7155380249,-1.102982521,2024-06-04 16:21:19.067483
38.10798458,4.325923443,0.4399671555,-1.134464025,2024-06-04 16:21:19.107985
38.14849927,1.197687626,0.3929347992,0.2972950935,2024-06-04 16:21:19.148499
38.18900416,-4.329967499,-1.178135395,0.470464468,2024-06-04 16:21:19.189004
38.22950656,-4.984719753,-1.498754025,0.8129713535,2024-06-04 16:21:19.229507
38.26995729,-4.116211891,-4.495735168,1.121840477,2024-06-04 16:21:19.269957
38.31045156,-1.348736286,-1.317490578,1.621451855,2024-06-04 16:21:19.310452
38.35098406,-3.641750336,-1.764496326,1.962932825,2024-06-04 16:21:19.350984
38.39145005,-1.515239239,-0.05728387833,1.422151566,2024-06-04 16:21:19.391450
38.43192984,0.4601211548,0.967669487,0.859077692,2024-06-04 16:21:19.431930
38.47242369,0.3210840225,0.5291404724,0.885381937,2024-06-04 16:21:19.472424
38.51291932,-0.619122982,-0.5859794617,0.2412440777,2024-06-04 16:21:19.512919
38.55340838,-3.769607544,-0.9401202202,0.599085331,2024-06-04 16:21:19.553408
38.59390312,-3.727572918,-1.576226234,-0.01020216942,2024-06-04 16:21:19.593903
38.63439474,-0.5782737732,-1.124829769,0.07184839249,2024-06-04 16:21:19.634395
38.67486916,0.3495688438,-2.291122913,-0.12139678,2024-06-04 16:21:19.674869
38.7153651,-0.4571809769,-2.786572695,-0.550763607,2024-06-04 16:21:19.715365
38.75585369,1.330936909,-2.189928293,-1.446501255,2024-06-04 16:21:19.755854
38.79634906,2.939307213,-1.823188305,-2.851746082,2024-06-04 16:21:19.796349
38.83683885,6.798015594,0.02879071236,-4.275999069,2024-06-04 16:21:19.836839
38.87730823,5.509691238,1.965195894,-2.883056164,2024-06-04 16:21:19.877308
38.91778869,4.619109154,2.612444162,-1.672451973,2024-06-04 16:21:19.917789
38.95828958,1.66110611,2.44554019,0.6138620377,2024-06-04 16:21:19.958290
38.99877307,-0.2710151672,0.4507086277,0.6696953773,2024-06-04 16:21:19.998773
39.03925614,-0.3175172806,-0.02106380463,0.5876870155,2024-06-04 16:21:20.039256
39.07976265,1.235683441,0.3058233261,-0.425147295,2024-06-04 16:21:20.079763
39.12025578,1.246052742,0.7335071564,-0.5692913532,2024-06-04 16:21:20.120256
39.16074703,-1.361882687,-0.8770990372,-0.6764130592,2024-06-04 16:21:20.160747
39.20123604,-4.004954338,-2.141388893,-0.5633168221,2024-06-04 16:21:20.201236
39.24172281,-4.588057995,-1.192249775,0.4709663391,2024-06-04 16:21:20.241723
39.28221427,-3.916857243,-1.529509544,0.9501414299,2024-06-04 16:21:20.282214
39.32268573,-2.801344872,-1.363455772,1.502728224,2024-06-04 16:21:20.322686
39.36319005,-0.8023576736,-0.9324035645,0.9635760784,2024-06-04 16:21:20.363190
39.40367375,1.03440094,0.8639817238,0.1148324013,2024-06-04 16:21:20.403674
39.44417041,0.7229390144,0.5482516289,0.2693986893,2024-06-04 16:21:20.444170
39.4846625,-0.6654825211,-0.9240903854,0.1992349625,2024-06-04 16:21:20.484662
39.52513963,-2.322501183,-1.379490376,-0.1341340542,2024-06-04 16:21:20.525140
39.56562427,-3.787482738,-1.458336353,0.1099164486,2024-06-04 16:21:20.565624
39.60611562,-4.022896767,-2.002105236,-0.004326820374,2024-06-04 16:21:20.606116
39.64658729,-0.4215807915,-2.101434231,0.6749212742,2024-06-04 16:21:20.646587
39.68706323,0.6901035309,-1.945738316,-3.411238194,2024-06-04 16:21:20.687063
39.7275589,-0.469619751,-1.517211437,1.359044552,2024-06-04 16:21:20.727559
39.76806182,-1.13155365,-3.388375521,-0.9857192039,2024-06-04 16:21:20.768062
39.80855078,7.199365616,1.191901565,-3.146939278,2024-06-04 16:21:20.808551
39.84903708,12.02629375,3.009799957,-3.388450623,2024-06-04 16:21:20.849037
39.88954515,5.620621681,2.552270412,-2.543447018,2024-06-04 16:21:20.889545
39.93003771,3.179937363,2.772877932,-1.800411224,2024-06-04 16:21:20.930038
39.97052599,2.088871956,2.366569519,0.7850372791,2024-06-04 16:21:20.970526
40.01099796,1.424183846,2.097222328,0.8238915205,2024-06-04 16:21:21.010998
40.0514664,-1.057764053,-0.8967442513,1.747093558,2024-06-04 16:21:21.051466
40.09195541,-3.657478333,-1.912209988,0.09388768673,2024-06-04 16:21:21.091955
40.13245588,-2.057808876,-2.416980267,1.496876359,2024-06-04 16:21:21.132456
40.1729552,-4.05580616,-3.17140007,4.50925827,2024-06-04 16:21:21.172955
40.21345625,-9.676161766,-3.644692898,6.172626972,2024-06-04 16:21:21.213456
40.25395349,-3.021975994,-1.310326099,2.966809273,2024-06-04 16:21:21.253953
40.2943814,2.766517639,0.4919657707,0.9494304657,2024-06-04 16:21:21.294381
40.3349076,2.750144958,-3.493030071,-0.06062364578,2024-06-04 16:21:21.334908
40.37539984,-2.952558041,-5.435372829,4.096114159,2024-06-04 16:21:21.375400
40.41590375,-2.583725452,-1.135931969,0.09256243706,2024-06-04 16:21:21.415904
40.45638682,-3.167060375,-0.444229126,1.313549042,2024-06-04 16:21:21.456387
40.49687948,-1.139620781,-2.037240982,0.2517905235,2024-06-04 16:21:21.496879
40.53733291,-2.387410641,-3.142911911,-3.057323933,2024-06-04 16:21:21.537333
40.57785,0.7073140144,-1.734127998,-2.357692719,2024-06-04 16:21:21.577850
40.618355,0.2995114326,-0.313724041,-3.557270288,2024-06-04 16:21:21.618355
40.65885234,2.184562206,2.456945658,-4.635509491,2024-06-04 16:21:21.658852
40.69932291,4.925085068,1.434785843,-3.712300301,2024-06-04 16:21:21.699323
40.73979458,7.321907997,0.6466568708,-3.755072832,2024-06-04 16:21:21.739795
40.78029317,6.22286129,1.953083754,-2.679382324,2024-06-04 16:21:21.780293
40.82078474,4.152677059,1.159102201,-2.093509197,2024-06-04 16:21:21.820785
40.86127198,3.123186111,0.03501796722,-1.16149807,2024-06-04 16:21:21.861272
40.90176114,-0.4357466698,-1.776682854,-0.04654932022,2024-06-04 16:21:21.901761
40.94221869,0.8281712532,-0.8822088242,0.4201509953,2024-06-04 16:21:21.942219
40.98270781,-0.7163858414,0.01134443283,0.522829771,2024-06-04 16:21:21.982708
41.02321906,-2.64393425,-0.2957119942,2.180238724,2024-06-04 16:21:22.023219
41.06370828,-3.67457056,-6.489291668,1.280495286,2024-06-04 16:21:22.063708
41.10422448,-3.434424877,-0.5864133835,1.069530487,2024-06-04 16:21:22.104224
41.14470536,-1.508893967,2.401590347,-1.29741478,2024-06-04 16:21:22.144705
41.18524823,-0.201859951,2.740874767,0.02272987366,2024-06-04 16:21:22.185248
41.22570265,-2.747350931,0.5233736038,-0.004942893982,2024-06-04 16:21:22.225703
41.26615854,-2.070625782,-1.9752388,1.62313652,2024-06-04 16:21:22.266159
41.3066477,-3.010669947,-2.265221596,-0.09060025215,2024-06-04 16:21:22.306648
41.34713953,-3.014071465,-2.726474762,-2.70382309,2024-06-04 16:21:22.347140
41.38764333,0.3285870552,-2.636956215,-1.817582607,2024-06-04 16:21:22.387643
41.42813843,1.826680183,0.6134681702,-2.344047308,2024-06-04 16:21:22.428138
41.46864109,0.6951909065,2.66613245,-3.496919155,2024-06-04 16:21:22.468641
41.50911,0.9629728794,0.8403234482,-2.150165558,2024-06-04 16:21:22.509110
41.54954833,1.212860107,1.118566513,-1.006520271,2024-06-04 16:21:22.549548
41.59007229,0.8749387264,-1.077210426,-0.16670084,2024-06-04 16:21:22.590072
41.6305938,-0.1593337059,0.2719430923,-0.1633042097,2024-06-04 16:21:22.630594
41.67106906,-2.294868708,-0.3383283615,-0.8026305437,2024-06-04 16:21:22.671069
41.71155817,-1.925962448,-1.600481033,-0.4465719461,2024-06-04 16:21:22.711558
41.75204734,0.6451702118,-0.7460918427,-0.1385172606,2024-06-04 16:21:22.752047
41.79253651,1.35343051,-0.5290632248,-1.769919872,2024-06-04 16:21:22.792537
41.83302562,3.256904364,0.4090709686,0.4681932926,2024-06-04 16:21:22.833026
41.87349078,1.013495684,-0.02608108521,0.4790548682,2024-06-04 16:21:22.873491
41.91401911,1.176196575,-0.2108697891,0.901781261,2024-06-04 16:21:22.914019
41.95450119,1.300633669,0.9879155159,0.4236941934,2024-06-04 16:21:22.954501
41.99498192,0.124335289,-3.998726845,2.544011354,2024-06-04 16:21:22.994982
42.03547099,0.8262114525,-0.7376642227,1.559207201,2024-06-04 16:21:23.035471
42.07594474,-0.030397892,-1.388503075,1.4476192,2024-06-04 16:21:23.075945
42.11646265,1.456964254,-1.521471024,0.9994441271,2024-06-04 16:21:23.116463
42.15695046,0.002747058868,-1.791266441,1.566988587,2024-06-04 16:21:23.156950
42.19743698,1.270918846,-1.328569412,0.8799592257,2024-06-04 16:21:23.197437
42.23789557,-0.1877660751,-0.8162374496,1.165910482,2024-06-04 16:21:23.237896
42.27838698,-0.6010570526,-0.3274536133,0.9942319393,2024-06-04 16:21:23.278387
42.31887604,-0.218334198,0.2552232742,0.2881288528,2024-06-04 16:21:23.318876
42.35938396,0.2401239872,-0.4225854874,0.4631516933,2024-06-04 16:21:23.359384
42.39993323,-0.4688539505,0.1227455139,0.4788086414,2024-06-04 16:21:23.399933
42.4403563,-0.1524367332,0.9352903366,-0.8735250235,2024-06-04 16:21:23.440356
42.48083531,-0.3002426624,1.151825905,-0.8297054768,2024-06-04 16:21:23.480835
42.52137531,-0.1077668667,1.118094921,-1.328090072,2024-06-04 16:21:23.521375
42.56178552,0.1702742577,-0.1731910706,-1.157702684,2024-06-04 16:21:23.561786
42.60227583,-0.4719398022,0.4057540894,-1.105310917,2024-06-04 16:21:23.602276
42.64278052,-1.339786053,0.5083713531,-1.598267198,2024-06-04 16:21:23.642781
42.68329625,-0.7910339832,-0.006421089172,-2.276212931,2024-06-04 16:21:23.683296
42.72377114,-0.6807141304,-0.7026720047,-1.871913791,2024-06-04 16:21:23.723771
42.7642625,-1.339330196,-1.199508667,-1.198162317,2024-06-04 16:21:23.764263
42.80475093,-0.4618494511,0.4110679626,-2.751014471,2024-06-04 16:21:23.804751
42.84524349,0.09595799446,0.09789848328,-2.043557167,2024-06-04 16:21:23.845243
42.88573843,0.523026228,-0.3737154007,-1.267551064,2024-06-04 16:21:23.885738
42.92623682,0.6051461697,-0.8607988358,-1.378388047,2024-06-04 16:21:23.926237
42.9667313,0.655954361,0.3503360748,-1.157636642,2024-06-04 16:21:23.966731
43.00719744,0.7470550537,0.4504423141,-0.8301086426,2024-06-04 16:21:24.007197
43.0476826,-0.1011993885,-0.3423204422,-0.7228279114,2024-06-04 16:21:24.047683
43.0881689,1.092349052,0.03175830841,-0.4988231659,2024-06-04 16:21:24.088169
43.12866073,0.9231638908,-0.2981529236,0.9147273302,2024-06-04 16:21:24.128661
43.16916828,1.172148228,-0.01628398895,-1.214217186,2024-06-04 16:21:24.169168
43.20966583,1.84553957,-1.164142609,1.516556025,2024-06-04 16:21:24.209666
43.25015724,0.9334554672,-0.9191808701,1.078833103,2024-06-04 16:21:24.250157
43.29063135,0.6423881054,-0.534491539,0.9578961134,2024-06-04 16:21:24.290631
43.3311189,1.315797567,0.7512273788,1.07256794,2024-06-04 16:21:24.331119
43.37160494,1.012067795,-1.848530769,1.562584639,2024-06-04 16:21:24.371605
43.412085,1.306835175,-1.481663704,1.643539906,2024-06-04 16:21:24.412085
43.45256146,-0.003535270691,-1.77570343,2.084517956,2024-06-04 16:21:24.452561
43.49306838,0.2758469582,-1.815080643,2.046517611,2024-06-04 16:21:24.493068
43.53355885,-0.1031646729,-0.3971881866,1.314297318,2024-06-04 16:21:24.533559
43.57404333,1.291713476,-1.586164474,1.417063951,2024-06-04 16:21:24.574043
43.61454979,0.4525198936,-0.6998386383,1.655730963,2024-06-04 16:21:24.614550
43.65503781,0.6557211876,-0.9856033325,1.304021597,2024-06-04 16:21:24.655038
43.69554203,0.8077726364,-0.4781255722,1.055553913,2024-06-04 16:21:24.695542
43.73601411,0.676022768,0.1643209457,0.9400678873,2024-06-04 16:21:24.736014
43.77652448,-0.2756075859,0.1279697418,0.8078491688,2024-06-04 16:21:24.776524
43.81703073,-0.05311751366,1.345682144,-0.2118618488,2024-06-04 16:21:24.817031
43.85748515,-0.3900315762,1.304557323,0.5101084709,2024-06-04 16:21:24.857485
43.89798099,-0.5825209618,1.534294605,0.000364780426,2024-06-04 16:21:24.897981
43.93847312,-0.4013130665,1.32129097,-0.8622050285,2024-06-04 16:21:24.938473
43.97896937,-0.2655403614,0.1132774353,-0.1754097939,2024-06-04 16:21:24.978969
44.01945109,-0.4578254223,0.2813959122,-1.379206896,2024-06-04 16:21:25.019451
44.0599338,-0.9657359123,-0.6768798828,-0.294084549,2024-06-04 16:21:25.059934
44.10040427,-0.1378180981,1.345871925,-2.183042049,2024-06-04 16:21:25.100404
44.14089109,-0.3770542145,0.05383014679,-0.8770501614,2024-06-04 16:21:25.140891
44.18137541,-1.013803244,0.9214515686,-0.5577685833,2024-06-04 16:21:25.181375
44.22186052,-0.7085258961,0.3832473755,-1.503163338,2024-06-04 16:21:25.221861
44.26236765,-1.677367449,-0.7973327637,0.04516887665,2024-06-04 16:21:25.262368
44.30285802,0.2158341408,-0.7666196823,-0.4166693687,2024-06-04 16:21:25.302858
44.34334974,-1.842272282,-3.420841694,-0.4809808731,2024-06-04 16:21:25.343350
44.38383823,-1.780160904,-0.6005396843,-1.438443184,2024-06-04 16:21:25.383838
44.42431875,0.8001027107,1.072642803,-1.813914061,2024-06-04 16:21:25.424319
44.4648789,2.362429619,0.03869009018,-0.6010968685,2024-06-04 16:21:25.464879
44.50532906,-0.05763244629,-1.16547966,0.887513876,2024-06-04 16:21:25.505329
44.54574828,-1.942586899,-0.5304718018,0.627215147,2024-06-04 16:21:25.545748
44.58629161,-1.005328655,-0.9527745247,0.5687577724,2024-06-04 16:21:25.586292
44.62679401,-3.082642078,-1.483886242,0.3923316002,2024-06-04 16:21:25.626794
44.6672863,0.1804256439,0.1062245369,-1.333637476,2024-06-04 16:21:25.667286
44.70776135,-1.813437939,-0.3939571381,-0.1024923325,2024-06-04 16:21:25.707761
44.74825182,-1.961260319,-1.9931674,0.1538486481,2024-06-04 16:21:25.748252
44.78874765,-0.4800801277,-3.084188461,-2.930721283,2024-06-04 16:21:25.788748
44.82924109,1.371413708,0.7629754543,-2.536991119,2024-06-04 16:21:25.829241
44.86973724,7.358441353,-0.05265426636,-4.490997314,2024-06-04 16:21:25.869737
44.9102051,6.126969337,2.388003588,-1.180860519,2024-06-04 16:21:25.910205
44.95072802,-0.5724220276,0.2134430408,0.0055809021,2024-06-04 16:21:25.950728
44.99118364,4.313936234,1.333909988,0.6980628967,2024-06-04 16:21:25.991184
45.03167276,2.889231682,0.8235728741,0.06347250938,2024-06-04 16:21:26.031673
45.07212734,-0.4660892487,-0.7509117126,0.2273242474,2024-06-04 16:21:26.072127
45.1126327,0.1983213425,-1.38611412,-0.07751560211,2024-06-04 16:21:26.112633
45.15311593,1.127373695,0.03223896027,0.0324344635,2024-06-04 16:21:26.153116
45.19365463,-1.393959045,2.193740368,0.947581768,2024-06-04 16:21:26.193655
45.23422146,-3.878573418,0.7007646561,1.76258707,2024-06-04 16:21:26.234221
45.27460838,-2.719777107,-3.095053673,1.118356228,2024-06-04 16:21:26.274608
45.31504797,-2.416571617,0.7509627342,1.893347502,2024-06-04 16:21:26.315048
45.35558265,-4.515518665,-0.8798770905,0.7496130466,2024-06-04 16:21:26.355583
45.39608666,-2.148807526,-1.535734653,-0.38104105,2024-06-04 16:21:26.396087
45.43656557,-2.136915207,-0.4701957703,0.2147214413,2024-06-04 16:21:26.436566
45.47704031,-1.880987644,-0.2718958855,1.575741529,2024-06-04 16:21:26.477040
45.51752927,0.9556450844,0.1049408913,-0.5619113445,2024-06-04 16:21:26.517529
45.55800802,3.060436249,0.9859166145,-1.843328953,2024-06-04 16:21:26.558008
45.59851896,-1.516108513,-0.3911352158,0.8425068855,2024-06-04 16:21:26.598519
45.63903859,-4.06475544,-0.9895339012,-0.2515099049,2024-06-04 16:21:26.639039
45.67951843,-3.750932217,-0.3528094292,-1.486267567,2024-06-04 16:21:26.679518
45.71997614,-2.417260647,-2.62214756,-1.166599989,2024-06-04 16:21:26.719976
45.76046093,-1.145663738,-4.058478355,-0.5975966454,2024-06-04 16:21:26.760461
45.80098583,0.8703269958,-1.233481884,-2.182500124,2024-06-04 16:21:26.800986
45.84146255,2.280880928,0.507468462,-3.22258544,2024-06-04 16:21:26.841463
45.88193411,3.081429958,0.5331037045,-2.465095997,2024-06-04 16:21:26.881934
45.92242354,4.573040009,0.5480468273,-2.613404274,2024-06-04 16:21:26.922424
45.96288703,4.878380775,0.9913704395,-2.248811007,2024-06-04 16:21:26.962887
46.00339323,1.041332245,0.8076794147,-0.7317976952,2024-06-04 16:21:27.003393
46.04388187,7.629004478,2.338772535,-1.526198864,2024-06-04 16:21:27.043882
46.08439901,3.190853596,1.229436398,-0.1191220284,2024-06-04 16:21:27.084399
46.12487708,-0.8755402565,-1.877117634,0.443161726,2024-06-04 16:21:27.124877
46.16536218,-1.054839134,-2.103962421,1.63936162,2024-06-04 16:21:27.165362
46.20587364,-5.725971699,-1.798633099,1.894791126,2024-06-04 16:21:27.205874
46.24635635,-0.9826974869,-1.237024784,-0.3135378361,2024-06-04 16:21:27.246356
46.28682349,1.648654938,1.350047112,-0.4499168396,2024-06-04 16:21:27.286823
46.32730057,-2.160787106,0.1410655975,-0.00488781929,2024-06-04 16:21:27.327301
46.3678213,-2.982657433,-0.8384509087,0.8723351955,2024-06-04 16:21:27.367821
46.40830833,-4.29611063,0.01203918457,1.719446898,2024-06-04 16:21:27.408308
46.44880646,-4.312076092,-0.2431240082,2.509739161,2024-06-04 16:21:27.448806
46.4892825,-2.758138657,-1.421647549,2.141114712,2024-06-04 16:21:27.489283
46.52975104,0.5669412613,-0.3187932968,-1.359686136,2024-06-04 16:21:27.529751
46.5702375,3.733958244,-1.398527622,-0.6555631161,2024-06-04 16:21:27.570237
46.61074948,0.8784365654,-1.110523701,-0.550265789,2024-06-04 16:21:27.610749
46.6512325,-6.680208206,-0.2890143394,-0.8459174633,2024-06-04 16:21:27.651232
46.69171198,-5.834939957,-1.332752705,-1.017783165,2024-06-04 16:21:27.691712
46.73218875,-1.621801376,-3.275434017,-2.597428322,2024-06-04 16:21:27.732189
46.77269802,0.2546696663,-2.667668819,-1.79289484,2024-06-04 16:21:27.772698
46.81319619,-3.256474972,0.4776186943,-4.72183609,2024-06-04 16:21:27.813196
46.85368573,1.461056232,0.4143388271,-3.099992752,2024-06-04 16:21:27.853686
46.89417505,2.044789314,-1.002411842,-3.979053259,2024-06-04 16:21:27.894175
46.93467427,7.344523907,0.8372113705,-4.537076473,2024-06-04 16:21:27.934674
46.97515041,4.592624664,1.901094437,-2.70912981,2024-06-04 16:21:27.975150
47.01564609,3.097452641,2.082772255,-1.893598557,2024-06-04 16:21:28.015646
47.05614317,2.342679024,0.8907415867,-1.414868832,2024-06-04 16:21:28.056143
47.09662036,1.825395107,0.1707141399,-0.5291953087,2024-06-04 16:21:28.096620
47.13711994,-0.08309078217,-1.286827564,-0.4313259125,2024-06-04 16:21:28.137120
47.17761713,-2.425622463,-1.761021614,0.1715173721,2024-06-04 16:21:28.177617
47.21808265,-3.54167223,-1.219939709,0.09246397018,2024-06-04 16:21:28.218083
47.25859828,-3.197367668,-1.334814072,-0.1740436554,2024-06-04 16:21:28.258598
47.29910672,-1.850189686,-1.188026428,-0.4560105801,2024-06-04 16:21:28.299107
47.33955416,-4.545777321,-1.044847965,-0.5476367474,2024-06-04 16:21:28.339554
47.38005297,-4.826310158,-0.890686512,0.7947638035,2024-06-04 16:21:28.380053
47.42053791,-3.14703083,-0.3339452744,0.3505589962,2024-06-04 16:21:28.420538
47.46103239,-0.8611297607,-0.007359027863,-0.3935484886,2024-06-04 16:21:28.461032
47.50152661,0.1151046753,-0.5513911247,-0.2012841702,2024-06-04 16:21:28.501527
47.54196838,1.76748085,-0.6379628181,-1.665239573,2024-06-04 16:21:28.541968
47.58250343,-1.153697491,-0.4759097099,-0.9777910709,2024-06-04 16:21:28.582503
47.62299208,-3.974631786,-1.231556892,-0.1352641582,2024-06-04 16:21:28.622992
47.66348666,-5.962047577,-1.549963951,-1.323691845,2024-06-04 16:21:28.663487
47.70398531,-2.785279274,-3.272803307,-1.843819618,2024-06-04 16:21:28.703985
47.7444564,0.5238375664,-3.095638514,-1.231511354,2024-06-04 16:21:28.744456
47.78492541,0.2209486961,-1.109213829,-3.548052549,2024-06-04 16:21:28.784925
47.82541411,2.544326782,0.8663839102,-3.437850952,2024-06-04 16:21:28.825414
47.86590677,2.884716511,0.3410198689,-2.658375025,2024-06-04 16:21:28.865907
47.90642151,4.85052681,0.2134575844,-2.377713203,2024-06-04 16:21:28.906422
47.9469102,4.530438423,0.6460385323,-2.117010355,2024-06-04 16:21:28.946910
47.9873738,5.386266708,1.958801031,-2.142439842,2024-06-04 16:21:28.987374
48.02788698,6.214461803,1.778159857,-2.411949635,2024-06-04 16:21:29.027887
48.06837296,3.343750477,-0.04630374908,-1.576816201,2024-06-04 16:21:29.068373
48.10883963,-0.8257751465,-3.098249912,0.2728199959,2024-06-04 16:21:29.108840
48.14932724,-3.09375906,-3.694479942,1.849328041,2024-06-04 16:21:29.149327
48.18981927,-2.167974949,-0.9104576111,1.986960053,2024-06-04 16:21:29.189819
48.23034047,-1.859019756,-1.979490757,1.048049212,2024-06-04 16:21:29.230340
48.27080463,-0.5568099022,-2.488517761,2.075777054,2024-06-04 16:21:29.270805
48.31131286,-1.820888042,-1.437342644,1.606422424,2024-06-04 16:21:29.311313
48.35178224,-2.388067245,-1.058893204,0.8797421455,2024-06-04 16:21:29.351782
48.39223984,-1.850800991,-2.229402542,1.845164299,2024-06-04 16:21:29.392240
48.43274041,-2.10055685,1.291408539,1.625069737,2024-06-04 16:21:29.432740
48.47324552,-2.468391895,-0.2818937302,0.6114679575,2024-06-04 16:21:29.473246
48.51375286,1.295818806,1.120884895,-1.575547814,2024-06-04 16:21:29.513753
48.55424229,0.6430106163,0.6501693726,-0.599388361,2024-06-04 16:21:29.554242
48.59473953,0.3528006077,0.5018157959,-0.9275454879,2024-06-04 16:21:29.594740
48.63522354,-1.204166651,0.01430988312,-0.7829620838,2024-06-04 16:21:29.635224
48.67572729,-0.4642384052,0.6222171783,-1.881207943,2024-06-04 16:21:29.675727
48.7161776,-0.03776526451,-0.4638328552,-0.1034963131,2024-06-04 16:21:29.716178
48.75666567,-0.4385125637,-0.0360660553,-0.4614014626,2024-06-04 16:21:29.756666
48.79716208,-1.158283472,0.09941673279,-0.7069103718,2024-06-04 16:21:29.797162
48.83765161,-1.13747263,-0.6157674789,-0.8830144405,2024-06-04 16:21:29.837652
48.87814187,-1.262749672,-0.1789922714,-2.041087627,2024-06-04 16:21:29.878142
48.91862323,-0.8718166351,-0.7457427979,-0.8907675743,2024-06-04 16:21:29.918623
48.95911625,-0.4612026215,0.5088968277,-2.946854115,2024-06-04 16:21:29.959116
48.99970302,2.030676126,-0.644659996,-2.308328867,2024-06-04 16:21:29.999703
49.04010843,0.06698918343,-0.415722847,-1.024800897,2024-06-04 16:21:30.040108
49.08059187,0.5188052654,-0.7865142822,-1.866462588,2024-06-04 16:21:30.080592
49.12106073,-0.04289340973,0.2776584625,-1.184463263,2024-06-04 16:21:30.121061
49.16154963,1.122993469,0.7709083557,-0.9068929553,2024-06-04 16:21:30.161550
49.20204781,0.2741296291,0.2733535767,-0.8082083464,2024-06-04 16:21:30.202048
49.24253687,1.456014156,0.5426883698,-0.7924612164,2024-06-04 16:21:30.242537
49.28304588,0.5226244926,-0.2522230148,0.06073403358,2024-06-04 16:21:30.283046
49.32353531,0.4936659336,-0.05572414398,-0.2540758252,2024-06-04 16:21:30.323535
49.36405911,0.7227118015,-0.3421401978,0.2575725317,2024-06-04 16:21:30.364059
49.40451567,0.6205086708,-0.5723018646,0.2313221097,2024-06-04 16:21:30.404516
49.44501489,0.443051815,-0.8336925507,0.802960515,2024-06-04 16:21:30.445015
49.48548922,0.4971551895,-0.7511920929,1.181289196,2024-06-04 16:21:30.485489
49.52596135,0.9148654938,-0.8474960327,0.723277092,2024-06-04 16:21:30.525961
49.56645984,0.9676618576,-1.115077019,1.616388917,2024-06-04 16:21:30.566460
49.60694718,0.7395219803,-0.813082695,1.003798842,2024-06-04 16:21:30.606947
49.64742468,1.6894238,-1.395980835,1.455264926,2024-06-04 16:21:30.647425
49.68791651,0.639993906,-0.4151029587,1.540827513,2024-06-04 16:21:30.687917
49.72842833,0.07657194138,-0.8375616074,1.31352067,2024-06-04 16:21:30.728428
49.76893614,-0.005124568939,0.2897100449,1.339717627,2024-06-04 16:21:30.768936
49.80939849,0.845192194,0.5319499969,0.5653246641,2024-06-04 16:21:30.809398
49.84989994,0.5328118801,-1.79062748,1.520244956,2024-06-04 16:21:30.849900
49.89036041,-0.3377289772,-0.5799951553,1.029866457,2024-06-04 16:21:30.890360
49.93086119,-0.966067791,-0.05984401703,0.6799729466,2024-06-04 16:21:30.930861
49.97136401,0.5329349041,-0.2644548416,0.008373975754,2024-06-04 16:21:30.971364
50.01184343,-0.1318335533,-0.1321001053,0.7051918507,2024-06-04 16:21:31.011843
50.05228146,-0.4208855629,-0.3253288269,0.7437084913,2024-06-04 16:21:31.052281
50.09282057,-0.3124623299,1.37185812,-0.8860869408,2024-06-04 16:21:31.092821
50.1333226,0.4172239304,1.097945213,-0.4699594975,2024-06-04 16:21:31.133323
50.1738089,-0.06279945374,-0.162899971,-0.08830034733,2024-06-04 16:21:31.173809
50.21428666,-0.731210947,0.2280912399,-0.7603928447,2024-06-04 16:21:31.214287
50.25478536,-0.1232097149,-0.1904535294,-0.3710165024,2024-06-04 16:21:31.254785
50.29528271,-0.195857048,-0.01876831055,-0.9198178053,2024-06-04 16:21:31.295283
50.33576213,-0.1589610577,0.1379938126,-1.030481458,2024-06-04 16:21:31.335762
50.37624656,0.1821229458,-0.2523927689,-0.6918777227,2024-06-04 16:21:31.376247
50.41673276,0.7719805241,-0.2951936722,-0.9697657824,2024-06-04 16:21:31.416733
50.45722187,-0.162501812,-0.1682977676,-0.228815794,2024-06-04 16:21:31.457222
50.49771869,0.03903388977,0.04545783997,-0.7520864606,2024-06-04 16:21:31.497719
50.53819453,0.9498353004,0.4578437805,-0.8203443289,2024-06-04 16:21:31.538195
50.57870239,0.8554048538,-0.3128175735,-0.2744096518,2024-06-04 16:21:31.578702
50.61919041,0.6332719326,-0.4166498184,-0.03706288338,2024-06-04 16:21:31.619190
50.65967359,0.48554492,-0.1150550842,0.1309732199,2024-06-04 16:21:31.659674
50.70016396,0.8497259617,0.3061170578,-0.1758345962,2024-06-04 16:21:31.700164
50.74067515,1.034609795,0.05105495453,0.5200678706,2024-06-04 16:21:31.740675
50.78117531,0.9167277813,-0.2793684006,0.4700779319,2024-06-04 16:21:31.781175
50.82166468,0.6913075447,-0.7013034821,0.6893953681,2024-06-04 16:21:31.821665
50.86211479,0.4480569363,-0.8719511032,1.403389454,2024-06-04 16:21:31.862115
50.90256869,0.9371199608,-0.4781799316,0.6182422638,2024-06-04 16:21:31.902569
50.94310635,0.885436058,-0.4975805283,1.233548284,2024-06-04 16:21:31.943106
50.98358239,0.8758270741,-0.1723384857,1.181523561,2024-06-04 16:21:31.983582
51.0240826,1.109232903,-0.3473644257,0.9461926222,2024-06-04 16:21:32.024083
51.06457192,0.4342861176,-0.8238573074,1.6113801,2024-06-04 16:21:32.064572
51.10502255,0.5228397846,-0.8016204834,1.339024305,2024-06-04 16:21:32.105023
51.14556375,0.4695539474,-1.551087379,1.47063148,2024-06-04 16:21:32.145564
51.18602843,0.1486124992,-0.9021673203,1.350769758,2024-06-04 16:21:32.186028
51.22652557,0.2967801094,-0.396440506,1.209318876,2024-06-04 16:21:32.226526
51.2670038,0.2374825478,0.05120277405,0.7493550181,2024-06-04 16:21:32.267004
51.30745713,0.7478587627,0.1616792679,0.7376186252,2024-06-04 16:21:32.307457
51.34795797,0.2382097244,-0.3870382309,0.9778919816,2024-06-04 16:21:32.347958
51.38846437,-0.2326126099,0.1609382629,0.5140984654,2024-06-04 16:21:32.388464
51.42895359,-0.1455471516,-0.07027244568,0.5471293926,2024-06-04 16:21:32.428954
51.46944718,-0.1524682045,0.2816905975,0.01278781891,2024-06-04 16:21:32.469447
51.50993489,-0.1435291767,0.2405138016,0.02821111679,2024-06-04 16:21:32.509935
51.55041239,-0.1358044147,0.3990297318,-0.2390519381,2024-06-04 16:21:32.550412
51.59091463,0.1854169369,0.4484901428,-0.9190993309,2024-06-04 16:21:32.590915
51.63138166,-0.04408144951,-0.5070962906,0.1665748358,2024-06-04 16:21:32.631382
51.67189265,-1.353761435,1.021199226,-0.9320735335,2024-06-04 16:21:32.671893
51.71239343,0.00203537941,0.4081010818,-1.239991188,2024-06-04 16:21:32.712393
51.75287109,0.02047252655,0.3871469498,-0.9793866873,2024-06-04 16:21:32.752871
51.79333442,-0.551721096,0.06094264984,-0.8353447914,2024-06-04 16:21:32.793334
51.83382369,-0.7270524502,-0.2063016891,-1.184944391,2024-06-04 16:21:32.833824
51.87432885,0.1259121895,-0.1406230927,-1.2946527,2024-06-04 16:21:32.874329
51.91485302,-0.744777441,-0.05076122284,-0.4672672749,2024-06-04 16:21:32.914853
51.95533901,-0.1991968155,-0.262345314,-1.507385254,2024-06-04 16:21:32.955339
51.99584349,0.563668251,0.05368709564,-0.7114089727,2024-06-04 16:21:32.995843
52.03629468,0.7706725597,-0.5423660278,0.1673485041,2024-06-04 16:21:33.036295
52.07678396,-0.5109913349,0.5964040756,-0.9540082216,2024-06-04 16:21:33.076784
52.11727422,-2.046299934,1.29234457,-0.5642982721,2024-06-04 16:21:33.117274
52.15778672,-1.351417065,-0.1270027161,-0.5550073981,2024-06-04 16:21:33.157787
52.19826484,0.0341296196,-1.666046143,2.132753849,2024-06-04 16:21:33.198265
52.23874385,3.305796862,-0.8558907509,0.4054418802,2024-06-04 16:21:33.238744
52.27926448,2.496842384,0.1874513626,0.2966595888,2024-06-04 16:21:33.279264
52.31969744,1.025670052,-1.216432571,0.1834615469,2024-06-04 16:21:33.319697
52.36021427,1.303641796,-1.449158669,1.292147875,2024-06-04 16:21:33.360214
52.40071333,2.040793896,-1.498598099,1.262948394,2024-06-04 16:21:33.400713
52.44122291,0.839299202,-0.6928157806,2.955208302,2024-06-04 16:21:33.441223
52.48171203,-1.701253414,-0.8499054909,2.587199926,2024-06-04 16:21:33.481712
52.52213812,-2.516656399,-1.221652508,1.505912185,2024-06-04 16:21:33.522138
52.56264448,-3.530864239,-1.614988327,1.159244657,2024-06-04 16:21:33.562644
52.60315442,-1.85063839,-1.903851986,1.408783793,2024-06-04 16:21:33.603154
52.64364557,-1.44000721,-3.141100407,2.4589293,2024-06-04 16:21:33.643646
52.68411864,0.8309822083,-2.694650412,0.7045958042,2024-06-04 16:21:33.684119
52.724605,1.478396416,-0.8133459091,-1.219369173,2024-06-04 16:21:33.724605
52.76509854,4.587756634,0.7963881493,-0.7401542664,2024-06-04 16:21:33.765099
52.80559286,3.316872597,0.8112316132,-1.411404133,2024-06-04 16:21:33.805593
52.84609208,3.726491928,0.9881757498,-1.894084692,2024-06-04 16:21:33.846092
52.88657192,6.103991508,2.79575181,-2.145690918,2024-06-04 16:21:33.886572
52.9270601,5.111052036,2.801525831,-1.116149426,2024-06-04 16:21:33.927060
52.96756385,2.987286568,2.238039494,-1.145348072,2024-06-04 16:21:33.967564
53.00805614,-0.1299190521,0.8150434494,0.02885866165,2024-06-04 16:21:34.008056
53.0485476,-0.7843985558,-0.1725592613,0.5690333843,2024-06-04 16:21:34.048548
53.08903864,-1.083889008,-0.5114760399,1.548080444,2024-06-04 16:21:34.089039
53.129535,-3.050210953,-0.9076695442,1.359706998,2024-06-04 16:21:34.129535
53.17001093,-2.689900398,-2.004012585,1.962987423,2024-06-04 16:21:34.170011
53.21049031,-1.529322624,-0.04589271545,1.472657681,2024-06-04 16:21:34.210490
53.25098869,-1.423086166,-0.5517587662,0.9149760008,2024-06-04 16:21:34.250989
53.29147958,-3.251539707,-1.093221664,0.6550645828,2024-06-04 16:21:34.291480
53.33196385,-1.811170101,-0.0836391449,-0.0825098753,2024-06-04 16:21:34.331964
53.37243869,-1.118863583,-0.5366311073,2.655391693,2024-06-04 16:21:34.372439
53.41293354,-1.84452343,-0.5208425522,2.643265486,2024-06-04 16:21:34.412934
53.45341875,0.9408960342,-0.02195453644,-0.4625307322,2024-06-04 16:21:34.453419
53.49390088,2.838796616,-1.620282173,0.5131323338,2024-06-04 16:21:34.493901
53.53441635,-0.643887043,-1.588458061,0.6800849438,2024-06-04 16:21:34.534416
53.57493901,-5.517704964,-0.5652685165,0.4364156723,2024-06-04 16:21:34.574939
53.61539333,-3.174132824,-0.7651996613,-0.23285079,2024-06-04 16:21:34.615393
53.65586724,-0.8219680786,-2.211018562,-0.6732008457,2024-06-04 16:21:34.655867
53.69635328,-0.07679843903,-1.43913722,-0.5401036739,2024-06-04 16:21:34.696353
53.73684156,0.5873250961,-0.6036186218,-2.755414486,2024-06-04 16:21:34.736842
53.77733375,1.731301308,0.4864432812,-2.97674942,2024-06-04 16:21:34.777334
53.81783807,3.333713531,0.08377289772,-2.374149561,2024-06-04 16:21:34.817838
53.85839578,4.495040417,0.3475445509,-2.208680391,2024-06-04 16:21:34.858396
53.89885656,5.81190443,1.948610544,-2.045140266,2024-06-04 16:21:34.898857
53.9392989,5.145906448,1.306410193,-1.670562506,2024-06-04 16:21:34.939299
53.97977953,3.412563324,1.110300064,-0.996642828,2024-06-04 16:21:34.979780
54.02026541,1.832839966,0.4641859531,-0.4281525612,2024-06-04 16:21:35.020265
54.06075265,1.092921734,-0.7798032761,0.3971993923,2024-06-04 16:21:35.060753
54.10123588,-0.7180509567,-0.9914698601,0.3710606098,2024-06-04 16:21:35.101236
54.14172203,-2.38917923,-1.620714664,1.065041542,2024-06-04 16:21:35.141722
54.18221109,-2.294597626,-1.047976017,0.5828897953,2024-06-04 16:21:35.182211
54.22268224,-1.18425703,-0.5860376358,0.8676804304,2024-06-04 16:21:35.222682
54.26318635,-1.265453339,-0.5288066864,0.9381537437,2024-06-04 16:21:35.263186
54.3037138,-3.214066982,-1.29211235,0.363468051,2024-06-04 16:21:35.303714
54.34419468,-3.358822346,-0.1552906036,0.4487425089,2024-06-04 16:21:35.344195
54.3846714,-2.987375259,-0.7775163651,0.7502472401,2024-06-04 16:21:35.384671
54.42518932,-2.840551853,-0.2103509903,1.193916202,2024-06-04 16:21:35.425189
54.46565635,-1.315833092,0.9850482941,0.1370426416,2024-06-04 16:21:35.465656
54.50615109,1.370552063,0.1747274399,-0.7494404316,2024-06-04 16:21:35.506151
54.54662843,2.839169979,-0.1444678307,-1.136063218,2024-06-04 16:21:35.546628
54.58714651,1.951131821,-0.831635952,-0.633939743,2024-06-04 16:21:35.587147
54.62760677,1.062795639,-1.598658085,0.2547888756,2024-06-04 16:21:35.627607
54.6681175,1.258560658,1.20984745,-0.6502982974,2024-06-04 16:21:35.668118
54.70861578,1.80994463,1.720084667,-0.2907979488,2024-06-04 16:21:35.708616
54.7490989,-0.8405404091,-1.063387394,0.6476215124,2024-06-04 16:21:35.749099
54.78956317,-1.274909496,0.02739334106,0.539719224,2024-06-04 16:21:35.789563
54.83010364,-3.165273666,-2.59028244,1.267575026,2024-06-04 16:21:35.830104
54.87055458,-1.986956596,-1.523238182,0.6798422337,2024-06-04 16:21:35.870555
54.91112031,0.08213996887,-0.3060884476,-0.1567491293,2024-06-04 16:21:35.911120
54.95154817,2.100165606,0.34836483,-0.3474988341,2024-06-04 16:21:35.951548
54.99199979,3.383502483,1.917189598,-0.7186344862,2024-06-04 16:21:35.992000
55.03250005,1.39253664,0.8709878922,-0.5091603994,2024-06-04 16:21:36.032500
55.07302052,0.03935575485,0.9817824364,-0.5051538348,2024-06-04 16:21:36.073021
55.11349135,-0.5942087173,0.1789107323,-0.605589509,2024-06-04 16:21:36.113491
55.15398593,-1.212285519,-0.7324390411,-0.03045427799,2024-06-04 16:21:36.153986
55.19447208,-1.077360153,-1.661622047,0.7511553764,2024-06-04 16:21:36.194472
55.23494666,-1.115341663,-0.8871259689,0.9003988504,2024-06-04 16:21:36.234947
55.27545942,0.0616607666,-0.4345159531,0.1805249453,2024-06-04 16:21:36.275459
55.31591885,-0.2140917778,-0.1740283966,-0.1719464064,2024-06-04 16:21:36.315919
55.35641255,0.7284870148,0.3273181915,-0.2057110071,2024-06-04 16:21:36.356413
55.39691968,0.9680938721,0.3332471848,-0.5364025831,2024-06-04 16:21:36.396920
55.43739791,0.4844212532,0.4424171448,-0.2600256205,2024-06-04 16:21:36.437398
55.47792343,0.7873921394,-0.06249046326,-0.44238168,2024-06-04 16:21:36.477923
55.51837557,0.2375664711,-0.2357664108,-0.1507610083,2024-06-04 16:21:36.518376
55.55885932,-0.09743499756,-0.695473671,0.04541754723,2024-06-04 16:21:36.558859
55.59937546,0.1479930878,-0.853925705,0.2259306908,2024-06-04 16:21:36.599375
55.63987489,-0.3649296761,-0.02271842957,0.3438401222,2024-06-04 16:21:36.639875
55.68035427,0.05042648315,0.5972566605,-0.1457548141,2024-06-04 16:21:36.680354
55.7208227,-0.3109250069,0.4726967812,-0.1581138372,2024-06-04 16:21:36.720823
55.76132963,0.1058197021,0.4735455513,-0.3915536404,2024-06-04 16:21:36.761330
55.80176552,-0.2816691399,-0.8705358505,-0.02671635151,2024-06-04 16:21:36.801766
55.84229229,-0.2634091377,-0.5884580612,-0.1333280802,2024-06-04 16:21:36.842292
55.88280156,0.682387352,0.01008033752,-0.4048639536,2024-06-04 16:21:36.882802
55.92326812,0.7371988297,-0.3417034149,-0.1314971447,2024-06-04 16:21:36.923268
55.96375619,0.4547944069,0.4832029343,-0.1264634132,2024-06-04 16:21:36.963756
56.00425672,0.4842157364,0.2341575623,-0.0683182478,2024-06-04 16:21:37.004257
56.04474208,-0.4873304367,0.05917739868,0.005744814873,2024-06-04 16:21:37.044742
56.08521802,-0.3143281937,-0.230219841,-0.03019917011,2024-06-04 16:21:37.085218
56.12571052,-0.6037888527,-0.3867206573,0.105954051,2024-06-04 16:21:37.125711
56.16621526,0.2136492729,-0.3352279663,-0.2144850492,2024-06-04 16:21:37.166215
56.20670291,0.2232298851,-0.1214981079,-0.06572520733,2024-06-04 16:21:37.206703
56.2471738,0.8926644325,0.05777168274,-0.266341567,2024-06-04 16:21:37.247174
56.28765729,0.2003941536,0.06233215332,-0.08124029636,2024-06-04 16:21:37.287657
56.32815698,0.5653986931,0.2454223633,-0.2377016544,2024-06-04 16:21:37.328157
56.36864369,0.1592903137,-0.2739028931,0.04871952534,2024-06-04 16:21:37.368644
56.40915698,-0.4691734314,-0.274312973,0.3807685375,2024-06-04 16:21:37.409157
56.44963911,0.06878519058,0.5491132736,-0.2747271061,2024-06-04 16:21:37.449639
56.49012604,-0.1314258575,-0.324464798,0.1898815632,2024-06-04 16:21:37.490126
56.53060849,0.3507266045,-0.01518535614,0.08814108372,2024-06-04 16:21:37.530608
56.57109073,0.368891716,-0.5679206848,0.1307836771,2024-06-04 16:21:37.571091
56.61159104,-0.1143689156,-0.9479827881,0.6732273102,2024-06-04 16:21:37.611591
56.65206552,0.8274598122,0.1035451889,0.05802929401,2024-06-04 16:21:37.652066
56.69254635,0.2998328209,-0.007830619812,0.2910882235,2024-06-04 16:21:37.692546
56.73304078,0.5822405815,0.1546134949,0.1952210665,2024-06-04 16:21:37.733041
56.77353573,0.129093647,-0.3367958069,0.06876885891,2024-06-04 16:21:37.773536
56.81402807,-0.2756357193,-0.55119133,0.4419641495,2024-06-04 16:21:37.814028
56.85454708,-0.2424902916,-0.1452608109,0.106408,2024-06-04 16:21:37.854547
56.89502724,-0.1945514679,-0.4865083694,0.2225350142,2024-06-04 16:21:37.895027
56.9355188,0.405002594,-0.05086421967,0.1934075356,2024-06-04 16:21:37.935519
56.97600729,0.03861045837,0.5198879242,0.04743432999,2024-06-04 16:21:37.976007
57.01649854,0.1806192398,0.3221874237,-0.2824804783,2024-06-04 16:21:38.016499
57.05699067,0.3179826736,0.4696135521,-0.2630982399,2024-06-04 16:21:38.056991
57.09746979,-0.05516576767,0.1774454117,-0.1171425581,2024-06-04 16:21:38.097470
57.13795,-0.4665465355,-0.2006311417,-0.03410816193,2024-06-04 16:21:38.137950
57.17843614,0.1895709038,-0.180603981,-0.09244513512,2024-06-04 16:21:38.178436
57.21891932,0.1494793892,0.1831817627,-0.2004309893,2024-06-04 16:21:38.218919
57.25941937,-0.2253842354,-0.2447967529,0.05837547779,2024-06-04 16:21:38.259419
57.29991505,0.4345068932,0.08180809021,-0.33117944,2024-06-04 16:21:38.299915
57.34047776,0.2946691513,-0.1724014282,-0.0524225235,2024-06-04 16:21:38.340478
57.38092244,-0.236322403,-0.5625953674,0.2067965269,2024-06-04 16:21:38.380922
57.42137088,0.3017864227,0.3120565414,-0.1742773056,2024-06-04 16:21:38.421371
57.46185989,0.2203211784,0.3456554413,-0.09373223782,2024-06-04 16:21:38.461860
57.50234307,0.3365445137,0.1314916611,-0.1128923893,2024-06-04 16:21:38.502343
57.54285578,0.158370018,0.005652427673,0.01932609081,2024-06-04 16:21:38.542856
57.58331609,-0.5136122704,-0.6265678406,0.2722797394,2024-06-04 16:21:38.583316
57.62380812,-0.169854641,0.3039999008,-0.1126302481,2024-06-04 16:21:38.623808
57.66429646,0.007742881775,0.2087068558,-0.01828229427,2024-06-04 16:21:38.664296
57.70479666,0.1126804352,-0.4640884399,0.1442664862,2024-06-04 16:21:38.704797
57.74527463,0.08475208282,-0.1117897034,0.06390118599,2024-06-04 16:21:38.745275
57.7858125,-0.6836342812,0.1750144958,0.1212420464,2024-06-04 16:21:38.785812
57.82625338,0.2140493393,0.4648103714,-0.1763687134,2024-06-04 16:21:38.826253
57.86675536,0.656768322,0.5332007408,-0.3290755153,2024-06-04 16:21:38.866755
57.90727453,-0.3644170761,-0.6782608032,0.7169635296,2024-06-04 16:21:38.907275
57.94774963,-0.2012114525,-0.006003379822,-0.2657219172,2024-06-04 16:21:38.947750
57.98822151,-0.5692491531,-0.5852079391,0.1943591833,2024-06-04 16:21:38.988222
58.02870317,0.5109658241,-0.009053230286,-0.1838930845,2024-06-04 16:21:39.028703
58.06921994,0.2311029434,0.217871666,0.1771755219,2024-06-04 16:21:39.069220
58.10969739,0.2733206749,0.268863678,0.0636985302,2024-06-04 16:21:39.109697
58.15016963,0.1750402451,0.3632555008,-0.1434841156,2024-06-04 16:21:39.150170
58.19067114,-0.1791577339,-0.4831399918,0.3369086981,2024-06-04 16:21:39.190671
58.23116224,-0.01190423965,-0.2423372269,0.1874370575,2024-06-04 16:21:39.231162
58.27162109,-0.5057659149,0.3047914505,0.2169659138,2024-06-04 16:21:39.271621
58.31211067,0.641597271,0.2797708511,0.04946529865,2024-06-04 16:21:39.312111
58.35263776,0.5825901031,0.5084657669,-0.1112574339,2024-06-04 16:21:39.352638
58.39310557,0.2074685097,-0.9688081741,0.5247231722,2024-06-04 16:21:39.393106
58.43362453,-0.3358073235,-0.439406395,0.1804652214,2024-06-04 16:21:39.433625
58.47413182,-0.5123376846,0.04789924622,0.5498540401,2024-06-04 16:21:39.474132
58.51457047,0.5516891479,-0.1059541702,0.1025463939,2024-06-04 16:21:39.514570
58.55507838,0.4363260269,0.6120042801,0.3173986077,2024-06-04 16:21:39.555078
58.59557031,-0.06958007812,0.1627082825,0.5492886901,2024-06-04 16:21:39.595570
58.63605521,0.05062007904,0.2241315842,0.0459883213,2024-06-04 16:21:39.636055
58.67655021,0.09121847153,-0.7087049484,0.3988628983,2024-06-04 16:21:39.676550
58.71701901,-0.3431568146,-0.3354644775,0.7542629242,2024-06-04 16:21:39.717019
58.75753817,-0.2062187195,0.932929039,0.4875543714,2024-06-04 16:21:39.757538
58.79801573,1.352496624,1.699532986,-0.497749269,2024-06-04 16:21:39.798016
58.83850291,0.6980586052,-1.176427841,0.3380775452,2024-06-04 16:21:39.838503
58.87896958,-0.2617144585,-1.804858208,0.8596063852,2024-06-04 16:21:39.878970
58.91947343,-1.823082924,-1.644476891,0.9088395834,2024-06-04 16:21:39.919473
58.95999437,-0.1415615082,0.7729692459,0.1619027257,2024-06-04 16:21:39.959994
59.00045885,2.654235125,3.393005848,0.145047009,2024-06-04 16:21:40.000459
59.04095218,1.178814411,0.816526413,0.2594533563,2024-06-04 16:21:40.040952
59.0814226,-0.750143528,0.6849188805,0.2331647277,2024-06-04 16:21:40.081423
59.12193375,-2.091409206,-2.005415916,0.7246235013,2024-06-04 16:21:40.121934
59.16238505,-3.880134106,-3.286485672,1.256407857,2024-06-04 16:21:40.162385
59.20287328,0.9263362885,0.467256546,-0.1856775284,2024-06-04 16:21:40.202873
59.24337859,1.523218155,-0.4421811104,1.056455731,2024-06-04 16:21:40.243379
59.28385864,2.807500839,1.941363811,0.3391298056,2024-06-04 16:21:40.283859
59.32434,2.007701397,2.445633411,0.4381592274,2024-06-04 16:21:40.324340
59.36486869,-0.2568569183,0.5314822197,0.01432061195,2024-06-04 16:21:40.364869
59.40536161,-2.390271664,-1.223407745,0.8450775146,2024-06-04 16:21:40.405362
59.44584161,-1.309242725,-1.797041893,1.829488635,2024-06-04 16:21:40.445842
59.48633276,-0.506913662,-1.019132614,2.368792534,2024-06-04 16:21:40.486333
59.5268188,0.1727190018,-0.6314811707,0.7563244104,2024-06-04 16:21:40.526819
59.56731635,-0.5002183914,-0.137720108,0.4703409672,2024-06-04 16:21:40.567316
59.60781692,-1.749440193,-0.2911987305,0.5466972589,2024-06-04 16:21:40.607817
59.64828781,-1.549329281,-1.324030399,0.6613487005,2024-06-04 16:21:40.648288
59.68878416,-2.357107162,-2.659639359,0.7250859737,2024-06-04 16:21:40.688784
59.72924906,-1.114929199,-2.387374878,1.293148994,2024-06-04 16:21:40.729249
59.76975859,-1.179246902,-2.291943073,0.1209139824,2024-06-04 16:21:40.769759
59.81028796,0.4762830734,-0.8582541943,-1.644783854,2024-06-04 16:21:40.810288
59.85074276,4.877734184,0.3231856823,-1.707724333,2024-06-04 16:21:40.850743
59.8912163,6.39055109,1.191338062,-1.858857393,2024-06-04 16:21:40.891216
59.93169729,4.36148262,1.81370008,-0.9521048069,2024-06-04 16:21:40.931697
59.9721788,5.538052559,2.751973152,-1.273907423,2024-06-04 16:21:40.972179
60.0126701,3.428884506,1.734795213,-0.4504508972,2024-06-04 16:21:41.012670
60.05317573,2.025547981,1.224479675,-0.5135505199,2024-06-04 16:21:41.053176
60.0936702,-0.2578287125,-0.4243307114,0.8343362808,2024-06-04 16:21:41.093670
60.13416286,-0.3062076569,-0.7870030403,0.5628664494,2024-06-04 16:21:41.134163
60.17466067,0.387409687,-0.4287056923,0.5065970421,2024-06-04 16:21:41.174661
60.21514125,-2.211850166,-1.971605778,0.7335271835,2024-06-04 16:21:41.215141
60.25561036,-2.398149967,-2.813221455,0.4033149481,2024-06-04 16:21:41.255610
60.29607224,-1.560118675,-0.6934328079,1.110642672,2024-06-04 16:21:41.296072
60.33662515,-2.912382126,-0.8857512474,1.428760767,2024-06-04 16:21:41.336625
60.37710151,-3.573660374,-0.8376979828,2.179219961,2024-06-04 16:21:41.377102
60.41758244,-3.661149979,-0.5132951736,2.346276999,2024-06-04 16:21:41.417582
60.45808437,-1.072763443,-0.2568740845,2.227817059,2024-06-04 16:21:41.458084
60.4985664,1.748961926,-0.2397437096,1.222178459,2024-06-04 16:21:41.498566
60.53903885,1.689016342,-0.6018357277,1.491716743,2024-06-04 16:21:41.539039
60.57952599,-0.2861442566,-0.4453692436,0.9429422617,2024-06-04 16:21:41.579526
60.62004937,-1.373249054,-0.9154138565,1.357156277,2024-06-04 16:21:41.620049
60.66054718,-1.049236774,-1.761464596,0.8631449938,2024-06-04 16:21:41.660547
60.7010288,-1.61789608,-1.208500862,0.4338008165,2024-06-04 16:21:41.701029
60.74147927,-0.537071228,-1.512855053,0.3216006756,2024-06-04 16:21:41.741479
60.7819589,-0.3898572922,-1.740527153,0.4129507542,2024-06-04 16:21:41.781959
60.82246328,-0.406826973,-1.426118374,-0.7322683334,2024-06-04 16:21:41.822463
60.86296916,0.4783353806,-0.8678159714,-0.7629499435,2024-06-04 16:21:41.862969
60.90350203,2.595350742,-0.3562221527,-1.997152686,2024-06-04 16:21:41.903502
60.94393213,4.416629791,0.2202630043,-1.406972647,2024-06-04 16:21:41.943932
60.98441458,5.713639259,1.236733437,-1.229162216,2024-06-04 16:21:41.984415
61.02494432,2.756948471,1.247875094,-0.7780742645,2024-06-04 16:21:42.024944
61.0654339,4.413151741,1.487490058,-0.3104374409,2024-06-04 16:21:42.065434
61.10590349,3.580676556,1.544968486,-0.1300697327,2024-06-04 16:21:42.105903
61.14640718,2.075222969,0.578130722,0.2369785309,2024-06-04 16:21:42.146407
61.18687604,1.184830189,0.08335018158,0.09944701195,2024-06-04 16:21:42.186876
61.22736922,-0.1302833557,-0.5449595451,0.5851993561,2024-06-04 16:21:42.227369
61.26786458,-1.87437439,-0.4504957199,0.5566115379,2024-06-04 16:21:42.267865
61.30833021,-2.654205322,-1.960995674,-0.5318514109,2024-06-04 16:21:42.308330
61.34886505,-0.1890029907,-1.21653223,0.9246044159,2024-06-04 16:21:42.348865
61.38934994,-1.784226418,-1.670825958,0.9490504265,2024-06-04 16:21:42.389350
61.42981005,-2.59985733,0.01157331467,1.01953733,2024-06-04 16:21:42.429810
61.47032203,-3.562219143,-0.4519715309,1.614130974,2024-06-04 16:21:42.470322
61.51077932,-3.375989914,-1.566583633,1.721391559,2024-06-04 16:21:42.510779
61.55129338,-0.5569219589,0.4121947289,1.07735455,2024-06-04 16:21:42.551293
61.59178201,0.5846347809,-0.1784825325,1.198870063,2024-06-04 16:21:42.591782
