Time (s),Acceleration x (m/s^2),Acceleration y (m/s^2),Acceleration z (m/s^2),Datetime
0.004804397,-4.508377075,6.290730953,7.450053215,2024-06-05 20:42:58.004804
0.025044397,-2.529512644,6.899106026,8.357830048,2024-06-05 20:42:58.025044
0.065044397,-3.044567823,6.398407936,6.446264267,2024-06-05 20:42:58.065044
0.105044397,-4.352544308,5.607879162,5.368297577,2024-06-05 20:42:58.105044
0.145044397,-4.352544308,5.607879162,5.368297577,2024-06-05 20:42:58.145044
0.185044397,-2.836392164,5.575575829,8.201100349,2024-06-05 20:42:58.185044
0.225044397,-2.176272154,5.318048477,6.537191391,2024-06-05 20:42:58.225044
0.265044397,-2.350050926,6.750451565,8.627322197,2024-06-05 20:42:58.265044
0.305044397,-0.7366902828,5.298905849,8.672785759,2024-06-05 20:42:58.305044
0.345044397,-2.818445921,4.73001194,9.011968613,2024-06-05 20:42:58.345044
0.385044397,-2.818445921,4.73001194,9.011968613,2024-06-05 20:42:58.385044
0.425044397,-2.818445921,4.73001194,9.011968613,2024-06-05 20:42:58.425044
0.465044397,-2.818445921,4.73001194,9.011968613,2024-06-05 20:42:58.465044
0.505044397,-2.818445921,4.73001194,9.011968613,2024-06-05 20:42:58.505044
0.545044397,-2.818445921,4.73001194,9.011968613,2024-06-05 20:42:58.545044
0.585044397,2.16670084,3.702294827,11.5079813,2024-06-05 20:42:58.585044
0.625044397,2.16670084,3.702294827,11.5079813,2024-06-05 20:42:58.625044
0.665044397,2.16670084,3.702294827,11.5079813,2024-06-05 20:42:58.665044
0.705044397,2.16670084,3.702294827,11.5079813,2024-06-05 20:42:58.705044
0.745044397,2.16670084,3.702294827,11.5079813,2024-06-05 20:42:58.745044
0.785044397,2.16670084,3.702294827,11.5079813,2024-06-05 20:42:58.785044
0.825044397,2.16670084,3.702294827,11.5079813,2024-06-05 20:42:58.825044
0.865044397,2.16670084,3.702294827,11.5079813,2024-06-05 20:42:58.865044
0.905044397,2.16670084,3.702294827,11.5079813,2024-06-05 20:42:58.905044
0.945044397,2.16670084,3.702294827,11.5079813,2024-06-05 20:42:58.945044
0.985044397,2.16670084,3.702294827,11.5079813,2024-06-05 20:42:58.985044
1.025044397,2.16670084,3.702294827,11.5079813,2024-06-05 20:42:59.025044
1.065044397,2.16670084,3.702294827,11.5079813,2024-06-05 20:42:59.065044
1.105044397,2.16670084,3.702294827,11.5079813,2024-06-05 20:42:59.105044
1.145044397,2.16670084,3.702294827,11.5079813,2024-06-05 20:42:59.145044
1.185044397,2.16670084,3.702294827,11.5079813,2024-06-05 20:42:59.185044
1.225044397,2.16670084,3.702294827,11.5079813,2024-06-05 20:42:59.225044
1.265044397,2.16670084,3.702294827,11.5079813,2024-06-05 20:42:59.265044
1.305044397,-4.407579422,1.009771109,12.53091335,2024-06-05 20:42:59.305044
1.345044397,-5.365904808,0.2144567221,9.595218658,2024-06-05 20:42:59.345044
1.385044397,-7.085746288,-2.952444077,11.58574772,2024-06-05 20:42:59.385044
1.425044397,-4.807778835,-0.513858676,6.133701801,2024-06-05 20:42:59.425044
1.465044397,-6.853642464,1.8840487,6.702595234,2024-06-05 20:42:59.465044
1.505044397,-8.350651741,-0.02273181453,7.295417309,2024-06-05 20:42:59.505044
1.545044397,-6.318248272,0.2623131871,4.908277512,2024-06-05 20:42:59.545044
1.585044397,-5.452046394,1.088734269,5.647360325,2024-06-05 20:42:59.585044
1.625044397,-5.949155331,-0.07298108935,7.200900555,2024-06-05 20:42:59.625044
1.665044397,-6.030810356,0.1821536273,6.748058796,2024-06-05 20:42:59.665044
1.705044397,-3.764508247,-0.4612165689,6.207879066,2024-06-05 20:42:59.705044
1.745044397,-8.145766258,-0.05024927482,2.438585281,2024-06-05 20:42:59.745044
1.785044397,-0.6478567123,-1.327119231,9.812067986,2024-06-05 20:42:59.785044
1.825044397,-5.420939922,-2.28903389,5.504987717,2024-06-05 20:42:59.825044
1.865044397,-3.36700058,-2.423032045,13.54666615,2024-06-05 20:42:59.865044
1.905044397,-3.473481178,-2.696112871,11.43500042,2024-06-05 20:42:59.905044
1.945044397,-3.51894474,-3.42323184,9.055039406,2024-06-05 20:42:59.945044
1.985044397,0.03349951655,-2.505584478,8.810671806,2024-06-05 20:42:59.985044
2.025044397,-1.842174292,-2.982354403,9.38435173,2024-06-05 20:43:00.025044
2.065044397,0.5353940725,-2.723630428,12.64217949,2024-06-05 20:43:00.065044
2.105044397,0.5353940725,-2.723630428,12.64217949,2024-06-05 20:43:00.105044
2.145044397,0.5353940725,-2.723630428,12.64217949,2024-06-05 20:43:00.145044
2.185044397,0.5353940725,-2.723630428,12.64217949,2024-06-05 20:43:00.185044
2.225044397,0.5353940725,-2.723630428,12.64217949,2024-06-05 20:43:00.225044
2.265044397,0.5353940725,-2.723630428,12.64217949,2024-06-05 20:43:00.265044
2.305044397,0.5353940725,-2.723630428,12.64217949,2024-06-05 20:43:00.305044
2.345044397,-0.8120641708,-3.928715706,12.97029495,2024-06-05 20:43:00.345044
2.385044397,-0.8120641708,-3.928715706,12.97029495,2024-06-05 20:43:00.385044
2.425044397,-0.8120641708,-3.928715706,12.97029495,2024-06-05 20:43:00.425044
2.465044397,-0.8120641708,-3.928715706,12.97029495,2024-06-05 20:43:00.465044
2.505044397,-0.8120641708,-3.928715706,12.97029495,2024-06-05 20:43:00.505044
2.545044397,-0.8120641708,-3.928715706,12.97029495,2024-06-05 20:43:00.545044
2.585044397,-0.8120641708,-3.928715706,12.97029495,2024-06-05 20:43:00.585044
2.625044397,-0.8120641708,-3.928715706,12.97029495,2024-06-05 20:43:00.625044
2.665044397,-0.8120641708,-3.928715706,12.97029495,2024-06-05 20:43:00.665044
2.705044397,-0.8120641708,-3.928715706,12.97029495,2024-06-05 20:43:00.705044
2.745044397,-0.8120641708,-3.928715706,12.97029495,2024-06-05 20:43:00.745044
2.785044397,-0.8120641708,-3.928715706,12.97029495,2024-06-05 20:43:00.785044
2.825044397,-0.8120641708,-3.928715706,12.97029495,2024-06-05 20:43:00.825044
2.865044397,-0.8120641708,-3.928715706,12.97029495,2024-06-05 20:43:00.865044
2.905044397,-0.8120641708,-3.928715706,12.97029495,2024-06-05 20:43:00.905044
2.945044397,-0.8120641708,-3.928715706,12.97029495,2024-06-05 20:43:00.945044
2.985044397,-4.849653244,-2.019542217,8.923134804,2024-06-05 20:43:00.985044
3.025044397,-4.714458942,-1.829013824,4.041178226,2024-06-05 20:43:01.025044
3.065044397,-8.545966148,-2.838784933,5.178965569,2024-06-05 20:43:01.065044
3.105044397,-7.137490749,-1.572682738,3.658027649,2024-06-05 20:43:01.105044
3.145044397,-5.284548759,0.5270192027,8.556734085,2024-06-05 20:43:01.145044
3.185044397,-12.39302635,-2.881855726,2.105684042,2024-06-05 20:43:01.185044
3.225044397,-14.02433395,-3.242274761,-2.242074728,2024-06-05 20:43:01.225044
3.265044397,-11.12124157,-7.41535759,-0.256331116,2024-06-05 20:43:01.265044
3.305044397,-3.646063566,6.654738903,25.45095825,2024-06-05 20:43:01.305044
3.345044397,-14.67847157,2.485245466,9.944869995,2024-06-05 20:43:01.345044
3.385044397,-4.55742979,0.4444667995,1.60977149,2024-06-05 20:43:01.385044
3.425044397,-7.82722187,-4.556233406,4.547858715,2024-06-05 20:43:01.425044
3.465044397,-7.061817646,-2.705684185,4.296313286,2024-06-05 20:43:01.465044
3.505044397,-4.32263422,3.327219963,8.567501068,2024-06-05 20:43:01.505044
3.545044397,-6.140880108,-4.298706055,4.703691006,2024-06-05 20:43:01.545044
3.585044397,-20.44906235,-8.54357338,-8.471788406,2024-06-05 20:43:01.585044
3.625044397,5.879763603,0.4085744619,4.620839596,2024-06-05 20:43:01.625044
3.665044397,-4.702494621,-5.440082073,6.884748936,2024-06-05 20:43:01.665044
3.705044397,-12.27697468,-9.246764183,-2.087737799,2024-06-05 20:43:01.705044
3.745044397,-11.44217873,-3.600300789,5.320441246,2024-06-05 20:43:01.745044
3.785044397,-11.67099285,-4.584947109,5.932405472,2024-06-05 20:43:01.785044
3.825044397,-11.67099285,-4.584947109,5.932405472,2024-06-05 20:43:01.825044
3.865044397,-11.67099285,-4.584947109,5.932405472,2024-06-05 20:43:01.865044
3.905044397,-11.67099285,-4.584947109,5.932405472,2024-06-05 20:43:01.905044
3.945044397,-11.67099285,-4.584947109,5.932405472,2024-06-05 20:43:01.945044
3.985044397,-11.67099285,-4.584947109,5.932405472,2024-06-05 20:43:01.985044
4.025044397,-11.67099285,-4.584947109,5.932405472,2024-06-05 20:43:02.025044
4.065044397,-11.67099285,-4.584947109,5.932405472,2024-06-05 20:43:02.065044
4.105044397,-11.67099285,-4.584947109,5.932405472,2024-06-05 20:43:02.105044
4.145044397,-11.67099285,-4.584947109,5.932405472,2024-06-05 20:43:02.145044
4.185044397,-9.325727463,-8.359026909,0.9475577474,2024-06-05 20:43:02.185044
4.225044397,-9.325727463,-8.359026909,0.9475577474,2024-06-05 20:43:02.225044
4.265044397,-9.325727463,-8.359026909,0.9475577474,2024-06-05 20:43:02.265044
4.305044397,-9.325727463,-8.359026909,0.9475577474,2024-06-05 20:43:02.305044
4.345044397,-9.325727463,-8.359026909,0.9475577474,2024-06-05 20:43:02.345044
4.385044397,-9.325727463,-8.359026909,0.9475577474,2024-06-05 20:43:02.385044
4.425044397,-8.452646255,-7.153044224,3.297309637,2024-06-05 20:43:02.425044
4.465044397,-8.452646255,-7.153044224,3.297309637,2024-06-05 20:43:02.465044
4.505044397,-8.452646255,-7.153044224,3.297309637,2024-06-05 20:43:02.505044
4.545044397,-8.452646255,-7.153044224,3.297309637,2024-06-05 20:43:02.545044
4.585044397,-8.452646255,-7.153044224,3.297309637,2024-06-05 20:43:02.585044
4.625044397,-8.452646255,-7.153044224,3.297309637,2024-06-05 20:43:02.625044
4.665044397,-8.452646255,-7.153044224,3.297309637,2024-06-05 20:43:02.665044
4.705044397,-10.49940681,-2.559721947,4.275974274,2024-06-05 20:43:02.705044
4.745044397,-0.1112662554,-9.106484413,9.334101677,2024-06-05 20:43:02.745044
4.785044397,-3.467499018,10.21555805,8.198707581,2024-06-05 20:43:02.785044
4.825044397,-1.583450437,-3.827918053,0.4755735099,2024-06-05 20:43:02.825044
4.865044397,-18.70529366,-24.16451836,11.74397373,2024-06-05 20:43:02.865044
4.905044397,-15.80190182,-4.429413795,4.828117847,2024-06-05 20:43:02.905044
4.945044397,-5.163412094,-7.707581043,5.54805851,2024-06-05 20:43:02.945044
4.985044397,-4.639982224,-6.089434624,4.770689964,2024-06-05 20:43:02.985044
5.025044397,-2.679363251,-3.717848301,6.144469261,2024-06-05 20:43:03.025044
5.065044397,-2.103291035,-3.393321514,5.729912758,2024-06-05 20:43:03.065044
5.105044397,-0.1737787426,2.746362209,7.604390144,2024-06-05 20:43:03.105044
5.145044397,-6.608078957,-4.353740692,5.284548759,2024-06-05 20:43:03.145044
5.185044397,-6.744469643,-6.527620316,7.023532867,2024-06-05 20:43:03.185044
5.225044397,-3.772883177,-3.043371201,5.949155331,2024-06-05 20:43:03.225044
5.265044397,-3.049353361,-3.030210733,6.480959892,2024-06-05 20:43:03.265044
5.305044397,-1.872084618,-1.481755376,6.11097002,2024-06-05 20:43:03.305044
5.345044397,-0.8072785139,-2.903391123,5.982655048,2024-06-05 20:43:03.345044
5.385044397,-6.138487339,-5.387440205,5.36111927,2024-06-05 20:43:03.385044
5.425044397,-12.64098263,-8.028517723,7.847560883,2024-06-05 20:43:03.425044
5.465044397,-12.64098263,-8.028517723,7.847560883,2024-06-05 20:43:03.465044
5.505044397,-12.64098263,-8.028517723,7.847560883,2024-06-05 20:43:03.505044
5.545044397,-12.64098263,-8.028517723,7.847560883,2024-06-05 20:43:03.545044
5.585044397,-12.64098263,-8.028517723,7.847560883,2024-06-05 20:43:03.585044
5.625044397,-12.64098263,-8.028517723,7.847560883,2024-06-05 20:43:03.625044
5.665044397,-12.64098263,-8.028517723,7.847560883,2024-06-05 20:43:03.665044
5.705044397,-12.64098263,-8.028517723,7.847560883,2024-06-05 20:43:03.705044
5.745044397,-12.64098263,-8.028517723,7.847560883,2024-06-05 20:43:03.745044
5.785044397,-12.64098263,-8.028517723,7.847560883,2024-06-05 20:43:03.785044
5.825044397,-12.64098263,-8.028517723,7.847560883,2024-06-05 20:43:03.825044
5.865044397,-12.64098263,-8.028517723,7.847560883,2024-06-05 20:43:03.865044
5.905044397,-12.64098263,-8.028517723,7.847560883,2024-06-05 20:43:03.905044
5.945044397,-12.64098263,-8.028517723,7.847560883,2024-06-05 20:43:03.945044
5.985044397,-12.64098263,-8.028517723,7.847560883,2024-06-05 20:43:03.985044
6.025044397,-12.64098263,-8.028517723,7.847560883,2024-06-05 20:43:04.025044
6.065044397,-12.64098263,-8.028517723,7.847560883,2024-06-05 20:43:04.065044
6.105044397,-12.64098263,-8.028517723,7.847560883,2024-06-05 20:43:04.105044
6.145044397,-12.64098263,-8.028517723,7.847560883,2024-06-05 20:43:04.145044
6.185044397,-12.64098263,-8.028517723,7.847560883,2024-06-05 20:43:04.185044
6.225044397,-12.64098263,-8.028517723,7.847560883,2024-06-05 20:43:04.225044
6.265044397,-12.64098263,-8.028517723,7.847560883,2024-06-05 20:43:04.265044
6.305044397,-12.64098263,-8.028517723,7.847560883,2024-06-05 20:43:04.305044
6.345044397,-12.64098263,-8.028517723,7.847560883,2024-06-05 20:43:04.345044
6.385044397,-6.033203125,-9.857531548,1.610967875,2024-06-05 20:43:04.385044
6.425044397,-6.05713129,-9.202198029,1.215852976,2024-06-05 20:43:04.425044
6.465044397,-4.447360039,-9.696913719,1.284048438,2024-06-05 20:43:04.465044
6.505044397,-3.359822035,-7.724330425,0.6732804775,2024-06-05 20:43:04.505044
6.545044397,-4.472484589,-6.882356167,0.7534400225,2024-06-05 20:43:04.545044
6.585044397,-5.339583874,-7.569694519,0.6562315822,2024-06-05 20:43:04.585044
6.625044397,-5.055735111,-7.321738243,1.106680512,2024-06-05 20:43:04.625044
6.665044397,-5.276174068,-7.721937656,1.135394335,2024-06-05 20:43:04.665044
6.705044397,-5.928816319,-8.026124954,1.694716692,2024-06-05 20:43:04.705044
6.745044397,-4.680660248,-8.863314629,1.965404749,2024-06-05 20:43:04.745044
6.785044397,-3.774079561,-8.681160927,1.704287887,2024-06-05 20:43:04.785044
6.825044397,-5.14785862,-9.057432175,2.490031004,2024-06-05 20:43:04.825044
6.865044397,-5.312066078,-9.062217712,1.366600871,2024-06-05 20:43:04.865044
6.905044397,-4.878366947,-9.824032784,1.646860242,2024-06-05 20:43:04.905044
6.945044397,-2.637488842,-9.603593826,1.307976723,2024-06-05 20:43:04.945044
6.985044397,-1.359422326,-9.193822861,0.3580260873,2024-06-05 20:43:04.985044
7.025044397,-3.364607811,-7.901698589,0.9690931439,2024-06-05 20:43:05.025044
7.065044397,-4.844867706,-8.604590416,1.195214868,2024-06-05 20:43:05.065044
7.105044397,-3.710669756,-8.931509972,1.868495345,2024-06-05 20:43:05.105044
7.145044397,-4.613661289,-8.443074226,1.001396298,2024-06-05 20:43:05.145044
7.185044397,-5.088038445,-8.241778374,1.105484009,2024-06-05 20:43:05.185044
7.225044397,-5.088038445,-8.241778374,1.105484009,2024-06-05 20:43:05.225044
7.265044397,-5.088038445,-8.241778374,1.105484009,2024-06-05 20:43:05.265044
7.305044397,-5.088038445,-8.241778374,1.105484009,2024-06-05 20:43:05.305044
7.345044397,-5.088038445,-8.241778374,1.105484009,2024-06-05 20:43:05.345044
7.385044397,-5.088038445,-8.241778374,1.105484009,2024-06-05 20:43:05.385044
7.425044397,-3.12383008,-9.235996246,0.7259225845,2024-06-05 20:43:05.425044
7.465044397,-3.12383008,-9.235996246,0.7259225845,2024-06-05 20:43:05.465044
7.505044397,-3.12383008,-9.235996246,0.7259225845,2024-06-05 20:43:05.505044
7.545044397,-3.12383008,-9.235996246,0.7259225845,2024-06-05 20:43:05.545044
7.585044397,-3.12383008,-9.235996246,0.7259225845,2024-06-05 20:43:05.585044
7.625044397,-3.12383008,-9.235996246,0.7259225845,2024-06-05 20:43:05.625044
7.665044397,-3.12383008,-9.235996246,0.7259225845,2024-06-05 20:43:05.665044
7.705044397,-3.12383008,-9.235996246,0.7259225845,2024-06-05 20:43:05.705044
7.745044397,-3.12383008,-9.235996246,0.7259225845,2024-06-05 20:43:05.745044
7.785044397,-3.12383008,-9.235996246,0.7259225845,2024-06-05 20:43:05.785044
7.825044397,-3.12383008,-9.235996246,0.7259225845,2024-06-05 20:43:05.825044
7.865044397,-3.12383008,-9.235996246,0.7259225845,2024-06-05 20:43:05.865044
7.905044397,-3.12383008,-9.235996246,0.7259225845,2024-06-05 20:43:05.905044
7.945044397,-3.12383008,-9.235996246,0.7259225845,2024-06-05 20:43:05.945044
7.985044397,-3.12383008,-9.235996246,0.7259225845,2024-06-05 20:43:05.985044
8.025044397,-3.12383008,-9.235996246,0.7259225845,2024-06-05 20:43:06.025044
8.065044397,-4.29392004,-8.729315758,0.9209375978,2024-06-05 20:43:06.065044
8.105044397,-4.332205296,-9.147162437,1.130608678,2024-06-05 20:43:06.105044
8.145044397,-4.453341961,-8.627322197,1.054038405,2024-06-05 20:43:06.145044
8.185044397,-5.320441246,-8.189136505,1.414457321,2024-06-05 20:43:06.185044
8.225044397,-3.752544165,-9.020342827,1.036092162,2024-06-05 20:43:06.225044
8.265044397,-3.444767237,-9.328120232,0.7606185079,2024-06-05 20:43:06.265044
8.305044397,-3.806382656,-9.656235695,0.9245268703,2024-06-05 20:43:06.305044
8.345044397,-4.57178688,-7.979465485,1.030110121,2024-06-05 20:43:06.345044
8.385044397,-4.096213341,-8.041678429,0.9714859724,2024-06-05 20:43:06.385044
8.425044397,-3.882055521,-8.557929993,1.186840057,2024-06-05 20:43:06.425044
8.465044397,-4.057928085,-9.807282448,1.171286702,2024-06-05 20:43:06.465044
8.505044397,-5.327619553,-9.410672188,1.13419795,2024-06-05 20:43:06.505044
8.545044397,-3.450749397,-9.293423653,0.8754739761,2024-06-05 20:43:06.545044
8.585044397,-3.484248877,-6.330212116,0.2300100774,2024-06-05 20:43:06.585044
8.625044397,-1.644467354,-4.523930073,1.58703959,2024-06-05 20:43:06.625044
8.665044397,-6.033203125,-17.52922058,0.7666005492,2024-06-05 20:43:06.665044
8.705044397,-7.042675018,-9.250352859,1.681556106,2024-06-05 20:43:06.705044
8.745044397,-2.793022156,-11.18106174,0.7582256794,2024-06-05 20:43:06.745044
8.785044397,-3.091526747,-10.62532902,0.2324029058,2024-06-05 20:43:06.785044
8.825044397,-4.586143494,-6.836892605,0.195314154,2024-06-05 20:43:06.825044
8.865044397,-4.586143494,-6.836892605,0.195314154,2024-06-05 20:43:06.865044
8.905044397,-4.586143494,-6.836892605,0.195314154,2024-06-05 20:43:06.905044
8.945044397,-4.586143494,-6.836892605,0.195314154,2024-06-05 20:43:06.945044
8.985044397,-4.586143494,-6.836892605,0.195314154,2024-06-05 20:43:06.985044
9.025044397,-4.586143494,-6.836892605,0.195314154,2024-06-05 20:43:07.025044
9.065044397,-4.586143494,-6.836892605,0.195314154,2024-06-05 20:43:07.065044
9.105044397,-4.586143494,-6.836892605,0.195314154,2024-06-05 20:43:07.105044
9.145044397,-4.586143494,-6.836892605,0.195314154,2024-06-05 20:43:07.145044
9.185044397,-4.586143494,-6.836892605,0.195314154,2024-06-05 20:43:07.185044
9.225044397,-4.586143494,-6.836892605,0.195314154,2024-06-05 20:43:07.225044
9.265044397,-4.586143494,-6.836892605,0.195314154,2024-06-05 20:43:07.265044
9.305044397,-4.586143494,-6.836892605,0.195314154,2024-06-05 20:43:07.305044
9.345044397,-4.586143494,-6.836892605,0.195314154,2024-06-05 20:43:07.345044
9.385044397,-4.586143494,-6.836892605,0.195314154,2024-06-05 20:43:07.385044
9.425044397,-3.643670797,-3.56680131,2.219342947,2024-06-05 20:43:07.425044
9.465044397,-3.643670797,-3.56680131,2.219342947,2024-06-05 20:43:07.465044
9.505044397,-3.643670797,-3.56680131,2.219342947,2024-06-05 20:43:07.505044
9.545044397,-3.643670797,-3.56680131,2.219342947,2024-06-05 20:43:07.545044
9.585044397,-3.643670797,-3.56680131,2.219342947,2024-06-05 20:43:07.585044
9.625044397,-3.643670797,-3.56680131,2.219342947,2024-06-05 20:43:07.625044
9.665044397,-3.643670797,-3.56680131,2.219342947,2024-06-05 20:43:07.665044
9.705044397,-3.643670797,-3.56680131,2.219342947,2024-06-05 20:43:07.705044
9.745044397,-1.172483087,-6.963712215,1.555932879,2024-06-05 20:43:07.745044
9.785044397,-6.730112553,-10.99771214,1.129412293,2024-06-05 20:43:07.785044
9.825044397,-7.79372263,-6.667899609,2.478066921,2024-06-05 20:43:07.825044
9.865044397,-3.578765392,-8.477770805,1.771586061,2024-06-05 20:43:07.865044
9.905044397,-4.086641788,-7.340880871,1.995314956,2024-06-05 20:43:07.905044
9.945044397,-8.553144455,-7.806882858,2.391925335,2024-06-05 20:43:07.945044
9.985044397,-8.157731056,-7.638188839,2.222932339,2024-06-05 20:43:07.985044
10.0250444,-7.864310741,-7.665706635,1.929512382,2024-06-05 20:43:08.025044
10.0650444,-7.840382576,-8.708976746,1.60378933,2024-06-05 20:43:08.065044
10.1050444,-5.438885689,-6.696613312,1.689931035,2024-06-05 20:43:08.105044
10.1450444,-6.574579239,-6.556334019,1.290030479,2024-06-05 20:43:08.145044
10.1850444,-6.961319447,-6.095416546,2.025524378,2024-06-05 20:43:08.185044
10.2250444,-8.962615967,-7.059424877,1.687538147,2024-06-05 20:43:08.225044
10.2650444,-9.09571743,-6.230610847,1.924726725,2024-06-05 20:43:08.265044
10.3050444,-5.34676218,-5.423332691,2.353640079,2024-06-05 20:43:08.305044
10.3450444,-6.751648426,-5.588736534,1.97138679,2024-06-05 20:43:08.345044
10.3850444,-9.292227745,-5.539683342,2.904587507,2024-06-05 20:43:08.385044
10.4250444,-9.572486877,-5.429314613,2.094916344,2024-06-05 20:43:08.425044
10.4650444,-8.810671806,-6.447460651,2.493620396,2024-06-05 20:43:08.465044
10.5050444,-8.094321251,-4.580161572,3.031407118,2024-06-05 20:43:08.505044
10.5450444,-7.717152119,-4.479662895,2.190629244,2024-06-05 20:43:08.545044
10.5850444,-7.717152119,-4.479662895,2.190629244,2024-06-05 20:43:08.585044
10.6250444,-7.717152119,-4.479662895,2.190629244,2024-06-05 20:43:08.625044
10.6650444,-7.717152119,-4.479662895,2.190629244,2024-06-05 20:43:08.665044
10.7050444,-7.717152119,-4.479662895,2.190629244,2024-06-05 20:43:08.705044
10.7450444,-7.717152119,-4.479662895,2.190629244,2024-06-05 20:43:08.745044
10.7850444,-7.717152119,-4.479662895,2.190629244,2024-06-05 20:43:08.785044
10.8250444,-7.717152119,-4.479662895,2.190629244,2024-06-05 20:43:08.825044
10.8650444,-7.717152119,-4.479662895,2.190629244,2024-06-05 20:43:08.865044
10.9050444,-7.717152119,-4.479662895,2.190629244,2024-06-05 20:43:08.905044
10.9450444,-7.717152119,-4.479662895,2.190629244,2024-06-05 20:43:08.945044
10.9850444,-7.717152119,-4.479662895,2.190629244,2024-06-05 20:43:08.985044
11.0250444,-7.717152119,-4.479662895,2.190629244,2024-06-05 20:43:09.025044
11.0650444,-7.717152119,-4.479662895,2.190629244,2024-06-05 20:43:09.065044
11.1050444,-7.717152119,-4.479662895,2.190629244,2024-06-05 20:43:09.105044
11.1450444,-7.717152119,-4.479662895,2.190629244,2024-06-05 20:43:09.145044
11.1850444,-7.717152119,-4.479662895,2.190629244,2024-06-05 20:43:09.185044
11.2250444,-7.717152119,-4.479662895,2.190629244,2024-06-05 20:43:09.225044
11.2650444,-7.717152119,-4.479662895,2.190629244,2024-06-05 20:43:09.265044
11.3050444,-7.717152119,-4.479662895,2.190629244,2024-06-05 20:43:09.305044
11.3450444,-7.717152119,-4.479662895,2.190629244,2024-06-05 20:43:09.345044
11.3850444,-7.717152119,-4.479662895,2.190629244,2024-06-05 20:43:09.385044
11.4250444,-12.16540909,-6.658328056,0.1773679852,2024-06-05 20:43:09.425044
11.4650444,-6.39601469,-2.715255499,0.994217813,2024-06-05 20:43:09.465044
11.5050444,-9.846764565,-4.25802803,2.258824587,2024-06-05 20:43:09.505044
11.5450444,-9.943673134,-12.95833111,0.3783650696,2024-06-05 20:43:09.545044
11.5850444,-7.872685432,-7.871489048,-0.5353940725,2024-06-05 20:43:09.585044
11.6250444,-7.735098362,-9.415457726,1.033699393,2024-06-05 20:43:09.625044
11.6650444,-6.219843388,-8.602197647,0.1040877849,2024-06-05 20:43:09.665044
11.7050444,-4.287938118,-8.28126049,0.6107679605,2024-06-05 20:43:09.705044
11.7450444,-8.989236832,-4.829314232,1.974975944,2024-06-05 20:43:09.745044
11.7850444,-4.684548378,-7.114758968,-0.3831507266,2024-06-05 20:43:09.785044
11.8250444,-4.612464905,-10.65165043,-2.082952023,2024-06-05 20:43:09.825044
11.8650444,-7.930412292,-8.449056625,1.610967875,2024-06-05 20:43:09.865044
11.9050444,-11.94168091,-10.23111153,0.751047194,2024-06-05 20:43:09.905044
11.9450444,-6.706184387,-10.50060272,-0.1184447184,2024-06-05 20:43:09.945044
11.9850444,-3.981357813,-9.738788605,0.613160789,2024-06-05 20:43:09.985044
12.0250444,-5.095216751,-6.809075832,0.3317050338,2024-06-05 20:43:10.025044
12.0650444,-6.417550564,-5.934798241,0.6852445602,2024-06-05 20:43:10.065044
12.1050444,-5.956333637,-5.143073082,0.4624129832,2024-06-05 20:43:10.105044
12.1450444,-6.616453648,-5.980261803,1.386939883,2024-06-05 20:43:10.145044
12.1850444,-8.312366486,-6.581758022,0.5485545993,2024-06-05 20:43:10.185044
12.2250444,-8.658429146,-4.865206718,1.251745343,2024-06-05 20:43:10.225044
12.2650444,-8.658429146,-4.865206718,1.251745343,2024-06-05 20:43:10.265044
12.3050444,-8.658429146,-4.865206718,1.251745343,2024-06-05 20:43:10.305044
12.3450444,-8.658429146,-4.865206718,1.251745343,2024-06-05 20:43:10.345044
12.3850444,-8.658429146,-4.865206718,1.251745343,2024-06-05 20:43:10.385044
12.4250444,-8.658429146,-4.865206718,1.251745343,2024-06-05 20:43:10.425044
12.4650444,-8.658429146,-4.865206718,1.251745343,2024-06-05 20:43:10.465044
12.5050444,-8.658429146,-4.865206718,1.251745343,2024-06-05 20:43:10.505044
12.5450444,-8.658429146,-4.865206718,1.251745343,2024-06-05 20:43:10.545044
12.5850444,-8.658429146,-4.865206718,1.251745343,2024-06-05 20:43:10.585044
12.6250444,-8.658429146,-4.865206718,1.251745343,2024-06-05 20:43:10.625044
12.6650444,-8.658429146,-4.865206718,1.251745343,2024-06-05 20:43:10.665044
12.7050444,-8.658429146,-4.865206718,1.251745343,2024-06-05 20:43:10.705044
12.7450444,-8.658429146,-4.865206718,1.251745343,2024-06-05 20:43:10.745044
12.7850444,-8.658429146,-4.865206718,1.251745343,2024-06-05 20:43:10.785044
12.8250444,-8.658429146,-4.865206718,1.251745343,2024-06-05 20:43:10.825044
12.8650444,-8.658429146,-4.865206718,1.251745343,2024-06-05 20:43:10.865044
12.9050444,-8.658429146,-4.865206718,1.251745343,2024-06-05 20:43:10.905044
12.9450444,-8.658429146,-4.865206718,1.251745343,2024-06-05 20:43:10.945044
12.9850444,-8.658429146,-4.865206718,1.251745343,2024-06-05 20:43:10.985044
13.0250444,-8.658429146,-4.865206718,1.251745343,2024-06-05 20:43:11.025044
13.0650444,-8.658429146,-4.865206718,1.251745343,2024-06-05 20:43:11.065044
13.1050444,-7.605587006,-5.413761139,2.161915302,2024-06-05 20:43:11.105044
13.1450444,-7.064210415,-5.271388054,2.021935225,2024-06-05 20:43:11.145044
13.1850444,-6.976872444,-4.576572418,0.751047194,2024-06-05 20:43:11.185044
13.2250444,-9.944869995,-6.045167446,0.537786901,2024-06-05 20:43:11.225044
13.2650444,-9.90658474,-6.65114975,1.439581871,2024-06-05 20:43:11.265044
13.3050444,-7.839186192,-6.290730953,0.7426723242,2024-06-05 20:43:11.305044
13.3450444,-7.167401314,-8.14696312,1.221835017,2024-06-05 20:43:11.345044
13.3850444,-8.138587952,-8.409276009,-0.6227321029,2024-06-05 20:43:11.385044
13.4250444,-5.902495384,-7.747062206,0.6732804775,2024-06-05 20:43:11.425044
13.4650444,-8.303992271,-7.690831184,2.126022816,2024-06-05 20:43:11.465044
13.5050444,-7.648956776,-8.932705879,-1.959422588,2024-06-05 20:43:11.505044
13.5450444,-4.04476738,-8.882456779,-1.376172066,2024-06-05 20:43:11.545044
13.5850444,-6.006583214,-9.289834976,1.223031521,2024-06-05 20:43:11.585044
13.6250444,-6.043971062,-9.507881165,0.704387188,2024-06-05 20:43:11.625044
13.6650444,-6.08584547,-8.502895355,0.8599206209,2024-06-05 20:43:11.665044
13.7050444,-5.792425632,-6.411568165,-0.8647062778,2024-06-05 20:43:11.705044
13.7450444,-4.692923546,-6.811468601,0.4241278172,2024-06-05 20:43:11.745044
13.7850444,-7.772187233,-7.934001446,0.01316052489,2024-06-05 20:43:11.785044
13.8250444,-8.618947029,-8.151748657,-0.1160518974,2024-06-05 20:43:11.825044
13.8650444,-7.878667831,-6.700202465,0.4109672904,2024-06-05 20:43:11.865044
13.9050444,-9.058628082,-7.143472672,1.663609982,2024-06-05 20:43:11.905044
13.9450444,-9.058628082,-7.143472672,1.663609982,2024-06-05 20:43:11.945044
13.9850444,-9.058628082,-7.143472672,1.663609982,2024-06-05 20:43:11.985044
14.0250444,-9.058628082,-7.143472672,1.663609982,2024-06-05 20:43:12.025044
14.0650444,-9.058628082,-7.143472672,1.663609982,2024-06-05 20:43:12.065044
14.1050444,-9.058628082,-7.143472672,1.663609982,2024-06-05 20:43:12.105044
14.1450444,-9.058628082,-7.143472672,1.663609982,2024-06-05 20:43:12.145044
14.1850444,-8.079963684,-5.636592865,-0.003589233849,2024-06-05 20:43:12.185044
14.2250444,-8.079963684,-5.636592865,-0.003589233849,2024-06-05 20:43:12.225044
14.2650444,-8.079963684,-5.636592865,-0.003589233849,2024-06-05 20:43:12.265044
14.3050444,-8.079963684,-5.636592865,-0.003589233849,2024-06-05 20:43:12.305044
14.3450444,-8.079963684,-5.636592865,-0.003589233849,2024-06-05 20:43:12.345044
14.3850444,-8.079963684,-5.636592865,-0.003589233849,2024-06-05 20:43:12.385044
14.4250444,-8.300402641,-0.1280160099,2.540280342,2024-06-05 20:43:12.425044
14.4650444,-8.300402641,-0.1280160099,2.540280342,2024-06-05 20:43:12.465044
14.5050444,-8.300402641,-0.1280160099,2.540280342,2024-06-05 20:43:12.505044
14.5450444,-8.300402641,-0.1280160099,2.540280342,2024-06-05 20:43:12.545044
14.5850444,-8.300402641,-0.1280160099,2.540280342,2024-06-05 20:43:12.585044
14.6250444,-8.300402641,-0.1280160099,2.540280342,2024-06-05 20:43:12.625044
14.6650444,-8.300402641,-0.1280160099,2.540280342,2024-06-05 20:43:12.665044
14.7050444,-8.300402641,-0.1280160099,2.540280342,2024-06-05 20:43:12.705044
14.7450444,-8.300402641,-0.1280160099,2.540280342,2024-06-05 20:43:12.745044
14.7850444,-7.7398839,-6.580561161,-1.443171144,2024-06-05 20:43:12.785044
14.8250444,-6.672685146,-8.829814911,-1.327119231,2024-06-05 20:43:12.825044
14.8650444,-6.940980434,-9.082556725,-0.7953144312,2024-06-05 20:43:12.865044
14.9050444,-6.678667068,-8.663214684,-2.460120678,2024-06-05 20:43:12.905044
14.9450444,-5.622235775,-9.516255379,-0.4839483798,2024-06-05 20:43:12.945044
14.9850444,-6.563811779,-9.547362328,-0.7737790346,2024-06-05 20:43:12.985044
15.0250444,-5.888138294,-9.472886086,-2.068595171,2024-06-05 20:43:13.025044
15.0650444,-3.063710213,-8.354241371,-1.372582912,2024-06-05 20:43:13.065044
15.1050444,-5.485546112,-8.231010437,1.336690545,2024-06-05 20:43:13.105044
15.1450444,-6.073881149,-9.105288506,-0.1402792335,2024-06-05 20:43:13.145044
15.1850444,-4.802993298,-8.841778755,-1.707877159,2024-06-05 20:43:13.185044
15.2250444,-3.182454109,-8.93390274,0.7259225845,2024-06-05 20:43:13.225044
15.2650444,-7.071389198,-8.823832512,0.09930214286,2024-06-05 20:43:13.265044
15.3050444,-7.77936554,-6.887141705,-1.893620014,2024-06-05 20:43:13.305044
15.3450444,-9.524630547,-6.890730858,-1.638485312,2024-06-05 20:43:13.345044
15.3850444,-10.38574791,-6.768397808,-0.6669993401,2024-06-05 20:43:13.385044
15.4250444,-8.362615585,-5.962316036,-0.485144794,2024-06-05 20:43:13.425044
15.4650444,-9.014361382,-5.515755177,-1.243370414,2024-06-05 20:43:13.465044
15.5050444,-10.10788059,-4.552644253,-0.5473581553,2024-06-05 20:43:13.505044
15.5450444,-9.444171906,-6.683452606,-0.1256231815,2024-06-05 20:43:13.545044
15.5850444,-9.650253296,-5.404190063,-2.160718918,2024-06-05 20:43:13.585044
15.6250444,-9.650253296,-5.404190063,-2.160718918,2024-06-05 20:43:13.625044
15.6650444,-9.650253296,-5.404190063,-2.160718918,2024-06-05 20:43:13.665044
15.7050444,-9.650253296,-5.404190063,-2.160718918,2024-06-05 20:43:13.705044
15.7450444,-9.650253296,-5.404190063,-2.160718918,2024-06-05 20:43:13.745044
15.7850444,-9.650253296,-5.404190063,-2.160718918,2024-06-05 20:43:13.785044
15.8250444,-9.650253296,-5.404190063,-2.160718918,2024-06-05 20:43:13.825044
15.8650444,-9.650253296,-5.404190063,-2.160718918,2024-06-05 20:43:13.865044
15.9050444,-9.650253296,-5.404190063,-2.160718918,2024-06-05 20:43:13.905044
15.9450444,-9.650253296,-5.404190063,-2.160718918,2024-06-05 20:43:13.945044
15.9850444,-9.650253296,-5.404190063,-2.160718918,2024-06-05 20:43:13.985044
16.0250444,-9.650253296,-5.404190063,-2.160718918,2024-06-05 20:43:14.025044
16.0650444,-9.650253296,-5.404190063,-2.160718918,2024-06-05 20:43:14.065044
16.1050444,-9.650253296,-5.404190063,-2.160718918,2024-06-05 20:43:14.105044
16.1450444,-9.650253296,-5.404190063,-2.160718918,2024-06-05 20:43:14.145044
16.1850444,-9.650253296,-5.404190063,-2.160718918,2024-06-05 20:43:14.185044
16.2250444,-9.650253296,-5.404190063,-2.160718918,2024-06-05 20:43:14.225044
16.2650444,-9.650253296,-5.404190063,-2.160718918,2024-06-05 20:43:14.265044
16.3050444,-9.650253296,-5.404190063,-2.160718918,2024-06-05 20:43:14.305044
16.3450444,-9.650253296,-5.404190063,-2.160718918,2024-06-05 20:43:14.345044
16.3850444,-9.650253296,-5.404190063,-2.160718918,2024-06-05 20:43:14.385044
16.4250444,-5.576772213,-10.31276608,0.004785645287,2024-06-05 20:43:14.425044
16.4650444,-5.576772213,-10.31276608,0.004785645287,2024-06-05 20:43:14.465044
16.5050444,-5.447260857,-8.690732002,0.3951148391,2024-06-05 20:43:14.505044
16.5450444,-3.64127779,-5.59830761,0.1256231815,2024-06-05 20:43:14.545044
16.5850444,-6.046363831,-6.635596275,-0.16181463,2024-06-05 20:43:14.585044
16.6250444,-6.416353703,-7.554141045,-1.091127157,2024-06-05 20:43:14.625044
16.6650444,-9.107681274,-7.941180229,-0.9535398483,2024-06-05 20:43:14.665044
16.7050444,-10.79162979,-7.321738243,-0.9403793216,2024-06-05 20:43:14.705044
16.7450444,-8.688339233,-6.776772976,-0.4384847581,2024-06-05 20:43:14.745044
16.7850444,-9.094520569,-6.293123722,-0.6191428304,2024-06-05 20:43:14.785044
16.8250444,-9.530612946,-6.221039772,0.02871387079,2024-06-05 20:43:14.825044
16.8650444,-7.430910587,-5.312066078,-0.4157529473,2024-06-05 20:43:14.865044
16.9050444,-6.78873682,-3.814757586,-0.5832505226,2024-06-05 20:43:14.905044
16.9450444,-7.932805061,-4.332205296,-0.1689931005,2024-06-05 20:43:14.945044
16.9850444,-7.466803074,-2.637488842,-0.3879363835,2024-06-05 20:43:14.985044
17.0250444,-5.446064472,-3.177668571,0.7366902828,2024-06-05 20:43:15.025044
17.0650444,-6.780362129,-1.632503271,1.215852976,2024-06-05 20:43:15.065044
17.1050444,-4.35852623,-2.142772675,0.7079764009,2024-06-05 20:43:15.105044
17.1450444,-2.990729094,-0.9221340418,1.727019787,2024-06-05 20:43:15.145044
17.1850444,-6.637989044,-2.080559254,1.366600871,2024-06-05 20:43:15.185044
17.2250444,-11.58096218,-4.185046673,0.6215356588,2024-06-05 20:43:15.225044
17.2650444,-10.47069263,-6.315855503,0.176171571,2024-06-05 20:43:15.265044
17.3050444,-10.47069263,-6.315855503,0.176171571,2024-06-05 20:43:15.305044
17.3450444,-10.47069263,-6.315855503,0.176171571,2024-06-05 20:43:15.345044
17.3850444,-10.47069263,-6.315855503,0.176171571,2024-06-05 20:43:15.385044
17.4250444,-5.934798241,-6.374479294,0.0765703246,2024-06-05 20:43:15.425044
17.4650444,-5.934798241,-6.374479294,0.0765703246,2024-06-05 20:43:15.465044
17.5050444,-5.934798241,-6.374479294,0.0765703246,2024-06-05 20:43:15.505044
17.5450444,-5.934798241,-6.374479294,0.0765703246,2024-06-05 20:43:15.545044
17.5850444,-5.934798241,-6.374479294,0.0765703246,2024-06-05 20:43:15.585044
17.6250444,-5.934798241,-6.374479294,0.0765703246,2024-06-05 20:43:15.625044
17.6650444,-5.934798241,-6.374479294,0.0765703246,2024-06-05 20:43:15.665044
17.7050444,-5.934798241,-6.374479294,0.0765703246,2024-06-05 20:43:15.705044
17.7450444,-5.934798241,-6.374479294,0.0765703246,2024-06-05 20:43:15.745044
17.7850444,-5.934798241,-6.374479294,0.0765703246,2024-06-05 20:43:15.785044
17.8250444,-5.934798241,-6.374479294,0.0765703246,2024-06-05 20:43:15.825044
17.8650444,-5.934798241,-6.374479294,0.0765703246,2024-06-05 20:43:15.865044
17.9050444,-5.934798241,-6.374479294,0.0765703246,2024-06-05 20:43:15.905044
17.9450444,-5.934798241,-6.374479294,0.0765703246,2024-06-05 20:43:15.945044
17.9850444,-5.934798241,-6.374479294,0.0765703246,2024-06-05 20:43:15.985044
18.0250444,-5.934798241,-6.374479294,0.0765703246,2024-06-05 20:43:16.025044
18.0650444,-5.934798241,-6.374479294,0.0765703246,2024-06-05 20:43:16.065044
18.1050444,-5.934798241,-6.374479294,0.0765703246,2024-06-05 20:43:16.105044
18.1450444,-5.934798241,-6.374479294,0.0765703246,2024-06-05 20:43:16.145044
18.1850444,-7.198507786,-3.571586847,-1.121037364,2024-06-05 20:43:16.185044
18.2250444,-5.534897804,-2.623131752,0.2108674943,2024-06-05 20:43:16.225044
18.2650444,-7.047461033,-2.598007202,-0.1546361595,2024-06-05 20:43:16.265044
18.3050444,-5.721538067,-4.090231419,-0.4253242314,2024-06-05 20:43:16.305044
18.3450444,-7.235596657,-2.261217356,0.774975419,2024-06-05 20:43:16.345044
18.3850444,-6.498906136,-2.845963478,0.5222335458,2024-06-05 20:43:16.385044
18.4250444,-6.066702843,-1.983350873,1.420439363,2024-06-05 20:43:16.425044
18.4650444,-3.584747314,-1.842174292,1.457528114,2024-06-05 20:43:16.465044
18.5050444,-6.652346134,-3.169293642,0.6287141442,2024-06-05 20:43:16.505044
18.5450444,-8.555537224,-4.242474556,0.1929213256,2024-06-05 20:43:16.545044
18.5850444,-9.428618431,-6.130112648,0.2826521695,2024-06-05 20:43:16.585044
18.6250444,-9.591629982,-5.221138954,0.2407777756,2024-06-05 20:43:16.625044
18.6650444,-11.01805115,-5.055735111,0.03230310604,2024-06-05 20:43:16.665044
18.7050444,-8.845368385,-7.067800045,-0.6586244106,2024-06-05 20:43:16.705044
18.7450444,-6.95055151,-9.619147301,-1.313958764,2024-06-05 20:43:16.745044
18.7850444,-6.81386137,-7.048657417,-0.1929213256,2024-06-05 20:43:16.785044
18.8250444,-8.324331284,-8.33150959,-1.339083314,2024-06-05 20:43:16.825044
18.8650444,-9.319745064,-11.49601746,-0.2324029058,2024-06-05 20:43:16.865044
18.9050444,-5.090431213,-7.423732281,0.157028988,2024-06-05 20:43:16.905044
18.9450444,-7.017550468,-7.203293324,0.2790629268,2024-06-05 20:43:16.945044
18.9850444,-8.422436714,-9.937691689,-0.5976074338,2024-06-05 20:43:16.985044
19.0250444,-7.247560501,-8.571090698,-0.5078766346,2024-06-05 20:43:17.025044
19.0650444,-7.247560501,-8.571090698,-0.5078766346,2024-06-05 20:43:17.065044
19.1050444,-7.247560501,-8.571090698,-0.5078766346,2024-06-05 20:43:17.105044
19.1450444,-7.247560501,-8.571090698,-0.5078766346,2024-06-05 20:43:17.145044
19.1850444,-7.121937275,-5.625824928,-0.7689933777,2024-06-05 20:43:17.185044
19.2250444,-7.121937275,-5.625824928,-0.7689933777,2024-06-05 20:43:17.225044
19.2650444,-7.121937275,-5.625824928,-0.7689933777,2024-06-05 20:43:17.265044
19.3050444,-7.121937275,-5.625824928,-0.7689933777,2024-06-05 20:43:17.305044
19.3450444,-7.121937275,-5.625824928,-0.7689933777,2024-06-05 20:43:17.345044
19.3850444,-7.121937275,-5.625824928,-0.7689933777,2024-06-05 20:43:17.385044
19.4250444,-6.869195461,-3.296113253,-1.412064433,2024-06-05 20:43:17.425044
19.4650444,-6.869195461,-3.296113253,-1.412064433,2024-06-05 20:43:17.465044
19.5050444,-6.869195461,-3.296113253,-1.412064433,2024-06-05 20:43:17.505044
19.5450444,-6.869195461,-3.296113253,-1.412064433,2024-06-05 20:43:17.545044
19.5850444,-6.869195461,-3.296113253,-1.412064433,2024-06-05 20:43:17.585044
19.6250444,-6.869195461,-3.296113253,-1.412064433,2024-06-05 20:43:17.625044
19.6650444,-6.869195461,-3.296113253,-1.412064433,2024-06-05 20:43:17.665044
19.7050444,-6.869195461,-3.296113253,-1.412064433,2024-06-05 20:43:17.705044
19.7450444,-6.869195461,-3.296113253,-1.412064433,2024-06-05 20:43:17.745044
19.7850444,-6.869195461,-3.296113253,-1.412064433,2024-06-05 20:43:17.785044
19.8250444,-6.869195461,-3.296113253,-1.412064433,2024-06-05 20:43:17.825044
19.8650444,-10.16411209,-7.362715244,0.1462612897,2024-06-05 20:43:17.865044
19.9050444,-9.3807621,-6.116951942,0.1869392693,2024-06-05 20:43:17.905044
19.9450444,-10.44078255,-6.958926678,0.3903291821,2024-06-05 20:43:17.945044
19.9850444,-7.593622684,-8.811868668,-0.5820540786,2024-06-05 20:43:17.985044
20.0250444,-6.088238239,-7.378268719,-1.176072359,2024-06-05 20:43:18.025044
20.0650444,-8.020143509,-5.76849699,0.7163512707,2024-06-05 20:43:18.065044
20.1050444,-8.184350967,-8.38534832,-1.290030479,2024-06-05 20:43:18.105044
20.1450444,-9.291030884,-9.706484795,-0.4899304509,2024-06-05 20:43:18.145044
20.1850444,-7.847560883,-8.833403587,-1.509272933,2024-06-05 20:43:18.185044
20.2250444,-8.568697929,-8.801100731,-0.6167500615,2024-06-05 20:43:18.225044
20.2650444,-8.568697929,-8.801100731,-0.6167500615,2024-06-05 20:43:18.265044
20.3050444,-4.649553299,-7.453642368,0.7259225845,2024-06-05 20:43:18.305044
20.3450444,-7.936394691,-6.556334019,-1.310369492,2024-06-05 20:43:18.345044
20.3850444,-8.155337334,-7.932805061,-0.2551347017,2024-06-05 20:43:18.385044
20.4250444,-8.20468998,-7.036693096,-0.8539385796,2024-06-05 20:43:18.425044
20.4650444,-8.254939079,-6.043971062,-1.160519004,2024-06-05 20:43:18.465044
20.5050444,-8.730512619,-6.324230194,-1.426421404,2024-06-05 20:43:18.505044
20.5450444,-10.82752228,-6.832107067,-0.4010969102,2024-06-05 20:43:18.545044
20.5850444,-8.943473816,-5.901299,0.280259341,2024-06-05 20:43:18.585044
20.6250444,-9.1423769,-5.010271549,-1.384546995,2024-06-05 20:43:18.625044
20.6650444,-6.26530695,-4.737190723,-0.5018945336,2024-06-05 20:43:18.665044
20.7050444,-6.224628925,-4.192225456,0.4695914388,2024-06-05 20:43:18.705044
20.7450444,-6.224628925,-4.192225456,0.4695914388,2024-06-05 20:43:18.745044
20.7850444,-6.224628925,-4.192225456,0.4695914388,2024-06-05 20:43:18.785044
20.8250444,-4.974379063,-0.965503931,1.837388635,2024-06-05 20:43:18.825044
20.8650444,-4.974379063,-0.965503931,1.837388635,2024-06-05 20:43:18.865044
20.9050444,-5.034199715,-2.332104683,0.8180462122,2024-06-05 20:43:18.905044
20.9450444,-6.543173313,-2.972783089,0.4624129832,2024-06-05 20:43:18.945044
20.9850444,-9.40229702,-4.202992916,0.7534400225,2024-06-05 20:43:18.985044
21.0250444,-9.766305923,-6.283253193,0.6876373887,2024-06-05 20:43:19.025044
21.0650444,-9.766305923,-6.283253193,0.6876373887,2024-06-05 20:43:19.065044
21.1050444,-9.766305923,-6.283253193,0.6876373887,2024-06-05 20:43:19.105044
21.1450444,-9.972387314,-6.349354744,0.1941177398,2024-06-05 20:43:19.145044
21.1850444,-7.768597603,-7.212864876,-0.774975419,2024-06-05 20:43:19.185044
21.2250444,-7.515855789,-7.304988384,-0.8659027219,2024-06-05 20:43:19.225044
21.2650444,-8.971290588,-8.656036377,-0.3245265782,2024-06-05 20:43:19.265044
21.3050444,-7.939983845,-7.750651836,-0.8635098934,2024-06-05 20:43:19.305044
21.3450444,-6.421139717,-7.142276287,0.1244267747,2024-06-05 20:43:19.345044
21.3850444,-9.493225098,-8.731708527,-0.418145746,2024-06-05 20:43:19.385044
21.4250444,-7.433303356,-10.27178955,-1.057627559,2024-06-05 20:43:19.425044
21.4650444,-5.231906891,-8.124231339,0.936490953,2024-06-05 20:43:19.465044
21.5050444,-8.394919395,-8.548358917,-0.5569294691,2024-06-05 20:43:19.505044
21.5450444,-7.770990849,-7.757830143,-0.4600201547,2024-06-05 20:43:19.545044
21.5850444,-7.770990849,-7.757830143,-0.4600201547,2024-06-05 20:43:19.585044
21.6250444,-7.770990849,-7.757830143,-0.4600201547,2024-06-05 20:43:19.625044
21.6250444,-2.880659342,-5.303691387,0.137886405,2024-06-05 20:43:19.625044
21.7050444,-13.62682629,-8.01775074,-0.8383852243,2024-06-05 20:43:19.705044
21.7450444,-11.53789139,-6.862017155,0.09451649338,2024-06-05 20:43:19.745044
21.7850444,-10.49462128,-5.927619934,0.385543555,2024-06-05 20:43:19.785044
21.8250444,-7.785347462,-6.25453949,-0.5581258535,2024-06-05 20:43:19.825044
21.8650444,-6.142076492,-3.857828379,-0.3173480928,2024-06-05 20:43:19.865044
21.9050444,-5.009075165,-3.40648222,0.2886342406,2024-06-05 20:43:19.905044
21.9450444,-5.009075165,-3.40648222,0.2886342406,2024-06-05 20:43:19.945044
21.9850444,-6.05713129,-3.359822035,0.561715126,2024-06-05 20:43:19.985044
22.0250444,-5.891727448,-1.527219057,0.9571290612,2024-06-05 20:43:20.025044
22.0650444,-4.698905468,-0.8024929166,1.286441326,2024-06-05 20:43:20.065044
22.1050444,-7.781758308,-2.160718918,1.41685009,2024-06-05 20:43:20.105044
22.1450444,-7.42612505,-3.043371201,0.9559326172,2024-06-05 20:43:20.145044
22.1850444,-8.375776291,-2.369193554,0.1172483116,2024-06-05 20:43:20.185044
22.2250444,-8.451449394,-3.372982502,0.05623133108,2024-06-05 20:43:20.225044
22.2650444,-8.790332794,-5.351547718,0.1402792335,2024-06-05 20:43:20.265044
22.3050444,-7.736294746,-7.092027187,-0.05742774159,2024-06-05 20:43:20.305044
22.3450444,-8.516056061,-7.416553974,-0.3640081584,2024-06-05 20:43:20.345044
22.3850444,-8.372187614,-9.179466248,-0.7402794957,2024-06-05 20:43:20.385044
22.4250444,-8.318348885,-10.37976551,-1.172483087,2024-06-05 20:43:20.425044
22.4650444,-7.694420338,-8.545966148,0.2874378264,2024-06-05 20:43:20.465044
22.5050444,-7.694420338,-8.545966148,0.2874378264,2024-06-05 20:43:20.505044
22.5450444,-7.694420338,-8.545966148,0.2874378264,2024-06-05 20:43:20.545044
22.5850444,-6.999604225,-6.78873682,-0.6598208547,2024-06-05 20:43:20.585044
22.6250444,-7.319345474,-7.759026527,0.02991028316,2024-06-05 20:43:20.625044
22.6650444,-6.492924213,-8.357830048,-0.2060818523,2024-06-05 20:43:20.665044
22.7050444,-6.492924213,-8.357830048,-0.2060818523,2024-06-05 20:43:20.705044
22.7450444,-6.492924213,-8.357830048,-0.2060818523,2024-06-05 20:43:20.745044
22.7850444,-8.784351349,-8.688339233,-1.745265007,2024-06-05 20:43:20.785044
22.8250444,-6.967301369,-7.482356548,-0.9161519408,2024-06-05 20:43:20.825044
22.8650444,-9.314959526,-6.956533432,-0.5533402562,2024-06-05 20:43:20.865044
22.9050444,-10.24546814,-5.846263885,-0.5784648657,2024-06-05 20:43:20.905044
22.9450444,-8.033304214,-5.253442287,-0.4636093974,2024-06-05 20:43:20.945044
22.9850444,-8.033304214,-5.253442287,-0.4636093974,2024-06-05 20:43:20.985044
23.0250444,-9.235996246,-4.770689964,-2.431406975,2024-06-05 20:43:21.025044
23.0650444,-4.885545731,-3.353840113,1.60378933,2024-06-05 20:43:21.065044
23.1050444,-3.196810961,-1.856531262,1.04685986,2024-06-05 20:43:21.105044
23.1450444,-4.903491974,-2.587239504,0.5222335458,2024-06-05 20:43:21.145044
23.1850444,-4.903491974,-2.587239504,0.5222335458,2024-06-05 20:43:21.185044
23.2250444,-6.052345753,-1.233799219,0.9352945685,2024-06-05 20:43:21.225044
23.2650444,-6.052345753,-1.233799219,0.9352945685,2024-06-05 20:43:21.265044
23.3050444,-6.78873682,-2.651845694,0.8814560175,2024-06-05 20:43:21.305044
23.3450444,-6.845267296,-4.001696587,0.3556332588,2024-06-05 20:43:21.345044
23.3850444,-8.021339417,-4.458127499,-0.0143569354,2024-06-05 20:43:21.385044
23.4250444,-8.520841599,-5.353940487,0.6622136831,2024-06-05 20:43:21.425044
23.4650444,-8.520841599,-5.353940487,0.6622136831,2024-06-05 20:43:21.465044
23.5050444,-8.520841599,-5.353940487,0.6622136831,2024-06-05 20:43:21.505044
23.5450444,-8.520841599,-5.353940487,0.6622136831,2024-06-05 20:43:21.545044
23.5850444,-9.378369331,-8.129016876,-1.487737536,2024-06-05 20:43:21.585044
23.6250444,-8.408080101,-8.531609535,-0.432502687,2024-06-05 20:43:21.625044
23.6650444,-7.806882858,-8.501698494,-0.9403793216,2024-06-05 20:43:21.665044
23.7050444,-7.806882858,-8.501698494,-0.9403793216,2024-06-05 20:43:21.705044
23.7450444,-6.704988003,-6.894320011,-0.1594218016,2024-06-05 20:43:21.745044
23.7850444,-6.899106026,-8.035696983,-0.4588237405,2024-06-05 20:43:21.785044
23.8250444,-6.913462639,-8.566305161,0.6083751321,2024-06-05 20:43:21.825044
23.8650444,-7.898109436,-8.609375954,0.3879363835,2024-06-05 20:43:21.865044
23.9050444,-8.847761154,-8.538787842,-1.543968797,2024-06-05 20:43:21.905044
23.9450444,-7.240382195,-7.235596657,-0.8419744968,2024-06-05 20:43:21.945044
23.9850444,-6.416353703,-7.355237484,-0.6804589629,2024-06-05 20:43:21.985044
24.0250444,-9.870692253,-7.042675018,-1.154536963,2024-06-05 20:43:22.025044
24.0650444,-9.19980526,-6.574579239,-1.057627559,2024-06-05 20:43:22.065044
24.1050444,-11.70329571,-5.83669281,-0.4971089065,2024-06-05 20:43:22.105044
24.1450444,-8.581858635,-6.30867672,-0.5832505226,2024-06-05 20:43:22.145044
24.1850444,-5.741877079,-4.277170658,-1.686341763,2024-06-05 20:43:22.185044
24.2250444,-5.741877079,-4.277170658,-1.686341763,2024-06-05 20:43:22.225044
24.2650444,-5.741877079,-4.277170658,-1.686341763,2024-06-05 20:43:22.265044
24.3050444,-6.708577156,-2.654238462,0.994217813,2024-06-05 20:43:22.305044
24.3450444,-6.708577156,-2.654238462,0.994217813,2024-06-05 20:43:22.345044
24.3450444,-6.76361227,-2.316551447,1.034895778,2024-06-05 20:43:22.345044
24.4250444,-6.76361227,-2.316551447,1.034895778,2024-06-05 20:43:22.425044
24.4650444,-6.76361227,-2.316551447,1.034895778,2024-06-05 20:43:22.465044
24.5050444,-8.848957062,-5.200500965,1.081555843,2024-06-05 20:43:22.505044
24.5450444,-8.740083694,-4.563411713,0.6095715761,2024-06-05 20:43:22.545044
24.5850444,-9.66580677,-4.491627216,0.1797607988,2024-06-05 20:43:22.585044
24.6250444,-8.192725182,-5.732305527,-0.1845464408,2024-06-05 20:43:22.625044
24.6650444,-6.986443996,-6.128916264,-0.4217349887,2024-06-05 20:43:22.665044
24.7050444,-6.986443996,-6.128916264,-0.4217349887,2024-06-05 20:43:22.705044
24.7450444,-10.31157017,-10.23230743,-0.8144569993,2024-06-05 20:43:22.745044
24.7850444,-10.31157017,-10.23230743,-0.8144569993,2024-06-05 20:43:22.785044
24.8250444,-8.487341881,-8.451449394,-0.5485545993,2024-06-05 20:43:22.825044
24.8650444,-6.08225584,-7.953144073,0.1977069676,2024-06-05 20:43:22.865044
24.9050444,-3.92991209,-6.988836765,-0.03349951655,2024-06-05 20:43:22.905044
24.9450444,-5.543272972,-8.320741653,-0.6478567123,2024-06-05 20:43:22.945044
24.9850444,-7.243971348,-9.796515465,-0.537786901,2024-06-05 20:43:22.985044
25.0250444,-6.39601469,-7.016354084,0.3592225015,2024-06-05 20:43:23.025044
25.0650444,-6.39601469,-7.016354084,0.3592225015,2024-06-05 20:43:23.065044
25.1050444,-9.229715347,-6.981658459,-0.8060821295,2024-06-05 20:43:23.105044
25.1450444,-9.229715347,-6.981658459,-0.8060821295,2024-06-05 20:43:23.145044
25.1850444,-8.529216766,-7.830811024,-0.6311069727,2024-06-05 20:43:23.185044
25.2250444,-9.868299484,-7.644171238,-0.9499505758,2024-06-05 20:43:23.225044
25.2650444,-9.868299484,-7.644171238,-0.9499505758,2024-06-05 20:43:23.265044
25.3050444,-10.49342442,-5.298905849,-1.512862086,2024-06-05 20:43:23.305044
25.3450444,-8.759226799,-4.005286217,0.9990034699,2024-06-05 20:43:23.345044
25.3850444,-3.608675718,-2.569293261,0.779761076,2024-06-05 20:43:23.385044
25.4250444,-2.017149448,-1.716252089,-1.524826288,2024-06-05 20:43:23.425044
25.4650444,-6.171987057,-3.361018419,0.536590457,2024-06-05 20:43:23.465044
25.5050444,-9.873085022,-2.019542217,0.456430912,2024-06-05 20:43:23.505044
25.5450444,-4.753940582,-2.618346214,1.473380566,2024-06-05 20:43:23.545044
25.5850444,-4.753940582,-2.618346214,1.473380566,2024-06-05 20:43:23.585044
25.6250444,-7.344470024,-1.7883358,1.287637711,2024-06-05 20:43:23.625044
25.6650444,-10.80598736,-4.599304199,1.230209947,2024-06-05 20:43:23.665044
25.7050444,-9.755537987,-4.544269085,0.8718847632,2024-06-05 20:43:23.705044
25.7450444,-8.001000404,-4.164707661,-0.1196411327,2024-06-05 20:43:23.745044
25.7850444,-7.558926582,-5.132305622,0.6358926296,2024-06-05 20:43:23.785044
25.8250444,-7.558926582,-5.132305622,0.6358926296,2024-06-05 20:43:23.825044
25.8650444,-7.558926582,-5.132305622,0.6358926296,2024-06-05 20:43:23.865044
25.9050444,-7.558926582,-5.132305622,0.6358926296,2024-06-05 20:43:23.905044
25.9450444,-7.640581608,-9.40947628,-0.6000002623,2024-06-05 20:43:23.945044
25.9850444,-8.37816906,-7.363911629,-0.7642077208,2024-06-05 20:43:23.985044
26.0250444,-6.562615395,-7.287042141,-0.08255238086,2024-06-05 20:43:24.025044
26.0650444,-6.584150791,-7.279863834,0.1184447184,2024-06-05 20:43:24.065044
26.1050444,-6.584150791,-7.279863834,0.1184447184,2024-06-05 20:43:24.105044
26.1450444,-6.584150791,-7.279863834,0.1184447184,2024-06-05 20:43:24.145044
26.1850444,-7.373483181,-7.707581043,-1.359422326,2024-06-05 20:43:24.185044
26.2250444,-7.66451025,-6.654738903,-1.420439363,2024-06-05 20:43:24.225044
26.2650444,-8.018946648,-6.905087948,0.3293122053,2024-06-05 20:43:24.265044
26.3050444,-6.29790926,-6.15045166,-0.4791627228,2024-06-05 20:43:24.305044
26.3450444,-8.723334312,-6.419943333,-0.5712863803,2024-06-05 20:43:24.345044
26.3850444,-12.3607235,-7.686045647,-0.7630113363,2024-06-05 20:43:24.385044
26.4250444,-11.40509033,-6.02363205,-0.2635096014,2024-06-05 20:43:24.425044
26.4650444,-7.810472012,-4.252045631,-0.2335993052,2024-06-05 20:43:24.465044
26.5050444,-6.678667068,-2.76311183,-2.082952023,2024-06-05 20:43:24.505044
26.5450444,-2.629113913,-3.884448528,-0.280259341,2024-06-05 20:43:24.545044
26.5850444,-2.801397085,-2.599203587,-0.5126622319,2024-06-05 20:43:24.585044
26.6250444,-2.801397085,-2.599203587,-0.5126622319,2024-06-05 20:43:24.625044
26.6650444,-2.801397085,-2.599203587,-0.5126622319,2024-06-05 20:43:24.665044
26.7050444,-2.801397085,-2.599203587,-0.5126622319,2024-06-05 20:43:24.705044
26.7050444,-8.777172089,-2.822035313,0.566500783,2024-06-05 20:43:24.705044
26.7850444,-5.255835056,-1.093519926,1.280459166,2024-06-05 20:43:24.785044
26.8250444,-7.025925636,-2.911766052,0.4612165689,2024-06-05 20:43:24.825044
26.8650444,-7.025925636,-2.911766052,0.4612165689,2024-06-05 20:43:24.865044
26.9050444,-7.025925636,-2.911766052,0.4612165689,2024-06-05 20:43:24.905044
26.9450444,-7.025925636,-2.911766052,0.4612165689,2024-06-05 20:43:24.945044
26.9850444,-9.736394882,-7.348059177,0.05742774159,2024-06-05 20:43:24.985044
27.0250444,-9.658628464,-8.222636223,-0.2599203587,2024-06-05 20:43:25.025044
27.0650444,-8.954241753,-7.496713161,-0.7307082415,2024-06-05 20:43:25.065044
27.1050444,-8.954241753,-7.496713161,-0.7307082415,2024-06-05 20:43:25.105044
27.1450444,-5.983851433,-7.279863834,-0.3747758567,2024-06-05 20:43:25.145044
27.1850444,-6.302694798,-7.961519241,-0.2264208496,2024-06-05 20:43:25.185044
27.2250444,-7.124330521,-8.11824894,-0.3544368446,2024-06-05 20:43:25.225044
27.2650444,-6.418746948,-8.864510536,0.2132603228,2024-06-05 20:43:25.265044
27.3050444,-7.221239567,-9.661021233,0.9197412133,2024-06-05 20:43:25.305044
27.3450444,-8.198707581,-8.424829483,0.8659027219,2024-06-05 20:43:25.345044
27.3850444,-8.198707581,-8.424829483,0.8659027219,2024-06-05 20:43:25.385044
27.4250444,-4.226921082,-5.658128262,0.3149552941,2024-06-05 20:43:25.425044
27.4650444,-4.226921082,-5.658128262,0.3149552941,2024-06-05 20:43:25.465044
27.5050444,-12.3547411,-6.888338089,-0.941575706,2024-06-05 20:43:25.505044
27.5450444,-8.453842163,-3.577569008,-1.331904888,2024-06-05 20:43:25.545044
27.5850444,-10.25025368,-4.853242397,-0.2371885478,2024-06-05 20:43:25.585044
27.6250444,-10.25025368,-4.853242397,-0.2371885478,2024-06-05 20:43:25.625044
27.6650444,-10.25025368,-4.853242397,-0.2371885478,2024-06-05 20:43:25.665044
27.7050444,-10.25025368,-4.853242397,-0.2371885478,2024-06-05 20:43:25.705044
27.7450444,-10.25025368,-4.853242397,-0.2371885478,2024-06-05 20:43:25.745044
27.7850444,-10.25025368,-4.853242397,-0.2371885478,2024-06-05 20:43:25.785044
27.8250444,-10.25025368,-4.853242397,-0.2371885478,2024-06-05 20:43:25.825044
27.8650444,-7.216454029,-3.725026608,0.6924230456,2024-06-05 20:43:25.865044
27.9050444,-4.517948151,-3.386143208,1.493719578,2024-06-05 20:43:25.905044
27.9450444,-4.874777794,-3.195614576,1.274477124,2024-06-05 20:43:25.945044
27.9850444,-7.653742313,-4.226921082,1.257727385,2024-06-05 20:43:25.985044
28.0250444,-8.087141991,-4.974379063,1.418046474,2024-06-05 20:43:26.025044
28.0650444,-11.40509033,-4.532305241,0.6203392744,2024-06-05 20:43:26.065044
28.1050444,-12.68285751,-5.738287926,0.2048854381,2024-06-05 20:43:26.105044
28.1450444,-8.602197647,-9.622735977,-1.049252748,2024-06-05 20:43:26.145044
28.1850444,-8.445467949,-7.123134136,-1.185643673,2024-06-05 20:43:26.185044
28.2250444,-10.03220844,-9.664610863,-0.0933200866,2024-06-05 20:43:26.225044
28.2650444,-7.733901978,-7.153044224,0.2814557552,2024-06-05 20:43:26.265044
28.3050444,-6.942176819,-6.660720825,0.01555334684,2024-06-05 20:43:26.305044
28.3450444,-6.349354744,-7.731509209,-0.03948157281,2024-06-05 20:43:26.345044
28.3850444,-5.825924873,-10.06122112,-0.2539383173,2024-06-05 20:43:26.385044
28.4250444,-5.825924873,-10.06122112,-0.2539383173,2024-06-05 20:43:26.425044
28.4650444,-7.136294365,-8.105088234,0.4528416991,2024-06-05 20:43:26.465044
28.5050444,-7.136294365,-8.105088234,0.4528416991,2024-06-05 20:43:26.505044
28.5450444,-7.136294365,-8.105088234,0.4528416991,2024-06-05 20:43:26.545044
28.5850444,-7.316952705,-6.433103561,-0.9281160831,2024-06-05 20:43:26.585044
28.5850444,-7.316952705,-6.433103561,-0.9281160831,2024-06-05 20:43:26.585044
28.6650444,-11.10179996,-7.085746288,0.1088734269,2024-06-05 20:43:26.665044
28.7050444,-10.50778198,-5.913262844,0.2587239444,2024-06-05 20:43:26.705044
28.7450444,-9.759127617,-5.316852093,0.03230310604,2024-06-05 20:43:26.745044
28.7850444,-5.763711452,-5.383851051,-0.385543555,2024-06-05 20:43:26.785044
28.8250444,-6.358926296,-3.372982502,-0.9583254457,2024-06-05 20:43:26.825044
28.8650444,-3.540480137,-1.879263043,0.7259225845,2024-06-05 20:43:26.865044
28.9050444,-2.72961235,-2.007578135,1.316351533,2024-06-05 20:43:26.905044
28.9450444,-6.685845375,-2.635095835,0.8862416744,2024-06-05 20:43:26.945044
28.9850444,-6.685845375,-2.635095835,0.8862416744,2024-06-05 20:43:26.985044
29.0250444,-7.454838753,-2.541476727,1.777568102,2024-06-05 20:43:27.025044
29.0650444,-8.942276955,-4.053142548,0.8276175261,2024-06-05 20:43:27.065044
29.1050444,-6.072684765,-4.305884361,0.8946165442,2024-06-05 20:43:27.105044
29.1450444,-7.040282249,-3.176471949,0.3556332588,2024-06-05 20:43:27.145044
29.1850444,-9.556933403,-3.540480137,0.494716078,2024-06-05 20:43:27.185044
29.2250444,-9.556933403,-3.540480137,0.494716078,2024-06-05 20:43:27.225044
29.2650444,-9.556933403,-3.540480137,0.494716078,2024-06-05 20:43:27.265044
29.3050444,-10.65165043,-9.037093163,-0.7713862062,2024-06-05 20:43:27.305044
29.3450444,-10.53170967,-10.96780205,-1.156929731,2024-06-05 20:43:27.345044
29.3850444,-9.732806206,-6.766005039,-0.7235297561,2024-06-05 20:43:27.385044
29.4250444,-9.732806206,-6.766005039,-0.7235297561,2024-06-05 20:43:27.425044
29.4650444,-9.732806206,-6.766005039,-0.7235297561,2024-06-05 20:43:27.465044
29.5050444,-9.732806206,-6.766005039,-0.7235297561,2024-06-05 20:43:27.505044
29.5450444,-6.933801651,-7.67527771,-0.4360919297,2024-06-05 20:43:27.545044
29.5850444,-6.368497372,-7.555337429,0.3340978622,2024-06-05 20:43:27.585044
29.6250444,-8.566305161,-6.863213539,-1.095912814,2024-06-05 20:43:27.625044
29.6650444,-9.840782166,-7.748258591,-0.2922234535,2024-06-05 20:43:27.665044
29.7050444,-9.840782166,-7.748258591,-0.2922234535,2024-06-05 20:43:27.705044
29.7450444,-9.237193108,-7.642974854,-1.254138112,2024-06-05 20:43:27.745044
29.7850444,-10.09591675,-5.43649292,-1.018146038,2024-06-05 20:43:27.785044
29.8250444,-7.530212879,-5.420939922,0.08853443712,2024-06-05 20:43:27.825044
29.8650444,-5.55882597,-4.767100811,-0.02033899166,2024-06-05 20:43:27.865044
29.9050444,-6.720541477,-3.21954298,-0.4719842672,2024-06-05 20:43:27.905044
29.9450444,-6.720541477,-3.21954298,-0.4719842672,2024-06-05 20:43:27.945044
29.9850444,-5.423332691,-4.037589073,-0.4671986103,2024-06-05 20:43:27.985044
30.0250444,-5.530112267,-1.989332914,1.576271892,2024-06-05 20:43:28.025044
30.0650444,-7.864310741,-3.402892828,1.153340459,2024-06-05 20:43:28.065044
30.1050444,-6.555137634,-1.285244823,0.4899304509,2024-06-05 20:43:28.105044
30.1450444,-1.820638895,-1.231406331,1.178465128,2024-06-05 20:43:28.145044
30.1850444,-5.650949955,-1.324726462,0.6179464459,2024-06-05 20:43:28.185044
30.2250444,-5.650949955,-1.324726462,0.6179464459,2024-06-05 20:43:28.225044
30.2650444,-5.650949955,-1.324726462,0.6179464459,2024-06-05 20:43:28.265044
30.3050444,-13.70100307,-5.432903767,0.7905287743,2024-06-05 20:43:28.305044
30.3450444,-13.70100307,-5.432903767,0.7905287743,2024-06-05 20:43:28.345044
30.3850444,-7.569694519,-6.912266254,-0.3257229924,2024-06-05 20:43:28.385044
30.4250444,-7.403393269,-7.762615681,-1.177268744,2024-06-05 20:43:28.425044
30.4650444,-8.444271088,-7.263113976,0.2539383173,2024-06-05 20:43:28.465044
30.5050444,-6.769594193,-7.172186852,0.1064806059,2024-06-05 20:43:28.505044
30.5450444,-8.669196129,-9.659825325,-0.6574280262,2024-06-05 20:43:28.545044
30.5850444,-8.160123825,-8.986844063,-0.7163512707,2024-06-05 20:43:28.585044
30.6250444,-8.078767776,-7.955537319,0.8718847632,2024-06-05 20:43:28.625044
30.6650444,-7.569694519,-9.240781784,-0.6681957245,2024-06-05 20:43:28.665044
30.7050444,-7.569694519,-9.240781784,-0.6681957245,2024-06-05 20:43:28.705044
30.7450444,-5.991029739,-7.71475935,-0.5066801906,2024-06-05 20:43:28.745044
30.7850444,-7.041478634,-7.470392227,-0.5760720372,2024-06-05 20:43:28.785044
30.8250444,-9.468100548,-5.340780258,-0.727118969,2024-06-05 20:43:28.825044
30.8650444,-9.617950439,-5.469992638,-0.8001000881,2024-06-05 20:43:28.865044
30.9050444,-9.617950439,-5.469992638,-0.8001000881,2024-06-05 20:43:28.905044
30.9450444,-9.617950439,-5.469992638,-0.8001000881,2024-06-05 20:43:28.945044
30.9850444,-9.617950439,-5.469992638,-0.8001000881,2024-06-05 20:43:28.985044
31.0250444,-5.177769184,-1.899602056,-0.06580262631,2024-06-05 20:43:29.025044
31.0650444,-5.177769184,-1.899602056,-0.06580262631,2024-06-05 20:43:29.065044
31.1050444,-1.26490593,-2.452942371,1.367797256,2024-06-05 20:43:29.105044
31.1450444,-1.26490593,-2.452942371,1.367797256,2024-06-05 20:43:29.145044
31.1850444,-1.26490593,-2.452942371,1.367797256,2024-06-05 20:43:29.185044
31.2250444,-5.213661671,-4.668695927,1.124626637,2024-06-05 20:43:29.225044
31.2650444,-8.58784008,-5.676074505,0.8874381185,2024-06-05 20:43:29.265044
31.3050444,-7.525427341,-4.261617184,1.170090318,2024-06-05 20:43:29.305044
31.3450444,-10.48265648,-4.392025948,1.384546995,2024-06-05 20:43:29.345044
31.3850444,-11.4074831,-5.629414558,0.9125627279,2024-06-05 20:43:29.385044
31.4250444,-5.464010715,-5.527719498,0.07058826834,2024-06-05 20:43:29.425044
31.4650444,-8.893224716,-6.293123722,0.4289134443,2024-06-05 20:43:29.465044
31.5050444,-11.18584728,-9.729216576,-1.141376376,2024-06-05 20:43:29.505044
31.5450444,-8.64167881,-9.258728027,0.2994019389,2024-06-05 20:43:29.545044
31.5850444,-11.09103203,-10.717453,-0.4683950245,2024-06-05 20:43:29.585044
31.6250444,-7.237989426,-9.205786705,-0.8072785139,2024-06-05 20:43:29.625044
31.6650444,-4.630411148,-6.801897526,0.4205385745,2024-06-05 20:43:29.665044
31.7050444,-4.987539768,-7.682456017,-0.6263213158,2024-06-05 20:43:29.705044
31.7450444,-5.992226124,-8.926724434,0.1486541033,2024-06-05 20:43:29.745044
31.7850444,-7.743473053,-7.601997375,-0.4540380836,2024-06-05 20:43:29.785044
31.8250444,-7.743473053,-7.601997375,-0.4540380836,2024-06-05 20:43:29.825044
31.8650444,-7.743473053,-7.601997375,-0.4540380836,2024-06-05 20:43:29.865044
31.9050444,-10.22273636,-7.836793423,-0.6023930907,2024-06-05 20:43:29.905044
31.9450444,-9.791728973,-7.671688557,-0.9499505758,2024-06-05 20:43:29.945044
31.9850444,-10.58824062,-6.761219501,-1.034895778,2024-06-05 20:43:29.985044
32.0250444,-7.120740891,-5.454439163,0.3281157911,2024-06-05 20:43:30.025044
32.0650444,-6.634399891,-2.990729094,-1.057627559,2024-06-05 20:43:30.065044
32.1050444,-5.14785862,-3.08434844,0.6490531564,2024-06-05 20:43:30.105044
32.1450444,-4.668695927,-1.370190024,0.5198407173,2024-06-05 20:43:30.145044
32.1850444,-5.178965569,-2.739183664,1.106680512,2024-06-05 20:43:30.185044
32.2250444,-5.709573746,-1.799103498,1.15094769,2024-06-05 20:43:30.225044
32.2650444,-5.76849699,-1.171286702,1.921137452,2024-06-05 20:43:30.265044
32.3050444,-7.392625332,-1.218245864,1.379761338,2024-06-05 20:43:30.305044
32.3450444,-6.767201424,-3.52731967,0.1881356835,2024-06-05 20:43:30.345044
32.3850444,-6.758826733,-4.091427803,0.4193421602,2024-06-05 20:43:30.385044
32.4250444,-8.939884186,-4.514358997,0.8467600942,2024-06-05 20:43:30.425044
32.4650444,-7.733901978,-6.187540054,0.6323033571,2024-06-05 20:43:30.465044
32.5050444,-7.902894974,-8.550751686,0.2395813614,2024-06-05 20:43:30.505044
32.5450444,-10.58225822,-9.886245728,-0.3927220106,2024-06-05 20:43:30.545044
32.5850444,-9.30179882,-10.4216404,-1.396511078,2024-06-05 20:43:30.585044
32.6250444,-9.356833458,-7.967501163,-0.1630110443,2024-06-05 20:43:30.625044
32.6650444,-9.482457161,-9.528220177,-1.268495083,2024-06-05 20:43:30.665044
32.7050444,-9.482457161,-9.528220177,-1.268495083,2024-06-05 20:43:30.705044
32.7450444,-4.938187599,-6.751648426,0.9726824164,2024-06-05 20:43:30.745044
32.7850444,-6.089434624,-7.648956776,-0.3077768087,2024-06-05 20:43:30.785044
32.8250444,-8.343473434,-9.741181374,0.3101696372,2024-06-05 20:43:30.825044
32.8650444,-11.13440228,-9.88146019,-1.006181955,2024-06-05 20:43:30.865044
32.9050444,-6.762415886,-8.390133858,-1.125823021,2024-06-05 20:43:30.905044
32.9450444,-7.511070251,-8.266902924,-0.5856433511,2024-06-05 20:43:30.945044
32.9850444,-8.317152023,-5.53370142,-0.5593222976,2024-06-05 20:43:30.985044
33.0250444,-9.292227745,-4.765904427,-0.1486541033,2024-06-05 20:43:31.025044
33.0650444,-9.324530602,-5.623432159,-0.8312067389,2024-06-05 20:43:31.065044
33.1050444,-8.549555779,-4.421039104,0.02512463741,2024-06-05 20:43:31.105044
33.1450444,-6.634399891,-2.426621199,-1.05523479,2024-06-05 20:43:31.145044
33.1850444,-5.392225742,-2.787040234,-0.7378866673,2024-06-05 20:43:31.185044
33.2250444,-3.52731967,-1.811067581,0.7019943595,2024-06-05 20:43:31.225044
33.2650444,-5.597111225,-0.7462615371,1.38574338,2024-06-05 20:43:31.265044
33.3050444,-4.600500584,-2.643470764,1.461117268,2024-06-05 20:43:31.305044
33.3450444,-5.989833355,-2.248056889,1.427617788,2024-06-05 20:43:31.345044
33.3850444,-5.084448814,-2.953640461,1.238584876,2024-06-05 20:43:31.385044
33.4250444,-6.907480717,-4.345366001,0.8647062778,2024-06-05 20:43:31.425044
33.4650444,-6.907480717,-4.345366001,0.8647062778,2024-06-05 20:43:31.465044
33.5050444,-8.673981667,-4.927420139,1.061216831,2024-06-05 20:43:31.505044
33.5450444,-9.444171906,-4.642374992,0.4803591371,2024-06-05 20:43:31.545044
33.5850444,-9.444171906,-4.642374992,0.4803591371,2024-06-05 20:43:31.585044
33.6250444,-9.444171906,-4.642374992,0.4803591371,2024-06-05 20:43:31.625044
33.6650444,-9.444171906,-4.642374992,0.4803591371,2024-06-05 20:43:31.665044
33.7050444,-7.215257645,-6.969694138,0.3436691463,2024-06-05 20:43:31.705044
33.7450444,-6.951747894,-7.148258686,0.6299105883,2024-06-05 20:43:31.745044
33.7850444,-8.162815094,-10.73420238,-0.88504529,2024-06-05 20:43:31.785044
33.8250444,-7.495516777,-9.183054924,-0.7007979155,2024-06-05 20:43:31.825044
33.8650444,-5.956333637,-8.890831947,0.509073019,2024-06-05 20:43:31.865044
33.9050444,-6.77796936,-7.919644833,-0.4133601189,2024-06-05 20:43:31.905044
33.9450444,-8.780761719,-6.294320107,-0.1941177398,2024-06-05 20:43:31.945044
33.9850444,-8.767601013,-6.162415504,-1.631306887,2024-06-05 20:43:31.985044
34.0250444,-9.365208626,-7.663313389,-1.079162955,2024-06-05 20:43:32.025044
34.0650444,-7.778169155,-8.573483467,-0.7199404836,2024-06-05 20:43:32.065044
34.1050444,-9.56770134,-9.046664238,-0.4360919297,2024-06-05 20:43:32.105044
34.1450444,-10.27178955,-5.970690727,0.7630113363,2024-06-05 20:43:32.145044
34.1850444,-7.493124008,-3.121437073,0.9499505758,2024-06-05 20:43:32.185044
34.2250444,-4.092624187,-3.591925859,-1.082752228,2024-06-05 20:43:32.225044
34.2650444,-3.303291559,-3.318845034,-0.08853443712,2024-06-05 20:43:32.265044
34.3050444,-3.303291559,-3.318845034,-0.08853443712,2024-06-05 20:43:32.305044
34.3450444,-7.932805061,-3.517748356,1.353440285,2024-06-05 20:43:32.345044
34.3850444,-5.568397522,-1.462313771,1.480558991,2024-06-05 20:43:32.385044
34.4250444,-3.560819149,-0.7498508096,1.85892415,2024-06-05 20:43:32.425044
34.4650444,-3.456731319,-1.970190287,1.476969719,2024-06-05 20:43:32.465044
34.5050444,-7.928019524,-2.976372242,0.8826524615,2024-06-05 20:43:32.505044
34.5450444,-10.60379314,-6.839285374,0.7331010103,2024-06-05 20:43:32.545044
34.5850444,-10.70070267,-7.424928665,-0.2407777756,2024-06-05 20:43:32.585044
34.6250444,-8.102695465,-7.836793423,-0.001196411322,2024-06-05 20:43:32.625044
34.6650444,-6.446264267,-7.52782011,-0.6287141442,2024-06-05 20:43:32.665044
34.7050444,-6.446264267,-7.52782011,-0.6287141442,2024-06-05 20:43:32.705044
34.7450444,-7.616354465,-6.163611889,-0.3927220106,2024-06-05 20:43:32.745044
34.7850444,-7.784151077,-8.006982803,0.1546361595,2024-06-05 20:43:32.785044
34.8250444,-11.51635647,-11.49841022,-1.717448473,2024-06-05 20:43:32.825044
34.8650444,-7.731509209,-10.53051376,-0.08853443712,2024-06-05 20:43:32.865044
34.9050444,-5.958726406,-8.775976181,0.6792625189,2024-06-05 20:43:32.905044
34.9050444,-5.958726406,-8.775976181,0.6792625189,2024-06-05 20:43:32.905044
34.9850444,-4.931009293,-6.630810738,0.03708875179,2024-06-05 20:43:32.985044
35.0250444,-4.743172646,-5.785246849,-0.4815555513,2024-06-05 20:43:33.025044
35.0650444,-4.743172646,-5.785246849,-0.4815555513,2024-06-05 20:43:33.065044
35.1050444,-9.893424034,-8.088338852,-0.8623134494,2024-06-05 20:43:33.105044
35.1450444,-10.34985542,-6.351747513,-0.6275177598,2024-06-05 20:43:33.145044
35.1850444,-11.61326599,-6.716952324,-0.6514459848,2024-06-05 20:43:33.185044
35.2250444,-11.61326599,-6.716952324,-0.6514459848,2024-06-05 20:43:33.225044
35.2650444,-11.61326599,-6.716952324,-0.6514459848,2024-06-05 20:43:33.265044
35.3050444,-11.61326599,-6.716952324,-0.6514459848,2024-06-05 20:43:33.305044
35.3450444,-5.611468315,-5.043771267,-0.2144567221,2024-06-05 20:43:33.345044
35.3850444,-4.922634602,-2.426621199,0.883848846,2024-06-05 20:43:33.385044
35.4250444,-3.787240028,-2.133201361,0.2814557552,2024-06-05 20:43:33.425044
35.4650444,-3.787240028,-2.133201361,0.2814557552,2024-06-05 20:43:33.465044
35.5050444,-3.876971006,-1.359422326,0.4779663086,2024-06-05 20:43:33.505044
35.5450444,-8.264510155,-1.927119493,1.949851394,2024-06-05 20:43:33.545044
35.5850444,-11.74756241,-2.706880569,1.234995604,2024-06-05 20:43:33.585044
35.6250444,-7.611568928,-6.58654356,0.3867399693,2024-06-05 20:43:33.625044
35.6650444,-8.4646101,-4.684548378,0.9978070259,2024-06-05 20:43:33.665044
35.7050444,-8.4646101,-4.684548378,0.9978070259,2024-06-05 20:43:33.705044
35.7450444,-7.840382576,-5.635396481,0.4588237405,2024-06-05 20:43:33.745044
35.7850444,-9.283852577,-7.381857872,-0.7893323898,2024-06-05 20:43:33.785044
35.8250444,-8.551948547,-9.14596653,-0.7103692293,2024-06-05 20:43:33.825044
35.8650444,-11.11167049,-9.086145401,-0.5928218365,2024-06-05 20:43:33.865044
35.9050444,-10.49581718,-7.613961697,-1.234995604,2024-06-05 20:43:33.905044
35.9450444,-10.49581718,-7.613961697,-1.234995604,2024-06-05 20:43:33.945044
35.9850444,-10.49581718,-7.613961697,-1.234995604,2024-06-05 20:43:33.985044
36.0250444,-4.885545731,-8.844171524,0.1390828192,2024-06-05 20:43:34.025044
36.0650444,-5.962316036,-6.233004093,1.156929731,2024-06-05 20:43:34.065044
36.1050444,-6.562615395,-5.830710411,0.371186614,2024-06-05 20:43:34.105044
36.1450444,-8.140980721,-5.82233572,-0.6816553473,2024-06-05 20:43:34.145044
36.1850444,-10.26221848,-7.163811684,0.04785645381,2024-06-05 20:43:34.185044
36.2250444,-10.23709393,-8.599804878,-1.925923109,2024-06-05 20:43:34.225044
36.2650444,-10.30558777,-7.919644833,-0.584446907,2024-06-05 20:43:34.265044
36.3050444,-10.78564835,-6.845267296,-0.7127620578,2024-06-05 20:43:34.305044
36.3450444,-6.582954407,-4.588536739,0.06460621208,2024-06-05 20:43:34.345044
36.3850444,-5.177769184,-3.265006542,0.5521438122,2024-06-05 20:43:34.385044
36.4250444,-5.228317261,-2.521137714,-0.7007979155,2024-06-05 20:43:34.425044
36.4650444,-4.728815556,-3.886841297,1.192822099,2024-06-05 20:43:34.465044
36.5050444,-5.857031822,-0.88504529,1.164108157,2024-06-05 20:43:34.505044
36.5450444,-9.227322578,-3.26141715,1.327119231,2024-06-05 20:43:34.545044
36.5850444,-5.77208662,-2.21216464,1.616949916,2024-06-05 20:43:34.585044
36.6250444,-4.789832592,-1.87567389,1.268495083,2024-06-05 20:43:34.625044
36.6650444,-4.970789909,-2.711666346,1.638485312,2024-06-05 20:43:34.665044
36.7050444,-4.970789909,-2.711666346,1.638485312,2024-06-05 20:43:34.705044
36.7450444,-9.98913765,-4.817350388,0.280259341,2024-06-05 20:43:34.745044
36.7850444,-7.669295788,-5.709573746,-0.561715126,2024-06-05 20:43:34.785044
36.8250444,-8.852546692,-5.466403484,0.9305089116,2024-06-05 20:43:34.825044
36.8650444,-9.329316139,-6.521637917,0.03708875179,2024-06-05 20:43:34.865044
36.9050444,-9.30179882,-8.282456398,0.2934198678,2024-06-05 20:43:34.905044
36.9450444,-10.50299549,-10.30050373,-1.024128079,2024-06-05 20:43:34.945044
36.9850444,-10.50299549,-10.30050373,-1.024128079,2024-06-05 20:43:34.985044
37.0250444,-10.50299549,-10.30050373,-1.024128079,2024-06-05 20:43:35.025044
37.0650444,-10.50299549,-10.30050373,-1.024128079,2024-06-05 20:43:35.065044
37.1050444,-5.468796253,-6.940980434,-0.2611167729,2024-06-05 20:43:35.105044
37.1450444,-5.431707382,-6.667899609,0.3496512175,2024-06-05 20:43:35.145044
37.1850444,-5.70000267,-7.018746853,0.08973085135,2024-06-05 20:43:35.185044
37.2250444,-6.602096558,-8.28126049,-0.2742772996,2024-06-05 20:43:35.225044
37.2650444,-8.833403587,-7.247560501,0.07537391037,2024-06-05 20:43:35.265044
37.3050444,-9.217751503,-7.894220829,-1.070788145,2024-06-05 20:43:35.305044
37.3450444,-10.46112156,-7.588837147,-0.9439685345,2024-06-05 20:43:35.345044
37.3850444,-9.591629982,-7.098009109,-1.275673628,2024-06-05 20:43:35.385044
37.4250444,-9.128020287,-6.587739944,-0.2659024298,2024-06-05 20:43:35.425044
37.4650444,-6.863213539,-5.224728107,-0.2180459648,2024-06-05 20:43:35.465044
37.5050444,-7.363911629,-4.323830605,-0.132801652,2024-06-05 20:43:35.505044
37.5450444,-8.985647202,-2.71286273,-1.13419795,2024-06-05 20:43:35.545044
37.5850444,-5.444868088,-3.029014349,-0.2204387933,2024-06-05 20:43:35.585044
37.6250444,-4.38724041,-1.566700578,1.234995604,2024-06-05 20:43:35.625044
37.6650444,-4.38724041,-1.566700578,1.234995604,2024-06-05 20:43:35.665044
37.7050444,-4.38724041,-1.566700578,1.234995604,2024-06-05 20:43:35.705044
37.7450444,-5.676074505,-1.840977907,1.188036442,2024-06-05 20:43:35.745044
37.7850444,-5.676074505,-1.840977907,1.188036442,2024-06-05 20:43:35.785044
37.8250444,-8.682356834,-4.66151762,0.7737790346,2024-06-05 20:43:35.825044
37.8650444,-8.682356834,-4.66151762,0.7737790346,2024-06-05 20:43:35.865044
37.9050444,-9.19980526,-5.478367329,0.05144568533,2024-06-05 20:43:35.905044
37.9450444,-7.337291718,-5.758925915,0.09930214286,2024-06-05 20:43:35.945044
37.9850444,-6.836892605,-6.461817741,-0.3448655605,2024-06-05 20:43:35.985044
38.0250444,-9.918548584,-8.505288124,-0.7139584422,2024-06-05 20:43:36.025044
38.0650444,-11.00130081,-7.515855789,-1.001396298,2024-06-05 20:43:36.065044
38.1050444,-11.78943729,-8.681160927,-0.9978070259,2024-06-05 20:43:36.105044
38.1450444,-9.498010635,-8.648857117,-1.004985452,2024-06-05 20:43:36.145044
38.1850444,-9.498010635,-8.648857117,-1.004985452,2024-06-05 20:43:36.185044
38.2250444,-4.039981842,-7.824829102,-0.6251249313,2024-06-05 20:43:36.225044
38.2650444,-4.338187218,-7.346862793,-0.832403183,2024-06-05 20:43:36.265044
38.3050444,-9.098110199,-7.277471066,0.0,2024-06-05 20:43:36.305044
38.3450444,-11.24566841,-7.163811684,-0.8575277925,2024-06-05 20:43:36.345044
38.3850444,-8.469395638,-7.080960274,-0.8898309469,2024-06-05 20:43:36.385044
38.4250444,-7.843971729,-8.289634705,-0.931705296,2024-06-05 20:43:36.425044
38.4650444,-7.843971729,-8.289634705,-0.931705296,2024-06-05 20:43:36.465044
38.5050444,-10.28973579,-6.260521412,-1.250548959,2024-06-05 20:43:36.505044
38.5450444,-9.180662155,-4.643571377,-1.246959686,2024-06-05 20:43:36.545044
38.5850444,-9.195018768,-5.044967651,0.3077768087,2024-06-05 20:43:36.585044
38.6250444,-8.263314247,-4.152743816,-1.619342685,2024-06-05 20:43:36.625044
38.6650444,-8.263314247,-4.152743816,-1.619342685,2024-06-05 20:43:36.665044
38.7050444,-8.263314247,-4.152743816,-1.619342685,2024-06-05 20:43:36.705044
38.7450444,-7.731509209,-3.242274761,1.787139416,2024-06-05 20:43:36.745044
38.7850444,-7.731509209,-3.242274761,1.787139416,2024-06-05 20:43:36.785044
38.8250444,-7.587640762,-1.449153185,0.5353940725,2024-06-05 20:43:36.825044
38.8650444,-1.107876897,-0.9954141974,1.318744421,2024-06-05 20:43:36.865044
38.9050444,-4.936991215,0.3496512175,1.520040631,2024-06-05 20:43:36.905044
38.9450444,-4.936991215,0.3496512175,1.520040631,2024-06-05 20:43:36.945044
38.9850444,-9.975976944,-4.100998878,0.2288136631,2024-06-05 20:43:36.985044
39.0250444,-13.48415375,-6.060720444,0.02273181453,2024-06-05 20:43:37.025044
39.0650444,-10.43838978,-7.843971729,0.7031907439,2024-06-05 20:43:37.065044
39.1050444,-7.285845757,-9.346066475,-0.7857431173,2024-06-05 20:43:37.105044
39.1450444,-7.753044605,-7.8810606,-0.09451649338,2024-06-05 20:43:37.145044
39.1850444,-7.984251022,-7.181757927,-0.9113663435,2024-06-05 20:43:37.185044
39.2250444,-7.808079243,-7.645367622,0.8192426562,2024-06-05 20:43:37.225044
39.2650444,-7.808079243,-7.645367622,0.8192426562,2024-06-05 20:43:37.265044
39.3050444,-8.40329361,-9.531808853,-1.001396298,2024-06-05 20:43:37.305044
39.3450444,-9.118449211,-9.736394882,-0.6382854581,2024-06-05 20:43:37.345044
39.3850444,-7.334898949,-9.061020851,1.051645517,2024-06-05 20:43:37.385044
39.4250444,-6.089434624,-7.234400272,0.399900496,2024-06-05 20:43:37.425044
39.4650444,-6.089434624,-7.234400272,0.399900496,2024-06-05 20:43:37.465044
39.5050444,-6.089434624,-7.234400272,0.399900496,2024-06-05 20:43:37.505044
39.5450444,-9.114859581,-7.033103943,-0.4528416991,2024-06-05 20:43:37.545044
39.5450444,-9.114859581,-7.033103943,-0.4528416991,2024-06-05 20:43:37.545044
39.6250444,-10.11147022,-8.342276573,-1.074377418,2024-06-05 20:43:37.625044
39.6650444,-9.687342644,-6.18634367,-1.36061883,2024-06-05 20:43:37.665044
39.7050444,-9.687342644,-6.18634367,-1.36061883,2024-06-05 20:43:37.705044
39.7450444,-7.65015316,-5.464010715,-0.3963112533,2024-06-05 20:43:37.745044
39.7850444,-6.070291996,-4.234099865,-0.2431706041,2024-06-05 20:43:37.785044
39.8250444,-4.985146999,-1.457528114,0.2742772996,2024-06-05 20:43:37.825044
39.8650444,-5.077270508,-2.11046958,0.6550351977,2024-06-05 20:43:37.865044
39.9050444,-8.090731621,-2.783450842,1.361815214,2024-06-05 20:43:37.905044
39.9450444,-6.303891182,-2.027917147,0.8766704202,2024-06-05 20:43:37.945044
39.9850444,-6.303891182,-2.027917147,0.8766704202,2024-06-05 20:43:37.985044
40.0250444,-4.025625229,-1.643270969,1.066002488,2024-06-05 20:43:38.025044
40.0650444,-4.025625229,-1.643270969,1.066002488,2024-06-05 20:43:38.065044
40.1050444,-7.350451946,-2.342872381,1.073180914,2024-06-05 20:43:38.105044
40.1450444,-10.69591713,-4.879563808,0.6358926296,2024-06-05 20:43:38.145044
40.1850444,-10.30678463,-5.932405472,0.1124626622,2024-06-05 20:43:38.185044
40.2250444,-11.16431236,-7.04387188,0.5808576941,2024-06-05 20:43:38.225044
40.2650444,-8.646464348,-10.17488003,-0.6490531564,2024-06-05 20:43:38.265044
40.3050444,-8.646464348,-10.17488003,-0.6490531564,2024-06-05 20:43:38.305044
40.3450444,-8.646464348,-10.17488003,-0.6490531564,2024-06-05 20:43:38.345044
40.3850444,-8.646464348,-10.17488003,-0.6490531564,2024-06-05 20:43:38.385044
40.4250444,-8.646464348,-10.17488003,-0.6490531564,2024-06-05 20:43:38.425044
40.4650444,-7.837989807,-7.352844715,0.08255238086,2024-06-05 20:43:38.465044
40.5050444,-7.837989807,-7.352844715,0.08255238086,2024-06-05 20:43:38.505044
40.5450444,-6.033203125,-9.026325226,0.1785643846,2024-06-05 20:43:38.545044
40.5850444,-7.745865822,-7.586444378,-0.3448655605,2024-06-05 20:43:38.585044
40.6250444,-8.296813011,-7.31814909,-0.5042873621,2024-06-05 20:43:38.625044
40.6650444,-6.453442574,-7.330112934,-0.1725823283,2024-06-05 20:43:38.665044
40.7050444,-7.770990849,-6.243771553,-0.6610172391,2024-06-05 20:43:38.705044
40.7450444,-11.15593719,-7.126723289,-0.3424727321,2024-06-05 20:43:38.745044
40.7850444,-10.87567806,-7.842775345,-0.9197412133,2024-06-05 20:43:38.785044
40.8250444,-9.871889114,-6.862017155,-1.111466169,2024-06-05 20:43:38.825044
40.8650444,-9.175876617,-5.428118229,-0.9990034699,2024-06-05 20:43:38.865044
40.9050444,-6.699006081,-4.677071095,0.4612165689,2024-06-05 20:43:38.905044
40.9450444,-6.699006081,-4.677071095,0.4612165689,2024-06-05 20:43:38.945044
40.9450444,-4.861617565,-2.811267614,-0.04426721856,2024-06-05 20:43:38.945044
41.0250444,-4.655535698,-2.147558212,0.4217349887,2024-06-05 20:43:39.025044
41.0650444,-5.625824928,-1.478166223,1.191625714,2024-06-05 20:43:39.065044
41.1050444,-5.625824928,-1.478166223,1.191625714,2024-06-05 20:43:39.105044
41.1450444,-5.625824928,-1.478166223,1.191625714,2024-06-05 20:43:39.145044
41.1850444,-8.795118332,-2.684148788,1.131805062,2024-06-05 20:43:39.185044
41.2250444,-6.649953365,-3.837489367,0.5078766346,2024-06-05 20:43:39.225044
41.2650444,-6.649953365,-3.837489367,0.5078766346,2024-06-05 20:43:39.265044
41.3050444,-6.649953365,-3.837489367,0.5078766346,2024-06-05 20:43:39.305044
41.3450444,-8.783154488,-7.287042141,0.3364906907,2024-06-05 20:43:39.345044
41.3850444,-8.696713448,-9.996315956,-0.2682952285,2024-06-05 20:43:39.385044
41.4250444,-8.245368004,-8.354241371,-0.6227321029,2024-06-05 20:43:39.425044
41.4650444,-9.71605587,-7.778169155,-1.137787223,2024-06-05 20:43:39.465044
41.5050444,-7.785347462,-7.412964344,-0.05024927482,2024-06-05 20:43:39.505044
41.5450444,-8.236992836,-7.928019524,-0.2168495506,2024-06-05 20:43:39.545044
41.5850444,-9.189037323,-9.108877182,-0.6610172391,2024-06-05 20:43:39.585044
41.6250444,-6.522834301,-8.184350967,0.09571290761,2024-06-05 20:43:39.625044
41.6650444,-6.575775623,-8.87647438,0.456430912,2024-06-05 20:43:39.665044
41.7050444,-6.255735874,-7.693223953,-0.16181463,2024-06-05 20:43:39.705044
41.7050444,-6.255735874,-7.693223953,-0.16181463,2024-06-05 20:43:39.705044
41.7850444,-8.676374435,-8.026124954,-0.2922234535,2024-06-05 20:43:39.785044
41.8250444,-8.676374435,-8.026124954,-0.2922234535,2024-06-05 20:43:39.825044
41.8650444,-8.676374435,-8.026124954,-0.2922234535,2024-06-05 20:43:39.865044
41.9050444,-8.48973465,-7.50269556,-0.7211369276,2024-06-05 20:43:39.905044
41.9450444,-9.445367813,-7.003193855,-0.4037888348,2024-06-05 20:43:39.945044
41.9850444,-9.428618431,-6.317051888,0.8312067389,2024-06-05 20:43:39.985044
42.0250444,-9.657432556,-5.076074123,-2.371586323,2024-06-05 20:43:40.025044
42.0650444,-8.259724617,-3.733401537,-0.2419741899,2024-06-05 20:43:40.065044
42.1050444,-8.259724617,-3.733401537,-0.2419741899,2024-06-05 20:43:40.105044
42.1450444,-8.259724617,-3.733401537,-0.2419741899,2024-06-05 20:43:40.145044
42.1850444,-4.634000301,-2.16670084,0.4827519655,2024-06-05 20:43:40.185044
42.2250444,-6.230610847,-0.584446907,1.158126116,2024-06-05 20:43:40.225044
42.2650444,-5.024628639,-2.105684042,2.696112871,2024-06-05 20:43:40.265044
42.3050444,-7.327720165,-2.296212435,1.324726462,2024-06-05 20:43:40.305044
42.3450444,-7.600800991,-3.538087368,1.270887971,2024-06-05 20:43:40.345044
42.3850444,-9.122037888,-4.764708042,0.8694919348,2024-06-05 20:43:40.385044
42.4250444,-8.139784813,-4.79820776,0.8240283132,2024-06-05 20:43:40.425044
42.4650444,-7.258328438,-4.665106773,0.2611167729,2024-06-05 20:43:40.465044
42.5050444,-8.507680893,-5.537290573,0.08853443712,2024-06-05 20:43:40.505044
42.5450444,-7.7398839,-6.535995007,-0.332901448,2024-06-05 20:43:40.545044
42.5850444,-9.605986595,-9.365208626,-0.318544507,2024-06-05 20:43:40.585044
42.6250444,-9.602396965,-8.325527191,-0.3915255964,2024-06-05 20:43:40.625044
42.6650444,-9.602396965,-8.325527191,-0.3915255964,2024-06-05 20:43:40.665044
42.7050444,-9.602396965,-8.325527191,-0.3915255964,2024-06-05 20:43:40.705044
42.7450444,-6.887141705,-8.047660828,-0.2443670183,2024-06-05 20:43:40.745044
42.7850444,-7.397411346,-8.229814529,-0.2192423791,2024-06-05 20:43:40.785044
42.8250444,-6.17557621,-7.469195843,0.6071787477,2024-06-05 20:43:40.825044
42.8650444,-6.17557621,-7.469195843,0.6071787477,2024-06-05 20:43:40.865044
42.9050444,-6.17557621,-7.469195843,0.6071787477,2024-06-05 20:43:40.905044
42.9450444,-6.17557621,-7.469195843,0.6071787477,2024-06-05 20:43:40.945044
42.9850444,-6.17557621,-7.469195843,0.6071787477,2024-06-05 20:43:40.985044
43.0250444,-10.17248726,-6.526423931,-1.960619092,2024-06-05 20:43:41.025044
43.0650444,-9.372386932,-6.984051228,-0.6382854581,2024-06-05 20:43:41.065044
43.1050444,-9.372386932,-6.984051228,-0.6382854581,2024-06-05 20:43:41.105044
43.1450444,-10.34506989,-6.502495766,-0.3556332588,2024-06-05 20:43:41.145044
43.1850444,-10.34506989,-6.502495766,-0.3556332588,2024-06-05 20:43:41.185044
43.2250444,-6.839285374,-3.771686792,-0.4241278172,2024-06-05 20:43:41.225044
43.2650444,-5.196911812,-2.466102839,1.013360381,2024-06-05 20:43:41.265044
43.3050444,-2.007578135,-4.414757729,0.7342974544,2024-06-05 20:43:41.305044
43.3450444,-4.561018944,-0.1869392693,1.85294199,2024-06-05 20:43:41.345044
43.3850444,-6.451049805,-0.6876373887,1.915155411,2024-06-05 20:43:41.385044
43.4250444,-6.451049805,-0.6876373887,1.915155411,2024-06-05 20:43:41.425044
43.4250444,-10.84696388,-1.801496387,0.1304088384,2024-06-05 20:43:41.425044
43.5050444,-5.514558792,-3.017050266,1.361815214,2024-06-05 20:43:41.505044
43.5450444,-5.514558792,-3.017050266,1.361815214,2024-06-05 20:43:41.545044
43.5850444,-5.514558792,-3.017050266,1.361815214,2024-06-05 20:43:41.585044
43.6250444,-5.514558792,-3.017050266,1.361815214,2024-06-05 20:43:41.625044
43.6250444,-7.269095898,-4.967200756,0.4037888348,2024-06-05 20:43:41.625044
43.7050444,-9.570094109,-9.460921288,-1.420439363,2024-06-05 20:43:41.705044
43.7450444,-12.62901878,-10.95105171,-0.3652045429,2024-06-05 20:43:41.745044
43.7850444,-12.62901878,-10.95105171,-0.3652045429,2024-06-05 20:43:41.785044
43.8250444,-12.62901878,-10.95105171,-0.3652045429,2024-06-05 20:43:41.825044
43.8650444,-5.595914841,-6.882356167,-0.02991028316,2024-06-05 20:43:41.865044
43.9050444,-6.373282909,-7.350451946,-0.7115656137,2024-06-05 20:43:41.905044
43.9450444,-4.388436794,-6.74925518,-0.7941179872,2024-06-05 20:43:41.945044
43.9850444,-5.689234734,-8.209475517,-0.1737787426,2024-06-05 20:43:41.985044
44.0250444,-7.842775345,-8.618947029,-0.6059823632,2024-06-05 20:43:42.025044
44.0650444,-9.218947411,-7.621140003,0.02153540403,2024-06-05 20:43:42.065044
44.1050444,-8.076375008,-8.530412674,-1.425225019,2024-06-05 20:43:42.105044
44.1450444,-7.671688557,-7.071389198,-0.5593222976,2024-06-05 20:43:42.145044
44.1850444,-6.794719219,-7.390232563,-0.2539383173,2024-06-05 20:43:42.185044
44.2250444,-10.77607632,-6.816254616,-0.7977072597,2024-06-05 20:43:42.225044
44.2650444,-8.705388069,-7.124330521,-0.3436691463,2024-06-05 20:43:42.265044
44.3050444,-8.705388069,-7.124330521,-0.3436691463,2024-06-05 20:43:42.305044
44.3450444,-8.748458862,-4.907081127,-0.566500783,2024-06-05 20:43:42.345044
44.3850444,-8.349455833,-3.556033611,-0.157028988,2024-06-05 20:43:42.385044
44.4250444,-4.868795872,-4.352544308,-0.6406782866,2024-06-05 20:43:42.425044
44.4650444,-4.286741734,-1.213460207,0.7295117974,2024-06-05 20:43:42.465044
44.5050444,-5.01864624,-1.274477124,0.513858676,2024-06-05 20:43:42.505044
44.5450444,-5.01864624,-1.274477124,0.513858676,2024-06-05 20:43:42.545044
44.5850444,-5.01864624,-1.274477124,0.513858676,2024-06-05 20:43:42.585044
44.6250444,-5.01864624,-1.274477124,0.513858676,2024-06-05 20:43:42.625044
44.6650444,-5.01864624,-1.274477124,0.513858676,2024-06-05 20:43:42.665044
44.7050444,-7.893024445,-3.905983925,0.5976074338,2024-06-05 20:43:42.705044
44.7450444,-9.049057007,-4.624428749,-0.06580262631,2024-06-05 20:43:42.745044
44.7850444,-8.584251404,-6.223432541,-0.4313062727,2024-06-05 20:43:42.785044
44.8250444,-7.93878746,-5.788836002,-0.1232303679,2024-06-05 20:43:42.825044
44.8650444,-8.150551796,-6.166004658,-0.7881359458,2024-06-05 20:43:42.865044
44.9050444,-8.235795975,-8.287241936,-0.9906286001,2024-06-05 20:43:42.905044
44.9450444,-8.235795975,-8.287241936,-0.9906286001,2024-06-05 20:43:42.945044
44.9850444,-8.235795975,-8.287241936,-0.9906286001,2024-06-05 20:43:42.985044
45.0250444,-9.098110199,-11.67817116,-1.384546995,2024-06-05 20:43:43.025044
45.0650444,-9.098110199,-11.67817116,-1.384546995,2024-06-05 20:43:43.065044
45.1050444,-5.330012321,-5.860620975,0.5832505226,2024-06-05 20:43:43.105044
45.1450444,-6.473781586,-7.741080284,-0.008374879137,2024-06-05 20:43:43.145044
45.1850444,-6.509674072,-10.23589706,-0.1292124242,2024-06-05 20:43:43.185044
45.2250444,-7.32891655,-6.108577251,-0.2503490746,2024-06-05 20:43:43.225044
45.2650444,-11.28036404,-7.926823139,-1.1820544,2024-06-05 20:43:43.265044
45.3050444,-7.562515736,-7.849953651,-0.5018945336,2024-06-05 20:43:43.305044
45.3450444,-7.562515736,-7.849953651,-0.5018945336,2024-06-05 20:43:43.345044
45.3850444,-7.562515736,-7.849953651,-0.5018945336,2024-06-05 20:43:43.385044
45.4250444,-7.562515736,-7.849953651,-0.5018945336,2024-06-05 20:43:43.425044
45.4650444,-7.273881912,-6.005386829,0.1498505175,2024-06-05 20:43:43.465044
45.5050444,-6.495316982,-5.265406132,-1.527219057,2024-06-05 20:43:43.505044
45.5450444,-7.041478634,-3.418446302,-1.701895118,2024-06-05 20:43:43.545044
45.5850444,-7.157829762,-1.764407635,-0.4313062727,2024-06-05 20:43:43.585044
45.6250444,-5.105984211,-1.917548299,0.6263213158,2024-06-05 20:43:43.625044
45.6650444,-8.512466431,-2.539083958,0.941575706,2024-06-05 20:43:43.665044
45.7050444,-4.873581409,-2.363211393,1.125823021,2024-06-05 20:43:43.705044
45.7450444,-3.079562664,0.01794617064,1.430010676,2024-06-05 20:43:43.745044
45.7850444,-4.92143774,-0.855134964,1.099501967,2024-06-05 20:43:43.785044
45.8250444,-9.195018768,-4.44496727,0.03230310604,2024-06-05 20:43:43.825044
45.8650444,-9.028717995,-6.18634367,0.4384847581,2024-06-05 20:43:43.865044
45.9050444,-10.61934662,-4.057928085,1.056431174,2024-06-05 20:43:43.905044
45.9450444,-9.763913155,-5.92642355,0.3963112533,2024-06-05 20:43:43.945044
45.9850444,-8.652446747,-8.827422142,-1.034895778,2024-06-05 20:43:43.985044
46.0250444,-7.118348122,-7.131508827,-0.3113660514,2024-06-05 20:43:44.025044
46.0650444,-7.118348122,-7.131508827,-0.3113660514,2024-06-05 20:43:44.065044
46.1050444,-7.118348122,-7.131508827,-0.3113660514,2024-06-05 20:43:44.105044
46.1450444,-8.009375572,-6.041578293,0.08614161611,2024-06-05 20:43:44.145044
46.1850444,-8.336295128,-8.669196129,-1.076770186,2024-06-05 20:43:44.185044
46.2250444,-9.999904633,-11.20020485,-0.7319046259,2024-06-05 20:43:44.225044
46.2650444,-9.999904633,-11.20020485,-0.7319046259,2024-06-05 20:43:44.265044
46.3050444,-9.999904633,-11.20020485,-0.7319046259,2024-06-05 20:43:44.305044
46.3450444,-9.999904633,-11.20020485,-0.7319046259,2024-06-05 20:43:44.345044
46.3850444,-8.265707016,-5.225924492,-0.1136590764,2024-06-05 20:43:44.385044
46.4250444,-7.34327364,-6.501298904,-0.4253242314,2024-06-05 20:43:44.425044
46.4650444,-8.611768723,-7.569694519,-0.665802896,2024-06-05 20:43:44.465044
46.5050444,-11.33061314,-7.97467947,0.005982056726,2024-06-05 20:43:44.505044
46.5450444,-10.9929266,-7.554141045,-0.1316052526,2024-06-05 20:43:44.545044
46.5850444,-9.157930374,-7.451249599,0.2359921336,2024-06-05 20:43:44.585044
46.6250444,-8.536395073,-4.159922123,0.2072782665,2024-06-05 20:43:44.625044
46.6650444,-4.703691006,-4.230510235,-0.1929213256,2024-06-05 20:43:44.665044
46.7050444,-4.703691006,-4.230510235,-0.1929213256,2024-06-05 20:43:44.705044
46.7450444,-4.210171223,0.8910273314,-0.1124626622,2024-06-05 20:43:44.745044
46.7850444,-6.519245148,-1.281655669,0.7558328509,2024-06-05 20:43:44.785044
46.8250444,-6.519245148,-1.281655669,0.7558328509,2024-06-05 20:43:44.825044
46.8650444,-8.507680893,-3.266202927,1.548754454,2024-06-05 20:43:44.865044
46.9050444,-7.196115017,-2.895016193,2.084148407,2024-06-05 20:43:44.905044
46.9450444,-6.515655994,-2.391925335,1.758425593,2024-06-05 20:43:44.945044
46.9850444,-7.380661488,-3.291327477,1.033699393,2024-06-05 20:43:44.985044
47.0250444,-8.354241371,-4.434199333,0.8730811477,2024-06-05 20:43:45.025044
47.0650444,-8.354241371,-4.434199333,0.8730811477,2024-06-05 20:43:45.065044
47.1050444,-8.354241371,-4.434199333,0.8730811477,2024-06-05 20:43:45.105044
47.1450444,-8.354241371,-4.434199333,0.8730811477,2024-06-05 20:43:45.145044
47.1850444,-8.826225281,-9.59282589,-0.5760720372,2024-06-05 20:43:45.185044
47.2250444,-9.044271469,-8.276473999,-1.043270707,2024-06-05 20:43:45.225044
47.2650444,-8.906385422,-8.549555779,-0.8060821295,2024-06-05 20:43:45.265044
47.3050444,-8.185546875,-8.414061546,-0.7163512707,2024-06-05 20:43:45.305044
47.3450444,-6.627221584,-7.532605648,-0.6720840335,2024-06-05 20:43:45.345044
47.3850444,-6.407979012,-8.859724998,-0.5485545993,2024-06-05 20:43:45.385044
47.4250444,-6.392425537,-9.136395454,-0.7965108156,2024-06-05 20:43:45.425044
47.4650444,-8.102695465,-7.581658363,0.4887340367,2024-06-05 20:43:45.465044
47.5050444,-6.624828815,-6.370890141,0.2204387933,2024-06-05 20:43:45.505044
47.5450444,-7.365108013,-7.774580002,-0.2970091105,2024-06-05 20:43:45.545044
47.5850444,-7.548159122,-7.901698589,-0.4408775866,2024-06-05 20:43:45.585044
47.6250444,-8.045268059,-7.545766354,-0.08614161611,2024-06-05 20:43:45.625044
47.6650444,-10.02383327,-6.059524059,-0.6047859192,2024-06-05 20:43:45.665044
47.7050444,-10.02383327,-6.059524059,-0.6047859192,2024-06-05 20:43:45.705044
47.7450444,-9.803693771,-5.804389477,-0.855134964,2024-06-05 20:43:45.745044
47.7850444,-8.650053978,-3.838685751,0.02632104978,2024-06-05 20:43:45.785044
47.8250444,-7.878667831,-2.425424814,-1.742872238,2024-06-05 20:43:45.825044
47.8650444,-7.878667831,-2.425424814,-1.742872238,2024-06-05 20:43:45.865044
47.9050444,-3.177668571,-1.450349569,0.9487541914,2024-06-05 20:43:45.905044
47.9050444,-3.177668571,-1.450349569,0.9487541914,2024-06-05 20:43:45.905044
47.9850444,-8.88604641,-3.865006685,0.6287141442,2024-06-05 20:43:45.985044
48.0250444,-6.360122681,-1.386939883,1.589432478,2024-06-05 20:43:46.025044
48.0650444,-5.295316696,-1.485344648,1.155733347,2024-06-05 20:43:46.065044
48.1050444,-5.318048477,-2.800200701,0.5736792088,2024-06-05 20:43:46.105044
48.1450444,-8.590232849,-4.004089355,0.4396811724,2024-06-05 20:43:46.145044
48.1850444,-8.590232849,-4.004089355,0.4396811724,2024-06-05 20:43:46.185044
48.2250444,-11.050354,-6.870391846,-0.04785645381,2024-06-05 20:43:46.225044
48.2650444,-8.465806961,-8.314759254,-0.2443670183,2024-06-05 20:43:46.265044
48.3050444,-7.594819069,-7.315756321,-0.5330012441,2024-06-05 20:43:46.305044
48.3450444,-7.873881817,-7.52782011,0.0466600433,2024-06-05 20:43:46.345044
48.3850444,-7.555337429,-5.061717033,-0.537786901,2024-06-05 20:43:46.385044
48.4250444,-8.22383213,-8.944669724,-2.087737799,2024-06-05 20:43:46.425044
48.4650444,-8.814261436,-10.97737312,-0.7151548862,2024-06-05 20:43:46.465044
48.5050444,-6.687041759,-10.37378311,-0.01076770201,2024-06-05 20:43:46.505044
48.5450444,-6.863213539,-8.262117386,0.8240283132,2024-06-05 20:43:46.545044
48.5850444,-6.863213539,-8.262117386,0.8240283132,2024-06-05 20:43:46.585044
48.5850444,-8.777172089,-9.232108116,-0.8910273314,2024-06-05 20:43:46.585044
48.6650444,-7.530212879,-6.434299946,-0.2240280211,2024-06-05 20:43:46.665044
48.7050444,-7.530212879,-6.434299946,-0.2240280211,2024-06-05 20:43:46.705044
48.7450444,-9.788140297,-8.46819973,-0.6681957245,2024-06-05 20:43:46.745044
48.7450444,-9.788140297,-8.46819973,-0.6681957245,2024-06-05 20:43:46.745044
48.8250444,-11.19182968,-6.077470303,0.1160518974,2024-06-05 20:43:46.825044
48.8650444,-11.19182968,-6.077470303,0.1160518974,2024-06-05 20:43:46.865044
48.9050444,-5.121537685,-3.532105207,-0.0239282269,2024-06-05 20:43:46.905044
48.9450444,-4.105784416,-2.736790895,-0.6406782866,2024-06-05 20:43:46.945044
48.9850444,-8.232207298,-2.795415163,0.3137588799,2024-06-05 20:43:46.985044
49.0250444,-7.759026527,-2.873480797,0.4755735099,2024-06-05 20:43:47.025044
49.0650444,-4.763511658,-2.32851553,0.8312067389,2024-06-05 20:43:47.065044
49.1050444,-9.124430656,-2.715255499,0.5772684813,2024-06-05 20:43:47.105044
49.1450444,-3.152543783,-1.048056364,0.8180462122,2024-06-05 20:43:47.145044
49.1850444,-2.44935298,-0.751047194,1.67437768,2024-06-05 20:43:47.185044
49.2250444,-8.101499557,-2.190629244,0.2611167729,2024-06-05 20:43:47.225044
49.2650444,-12.43848991,-8.420043945,0.3221337497,2024-06-05 20:43:47.265044
49.3050444,-7.644171238,-5.791228771,0.8706883192,2024-06-05 20:43:47.305044
49.3450444,-9.265906334,-4.667499542,1.050449133,2024-06-05 20:43:47.345044
49.3850444,-8.446663857,-9.153144836,-0.9185447693,2024-06-05 20:43:47.385044
49.4250444,-8.305188179,-9.081359863,-0.3867399693,2024-06-05 20:43:47.425044
49.4650444,-10.29332447,-5.295316696,-0.4600201547,2024-06-05 20:43:47.465044
49.5050444,-10.29332447,-5.295316696,-0.4600201547,2024-06-05 20:43:47.505044
49.5450444,-7.622336388,-8.618947029,-0.5820540786,2024-06-05 20:43:47.545044
49.5850444,-7.720741272,-7.161418915,-0.5736792088,2024-06-05 20:43:47.585044
49.6250444,-7.896913052,-8.808279037,-0.856331408,2024-06-05 20:43:47.625044
49.6650444,-5.341976643,-7.662117004,0.2228316069,2024-06-05 20:43:47.665044
49.7050444,-7.653742313,-7.094419956,-0.4372883439,2024-06-05 20:43:47.705044
49.7450444,-7.653742313,-7.094419956,-0.4372883439,2024-06-05 20:43:47.745044
49.7850444,-7.18534708,-7.24995327,-0.3137588799,2024-06-05 20:43:47.785044
49.8250444,-8.046463966,-7.410571575,-1.076770186,2024-06-05 20:43:47.825044
49.8650444,-9.682557106,-8.229814529,-0.5712863803,2024-06-05 20:43:47.865044
49.9050444,-9.337691307,-7.665706635,-0.5054838061,2024-06-05 20:43:47.905044
49.9450444,-8.555537224,-6.349354744,-0.614357233,2024-06-05 20:43:47.945044
49.9850444,-7.548159122,-5.424529076,0.6780661345,2024-06-05 20:43:47.985044
50.0250444,-7.18534708,-4.581357956,-0.2551347017,2024-06-05 20:43:48.025044
50.0650444,-7.942376614,-2.285444736,0.2072782665,2024-06-05 20:43:48.065044
50.1050444,-5.061717033,-3.074477911,0.2024926096,2024-06-05 20:43:48.105044
50.1450444,-4.58255434,-0.5676971674,-0.09810572863,2024-06-05 20:43:48.145044
50.1850444,-2.732005358,-0.3927220106,1.616949916,2024-06-05 20:43:48.185044
50.2250444,-4.510769844,-1.129412293,1.164108157,2024-06-05 20:43:48.225044
50.2650444,-4.510769844,-1.129412293,1.164108157,2024-06-05 20:43:48.265044
50.3050444,-8.43948555,-3.983750582,0.804885745,2024-06-05 20:43:48.305044
50.3050444,-8.43948555,-3.983750582,0.804885745,2024-06-05 20:43:48.305044
50.3850444,-7.770990849,-4.036392689,0.2850449979,2024-06-05 20:43:48.385044
50.4250444,-6.732505798,-5.170590401,0.2994019389,2024-06-05 20:43:48.425044
50.4250444,-6.732505798,-5.170590401,0.2994019389,2024-06-05 20:43:48.425044
50.5050444,-6.732505798,-5.170590401,0.2994019389,2024-06-05 20:43:48.505044
50.5450444,-6.732505798,-5.170590401,0.2994019389,2024-06-05 20:43:48.545044
50.5850444,-6.732505798,-5.170590401,0.2994019389,2024-06-05 20:43:48.585044
50.6250444,-8.820243835,-8.726922989,-0.8431708813,2024-06-05 20:43:48.625044
50.6650444,-9.204590797,-10.1964159,-0.584446907,2024-06-05 20:43:48.665044
50.7050444,-7.66451025,-6.655935287,-0.2850449979,2024-06-05 20:43:48.705044
50.7450444,-5.42572546,-6.115755558,0.4827519655,2024-06-05 20:43:48.745044
50.7850444,-5.995815277,-7.799704552,0.1462612897,2024-06-05 20:43:48.785044
50.8250444,-4.895116806,-6.594918251,-0.1304088384,2024-06-05 20:43:48.825044
50.8650444,-9.626325607,-8.523234367,-0.5210371017,2024-06-05 20:43:48.865044
50.9050444,-11.26840019,-10.0899353,-0.2491526604,2024-06-05 20:43:48.905044
50.9450444,-9.314959526,-11.23729324,-0.9029914737,2024-06-05 20:43:48.945044
50.9850444,-8.132605553,-7.657331467,-0.8491529226,2024-06-05 20:43:48.985044
51.0250444,-6.325426579,-4.515555382,-0.2144567221,2024-06-05 20:43:49.025044
51.0650444,-7.7398839,-4.186243057,-0.2419741899,2024-06-05 20:43:49.065044
51.1050444,-6.046363831,-4.550251484,-0.2970091105,2024-06-05 20:43:49.105044
51.1450444,-6.046363831,-4.550251484,-0.2970091105,2024-06-05 20:43:49.145044
51.1850444,-10.29571724,-5.207679272,-0.6167500615,2024-06-05 20:43:49.185044
51.2250444,-5.815157413,-3.964607954,0.1136590764,2024-06-05 20:43:49.225044
51.2650444,-4.376472473,-1.998904228,1.394118309,2024-06-05 20:43:49.265044
51.3050444,-3.59790802,-0.674476862,1.616949916,2024-06-05 20:43:49.305044
51.3450444,-2.761915445,-0.1438684613,1.654038668,2024-06-05 20:43:49.345044
51.3850444,-2.761915445,-0.1438684613,1.654038668,2024-06-05 20:43:49.385044
51.4250444,-2.761915445,-0.1438684613,1.654038668,2024-06-05 20:43:49.425044
51.4650444,-2.761915445,-0.1438684613,1.654038668,2024-06-05 20:43:49.465044
51.5050444,-9.025128365,-5.741877079,0.6239284873,2024-06-05 20:43:49.505044
51.5450444,-8.325527191,-5.722734451,0.7498508096,2024-06-05 20:43:49.545044
51.5850444,-8.239385605,-6.234200478,0.7558328509,2024-06-05 20:43:49.585044
51.6250444,-6.732505798,-6.053542137,-0.4133601189,2024-06-05 20:43:49.625044
51.6650444,-10.10309505,-8.337491035,0.1773679852,2024-06-05 20:43:49.665044
51.7050444,-10.10309505,-8.337491035,0.1773679852,2024-06-05 20:43:49.705044
51.7450444,-9.59641552,-7.817650795,-0.2718844712,2024-06-05 20:43:49.745044
51.7850444,-8.27408123,-7.624729156,-0.6478567123,2024-06-05 20:43:49.785044
51.8250444,-7.654938698,-6.633203506,0.1450648755,2024-06-05 20:43:49.825044
51.8650444,-7.26431036,-5.858228207,-0.02871387079,2024-06-05 20:43:49.865044
51.9050444,-5.695217133,-6.581758022,-0.02273181453,2024-06-05 20:43:49.905044
51.9450444,-8.931509972,-10.53888798,-0.5688936114,2024-06-05 20:43:49.945044
51.9850444,-7.210472107,-8.245368004,0.2982055247,2024-06-05 20:43:49.985044
52.0250444,-7.210472107,-8.245368004,0.2982055247,2024-06-05 20:43:50.025044
52.0650444,-7.210472107,-8.245368004,0.2982055247,2024-06-05 20:43:50.065044
52.1050444,-7.210472107,-8.245368004,0.2982055247,2024-06-05 20:43:50.105044
52.1450444,-6.993622303,-5.720341682,-0.5832505226,2024-06-05 20:43:50.145044
52.1850444,-8.351848602,-5.907280922,-0.5162515044,2024-06-05 20:43:50.185044
52.2250444,-9.172286987,-4.960022449,-0.2335993052,2024-06-05 20:43:50.225044
52.2650444,-9.490832329,-5.249852657,-0.1438684613,2024-06-05 20:43:50.265044
52.3050444,-9.069396019,-4.108177185,0.6924230456,2024-06-05 20:43:50.305044
52.3450444,-7.491927624,-3.742972851,0.3963112533,2024-06-05 20:43:50.345044
52.3850444,-4.852046013,-3.359822035,0.2611167729,2024-06-05 20:43:50.385044
52.4250444,-4.259224415,-2.366800785,0.7414759398,2024-06-05 20:43:50.425044
52.4650444,-4.794618607,-0.2826521695,0.9281160831,2024-06-05 20:43:50.465044
52.5050444,-2.094916344,-0.3903291821,1.31276238,2024-06-05 20:43:50.505044
52.5450444,-6.580561161,-1.153340459,1.36899364,2024-06-05 20:43:50.545044
52.5850444,-8.869296074,-3.349054337,1.052842021,2024-06-05 20:43:50.585044
52.6250444,-11.04197884,-6.261717796,0.5042873621,2024-06-05 20:43:50.625044
52.6650444,-10.5352993,-6.492924213,0.3556332588,2024-06-05 20:43:50.665044
52.7050444,-7.65015316,-6.237789631,0.3939184248,2024-06-05 20:43:50.705044
52.7450444,-4.836492538,-4.49521637,-0.06340979785,2024-06-05 20:43:50.745044
52.7850444,-5.019842625,-5.107180595,-0.3161516786,2024-06-05 20:43:50.785044
52.8250444,-10.66002464,-7.048657417,-0.6768696904,2024-06-05 20:43:50.825044
52.8650444,-10.66002464,-7.048657417,-0.6768696904,2024-06-05 20:43:50.865044
52.9050444,-10.66002464,-7.048657417,-0.6768696904,2024-06-05 20:43:50.905044
52.9450444,-10.66002464,-7.048657417,-0.6768696904,2024-06-05 20:43:50.945044
52.9850444,-10.66002464,-7.048657417,-0.6768696904,2024-06-05 20:43:50.985044
53.0250444,-6.41037178,-6.527620316,-0.07417750359,2024-06-05 20:43:51.025044
53.0650444,-5.920441628,-9.616754532,0.1112662554,2024-06-05 20:43:51.065044
53.1050444,-3.915555239,-6.822236538,-0.1100698411,2024-06-05 20:43:51.105044
53.1450444,-7.476374149,-5.769693375,-0.2826521695,2024-06-05 20:43:51.145044
53.1850444,-7.476374149,-5.769693375,-0.2826521695,2024-06-05 20:43:51.185044
53.2250444,-9.364012718,-7.154240608,0.2024926096,2024-06-05 20:43:51.225044
53.2650444,-9.469296455,-6.61166811,-1.896012783,2024-06-05 20:43:51.265044
53.3050444,-8.659625053,-5.969494343,-1.131805062,2024-06-05 20:43:51.305044
53.3450444,-8.195118904,-6.241378784,-0.432502687,2024-06-05 20:43:51.345044
53.3850444,-9.197412491,-6.221039772,-0.5449653864,2024-06-05 20:43:51.385044
53.4250444,-8.78195858,-5.1765728,-1.336690545,2024-06-05 20:43:51.425044
53.4650444,-8.402097702,-3.974179268,0.1064806059,2024-06-05 20:43:51.465044
53.5050444,-3.768097401,-3.469892025,-1.089930773,2024-06-05 20:43:51.505044
53.5450444,-1.270887971,-1.171286702,0.008374879137,2024-06-05 20:43:51.545044
53.5850444,-2.104487419,0.01674975827,0.9678967595,2024-06-05 20:43:51.585044
53.6250444,-7.537391186,-0.8467600942,1.711466432,2024-06-05 20:43:51.625044
53.6650444,-9.875477791,-1.980958104,1.939083695,2024-06-05 20:43:51.665044
53.7050444,-7.851150036,-2.123630047,1.695913076,2024-06-05 20:43:51.705044
53.7450444,-7.851150036,-2.123630047,1.695913076,2024-06-05 20:43:51.745044
53.7850444,-7.851150036,-2.123630047,1.695913076,2024-06-05 20:43:51.785044
53.8250444,-8.083553314,-5.170590401,0.3173480928,2024-06-05 20:43:51.825044
53.8650444,-8.083553314,-5.170590401,0.3173480928,2024-06-05 20:43:51.865044
53.8650444,-8.623732567,-5.279763222,0.5054838061,2024-06-05 20:43:51.865044
53.9450444,-8.598608017,-9.739984512,-0.446859628,2024-06-05 20:43:51.945044
53.9850444,-9.886245728,-10.21675491,-0.1342971772,2024-06-05 20:43:51.985044
54.0250444,-9.3807621,-7.330112934,0.003589233849,2024-06-05 20:43:52.025044
54.0650444,-8.7029953,-8.704191208,-0.4911268353,2024-06-05 20:43:52.065044
54.1050444,-6.914659023,-9.174679756,-0.09810572863,2024-06-05 20:43:52.105044
54.1450444,-7.179365158,-7.483552933,-0.3915255964,2024-06-05 20:43:52.145044
54.1850444,-6.093023777,-6.406782627,0.7989036441,2024-06-05 20:43:52.185044
54.2250444,-5.907280922,-9.580862045,-0.2982055247,2024-06-05 20:43:52.225044
54.2650444,-6.809075832,-7.979465485,0.5030909777,2024-06-05 20:43:52.265044
54.3050444,-6.809075832,-7.979465485,0.5030909777,2024-06-05 20:43:52.305044
54.3450444,-8.48973465,-7.06301403,-0.2048854381,2024-06-05 20:43:52.345044
54.3850444,-8.48973465,-7.06301403,-0.2048854381,2024-06-05 20:43:52.385044
54.4250444,-8.577073097,-9.01316452,-0.4313062727,2024-06-05 20:43:52.425044
54.4650444,-8.577073097,-9.01316452,-0.4313062727,2024-06-05 20:43:52.465044
54.5050444,-9.069396019,-4.45573473,0.3005983531,2024-06-05 20:43:52.505044
54.5450444,-9.069396019,-4.45573473,0.3005983531,2024-06-05 20:43:52.545044
54.5850444,-9.069396019,-4.45573473,0.3005983531,2024-06-05 20:43:52.585044
54.6250444,-11.60369396,-2.516352177,-0.3927220106,2024-06-05 20:43:52.625044
54.6650444,-11.60369396,-2.516352177,-0.3927220106,2024-06-05 20:43:52.665044
54.7050444,-5.490630627,-2.348854542,0.9352945685,2024-06-05 20:43:52.705044
54.7450444,-4.103391647,-3.285345554,0.6669993401,2024-06-05 20:43:52.745044
54.7850444,-4.103391647,-3.285345554,0.6669993401,2024-06-05 20:43:52.785044
54.8250444,-0.09092725813,-0.8443672657,2.073380709,2024-06-05 20:43:52.825044
54.8650444,-7.778169155,0.2706880569,0.3317050338,2024-06-05 20:43:52.865044
54.9050444,-6.976872444,-4.145266056,0.3628117442,2024-06-05 20:43:52.905044
54.9450444,-9.958030701,-5.993422508,0.4408775866,2024-06-05 20:43:52.945044
54.9850444,-11.68654537,-6.457031727,0.6960122585,2024-06-05 20:43:52.985044
55.0250444,-10.57627583,-8.400900841,0.8826524615,2024-06-05 20:43:53.025044
55.0650444,-8.49332428,-7.812865257,0.08255238086,2024-06-05 20:43:53.065044
55.1050444,-6.797111988,-6.372086525,0.1148554832,2024-06-05 20:43:53.105044
55.1450444,-6.067899227,-6.653542519,-1.050449133,2024-06-05 20:43:53.145044
55.1850444,-7.737491131,-6.301498413,0.3293122053,2024-06-05 20:43:53.185044
55.2250444,-8.945866585,-9.518648148,-1.349851131,2024-06-05 20:43:53.225044
55.2650444,-8.945866585,-9.518648148,-1.349851131,2024-06-05 20:43:53.265044
55.3050444,-8.945866585,-9.518648148,-1.349851131,2024-06-05 20:43:53.305044
55.3450444,-8.833403587,-12.80877972,0.137886405,2024-06-05 20:43:53.345044
55.3850444,-6.352943897,-9.887442589,-0.7486543655,2024-06-05 20:43:53.385044
55.4250444,-4.680660248,-6.859624386,0.6251249313,2024-06-05 20:43:53.425044
55.4650444,-6.255735874,-5.370690346,-0.6720840335,2024-06-05 20:43:53.465044
55.5050444,-6.596114635,-5.605485916,0.05982056633,2024-06-05 20:43:53.505044
55.5450444,-6.596114635,-5.605485916,0.05982056633,2024-06-05 20:43:53.545044
55.5850444,-6.596114635,-5.605485916,0.05982056633,2024-06-05 20:43:53.585044
55.6250444,-9.505488396,-8.935098648,-0.5401797295,2024-06-05 20:43:53.625044
55.6650444,-8.95902729,-6.352943897,-0.855134964,2024-06-05 20:43:53.665044
55.7050444,-9.269495964,-4.128516197,0.6634100676,2024-06-05 20:43:53.705044
55.7450444,-5.884549141,-5.235496044,0.6888338327,2024-06-05 20:43:53.745044
55.7850444,-3.323630571,-2.723630428,-0.8240283132,2024-06-05 20:43:53.785044
55.8250444,-5.055735111,-1.409671664,1.104287624,2024-06-05 20:43:53.825044
55.8650444,-8.890831947,-4.605286121,0.3305086195,2024-06-05 20:43:53.865044
55.9050444,-5.159822941,-1.614557028,1.622931957,2024-06-05 20:43:53.905044
55.9450444,-5.159822941,-1.614557028,1.622931957,2024-06-05 20:43:53.945044
55.9850444,-5.159822941,-1.614557028,1.622931957,2024-06-05 20:43:53.985044
56.0250444,-6.088238239,-3.781257868,0.4313062727,2024-06-05 20:43:54.025044
56.0650444,-6.838088989,-5.119144917,1.022931695,2024-06-05 20:43:54.065044
56.1050444,-10.84576797,-4.429413795,0.1354935765,2024-06-05 20:43:54.105044
56.1450444,-9.144769669,-5.375475883,0.1797607988,2024-06-05 20:43:54.145044
56.1850444,-6.195915222,-5.787639618,0.2395813614,2024-06-05 20:43:54.185044
56.2250444,-9.438189507,-6.460621357,-0.0933200866,2024-06-05 20:43:54.225044
56.2650444,-9.438189507,-6.460621357,-0.0933200866,2024-06-05 20:43:54.265044
56.3050444,-9.438189507,-6.460621357,-0.0933200866,2024-06-05 20:43:54.305044
56.3450444,-8.115856171,-8.571090698,-0.584446907,2024-06-05 20:43:54.345044
56.3850444,-9.106484413,-10.87089252,-0.7737790346,2024-06-05 20:43:54.385044
56.4250444,-8.100302696,-7.701598644,-0.8192426562,2024-06-05 20:43:54.425044
56.4650444,-5.206482887,-7.308577538,0.2778665423,2024-06-05 20:43:54.465044
56.5050444,-5.206482887,-7.308577538,0.2778665423,2024-06-05 20:43:54.505044
56.5450444,-5.879763603,-7.509873867,-0.5688936114,2024-06-05 20:43:54.545044
56.5850444,-7.702795029,-5.374279499,-0.7773682475,2024-06-05 20:43:54.585044
56.6250444,-7.604390144,-5.512166023,-0.2659024298,2024-06-05 20:43:54.625044
56.6650444,-7.79372263,-6.401997089,-1.165304661,2024-06-05 20:43:54.665044
56.7050444,-11.01685429,-8.704191208,-1.376172066,2024-06-05 20:43:54.705044
56.7450444,-11.802598,-7.878667831,-1.23978126,2024-06-05 20:43:54.745044
56.7850444,-11.802598,-7.878667831,-1.23978126,2024-06-05 20:43:54.785044
56.8250444,-8.671588898,-5.727519989,0.4037888348,2024-06-05 20:43:54.825044
56.8650444,-6.063113689,-4.266402721,-0.9738788009,2024-06-05 20:43:54.865044
56.9050444,-5.695217133,-2.067398787,-1.130608678,2024-06-05 20:43:54.905044
56.9450444,-6.113362789,-1.92353034,0.7486543655,2024-06-05 20:43:54.945044
56.9850444,-6.113362789,-1.92353034,0.7486543655,2024-06-05 20:43:54.985044
57.0250444,-4.375276089,-1.324726462,2.232503414,2024-06-05 20:43:55.025044
57.0650444,-5.635396481,-2.286641121,1.652842283,2024-06-05 20:43:55.065044
57.1050444,-6.775576591,-3.054138899,1.141376376,2024-06-05 20:43:55.105044
57.1450444,-6.513263226,-2.29501605,0.1244267747,2024-06-05 20:43:55.145044
57.1850444,-6.907480717,-2.086541414,-0.02871387079,2024-06-05 20:43:55.185044
57.2250444,-6.907480717,-2.086541414,-0.02871387079,2024-06-05 20:43:55.225044
57.2650444,-8.06799984,-6.244967937,0.7319046259,2024-06-05 20:43:55.265044
57.3050444,-7.615158081,-6.180361748,1.275673628,2024-06-05 20:43:55.305044
57.3450444,-9.441779137,-5.00787878,0.5724828243,2024-06-05 20:43:55.345044
57.3850444,-12.06251812,-8.592626572,-0.7115656137,2024-06-05 20:43:55.385044
57.4250444,-9.708877563,-9.439386368,-1.287637711,2024-06-05 20:43:55.425044
57.4650444,-8.530412674,-7.812865257,-1.032503009,2024-06-05 20:43:55.465044
57.5050444,-8.561519623,-7.451249599,-1.168893814,2024-06-05 20:43:55.505044
57.5450444,-7.010372162,-7.875078201,-0.6119644046,2024-06-05 20:43:55.545044
57.5850444,-6.31226635,-7.009175777,-0.2754737139,2024-06-05 20:43:55.585044
57.6250444,-6.966104984,-8.03928566,-0.3652045429,2024-06-05 20:43:55.625044
57.6650444,-6.697809696,-10.75813103,0.03110669367,2024-06-05 20:43:55.665044
57.7050444,-6.697809696,-10.75813103,0.03110669367,2024-06-05 20:43:55.705044
57.7450444,-8.103892326,-6.834499836,-0.7031907439,2024-06-05 20:43:55.745044
57.7850444,-8.103892326,-6.834499836,-0.7031907439,2024-06-05 20:43:55.785044
57.8250444,-7.512266636,-6.708577156,-1.230209947,2024-06-05 20:43:55.825044
57.8650444,-7.512266636,-6.708577156,-1.230209947,2024-06-05 20:43:55.865044
57.9050444,-9.062217712,-6.50010252,-1.394118309,2024-06-05 20:43:55.905044
57.9450444,-9.062217712,-6.50010252,-1.394118309,2024-06-05 20:43:55.945044
57.9850444,-9.062217712,-6.50010252,-1.394118309,2024-06-05 20:43:55.985044
58.0250444,-7.965108395,-3.24466753,-0.256331116,2024-06-05 20:43:56.025044
58.0650444,-7.965108395,-3.24466753,-0.256331116,2024-06-05 20:43:56.065044
58.1050444,-4.795814991,-3.874577999,-0.4636093974,2024-06-05 20:43:56.105044
58.1450444,-2.199003935,-1.511665702,0.6960122585,2024-06-05 20:43:56.145044
58.1850444,-2.199003935,-1.511665702,0.6960122585,2024-06-05 20:43:56.185044
58.2250444,-5.501398563,-3.166900873,1.129412293,2024-06-05 20:43:56.225044
58.2650444,-6.783951283,-2.419442892,1.69950223,2024-06-05 20:43:56.265044
58.3050444,-8.033304214,-3.372982502,1.0863415,2024-06-05 20:43:56.305044
58.3450444,-8.694320679,-4.616054058,0.7079764009,2024-06-05 20:43:56.345044
58.3850444,-8.126624107,-5.121537685,1.05523479,2024-06-05 20:43:56.385044
58.4250444,-10.2969141,-5.507380486,0.2635096014,2024-06-05 20:43:56.425044
58.4650444,-8.329116821,-7.079763889,-0.2647060156,2024-06-05 20:43:56.465044
58.5050444,-8.026124954,-5.048556805,0.561715126,2024-06-05 20:43:56.505044
58.5450444,-8.809475899,-8.108677864,-0.9113663435,2024-06-05 20:43:56.545044
58.5850444,-8.64526844,-8.29920578,-0.1052841991,2024-06-05 20:43:56.585044
58.6250444,-9.168698311,-8.536395073,0.3364906907,2024-06-05 20:43:56.625044
58.6650444,-10.64088249,-8.605786324,-0.2216351926,2024-06-05 20:43:56.665044
58.7050444,-10.64088249,-8.605786324,-0.2216351926,2024-06-05 20:43:56.705044
58.7450444,-10.64088249,-8.605786324,-0.2216351926,2024-06-05 20:43:56.745044
58.7850444,-5.607879162,-7.605587006,0.1088734269,2024-06-05 20:43:56.785044
58.8250444,-6.13609457,-6.169594288,-0.8072785139,2024-06-05 20:43:56.825044
58.8650444,-6.722934246,-6.632007122,0.6720840335,2024-06-05 20:43:56.865044
58.9050444,-7.975875854,-6.865606308,-1.26490593,2024-06-05 20:43:56.905044
58.9450444,-9.992726326,-8.693124771,-0.589232564,2024-06-05 20:43:56.945044
58.9850444,-9.992726326,-8.693124771,-0.589232564,2024-06-05 20:43:56.985044
59.0250444,-8.962615967,-6.726523399,0.1869392693,2024-06-05 20:43:57.025044
59.0650444,-8.852546692,-5.611468315,-0.1630110443,2024-06-05 20:43:57.065044
59.1050444,-7.66092062,-4.230510235,0.2766701281,2024-06-05 20:43:57.105044
59.1450444,-6.744469643,-3.949054718,0.4504488707,2024-06-05 20:43:57.145044
59.1850444,-9.141180992,-3.294916868,0.304187566,2024-06-05 20:43:57.185044
59.2250444,-6.524031162,-5.447260857,-0.6924230456,2024-06-05 20:43:57.225044
59.2650444,-3.783650875,-2.196611166,0.01196411345,2024-06-05 20:43:57.265044
59.3050444,-6.405586243,-2.346461773,0.1797607988,2024-06-05 20:43:57.305044
59.3450444,-3.400500059,-1.79671073,1.415653706,2024-06-05 20:43:57.345044
59.3850444,-3.400500059,-1.79671073,1.415653706,2024-06-05 20:43:57.385044
59.4250444,-5.760122299,-2.251646042,0.6526423693,2024-06-05 20:43:57.425044
59.4650444,-9.503094673,-4.459323883,0.6155536175,2024-06-05 20:43:57.465044
59.5050444,-9.503094673,-4.459323883,0.6155536175,2024-06-05 20:43:57.505044
59.5450444,-12.16780186,-5.205286503,1.475773335,2024-06-05 20:43:57.545044
59.5850444,-12.16780186,-5.205286503,1.475773335,2024-06-05 20:43:57.585044
59.6250444,-6.43549633,-6.247360706,0.907777071,2024-06-05 20:43:57.625044
59.6650444,-7.930412292,-4.078267097,0.2072782665,2024-06-05 20:43:57.665044
59.7050444,-7.930412292,-4.078267097,0.2072782665,2024-06-05 20:43:57.705044
59.7450444,-7.930412292,-4.078267097,0.2072782665,2024-06-05 20:43:57.745044
59.7850444,-7.930412292,-4.078267097,0.2072782665,2024-06-05 20:43:57.785044
59.8250444,-8.348258972,-8.326724052,-0.3352942765,2024-06-05 20:43:57.825044
59.8650444,-6.433103561,-9.12084198,0.4743770957,2024-06-05 20:43:57.865044
59.9050444,-6.235396862,-8.530412674,0.8060821295,2024-06-05 20:43:57.905044
59.9450444,-6.235396862,-8.530412674,0.8060821295,2024-06-05 20:43:57.945044
59.9850444,-5.696413517,-6.552744865,-0.2611167729,2024-06-05 20:43:57.985044
60.0250444,-4.865206718,-6.805486679,-0.1905284971,2024-06-05 20:43:58.025044
60.0650444,-12.22313595,-6.552744865,-1.838585138,2024-06-05 20:43:58.065044
60.1050444,-10.94387341,-5.798407555,-0.8347960114,2024-06-05 20:43:58.105044
60.1450444,-10.74377346,-6.865606308,-0.09212367237,2024-06-05 20:43:58.145044
60.1850444,-8.300402641,-7.770990849,-0.5916253924,2024-06-05 20:43:58.185044
60.2250444,-10.17488003,-3.941876173,-0.2730808854,2024-06-05 20:43:58.225044
60.2650444,-7.460821152,-3.594318628,0.3795614839,2024-06-05 20:43:58.265044
60.3050444,-4.191029072,-4.335794449,0.4313062727,2024-06-05 20:43:58.305044
60.3450444,-5.858228207,-2.796611547,-0.1040877849,2024-06-05 20:43:58.345044
60.3850444,-3.064906597,-1.733001828,1.165304661,2024-06-05 20:43:58.385044
60.4250444,-7.083353043,-1.569093466,2.663809776,2024-06-05 20:43:58.425044
60.4650444,-7.083353043,-1.569093466,2.663809776,2024-06-05 20:43:58.465044
60.5050444,-7.083353043,-1.569093466,2.663809776,2024-06-05 20:43:58.505044
60.5450444,-7.138687134,-2.730808735,0.3364906907,2024-06-05 20:43:58.545044
60.5850444,-7.138687134,-2.730808735,0.3364906907,2024-06-05 20:43:58.585044
60.6250444,-8.754440308,-4.941776752,0.698405087,2024-06-05 20:43:58.625044
60.6650444,-8.840581894,-4.651946545,0.8312067389,2024-06-05 20:43:58.665044
60.7050444,-6.535995007,-5.265406132,1.292423368,2024-06-05 20:43:58.705044
60.7450444,-9.181859016,-7.690831184,1.052842021,2024-06-05 20:43:58.745044
60.7850444,-11.04197884,-9.759127617,-0.8240283132,2024-06-05 20:43:58.785044
60.8250444,-9.511469841,-7.027122021,-0.005982056726,2024-06-05 20:43:58.825044
60.8650444,-10.49581718,-7.487142086,-0.1136590764,2024-06-05 20:43:58.865044
60.9050444,-9.114859581,-8.484949112,0.2216351926,2024-06-05 20:43:58.905044
60.9450444,-6.90030241,-9.80249691,0.08255238086,2024-06-05 20:43:58.945044
60.9850444,-4.601696968,-11.44337559,-0.0765703246,2024-06-05 20:43:58.985044
61.0250444,-2.911766052,-7.085746288,0.6263213158,2024-06-05 20:43:59.025044
61.0650444,-5.077270508,-5.001896858,0.6936194897,2024-06-05 20:43:59.065044
61.1050444,-9.065806389,-5.740680695,0.665802896,2024-06-05 20:43:59.105044
61.1450444,-10.49342442,-7.202096939,-0.8886345029,2024-06-05 20:43:59.145044
61.1850444,-12.05414295,-8.815457344,-0.3400799036,2024-06-05 20:43:59.185044
61.2250444,-9.291030884,-9.809675217,-0.9293124676,2024-06-05 20:43:59.225044
61.2650444,-8.858528137,-6.535995007,0.1737787426,2024-06-05 20:43:59.265044
61.3050444,-8.858528137,-6.535995007,0.1737787426,2024-06-05 20:43:59.305044
61.3450444,-8.858528137,-6.535995007,0.1737787426,2024-06-05 20:43:59.345044
61.3850444,-8.858528137,-6.535995007,0.1737787426,2024-06-05 20:43:59.385044
61.4250444,-8.858528137,-6.535995007,0.1737787426,2024-06-05 20:43:59.425044
61.4650444,-3.045764208,-2.812463999,0.94277215,2024-06-05 20:43:59.465044
