Time (s),Gyroscope x (rad/s),Gyroscope y (rad/s),Gyroscope z (rad/s),Datetime
0.025771272,-0.4400743842,-1.721017122,-0.1930734813,2024-06-05 20:42:58.025771
0.066251324,-0.7947970033,-0.8860075474,-0.6062507629,2024-06-05 20:42:58.066251
0.151289918,-0.7170349956,-1.529541492,-0.1486000121,2024-06-05 20:42:58.151290
0.191764189,-0.1821548492,-1.663228154,-0.06284874678,2024-06-05 20:42:58.191764
0.232238147,-0.3627118468,-1.746582747,-0.02050573565,2024-06-05 20:42:58.232238
0.272726637,-0.4395417869,-1.549514532,-0.07376738638,2024-06-05 20:42:58.272727
0.313206741,-0.5857450366,-0.9153015018,-0.2266283184,2024-06-05 20:42:58.313207
0.353689918,-0.4701672196,-0.3125127256,0.2669740319,2024-06-05 20:42:58.353690
0.394162574,-0.116643019,0.2591179311,1.148054838,2024-06-05 20:42:58.394163
0.434654866,-0.1941387206,0.2990641594,1.603308797,2024-06-05 20:42:58.434655
0.475135022,-0.2154433727,-0.5370106101,1.398118377,2024-06-05 20:42:58.475135
0.515611406,-0.4627105892,0.07243584841,1.644054055,2024-06-05 20:42:58.515611
0.556113542,0.4920045137,-1.151516914,2.085459948,2024-06-05 20:42:58.556114
0.596614531,1.262301087,0.6762897968,1.42208612,2024-06-05 20:42:58.596615
0.637094844,1.107842326,0.7553833723,0.2319544852,2024-06-05 20:42:58.637095
0.677566667,0.5681686401,1.174286246,0.6453980803,2024-06-05 20:42:58.677567
0.718026875,-0.07216953486,1.146590233,1.141130924,2024-06-05 20:42:58.718027
0.758495885,-0.06737598777,1.287866712,1.065765619,2024-06-05 20:42:58.758496
0.798975625,-0.1627143472,1.920215726,0.9829437733,2024-06-05 20:42:58.798976
0.83944151,-0.6262238622,2.23073101,1.287334085,2024-06-05 20:42:58.839442
0.879910729,-0.9260869622,3.547092915,2.258560419,2024-06-05 20:42:58.879911
0.920429479,-1.558968544,4.805399418,3.028058052,2024-06-05 20:42:58.920429
0.960938542,-0.863504529,2.951228142,2.886382103,2024-06-05 20:42:58.960939
1.001406094,-2.401301622,1.67587781,2.489715815,2024-06-05 20:42:59.001406
1.041876875,-2.696637392,0.2463351339,1.539927483,2024-06-05 20:42:59.041877
1.082337552,-2.147642851,-0.3769593239,0.6784203053,2024-06-05 20:42:59.082338
1.122815104,-1.553376079,0.6186341047,-0.652854681,2024-06-05 20:42:59.122815
1.163285937,-1.077749491,1.415694714,-0.394269377,2024-06-05 20:42:59.163286
1.203743958,-1.238599658,0.7668346167,-0.5447335243,2024-06-05 20:42:59.203744
1.244243125,-1.930601716,0.9404675961,-0.6264901757,2024-06-05 20:42:59.244243
1.284743333,-1.491592526,0.3946688473,-0.4999937415,2024-06-05 20:42:59.284743
1.325236146,-0.6930672526,0.7330134511,-0.7908023596,2024-06-05 20:42:59.325236
1.365699635,-0.2489982247,2.532325268,-0.3687037826,2024-06-05 20:42:59.365700
1.406181562,0.5143743753,3.007685423,0.8995893002,2024-06-05 20:42:59.406182
1.446670364,0.2026605755,2.015021324,0.37296471,2024-06-05 20:42:59.446670
1.487149948,0.7937317491,0.7876066566,0.3764267266,2024-06-05 20:42:59.487150
1.527621823,0.4416722357,-0.4509930313,0.7165023685,2024-06-05 20:42:59.527622
1.568097552,-0.4885424972,-0.4616453648,0.4073184729,2024-06-05 20:42:59.568098
1.608542292,-0.5676360726,-1.538862228,0.339409858,2024-06-05 20:42:59.608542
1.649049792,-0.5511249304,-1.627542853,0.8649691939,2024-06-05 20:42:59.649050
1.689555885,-1.291861296,-1.364696622,0.3940030634,2024-06-05 20:42:59.689556
1.730049167,-1.849377632,-2.774532557,0.634745717,2024-06-05 20:42:59.730049
1.770530312,-2.564814806,-2.633389235,0.8483249545,2024-06-05 20:42:59.770530
1.81100776,-2.649234533,-2.021279573,0.5657718778,2024-06-05 20:42:59.811008
1.851459583,-2.376534939,-2.149640322,0.6121095419,2024-06-05 20:42:59.851460
1.891950677,-0.8366073966,-0.7608426809,0.7151708007,2024-06-05 20:42:59.891951
1.932478646,-0.5649729371,0.2985315621,0.7966611385,2024-06-05 20:42:59.932479
1.972921458,-0.5197005868,0.4862788618,0.6680342555,2024-06-05 20:42:59.972921
2.013372292,-0.1174419373,0.8382052183,0.2388785034,2024-06-05 20:43:00.013372
2.053852344,0.2850829959,1.404509783,-0.1086537689,2024-06-05 20:43:00.053852
2.094325417,1.001052737,0.3936035931,0.4659062922,2024-06-05 20:43:00.094325
2.134868021,0.9355409145,0.1501978636,0.4224980474,2024-06-05 20:43:00.134868
2.175341042,0.3079854846,0.02063889056,-0.1190397888,2024-06-05 20:43:00.175341
2.215787708,0.3740299344,-0.1545919478,-0.1858831644,2024-06-05 20:43:00.215788
2.256269375,0.4011933804,-0.5133091807,-0.2995967865,2024-06-05 20:43:00.256269
2.296757604,0.3300890923,-0.3881442845,-0.09001219273,2024-06-05 20:43:00.296758
2.337259114,0.5862776041,-0.4296883643,-0.01038602181,2024-06-05 20:43:00.337259
2.377739792,0.6904041767,-0.6154384017,-0.6091801524,2024-06-05 20:43:00.377740
2.418195364,0.6848116517,-0.9187634587,-0.511977613,2024-06-05 20:43:00.418195
2.458692552,0.8350095153,-0.8463276625,0.04260931909,2024-06-05 20:43:00.458693
2.499152917,0.2215684652,-1.253646135,-0.07483261824,2024-06-05 20:43:00.499153
2.539647812,-0.04553871229,-0.5271571875,-0.3979976773,2024-06-05 20:43:00.539648
2.580103177,0.5157059431,-0.121836029,-0.2684387267,2024-06-05 20:43:00.580103
2.620583802,0.7340787053,-0.4736292362,-0.5543206334,2024-06-05 20:43:00.620584
2.661068542,0.9616391063,-0.07762885839,-0.802786231,2024-06-05 20:43:00.661069
2.701569427,0.6912030578,0.1744319052,-0.7018554211,2024-06-05 20:43:00.701569
2.742065364,0.4688356817,0.3802881837,-0.7372744083,2024-06-05 20:43:00.742065
2.782542917,0.480286926,0.9505873322,-0.9957265854,2024-06-05 20:43:00.782543
2.823014219,0.5830819011,1.09812212,-1.241262794,2024-06-05 20:43:00.823014
2.863494531,0.7583127618,1.035007,-0.9856068492,2024-06-05 20:43:00.863495
2.903974896,1.229012609,1.760830164,-1.398917317,2024-06-05 20:43:00.903975
2.944455312,0.8955946565,2.261090279,-2.234592676,2024-06-05 20:43:00.944455
2.984922812,0.8275529146,2.368678808,-2.297441244,2024-06-05 20:43:00.984923
3.025394427,0.09933298081,2.059494972,-2.334191799,2024-06-05 20:43:01.025394
3.065909271,-0.2700365782,1.32115531,-1.603042603,2024-06-05 20:43:01.065909
3.10635125,-0.8941299915,1.372819066,-1.439129829,2024-06-05 20:43:01.106351
3.146881927,-0.609446466,3.002093077,-2.56135273,2024-06-05 20:43:01.146882
3.187314844,-0.9686962962,2.242714882,-1.79877913,2024-06-05 20:43:01.187315
3.227795208,-3.29729557,1.784531593,-0.8169005513,2024-06-05 20:43:01.227795
3.268284635,-3.87664938,2.537917614,-0.7902697325,2024-06-05 20:43:01.268285
3.308742708,0.414242506,2.270144701,-1.274284959,2024-06-05 20:43:01.308743
3.349224167,1.729805231,-0.8055824637,1.254844546,2024-06-05 20:43:01.349224
3.389705,1.351514339,0.5938674212,0.2098509073,2024-06-05 20:43:01.389705
3.430194114,1.786262631,0.05752258375,1.011438727,2024-06-05 20:43:01.430194
3.470674531,2.12940073,-1.047390342,1.499448657,2024-06-05 20:43:01.470675
3.511134948,2.117683172,0.4676373005,0.211981371,2024-06-05 20:43:01.511135
3.551639479,1.193060994,1.041398406,-0.7700303197,2024-06-05 20:43:01.551639
3.592107604,-0.07296846062,-1.911560655,1.583602071,2024-06-05 20:43:01.592108
3.632601719,-0.6493926644,0.6951977015,-1.556838036,2024-06-05 20:43:01.632602
3.673130833,0.8527190089,2.423271894,-2.678262234,2024-06-05 20:43:01.673131
3.713612239,1.100385666,-0.9941287041,-1.264431596,2024-06-05 20:43:01.713612
3.754093437,0.6286206245,0.2242315561,-0.5916038156,2024-06-05 20:43:01.754093
3.794502083,0.05352795869,0.7990579009,-0.05539211631,2024-06-05 20:43:01.794502
3.834983594,-0.008788172156,-0.7802832127,-0.2207695395,2024-06-05 20:43:01.834984
3.875466667,-0.6027887464,-1.553509235,-1.386667132,2024-06-05 20:43:01.875467
3.915969271,-0.2897433937,-1.930734873,-1.449782133,2024-06-05 20:43:01.915969
3.95647651,-0.3422061205,0.2987978756,-0.7577801347,2024-06-05 20:43:01.956477
3.996938594,-0.2593842447,0.04473978654,-0.04260931909,2024-06-05 20:43:01.996939
4.037429271,-0.4888088107,1.297720075,-0.2612484097,2024-06-05 20:43:02.037429
4.077900312,-0.02796236612,0.4623111188,0.01384802908,2024-06-05 20:43:02.077900
4.118365885,0.3577851355,-0.5026568174,-0.3264939189,2024-06-05 20:43:02.118366
4.158850729,0.4967980385,0.071104303,-1.234871387,2024-06-05 20:43:02.158851
4.199320417,0.09693620354,0.1339530498,-0.7588453889,2024-06-05 20:43:02.199320
4.239814427,-0.2918738425,0.1336867511,-0.7484593391,2024-06-05 20:43:02.239814
4.280309427,-0.4853467941,0.240476355,-0.7186328173,2024-06-05 20:43:02.280309
4.320774219,-0.5804188251,-0.1750976741,-1.004781008,2024-06-05 20:43:02.320774
4.361259635,-0.2292914093,0.1256974936,-0.5002600551,2024-06-05 20:43:02.361260
4.401718958,0.04367455468,0.9103747606,0.09001219273,2024-06-05 20:43:02.401719
4.442218958,0.1949376464,-0.6141068339,-0.9125052094,2024-06-05 20:43:02.442219
4.482695208,0.7114425302,-3.605547428,-1.640591979,2024-06-05 20:43:02.482695
4.523167656,0.9864057899,-2.923132658,-0.04553871229,2024-06-05 20:43:02.523168
4.563647812,0.4784227908,-1.532470822,-0.6752246022,2024-06-05 20:43:02.563648
4.604128021,0.5002600551,0.3805544972,-0.6318163276,2024-06-05 20:43:02.604128
4.644610469,0.1970681101,-1.276015997,0.3700353205,2024-06-05 20:43:02.644610
4.685060312,0.941666007,-0.6372756362,0.3495295942,2024-06-05 20:43:02.685060
4.725540677,0.4880098701,0.5214315653,0.3292901516,2024-06-05 20:43:02.725541
4.766052448,0.6744256616,0.6611102223,-0.263112545,2024-06-05 20:43:02.766052
4.806550417,0.1501978636,2.44004941,-0.6690995097,2024-06-05 20:43:02.806550
4.847015156,0.1051917598,2.09198451,1.754305601,2024-06-05 20:43:02.847015
4.88749125,0.2557890713,2.592244625,1.966020703,2024-06-05 20:43:02.887491
4.927940156,0.1113168523,0.8030525446,0.3319532275,2024-06-05 20:43:02.927940
4.968449792,0.8617734909,-2.207429171,-0.9850742221,2024-06-05 20:43:02.968450
5.008932708,1.047390342,-1.61768949,-0.8837439418,2024-06-05 20:43:03.008933
5.049400521,0.8838770986,-0.7416685224,0.7306166887,2024-06-05 20:43:03.049401
5.08988651,0.9150351882,-0.05153064802,0.8467270732,2024-06-05 20:43:03.089887
5.130366562,1.049254537,-0.1695052087,-0.2492645234,2024-06-05 20:43:03.130367
5.170872917,0.3737636507,0.3914731443,0.07989247888,2024-06-05 20:43:03.170873
5.211345469,0.1033276021,-0.1047922969,0.4589822888,2024-06-05 20:43:03.211345
5.251822083,-0.2591179311,0.008921326138,0.2202369273,2024-06-05 20:43:03.251822
5.292309531,-0.4480636418,0.4681699276,0.2173075378,2024-06-05 20:43:03.292310
5.332791667,-0.6765561104,1.531538725,-0.8784177899,2024-06-05 20:43:03.332792
5.373272031,-1.047922969,2.031532526,-1.762028575,2024-06-05 20:43:03.373272
5.413752448,-0.2183727771,1.164432883,-0.7159697413,2024-06-05 20:43:03.413752
5.454176198,-0.1685731262,0.6322157979,-0.284417212,2024-06-05 20:43:03.454176
5.494665677,-0.8097102642,0.4772244096,-0.8248898387,2024-06-05 20:43:03.494666
5.535259375,-0.6517894268,-0.5681686401,-0.2777595222,2024-06-05 20:43:03.535259
5.57563875,-1.423417687,0.4420717061,-0.2471340597,2024-06-05 20:43:03.575639
5.616160833,-0.394269377,0.7090457082,-0.77748698,2024-06-05 20:43:03.616161
5.656609219,-0.6171693802,0.2439383566,-0.7484593391,2024-06-05 20:43:03.656609
5.697073333,-0.8081123829,0.6893389225,-0.4035901725,2024-06-05 20:43:03.697073
5.737578437,-1.033009768,1.381873488,0.1826874614,2024-06-05 20:43:03.737578
5.778075156,-0.5985277891,1.406107545,-0.2833519876,2024-06-05 20:43:03.778075
5.818555521,-1.937525749,1.750976801,0.9270190597,2024-06-05 20:43:03.818556
5.858998073,-1.120092511,-1.013302922,-0.1379476786,2024-06-05 20:43:03.858998
5.899527604,-0.4379439354,0.528621912,-0.9818785191,2024-06-05 20:43:03.899528
5.939958073,-0.08042509109,0.2215684652,-2.246576548,2024-06-05 20:43:03.939958
5.980465312,0.14993155,0.01105179265,-3.507013321,2024-06-05 20:43:03.980465
6.020931302,0.6816160083,0.2221010923,-2.298772812,2024-06-05 20:43:04.020931
6.061403437,1.515693426,0.4359466136,0.7332797647,2024-06-05 20:43:04.061403
6.101916875,-0.3752283454,0.2322207987,1.695717812,2024-06-05 20:43:04.101917
6.142359844,-0.5388747454,0.352858454,1.731669426,2024-06-05 20:43:04.142360
6.182832292,0.208785668,-0.01797580719,0.03754946589,2024-06-05 20:43:04.182832
6.223312604,0.02796236612,0.4165061116,-0.02130465955,2024-06-05 20:43:04.223313
6.263791979,-0.0074566314,-0.1521951705,-0.03648423031,2024-06-05 20:43:04.263792
6.304271771,0.1137136221,-0.01611164957,0.04207670316,2024-06-05 20:43:04.304272
6.344767239,0.005858781748,-0.09600412846,0.1086537689,2024-06-05 20:43:04.344767
6.385242396,0.06870753318,-0.1567224115,0.1035939083,2024-06-05 20:43:04.385242
6.42572625,-0.009320789017,-0.1902772486,0.1595186442,2024-06-05 20:43:04.425726
6.466206146,0.1198387146,-0.1575213373,0.1139799356,2024-06-05 20:43:04.466206
6.506698333,0.09587097168,-0.2070546746,-0.1999974996,2024-06-05 20:43:04.506698
6.547198177,-0.02183727734,-0.1394123733,-0.2892107666,2024-06-05 20:43:04.547198
6.587658385,-0.1185071766,-0.146070078,-0.3038577139,2024-06-05 20:43:04.587658
6.628131927,-0.3027924895,-0.2067883611,-0.2327534109,2024-06-05 20:43:04.628132
6.668624479,-0.4621779919,-0.4467321038,-0.3549889028,2024-06-05 20:43:04.668624
6.709064375,-0.3366136253,-0.5050535798,-0.2138455361,2024-06-05 20:43:04.709064
6.749594167,-0.1938724071,-0.3117138147,0.05885412544,2024-06-05 20:43:04.749594
6.790052344,-0.1789591461,-0.07603100687,0.1720351279,2024-06-05 20:43:04.790052
6.830556667,-0.006391398143,-0.01318225823,0.1707035899,2024-06-05 20:43:04.830557
6.871032812,0.07935985923,0.01078548469,0.2197043151,2024-06-05 20:43:04.871033
6.911508437,0.172567755,-0.1804238409,0.270169735,2024-06-05 20:43:04.911508
6.951973385,0.3111811876,-0.02489982173,0.02902759984,2024-06-05 20:43:04.951973
6.992467812,0.3002625704,0.04047885537,-0.0977351293,2024-06-05 20:43:04.992468
7.032958958,0.1270290315,0.09161003679,-0.1398118287,2024-06-05 20:43:05.032959
7.073444896,0.1081211492,0.02995967865,-0.1866820902,2024-06-05 20:43:05.073445
7.113925104,0.233951807,0.1446053833,-0.268971324,2024-06-05 20:43:05.113925
7.154405312,0.1051917598,-0.02276935615,-0.1882799417,2024-06-05 20:43:05.154405
7.194844896,-0.02450035885,-0.2914743721,-0.2085193694,2024-06-05 20:43:05.194845
7.235332708,-0.1661763489,-0.3351489305,-0.172567755,2024-06-05 20:43:05.235333
7.275828021,-0.3677717149,-0.497064352,-0.08761541545,2024-06-05 20:43:05.275828
7.316305573,-0.3822855055,-0.515173316,-0.0181089621,2024-06-05 20:43:05.316306
7.356794323,-0.3533910513,-0.5718969703,0.1097190008,2024-06-05 20:43:05.356794
7.397284062,-0.2226337045,-0.4129109383,0.1837527007,2024-06-05 20:43:05.397284
7.437731302,-0.1901440918,-0.3657743931,0.1470021605,2024-06-05 20:43:05.437731
7.478216146,-0.195203945,-0.3098496497,0.03621792421,2024-06-05 20:43:05.478216
7.518706719,-0.1339530498,-0.3359478712,-0.03435376659,2024-06-05 20:43:05.518707
7.559195312,-0.005326164886,-0.3125127256,-0.07909355313,2024-06-05 20:43:05.559195
7.59969151,-0.002663082443,-0.1774944514,-0.09666989744,2024-06-05 20:43:05.599692
7.640183177,-0.06338136643,-0.3591166735,-0.1214365661,2024-06-05 20:43:05.640183
7.680668229,-0.07563154399,-0.09840089828,-0.2668408751,2024-06-05 20:43:05.680668
7.721136146,-0.03967992961,-0.2792242169,0.04127778113,2024-06-05 20:43:05.721136
7.761586042,0.01757634431,-0.2366148829,0.1283605844,2024-06-05 20:43:05.761586
7.802057917,0.03701684624,-0.3718994856,0.3151758313,2024-06-05 20:43:05.802058
7.842548698,-0.1062569916,-0.5133091807,0.1789591461,2024-06-05 20:43:05.842549
7.883038333,-0.1560566425,-0.5319507122,0.0260982085,2024-06-05 20:43:05.883038
7.923495417,-0.1416759938,-0.5372769237,0.07030537724,2024-06-05 20:43:05.923495
7.96395625,-0.1629806459,-0.4704335332,0.05139749497,2024-06-05 20:43:05.963956
8.004432552,-0.1656437367,-0.4901403487,0.05565842614,2024-06-05 20:43:06.004433
8.044945573,-0.181622237,-0.5170374513,0.04979964346,2024-06-05 20:43:06.044946
8.085449219,-0.1864157766,-0.4677704573,0.007722939365,2024-06-05 20:43:06.085449
8.125923278,-0.2114487588,-0.4533897936,0.1126483902,2024-06-05 20:43:06.125923
8.166368903,-0.2607157826,-0.5917369723,0.163513273,2024-06-05 20:43:06.166369
8.206842288,-0.290275991,-0.6122426987,0.1448716968,2024-06-05 20:43:06.206842
8.247327809,-0.272167027,-0.6774882078,0.1893451661,2024-06-05 20:43:06.247328
8.287860986,-0.2263620198,-0.5737611651,0.2037258148,2024-06-05 20:43:06.287861
8.328331871,-0.1608501822,-0.5721632838,0.2428731322,2024-06-05 20:43:06.328332
8.368813017,-0.2340849638,-0.6029219031,0.2252967805,2024-06-05 20:43:06.368813
8.409289476,-0.3323526978,-0.6202319264,0.1723014414,2024-06-05 20:43:06.409289
8.449763121,-0.3294233084,-0.5420704484,0.1890788674,2024-06-05 20:43:06.449763
8.490226819,-0.2633788586,-0.6069164872,0.2367480397,2024-06-05 20:43:06.490227
8.530704684,-0.2271609455,-0.4653736651,0.2459356785,2024-06-05 20:43:06.530705
8.571212288,-0.1928071827,-0.5484618545,0.2026605755,2024-06-05 20:43:06.571212
8.611685986,-0.4256937504,-0.6870753169,-0.1968017966,2024-06-05 20:43:06.611686
8.652170361,-0.4501941204,-0.3247629106,-0.05113118514,2024-06-05 20:43:06.652170
8.692657236,-0.2215684652,-0.7286193967,-0.08495233208,2024-06-05 20:43:06.692657
8.733142392,-0.1334204376,-0.3117138147,0.2367480397,2024-06-05 20:43:06.733142
8.773591871,-0.1573881805,-0.3303554058,0.1786928326,2024-06-05 20:43:06.773592
8.814055257,-0.3640433848,-0.6007914543,0.1379476786,2024-06-05 20:43:06.814055
8.854521871,-0.5263582468,-0.8718932271,0.1496652365,2024-06-05 20:43:06.854522
8.895016403,-0.4781564772,-0.6617760062,0.2181064636,2024-06-05 20:43:06.895016
8.935550934,-0.3797555864,-0.6548519731,0.4792217016,2024-06-05 20:43:06.935551
8.975985413,-0.2306229472,-0.1772281379,0.2159759998,2024-06-05 20:43:06.975985
9.016522549,-0.4222317338,-0.1945381761,0.4358134568,2024-06-05 20:43:07.016523
9.056951246,-0.05299534276,0.6459306479,0.7697640061,2024-06-05 20:43:07.056951
9.097429007,-0.1280942708,-0.3010614812,0.820895195,2024-06-05 20:43:07.097429
9.137908382,-0.3520595133,-0.5255593657,0.4507267177,2024-06-05 20:43:07.137908
9.178403486,-0.2380795777,-0.5748263597,-0.5442008972,2024-06-05 20:43:07.178403
9.21888333,-0.3725652397,-0.2541912198,-0.4304873049,2024-06-05 20:43:07.218883
9.259333486,-0.4552539587,-0.3367467821,-0.7721607685,2024-06-05 20:43:07.259333
9.299885517,-0.3374125659,-0.7720276117,-0.7620410919,2024-06-05 20:43:07.299886
9.340333121,-0.4256937504,0.7133066654,-0.5663045049,2024-06-05 20:43:07.340333
9.380799007,-0.2053236663,0.3784240186,0.1611164957,2024-06-05 20:43:07.380799
9.421308642,0.02023942769,0.4953333437,0.2435389012,2024-06-05 20:43:07.421309
9.461788486,0.1462032348,0.3187709749,0.6158378124,2024-06-05 20:43:07.461788
9.502252132,0.1368824393,-0.1135804728,0.7559159994,2024-06-05 20:43:07.502252
9.542741559,0.08814803511,-0.2318213433,0.8110417724,2024-06-05 20:43:07.542742
9.583226194,-0.1203713343,-0.7898702621,0.9382039905,2024-06-05 20:43:07.583226
9.62370609,-0.05272903293,-0.8180989623,0.7111762166,2024-06-05 20:43:07.623706
9.664147601,-0.1275616586,-0.5805519819,0.4328840673,2024-06-05 20:43:07.664148
9.704627392,-0.1917419434,-0.2368811965,0.1475347728,2024-06-05 20:43:07.704627
9.745081351,0.03648423031,0.3525921404,0.2677729428,2024-06-05 20:43:07.745081
9.785618851,-0.3536573648,0.06471290439,0.05166380107,2024-06-05 20:43:07.785619
9.826091194,0.1936061084,0.04553871229,0.4438027143,2024-06-05 20:43:07.826091
9.866580361,0.3857475221,0.2774932086,0.3924052119,2024-06-05 20:43:07.866580
9.907032444,0.6291532516,0.5627093315,0.6398055553,2024-06-05 20:43:07.907032
9.947514371,0.1515294015,0.5928021669,0.6323489547,2024-06-05 20:43:07.947514
9.988005934,0.4145087898,0.2143781483,0.6914693713,2024-06-05 20:43:07.988006
10.02846651,0.4003944695,0.09480573982,0.8710942864,2024-06-05 20:43:08.028467
10.06898448,0.424628526,-0.08055824786,0.9496552348,2024-06-05 20:43:08.068984
10.1094264,0.2539249361,0.1536598653,0.6376751065,2024-06-05 20:43:08.109426
10.14993099,0.071104303,0.2213021666,0.5569837093,2024-06-05 20:43:08.149931
10.19039479,0.2318213433,0.1659100503,0.8440639973,2024-06-05 20:43:08.190395
10.23090312,0.06790860742,0.01744319126,1.032743454,2024-06-05 20:43:08.230903
10.27135963,0.03328853101,0.137681365,0.8982577324,2024-06-05 20:43:08.271360
10.31183619,0.05619104207,0.1898777932,0.5569837093,2024-06-05 20:43:08.311836
10.35234328,0.03754946589,-0.008921326138,0.7220948339,2024-06-05 20:43:08.352343
10.39279854,0.1443390697,-0.2163754553,0.7817478776,2024-06-05 20:43:08.392799
10.43326599,0.3183715343,-0.4778901637,0.6951977015,2024-06-05 20:43:08.433266
10.47374599,0.2962679267,-0.4616453648,0.7340787053,2024-06-05 20:43:08.473746
10.51423437,0.345801264,-0.2358159572,0.6688331962,2024-06-05 20:43:08.514234
10.55471437,0.4203675687,-0.4714987576,0.6967955232,2024-06-05 20:43:08.554714
10.59520666,0.6320826411,-0.2994636297,0.7090457082,2024-06-05 20:43:08.595207
10.63566385,0.8121070266,-0.2121145278,0.53328228,2024-06-05 20:43:08.635664
10.67614937,0.9398018122,-0.151928857,0.6054518223,2024-06-05 20:43:08.676149
10.71662802,0.9147688746,-0.04194355011,0.07749570161,2024-06-05 20:43:08.716628
10.75711161,0.8145037889,-0.1620485783,0.01837527007,2024-06-05 20:43:08.757112
10.79760224,0.9086437821,0.5392742157,0.2581858635,2024-06-05 20:43:08.797602
10.83809875,0.5894733071,0.7053174376,0.08921326697,2024-06-05 20:43:08.838099
10.87857567,0.2299571782,0.496398598,-0.2572537661,2024-06-05 20:43:08.878576
10.91904073,0.05619104207,0.272167027,-0.3126458824,2024-06-05 20:43:08.919041
10.95950604,-0.2444709837,0.03914731368,-0.3963998258,2024-06-05 20:43:08.959506
11.00000531,-0.4888088107,-0.08002562821,-0.6169030666,2024-06-05 20:43:09.000005
11.04048593,-0.6435338855,-0.1109173894,-0.6363435984,2024-06-05 20:43:09.040486
11.08098244,-0.7420679331,-0.1756303012,-0.7710955739,2024-06-05 20:43:09.080982
11.1214325,-0.7133066654,-0.003861469682,-0.5468640327,2024-06-05 20:43:09.121432
11.16191546,-0.6387403607,-0.1436733007,-0.6701647043,2024-06-05 20:43:09.161915
11.20240062,-0.5071840882,0.1272953451,-1.002117991,2024-06-05 20:43:09.202401
11.24288046,-0.3291569948,0.1784265339,-1.061238408,2024-06-05 20:43:09.242880
11.28334177,-0.1792254597,0.4468652606,-1.145391822,2024-06-05 20:43:09.283342
11.32382198,-0.1272953451,0.8222267628,-1.374683261,2024-06-05 20:43:09.323822
11.36430229,0.02796236612,0.6973281503,-1.517158151,2024-06-05 20:43:09.364302
11.4047939,-0.107588537,0.9164998531,-1.414629459,2024-06-05 20:43:09.404794
11.44527979,-0.1203713343,0.3603150845,-1.436999321,2024-06-05 20:43:09.445280
11.48576244,-0.3286243975,0.6858769059,-1.448184252,2024-06-05 20:43:09.485762
11.52623968,-0.6491263509,0.0977351293,-1.022091031,2024-06-05 20:43:09.526240
11.56672547,-0.5620435476,-0.2773600519,-1.133674264,2024-06-05 20:43:09.566725
11.60723458,-0.3886769116,-0.2043915838,-0.674159348,2024-06-05 20:43:09.607235
11.64769729,-0.4030575454,-0.7382065058,-0.3150426745,2024-06-05 20:43:09.647697
11.68815323,-0.1105179265,-0.1636464298,-0.2338186502,2024-06-05 20:43:09.688153
11.72863297,0.273365438,-0.551923871,0.5101134777,2024-06-05 20:43:09.728633
11.76912729,0.1003982127,-0.2278267145,1.297187567,2024-06-05 20:43:09.769127
11.80960229,0.0146469539,-0.09813459218,0.7090457082,2024-06-05 20:43:09.809602
11.85009849,-0.08122401685,-0.659911871,0.5420704484,2024-06-05 20:43:09.850098
11.89057828,-0.3083849549,-0.8362079263,0.747127831,2024-06-05 20:43:09.890578
11.93102026,-0.08548495173,-0.08029194176,0.6635070443,2024-06-05 20:43:09.931020
11.97153494,0.1464695334,-0.1513962448,0.3828181326,2024-06-05 20:43:09.971535
12.01200875,-0.1113168523,-0.1050586104,0.1403444558,2024-06-05 20:43:10.012009
12.05248531,0.1123820841,-0.04087831825,0.3958672285,2024-06-05 20:43:10.052485
12.09299218,0.2053236663,0.04953333735,0.6656374931,2024-06-05 20:43:10.092992
12.13347703,0.1230344176,-0.1466026902,0.7559159994,2024-06-05 20:43:10.133477
12.17395364,0.1675078869,0.2601831555,0.9975907207,2024-06-05 20:43:10.173954
12.21443354,0.1318225861,0.7945306897,0.9888025522,2024-06-05 20:43:10.214434
12.25491573,-0.006391398143,0.204258427,1.054847002,2024-06-05 20:43:10.254916
12.29538093,0.0977351293,-0.5543206334,1.097988963,2024-06-05 20:43:10.295381
12.33587781,0.03275591508,-0.5271571875,0.7876066566,2024-06-05 20:43:10.335878
12.37634672,0.08042509109,-0.4539224207,0.6935998797,2024-06-05 20:43:10.376347
12.41679755,0.03515268862,-0.1351514459,0.8243572116,2024-06-05 20:43:10.416798
12.45730948,0.08947957307,-0.3543231487,0.9371387362,2024-06-05 20:43:10.457309
12.49777666,0.1486000121,-0.1447385401,0.935274601,2024-06-05 20:43:10.497777
12.53825739,0.05539211631,-0.2619141638,0.9576444626,2024-06-05 20:43:10.538257
12.57874317,0.1254311949,-0.4962654412,0.7836120725,2024-06-05 20:43:10.578743
12.61924125,0.1853505522,-0.9011871219,0.8121070266,2024-06-05 20:43:10.619241
12.65968109,0.1645784974,-0.7398043275,0.77748698,2024-06-05 20:43:10.659681
12.70016119,0.1025286764,-0.05286218971,0.6459306479,2024-06-05 20:43:10.700161
12.74066453,0.09027849883,0.336081028,0.585478723,2024-06-05 20:43:10.740665
12.78115838,-0.04340824485,0.1078548431,0.2696371078,2024-06-05 20:43:10.781158
12.82164739,-0.2039921284,-0.1607170254,-0.336081028,2024-06-05 20:43:10.821647
12.86210088,-0.3201025128,-0.112781547,-0.8235582709,2024-06-05 20:43:10.862101
12.90257302,-0.5284887552,-0.0731016174,-1.022623658,2024-06-05 20:43:10.902573
12.9430439,-0.6320826411,0.4167724252,-1.17495203,2024-06-05 20:43:10.943044
12.98352401,-0.6845453978,0.1504641622,-1.334204316,2024-06-05 20:43:10.983524
13.02400411,-0.7668346167,-0.1213034093,-1.347519755,2024-06-05 20:43:11.024004
13.06448416,-0.7015891075,-0.1604507267,-1.440727711,2024-06-05 20:43:11.064484
13.10496427,-0.6033213735,0.1350182891,-1.619553685,2024-06-05 20:43:11.104964
13.14545453,-0.5399399996,0.4772244096,-1.775344014,2024-06-05 20:43:11.145455
13.18596203,-0.542336762,0.3240971565,-1.779871225,2024-06-05 20:43:11.185962
13.2264427,-0.4941349626,0.3776251078,-1.416493654,2024-06-05 20:43:11.226443
13.26692609,-0.4318188429,0.2900096774,-1.346720815,2024-06-05 20:43:11.266926
13.30739687,-0.4949339032,-0.2051905096,-1.212235212,2024-06-05 20:43:11.307397
13.34785026,-0.2370143533,0.1025286764,-0.8664339185,2024-06-05 20:43:11.347850
13.38833666,-0.270835489,-0.04114462435,-0.3608476818,2024-06-05 20:43:11.388337
13.42883536,-0.06844121963,0.0977351293,-0.2713681161,2024-06-05 20:43:11.428835
13.46928619,-0.1033276021,-0.1258306503,0.3524589837,2024-06-05 20:43:11.469286
13.50979369,-0.3945356905,-0.5367442966,0.5756253004,2024-06-05 20:43:11.509794
13.55027651,-0.4579170346,-0.6322157979,0.3111811876,2024-06-05 20:43:11.550277
13.59074416,-0.3523258269,-0.7523208261,0.7652367949,2024-06-05 20:43:11.590744
13.63123114,-0.164844811,-0.233951807,0.8326127529,2024-06-05 20:43:11.631231
13.67168531,0.1794917583,0.1126483902,0.8019872904,2024-06-05 20:43:11.671685
13.71216515,0.04234301299,-0.2182396203,0.6336805224,2024-06-05 20:43:11.712165
13.75270937,0.1587197185,-0.3556546867,0.3279586136,2024-06-05 20:43:11.752709
13.79317505,0.002929390874,0.2194380015,0.6704310179,2024-06-05 20:43:11.793175
13.83365505,-0.1155777797,-0.1074553803,0.8246235251,2024-06-05 20:43:11.833655
13.874135,-0.2005301118,-0.8023867607,0.7426005602,2024-06-05 20:43:11.874135
13.91461494,-0.08042509109,-0.4390091598,0.7218285203,2024-06-05 20:43:11.914615
13.9550451,0.1848179251,-0.2403431982,0.8145037889,2024-06-05 20:43:11.955045
13.99554713,0.3873453438,-0.3319532275,0.9411333799,2024-06-05 20:43:11.995547
14.03601677,0.4227643609,-0.3386109471,0.8756215572,2024-06-05 20:43:12.036017
14.07652104,0.5508586168,-0.4975969791,0.8657681346,2024-06-05 20:43:12.076521
14.11699109,0.6358109713,-0.4041227698,0.9587097168,2024-06-05 20:43:12.116991
14.1574613,0.5764242411,-0.2898765504,0.9166330099,2024-06-05 20:43:12.157461
14.19796255,0.4573844373,-0.6074491143,0.9089100957,2024-06-05 20:43:12.197963
14.23842984,0.3388772607,0.7969274521,0.8318138123,2024-06-05 20:43:12.238430
14.27889099,0.2379464209,0.2758953571,0.5766905546,2024-06-05 20:43:12.278891
14.31938547,-0.03115806542,-0.09280842543,0.06444659829,2024-06-05 20:43:12.319385
14.35987203,-0.1217028722,0.1957365721,-0.2037258148,2024-06-05 20:43:12.359872
14.40036396,-0.04314193875,0.8941299915,-0.4888088107,2024-06-05 20:43:12.400364
14.44083828,-0.2412752807,0.8472597003,-0.7005238533,2024-06-05 20:43:12.440838
14.48127666,-0.4989285171,1.588528752,-0.860308826,2024-06-05 20:43:12.481277
14.52177432,-0.6376751065,1.707035899,-1.308372498,2024-06-05 20:43:12.521774
14.56226958,-0.594533205,1.103448272,-1.637130022,2024-06-05 20:43:12.562270
14.60275979,-0.4600475132,1.465760589,-1.986792803,2024-06-05 20:43:12.602760
14.6432701,-0.3027924895,0.8746894598,-2.307827234,2024-06-05 20:43:12.643270
14.6836663,-0.0410114713,0.7681661844,-2.133528709,2024-06-05 20:43:12.683666
14.72414578,0.07829462737,0.422098577,-2.152969122,2024-06-05 20:43:12.724146
14.76462536,0.2693707943,0.01504641678,-2.016086578,2024-06-05 20:43:12.764625
14.80511213,0.2480661422,-0.2414084375,-1.808898807,2024-06-05 20:43:12.805112
14.84561437,0.142208606,-0.4331503808,-1.11183691,2024-06-05 20:43:12.845614
14.88610177,0.05858781561,-0.3109148741,-0.497064352,2024-06-05 20:43:12.886102
14.92659885,-0.1696383655,-0.5431357026,-0.143540144,2024-06-05 20:43:12.926599
14.96707932,-0.1169093251,-0.5705654621,0.2904091477,2024-06-05 20:43:12.967079
15.00761323,-0.272167027,-0.5951989293,0.8841434121,2024-06-05 20:43:13.007613
15.04805,-0.3900084496,-1.00052011,0.5383421183,2024-06-05 20:43:13.048050
15.08851474,-0.2945369184,-0.8788172603,0.5087819099,2024-06-05 20:43:13.088515
15.12899119,0.07935985923,-0.386546433,1.095325828,2024-06-05 20:43:13.128991
15.16947021,0.2920069993,0.1765623689,1.398917317,2024-06-05 20:43:13.169470
15.20995229,0.3814865649,0.1019960642,0.8902685046,2024-06-05 20:43:13.209952
15.25042531,0.4722976983,-0.001997311832,0.597995162,2024-06-05 20:43:13.250425
15.29091625,0.2066552043,0.237813279,0.9211602807,2024-06-05 20:43:13.290916
15.33139927,0.1850842386,0.1619154215,1.104912996,2024-06-05 20:43:13.331399
15.37186765,-0.06178351492,0.1944050342,1.379476786,2024-06-05 20:43:13.371868
15.41234099,0.1248985752,-0.4936023653,1.496785522,2024-06-05 20:43:13.412341
15.45283291,0.03222329915,-0.9557803273,1.49891603,2024-06-05 20:43:13.452833
15.49332583,-0.04846810177,-0.9326115251,1.496519208,2024-06-05 20:43:13.493326
15.53380614,-0.3403419554,-0.8388710022,1.608368754,2024-06-05 20:43:13.533806
15.57428646,-0.2537917793,-1.325815678,1.550047159,2024-06-05 20:43:13.574286
15.61476682,0.008788172156,-1.841787934,0.8387378454,2024-06-05 20:43:13.614767
15.65524182,-0.107588537,-1.152582169,0.8520532846,2024-06-05 20:43:13.655242
15.69569166,0.1158440933,-0.2845503688,0.8785509467,2024-06-05 20:43:13.695692
15.7361939,0.1009308323,0.216508612,0.6352783442,2024-06-05 20:43:13.736194
15.77668333,0.0980014354,0.3824186623,0.02023942769,2024-06-05 20:43:13.776683
15.81714052,-0.1038602218,0.572030127,-0.6270228028,2024-06-05 20:43:13.817141
15.85761677,-0.128626883,0.8187647462,-1.098787904,2024-06-05 20:43:13.857617
15.89811734,-0.3222329915,1.072556496,-1.169359565,2024-06-05 20:43:13.898117
15.9385575,-0.3902747631,0.4119788706,-1.589727163,2024-06-05 20:43:13.938557
15.97908442,-0.5258256793,0.4071853161,-1.954569459,2024-06-05 20:43:13.979084
16.01954536,-0.4137098789,1.348052382,-1.993450403,2024-06-05 20:43:14.019545
16.0600613,-0.05512581021,1.714226246,-2.027005196,2024-06-05 20:43:14.060061
16.10053812,0.2448704392,1.402379274,-1.864024639,2024-06-05 20:43:14.100538
16.14098869,0.3841496706,0.8131722808,-1.765490532,2024-06-05 20:43:14.140989
16.18147885,0.3886769116,0.5304860473,-1.604906678,2024-06-05 20:43:14.181479
16.22195562,0.1629806459,0.07722939551,-1.046857715,2024-06-05 20:43:14.221956
16.26245614,0.08095771074,-0.1540593207,-0.3689700961,2024-06-05 20:43:14.262456
16.30295578,-0.1438064575,-0.4917382002,0.08921326697,2024-06-05 20:43:14.302956
16.34335849,-0.4427374899,-0.9837427139,0.4185034335,2024-06-05 20:43:14.343358
16.38383901,-0.3073197305,-0.999987483,0.5961310267,2024-06-05 20:43:14.383839
16.42431958,0.05645735189,-0.6969286799,0.8424661756,2024-06-05 20:43:14.424320
16.4647914,0.1169093251,-0.1796249151,0.7836120725,2024-06-05 20:43:14.464791
16.50533625,0.1011971384,-0.02889444493,0.7351439595,2024-06-05 20:43:14.505336
16.54581541,0.2159759998,-0.4283568263,0.3612471521,2024-06-05 20:43:14.545815
16.58630567,0.204258427,-0.0006657706108,0.394269377,2024-06-05 20:43:14.586306
16.62674687,0.2794905007,0.5643072128,0.9075785279,2024-06-05 20:43:14.626747
16.6672264,0.1611164957,0.1395455301,1.359503627,2024-06-05 20:43:14.667226
16.70767687,0.104392834,0.1501978636,1.497051835,2024-06-05 20:43:14.707677
16.74819885,0.1294258088,-0.2952027023,1.279344916,2024-06-05 20:43:14.748199
16.78867135,0.1046591476,-0.6055849791,1.354710102,2024-06-05 20:43:14.788671
16.82916828,0.052196417,-0.4430037737,1.50637269,2024-06-05 20:43:14.829168
16.86967765,0.09826774895,-0.4107804894,1.332606554,2024-06-05 20:43:14.869678
16.91013328,0.1198387146,-0.3961335421,1.180810809,2024-06-05 20:43:14.910133
16.95057682,0.09693620354,-0.6649717093,1.149386406,2024-06-05 20:43:14.950577
16.99108317,-0.07243584841,-0.4248948097,0.9802806973,2024-06-05 20:43:14.991083
17.0315414,-0.143540144,-0.08801487833,0.802786231,2024-06-05 20:43:15.031541
17.07207291,-0.05539211631,-0.2422073632,0.409715265,2024-06-05 20:43:15.072073
17.11251672,-0.08468602598,0.04287562892,-0.278025806,2024-06-05 20:43:15.112517
17.15299677,0.04447348043,0.4316856861,-0.8752220869,2024-06-05 20:43:15.152997
17.19349557,0.04953333735,1.04912138,-1.318758488,2024-06-05 20:43:15.193496
17.23397562,-0.05379426852,0.9665657878,-1.437265635,2024-06-05 20:43:15.233976
17.27445588,-0.04633763805,0.1198387146,-1.648048639,2024-06-05 20:43:15.274456
17.31493052,-0.1901440918,0.3901416063,-1.94498229,2024-06-05 20:43:15.314931
17.35540302,-0.3520595133,0.5941337347,-2.009162664,2024-06-05 20:43:15.355403
17.39589432,-0.3145100474,0.5789541602,-1.929270148,2024-06-05 20:43:15.395894
17.4363739,-0.2135792226,0.4908061028,-1.959362984,2024-06-05 20:43:15.436374
17.47684682,-0.1105179265,-0.06138405204,-1.898112059,2024-06-05 20:43:15.476847
17.51731369,-0.1768286824,-0.1250317246,-1.532603979,2024-06-05 20:43:15.517314
17.55780526,-0.005059856921,-0.08961272985,-0.8627055883,2024-06-05 20:43:15.557805
17.59829234,0.001331541222,-0.2715012729,-0.2295577228,2024-06-05 20:43:15.598292
17.63875718,-0.02183727734,-0.06697652489,0.02183727734,2024-06-05 20:43:15.638757
17.67924302,-0.07643046975,-0.3106485903,0.2874797583,2024-06-05 20:43:15.679243
17.71971942,0.03408745676,-0.09919982404,0.5090482235,2024-06-05 20:43:15.719719
17.76019286,0.1472684592,-0.2874797583,0.5649729371,2024-06-05 20:43:15.760193
17.80067515,0.1792254597,0.1270290315,0.6358109713,2024-06-05 20:43:15.800675
17.84116599,0.3268933892,0.03675054014,1.023955226,2024-06-05 20:43:15.841166
17.88165541,0.3487306535,0.1669752747,1.12967968,2024-06-05 20:43:15.881655
17.9221026,0.2645772398,-0.3223661482,1.466692686,2024-06-05 20:43:15.922103
17.9625777,0.221035853,-0.1721682847,1.537796974,2024-06-05 20:43:15.962578
18.00308036,-0.1539261788,-0.2464682907,1.469089508,2024-06-05 20:43:16.003080
18.04356057,-0.05406057462,-0.3836170435,1.522084832,2024-06-05 20:43:16.043561
18.08404078,-0.1768286824,-0.5684349537,1.308106184,2024-06-05 20:43:16.084041
18.12452099,-0.270835489,-0.4070521593,1.46402967,2024-06-05 20:43:16.124521
18.16499192,-0.1850842386,-0.7384728193,1.54125905,2024-06-05 20:43:16.164992
18.20546739,-0.07323476672,-0.7999899983,1.230344176,2024-06-05 20:43:16.205467
18.24593724,-0.1446053833,-0.1956034154,1.02794981,2024-06-05 20:43:16.245937
18.28642817,-0.1419423074,0.04234301299,0.6858769059,2024-06-05 20:43:16.286428
18.32694281,-0.148067385,0.06790860742,0.3932041526,2024-06-05 20:43:16.326943
18.36742942,-0.145404309,0.1786928326,-0.1001319066,2024-06-05 20:43:16.367429
18.40790375,-0.06897383928,0.08548495173,-0.4251611233,2024-06-05 20:43:16.407904
18.4483826,0.04979964346,0.482816875,-0.9700278044,2024-06-05 20:43:16.448383
18.4888439,0.1065233052,0.9591091871,-1.329943419,2024-06-05 20:43:16.488844
18.52932932,0.05299534276,0.8813471794,-1.443124413,2024-06-05 20:43:16.529329
18.56981281,-0.018907886,0.6453980803,-1.569088221,2024-06-05 20:43:16.569813
18.61032989,0.03515268862,0.734877646,-1.836328626,2024-06-05 20:43:16.610330
18.65078718,0.07483261824,0.5035889149,-1.882399917,2024-06-05 20:43:16.650787
18.69124614,0.1288931966,0.9039833546,-1.761229634,2024-06-05 20:43:16.691246
18.7317077,0.1640458852,0.2415415943,-1.825409889,2024-06-05 20:43:16.731708
18.77220317,0.03595161438,0.06897383928,-2.057630777,2024-06-05 20:43:16.772203
18.81269239,-0.09986559302,-0.2600499988,-1.777474403,2024-06-05 20:43:16.812692
18.8531664,-0.2687050402,-0.4041227698,-1.061504722,2024-06-05 20:43:16.853166
18.89364442,-0.279889971,-0.5103797913,-0.2636451721,2024-06-05 20:43:16.893644
18.9341064,-0.1850842386,-0.5308855176,0.273365438,2024-06-05 20:43:16.934106
18.97457359,0.0037283157,-0.1436733007,0.5276898146,2024-06-05 20:43:16.974574
19.01504729,0.2451367527,-0.04540555924,0.9738892913,2024-06-05 20:43:17.015047
19.05552755,0.406519562,-0.1657768935,1.175218344,2024-06-05 20:43:17.055528
19.09605427,0.4461994767,0.1701709777,1.048988223,2024-06-05 20:43:17.096054
19.13651359,0.5252930522,-0.1130478531,1.222088575,2024-06-05 20:43:17.136514
19.17702385,0.5236951709,0.01478010789,1.230077863,2024-06-05 20:43:17.177024
19.21750437,0.3945356905,-0.2922733128,1.477345109,2024-06-05 20:43:17.217504
19.25804359,0.213312909,-0.1109173894,1.633401632,2024-06-05 20:43:17.258044
19.29843666,0.004527240526,0.08362079412,1.451912642,2024-06-05 20:43:17.298437
19.33891869,-0.1185071766,-0.09973244369,1.451646328,2024-06-05 20:43:17.338919
19.37941604,-0.2186390758,-0.3692364097,1.597183824,2024-06-05 20:43:17.379416
19.41991057,-0.2242315561,-0.9797480702,1.571351886,2024-06-05 20:43:17.419911
19.46039109,-0.1358172148,-0.899056673,1.22315383,2024-06-05 20:43:17.460391
19.50085864,-0.3230319023,-0.3159747422,0.9310136437,2024-06-05 20:43:17.500859
19.54136843,-0.1270290315,0.01983996481,0.7868077159,2024-06-05 20:43:17.541368
19.58180187,-0.00798924733,-0.07896039635,0.3122464418,2024-06-05 20:43:17.581802
19.62232271,0.2331528813,0.1246322617,-0.2037258148,2024-06-05 20:43:17.622323
19.66276906,0.2773600519,0.3621792197,-0.618500948,2024-06-05 20:43:17.662769
19.70324916,0.1107842326,0.2127802968,-1.041265249,2024-06-05 20:43:17.703249
19.74372932,-0.004793548491,0.9103747606,-1.540326953,2024-06-05 20:43:17.743729
19.78420948,-0.1869483888,0.8680317402,-1.567756653,2024-06-05 20:43:17.784209
19.82468968,-0.09640359133,0.8137048483,-1.727142215,2024-06-05 20:43:17.824690
19.86515401,-0.02396774292,0.52622509,-1.944449782,2024-06-05 20:43:17.865154
19.90567437,0.168040514,0.8166342378,-1.895449042,2024-06-05 20:43:17.905674
19.94613619,0.2568543255,0.4985290468,-1.828871965,2024-06-05 20:43:17.946136
19.98663297,0.3138442934,0.3555215299,-1.742854357,2024-06-05 20:43:17.986633
20.02708953,0.07722939551,-0.2054568231,-1.643521428,2024-06-05 20:43:18.027090
20.06755979,0.1904104054,-0.08375394344,-1.112103224,2024-06-05 20:43:18.067560
20.10805057,-0.1488663107,-0.5359453559,-0.6504579186,2024-06-05 20:43:18.108051
20.14852385,-0.1478010863,-0.5944000483,0.09826774895,2024-06-05 20:43:18.148524
20.18898468,-0.2399437428,-0.1569887102,0.6001256704,2024-06-05 20:43:18.188985
20.22946432,-0.3350157738,-0.1692388952,0.5583152771,2024-06-05 20:43:18.229464
20.26994406,-0.2031932026,-0.5103797913,0.2986647189,2024-06-05 20:43:18.269944
20.31044349,-0.09826774895,-0.3063876629,0.4203675687,2024-06-05 20:43:18.310443
20.35092323,0.1304910481,-0.3892095089,0.865501821,2024-06-05 20:43:18.350923
20.3914463,0.2683055699,-0.6585803032,1.141397238,2024-06-05 20:43:18.391446
20.43191411,0.1185071766,-0.2193048447,1.597450018,2024-06-05 20:43:18.431914
20.4723925,0.3388772607,0.1946713328,1.725544333,2024-06-05 20:43:18.472393
20.51284468,-0.1736329794,-0.129292652,1.506639004,2024-06-05 20:43:18.512845
20.55331927,-0.1994648874,-0.5671034455,1.719951868,2024-06-05 20:43:18.553319
20.5938375,-0.06204982474,-0.2760285139,1.77800703,2024-06-05 20:43:18.593837
20.63431573,-0.3953346014,-0.4264926612,1.659499884,2024-06-05 20:43:18.634316
20.67484718,-0.2159759998,-0.06431344151,1.259638071,2024-06-05 20:43:18.674847
20.71532864,-0.1054580659,-0.2715012729,0.993596077,2024-06-05 20:43:18.715329
20.75573057,-0.0007989247679,-0.1833532304,0.8203625679,2024-06-05 20:43:18.755731
20.79621474,0.02396774292,-0.2235657871,0.5287550688,2024-06-05 20:43:18.796215
20.83669437,0.005858781748,0.2271609455,0.06391397864,2024-06-05 20:43:18.836694
20.87716255,-0.02316881903,0.2862813771,-0.4315525293,2024-06-05 20:43:18.877163
20.91763989,0.1347519755,0.4303541481,-1.04206419,2024-06-05 20:43:18.917640
20.95815296,0.107588537,1.043262601,-1.459369302,2024-06-05 20:43:18.958153
20.99863578,0.2651098669,0.8065145612,-1.553109765,2024-06-05 20:43:18.998636
21.03911729,0.2218347788,0.6077154279,-1.896514297,2024-06-05 20:43:19.039117
21.07959875,0.2424736619,0.5185021758,-2.198108435,2024-06-05 20:43:19.079599
21.12008026,0.2683055699,0.4436695576,-2.082930088,2024-06-05 20:43:19.120080
21.16051536,0.3191704452,0.7977263927,-1.901840448,2024-06-05 20:43:19.160515
21.20100614,0.3165073693,0.2426068187,-1.919683099,2024-06-05 20:43:19.201006
21.24150083,0.3308880031,0.1478010863,-1.654706359,2024-06-05 20:43:19.241501
21.28197369,0.1142462417,0.1320888996,-1.017297506,2024-06-05 20:43:19.281974
21.32249276,-0.07190322876,-0.4254274368,-0.4579170346,2024-06-05 20:43:19.322493
21.36294,-0.0229025092,-0.6905373335,-0.02157096937,2024-06-05 20:43:19.362940
21.4034075,-0.09533835202,-0.3527252972,0.3165073693,2024-06-05 20:43:19.403408
21.44390442,0.04154408723,-0.3460675776,0.4565854967,2024-06-05 20:43:19.443904
21.48440151,0.2247641683,-0.1351514459,0.695464015,2024-06-05 20:43:19.484402
21.52486896,0.2736317217,-0.2190385461,1.093728065,2024-06-05 20:43:19.524869
21.5653489,0.2882786989,-0.4619116783,1.279877424,2024-06-05 20:43:19.565349
21.6058551,-0.02023942769,-0.4874772727,1.114500046,2024-06-05 20:43:19.605855
21.64628885,0.2323539555,-0.007856093347,1.205577493,2024-06-05 20:43:19.646289
21.68681239,-0.0117175635,0.03408745676,1.836062312,2024-06-05 20:43:19.686812
21.72729234,-0.2516613007,-0.233951807,1.985194921,2024-06-05 20:43:19.727292
21.76778453,-0.1062569916,-0.2033263594,1.763626456,2024-06-05 20:43:19.767785
21.80820692,-0.2711018026,-0.5872097015,1.665624976,2024-06-05 20:43:19.808207
21.84868614,-0.1248985752,-0.7038527131,1.472817779,2024-06-05 20:43:19.848686
21.88917468,-0.07536523789,-0.2789579034,0.9834764004,2024-06-05 20:43:19.889175
21.92963458,-0.1587197185,-0.02489982173,0.926220119,2024-06-05 20:43:19.929635
21.97012177,-0.0074566314,-0.04034570232,0.7457962632,2024-06-05 20:43:19.970122
22.01062078,-0.05912043154,-0.1918751001,0.1661763489,2024-06-05 20:43:20.010621
22.05110791,0.1291595101,0.2183727771,-0.5955983996,2024-06-05 20:43:20.051108
22.09159114,-0.03808208182,0.7247579098,-1.046857715,2024-06-05 20:43:20.091591
22.13207531,0.0149132628,0.6045197248,-1.237534523,2024-06-05 20:43:20.132075
22.17253161,-0.1222354919,0.6419360638,-1.57281661,2024-06-05 20:43:20.172532
22.21300713,-0.1954702586,0.405321151,-1.752441525,2024-06-05 20:43:20.213007
22.25351026,-0.2231663167,0.3800218701,-1.754571915,2024-06-05 20:43:20.253510
22.2939763,-0.276694268,0.7154371142,-1.946313858,2024-06-05 20:43:20.293976
22.33446515,-0.1616491079,0.5358121991,-2.034461975,2024-06-05 20:43:20.334465
22.37496135,-0.04260931909,0.443403244,-2.119946957,2024-06-05 20:43:20.374961
22.41544067,0.0599193573,0.1669752747,-1.792920351,2024-06-05 20:43:20.415441
22.45591088,0.2175738513,0.03701684624,-1.153114796,2024-06-05 20:43:20.455911
22.49641369,0.1091863886,-0.2350170314,-0.6286206245,2024-06-05 20:43:20.496414
22.53690224,0.2949363887,-0.1271621883,-0.0410114713,2024-06-05 20:43:20.536902
22.57735989,0.3223661482,-0.0736342296,0.4525908828,2024-06-05 20:43:20.577360
22.61784208,0.2234326303,0.02862813696,0.5103797913,2024-06-05 20:43:20.617842
22.65830958,0.2853493094,-0.04034570232,0.7002575397,2024-06-05 20:43:20.658310
22.69878125,0.2765611112,0.04660394415,0.9307473302,2024-06-05 20:43:20.698781
22.73925875,0.2744306624,0.1483336985,1.222621202,2024-06-05 20:43:20.739259
22.77973672,0.2592510879,-0.2792242169,1.341394663,2024-06-05 20:43:20.779737
22.82021979,0.09666989744,-0.252060771,1.43247211,2024-06-05 20:43:20.820220
22.8607152,0.05432688445,-0.2685718834,1.615026474,2024-06-05 20:43:20.860715
22.90119135,-0.1267627329,-0.3388772607,1.64139092,2024-06-05 20:43:20.901191
22.94166583,-0.06790860742,-0.4400743842,1.696783066,2024-06-05 20:43:20.941666
22.98215531,-0.1808233112,-0.2547238469,1.924742937,2024-06-05 20:43:20.982155
23.0226225,-0.4238295853,-0.9744219184,1.901041508,2024-06-05 20:43:21.022623
23.06312135,-0.1209039465,-0.9523183107,1.229278922,2024-06-05 20:43:21.063121
23.10360015,-0.1898777932,-0.4920045137,0.6214303374,2024-06-05 20:43:21.103600
23.14407338,-0.08255556226,0.08974587917,0.3748288751,2024-06-05 20:43:21.144073
23.18452604,-0.07403369248,0.03861469775,0.1131810099,2024-06-05 20:43:21.184526
23.22502646,-0.03115806542,0.314776361,-0.5623098612,2024-06-05 20:43:21.225026
23.26552166,-0.05858781561,0.5818835497,-1.078015804,2024-06-05 20:43:21.265522
23.30600489,0.01517957076,0.756182313,-1.371487498,2024-06-05 20:43:21.306005
23.34650192,-0.08495233208,0.759378016,-1.644320369,2024-06-05 20:43:21.346502
23.38696755,-0.06311506033,0.7721607685,-1.656037927,2024-06-05 20:43:21.386968
23.42743656,0.0596530512,0.7279536128,-1.874943256,2024-06-05 20:43:21.427437
23.46791338,0.2154433727,0.6250254512,-2.01395607,2024-06-05 20:43:21.467913
23.50839208,0.09880036116,0.535279572,-2.229799032,2024-06-05 20:43:21.508392
23.54887255,0.04953333735,0.02995967865,-1.999841809,2024-06-05 20:43:21.548873
23.58936796,-0.03248960897,0.02463351376,-1.317693233,2024-06-05 20:43:21.589368
23.62981307,-0.2460688353,-0.3537905216,-0.8989235163,2024-06-05 20:43:21.629813
23.67030672,-0.3581846058,-0.2435389012,-0.551923871,2024-06-05 20:43:21.670307
23.71078708,-0.28574875,-0.2491313666,0.01384802908,2024-06-05 20:43:21.710787
23.75125036,-0.2884118557,-0.04886756465,0.256588012,2024-06-05 20:43:21.751250
23.79174984,-0.1310236603,-0.2123808414,0.5130428672,2024-06-05 20:43:21.791750
23.83221869,0.06764229387,0.1302247345,0.7508561015,2024-06-05 20:43:21.832219
23.87272146,0.244337827,0.3275591433,1.141663551,2024-06-05 20:43:21.872721
23.91322354,0.2730991244,-0.2238320857,1.39758575,2024-06-05 20:43:21.913224
23.95366036,0.360714525,-0.2648435533,1.271888256,2024-06-05 20:43:21.953660
23.99417281,0.1786928326,-0.1362166703,1.137935162,2024-06-05 20:43:21.994173
24.03463442,0.1616491079,-0.01344856713,1.666423917,2024-06-05 20:43:22.034634
24.07512646,0.3125127256,-0.09121058136,2.120079994,2024-06-05 20:43:22.075126
24.11560468,0.018907886,-0.04274247587,2.024075985,2024-06-05 20:43:22.115605
24.15607291,-0.0487344116,-0.4094489515,1.72900641,2024-06-05 20:43:22.156073
24.19652255,-0.002929390874,-1.070825458,1.459635496,2024-06-05 20:43:22.196523
24.23706458,0.08069140464,-0.8593767285,1.138201475,2024-06-05 20:43:22.237065
24.27752,-0.06391397864,-0.1087869257,0.5380758047,2024-06-05 20:43:22.277520
24.31801911,-0.08362079412,-0.04380770773,0.3223661482,2024-06-05 20:43:22.318019
24.3584727,0.04687025398,-0.08481918275,-0.1256974936,2024-06-05 20:43:22.358473
24.39892578,0.1094526947,0.1765623689,-0.9026518464,2024-06-05 20:43:22.398926
24.43942729,0.1701709777,0.8256887197,-1.296388626,2024-06-05 20:43:22.439427
24.47994687,0.01331541315,0.8161016703,-1.564561009,2024-06-05 20:43:22.479947
24.52040583,0.07989247888,0.7937317491,-1.502777457,2024-06-05 20:43:22.520406
24.56088734,0.09107742459,0.6778876781,-1.695717812,2024-06-05 20:43:22.560887
24.60139109,0.2595174015,0.6109111309,-1.783865809,2024-06-05 20:43:22.601391
24.64185401,0.2231663167,0.3834838867,-1.89225328,2024-06-05 20:43:22.641854
24.68231151,0.06098458916,0.1525946259,-2.060293913,2024-06-05 20:43:22.682312
24.72279807,0.02130465955,0.4157072008,-2.027804136,2024-06-05 20:43:22.722798
24.76326984,0.0037283157,-0.2113156021,-1.346188188,2024-06-05 20:43:22.763270
24.80378,-0.03701684624,-0.5463314056,-0.6896052361,2024-06-05 20:43:22.803780
24.8442364,-0.08947957307,-0.4989285171,-0.1219691783,2024-06-05 20:43:22.844236
24.88470744,-0.006924014539,-0.3343500197,0.1214365661,2024-06-05 20:43:22.884707
24.92518557,0.07722939551,-0.2240983993,0.1653774232,2024-06-05 20:43:22.925186
24.96569864,0.1155777797,0.1736329794,0.2890776098,2024-06-05 20:43:22.965699
25.00616213,0.1182408631,-0.05259587988,0.5633751154,2024-06-05 20:43:23.006162
25.04664224,0.2912080884,0.03994623944,0.8435314298,2024-06-05 20:43:23.046642
25.08712703,0.3106485903,0.07856093347,1.394123673,2024-06-05 20:43:23.087127
25.12760302,0.2231663167,-0.159651801,1.800110698,2024-06-05 20:43:23.127603
25.16808812,0.04074516147,-0.2765611112,1.74312067,2024-06-05 20:43:23.168088
25.20853974,0.05539211631,-0.138347134,1.74977839,2024-06-05 20:43:23.208540
25.24906281,-0.03675054014,-0.352991581,1.487198472,2024-06-05 20:43:23.249063
25.28954073,-0.03754946589,-0.779484272,1.622483015,2024-06-05 20:43:23.289541
25.33001994,0.1672415882,-1.287733555,1.603042603,2024-06-05 20:43:23.330020
25.37048437,0.07243584841,-0.7232932448,1.043395758,2024-06-05 20:43:23.370484
25.4109675,-0.1254311949,0.0126496423,0.865501821,2024-06-05 20:43:23.410968
25.45144198,-0.09933298081,0.3382114768,0.762839973,2024-06-05 20:43:23.451442
25.49193062,-0.2205032408,0.02969337068,0.5426030755,2024-06-05 20:43:23.491931
25.53242854,-0.1925408691,-0.07150376588,-0.3645760119,2024-06-05 20:43:23.532429
25.57291906,-0.1901440918,0.288944453,-0.9109073877,2024-06-05 20:43:23.572919
25.61338604,-0.0117175635,0.7939980626,-1.130478501,2024-06-05 20:43:23.613386
25.65386552,-0.1256974936,0.8078460693,-1.435401559,2024-06-05 20:43:23.653866
25.69432151,0.01198387146,0.6957303286,-1.531006217,2024-06-05 20:43:23.694322
25.73479224,-0.04926702753,0.3983971477,-1.915688396,2024-06-05 20:43:23.734792
25.77527291,0.1528609395,0.6608439088,-1.921014547,2024-06-05 20:43:23.775273
25.81579494,-0.07350108027,0.06790860742,-1.884530425,2024-06-05 20:43:23.815795
25.85629328,-0.1941387206,0.5211652517,-2.054701328,2024-06-05 20:43:23.856293
25.89673823,-0.1091863886,0.07509893179,-1.802241087,2024-06-05 20:43:23.896738
25.93720317,-0.1113168523,-0.02623136342,-1.31742692,2024-06-05 20:43:23.937203
25.97770953,-0.03994623944,-0.2715012729,-0.5298202634,2024-06-05 20:43:23.977710
26.01817963,-0.2157096863,-0.2952027023,0.02902759984,2024-06-05 20:43:24.018180
26.05864661,-0.06950645149,-0.3308880031,0.3167736828,2024-06-05 20:43:24.058647
26.09915062,-0.1102516204,0.2263620198,0.4480636418,2024-06-05 20:43:24.099151
26.13960146,0.07350108027,0.06364767253,0.5378095508,2024-06-05 20:43:24.139601
26.18008328,0.2328865677,-0.1897446364,0.83314538,2024-06-05 20:43:24.180083
26.22056297,0.3021267056,-0.8708279729,1.244991064,2024-06-05 20:43:24.220563
26.26105989,0.5564510822,-0.5559184551,1.664826035,2024-06-05 20:43:24.261060
26.30153823,0.416905582,-0.07443315536,1.541791677,2024-06-05 20:43:24.301538
26.34201604,0.3146432042,0.3022598624,1.440195084,2024-06-05 20:43:24.342016
26.38248708,0.08095771074,0.2189053893,1.587330341,2024-06-05 20:43:24.382487
26.4229738,0.05406057462,-0.2017285079,1.871481299,2024-06-05 20:43:24.422974
26.46348375,0.03142437339,-0.4965317547,1.835263371,2024-06-05 20:43:24.463484
26.50394505,0.05379426852,-0.8713606,1.494921446,2024-06-05 20:43:24.503945
26.54442479,0.08015878499,-0.908111155,0.8553821445,2024-06-05 20:43:24.544425
26.5849027,-0.04394086078,-0.1844184697,0.6147726178,2024-06-05 20:43:24.584903
26.62537713,-0.1041265279,0.3754946291,0.874556303,2024-06-05 20:43:24.625377
26.66586401,-0.2785584331,0.2375469655,0.01198387146,2024-06-05 20:43:24.665864
26.70634484,-0.1374150664,-0.1034607589,-0.6073159575,2024-06-05 20:43:24.706345
26.74686244,-0.04527240247,0.2426068187,-1.226083159,2024-06-05 20:43:24.746862
26.78731651,-0.05059856921,0.8374063373,-1.415162086,2024-06-05 20:43:24.787317
26.82778442,-0.01331541315,0.5983946323,-1.574947,2024-06-05 20:43:24.827784
26.8682339,0.1105179265,0.6648385525,-1.761762261,2024-06-05 20:43:24.868234
26.90874161,0.09134373069,0.6087806821,-1.983863354,2024-06-05 20:43:24.908742
26.94922396,0.117974557,0.405321151,-1.817420721,2024-06-05 20:43:24.949224
26.98970411,-0.02050573565,0.4450010955,-2.062424183,2024-06-05 20:43:24.989704
27.03016948,0.04234301299,-0.1063901484,-1.917019963,2024-06-05 20:43:25.030169
27.0706777,-0.2109161317,-0.05951989442,-1.664293408,2024-06-05 20:43:25.070678
27.11117797,-0.1776276082,-0.248865068,-1.094526887,2024-06-05 20:43:25.111178
27.1516026,-0.2588516176,-0.7259563208,-0.5665708184,2024-06-05 20:43:25.151603
27.19207109,-0.2572537661,-0.8045172691,-0.2452699095,2024-06-05 20:43:25.192071
27.23255765,-0.1185071766,-0.4874772727,0.2415415943,2024-06-05 20:43:25.232558
27.27306802,0.02849498391,-0.2477998286,0.2890776098,2024-06-05 20:43:25.273068
27.31352974,0.2970668674,0.02916075476,0.7250242233,2024-06-05 20:43:25.313530
27.35404927,0.5276898146,0.4644415975,1.50930202,2024-06-05 20:43:25.354049
27.39457771,0.3519263566,-0.2011958808,1.59025979,2024-06-05 20:43:25.394578
27.43499234,0.5103797913,-0.06404713541,1.085738778,2024-06-05 20:43:25.434992
27.47546161,0.367105931,-0.1497983932,1.336867452,2024-06-05 20:43:25.475462
27.51595932,0.3804213405,-0.6500584483,1.728207469,2024-06-05 20:43:25.515959
27.55643073,0.2800231278,-0.07390054315,1.451912642,2024-06-05 20:43:25.556431
27.59691031,-0.01970681176,0.3121132851,1.897313118,2024-06-05 20:43:25.596910
27.63737922,-0.4163729548,-0.2336854935,1.938857317,2024-06-05 20:43:25.637379
27.67790281,-0.1059906855,-0.6798849702,1.332073927,2024-06-05 20:43:25.677903
27.71835119,-0.1853505522,-0.5015916228,0.7985253334,2024-06-05 20:43:25.718351
27.75885281,-0.3081186414,-0.1197055578,0.8030525446,2024-06-05 20:43:25.758853
27.79932166,-0.2260957062,0.2553896308,0.6477948427,2024-06-05 20:43:25.799322
27.83975828,-0.2047910541,0.4015928507,0.02529928461,2024-06-05 20:43:25.839758
27.88026416,-0.2282261699,0.2162422985,-0.9423317909,2024-06-05 20:43:25.880264
27.92073312,-0.07350108027,0.5075835586,-1.395188928,2024-06-05 20:43:25.920733
27.96120255,-0.1392792165,0.9322120547,-1.701576591,2024-06-05 20:43:25.961203
28.00167401,-0.1123820841,0.8901353478,-1.736729264,2024-06-05 20:43:26.001674
28.04224526,-0.07802832127,0.7146382332,-2.21035862,2024-06-05 20:43:26.042245
28.08264974,0.05166380107,0.2601831555,-2.085859299,2024-06-05 20:43:26.082650
28.12321729,0.03728315607,0.7780195475,-1.935661554,2024-06-05 20:43:26.123217
28.16366276,0.03568530455,0.1909430176,-2.079201698,2024-06-05 20:43:26.163663
28.20412698,-0.1912093312,0.1177082509,-1.814757586,2024-06-05 20:43:26.204127
28.24457156,-0.06764229387,-0.04966649041,-0.9383371472,2024-06-05 20:43:26.244572
28.28506578,0.03595161438,-0.3580514491,-0.2335523367,2024-06-05 20:43:26.285066
28.32556619,0.01278279629,-0.4952002168,0.2311555594,2024-06-05 20:43:26.325566
28.36604541,0.09720251709,-0.377491951,0.4121120274,2024-06-05 20:43:26.366045
28.40650198,0.07616416365,-0.2501966059,0.3615134656,2024-06-05 20:43:26.406502
28.44699067,0.1336867511,0.01957365684,0.6517894268,2024-06-05 20:43:26.446991
28.48746052,0.2784252763,0.2263620198,1.040199995,2024-06-05 20:43:26.487461
28.52794317,0.1363498271,-0.2033263594,1.246056318,2024-06-05 20:43:26.527943
28.56841119,0.1877473146,0.02170412242,1.505307436,2024-06-05 20:43:26.568411
28.60887427,0.1768286824,0.03621792421,1.665358663,2024-06-05 20:43:26.608874
28.64937838,-0.002929390874,-0.2808220685,1.80170846,2024-06-05 20:43:26.649378
28.68987849,-0.02370143496,-0.2097177505,1.801442146,2024-06-05 20:43:26.689878
28.73033489,-0.02343512699,-0.2826862037,1.772680879,2024-06-05 20:43:26.730335
28.77083062,-0.04793548584,-0.5607120395,1.672282696,2024-06-05 20:43:26.770831
28.81132411,0.04766917601,-0.5412715077,1.458037734,2024-06-05 20:43:26.811324
28.8518039,0.06391397864,-0.5228962898,1.187468529,2024-06-05 20:43:26.851804
28.89228463,-0.04154408723,0.1549914032,0.5343475342,2024-06-05 20:43:26.892285
28.9327502,-0.07989247888,0.2354165018,0.1826874614,2024-06-05 20:43:26.932750
28.97323172,0.07882724702,0.3086512685,-0.6595124006,2024-06-05 20:43:26.973232
29.01370526,0.01091863867,0.6696321368,-1.251915097,2024-06-05 20:43:27.013705
29.05419833,0.1669752747,0.5733616948,-1.373618007,2024-06-05 20:43:27.054198
29.09467692,0.1432738453,0.6552514434,-1.657635689,2024-06-05 20:43:27.094677
29.13514526,0.2226337045,0.6079817414,-1.888258696,2024-06-05 20:43:27.135145
29.17561614,0.3460675776,0.734877646,-1.73273468,2024-06-05 20:43:27.175616
29.21610541,0.2291582525,0.4969311953,-1.799578071,2024-06-05 20:43:27.216105
29.25660276,0.2299571782,0.3613803089,-2.047511101,2024-06-05 20:43:27.256603
29.29705937,0.1664426625,0.3035914004,-2.013157368,2024-06-05 20:43:27.297059
29.3375414,0.09640359133,-0.1268958896,-1.554707646,2024-06-05 20:43:27.337541
29.37802213,0.06631075591,-0.4677704573,-0.7639052272,2024-06-05 20:43:27.378022
29.41851916,-0.1685731262,-0.4629769027,-0.258585304,2024-06-05 20:43:27.418519
29.45900297,-0.1786928326,-0.4720313847,0.1336867511,2024-06-05 20:43:27.459003
29.49949864,-0.008521864191,-0.4493951797,0.4661726058,2024-06-05 20:43:27.499499
29.5399638,0.018907886,-0.2105166763,0.5378095508,2024-06-05 20:43:27.539964
29.58045672,0.1901440918,-0.08082455397,0.8326127529,2024-06-05 20:43:27.580457
29.62093541,0.2074541301,0.137681365,1.312633395,2024-06-05 20:43:27.620935
29.66140958,0.12117026,-0.01344856713,1.577743292,2024-06-05 20:43:27.661410
29.70188718,-0.03648423031,-0.08508548886,1.447651625,2024-06-05 20:43:27.701887
29.74234692,-0.1472684592,-0.2786915898,1.505840063,2024-06-05 20:43:27.742347
29.78283797,-0.09347419441,-0.3412740231,1.791855097,2024-06-05 20:43:27.782838
29.82332682,-0.2588516176,-0.339409858,1.925275564,2024-06-05 20:43:27.823327
29.86382765,-0.2820204496,-0.2699034214,2.077737093,2024-06-05 20:43:27.863828
29.90428151,-0.1115831584,-0.4379439354,1.933264732,2024-06-05 20:43:27.904282
29.94474354,0.006391398143,-0.3681711555,1.17495203,2024-06-05 20:43:27.944744
29.98523812,-0.08628387749,-0.4810858667,0.4177044928,2024-06-05 20:43:27.985238
30.0257039,0.08601756394,-0.07975932211,-0.03169068322,2024-06-05 20:43:28.025704
30.06618218,0.03648423031,0.1145125479,-0.3288906813,2024-06-05 20:43:28.066182
30.10666146,0.1818885356,0.1531272531,-0.7250242233,2024-06-05 20:43:28.106661
30.14715604,0.2315550297,0.8698959351,-1.395188928,2024-06-05 20:43:28.147156
30.18759291,0.2805557549,1.022756815,-1.558435917,2024-06-05 20:43:28.187593
30.22812239,0.2818872929,0.8166342378,-1.703440785,2024-06-05 20:43:28.228122
30.26858198,0.1326215118,0.608248055,-1.966020703,2024-06-05 20:43:28.268582
30.30903823,0.2247641683,0.3608476818,-2.111158609,2024-06-05 20:43:28.309038
30.3495901,0.009054481052,0.1161103994,-2.524335861,2024-06-05 20:43:28.349590
30.39002302,0.1033276021,0.06551183015,-2.154833317,2024-06-05 20:43:28.390023
30.43052505,-0.2018616647,-0.3793561161,-1.713560462,2024-06-05 20:43:28.430525
30.47100234,-0.1515294015,-0.394269377,-1.205311179,2024-06-05 20:43:28.471002
30.51147067,-0.1533935517,-0.5511249304,-0.5862776041,2024-06-05 20:43:28.511471
30.55197041,-0.1318225861,-0.232087642,0.03089175746,2024-06-05 20:43:28.551970
30.59244187,0.0490007177,-0.1615159512,0.5149070024,2024-06-05 20:43:28.592442
30.63292396,0.2334191799,0.03621792421,0.710909903,2024-06-05 20:43:28.632924
30.67339166,0.1464695334,-0.01584534161,0.9211602807,2024-06-05 20:43:28.673392
30.71388213,0.1366161406,-0.1785596907,1.320888996,2024-06-05 20:43:28.713882
30.75433416,0.2999962568,-0.2360822707,1.533536077,2024-06-05 20:43:28.754334
30.79484875,0.238479048,-0.2768274248,1.710098505,2024-06-05 20:43:28.794849
30.83531213,0.08308817446,-0.09227581322,1.931400657,2024-06-05 20:43:28.835312
30.87581317,0.1936061084,-0.0006657706108,2.152036905,2024-06-05 20:43:28.875813
30.91626296,0.2579195499,0.12117026,2.04218483,2024-06-05 20:43:28.916263
30.95677922,-0.01091863867,-0.1902772486,2.070546627,2024-06-05 20:43:28.956779
30.99724604,-0.08255556226,-0.8947957158,1.38427031,2024-06-05 20:43:28.997246
31.0377225,-0.05938674137,-0.9291495085,0.6086475253,2024-06-05 20:43:29.037723
31.07821796,-0.228758797,-0.5071840882,0.3577851355,2024-06-05 20:43:29.078218
31.1187064,-0.2370143533,0.0817566365,0.2901428342,2024-06-05 20:43:29.118706
31.15919906,-0.1163767055,0.4889419675,-0.1938724071,2024-06-05 20:43:29.159199
31.19966177,-0.06897383928,0.5736280084,-0.990933001,2024-06-05 20:43:29.199662
31.2401163,-0.008521864191,0.5070509315,-1.562963128,2024-06-05 20:43:29.240116
31.28058573,0.1150451675,0.6776213646,-1.680271983,2024-06-05 20:43:29.280586
31.32109182,-0.08655018359,0.6178351641,-2.244978666,2024-06-05 20:43:29.321092
31.36155573,0.08921326697,0.7263557911,-2.053369761,2024-06-05 20:43:29.361556
31.40204869,0.05086487532,0.3715000153,-1.977471948,2024-06-05 20:43:29.402049
31.44252146,-0.1930734813,0.455653429,-2.45083499,2024-06-05 20:43:29.442521
31.48302922,0.2315550297,0.4868114889,-1.939123511,2024-06-05 20:43:29.483029
31.5234989,-0.1920082569,-0.1639127284,-1.384536624,2024-06-05 20:43:29.523499
31.56396385,-0.1523283273,-0.3993292153,-0.7878729701,2024-06-05 20:43:29.563964
31.60444083,-0.2548570037,-0.681216538,-0.2575200796,2024-06-05 20:43:29.604441
31.64494255,-0.1416759938,-0.8551158309,0.06444659829,2024-06-05 20:43:29.644943
31.6854013,0.071104303,-0.3234313726,0.4075847864,2024-06-05 20:43:29.685401
31.72590057,0.2555227578,0.21784015,0.7266221046,2024-06-05 20:43:29.725901
31.76634234,0.3215672076,-0.1106510833,1.369090796,2024-06-05 20:43:29.766342
31.80685,0.273365438,-0.3695026934,1.602243662,2024-06-05 20:43:29.806850
31.8473114,0.3162410557,-0.04620448127,1.902373075,2024-06-05 20:43:29.847311
31.88780182,0.2920069993,-0.09014534205,1.960428238,2024-06-05 20:43:29.887802
31.92829448,0.1509967744,-0.1932066381,2.008363724,2024-06-05 20:43:29.928294
31.96877734,-0.06631075591,-0.0685743764,1.885062933,2024-06-05 20:43:29.968777
32.00922942,-0.08708280325,-0.1937392503,1.700245023,2024-06-05 20:43:30.009229
32.04974234,-0.03595161438,-0.5157059431,1.525014281,2024-06-05 20:43:30.049742
32.09021599,-0.06524552405,-0.7379401922,1.156044126,2024-06-05 20:43:30.090216
32.13069349,-0.01677742042,-0.374296248,0.8312812448,2024-06-05 20:43:30.130693
32.1711976,-0.05246272683,-0.03342168778,0.4493951797,2024-06-05 20:43:30.171198
32.21165646,-0.01118494663,0.07829462737,-0.1446053833,2024-06-05 20:43:30.211656
32.25211885,0.09374050796,0.3446028829,-0.7676335573,2024-06-05 20:43:30.252119
32.29261968,0.02023942769,0.5693670511,-1.226349473,2024-06-05 20:43:30.292620
32.3331177,-0.06125089899,0.5611115098,-1.630205989,2024-06-05 20:43:30.333118
32.3735988,-0.1427412182,0.7726933956,-1.778539658,2024-06-05 20:43:30.373599
32.41406328,-0.2370143533,0.8035851717,-1.971613169,2024-06-05 20:43:30.414063
32.45452422,-0.2599168718,0.5834813714,-2.365083694,2024-06-05 20:43:30.454524
32.4950039,-0.2828193605,0.5704323053,-2.563483238,2024-06-05 20:43:30.495004
32.53548396,-0.04447348043,0.3813534081,-2.246043921,2024-06-05 20:43:30.535484
32.57598156,-0.1547250897,-0.03155753016,-1.811295629,2024-06-05 20:43:30.575982
32.61646942,-0.002929390874,-0.2845503688,-1.207175374,2024-06-05 20:43:30.616469
32.65694067,-0.2319544852,-0.4949339032,-0.4488625526,2024-06-05 20:43:30.656941
32.69741218,-0.2511286736,-0.7925333977,0.1251648813,2024-06-05 20:43:30.697412
32.7379025,-0.03009283356,-0.4597811997,0.5135754943,2024-06-05 20:43:30.737902
32.77836604,0.1794917583,-0.01824211515,0.7902697325,2024-06-05 20:43:30.778366
32.81882166,0.2645772398,0.3331516385,1.071624398,2024-06-05 20:43:30.818822
32.8593313,0.3524589837,0.122501798,1.669353247,2024-06-05 20:43:30.859331
32.89980286,0.3468665183,-0.1039933711,1.677608848,2024-06-05 20:43:30.899803
32.94027177,0.2368811965,-0.3615134656,1.549248338,2024-06-05 20:43:30.940272
32.98076843,0.2366148829,-0.3127790391,1.683201313,2024-06-05 20:43:30.980768
33.02125406,0.4637758136,-0.3481980562,1.930335402,2024-06-05 20:43:31.021254
33.06176302,0.354855746,-0.1354177445,2.093182802,2024-06-05 20:43:31.061763
33.10223291,0.1848179251,-0.218505919,1.877872705,2024-06-05 20:43:31.102233
33.14270338,-0.0977351293,-0.1410102248,1.284404755,2024-06-05 20:43:31.142703
33.18316182,-0.1938724071,-0.5591141582,0.7588453889,2024-06-05 20:43:31.183162
33.22365041,-0.1256974936,-0.527423501,0.4102478623,2024-06-05 20:43:31.223650
33.26412708,-0.288944453,0.002796236658,0.03462007269,2024-06-05 20:43:31.264127
33.30460953,-0.195203945,0.3730978668,-0.4507267177,2024-06-05 20:43:31.304610
33.34510296,-0.04926702753,0.3629781604,-0.8190310597,2024-06-05 20:43:31.345103
33.38557406,0.02370143496,0.6669690013,-1.43620038,2024-06-05 20:43:31.385574
33.42604833,0.018907886,0.8232919574,-1.641923547,2024-06-05 20:43:31.426048
33.46654646,-0.08495233208,0.7766880393,-1.808366179,2024-06-05 20:43:31.466546
33.50701828,-0.005592473317,0.8182321191,-2.280397654,2024-06-05 20:43:31.507018
33.54749677,0.08441971987,0.6544525623,-2.455628395,2024-06-05 20:43:31.547497
33.58797489,-0.1011971384,0.05246272683,-2.476400375,2024-06-05 20:43:31.587975
33.6285014,0.06071828306,-0.03075860441,-2.017418146,2024-06-05 20:43:31.628501
33.66894828,0.01225017942,-0.2403431982,-1.293991804,2024-06-05 20:43:31.668948
33.70943297,-0.1248985752,-0.2925396264,-0.5298202634,2024-06-05 20:43:31.709433
33.74987109,-0.09853405505,-0.1857500076,-0.01438064594,2024-06-05 20:43:31.749871
33.79040666,-0.06204982474,-0.3631113172,0.3226324618,2024-06-05 20:43:31.790407
33.83090458,0.0146469539,-0.1223686412,0.5782883763,2024-06-05 20:43:31.830905
33.87133619,0.1563229412,-0.03422060981,0.6967955232,2024-06-05 20:43:31.871336
33.91184776,0.2231663167,-0.02809552103,1.094526887,2024-06-05 20:43:31.911848
33.95233885,0.2744306624,-0.05232957378,1.612363338,2024-06-05 20:43:31.952339
33.99278807,0.3492632806,-0.611443758,1.751642585,2024-06-05 20:43:31.992788
34.03327078,0.1685731262,-0.5772231221,1.547117829,2024-06-05 20:43:32.033271
34.07375708,0.1872147024,-0.2693707943,1.788925767,2024-06-05 20:43:32.073757
34.11430661,-0.0037283157,-0.09627043456,2.026472569,2024-06-05 20:43:32.114307
34.15470911,0.007722939365,-0.4675041437,2.008896351,2024-06-05 20:43:32.154709
34.19517609,0.0229025092,-0.5521901846,1.782268047,2024-06-05 20:43:32.195176
34.23565703,0.04687025398,-0.7611089945,1.095325828,2024-06-05 20:43:32.235657
34.27615349,0.1762960702,-0.07390054315,0.7990579009,2024-06-05 20:43:32.276153
34.31664849,-0.06977276504,0.07696308941,0.7015891075,2024-06-05 20:43:32.316648
34.35712593,-0.0713706091,0.07882724702,-0.2607157826,2024-06-05 20:43:32.357126
34.39761963,-0.06710968167,0.07696308941,-0.8927984238,2024-06-05 20:43:32.397620
34.43803099,0.02023942769,0.4423380196,-1.284671068,2024-06-05 20:43:32.438031
34.47856192,0.03275591508,1.23100996,-1.567224145,2024-06-05 20:43:32.478562
34.51904198,0.02423405088,1.187069058,-1.897579432,2024-06-05 20:43:32.519042
34.55951448,-0.01944050193,0.3768261969,-2.096511841,2024-06-05 20:43:32.559514
34.59996135,0.09560466558,0.4665720761,-2.004102707,2024-06-05 20:43:32.599961
34.64047599,-0.04473978654,0.3137111366,-2.190252304,2024-06-05 20:43:32.640476
34.68094713,-0.2505960763,0.1113168523,-2.439916134,2024-06-05 20:43:32.680947
34.72140354,0.09400681406,-0.2485987544,-1.670418501,2024-06-05 20:43:32.721404
34.76193,-0.2841508985,-0.3039908707,-1.201582909,2024-06-05 20:43:32.761930
34.80241599,-0.2785584331,-0.3830844164,-0.6970618367,2024-06-05 20:43:32.802416
34.84288692,-0.1456706226,-0.3037245572,-0.0980014354,2024-06-05 20:43:32.842887
34.88335172,0.01358172111,-0.4438027143,0.2619141638,2024-06-05 20:43:32.883352
34.9238551,0.2382127345,-0.2161091566,0.573228538,2024-06-05 20:43:32.923855
34.96431328,0.2098509073,-0.3162410557,0.8870728016,2024-06-05 20:43:32.964313
35.00476963,0.3844159544,-0.03635107726,1.080146313,2024-06-05 20:43:33.004770
35.04530026,0.4515256584,0.08069140464,1.436466694,2024-06-05 20:43:33.045300
35.08574989,0.4419385493,0.04394086078,2.038722754,2024-06-05 20:43:33.085750
35.12624343,0.1733666807,0.2037258148,2.021146536,2024-06-05 20:43:33.126243
35.16673291,-0.2130466104,-0.0842865631,1.922079802,2024-06-05 20:43:33.166733
35.20717437,-0.2740311921,-0.1591191888,1.724479079,2024-06-05 20:43:33.207174
35.24768937,-0.2452699095,-0.5769568086,1.615825295,2024-06-05 20:43:33.247689
35.28816666,-0.3177057505,-0.3556546867,1.25138247,2024-06-05 20:43:33.288167
35.32864703,-0.1664426625,-0.682015419,1.008243084,2024-06-05 20:43:33.328647
35.36909677,-0.08468602598,-0.6644390821,1.10145092,2024-06-05 20:43:33.369097
35.40960031,-0.1182408631,-0.2390116602,0.6376751065,2024-06-05 20:43:33.409600
35.45005682,-0.09560466558,-0.03262276202,0.2194380015,2024-06-05 20:43:33.450057
35.49052984,-0.0221035853,0.3675054014,-0.753785491,2024-06-05 20:43:33.490530
35.53103125,0.03062544949,0.5480623841,-1.141397238,2024-06-05 20:43:33.531031
35.57153547,-0.01384802908,0.8161016703,-1.38347137,2024-06-05 20:43:33.571535
35.61200698,0.03195698932,0.8382052183,-1.6555053,2024-06-05 20:43:33.612007
35.65249515,0.1233007237,0.5414046645,-1.638727903,2024-06-05 20:43:33.652495
35.69298677,0.1073222235,0.5427362323,-1.880003095,2024-06-05 20:43:33.692987
35.7334164,-0.02769605815,0.6611102223,-2.159360409,2024-06-05 20:43:33.733416
35.77390661,-0.148067385,0.3920057416,-2.33499074,2024-06-05 20:43:33.773907
35.81440432,-0.2186390758,-0.0512643382,-1.885329247,2024-06-05 20:43:33.814404
35.85486791,-0.1137136221,-0.07177007198,-1.157642007,2024-06-05 20:43:33.854868
35.89535239,-0.266308248,-0.5106461048,-0.4275579154,2024-06-05 20:43:33.895352
35.93583187,-0.3696358502,-0.5039883852,-0.0708379969,2024-06-05 20:43:33.935832
35.97632776,-0.2292914093,-0.3007951677,0.1605838835,2024-06-05 20:43:33.976328
36.01679296,-0.04447348043,-0.2491313666,0.4754934013,2024-06-05 20:43:34.016793
36.05728083,0.1531272531,-0.2163754553,0.5572500229,2024-06-05 20:43:34.057281
36.09778088,0.3066539466,0.06151720881,0.8876054287,2024-06-05 20:43:34.097781
36.13824172,0.4179708064,-0.1500647068,1.277747035,2024-06-05 20:43:34.138242
36.17867192,0.515173316,0.1597849578,1.983064413,2024-06-05 20:43:34.178672
36.21917583,0.2539249361,-0.06724283099,1.676010966,2024-06-05 20:43:34.219176
36.25968052,-0.03408745676,-0.001731003635,1.410634875,2024-06-05 20:43:34.259681
36.30017729,-0.04447348043,-0.3876116574,1.79132247,2024-06-05 20:43:34.300177
36.34064557,-0.04553871229,-0.7312824726,1.728740096,2024-06-05 20:43:34.340646
36.38113276,-0.003195699072,-0.4219654202,1.667489171,2024-06-05 20:43:34.381133
36.42162067,-0.168040514,-0.2808220685,1.30704093,2024-06-05 20:43:34.421621
36.46208208,-0.07776200771,-0.5548532605,0.6573819518,2024-06-05 20:43:34.462082
36.5025577,-0.06950645149,0.06577813625,0.6552514434,2024-06-05 20:43:34.502558
36.54304021,-0.01784265228,0.1829537749,0.1669752747,2024-06-05 20:43:34.543040
36.58353583,0.01837527007,-0.1069227681,-0.4928034246,2024-06-05 20:43:34.583536
36.62401838,0.1560566425,0.5030562878,-0.9647016525,2024-06-05 20:43:34.624018
36.66449187,0.2053236663,0.632748425,-1.252181411,2024-06-05 20:43:34.664492
36.70497698,0.1898777932,1.009974003,-1.419156671,2024-06-05 20:43:34.704977
36.74543896,0.1443390697,0.6840127707,-1.632336497,2024-06-05 20:43:34.745439
36.78592922,-0.0037283157,0.5698996782,-2.029402018,2024-06-05 20:43:34.785929
36.82641052,0.4139761925,0.9210271239,-2.114354372,2024-06-05 20:43:34.826411
36.8668975,0.2175738513,0.2500634491,-2.179866314,2024-06-05 20:43:34.866898
36.90736547,0.1901440918,0.169372052,-2.147376537,2024-06-05 20:43:34.907365
36.94783656,0.2568543255,-0.1191729456,-1.466825843,2024-06-05 20:43:34.947837
36.98832625,-0.07509893179,-0.4011933804,-0.977883935,2024-06-05 20:43:34.988326
37.02886567,-0.2567211688,-0.356187284,-0.5335485935,2024-06-05 20:43:35.028866
37.06931166,-0.284417212,-0.6441996694,-0.06258244067,2024-06-05 20:43:35.069312
37.10975906,-0.1517957002,-0.5777557492,0.2504629195,2024-06-05 20:43:35.109759
37.15023859,0.0817566365,-0.3220998347,0.5591141582,2024-06-05 20:43:35.150239
37.19071682,0.2754958868,0.2894770801,0.9666989446,2024-06-05 20:43:35.190717
37.23120906,0.4477973282,0.323830843,1.574281216,2024-06-05 20:43:35.231209
37.27168125,0.378823489,0.6536536217,1.748446822,2024-06-05 20:43:35.271681
37.31219187,0.06737598777,0.2047910541,1.751908898,2024-06-05 20:43:35.312192
37.35264338,-0.05832150951,-0.1388797611,1.55457449,2024-06-05 20:43:35.352643
37.39314052,0.02636451647,-0.641802907,1.562829971,2024-06-05 20:43:35.393141
37.43359406,0.154458791,-0.391073674,1.835795999,2024-06-05 20:43:35.433594
37.47407963,-0.2021279633,0.04127778113,1.759099126,2024-06-05 20:43:35.474080
37.51456875,-0.1954702586,-0.04407401755,1.603841424,2024-06-05 20:43:35.514569
37.55506239,-0.1960028708,-0.742733717,1.200783968,2024-06-05 20:43:35.555062
37.59554552,-0.09640359133,-0.8087781668,0.7505898476,2024-06-05 20:43:35.595546
37.63601468,-0.1278279573,-0.158320263,0.5287550688,2024-06-05 20:43:35.636015
37.67650979,-0.1387466043,0.112115778,0.06364767253,2024-06-05 20:43:35.676510
37.71699609,-0.05752258375,0.3637770712,-0.5921363831,2024-06-05 20:43:35.716996
37.75744146,0.05725627393,0.617302537,-1.172288895,2024-06-05 20:43:35.757441
37.7979739,0.06204982474,0.7420679331,-1.520353794,2024-06-05 20:43:35.797974
37.83841296,0.01278279629,0.8547163606,-1.577610135,2024-06-05 20:43:35.838413
37.87888552,0.1563229412,0.7298177481,-1.698647261,2024-06-05 20:43:35.878886
37.91933515,0.2122476846,0.6781539917,-1.991320014,2024-06-05 20:43:35.919335
37.9598589,0.2648435533,0.6143731475,-1.995580912,2024-06-05 20:43:35.959859
38.00033474,0.2085193694,0.5680354834,-2.039255381,2024-06-05 20:43:36.000335
38.04087411,0.1976007223,0.2061225921,-2.066418886,2024-06-05 20:43:36.040874
38.08133031,-0.0229025092,-0.3508611321,-1.508369923,2024-06-05 20:43:36.081330
38.12178125,-0.1041265279,-0.4680367708,-0.4914718866,2024-06-05 20:43:36.121781
38.16228974,-0.0410114713,-0.5303528905,0.3306216896,2024-06-05 20:43:36.162290
38.2027214,0.07270215452,-0.3117138147,0.3447360396,2024-06-05 20:43:36.202721
38.24321536,0.03861469775,-0.1716356725,0.1161103994,2024-06-05 20:43:36.243215
38.28368781,0.1656437367,-0.0904116556,0.2813546658,2024-06-05 20:43:36.283688
38.32418729,0.2730991244,0.06098458916,0.8107754588,2024-06-05 20:43:36.324187
38.36466958,0.3199693561,-0.3300890923,1.177348852,2024-06-05 20:43:36.364670
38.40513328,0.380687654,-0.1133141592,1.395188928,2024-06-05 20:43:36.405133
38.44561875,0.2390116602,0.1760297567,1.66589129,2024-06-05 20:43:36.445619
38.48611583,0.2422073632,-0.3876116574,1.853106022,2024-06-05 20:43:36.486116
38.52657786,-0.02236989327,-0.4896077216,1.826741457,2024-06-05 20:43:36.526578
38.56708203,-0.005592473317,-0.2078536004,1.786528945,2024-06-05 20:43:36.567082
38.60755869,-0.2023942769,-0.392937839,1.899177313,2024-06-05 20:43:36.607559
38.64802838,-0.208785668,-0.7094451785,1.176017284,2024-06-05 20:43:36.648028
38.6885364,-0.1440727711,-0.8423330188,0.9206276536,2024-06-05 20:43:36.688536
38.72901656,-0.2567211688,0.1070559174,0.5276898146,2024-06-05 20:43:36.729017
38.76941948,-0.1957365721,-0.1878804713,0.4374113083,2024-06-05 20:43:36.769419
38.80994573,-0.1105179265,-0.2086525112,-0.2098509073,2024-06-05 20:43:36.809946
38.85043547,-0.09560466558,-0.252060771,-0.7186328173,2024-06-05 20:43:36.850435
38.89091463,-0.1762960702,0.7332797647,-1.238067031,2024-06-05 20:43:36.890915
38.93140307,-0.2500634491,0.7284862399,-1.3315413,2024-06-05 20:43:36.931403
38.97185109,-0.2479329854,0.8097102642,-1.435135245,2024-06-05 20:43:36.971851
39.01237781,-0.07935985923,1.034208059,-1.790257215,2024-06-05 20:43:37.012378
39.05282911,-0.317972064,0.2761616707,-2.153768063,2024-06-05 20:43:37.052829
39.09331791,-0.07776200771,0.5680354834,-2.246043921,2024-06-05 20:43:37.093318
39.13378083,-0.1877473146,0.2612484097,-2.253234148,2024-06-05 20:43:37.133781
39.17423614,-0.1539261788,0.1057243794,-2.052038193,2024-06-05 20:43:37.174236
39.2147114,-0.1126483902,-0.153793022,-1.352046967,2024-06-05 20:43:37.214711
39.25523948,-0.1227681041,-0.2531259954,-0.6408708096,2024-06-05 20:43:37.255239
39.29574437,-0.1419423074,-0.2214353085,-0.1850842386,2024-06-05 20:43:37.295744
39.33621338,-0.03488638252,-0.1167761683,0.06497921795,2024-06-05 20:43:37.336213
39.37670494,0.002929390874,0.02330197208,0.4352808297,2024-06-05 20:43:37.376705
39.41716619,0.128626883,-0.02330197208,0.7631062865,2024-06-05 20:43:37.417166
39.45764338,0.3255618513,0.3493964374,1.082809329,2024-06-05 20:43:37.457643
39.49811713,0.3745625615,0.3280917704,1.44951582,2024-06-05 20:43:37.498117
39.5385977,0.4829500318,-0.268838197,1.738593459,2024-06-05 20:43:37.538598
39.57906411,0.4616453648,0.0820229426,1.627542853,2024-06-05 20:43:37.579064
39.61951646,0.1976007223,0.02037258074,1.727674842,2024-06-05 20:43:37.619516
39.66002781,-0.03941362351,-0.1660431921,1.946047544,2024-06-05 20:43:37.660028
39.70050823,0.06790860742,-0.4216991365,1.974542618,2024-06-05 20:43:37.700508
39.74098505,-0.08015878499,-0.3119801283,1.853638649,2024-06-05 20:43:37.740985
39.78148453,-0.09320788831,-0.6732272506,1.542057991,2024-06-05 20:43:37.781485
39.82196182,0.03009283356,-0.7837451696,1.04579258,2024-06-05 20:43:37.821962
39.86243312,0.04926702753,-0.2480661422,0.4909392595,2024-06-05 20:43:37.862433
39.90294666,-0.05059856921,-0.06884068251,0.2063889056,2024-06-05 20:43:37.902947
39.9434451,0.1182408631,-0.0904116556,-0.3078523576,2024-06-05 20:43:37.943445
39.98387593,0.1233007237,0.1067896113,-0.7671009302,2024-06-05 20:43:37.983876
40.02434406,0.1462032348,0.2940043211,-1.046857715,2024-06-05 20:43:38.024344
40.06484364,0.04154408723,0.766035676,-1.49185884,2024-06-05 20:43:38.064844
40.10531151,0.09161003679,1.1396662,-1.545120478,2024-06-05 20:43:38.105312
40.14580468,0.0298265256,0.5794867873,-1.893318534,2024-06-05 20:43:38.145805
40.18624599,0.08841434121,0.4330172241,-2.172942162,2024-06-05 20:43:38.186246
40.22674067,0.1669752747,0.2910749316,-2.118881702,2024-06-05 20:43:38.226741
40.26723458,-0.1496652365,-0.06511236727,-2.320077419,2024-06-05 20:43:38.267235
40.30770994,-0.005326164886,-0.09387365729,-1.901840448,2024-06-05 20:43:38.307710
40.34818239,-0.09533835202,-0.4049217105,-1.250050902,2024-06-05 20:43:38.348182
40.38866125,-0.1850842386,-0.2113156021,-0.9455274343,2024-06-05 20:43:38.388661
40.42913994,-0.02769605815,-0.3764267266,-0.1105179265,2024-06-05 20:43:38.429140
40.46962567,-0.09906667471,-0.1434070021,0.09134373069,2024-06-05 20:43:38.469626
40.51011281,-0.01278279629,-0.05605788901,0.3585840762,2024-06-05 20:43:38.510113
40.55061911,0.1664426625,-0.1239664927,0.6123758554,2024-06-05 20:43:38.550619
40.59108896,0.2328865677,-0.006790860556,0.9536498785,2024-06-05 20:43:38.591089
40.63157677,0.3223661482,0.07643046975,1.298252702,2024-06-05 20:43:38.631577
40.67204401,0.2744306624,-0.1860163212,1.612363338,2024-06-05 20:43:38.672044
40.71253812,0.3431381881,-0.159651801,2.044847965,2024-06-05 20:43:38.712538
40.75299911,0.1946713328,0.02809552103,2.071345568,2024-06-05 20:43:38.752999
40.7934752,-0.1195724085,-0.1894783229,1.865888834,2024-06-05 20:43:38.793475
40.83396692,-0.113447316,-0.1881467849,1.756968737,2024-06-05 20:43:38.833967
40.87442578,-0.2790910602,-0.8159685135,1.59984684,2024-06-05 20:43:38.874426
40.91491479,-0.1478010863,-0.8045172691,1.248719454,2024-06-05 20:43:38.914915
40.95540026,-0.09666989744,-0.8609746099,0.9690957665,2024-06-05 20:43:38.955400
40.99586026,0.04979964346,-0.4030575454,0.6909367442,2024-06-05 20:43:38.995860
41.03638411,-0.1011971384,-0.01904104091,0.4736292362,2024-06-05 20:43:39.036384
41.07684896,-0.04660394415,0.1637795717,0.09480573982,2024-06-05 20:43:39.076849
41.11735838,-0.1414096802,0.5363448262,-0.5452661514,2024-06-05 20:43:39.117358
41.15779838,-0.09853405505,0.4378107786,-1.026618361,2024-06-05 20:43:39.157798
41.19826182,-0.1483336985,0.5011921525,-1.381873488,2024-06-05 20:43:39.198262
41.23875359,-0.322499305,0.5792204738,-1.666157603,2024-06-05 20:43:39.238754
41.27922948,-0.2031932026,0.5874760151,-1.812094569,2024-06-05 20:43:39.279229
41.31970916,-0.2484655976,0.6896052361,-2.14684391,2024-06-05 20:43:39.319709
41.36019718,-0.1901440918,0.5504591465,-2.103435755,2024-06-05 20:43:39.360197
41.40068312,-0.1102516204,0.2495308369,-2.346708298,2024-06-05 20:43:39.400683
41.44115432,0.009320789017,0.2151770741,-2.158028841,2024-06-05 20:43:39.441154
41.48169703,-0.04740286991,-0.02010627277,-1.601977348,2024-06-05 20:43:39.481697
41.52213073,-0.137681365,-0.0355521515,-1.06363523,2024-06-05 20:43:39.522131
41.5626301,-0.1123820841,-0.07496577501,-0.2828193605,2024-06-05 20:43:39.562630
41.60310479,-0.0705716908,-0.3226324618,0.154458791,2024-06-05 20:43:39.603105
41.64358974,0.01198387146,-0.1071890742,0.4736292362,2024-06-05 20:43:39.643590
41.68408203,0.04633763805,-0.0006657706108,0.680018127,2024-06-05 20:43:39.684082
41.72452036,0.1821548492,0.008655018173,0.862306118,2024-06-05 20:43:39.724520
41.7650289,0.2263620198,0.1720351279,1.231143117,2024-06-05 20:43:39.765029
41.80549942,0.1003982127,-0.2105166763,1.611298084,2024-06-05 20:43:39.805499
41.84597713,0.3825518191,-0.3612471521,1.529275179,2024-06-05 20:43:39.845977
41.88646442,0.4288894534,-0.1588528752,1.6073035,2024-06-05 20:43:39.886464
41.92693864,0.3412740231,-0.1332872808,1.735397696,2024-06-05 20:43:39.926939
41.96741765,0.1765623689,-0.02383458801,1.803572655,2024-06-05 20:43:39.967418
42.00787541,-0.02583190054,-0.2115819156,1.972145796,2024-06-05 20:43:40.007875
42.04837244,-0.02876129188,-0.5439345837,1.639260411,2024-06-05 20:43:40.048372
42.08883593,-0.1720351279,-0.5975957513,1.055912256,2024-06-05 20:43:40.088836
42.12931333,-0.1549914032,-0.5583152771,0.9184971452,2024-06-05 20:43:40.129313
42.16981739,-0.2111824453,-0.3002625704,0.6760234833,2024-06-05 20:43:40.169817
42.21028901,-0.1912093312,-0.1090532318,0.3202356696,2024-06-05 20:43:40.210289
42.25079546,-0.2125139832,0.263112545,-0.3668396175,2024-06-05 20:43:40.250795
42.2912738,0.06418029219,0.3477985859,-0.8760210276,2024-06-05 20:43:40.291274
42.33173494,0.1219691783,0.4689688385,-1.455374599,2024-06-05 20:43:40.331735
42.37222656,0.148067385,0.5736280084,-1.680538297,2024-06-05 20:43:40.372227
42.41272859,0.06444659829,0.6290200949,-1.79212141,2024-06-05 20:43:40.412729
42.4531826,0.01651111245,0.5680354834,-1.873079062,2024-06-05 20:43:40.453183
42.49366614,0.037815772,0.5589810014,-2.010227919,2024-06-05 20:43:40.493666
42.53414489,-0.002396774245,0.5547201037,-2.238320827,2024-06-05 20:43:40.534145
42.57462682,-0.1009308323,0.1595186442,-2.092517138,2024-06-05 20:43:40.574627
42.61510755,-0.02343512699,0.1387466043,-1.670951128,2024-06-05 20:43:40.615108
42.65558312,-0.1169093251,0.09027849883,-1.072423339,2024-06-05 20:43:40.655583
42.69608786,-0.2162422985,-0.3822855055,-0.5394073725,2024-06-05 20:43:40.696088
42.73655265,-0.1547250897,-0.2334191799,-0.1669752747,2024-06-05 20:43:40.736553
42.77700911,-0.07802832127,-0.3796224296,0.2789579034,2024-06-05 20:43:40.777009
42.81750635,0.08468602598,-0.2227668613,0.5814840794,2024-06-05 20:43:40.817506
42.85798521,0.1539261788,0.2370143533,0.9323452115,2024-06-05 20:43:40.857985
42.89845276,0.008521864191,-0.176429227,0.8163679838,2024-06-05 20:43:40.898453
42.93890161,0.157654494,0.1326215118,0.5316844583,2024-06-05 20:43:40.938902
42.97938583,0.1251648813,0.0705716908,1.193593621,2024-06-05 20:43:40.979386
43.01990046,0.1890788674,0.1677742004,1.810230374,2024-06-05 20:43:41.019900
43.06038625,0.0817566365,0.03834838793,1.881600976,2024-06-05 20:43:41.060386
43.10086734,0.1291595101,-0.1442059278,1.819817424,2024-06-05 20:43:41.100867
43.14135666,0.03169068322,-0.3878779709,1.710364819,2024-06-05 20:43:41.141357
43.18178448,-0.04979964346,-0.5327496529,1.773479819,2024-06-05 20:43:41.181784
43.22229557,-0.08521863818,-0.6181014776,1.629939675,2024-06-05 20:43:41.222296
43.26278937,0.1651111245,-0.6095796227,1.109173894,2024-06-05 20:43:41.262789
43.30326729,0.2358159572,-0.6420692205,0.5737611651,2024-06-05 20:43:41.303267
43.3437525,0.2531259954,-0.243006289,0.4067858756,2024-06-05 20:43:41.343753
43.38422567,0.157654494,0.475093931,0.2826862037,2024-06-05 20:43:41.384226
43.42470885,0.1174419373,0.3717663288,-0.4206338823,2024-06-05 20:43:41.424709
43.46519817,0.06657706201,0.06950645149,-1.329410791,2024-06-05 20:43:41.465198
43.50568333,0.01571218669,0.1251648813,-1.519022346,2024-06-05 20:43:41.505683
43.54616338,-0.3027924895,0.8429988027,-1.712495208,2024-06-05 20:43:41.546163
43.58663156,-0.1824211627,0.8272866011,-1.945781231,2024-06-05 20:43:41.586632
43.62709817,-0.270835489,0.7181001902,-2.255364656,2024-06-05 20:43:41.627098
43.66760625,-0.270835489,0.7825468183,-2.334724426,2024-06-05 20:43:41.667606
43.70808448,-0.2053236663,0.4391423166,-2.426068306,2024-06-05 20:43:41.708084
43.74853833,-0.08788172156,0.2924064696,-2.101837873,2024-06-05 20:43:41.748538
43.78901448,-0.1163767055,-0.2549901605,-1.391194344,2024-06-05 20:43:41.789014
43.82950989,-0.1009308323,-0.2350170314,-0.5844134688,2024-06-05 20:43:41.829510
43.87001463,-0.05326165259,-0.2983984053,-0.04607132822,2024-06-05 20:43:41.870015
43.91048375,0.01331541315,-0.09760197252,0.3436708152,2024-06-05 20:43:41.910484
43.95096432,0.1501978636,0.05752258375,0.3841496706,2024-06-05 20:43:41.950964
43.99141276,0.1304910481,0.1656437367,0.4909392595,2024-06-05 20:43:41.991413
44.03192291,0.1509967744,-0.2003969699,0.6392729878,2024-06-05 20:43:42.031923
44.07240953,0.1296921223,0.05778888986,0.8593767285,2024-06-05 20:43:42.072410
44.11288328,0.09400681406,-0.6143731475,1.266295791,2024-06-05 20:43:42.112883
44.15336807,0.273365438,-0.2485987544,1.637662649,2024-06-05 20:43:42.153368
44.19380807,0.4637758136,-0.1508636326,1.734865189,2024-06-05 20:43:42.193808
44.23430239,0.2039921284,0.003328853287,1.830203533,2024-06-05 20:43:42.234302
44.27482187,0.1057243794,-0.2280930281,1.86775291,2024-06-05 20:43:42.274822
44.31526578,-0.06497921795,-0.1958697289,2.058962345,2024-06-05 20:43:42.315266
44.35576271,-0.3131785095,-0.4563191831,1.80543685,2024-06-05 20:43:42.355763
44.3962463,-0.1592523307,-0.663107574,1.37681365,2024-06-05 20:43:42.396246
44.43674218,-0.1304910481,-1.005579948,0.8376725912,2024-06-05 20:43:42.436742
44.47720265,0.009587096982,-0.4714987576,0.7330134511,2024-06-05 20:43:42.477203
44.51770041,-0.1334204376,0.06790860742,0.4209001958,2024-06-05 20:43:42.517700
44.55815291,-0.07216953486,0.219171688,-0.2673735023,2024-06-05 20:43:42.558153
44.59863364,0.1182408631,0.2700365782,-0.8541837335,2024-06-05 20:43:42.598634
44.63911172,0.1424749196,0.5051867366,-1.28626883,2024-06-05 20:43:42.639112
44.67958776,0.1105179265,0.4825505614,-1.574148059,2024-06-05 20:43:42.679588
44.72006958,0.05938674137,0.7910686731,-1.764425397,2024-06-05 20:43:42.720070
44.76056291,0.02050573565,0.5424699187,-1.947645426,2024-06-05 20:43:42.760563
44.80105526,-0.06710968167,0.3893426657,-2.090120316,2024-06-05 20:43:42.801055
44.8415025,-0.04287562892,0.2181064636,-2.172143221,2024-06-05 20:43:42.841502
44.88200989,-0.1754971445,0.09746882319,-2.003836393,2024-06-05 20:43:42.882010
44.9224814,-0.2335523367,0.1073222235,-1.786262631,2024-06-05 20:43:42.922481
44.96295463,-0.06551183015,-0.1916087866,-1.143793941,2024-06-05 20:43:42.962955
45.00344338,-0.1629806459,-0.1734998226,-0.7639052272,2024-06-05 20:43:43.003443
45.0439114,-0.1914756298,-0.2952027023,-0.3857475221,2024-06-05 20:43:43.043911
45.08441734,-0.03248960897,-0.6015903354,0.2367480397,2024-06-05 20:43:43.084417
45.12488067,0.1078548431,0.0275629051,0.225563094,2024-06-05 20:43:43.124881
45.16536672,-0.01011971384,0.03089175746,0.6813496947,2024-06-05 20:43:43.165367
45.20582281,0.2199706137,-0.02729659714,1.327014089,2024-06-05 20:43:43.205823
45.24633104,0.2013290375,-0.1061238423,1.468290567,2024-06-05 20:43:43.246331
45.28682896,0.1238333359,-0.4446016252,1.391460657,2024-06-05 20:43:43.286829
45.32729494,0.1392792165,-0.3657743931,1.633135438,2024-06-05 20:43:43.327295
45.36781781,0.3809539676,0.1113168523,2.233261108,2024-06-05 20:43:43.367818
45.40825192,-0.1254311949,-0.3918725848,1.815556526,2024-06-05 20:43:43.408252
45.44872062,-0.03248960897,-0.151928857,1.497318149,2024-06-05 20:43:43.448721
45.48918187,-0.2577863932,-0.4517919421,1.492790937,2024-06-05 20:43:43.489182
45.52968432,-0.2782921195,-0.6423355341,1.428211212,2024-06-05 20:43:43.529684
45.57017468,-0.2271609455,-0.4272916019,1.145924449,2024-06-05 20:43:43.570175
45.61065541,-0.2466014475,-0.2235657871,0.5284887552,2024-06-05 20:43:43.610655
45.65111927,-0.325695008,0.03382114694,0.2573869228,2024-06-05 20:43:43.651119
45.69160468,-0.1784265339,-0.3306216896,-0.02796236612,2024-06-05 20:43:43.691605
45.73208031,-0.1406107545,0.1989322603,-0.5449998379,2024-06-05 20:43:43.732080
45.77257984,-0.0713706091,0.9207608104,-1.004781008,2024-06-05 20:43:43.772580
45.81307614,0.05805519968,1.023822069,-1.259904385,2024-06-05 20:43:43.813076
45.85354541,-0.02343512699,0.6258243918,-1.491592526,2024-06-05 20:43:43.853545
45.89402593,0.09453943372,0.6794854999,-1.873079062,2024-06-05 20:43:43.894026
45.93449328,0.2374138087,0.6343462467,-2.192249537,2024-06-05 20:43:43.934493
45.97498317,0.1581871063,0.2292914093,-2.009428978,2024-06-05 20:43:43.974983
46.01547052,0.06338136643,0.1991985738,-1.896514297,2024-06-05 20:43:44.015471
46.05592614,0.06471290439,0.2029268891,-1.988124251,2024-06-05 20:43:44.055926
46.09641859,-0.06258244067,-0.05046541616,-1.695717812,2024-06-05 20:43:44.096419
46.13690484,-0.1027949899,-0.3452686667,-0.9141030908,2024-06-05 20:43:44.136905
46.17735635,-0.2513949871,-0.5848129392,-0.2820204496,2024-06-05 20:43:44.177356
46.21783546,-0.1328878254,-0.6045197248,0.02077204362,2024-06-05 20:43:44.217835
46.25835052,0.01704372838,-0.3822855055,0.3181052208,2024-06-05 20:43:44.258351
46.29883088,0.1105179265,-0.3087844253,0.5146406889,2024-06-05 20:43:44.298831
46.33929911,0.2366148829,-0.1165098622,0.9206276536,2024-06-05 20:43:44.339299
46.37977916,0.368437469,0.05645735189,1.192528367,2024-06-05 20:43:44.379779
46.42028125,0.2989310026,-0.1354177445,1.525813103,2024-06-05 20:43:44.420281
46.46074854,0.1507304758,-0.232087642,1.818752289,2024-06-05 20:43:44.460749
46.50125255,0.3609808385,0.1765623689,2.107829809,2024-06-05 20:43:44.501253
46.54172,0.07030537724,-0.3015941083,1.806502104,2024-06-05 20:43:44.541720
46.58217708,0.2098509073,-0.5039883852,1.598781586,2024-06-05 20:43:44.582177
46.62267776,0.1446053833,-0.1916087866,1.59239018,2024-06-05 20:43:44.622678
46.66314823,-0.1240996495,-0.07975932211,1.520220637,2024-06-05 20:43:44.663148
46.70362453,-0.1139799356,-0.4773575366,1.146457076,2024-06-05 20:43:44.703625
46.74408781,0.09001219273,0.02809552103,1.14006567,2024-06-05 20:43:44.744088
46.78456588,-0.2074541301,0.3171731234,0.6453980803,2024-06-05 20:43:44.784566
46.82505323,-0.2452699095,0.3286243975,-0.1960028708,2024-06-05 20:43:44.825053
46.86554156,-0.006125089712,0.103061296,-0.7127740383,2024-06-05 20:43:44.865542
46.90603812,0.07749570161,0.2213021666,-1.218892932,2024-06-05 20:43:44.906038
46.94652479,0.1011971384,0.8211615086,-1.545386791,2024-06-05 20:43:44.946525
46.98698906,0.163513273,0.6672353148,-1.650445461,2024-06-05 20:43:44.986989
47.02747765,0.03568530455,0.4167724252,-1.80916512,2024-06-05 20:43:45.027478
47.06797843,-0.1067896113,0.4162397981,-2.10157156,2024-06-05 20:43:45.067978
47.10842963,0.1161103994,0.6645722389,-2.074940681,2024-06-05 20:43:45.108430
47.14891062,-0.1800243855,0.4929365814,-1.965221763,2024-06-05 20:43:45.148911
47.18937823,0.09374050796,0.004926702939,-1.803306341,2024-06-05 20:43:45.189378
47.22988739,0.03888100386,0.04926702753,-1.367226601,2024-06-05 20:43:45.229887
47.27036802,-0.05352795869,-0.343937099,-0.7468615174,2024-06-05 20:43:45.270368
47.31081979,-0.1778939217,-0.7677667141,-0.3605813682,2024-06-05 20:43:45.310820
47.35132302,-0.2442046702,-0.5983946323,-0.01251648832,2024-06-05 20:43:45.351323
47.39180984,-0.1994648874,-0.3165073693,0.3900084496,2024-06-05 20:43:45.391810
47.43228843,-0.03222329915,-0.2118482143,0.5157059431,2024-06-05 20:43:45.432288
47.47273224,0.09533835202,-0.142874375,0.8200962543,2024-06-05 20:43:45.472732
47.51322239,0.2130466104,-0.133819893,1.287067771,2024-06-05 20:43:45.513222
47.55375765,0.116643019,-0.00599193573,1.289198279,2024-06-05 20:43:45.553758
47.59420151,0.1270290315,-0.03129122034,1.398118377,2024-06-05 20:43:45.594202
47.6346827,0.2792242169,-0.08748225868,1.649113894,2024-06-05 20:43:45.634683
47.67515718,0.2549901605,0.1802906841,1.752974153,2024-06-05 20:43:45.675157
47.71566073,0.1616491079,0.2015953511,1.846714616,2024-06-05 20:43:45.715661
47.75611213,-0.0708379969,0.0410114713,1.970814228,2024-06-05 20:43:45.756112
47.79661146,0.03115806542,-0.4355471432,1.736196637,2024-06-05 20:43:45.796611
47.83709739,-0.01917419396,-1.144592881,1.195191503,2024-06-05 20:43:45.837097
47.87755067,0.02929390781,-0.5684349537,0.7487256527,2024-06-05 20:43:45.877551
47.91806953,-0.0458050184,0.1113168523,0.665104866,2024-06-05 20:43:45.918070
47.95854557,-0.0926752761,0.4197018147,-0.1011971384,2024-06-05 20:43:45.958546
47.99898797,-0.01517957076,0.09187635034,-0.6848116517,2024-06-05 20:43:45.998988
48.03947052,0.1853505522,0.4346150756,-1.161370277,2024-06-05 20:43:46.039471
48.07994494,0.1302247345,0.7686987519,-1.559767485,2024-06-05 20:43:46.079945
48.12044265,0.155790329,0.7806826234,-1.771349311,2024-06-05 20:43:46.120443
48.16092192,0.1741656065,0.6693658233,-1.834198117,2024-06-05 20:43:46.160922
48.20137541,0.08814803511,0.3983971477,-1.978270888,2024-06-05 20:43:46.201375
48.24186354,0.06577813625,0.4455337226,-2.076005936,2024-06-05 20:43:46.241864
48.28235396,0.1035939083,0.1158440933,-2.126604557,2024-06-05 20:43:46.282354
48.32284833,-0.09560466558,0.1035939083,-2.003303766,2024-06-05 20:43:46.322848
48.36333536,0.09986559302,0.02649767138,-1.230876803,2024-06-05 20:43:46.363335
48.40381172,-0.169372052,-0.3378120363,-0.7247579098,2024-06-05 20:43:46.403812
48.44427229,-0.248199299,-0.4560528994,-0.4611127377,2024-06-05 20:43:46.444272
48.4848001,-0.09560466558,-0.2102503628,0.1126483902,2024-06-05 20:43:46.484800
48.52524088,0.04766917601,-0.2440715134,0.3948020041,2024-06-05 20:43:46.525241
48.56575067,0.2252967805,0.05272903293,0.7766880393,2024-06-05 20:43:46.565751
48.60621125,0.5058525205,0.028361829,1.304377794,2024-06-05 20:43:46.606211
48.64668791,0.4392754734,-0.253392309,1.392525911,2024-06-05 20:43:46.646688
48.68717859,0.2906754613,-0.0904116556,1.411966324,2024-06-05 20:43:46.687179
48.72765255,0.4232969582,0.1717688292,1.885329247,2024-06-05 20:43:46.727653
48.76815109,0.1153114736,-0.2536586225,2.043250084,2024-06-05 20:43:46.768151
48.80856791,-0.1254311949,-0.2235657871,1.845383048,2024-06-05 20:43:46.808568
48.84904854,-0.05885412544,-0.1045259908,1.666956544,2024-06-05 20:43:46.849049
48.88956817,-0.0980014354,-0.5681686401,1.663760781,2024-06-05 20:43:46.889568
48.93004963,0.1696383655,-0.5829487443,1.314231277,2024-06-05 20:43:46.930050
48.97052208,0.1488663107,-0.2030600458,0.975487113,2024-06-05 20:43:46.970522
49.0109988,-0.2290250957,-0.005459319334,0.6523220539,2024-06-05 20:43:47.010999
49.05148026,-0.1459369212,0.1632469594,0.2026605755,2024-06-05 20:43:47.051480
49.09197156,-0.16031757,0.2524602413,-0.4430037737,2024-06-05 20:43:47.091972
49.13246156,-0.03169068322,-0.2877460718,-0.8845428824,2024-06-05 20:43:47.132462
49.17292885,0.06497921795,0.6991923451,-1.541125894,2024-06-05 20:43:47.172929
49.21340067,0.2207695395,1.409303308,-1.409036994,2024-06-05 20:43:47.213401
49.25389036,0.06284874678,0.716768682,-1.409569621,2024-06-05 20:43:47.253890
49.29438651,0.1142462417,0.3352820873,-1.905036092,2024-06-05 20:43:47.294387
49.33486,0.4102478623,0.5398068428,-2.170279026,2024-06-05 20:43:47.334860
49.37533755,0.05565842614,0.6351451874,-2.418345213,2024-06-05 20:43:47.375338
49.41581937,0.06444659829,0.279889971,-2.350170374,2024-06-05 20:43:47.415819
49.45631755,0.3814865649,-0.1982664913,-1.527277827,2024-06-05 20:43:47.456318
49.49679906,-0.1528609395,0.02143781446,-1.466026902,2024-06-05 20:43:47.496799
49.5372552,0.05832150951,-0.3625786901,-0.5292876363,2024-06-05 20:43:47.537255
49.57775224,0.1278279573,-0.3854812086,0.07643046975,2024-06-05 20:43:47.577752
49.61825146,0.05698996782,-0.2861482203,0.3034582436,2024-06-05 20:43:47.618251
49.65870843,0.1336867511,-0.1151783243,0.6384740472,2024-06-05 20:43:47.658708
49.69915338,0.2045247406,-0.112781547,0.9917319417,2024-06-05 20:43:47.699153
49.73966307,0.1866820902,0.03142437339,1.271888256,2024-06-05 20:43:47.739663
49.78012661,0.1206376404,-0.3098496497,1.405574918,2024-06-05 20:43:47.780127
49.82061328,0.1989322603,-0.3045234978,1.61476016,2024-06-05 20:43:47.820613
49.86110646,0.2360822707,-0.1809564531,1.65630424,2024-06-05 20:43:47.861106
49.90159541,0.02663082629,-0.2238320857,1.641124606,2024-06-05 20:43:47.901595
49.94207916,0.004527240526,-0.05792204663,1.598781586,2024-06-05 20:43:47.942079
49.98255166,-0.0820229426,-0.1684399694,1.65630424,2024-06-05 20:43:47.982552
50.02301791,-0.01251648832,-0.2264951766,1.802241087,2024-06-05 20:43:48.023018
50.06349838,-0.06098458916,-0.6870753169,1.806768417,2024-06-05 20:43:48.063498
50.10397146,-0.01651111245,-0.7382065058,1.018362761,2024-06-05 20:43:48.103971
50.1444475,-0.07882724702,-0.5718969703,0.7079805136,2024-06-05 20:43:48.144447
50.18492828,-0.07483261824,-0.02276935615,0.2842840552,2024-06-05 20:43:48.184928
50.22542151,-0.1227681041,0.5608451962,-0.5175700784,2024-06-05 20:43:48.225422
50.2659088,-0.1584534049,0.602389276,-1.144592881,2024-06-05 20:43:48.265909
50.30640276,-0.1059906855,0.4284899831,-1.435135245,2024-06-05 20:43:48.306403
50.34687343,-0.1115831584,0.4665720761,-1.645385504,2024-06-05 20:43:48.346873
50.38733948,-0.1256974936,0.6290200949,-1.94871068,2024-06-05 20:43:48.387339
50.4278225,-0.1094526947,0.4412727654,-2.127936125,2024-06-05 20:43:48.427822
50.46830885,0.06817491353,0.7077142,-2.045646906,2024-06-05 20:43:48.468309
50.50877187,-0.007190322969,0.5808182955,-2.184393406,2024-06-05 20:43:48.508772
50.54924109,-0.06364767253,0.34513551,-2.107164145,2024-06-05 20:43:48.549241
50.58974807,0.009054481052,-0.1223686412,-1.845383048,2024-06-05 20:43:48.589748
50.63021041,-0.1011971384,-0.129292652,-1.137935162,2024-06-05 20:43:48.630210
50.67073854,-0.05059856921,-0.4619116783,-0.2929390669,2024-06-05 20:43:48.670739
50.71121281,-0.1099853069,-0.6055849791,0.16031757,2024-06-05 20:43:48.711213
50.75170146,-0.002396774245,-0.268838197,0.5468640327,2024-06-05 20:43:48.751701
50.79214046,0.12117026,-0.2062557489,0.8963935971,2024-06-05 20:43:48.792140
50.83261843,0.1664426625,0.1949376464,0.8676322699,2024-06-05 20:43:48.832618
50.87315083,0.2296908647,0.1094526947,1.254844546,2024-06-05 20:43:48.873151
50.9135801,0.2882786989,0.1099853069,1.379210472,2024-06-05 20:43:48.913580
50.95409968,0.09320788831,-0.433683008,1.546318889,2024-06-05 20:43:48.954100
50.99455005,0.2629793882,-0.3167736828,1.423151374,2024-06-05 20:43:48.994550
51.03502536,0.1448716968,-0.3497959077,1.278279662,2024-06-05 20:43:49.035025
51.0755338,0.1794917583,-0.4568518102,1.878671646,2024-06-05 20:43:49.075534
51.11598015,0.06631075591,-0.1631138027,2.280663967,2024-06-05 20:43:49.115980
51.15652187,-0.02396774292,-0.3103822768,2.22154355,2024-06-05 20:43:49.156522
51.19694406,-0.380687654,-0.418769747,0.993596077,2024-06-05 20:43:49.196944
51.23741994,-0.2221010923,-0.8151695728,0.5266245604,2024-06-05 20:43:49.237420
51.27790797,-0.1555240154,-0.5327496529,0.2840177417,2024-06-05 20:43:49.277908
51.31834937,-0.2508623898,-0.05632419512,-0.01331541315,2024-06-05 20:43:49.318349
51.35885396,-0.1057243794,0.6013240218,-0.4254274368,2024-06-05 20:43:49.358854
51.39934541,-0.01091863867,0.7612421513,-0.7974600792,2024-06-05 20:43:49.399345
51.43984994,-0.04660394415,0.6194329858,-1.260437012,2024-06-05 20:43:49.439850
51.4803302,-0.1025286764,0.6491263509,-1.687462211,2024-06-05 20:43:49.480330
51.52081885,-0.1057243794,0.8893364072,-1.860030055,2024-06-05 20:43:49.520819
51.56126463,0.03675054014,0.6746919751,-2.201037645,2024-06-05 20:43:49.561265
51.60177958,0.2050573528,0.4772244096,-2.319544792,2024-06-05 20:43:49.601780
51.64223963,0.1414096802,0.1531272531,-2.246576548,2024-06-05 20:43:49.642240
51.6827401,-0.1041265279,0.3749620318,-1.98359704,2024-06-05 20:43:49.682740
51.72321343,0.1062569916,-0.009187635034,-1.481739163,2024-06-05 20:43:49.723213
51.76368614,0.03834838793,-0.2669740319,-0.6475285292,2024-06-05 20:43:49.763686
51.80416666,-0.0458050184,-0.2299571782,-0.2886781394,2024-06-05 20:43:49.804167
51.84465984,-0.007190322969,-0.4121120274,0.2989310026,2024-06-05 20:43:49.844660
51.88513932,-0.07030537724,-0.1617822647,0.603853941,2024-06-05 20:43:49.885139
51.92558864,-0.04793548584,0.1802906841,0.6672353148,2024-06-05 20:43:49.925589
51.96608484,0.07882724702,-0.2089188248,0.8572462797,2024-06-05 20:43:49.966085
52.00656692,0.1864157766,-0.05392742157,1.219691753,2024-06-05 20:43:50.006567
52.04706385,0.2205032408,-0.1354177445,1.431673169,2024-06-05 20:43:50.047064
52.08755286,0.1283605844,-0.5774894357,1.458304048,2024-06-05 20:43:50.087553
52.1279989,0.107588537,-0.1756303012,1.646450758,2024-06-05 20:43:50.127999
52.16845823,0.2045247406,-0.2464682907,1.971879482,2024-06-05 20:43:50.168458
52.20900494,0.001597849536,-0.153793022,1.912226439,2024-06-05 20:43:50.209005
52.24945005,0.01731003635,-0.3780245781,1.700511336,2024-06-05 20:43:50.249450
52.28993979,-0.06284874678,-0.2509955168,1.365362406,2024-06-05 20:43:50.289940
52.33040692,-0.233286038,-0.5572500229,1.127815485,2024-06-05 20:43:50.330407
52.37088177,-0.2660419345,-0.270169735,0.7500572205,2024-06-05 20:43:50.370882
52.4113864,-0.314776361,-0.2078536004,0.7567148805,2024-06-05 20:43:50.411386
52.45185911,-0.1328878254,-0.02117150649,0.4161066413,2024-06-05 20:43:50.451859
52.49232479,-0.08947957307,0.3997286856,-0.4472647011,2024-06-05 20:43:50.492325
52.53280812,0.07270215452,0.9756202698,-0.9647016525,2024-06-05 20:43:50.532808
52.57328948,0.1938724071,1.000386953,-1.212501526,2024-06-05 20:43:50.573289
52.61377989,0.06178351492,0.8296833634,-1.679206729,2024-06-05 20:43:50.613780
52.65425578,0.02796236612,0.6685668826,-2.161490917,2024-06-05 20:43:50.654256
52.69474349,0.09134373069,0.2271609455,-2.216217279,2024-06-05 20:43:50.694743
52.73523588,0.003195699072,0.6255580783,-2.374937057,2024-06-05 20:43:50.735236
52.77568739,0.1616491079,0.6533873081,-2.199173689,2024-06-05 20:43:50.775687
52.81617062,0.1517957002,0.2591179311,-1.654440045,2024-06-05 20:43:50.816171
52.8566589,-0.09187635034,0.05432688445,-1.47481513,2024-06-05 20:43:50.856659
52.8971439,0.1041265279,-0.0323564522,-0.90957582,2024-06-05 20:43:50.897144
52.93761932,-0.05725627393,0.008655018173,-0.3868127465,2024-06-05 20:43:50.937619
52.97808161,-0.1081211492,-0.3758940995,0.09826774895,2024-06-05 20:43:50.978082
53.01857646,-0.09986559302,-0.3777582645,0.233286038,2024-06-05 20:43:51.018576
53.05907958,0.07030537724,-0.2723001838,0.3921388984,2024-06-05 20:43:51.059080
53.09955927,0.1989322603,-0.07682993263,0.6898715496,2024-06-05 20:43:51.099559
53.14002755,0.3572525382,0.02010627277,1.10890758,2024-06-05 20:43:51.140028
53.18049067,0.6009245515,0.2905423045,1.681869745,2024-06-05 20:43:51.180491
53.22097422,0.4070521593,-0.3676385581,1.700245023,2024-06-05 20:43:51.220974
53.2614663,0.5175700784,-0.3378120363,1.94498229,2024-06-05 20:43:51.261466
53.30193854,0.3306216896,-0.6143731475,1.585998774,2024-06-05 20:43:51.301939
53.34243729,0.1440727711,-0.4765586257,1.446852803,2024-06-05 20:43:51.342437
53.38291349,0.06338136643,-0.2070546746,1.59691751,2024-06-05 20:43:51.382913
53.42337583,-0.1856168509,-0.01850842312,1.648048639,2024-06-05 20:43:51.423376
53.46385724,-0.1563229412,-0.5936011076,1.347519755,2024-06-05 20:43:51.463857
53.50433239,-0.1983996481,-0.9264864326,0.8758878708,2024-06-05 20:43:51.504332
53.54481906,-0.08708280325,-0.5713643432,0.5985277891,2024-06-05 20:43:51.544819
53.58531718,-0.2189053893,0.1323551983,0.6299521923,2024-06-05 20:43:51.585317
53.62580724,-0.03914731368,0.6949313879,-0.02023942769,2024-06-05 20:43:51.625807
53.66626599,0.04660394415,0.2532591522,-0.863504529,2024-06-05 20:43:51.666266
53.70673385,0.1733666807,0.1352845877,-1.393324852,2024-06-05 20:43:51.706734
53.74722833,-0.1006645188,0.5525896549,-1.81289351,2024-06-05 20:43:51.747228
53.78770479,-0.1584534049,0.7111762166,-1.810763001,2024-06-05 20:43:51.787705
53.82818708,-0.1230344176,0.414375633,-1.978270888,2024-06-05 20:43:51.828187
53.86868291,-0.1336867511,0.3435376585,-2.195178986,2024-06-05 20:43:51.868683
53.90913724,-0.1611164957,0.3975982368,-2.37440443,2024-06-05 20:43:51.909137
53.94963843,-0.1893451661,0.05059856921,-2.193314791,2024-06-05 20:43:51.949638
53.9901377,-0.08921326697,-0.3415403366,-1.800643325,2024-06-05 20:43:51.990138
54.03057442,-0.1637795717,-0.1793586165,-1.226349473,2024-06-05 20:43:52.030574
54.07107307,-0.2697702646,-0.3082517982,-0.3732310236,2024-06-05 20:43:52.071073
54.11154942,-0.08015878499,-0.2568543255,0.234617576,2024-06-05 20:43:52.111549
54.15203625,-0.08814803511,-0.3165073693,0.3604482114,2024-06-05 20:43:52.152036
54.19246823,0.04713656008,-0.1471353173,0.3572525382,2024-06-05 20:43:52.192468
54.23300073,0.09214265645,-0.173233524,0.5652392507,2024-06-05 20:43:52.233001
54.27349349,0.2621804774,0.2620473206,0.9469921589,2024-06-05 20:43:52.273493
54.3139877,0.3481980562,-0.1239664927,1.301714778,2024-06-05 20:43:52.313988
54.35445125,0.2933385372,-0.1077216864,1.205577493,2024-06-05 20:43:52.354451
54.39492276,0.2757622004,0.2556559145,1.414629459,2024-06-05 20:43:52.394923
54.43541463,0.223698929,-0.003062544856,1.852040768,2024-06-05 20:43:52.435415
54.47593463,0.05938674137,-0.3665733039,1.999309182,2024-06-05 20:43:52.475935
54.51635151,-0.06258244067,-0.334882617,1.832067609,2024-06-05 20:43:52.516352
54.55685646,-0.07856093347,-0.4006607831,1.787860513,2024-06-05 20:43:52.556856
54.59731224,-0.0117175635,-0.4238295853,1.520486951,2024-06-05 20:43:52.597312
54.63780041,-0.1283605844,-0.4770912528,1.227414727,2024-06-05 20:43:52.637800
54.67824776,-0.195203945,-0.5861444473,0.2351501882,2024-06-05 20:43:52.678248
54.7187738,-0.1302247345,-0.09413997084,0.052196417,2024-06-05 20:43:52.718774
54.7592188,-0.02503297664,0.06977276504,-0.1307573467,2024-06-05 20:43:52.759219
54.79970166,0.01997311972,-0.004660394508,-0.37296471,2024-06-05 20:43:52.799702
54.84021708,0.0298265256,0.9987891316,-1.040466309,2024-06-05 20:43:52.840217
54.8806951,0.06844121963,0.885608077,-1.054048061,2024-06-05 20:43:52.880695
54.92119276,-0.1374150664,0.4801537991,-1.615825295,2024-06-05 20:43:52.921193
54.96163312,-0.231421873,0.6991923451,-1.880269408,2024-06-05 20:43:52.961633
55.00213015,-0.1893451661,0.5525896549,-2.141784191,2024-06-05 20:43:53.002130
55.04260729,-0.169372052,0.3933372796,-2.45083499,2024-06-05 20:43:53.042607
55.08308708,-0.08255556226,0.1704372764,-2.162556171,2024-06-05 20:43:53.083087
55.12356239,-0.1459369212,0.1368824393,-1.903704524,2024-06-05 20:43:53.123562
55.164035,-0.1531272531,0.04394086078,-1.661364079,2024-06-05 20:43:53.164035
55.20449286,-0.1011971384,0.02649767138,-1.012503982,2024-06-05 20:43:53.204493
55.24502119,-0.296667397,-0.2784252763,-0.292140156,2024-06-05 20:43:53.245021
55.28548333,-0.01784265228,-0.2928059399,0.3617797792,2024-06-05 20:43:53.285483
55.32597442,0.1086537689,-0.1287600398,0.6336805224,2024-06-05 20:43:53.325974
55.36644427,0.222367391,0.04340824485,0.7846772671,2024-06-05 20:43:53.366444
55.40694724,0.3234313726,-0.2278267145,0.8732247949,2024-06-05 20:43:53.406947
55.44740453,0.3255618513,-0.1830869317,0.80864501,2024-06-05 20:43:53.447405
55.48790698,0.3378120363,-0.1061238423,1.338199019,2024-06-05 20:43:53.487907
55.52834859,0.5311518312,-0.3322195411,2.013423681,2024-06-05 20:43:53.528349
55.56888416,0.214644447,-0.1993317306,2.091052532,2024-06-05 20:43:53.568884
55.60936448,-0.02583190054,0.05246272683,1.846448302,2024-06-05 20:43:53.609364
55.64983786,-0.2993304729,-0.4118457139,1.743386984,2024-06-05 20:43:53.649838
55.6903063,-0.1091863886,-1.028748751,1.589194536,2024-06-05 20:43:53.690306
55.730795,0.05485950038,-0.5101134777,1.626477718,2024-06-05 20:43:53.730795
55.77128557,-0.2679060996,-0.2699034214,1.110771775,2024-06-05 20:43:53.771286
55.81173609,0.03488638252,0.2263620198,0.9110405445,2024-06-05 20:43:53.811736
55.85220864,-0.1954702586,0.08841434121,0.5772231221,2024-06-05 20:43:53.852209
55.89268536,-0.08868064731,-0.229424566,0.2045247406,2024-06-05 20:43:53.892685
55.93316588,0.07722939551,0.2122476846,-0.5204994678,2024-06-05 20:43:53.933166
55.97364146,0.03834838793,0.760176897,-1.092662811,2024-06-05 20:43:53.973641
56.01415463,0.08814803511,0.5107792616,-1.376547337,2024-06-05 20:43:54.014155
56.05469505,-0.005592473317,0.6608439088,-1.745783806,2024-06-05 20:43:54.054695
56.09512125,0.06737598777,0.9790822864,-1.943650842,2024-06-05 20:43:54.095121
56.13560036,0.05246272683,0.5427362323,-2.018749714,2024-06-05 20:43:54.135600
56.17605672,0.06338136643,0.7005238533,-2.267348528,2024-06-05 20:43:54.176057
56.21651385,0.04500609636,0.231421873,-2.192782164,2024-06-05 20:43:54.216514
56.25701562,-0.07456631213,0.3286243975,-2.03259778,2024-06-05 20:43:54.257016
56.2975151,0.01011971384,-0.004394086078,-1.752974153,2024-06-05 20:43:54.297515
56.33799807,-0.06364767253,-0.261115253,-1.013036609,2024-06-05 20:43:54.337998
56.37846323,-0.1105179265,-0.3037245572,-0.4179708064,2024-06-05 20:43:54.378463
56.41898036,-0.0005326165119,-0.4310199022,0.265642494,2024-06-05 20:43:54.418980
56.45947161,0.1017297506,-0.2523270845,0.5125102401,2024-06-05 20:43:54.459472
56.4999188,0.1736329794,0.02090519853,0.6059844494,2024-06-05 20:43:54.499919
56.54037182,0.1749645174,0.001198387123,0.8358084559,2024-06-05 20:43:54.540372
56.58086187,0.1754971445,0.04713656008,1.2268821,2024-06-05 20:43:54.580862
56.62134651,0.1262301207,-0.1274285018,1.266828418,2024-06-05 20:43:54.621347
56.66186213,0.0708379969,-0.2752295732,1.471220016,2024-06-05 20:43:54.661862
56.70235083,0.128626883,-0.1655105799,1.954835773,2024-06-05 20:43:54.702351
56.7428076,0.0074566314,-0.5018579364,2.176004648,2024-06-05 20:43:54.742808
56.78327104,-0.1011971384,-0.1362166703,1.640325665,2024-06-05 20:43:54.783271
56.82375125,-0.1496652365,0.006790860556,1.620086312,2024-06-05 20:43:54.823751
56.86423958,-0.08149032295,-0.5465977192,1.615292668,2024-06-05 20:43:54.864240
56.90471541,-0.06311506033,-0.5724295974,1.332606554,2024-06-05 20:43:54.904715
56.94519255,-0.1248985752,-0.3346163332,1.120625138,2024-06-05 20:43:54.945193
56.98565729,-0.2023942769,-0.1391460598,0.6009245515,2024-06-05 20:43:54.985657
57.02614505,0.0146469539,-0.07709623873,0.2467346042,2024-06-05 20:43:55.026145
57.06664484,-0.02396774292,0.2439383566,-0.4877435565,2024-06-05 20:43:55.066645
57.10712646,-0.02396774292,0.2082530558,-0.9548482299,2024-06-05 20:43:55.107126
57.14760234,-0.01438064594,0.4284899831,-1.265230536,2024-06-05 20:43:55.147602
57.18804526,-0.0822892487,0.7921339273,-1.544587851,2024-06-05 20:43:55.188045
57.22853005,0.04633763805,0.8011884093,-1.750843644,2024-06-05 20:43:55.228530
57.26904547,0.168040514,0.6573819518,-1.922878742,2024-06-05 20:43:55.269045
57.30951239,0.4235632718,0.7188991308,-2.119946957,2024-06-05 20:43:55.309512
57.34998546,0.3857475221,0.741269052,-2.094115019,2024-06-05 20:43:55.349985
57.39048041,0.2252967805,0.2402100414,-1.890921712,2024-06-05 20:43:55.390480
57.43097369,0.2414084375,0.08974587917,-1.545653105,2024-06-05 20:43:55.430974
57.47146109,0.07856093347,-0.05232957378,-1.017830133,2024-06-05 20:43:55.471461
57.51193531,-0.1912093312,-0.3143768907,-0.5367442966,2024-06-05 20:43:55.511935
57.55240333,-0.139012903,-0.4406070113,-0.1142462417,2024-06-05 20:43:55.552403
57.59292984,-0.02636451647,-0.3692364097,0.1765623689,2024-06-05 20:43:55.592930
57.63335677,0.04953333735,-0.3612471521,0.4041227698,2024-06-05 20:43:55.633357
57.67383661,0.1765623689,-0.2379464209,0.5125102401,2024-06-05 20:43:55.673837
57.71432364,0.235283345,-0.05312849581,0.7726933956,2024-06-05 20:43:55.714324
57.75479047,0.2260957062,-0.3886769116,1.156576753,2024-06-05 20:43:55.754790
57.79529531,0.2483324558,-0.2368811965,1.574014902,2024-06-05 20:43:55.795295
57.83577531,0.1629806459,-0.2944037914,1.72900641,2024-06-05 20:43:55.835775
57.8762864,0.1014634445,-0.1625811905,1.876541138,2024-06-05 20:43:55.876286
57.91674479,-0.04074516147,-0.1665758193,1.730870485,2024-06-05 20:43:55.916745
57.95719859,-0.208785668,-0.1727008969,1.715957284,2024-06-05 20:43:55.957199
57.99766932,-0.2050573528,-0.4805532396,1.574813843,2024-06-05 20:43:55.997669
58.03817489,-0.1976007223,-0.4547213614,1.396254182,2024-06-05 20:43:56.038175
58.07865521,-0.3762935698,-0.5162385702,1.037004352,2024-06-05 20:43:56.078655
58.11916453,-0.398796618,-0.5053198934,0.8382052183,2024-06-05 20:43:56.119165
58.15959869,-0.239144817,-0.01531272475,0.4139761925,2024-06-05 20:43:56.159599
58.20008599,-0.2537917793,0.4410064816,-0.01517957076,2024-06-05 20:43:56.200086
58.24057765,-0.1219691783,0.3989297748,-0.7295514941,2024-06-05 20:43:56.240578
58.28105942,-0.01704372838,0.593334794,-1.28254056,2024-06-05 20:43:56.281059
58.32152593,-0.003462007269,0.6568493247,-1.695451498,2024-06-05 20:43:56.321526
58.36203276,0.03142437339,0.5267577171,-2.020081282,2024-06-05 20:43:56.362033
58.40248203,0.1155777797,0.7063826323,-2.114886999,2024-06-05 20:43:56.402482
58.44295698,0.1810896099,0.7090457082,-1.723413825,2024-06-05 20:43:56.442957
58.48344875,0.226894632,0.4212996662,-1.872812867,2024-06-05 20:43:56.483449
58.52399963,0.4235632718,0.7303503752,-2.109028339,2024-06-05 20:43:56.524000
58.56442062,0.2213021666,0.181622237,-1.875742197,2024-06-05 20:43:56.564421
58.60490942,0.33807832,0.3105154335,-1.237268209,2024-06-05 20:43:56.604909
58.64536317,0.3244965971,0.1174419373,-0.4030575454,2024-06-05 20:43:56.645363
58.68590896,0.03808208182,-0.4975969791,0.06950645149,2024-06-05 20:43:56.685909
58.72632906,0.0458050184,-0.4195686579,0.4113130867,2024-06-05 20:43:56.726329
58.76680041,-0.02396774292,-0.5489944816,0.6733604074,2024-06-05 20:43:56.766800
58.80733406,-0.02769605815,-0.4808195531,0.6033213735,2024-06-05 20:43:56.807334
58.84778406,0.1581871063,-0.1322220564,0.8091776371,2024-06-05 20:43:56.847784
58.88824375,0.07749570161,-0.1569887102,1.211702585,2024-06-05 20:43:56.888244
58.92877625,0.259783715,-0.2802894413,1.816355467,2024-06-05 20:43:56.928776
58.96925333,0.0074566314,0.0868164897,1.776675582,2024-06-05 20:43:56.969253
59.00970375,-0.1432738453,-0.153793022,1.418890357,2024-06-05 20:43:57.009704
59.05019468,-0.1752308309,-0.4592485726,1.800909638,2024-06-05 20:43:57.050195
59.09066885,-0.08388710022,-0.3993292153,2.034195662,2024-06-05 20:43:57.090669
59.13113635,-0.0929415822,-0.4981296062,1.93832469,2024-06-05 20:43:57.131136
59.17161375,-0.1270290315,-0.1372819096,1.464295983,2024-06-05 20:43:57.171614
59.21208479,-0.04500609636,-0.7283530831,0.759378016,2024-06-05 20:43:57.212085
59.25258755,0.08894696087,-0.4773575366,0.2560553849,2024-06-05 20:43:57.252588
59.29306343,-0.06977276504,-0.02010627277,0.09560466558,2024-06-05 20:43:57.293063
59.33354656,-0.0074566314,0.154458791,-0.304390341,2024-06-05 20:43:57.333547
59.37402609,0.1275616586,0.5941337347,-0.7702966332,2024-06-05 20:43:57.374026
59.41450979,0.12117026,0.73221457,-1.282806873,2024-06-05 20:43:57.414510
59.45500557,0.1360835135,0.7801500559,-1.399183631,2024-06-05 20:43:57.455006
59.49548375,-0.0260982085,0.7657693624,-1.831801295,2024-06-05 20:43:57.495484
59.53594015,0.1629806459,0.6512568593,-2.139919996,2024-06-05 20:43:57.535940
59.57642187,0.1392792165,0.2519276142,-2.000907183,2024-06-05 20:43:57.576422
59.61691125,0.1834863871,0.235949114,-2.234060049,2024-06-05 20:43:57.616911
59.65738442,0.1893451661,0.1869483888,-2.193048477,2024-06-05 20:43:57.657384
59.6978713,-0.07456631213,0.3107817471,-1.82993722,2024-06-05 20:43:57.697871
59.73834067,-0.1382139921,-0.1090532318,-1.175218344,2024-06-05 20:43:57.738341
59.77880406,-0.09347419441,-0.5824161768,-0.3022598624,2024-06-05 20:43:57.778804
59.81928416,-0.34513551,-0.6319494843,0.1360835135,2024-06-05 20:43:57.819284
59.85978974,-0.08921326697,-0.3636439145,0.7559159994,2024-06-05 20:43:57.859790
59.90028682,0.037815772,-0.1359503716,1.123820782,2024-06-05 20:43:57.900287
59.94076896,0.1384802908,-0.138347134,1.037270665,2024-06-05 20:43:57.940769
59.98123312,0.1360835135,-0.2470009029,1.008509398,2024-06-05 20:43:57.981233
60.02171302,0.06471290439,-0.1266295761,0.9579107761,2024-06-05 20:43:58.021713
60.06220448,0.1797580719,-0.24753353,1.22395277,2024-06-05 20:43:58.062204
60.10267229,0.1826874614,0.0275629051,1.685864449,2024-06-05 20:43:58.102672
60.14314416,0.06524552405,-0.168706283,1.792654037,2024-06-05 20:43:58.143144
60.18362609,0.04633763805,-0.2523270845,1.860562682,2024-06-05 20:43:58.183626
60.22410422,0.04473978654,-0.5215647221,1.929003835,2024-06-05 20:43:58.224104
60.26458354,0.08894696087,-0.5503259897,1.609966516,2024-06-05 20:43:58.264584
60.30506708,0.1416759938,-0.6468627453,0.9358072281,2024-06-05 20:43:58.305067
60.34554583,0.02103835158,-0.6529878378,0.7955959439,2024-06-05 20:43:58.345546
60.38603276,-0.128626883,0.1808233112,0.5069177747,2024-06-05 20:43:58.386033
60.42652354,0.09613727778,0.2442046702,-0.04633763805,2024-06-05 20:43:58.426524
60.46700453,0.1797580719,0.1826874614,-0.790536046,2024-06-05 20:43:58.467005
60.50747213,0.21784015,0.2151770741,-1.14752233,2024-06-05 20:43:58.507472
60.54797422,0.05459319428,0.3600487709,-1.572550297,2024-06-05 20:43:58.547974
60.58846828,-0.08149032295,0.7183665037,-1.820083737,2024-06-05 20:43:58.588468
60.62892088,-0.04926702753,0.5062519908,-1.883198857,2024-06-05 20:43:58.628921
60.66938119,0.004260932095,0.5081161261,-2.010227919,2024-06-05 20:43:58.669381
