Time (s),Linear Acceleration x (m/s^2),Linear Acceleration y (m/s^2),Linear Acceleration z (m/s^2),Datetime
0.066251324,0.0,0.0,0.0,2024-06-05 20:42:58.066251
0.151289918,-0.5148153305,-0.050157547,-0.3170323372,2024-06-05 20:42:58.151290
0.191764189,0.4464070797,0.1257348061,0.9482417107,2024-06-05 20:42:58.191764
0.232238147,-0.1616687775,0.02035570145,-0.2425122261,2024-06-05 20:42:58.232238
0.272726637,-0.03531813622,1.220970631,1.076859474,2024-06-05 20:42:58.272727
0.313206741,0.4499698877,-0.556137085,0.5352544785,2024-06-05 20:42:58.313207
0.353689918,-1.643906713,-0.2007637024,1.333065987,2024-06-05 20:42:58.353690
0.394162574,-1.388351917,-0.6764621735,1.336290359,2024-06-05 20:42:58.394163
0.434654866,0.09894275665,-1.042278767,0.8921527863,2024-06-05 20:42:58.434655
0.475133281,1.133106709,0.9191102982,1.338737488,2024-06-05 20:42:58.475133
0.515611406,-0.0252276659,-0.8787612915,-0.2955684662,2024-06-05 20:42:58.515611
0.556113542,-1.063482046,-1.199579239,2.952627182,2024-06-05 20:42:58.556114
0.596614531,2.150219202,-2.021630049,1.388049126,2024-06-05 20:42:58.596615
0.637094844,0.8735274673,-1.183676243,-0.5668201447,2024-06-05 20:42:58.637095
0.677566667,-0.8321460485,-1.442393303,-2.475018024,2024-06-05 20:42:58.677567
0.718026875,-1.024919987,-1.84473443,-1.945782185,2024-06-05 20:42:58.718027
0.758495885,1.674162149,-0.6837282181,-0.07203960419,2024-06-05 20:42:58.758496
0.798975625,1.111582994,-1.482542038,0.2222919464,2024-06-05 20:42:58.798976
0.83944151,0.9065125585,-0.3406720161,-0.1563205719,2024-06-05 20:42:58.839442
0.879910729,0.6873506308,-3.218720913,2.131222725,2024-06-05 20:42:58.879911
0.920429479,1.798760056,-0.868710041,1.451304436,2024-06-05 20:42:58.920429
0.960938542,3.346326113,-0.3562445641,-0.9739351273,2024-06-05 20:42:58.960939
1.001406094,4.035312176,1.279345036,-3.195074558,2024-06-05 20:42:59.001406
1.041876875,3.970355034,0.3279016018,0.6456823349,2024-06-05 20:42:59.041877
1.082337552,4.416324615,1.777303934,2.80089283,2024-06-05 20:42:59.082338
1.122815104,2.300106049,1.638845205,2.817771912,2024-06-05 20:42:59.122815
1.163285937,-1.130214453,-0.05640232563,1.667760849,2024-06-05 20:42:59.163286
1.203743958,0.1952781677,0.7655410767,-1.583896637,2024-06-05 20:42:59.203744
1.244243125,-1.025897503,0.5519996285,-1.368746758,2024-06-05 20:42:59.244243
1.284743333,-0.6154584885,0.9154785872,2.203666687,2024-06-05 20:42:59.284743
1.325236146,-0.5547637939,0.8648213148,0.8574228287,2024-06-05 20:42:59.325236
1.365699635,-1.441245079,-1.0206604,2.812660217,2024-06-05 20:42:59.365700
1.406181562,-0.274687767,-0.8791564107,0.3576192856,2024-06-05 20:42:59.406182
1.446670364,1.059849262,2.268545389,-1.481263638,2024-06-05 20:42:59.446670
1.487149948,-1.131745815,-0.3626736403,0.3341436386,2024-06-05 20:42:59.487150
1.527621823,0.2543997765,-0.4234693646,-1.589663506,2024-06-05 20:42:59.527622
1.568097552,0.753326416,0.5215943456,-1.770611286,2024-06-05 20:42:59.568098
1.608542292,0.7778363228,-0.5272746086,-0.8774833679,2024-06-05 20:42:59.608542
1.649049792,-1.213376999,-0.4697384238,-0.8887796402,2024-06-05 20:42:59.649050
1.689555885,1.783583164,-0.1024433076,-2.285482407,2024-06-05 20:42:59.689556
1.730049167,-2.563036919,0.2770931721,-3.95683527,2024-06-05 20:42:59.730049
1.770530312,0.9244024754,0.2858386636,-1.302437782,2024-06-05 20:42:59.770530
1.81100776,-3.035416842,-0.6894299984,-2.127681732,2024-06-05 20:42:59.811008
1.851459583,-0.4339820147,0.8162022829,2.501299858,2024-06-05 20:42:59.851460
1.891950677,-2.288074017,0.4172999859,3.665866852,2024-06-05 20:42:59.891951
1.932478646,-1.724671841,-0.1650211811,0.4635429382,2024-06-05 20:42:59.932479
1.972921458,1.872306705,0.6837899685,-0.1300411224,2024-06-05 20:42:59.972921
2.013372292,1.42495656,0.0925347805,0.8183765411,2024-06-05 20:43:00.013372
2.053852344,2.026359797,0.0895678997,1.733215332,2024-06-05 20:43:00.053852
2.094325417,-1.120192051,-0.7024595737,1.729417801,2024-06-05 20:43:00.094325
2.134868021,0.6027212143,0.3040332794,-1.100491524,2024-06-05 20:43:00.134868
2.175341042,0.3359928131,1.139614582,1.298430443,2024-06-05 20:43:00.175341
2.215787708,-0.1953990459,0.5822707415,-0.3927774429,2024-06-05 20:43:00.215788
2.256269375,0.4162902832,-0.1401517391,-1.431087971,2024-06-05 20:43:00.256269
2.296757604,-0.6321165562,1.530565262,0.3074264526,2024-06-05 20:43:00.296758
2.337259114,1.103033304,-0.9681118727,2.445025444,2024-06-05 20:43:00.337259
2.377739792,-0.6361665726,0.08543992043,-1.33058548,2024-06-05 20:43:00.377740
2.418195364,-0.562836647,0.9652099609,2.3162117,2024-06-05 20:43:00.418195
2.458692552,-1.465755463,-1.25450325,-0.3780937195,2024-06-05 20:43:00.458693
2.499152917,0.8052048087,1.466910481,-0.9970083237,2024-06-05 20:43:00.499153
2.539647812,0.1453924775,-0.5606375337,0.5864973068,2024-06-05 20:43:00.539648
2.580103177,-0.2617473602,-0.832328558,-0.6095199585,2024-06-05 20:43:00.580103
2.620583802,0.8477638364,-0.1890575886,0.6604452133,2024-06-05 20:43:00.620584
2.661068542,-0.08309203386,0.3674618006,0.9494724274,2024-06-05 20:43:00.661069
2.701569427,-0.401245296,-0.03669875115,-0.3859462738,2024-06-05 20:43:00.701569
2.742065364,-0.1980347633,-0.1648229063,-0.548664093,2024-06-05 20:43:00.742065
2.782542917,0.9563215375,0.01158860326,-0.5922603607,2024-06-05 20:43:00.782543
2.823014219,0.6509371996,-1.057707548,-0.1415405273,2024-06-05 20:43:00.823014
2.863494531,-0.5030810833,-0.6397988796,-0.01313304901,2024-06-05 20:43:00.863495
2.903974896,1.516191244,-0.7387509346,2.276522636,2024-06-05 20:43:00.903975
2.944455312,1.898746252,-1.625510573,-1.477835655,2024-06-05 20:43:00.944455
2.984922812,-0.03139352798,-2.800593376,-0.7676181793,2024-06-05 20:43:00.984923
3.025394427,-0.3987488747,-2.333577394,-3.94326973,2024-06-05 20:43:01.025394
3.065909271,-2.899501324,-2.874551296,-3.206740379,2024-06-05 20:43:01.065909
3.10635125,0.02611160278,-0.1300265193,-2.477317333,2024-06-05 20:43:01.106351
3.146881927,0.1271333694,1.182147503,1.519041061,2024-06-05 20:43:01.146882
3.187314844,-5.81508255,-0.8749485016,-4.605404377,2024-06-05 20:43:01.187315
3.227795208,-5.12321043,-0.6424629688,-6.260010719,2024-06-05 20:43:01.227795
3.268284635,-2.541035652,-1.541466236,8.057098389,2024-06-05 20:43:01.268285
3.308742708,0.9699659348,11.02290726,14.63325882,2024-06-05 20:43:01.308743
3.349224167,-3.521370888,5.582863331,6.684615135,2024-06-05 20:43:01.349224
3.389705,-0.2460842133,2.563892365,-3.134049892,2024-06-05 20:43:01.389705
3.430194114,2.405033112,-0.9110100269,-0.02729439735,2024-06-05 20:43:01.430194
3.470674531,2.979720116,0.3269037008,3.0296278,2024-06-05 20:43:01.470675
3.511134948,5.858668327,4.852221489,3.82989502,2024-06-05 20:43:01.511135
3.551639479,-2.433485985,-5.003486156,-1.615246058,2024-06-05 20:43:01.551639
3.592107604,-5.020514488,-5.545985699,-11.13099575,2024-06-05 20:43:01.592108
3.632601719,10.27099133,0.1789362431,6.299492359,2024-06-05 20:43:01.632602
3.673130833,2.383330345,-4.149947643,-3.176858902,2024-06-05 20:43:01.673131
3.713612239,-4.294758797,-4.884047031,-1.747092247,2024-06-05 20:43:01.713612
3.754093437,-3.234382629,-0.699742794,1.05538249,2024-06-05 20:43:01.754093
3.794502083,-4.203877449,-0.5206363201,1.273359537,2024-06-05 20:43:01.794502
3.834983594,0.877178669,0.6997842789,-2.463510036,2024-06-05 20:43:01.834984
3.875466667,1.277438164,0.1666190624,-1.645740032,2024-06-05 20:43:01.875467
3.915969271,-1.250020504,1.356353998,0.9122986794,2024-06-05 20:43:01.915969
3.95647651,0.5717425346,-1.662430286,1.643558025,2024-06-05 20:43:01.956477
3.996938594,-0.4628868103,0.8559072018,-0.7096874714,2024-06-05 20:43:01.996939
4.037429271,1.575610638,0.2082448006,0.5635976791,2024-06-05 20:43:02.037429
4.077900312,-0.8425598145,0.07928180695,-1.155657768,2024-06-05 20:43:02.077900
4.118365885,3.617827892,3.855165958,1.059495449,2024-06-05 20:43:02.118366
4.158850729,1.038832664,3.015197277,-0.2079224586,2024-06-05 20:43:02.158851
4.199320417,-2.136183739,-2.987947941,1.432505131,2024-06-05 20:43:02.199320
4.239814427,0.3742442131,0.9787306786,-2.921530962,2024-06-05 20:43:02.239814
4.280309427,-0.3798480034,0.2113494873,0.7148771286,2024-06-05 20:43:02.280309
4.320774219,-0.7676129341,-2.556008339,0.3770382404,2024-06-05 20:43:02.320774
4.361259635,-1.027506351,-2.71824646,1.210539818,2024-06-05 20:43:02.361260
4.401718958,-2.712893009,-4.026944637,1.431182861,2024-06-05 20:43:02.401719
4.442218958,-0.7410340309,0.6419816017,-3.411545277,2024-06-05 20:43:02.442219
4.482695208,-4.059715271,0.9206829071,-2.147904158,2024-06-05 20:43:02.482695
4.523167656,4.070827484,3.387163401,-1.975651741,2024-06-05 20:43:02.523168
4.563647812,4.413402557,1.14793396,2.232028484,2024-06-05 20:43:02.563648
4.604128021,0.5762913227,-2.192848206,1.581873894,2024-06-05 20:43:02.604128
4.644610469,-1.479235888,-1.141589642,0.09571552277,2024-06-05 20:43:02.644610
4.685060312,-3.603491545,1.464789867,-0.3555316925,2024-06-05 20:43:02.685060
4.725540677,1.996050477,-1.547156811,1.397758484,2024-06-05 20:43:02.725541
4.766052448,3.331495762,12.72627258,0.407772541,2024-06-05 20:43:02.766052
4.806550417,5.812607765,2.24657464,-1.798727989,2024-06-05 20:43:02.806550
4.847015156,-8.089851379,-11.33550262,2.01238203,2024-06-05 20:43:02.847015
4.88749125,-6.52704668,-4.145988464,-1.112874031,2024-06-05 20:43:02.887491
4.927940156,-0.8351960182,-3.716259956,0.6531367302,2024-06-05 20:43:02.927940
4.968449792,0.5841412544,-1.524679184,-1.535624504,2024-06-05 20:43:02.968450
5.008932708,2.411436319,0.4731302261,-0.2605895996,2024-06-05 20:43:03.008933
5.049400521,3.548354149,1.444604635,-1.088541508,2024-06-05 20:43:03.049401
5.08988651,3.654583931,3.406236172,0.2137403488,2024-06-05 20:43:03.089887
5.130366562,-0.7662005424,-0.2087275982,-0.7528958321,2024-06-05 20:43:03.130367
5.170872917,-1.527190685,-2.848553896,-0.9515171051,2024-06-05 20:43:03.170873
5.211345469,0.3443484306,-0.0220272541,-1.546032906,2024-06-05 20:43:03.211345
5.251822083,1.88125205,0.3468527794,-0.9368581772,2024-06-05 20:43:03.251822
5.292309531,2.742142677,1.859134912,-0.7615756989,2024-06-05 20:43:03.292310
5.332791667,6.928778172,1.44939661,-0.9100584984,2024-06-05 20:43:03.332792
5.373272031,0.9094810486,0.04878520966,-0.9236154556,2024-06-05 20:43:03.373272
5.413752448,-6.162793636,-2.285192966,2.057162285,2024-06-05 20:43:03.413752
5.454176198,0.06781291962,0.4969587326,-0.5020394325,2024-06-05 20:43:03.454176
5.494665677,2.766963959,0.3929800987,-0.2703642845,2024-06-05 20:43:03.494666
5.535259375,2.981102705,1.658062935,-0.8287038803,2024-06-05 20:43:03.535259
5.57563875,-1.054039478,0.7477064133,0.1869192123,2024-06-05 20:43:03.575639
5.616160833,1.241517544,0.1835150719,0.5947084427,2024-06-05 20:43:03.616161
5.656609219,-0.578789711,0.6433405876,-0.06243896484,2024-06-05 20:43:03.656609
5.697073333,-1.021906853,1.508664608,-0.04342031479,2024-06-05 20:43:03.697073
5.737578437,0.2142972946,-0.607814312,1.299133062,2024-06-05 20:43:03.737578
5.778075156,-1.780545712,-0.6659216881,0.7380492687,2024-06-05 20:43:03.778075
5.818555521,-2.715377331,-1.998294353,0.2521196604,2024-06-05 20:43:03.818556
5.858998073,0.1418190002,-0.5941896439,-0.7234972715,2024-06-05 20:43:03.858998
5.899527604,-1.654281616,0.1367888451,0.3280074596,2024-06-05 20:43:03.899528
5.939958073,0.4396238327,0.5472588539,-0.6855755448,2024-06-05 20:43:03.939958
5.980465312,0.5426371098,0.5383143425,-0.3572220802,2024-06-05 20:43:03.980465
6.020931302,-1.356827974,-0.5715713501,0.4732373953,2024-06-05 20:43:04.020931
6.061403437,0.6761538982,-3.096923828,-0.4229550362,2024-06-05 20:43:04.061403
6.101916875,0.9585156441,-4.749123573,0.7273852825,2024-06-05 20:43:04.101917
6.142359844,1.26269722,-2.056148529,-0.2343533039,2024-06-05 20:43:04.142360
6.182832292,-1.133495331,5.208579063,-0.2860885859,2024-06-05 20:43:04.182832
6.223312604,-0.3196406364,0.2154455185,-0.4612666368,2024-06-05 20:43:04.223313
6.263791979,0.285364151,0.6594157219,-0.8524185419,2024-06-05 20:43:04.263792
6.304271771,-0.8272213936,0.6105008125,-0.3339419365,2024-06-05 20:43:04.304272
6.344767239,-0.6515722275,0.03379821777,-0.3001214266,2024-06-05 20:43:04.344767
6.385242396,-0.933177948,-1.947525978,-0.2468416691,2024-06-05 20:43:04.385242
6.42572625,-0.2972517014,-1.213646889,-0.4435657263,2024-06-05 20:43:04.425726
6.466206146,1.447267532,-1.338019371,-0.9109814167,2024-06-05 20:43:04.466206
6.506698333,1.413684845,0.643201828,-1.257621646,2024-06-05 20:43:04.506698
6.547198177,0.2568945885,1.187870979,-1.120622396,2024-06-05 20:43:04.547198
6.587658385,-0.1174230576,0.4673399925,-1.179990053,2024-06-05 20:43:04.587658
6.628131927,-0.08437585831,1.009458542,-0.8351793289,2024-06-05 20:43:04.628132
6.668624479,-0.9752759933,0.3369131088,-0.5357766151,2024-06-05 20:43:04.668624
6.709064375,-1.136475086,0.2006587982,-0.1860854626,2024-06-05 20:43:04.709064
6.749594167,0.3344254494,-0.3275146484,0.1574349403,2024-06-05 20:43:04.749594
6.790052344,0.3509602547,-0.5115470886,0.2855294943,2024-06-05 20:43:04.790052
6.830556667,-0.371114254,-0.6636686325,0.5610288382,2024-06-05 20:43:04.830557
6.871032812,-0.1433491707,-0.8494739532,-0.4188103676,2024-06-05 20:43:04.871033
6.911508437,0.3843898773,-1.627522469,-0.4207994938,2024-06-05 20:43:04.911508
6.951973385,2.641910553,-1.299244881,-0.8468074799,2024-06-05 20:43:04.951973
6.992467812,2.785598516,-0.5154132843,-1.631750822,2024-06-05 20:43:04.992468
7.032958958,0.9034152031,0.3422021866,-0.8377934694,2024-06-05 20:43:05.032959
7.073444896,0.0913901329,-0.5199565887,-0.2400529385,2024-06-05 20:43:05.073445
7.113925104,0.8683562279,-0.4497451782,-0.2609186172,2024-06-05 20:43:05.113925
7.154405312,-0.518456459,-0.1808071136,-1.136519074,2024-06-05 20:43:05.154405
7.194844896,-0.2624168396,0.3383359909,-1.33923018,2024-06-05 20:43:05.194845
7.235332708,0.9789206982,0.05227851868,-1.982598066,2024-06-05 20:43:05.235333
7.275828021,0.05148077011,-0.5525560379,-1.495443702,2024-06-05 20:43:05.275828
7.316305573,0.1698083878,-0.678645134,-0.9785642624,2024-06-05 20:43:05.316306
7.356794323,0.5440702438,-0.8209228516,-0.8373851776,2024-06-05 20:43:05.356794
7.397284062,1.044392347,-0.8154115677,-0.8347936869,2024-06-05 20:43:05.397284
7.437731302,1.13374567,-0.4762802124,-1.023114204,2024-06-05 20:43:05.437731
7.478216146,1.792484283,-0.7784528732,-1.066653371,2024-06-05 20:43:05.478216
7.518706719,1.193126917,-1.286989212,-0.8113144636,2024-06-05 20:43:05.518707
7.559195312,1.218480825,-0.9073114395,-0.4545537233,2024-06-05 20:43:05.559195
7.59969151,1.018841267,-0.5651159286,-0.846742034,2024-06-05 20:43:05.599692
7.640183177,0.2635250092,0.1385698318,-1.120901823,2024-06-05 20:43:05.640183
7.680668229,1.346484423,0.3313760757,-0.5391733646,2024-06-05 20:43:05.680668
7.721136146,-2.559703827,-0.324259758,-0.1203775406,2024-06-05 20:43:05.721136
7.761586042,-2.782176971,0.3567085266,-0.115008235,2024-06-05 20:43:05.761586
7.802057917,-1.202581882,-0.338306427,-1.206932783,2024-06-05 20:43:05.802058
7.842548698,-0.3193888664,-0.01947689056,-1.336704016,2024-06-05 20:43:05.842549
7.883038333,0.8362460136,0.4686164856,-1.371384859,2024-06-05 20:43:05.883038
7.923495417,-0.6791729927,-0.08018398285,-0.9842355251,2024-06-05 20:43:05.923495
7.96395625,-0.5073056221,-0.3492975235,-0.7730281353,2024-06-05 20:43:05.963956
8.004432552,0.2250320911,-0.481461525,-1.085635781,2024-06-05 20:43:06.004433
8.044945573,-0.2521827221,0.0328578949,-1.131684184,2024-06-05 20:43:06.044946
8.085449476,-0.2901449203,-0.2821826935,-1.189784169,2024-06-05 20:43:06.085449
8.125923278,-0.6781551838,-0.3406515121,-1.39241004,2024-06-05 20:43:06.125923
8.166368903,-1.535043001,0.4438409805,-0.9512010813,2024-06-05 20:43:06.166369
8.206842288,-0.4366519451,-0.1195077896,-1.299276829,2024-06-05 20:43:06.206842
8.247327809,0.1420106888,-0.7107810974,-1.484872341,2024-06-05 20:43:06.247328
8.287860986,-0.01323223114,-0.9503479004,-1.064537883,2024-06-05 20:43:06.287861
8.328331871,-0.07646942139,0.3170661926,-1.016021729,2024-06-05 20:43:06.328332
8.368813017,-0.3459532261,0.6026239395,-1.216454744,2024-06-05 20:43:06.368813
8.409289476,0.0464758873,0.34953022,-1.173230052,2024-06-05 20:43:06.409289
8.449763121,-0.1231207848,-0.8608093262,-0.9324660301,2024-06-05 20:43:06.449763
8.490226819,-1.083575726,-1.254071236,-1.009466171,2024-06-05 20:43:06.490227
8.530704684,-0.2783050537,-0.7319164276,-1.230598211,2024-06-05 20:43:06.530705
8.571212288,0.588763237,1.41620636,-1.608064413,2024-06-05 20:43:06.571212
8.611685986,1.436212778,3.9290452,-1.090289116,2024-06-05 20:43:06.611686
8.652170361,-0.7360408306,-5.060185432,-0.723969698,2024-06-05 20:43:06.652170
8.692657236,-0.8397693634,-0.7777309418,-0.2144770622,2024-06-05 20:43:06.692657
8.733142392,-0.6515169144,-2.027791023,-0.6695462465,2024-06-05 20:43:06.733142
8.773591871,1.255039454,-2.697041512,-1.821716309,2024-06-05 20:43:06.773592
8.814055257,-0.6737549305,1.303237915,-1.880056024,2024-06-05 20:43:06.814055
8.854521871,-0.3417747021,2.083421707,-0.7323232889,2024-06-05 20:43:06.854522
8.895016403,1.183894396,2.441146851,-0.5573438406,2024-06-05 20:43:06.895016
8.935550934,1.08300972,-0.8824558258,-1.097396851,2024-06-05 20:43:06.935551
8.975985413,5.780465126,2.844773293,-0.8841724396,2024-06-05 20:43:06.975985
9.016522549,-3.965718746,2.183430672,0.7708853483,2024-06-05 20:43:07.016523
9.056951246,-3.967560291,-3.97984314,0.8558923006,2024-06-05 20:43:07.056951
9.097429007,-2.352917671,-1.240223885,-0.6618782878,2024-06-05 20:43:07.097429
9.137908382,-1.642659187,-9.468247414,-0.5557163954,2024-06-05 20:43:07.137908
9.178403486,5.787388802,-3.755963326,-1.059826851,2024-06-05 20:43:07.178403
9.21888333,5.670755386,-0.05731010437,-1.943946838,2024-06-05 20:43:07.218883
9.259333486,3.805989981,2.642318726,-0.8749027848,2024-06-05 20:43:07.259333
9.299885517,1.975083113,4.138198376,-0.5871471763,2024-06-05 20:43:07.299886
9.340333121,-0.6407966614,2.510320663,1.580637336,2024-06-05 20:43:07.340333
9.380799007,-3.081518173,-2.473727226,1.129547596,2024-06-05 20:43:07.380799
9.421308642,0.1643843651,4.496636868,0.754132092,2024-06-05 20:43:07.421309
9.461788486,-5.314193249,0.5947847366,1.137631774,2024-06-05 20:43:07.461788
9.502252132,-3.659668446,-3.133381844,0.04676872492,2024-06-05 20:43:07.502252
9.542741559,-1.145850658,0.7295413017,-0.9379775524,2024-06-05 20:43:07.542742
9.583226194,0.2760281563,-2.375634193,-0.7563123107,2024-06-05 20:43:07.583226
9.62370609,2.296079159,-1.587678909,-0.3817967176,2024-06-05 20:43:07.623706
9.664147601,3.937170982,-1.145758629,-0.1443428993,2024-06-05 20:43:07.664148
9.704627392,4.128167629,-1.00596714,-0.4456970692,2024-06-05 20:43:07.704627
9.745081351,2.13648653,-0.5922622681,0.6781164408,2024-06-05 20:43:07.745081
9.785618851,-1.026257515,-0.9678878784,0.8024379015,2024-06-05 20:43:07.785619
9.826091194,-2.586618423,0.3150062561,1.306752682,2024-06-05 20:43:07.826091
9.866580361,2.898369789,-0.06343317032,0.4895044565,2024-06-05 20:43:07.866580
9.907032444,0.5063948631,0.07625389099,0.8123852015,2024-06-05 20:43:07.907032
9.947514371,-2.152984142,-0.1135559082,0.927726388,2024-06-05 20:43:07.947514
9.988005934,-1.789636135,-0.2614617348,0.9751355648,2024-06-05 20:43:07.988006
10.02846651,-1.175499439,-0.8478450775,0.2449649572,2024-06-05 20:43:08.028467
10.06898448,-0.2845988274,-1.594519615,0.3360785246,2024-06-05 20:43:08.068984
10.1094264,1.049292088,0.04874658585,0.06349635124,2024-06-05 20:43:08.109426
10.14993099,1.163937092,0.3138022423,0.0247348547,2024-06-05 20:43:08.149931
10.19039479,-0.5157051086,-0.6003875732,0.2838919163,2024-06-05 20:43:08.190395
10.23090312,-1.200158119,-0.8397483826,0.7516698837,2024-06-05 20:43:08.230903
10.27135963,-0.07087087631,-0.5073475838,-0.04314053059,2024-06-05 20:43:08.271360
10.31183619,2.064837456,-0.1098031998,0.9682116508,2024-06-05 20:43:08.311836
10.35234328,0.8535394669,-0.2918019295,0.7287642956,2024-06-05 20:43:08.352343
10.39279854,-1.139160156,-0.5070619583,0.8970448971,2024-06-05 20:43:08.392799
10.43326599,-0.9892492294,-1.157315731,0.5004339218,2024-06-05 20:43:08.433266
10.47374599,-0.2682714462,-1.589038372,0.473536253,2024-06-05 20:43:08.473746
10.51423437,0.5924692154,-0.4933080673,0.4797537327,2024-06-05 20:43:08.514234
10.55471437,1.228109837,-0.6582670212,0.04148101807,2024-06-05 20:43:08.554714
10.59520666,1.314493656,-0.4571130276,-0.09022974968,2024-06-05 20:43:08.595207
10.63566385,2.881528378,-1.185898304,-0.08573436737,2024-06-05 20:43:08.635664
10.67614937,0.4420919418,0.5457930565,-0.3492348194,2024-06-05 20:43:08.676149
10.71662802,0.835310936,0.6811609268,0.1775817871,2024-06-05 20:43:08.716628
10.75711161,2.59269619,-0.6147921085,-0.4692800045,2024-06-05 20:43:08.757112
10.79760224,2.795547485,0.6661216021,0.06237316132,2024-06-05 20:43:08.797602
10.83809875,1.933829308,2.778957605,0.2545852661,2024-06-05 20:43:08.838099
10.87857567,-0.1549139023,1.935610771,-0.2855527401,2024-06-05 20:43:08.878576
10.91904073,-0.6799516678,2.102434635,-0.2050178051,2024-06-05 20:43:08.919041
10.95950604,-1.774699211,-0.1159505844,-0.9428505898,2024-06-05 20:43:08.959506
11.00000531,-0.10160923,0.2441806793,-0.6408920288,2024-06-05 20:43:09.000005
11.04048593,0.4898986816,0.3535745144,-0.4395756721,2024-06-05 20:43:09.040486
11.08098244,1.901039124,1.510200262,-0.6619030237,2024-06-05 20:43:09.080982
11.1214325,1.007469177,1.523457527,-0.1753246784,2024-06-05 20:43:09.121432
11.16191546,0.8506622314,0.6428909302,0.1536362171,2024-06-05 20:43:09.161915
11.20240062,1.909967422,0.3535571098,0.528116703,2024-06-05 20:43:09.202401
11.24288046,1.064131737,0.3064312935,0.4008305073,2024-06-05 20:43:09.242880
11.28334177,1.283932686,0.1959915161,0.2316198349,2024-06-05 20:43:09.283342
11.32382198,0.9499678612,0.8312678337,0.6749141216,2024-06-05 20:43:09.323822
11.36430229,0.6186723709,1.685081005,0.4959737062,2024-06-05 20:43:09.364302
11.4047939,-3.65334034,0.8284673691,-0.001255273819,2024-06-05 20:43:09.404794
11.44527979,-1.803514957,2.593802929,0.2932314873,2024-06-05 20:43:09.445280
11.48576244,-2.916062832,4.001271248,0.4075231552,2024-06-05 20:43:09.485762
11.52623968,-4.386434555,-3.721647263,-1.11923182,2024-06-05 20:43:09.526240
11.56672547,-2.175461769,-1.352306843,-0.2674024701,2024-06-05 20:43:09.566725
11.60723458,-2.053512096,-0.9497613907,0.7547521591,2024-06-05 20:43:09.607235
11.64769729,-1.66431284,-0.7215175629,-0.2037118971,2024-06-05 20:43:09.647697
11.68815323,0.5142207146,-0.5388841629,0.3152413666,2024-06-05 20:43:09.688153
11.72863297,-1.730695724,2.408405304,0.8101935983,2024-06-05 20:43:09.728633
11.76912729,-0.7597866058,1.476168156,-0.4762650728,2024-06-05 20:43:09.769127
11.80960229,1.553129673,-2.788751602,-2.161445141,2024-06-05 20:43:09.809602
11.85009849,0.257689476,-1.002829075,0.6252707839,2024-06-05 20:43:09.850098
11.89057828,-6.347001553,-3.05302763,0.8978439569,2024-06-05 20:43:09.890578
11.93102026,-1.396692753,-3.554340839,-0.7334792018,2024-06-05 20:43:09.931020
11.97153494,2.934764147,-2.672241688,-0.7486337423,2024-06-05 20:43:09.971535
12.01200875,1.598552227,-0.7329692841,-1.103737235,2024-06-05 20:43:10.012009
12.05248531,1.022226334,0.8968834877,0.07379376888,2024-06-05 20:43:10.052485
12.09299218,0.8436956406,1.316618919,-0.3850407004,2024-06-05 20:43:10.092992
12.13347703,0.6824131012,0.6923666,-0.6449112296,2024-06-05 20:43:10.133477
12.17395364,-0.5368962288,-0.4460396767,-0.3009812236,2024-06-05 20:43:10.173954
12.21443354,-0.736413002,0.4403071404,-0.04138177633,2024-06-05 20:43:10.214434
12.25491573,-2.226833344,0.4844546318,-0.2112182975,2024-06-05 20:43:10.254916
12.29538093,-1.865880966,0.2728328705,-0.3348706961,2024-06-05 20:43:10.295381
12.33587781,0.1219072342,-0.6746706963,-0.4653270245,2024-06-05 20:43:10.335878
12.37634672,1.118820667,-1.681435585,-0.3136482239,2024-06-05 20:43:10.376347
12.41679755,-0.3416318893,-1.196538448,-0.216823101,2024-06-05 20:43:10.416798
12.45730948,-0.6181077957,-0.351624012,-0.9130548835,2024-06-05 20:43:10.457309
12.49777666,0.2501344681,-0.5351808071,-0.4629027843,2024-06-05 20:43:10.497777
12.53825739,0.2718057632,-0.4076669216,-0.6004980803,2024-06-05 20:43:10.538257
12.57874317,0.3130655289,-0.03137254715,-1.286460876,2024-06-05 20:43:10.578743
12.61924125,0.07597923279,-0.09143972397,-1.740005016,2024-06-05 20:43:10.619241
12.65968109,2.866357327,0.4398357868,-1.023696661,2024-06-05 20:43:10.659681
12.70016119,4.85215044,0.2076060772,-0.2114350796,2024-06-05 20:43:10.700161
12.74066453,2.284276962,0.3694578409,-0.6213476658,2024-06-05 20:43:10.740665
12.78115838,-0.1539497375,1.080472708,-0.4322493076,2024-06-05 20:43:10.781158
12.82164739,1.201394558,-0.4748089314,-0.7594656944,2024-06-05 20:43:10.821647
12.86210088,1.454299927,0.3987888098,-1.206493616,2024-06-05 20:43:10.862101
12.90257302,1.360901833,0.622730732,-1.332607746,2024-06-05 20:43:10.902573
12.9430439,0.5241718292,1.088062286,-0.7429434061,2024-06-05 20:43:10.943044
12.98352401,-0.5735960007,1.036447287,-0.4884870052,2024-06-05 20:43:10.983524
13.02400411,-0.6203937531,-0.01726293564,-0.2263503075,2024-06-05 20:43:11.024004
13.06448416,0.596206665,-0.8466701508,0.207547307,2024-06-05 20:43:11.064484
13.10496427,0.1105294228,0.05139350891,0.5153462887,2024-06-05 20:43:11.104964
13.14545453,0.8329920769,0.8000001907,0.2819880247,2024-06-05 20:43:11.145455
13.18596203,-0.4179534912,1.799161911,-0.1323516369,2024-06-05 20:43:11.185962
13.2264427,-3.557116508,0.339287281,-0.2640789747,2024-06-05 20:43:11.226443
13.26692609,-2.700892448,1.139890671,0.1796683073,2024-06-05 20:43:11.266926
13.30739687,-1.662270069,0.6228528023,-0.0848377347,2024-06-05 20:43:11.307397
13.34785026,-2.371537685,-0.5208358765,1.256202221,2024-06-05 20:43:11.347850
13.38833666,-1.625655651,-0.455180645,-0.8342291117,2024-06-05 20:43:11.388337
13.42883536,-0.4505023956,0.3501405716,-0.2439397573,2024-06-05 20:43:11.428835
13.46928619,-3.788472176,-0.5971713066,0.3176355958,2024-06-05 20:43:11.469286
13.50979369,-0.4838514328,-1.120279312,-1.55132246,2024-06-05 20:43:11.509794
13.55027651,1.347703457,-1.293577671,-1.069658995,2024-06-05 20:43:11.550277
13.59074416,-0.1402993202,-1.642734051,0.4591967463,2024-06-05 20:43:11.590744
13.63123114,0.6921830177,-2.234311581,0.2402659655,2024-06-05 20:43:11.631231
13.67168531,0.2182621956,-0.7056312561,-0.3939390182,2024-06-05 20:43:11.671685
13.71216515,1.912055492,0.2818608284,-0.8579927087,2024-06-05 20:43:11.712165
13.75270937,1.46336174,-0.06744766235,-0.6925762892,2024-06-05 20:43:11.752709
13.79317505,-0.9970016479,-1.513289928,-0.5566166639,2024-06-05 20:43:11.793175
13.83365505,-1.325778008,-1.359930038,-0.5212274194,2024-06-05 20:43:11.833655
13.874135,-0.7310385704,-0.5375790596,-0.3771765232,2024-06-05 20:43:11.874135
13.91461494,-1.087087154,-0.9189839363,0.5680902004,2024-06-05 20:43:11.914615
13.9550451,0.1637687683,-0.2216610909,0.7303211689,2024-06-05 20:43:11.955045
13.99554713,-1.342350006,-0.3497638702,0.3062456846,2024-06-05 20:43:11.995547
14.03601677,-0.3556699753,-0.5095872879,-0.07227957249,2024-06-05 20:43:12.036017
14.07652104,-0.5275564194,-0.5484900475,-0.7441600561,2024-06-05 20:43:12.076521
14.11699109,-1.134008408,-1.073377132,-1.43286562,2024-06-05 20:43:12.116991
14.1574613,-1.519087791,-1.064029694,-0.2187416553,2024-06-05 20:43:12.157461
14.19796255,1.146085739,-1.733225584,-1.215969563,2024-06-05 20:43:12.197963
14.23842984,2.635478497,-0.7273569107,-1.343711376,2024-06-05 20:43:12.238430
14.27889099,6.782655716,-0.4378695488,-1.557816267,2024-06-05 20:43:12.278891
14.31938547,6.054275036,1.57084167,-1.888298512,2024-06-05 20:43:12.319385
14.35987203,4.162185192,3.398647547,0.08706903458,2024-06-05 20:43:12.359872
14.40036396,2.401868343,4.040258408,1.090914607,2024-06-05 20:43:12.400364
14.44083828,-0.8538398743,2.419635534,0.4624730349,2024-06-05 20:43:12.440838
14.48127666,1.076528549,-0.6296627522,0.4045681953,2024-06-05 20:43:12.481277
14.52177432,0.08524227142,-0.7882504463,0.7290449142,2024-06-05 20:43:12.521774
14.56226958,-1.405321121,-0.8268036842,-0.2405931056,2024-06-05 20:43:12.562270
14.60275979,-0.9744701385,-0.6581001282,0.7744146585,2024-06-05 20:43:12.602760
14.6432701,-0.06541490555,-0.2485170364,-0.5506968498,2024-06-05 20:43:12.643270
14.6836663,-0.1657781601,0.6370658875,0.4828956723,2024-06-05 20:43:12.683666
14.72414578,-2.023828983,0.3997678757,-0.02353787422,2024-06-05 20:43:12.724146
14.76462536,-2.529139996,1.004014969,0.183680892,2024-06-05 20:43:12.764625
14.80511213,-1.733903408,0.2097873688,0.3511288166,2024-06-05 20:43:12.805112
14.84561437,-2.657307148,-0.9484167099,-0.3004288673,2024-06-05 20:43:12.845614
14.88610177,-2.378918171,-0.0618314743,-0.7343473434,2024-06-05 20:43:12.886102
14.92659885,-1.616466045,-0.775592804,-0.3759288788,2024-06-05 20:43:12.926599
14.96707932,-1.554410934,-0.8466691971,0.2200379968,2024-06-05 20:43:12.967079
15.00761323,-1.764723301,-1.103719711,0.3624148369,2024-06-05 20:43:13.007613
15.04805,1.898844242,-0.481092453,-0.8957307339,2024-06-05 20:43:13.048050
15.08851474,-0.0921754837,-0.2401571274,1.853163838,2024-06-05 20:43:13.088515
15.12899119,0.04876899719,-0.807923317,0.7516211867,2024-06-05 20:43:13.128991
15.16947021,0.1981143951,-1.589418888,-0.8267534971,2024-06-05 20:43:13.169470
15.20995229,3.304122686,-1.339190006,0.3494017422,2024-06-05 20:43:13.209952
15.25042531,0.01281309128,-1.657972336,1.053441763,2024-06-05 20:43:13.250425
15.29091625,-0.8539934158,-0.6341762543,-1.581719875,2024-06-05 20:43:13.290916
15.33139927,-1.884491444,-0.2299928665,0.1092317998,2024-06-05 20:43:13.331399
15.37186765,-2.909393787,-0.05424594879,-0.7510889173,2024-06-05 20:43:13.371868
15.41234099,-0.3005347252,-0.5015025139,-0.2408074439,2024-06-05 20:43:13.412341
15.45283291,-0.5255489349,-0.2312374115,-0.9339435697,2024-06-05 20:43:13.452833
15.49332583,-1.034135818,0.3677062988,-0.851449132,2024-06-05 20:43:13.493326
15.53380614,-0.383020401,-2.056825638,-1.114427328,2024-06-05 20:43:13.533806
15.57428646,-0.7355794907,-2.026262283,-2.009261131,2024-06-05 20:43:13.574286
15.61476682,0.4761295319,-0.4779520035,-1.84139502,2024-06-05 20:43:13.614767
15.65524182,4.209418297,-0.3154854774,-0.9861383438,2024-06-05 20:43:13.655242
15.69569166,4.952832222,-1.770686626,0.08748221397,2024-06-05 20:43:13.695692
15.7361939,5.692489624,-1.908119202,0.394157052,2024-06-05 20:43:13.736194
15.77668333,5.779093742,0.4125134945,0.4746402502,2024-06-05 20:43:13.776683
15.81714052,4.252332687,2.582105398,-0.4013664722,2024-06-05 20:43:13.817141
15.85761677,0.639251709,3.00920105,-0.7457683086,2024-06-05 20:43:13.857617
15.89811734,-2.229763031,1.036235332,-0.3256793618,2024-06-05 20:43:13.898117
15.9385575,1.113080502,-1.343926907,-0.4255124927,2024-06-05 20:43:13.938557
15.97908442,1.766140938,-0.9006710052,0.1912374794,2024-06-05 20:43:13.979084
16.01954536,-0.4929523468,-1.31790781,1.771082401,2024-06-05 20:43:14.019545
16.0600613,-0.6379141808,-1.019539833,1.954896688,2024-06-05 20:43:14.060061
16.10053812,-2.353944302,-0.2977838516,1.777984381,2024-06-05 20:43:14.100538
16.14098869,-3.438632965,0.05183887482,0.6047035456,2024-06-05 20:43:14.140989
16.18147885,-3.62279129,-0.5412807465,-0.04031765461,2024-06-05 20:43:14.181479
16.22195562,-3.801833153,-0.6196689606,-0.3498210311,2024-06-05 20:43:14.221956
16.26245614,-2.344539165,-0.392999649,-0.2277280688,2024-06-05 20:43:14.262456
16.30295578,-1.778960705,0.3879094124,-0.4797872901,2024-06-05 20:43:14.302956
16.34335849,-2.011286259,-0.1138768196,-0.9016982317,2024-06-05 20:43:14.343358
16.38383901,-0.2850904465,-0.7476658821,0.37034446,2024-06-05 20:43:14.383839
16.42431958,0.7050833702,-2.442165852,0.8763120174,2024-06-05 20:43:14.424320
16.4647914,1.760546207,-2.586983681,-0.06347674131,2024-06-05 20:43:14.464791
16.50533625,1.428875446,-0.4965424538,-0.01217591763,2024-06-05 20:43:14.505336
16.54581541,2.550438404,1.478133202,0.4813934565,2024-06-05 20:43:14.545815
16.58630567,0.3633351326,0.09260463715,-0.2090428174,2024-06-05 20:43:14.586306
16.62674687,0.06397294998,-0.9887766838,-0.3895607591,2024-06-05 20:43:14.626747
16.6672264,-2.595300674,-1.48263216,-1.197850466,2024-06-05 20:43:14.667226
16.70767687,-2.166493893,-1.088046074,-0.4723579586,2024-06-05 20:43:14.707677
16.74819885,-0.6804065704,-1.246015072,-0.2609896958,2024-06-05 20:43:14.748199
16.78867135,-0.9440307617,-1.12898159,-0.2147893906,2024-06-05 20:43:14.788671
16.82916828,-0.6337394714,-1.573676109,-0.6874421835,2024-06-05 20:43:14.829168
16.86967765,1.956547737,-0.831389904,-0.535643816,2024-06-05 20:43:14.869678
16.91013328,1.889949799,-0.2127320766,-1.215181947,2024-06-05 20:43:14.910133
16.95057682,1.768483162,-0.978815794,-0.4301086366,2024-06-05 20:43:14.950577
16.99108317,2.58654213,0.5759263039,-0.3764383197,2024-06-05 20:43:14.991083
17.0315414,3.148952484,-0.3157799244,-0.5580983162,2024-06-05 20:43:15.031541
17.07207291,3.23679924,0.6453545094,0.205389142,2024-06-05 20:43:15.072073
17.11251672,5.124276638,0.8190457821,-0.05210971832,2024-06-05 20:43:15.112517
17.15299677,5.391460896,1.691104174,0.8467617631,2024-06-05 20:43:15.152997
17.19349557,1.233906746,0.6711611748,0.9984838963,2024-06-05 20:43:15.193496
17.23397562,-2.624001503,-1.095435143,0.4412293434,2024-06-05 20:43:15.233976
17.27445588,-2.116043091,-1.516609669,0.08728550375,2024-06-05 20:43:15.274456
17.31493052,-0.9453077316,0.6715188026,0.5913910866,2024-06-05 20:43:15.314931
17.35540302,-0.09884691238,0.3709168434,-0.05568751693,2024-06-05 20:43:15.355403
17.39589432,0.1471371651,-0.4969887733,0.1016716957,2024-06-05 20:43:15.395894
17.4363739,1.542458534,1.035480022,0.6175895929,2024-06-05 20:43:15.436374
17.47684682,-1.28799963,2.401437759,0.7998722792,2024-06-05 20:43:15.476847
17.51731369,-3.150167465,-2.305557251,-0.2563034296,2024-06-05 20:43:15.517314
17.55780526,-0.7246069908,-2.479782104,0.09879738092,2024-06-05 20:43:15.557805
17.59829234,-2.164114952,-0.4804377556,0.2761953175,2024-06-05 20:43:15.598292
17.63875718,-2.732460976,-1.59323597,0.2279266715,2024-06-05 20:43:15.638757
17.67924302,-2.705857277,-1.645242691,-0.02015036345,2024-06-05 20:43:15.679243
17.71971942,0.5108103752,-0.4405388832,0.1632928252,2024-06-05 20:43:15.719719
17.76019286,1.291576385,-1.524474144,0.321754545,2024-06-05 20:43:15.760193
17.80067515,-0.175796032,0.02866268158,0.4451259077,2024-06-05 20:43:15.800675
17.84116599,-0.2863898277,0.08343315125,0.2799142897,2024-06-05 20:43:15.841166
17.88165541,-0.3315830231,0.2132034302,-0.4280895889,2024-06-05 20:43:15.881655
17.9221026,-1.726303101,-0.5617513657,-0.8333307505,2024-06-05 20:43:15.922103
17.9625777,-1.227588654,-0.9954929352,-1.256682515,2024-06-05 20:43:15.962578
18.00308036,-2.170243263,-2.221475124,-1.254758596,2024-06-05 20:43:16.003080
18.04356057,-0.3711624146,-1.703938007,-1.376208425,2024-06-05 20:43:16.043561
18.08404078,0.261048317,-0.959280014,-0.9238334298,2024-06-05 20:43:16.084041
18.12452099,0.5073690414,-1.175869465,-0.179481253,2024-06-05 20:43:16.124521
18.16499192,1.443942547,-0.4564785957,-1.332960844,2024-06-05 20:43:16.164992
18.20546739,3.367549896,0.5759301186,-1.293190002,2024-06-05 20:43:16.205467
18.24593724,2.72531414,0.4686925411,-0.5572738647,2024-06-05 20:43:16.245937
18.28642817,3.846735954,-1.159613848,-0.3611417413,2024-06-05 20:43:16.286428
18.32694281,2.241103172,-0.07739138603,0.02714794874,2024-06-05 20:43:16.326943
18.36742942,2.529747009,-0.2500841618,0.198581934,2024-06-05 20:43:16.367429
18.40790375,2.453903675,0.6902332306,0.7858735323,2024-06-05 20:43:16.407904
18.4483826,5.048418999,1.261409163,0.9307163954,2024-06-05 20:43:16.448383
18.4888439,3.510960579,0.8859789371,0.6610819101,2024-06-05 20:43:16.488844
18.52932932,0.1826028824,0.04548597336,0.5306847692,2024-06-05 20:43:16.529329
18.56981281,-0.9655418396,-1.164572239,0.670496881,2024-06-05 20:43:16.569813
18.61032989,-1.631728172,-0.09376096725,0.9713302851,2024-06-05 20:43:16.610330
18.65078718,-2.092713833,0.9179816246,0.7956604958,2024-06-05 20:43:16.650787
18.69124614,-1.627919197,0.501657486,1.20593667,2024-06-05 20:43:16.691246
18.7317077,-1.018640995,-2.596357822,0.2218661904,2024-06-05 20:43:16.731708
18.77220317,-0.6395459175,0.09025812149,0.2181121111,2024-06-05 20:43:16.772203
18.81269239,-2.746736526,-0.1494050026,-0.3030259013,2024-06-05 20:43:16.812692
18.8531664,-4.408988476,-2.615468025,0.4432641864,2024-06-05 20:43:16.853166
18.89364442,-1.014196873,-0.5615673065,0.1707789302,2024-06-05 20:43:16.893644
18.9341064,-1.172875404,1.014692783,0.8729507923,2024-06-05 20:43:16.934106
18.97457359,-2.148285866,-1.272068501,0.4389579296,2024-06-05 20:43:16.974574
19.01504729,-1.912035465,-1.425311089,0.5685437322,2024-06-05 20:43:17.015047
19.05552755,1.425547123,-0.7928071022,-0.5570845008,2024-06-05 20:43:17.055528
19.09605427,0.08410930634,-2.289705276,0.682662487,2024-06-05 20:43:17.096054
19.13651359,-1.426514149,-0.424759388,-0.1807719469,2024-06-05 20:43:17.136514
19.17702385,-0.06715536118,0.9157419205,-0.2000114471,2024-06-05 20:43:17.177024
19.21750437,-0.2594661713,-1.001738548,-1.349321127,2024-06-05 20:43:17.217504
19.25804359,-1.485952377,-2.444759369,-1.174305558,2024-06-05 20:43:17.258044
19.29843666,-0.365778923,-1.433616638,-0.5036475658,2024-06-05 20:43:17.298437
19.33891869,-0.510518074,-1.875679016,-1.212776303,2024-06-05 20:43:17.338919
19.37941604,-0.4672336578,-1.822638035,-0.8258963227,2024-06-05 20:43:17.379416
19.41991057,1.692018509,0.05727553368,-1.809520006,2024-06-05 20:43:17.419911
19.46039109,2.594703674,0.009536981583,-1.240381956,2024-06-05 20:43:17.460391
19.50085864,4.146051407,-0.05790257454,-0.3249877095,2024-06-05 20:43:17.500859
19.54136843,3.947233677,0.2818880081,0.8020715117,2024-06-05 20:43:17.541368
19.58180187,2.213502884,-0.7485671043,-0.1389596462,2024-06-05 20:43:17.581802
19.62232271,2.936715126,0.1675899029,1.134962082,2024-06-05 20:43:17.622323
19.66276906,2.384008408,0.8853493929,0.709195137,2024-06-05 20:43:17.662769
19.70324916,4.277993679,1.215993404,-0.03923660517,2024-06-05 20:43:17.703249
19.74372932,4.012496948,1.835230947,0.005518555641,2024-06-05 20:43:17.743729
19.78420948,0.9148206711,0.5575296879,-0.06307128817,2024-06-05 20:43:17.784209
19.82468968,-1.758241653,-1.639722347,0.8927938938,2024-06-05 20:43:17.824690
19.86515401,-1.938088417,-1.588516235,0.6066849232,2024-06-05 20:43:17.865154
19.90567437,-2.501775265,-0.3275976181,1.303407192,2024-06-05 20:43:17.905674
19.94613619,-2.5759902,-0.8117213249,0.4644991755,2024-06-05 20:43:17.946136
19.98663297,-0.53083992,-1.71720314,-0.01607823372,2024-06-05 20:43:17.986633
20.02708953,-0.07076454163,0.7565574646,-0.1923965812,2024-06-05 20:43:18.027090
20.06755979,-2.782144547,1.568240643,0.7951332331,2024-06-05 20:43:18.067560
20.10805057,-2.615276814,-1.195533752,-0.3995474577,2024-06-05 20:43:18.108051
20.14852385,-3.054560661,-1.443975925,-0.1117712259,2024-06-05 20:43:18.148524
20.18898468,-2.642233372,-1.198830605,-1.080992937,2024-06-05 20:43:18.188985
20.22946432,-1.403109074,-1.135227203,-0.05078184605,2024-06-05 20:43:18.229464
20.26994406,0.9386725426,-0.9053287506,0.04752245545,2024-06-05 20:43:18.269944
20.31044349,0.8009495735,0.2076506615,0.641797781,2024-06-05 20:43:18.310443
20.35092323,-1.085795403,0.3778047562,-0.2193713784,2024-06-05 20:43:18.350923
20.3914463,-0.9210896492,-0.8397498131,-0.9949644208,2024-06-05 20:43:18.391446
20.43191411,-0.7734179497,-0.4321956635,-1.016685963,2024-06-05 20:43:18.431914
20.4723925,-0.09689331055,-0.240190506,-1.460458994,2024-06-05 20:43:18.472393
20.51284468,-1.679840088,-1.062406063,-1.035897613,2024-06-05 20:43:18.512845
20.55331927,-1.876850128,-1.545126438,-0.67116642,2024-06-05 20:43:18.553319
20.5938375,-0.3255672455,-1.757690907,-0.2585462332,2024-06-05 20:43:18.593837
20.63431573,1.046134949,-1.45087266,-1.251022816,2024-06-05 20:43:18.634316
20.67484718,2.846081257,-0.5250372887,-1.981611848,2024-06-05 20:43:18.674847
20.71532864,2.788227558,-0.8631510735,-0.5059713125,2024-06-05 20:43:18.715329
20.75573057,2.649865627,0.2526583672,0.8302446008,2024-06-05 20:43:18.755731
20.79621474,3.653999329,0.3486324549,0.3266434073,2024-06-05 20:43:18.796215
20.83669437,4.304776192,1.166361094,0.8112052083,2024-06-05 20:43:18.836694
20.87716255,4.552789688,0.6085212231,0.3826775253,2024-06-05 20:43:18.877163
20.91763989,4.356796265,0.3039228916,0.7167526484,2024-06-05 20:43:18.917640
20.95815296,1.225719929,0.01158022881,0.7179106474,2024-06-05 20:43:18.958153
20.99863578,-1.446409225,-0.7083997726,0.8369473219,2024-06-05 20:43:18.998636
21.03911729,-1.220989227,-1.787868023,1.005966663,2024-06-05 20:43:19.039117
21.07959875,0.3429098129,0.05564212799,0.9383644462,2024-06-05 20:43:19.079599
21.12008026,-2.714372158,0.8157467842,1.162267327,2024-06-05 20:43:19.120080
21.16051536,-2.614462376,-0.6850905418,1.117717624,2024-06-05 20:43:19.160515
21.20100614,-1.323161602,0.1962199211,-0.01215082407,2024-06-05 20:43:19.201006
21.24150083,-2.117780685,-0.3158688545,-0.1935290694,2024-06-05 20:43:19.241501
21.28197369,-3.270736694,-0.8165645599,0.09496539831,2024-06-05 20:43:19.281974
21.32249276,-1.381333351,0.3619098663,0.1083779931,2024-06-05 20:43:19.322493
21.36294,-1.812082291,0.4609613419,0.4286391139,2024-06-05 20:43:19.362940
21.4034075,-3.592088699,-1.456167221,-0.3278271556,2024-06-05 20:43:19.403408
21.44390442,-0.8179225922,-1.942374229,0.07232958078,2024-06-05 20:43:19.443904
21.48440151,0.3727655411,-0.8116221428,0.6520462632,2024-06-05 20:43:19.484402
21.52486896,-1.58690834,-0.8540401459,-0.3825342655,2024-06-05 20:43:19.524869
21.5653489,-0.2440342903,0.4596829414,-1.480865002,2024-06-05 20:43:19.565349
21.6058551,2.90561676,1.209310055,-1.086556077,2024-06-05 20:43:19.605855
21.64628885,1.720074654,-0.2748675346,-1.278257966,2024-06-05 20:43:19.646289
21.68681239,-4.475769043,-2.584483147,-1.198615074,2024-06-05 20:43:19.686812
21.72729234,-3.923160553,-1.545290947,-1.334572196,2024-06-05 20:43:19.727292
21.76778453,-1.696442604,-1.906159401,0.2065899074,2024-06-05 20:43:19.767785
21.80820692,0.341919899,-2.334679365,-0.9606450796,2024-06-05 20:43:19.808207
21.84868614,2.454613686,-0.9351155758,-1.460055947,2024-06-05 20:43:19.848686
21.88917468,4.79432869,-0.7742581367,-0.1767986417,2024-06-05 20:43:19.889175
21.92963458,3.840703011,-0.1058931351,-0.3280787766,2024-06-05 20:43:19.929635
21.97012177,3.195292473,-0.9868495464,-0.3278285563,2024-06-05 20:43:19.970122
22.01062078,2.970389843,0.2168543339,-0.5554956198,2024-06-05 20:43:20.010621
22.05110791,5.011931419,1.634836197,0.9449576139,2024-06-05 20:43:20.051108
22.09159114,2.132972717,1.406003594,1.154204607,2024-06-05 20:43:20.091591
22.13207531,1.724671841,0.2824463844,1.090236306,2024-06-05 20:43:20.132075
22.17253161,0.7507734299,1.464895248,0.4522298574,2024-06-05 20:43:20.172532
22.21300713,-0.3833618164,1.349497557,0.2497105598,2024-06-05 20:43:20.213007
22.25351026,-0.8027715683,0.4558515549,0.2481368333,2024-06-05 20:43:20.253510
22.2939763,-0.3634343147,-1.162894726,0.3874850869,2024-06-05 20:43:20.293976
22.33446515,-1.060121059,-0.8158912659,0.7333301902,2024-06-05 20:43:20.334465
22.37496135,-1.047003269,-1.579308987,0.3627622724,2024-06-05 20:43:20.374961
22.41544067,-2.214488983,-2.857262611,0.348928988,2024-06-05 20:43:20.415441
22.45591088,-2.199874878,-1.242218971,0.8944733739,2024-06-05 20:43:20.455911
22.49641369,-2.437160015,-0.8481969833,0.4147243798,2024-06-05 20:43:20.496414
22.53690224,-2.018902779,-0.6252908707,0.20199278,2024-06-05 20:43:20.536902
22.57735989,-1.183020592,0.5782856941,-0.2357010841,2024-06-05 20:43:20.577360
22.61784208,-1.143961906,0.5572266579,0.4378338456,2024-06-05 20:43:20.617842
22.65830958,-0.8725337982,-1.194082737,0.1242920309,2024-06-05 20:43:20.658310
22.69878125,-0.7444357872,0.1360640526,-0.1372437179,2024-06-05 20:43:20.698781
22.73925875,-1.222504139,-0.3838410378,-0.720037818,2024-06-05 20:43:20.739259
22.77973672,-1.049490929,-1.870666027,-1.013483524,2024-06-05 20:43:20.779737
22.82021979,0.2634758949,-1.469215393,-0.9730483294,2024-06-05 20:43:20.820220
22.8607152,-0.887316227,-1.345883846,-0.9910792708,2024-06-05 20:43:20.860715
22.90119135,-2.084257126,-0.7543177605,-0.4299688935,2024-06-05 20:43:20.901191
22.94166583,0.429857254,-0.7258372307,-0.8154633045,2024-06-05 20:43:20.941666
22.98215531,-0.3592586517,-0.6717255116,-0.4336979985,2024-06-05 20:43:20.982155
23.0226225,-0.5112628937,-1.630342007,-2.756232738,2024-06-05 20:43:21.022623
23.06312135,3.45606041,-0.853811264,-0.230035007,2024-06-05 20:43:21.063121
23.10360015,6.035061836,0.4629821777,-0.405885458,2024-06-05 20:43:21.103600
23.14407338,5.450569153,-0.06864595413,0.05584514141,2024-06-05 20:43:21.144073
23.18452604,2.903089523,-0.2897515297,0.4675927162,2024-06-05 20:43:21.184526
23.22502646,2.500204086,1.49842906,0.3821972609,2024-06-05 20:43:21.225026
23.26552166,3.329364777,0.8863108158,0.1788692474,2024-06-05 20:43:21.265522
23.30600489,2.376485348,0.3615288734,0.5877081752,2024-06-05 20:43:21.306005
23.34650192,1.739769936,-0.07109117508,0.2787555456,2024-06-05 20:43:21.346502
23.38696755,-0.1355514526,0.0003309249878,0.3616449833,2024-06-05 20:43:21.386968
23.42743656,-0.8973464966,-0.2773184776,0.8868727684,2024-06-05 20:43:21.427437
23.46791338,-1.499549389,-0.5820946693,0.6551849246,2024-06-05 20:43:21.467913
23.50839208,-2.520971775,-0.9861664772,0.857688427,2024-06-05 20:43:21.508392
23.54887255,-3.115207672,-1.153534412,-0.01156622171,2024-06-05 20:43:21.548873
23.58936796,-3.335865974,-1.100462437,-0.4741212726,2024-06-05 20:43:21.589368
23.62981307,-2.614547729,-0.6316971779,0.04620099068,2024-06-05 20:43:21.629813
23.67030672,-1.386043072,-0.6904687881,-0.1707100868,2024-06-05 20:43:21.670307
23.71078708,0.05486011505,0.4590930939,0.02260112762,2024-06-05 20:43:21.710787
23.75125036,-1.115366936,0.6167140007,0.4561346471,2024-06-05 20:43:21.751250
23.79174984,-1.207182884,-0.5233983994,0.4061201215,2024-06-05 20:43:21.791750
23.83221869,-0.9723629951,-1.121299744,1.147889256,2024-06-05 20:43:21.832219
23.87272146,-1.293944836,-1.625755787,0.761302352,2024-06-05 20:43:21.872721
23.91322354,-1.543465137,-1.412395954,-0.7425502539,2024-06-05 20:43:21.913224
23.95366036,0.5453619957,-0.7747688293,-0.3665623665,2024-06-05 20:43:21.953660
23.99417281,0.3280973434,-1.277567387,-0.1547665298,2024-06-05 20:43:21.994173
24.03463442,-1.568991661,-1.187721252,-0.5760011673,2024-06-05 20:43:22.034634
24.07512646,-0.8659067154,-1.393655777,-0.8738017082,2024-06-05 20:43:22.075126
24.11560468,-2.628298759,-1.690479279,-0.2721863985,2024-06-05 20:43:22.115605
24.15607291,1.577278137,-2.284084797,-0.334041357,2024-06-05 20:43:22.156073
24.19652255,3.052718163,-0.6545846462,-2.60336113,2024-06-05 20:43:22.196523
24.23706458,3.862466335,1.485840201,-0.05978155136,2024-06-05 20:43:22.237065
24.27752,4.417493343,0.619934082,0.8494948745,2024-06-05 20:43:22.277520
24.31801911,3.009989738,-1.319395065,0.3639534116,2024-06-05 20:43:22.318019
24.3584727,2.799225807,0.4004530907,0.5155136585,2024-06-05 20:43:22.358473
24.39892578,5.184361458,0.9464931488,0.5497456789,2024-06-05 20:43:22.398926
24.43942729,2.416067123,1.338520288,0.697792232,2024-06-05 20:43:22.439427
24.47994687,1.059312344,-0.2049293518,0.9244129658,2024-06-05 20:43:22.479947
24.52040583,-0.5691394806,-0.9089064598,1.12544477,2024-06-05 20:43:22.520406
24.56088734,-1.024047852,0.4253759384,0.7354115248,2024-06-05 20:43:22.560887
24.60139109,-1.660307884,0.573679924,0.6991721392,2024-06-05 20:43:22.601391
24.64185401,-0.07139921188,0.1410927773,0.1800380051,2024-06-05 20:43:22.641854
24.68231151,-0.2823271751,0.474442482,0.4733099639,2024-06-05 20:43:22.682312
24.72279807,-2.248071671,-0.6937499046,0.4820087552,2024-06-05 20:43:22.722798
24.76326984,-4.646559715,-2.348622799,-0.02718281746,2024-06-05 20:43:22.763270
24.80378,-4.209326267,-0.7095317841,0.2406539917,2024-06-05 20:43:22.803780
24.8442364,-2.200143337,-0.7774400711,-0.08424124122,2024-06-05 20:43:22.844236
24.88470744,0.9140348434,0.2283411026,0.4420968294,2024-06-05 20:43:22.884707
24.92518557,1.153747559,-0.03174209595,-0.4285874367,2024-06-05 20:43:22.925186
24.96569864,-0.9134259224,-2.201554298,-0.4135596156,2024-06-05 20:43:22.965699
25.00616213,-0.5781311989,-0.1807513237,0.0006433576345,2024-06-05 20:43:23.006162
25.04664224,-0.3780765533,0.9714126587,-0.02941507101,2024-06-05 20:43:23.046642
25.08712703,-2.065071583,0.1601419449,-0.7216392756,2024-06-05 20:43:23.087127
25.12760302,-1.200380802,-1.270727634,-1.328041434,2024-06-05 20:43:23.127603
25.16808812,-0.2894358635,-1.785985947,-0.7937340736,2024-06-05 20:43:23.168088
25.20853974,-1.371078491,-2.641210556,-1.126469016,2024-06-05 20:43:23.208540
25.24906281,-2.29689312,-1.944800854,-0.5245868564,2024-06-05 20:43:23.249063
25.28954073,-1.92035675,-1.091378212,-1.455791354,2024-06-05 20:43:23.289541
25.33001994,0.2353973389,-1.076397896,-0.7882646918,2024-06-05 20:43:23.330020
25.37048437,5.203008652,0.4226851463,0.2699532509,2024-06-05 20:43:23.370484
25.4109675,6.838266373,1.48669672,-1.438243628,2024-06-05 20:43:23.410968
25.45144198,3.517962456,0.3417489529,-0.9723587036,2024-06-05 20:43:23.451442
25.49193062,0.8773126602,-0.6977787018,-0.9936950803,2024-06-05 20:43:23.491931
25.53242854,2.774713039,0.6196875572,-0.02751028538,2024-06-05 20:43:23.532429
25.57291906,6.045589447,0.09654688835,0.009127318859,2024-06-05 20:43:23.572919
25.61338604,3.070951462,1.618100882,0.9816910028,2024-06-05 20:43:23.613386
25.65386552,-1.009868622,0.1197154522,0.7983196974,2024-06-05 20:43:23.653866
25.69432151,-1.663109779,-0.2615952492,1.018736243,2024-06-05 20:43:23.694322
25.73479224,-0.09693050385,0.7387495041,0.4389765859,2024-06-05 20:43:23.734792
25.77527291,0.2102546692,1.057301998,0.8142236471,2024-06-05 20:43:23.775273
25.81579494,-1.45197773,-0.3531575203,-0.6249234676,2024-06-05 20:43:23.815795
25.85629328,-2.536664963,-0.7874808311,0.3650468886,2024-06-05 20:43:23.856293
25.89673823,-2.664655685,-2.263917446,-0.4803658724,2024-06-05 20:43:23.896738
25.93720317,-2.181727886,-1.486610889,-0.1454212666,2024-06-05 20:43:23.937203
25.97770953,-2.53403759,-0.3126392365,0.03841307759,2024-06-05 20:43:23.977710
26.01817963,-1.825609684,0.5818538666,0.4268003702,2024-06-05 20:43:24.018180
26.05864661,-0.1110663414,0.5330400467,0.5047961473,2024-06-05 20:43:24.058647
26.09915062,-1.83115387,-1.819223404,0.449187994,2024-06-05 20:43:24.099151
26.13960146,-0.4792685509,-2.693545341,0.3699994683,2024-06-05 20:43:24.139601
26.18008328,-0.5570578575,-0.9090061188,-0.2200413048,2024-06-05 20:43:24.180083
26.22056297,-0.6172628403,0.231221199,-1.293276072,2024-06-05 20:43:24.220563
26.26105989,-1.302901745,-0.3454885483,0.1967505068,2024-06-05 20:43:24.261060
26.30153823,0.9657802582,-0.5032801628,-0.6198709011,2024-06-05 20:43:24.301538
26.34201604,0.0008382797241,-0.4613394737,-0.5446348786,2024-06-05 20:43:24.342016
26.38248708,-3.174232483,-2.471310616,-0.9366004467,2024-06-05 20:43:24.382487
26.4229738,-3.016475677,-2.368207932,-0.3345996737,2024-06-05 20:43:24.422974
26.46348375,0.3463716507,-0.7605686188,-1.037956595,2024-06-05 20:43:24.463484
26.50394505,2.339157104,0.01314616203,-2.055796385,2024-06-05 20:43:24.503945
26.54442479,5.164363861,-0.6693384647,-1.825431585,2024-06-05 20:43:24.544425
26.5849027,6.418406487,0.5742292404,-0.6982883215,2024-06-05 20:43:24.584903
26.62537713,1.910461426,0.9432914257,0.07602500916,2024-06-05 20:43:24.625377
26.66586401,1.270589828,-1.989548445,-0.2510783076,2024-06-05 20:43:24.665864
26.70634484,1.663031578,-0.033649683,-0.1078418493,2024-06-05 20:43:24.706345
26.74686244,5.941977024,1.225153446,0.2485339046,2024-06-05 20:43:24.746862
26.78731651,2.778088093,2.003741741,0.8139816523,2024-06-05 20:43:24.787317
26.82778442,1.016823769,0.7964355946,0.260119617,2024-06-05 20:43:24.827784
26.8682339,-0.5854673386,0.02456712723,0.76007092,2024-06-05 20:43:24.868234
26.90874161,-1.298808575,1.094198704,1.423104525,2024-06-05 20:43:24.908742
26.94922396,-3.562905788,0.5962314606,0.198846072,2024-06-05 20:43:24.949224
26.98970411,-2.841188431,-1.340717793,0.07737825811,2024-06-05 20:43:24.989704
27.03016948,-2.808876991,-0.5781459808,-0.4688820243,2024-06-05 20:43:25.030169
27.0706777,-2.379207611,-0.5457701683,-0.3737320304,2024-06-05 20:43:25.070678
27.11117797,-0.9840273857,-0.5455088615,-0.381414026,2024-06-05 20:43:25.111178
27.1516026,-0.3231906891,0.3029255867,-0.02270321548,2024-06-05 20:43:25.151603
27.19207109,-1.012489796,0.02335834503,-0.1164440662,2024-06-05 20:43:25.192071
27.23255765,-1.318185806,-0.500369072,-0.5486409068,2024-06-05 20:43:25.232558
27.27306802,-0.6130690575,-1.287316322,0.6185467243,2024-06-05 20:43:25.273068
27.31352974,-1.416680336,-1.591626644,0.6115823984,2024-06-05 20:43:25.313530
27.35404927,-2.46257782,-1.497547626,0.1581105888,2024-06-05 20:43:25.354049
27.39457771,0.1082220078,-0.7901711464,-1.144392014,2024-06-05 20:43:25.394578
27.43499234,2.457187653,0.3880677223,-0.9087071419,2024-06-05 20:43:25.434992
27.47546161,-2.413109303,-2.641050816,0.3806650043,2024-06-05 20:43:25.475462
27.51595932,-2.750553131,-0.01910448074,-2.471445084,2024-06-05 20:43:25.515959
27.55643073,-0.04468631744,1.329493046,-1.494755745,2024-06-05 20:43:25.556431
27.59691031,-1.674581528,-1.110839367,-1.415060282,2024-06-05 20:43:25.596910
27.63737922,-0.6863479614,-3.590694189,-1.295044184,2024-06-05 20:43:25.637379
27.67790281,2.32864809,1.122056723,-1.105123401,2024-06-05 20:43:25.677903
27.71835119,4.398709297,-0.03925490379,-0.5026936531,2024-06-05 20:43:25.718351
27.75885281,6.328208447,0.05254745483,-0.5443388224,2024-06-05 20:43:25.758853
27.79932166,5.28624773,0.7568292618,-0.02531337738,2024-06-05 20:43:25.799322
27.83975828,-0.6823005676,1.139150143,0.3393229246,2024-06-05 20:43:25.839758
27.88026416,2.794584274,-1.203374624,0.08815538883,2024-06-05 20:43:25.880264
27.92073312,3.835124016,0.1626017094,0.6014131308,2024-06-05 20:43:25.920733
27.96120255,3.172173023,0.4497990608,0.9804384708,2024-06-05 20:43:25.961203
28.00167401,0.6484050751,0.1357750893,1.561450362,2024-06-05 20:43:26.001674
28.04224526,-0.8663291931,0.4096841812,1.360978723,2024-06-05 20:43:26.042245
28.08264974,-4.720103264,1.575424671,1.157295108,2024-06-05 20:43:26.082650
28.12321729,-3.505520821,-0.5723128319,0.5064570308,2024-06-05 20:43:26.123217
28.16366276,-1.76324749,-1.616675854,0.08209395409,2024-06-05 20:43:26.163663
28.20412698,-2.51377964,-0.1058506966,-0.4872332215,2024-06-05 20:43:26.204127
28.24457156,-4.312366486,-1.427947521,0.8568280935,2024-06-05 20:43:26.244572
28.28506578,-1.660538673,0.9349164963,0.6933220625,2024-06-05 20:43:26.285066
28.32556619,-0.7288856506,0.5330963135,0.425567776,2024-06-05 20:43:26.325566
28.36604541,-0.2782320976,-2.092937469,-0.06215983629,2024-06-05 20:43:26.366045
28.40650198,1.117620945,-1.250445843,0.06762103736,2024-06-05 20:43:26.406502
28.44699067,-0.8123145103,-0.6506390572,0.751188159,2024-06-05 20:43:26.446991
28.48746052,-2.027235031,-0.9440307617,-0.2621878088,2024-06-05 20:43:26.487461
28.52794317,-0.8741521835,-0.3495664597,-0.5154275894,2024-06-05 20:43:26.527943
28.56841119,-0.1201810837,0.02071475983,-1.008116126,2024-06-05 20:43:26.568411
28.60887427,-0.3122029305,-1.596358776,-0.7648512125,2024-06-05 20:43:26.608874
28.64937838,-2.330274582,-2.262574196,-0.387911588,2024-06-05 20:43:26.649378
28.68987849,-2.271281242,-1.181631565,-0.6901953816,2024-06-05 20:43:26.689878
28.73033489,-1.448768616,-1.400871277,0.119580701,2024-06-05 20:43:26.730335
28.77083062,2.373466969,-1.812508583,-0.7232529521,2024-06-05 20:43:26.770831
28.81132411,2.918888092,-0.7794108391,-1.793516636,2024-06-05 20:43:26.811324
28.8518039,4.806763649,0.3340456486,-0.2482545376,2024-06-05 20:43:26.851804
28.89228463,6.444811821,1.086607456,-0.2614254057,2024-06-05 20:43:26.892285
28.9327502,3.247811317,-0.3103234768,-0.02886688709,2024-06-05 20:43:26.932750
28.97323172,2.893422127,0.8936886787,0.8883010149,2024-06-05 20:43:26.973232
29.01370526,2.30325985,0.9227569103,1.268678188,2024-06-05 20:43:27.013705
29.05419833,0.1448001862,-0.003180503845,0.8958607316,2024-06-05 20:43:27.054198
29.09467692,1.582955837,-0.315328598,0.9125781655,2024-06-05 20:43:27.094677
29.13514526,2.157812119,1.392929792,0.8921926618,2024-06-05 20:43:27.135145
29.17561614,-1.259323597,2.023295879,1.192282319,2024-06-05 20:43:27.175616
29.21610541,-0.907345295,-1.005060196,0.4346546233,2024-06-05 20:43:27.216105
29.25660276,-1.45939827,0.2695455551,1.122281551,2024-06-05 20:43:27.256603
29.29705937,-4.008743286,-0.9054899216,0.2743358612,2024-06-05 20:43:27.297059
29.3375414,-4.62357378,-3.70900774,-0.6817370653,2024-06-05 20:43:27.337541
29.37802213,-3.331899643,0.4316444397,-0.1824734509,2024-06-05 20:43:27.378022
29.41851916,-2.132065296,-0.5764040947,-0.4678933918,2024-06-05 20:43:27.418519
29.45900297,-1.245265484,-1.81188488,-0.6304039359,2024-06-05 20:43:27.459003
29.49949864,0.324221611,0.7976360321,-0.1914721429,2024-06-05 20:43:27.499499
29.5399638,-0.350912571,0.5499887466,-0.2078188062,2024-06-05 20:43:27.539964
29.58045672,0.1504178047,-0.653837204,0.07765897363,2024-06-05 20:43:27.580457
29.62093541,-1.110183716,0.05251502991,-0.6043162346,2024-06-05 20:43:27.620935
29.66140958,-2.507085323,-0.9786605835,-0.6016950011,2024-06-05 20:43:27.661410
29.70188718,-2.345312595,-2.345631123,-1.096869349,2024-06-05 20:43:27.701887
29.74234692,-1.046190262,-2.633972645,-1.151353121,2024-06-05 20:43:27.742347
29.78283797,-1.76938343,-0.9000372887,-1.262616396,2024-06-05 20:43:27.782838
29.82332682,0.7188606262,-0.923324585,-0.1261803061,2024-06-05 20:43:27.823327
29.86382765,3.410606384,-1.574226856,-0.2100027502,2024-06-05 20:43:27.863828
29.90428151,3.111949921,-0.634591341,-1.179564238,2024-06-05 20:43:27.904282
29.94474354,2.134115219,0.4012825489,0.569524467,2024-06-05 20:43:27.944744
29.98523812,3.762421608,-0.9498553276,-0.5662736297,2024-06-05 20:43:27.985238
30.0257039,3.810228348,-0.2456591129,0.2095125914,2024-06-05 20:43:28.025704
30.06618218,1.961694717,-0.7250244617,0.5825770497,2024-06-05 20:43:28.066182
30.10666146,4.445187092,1.250575423,0.1005139947,2024-06-05 20:43:28.106661
30.14715604,6.372229576,2.015999079,0.5536566973,2024-06-05 20:43:28.147156
30.18759291,1.882267952,1.709294081,0.6646717787,2024-06-05 20:43:28.187593
30.22812239,-0.7486944199,-0.2450566292,0.7159724236,2024-06-05 20:43:28.228122
30.26858198,-3.760867119,-0.7613959312,0.597787559,2024-06-05 20:43:28.268582
30.30903823,-4.528914452,-0.3880419731,0.6553806067,2024-06-05 20:43:28.309038
30.3495901,-0.8526105881,-1.029748917,-0.07700571418,2024-06-05 20:43:28.349590
30.39002302,-1.025266171,-0.1479077339,0.176947087,2024-06-05 20:43:28.390023
30.43052505,-2.007035732,-0.4932832718,-0.7950877547,2024-06-05 20:43:28.430525
30.47100234,-1.53823185,0.7860116959,0.3596133292,2024-06-05 20:43:28.471002
30.51147067,-2.170548916,-0.2127490044,0.1027158797,2024-06-05 20:43:28.511471
30.55197041,-2.697123051,-1.540343285,-0.2783026695,2024-06-05 20:43:28.551970
30.59244187,-2.291041374,-0.6751656532,0.1448910385,2024-06-05 20:43:28.592442
30.63292396,-2.087205887,-0.6790633202,0.3587682843,2024-06-05 20:43:28.632924
30.67339166,-1.388645172,-2.062213421,-0.3202719986,2024-06-05 20:43:28.673392
30.71388213,-0.6581306458,-1.305604458,-0.9628560543,2024-06-05 20:43:28.713882
30.75433416,0.5992331505,-1.242680073,-0.9134579301,2024-06-05 20:43:28.754334
30.79484875,-0.01226758957,-0.5480914116,-0.552143693,2024-06-05 20:43:28.794849
30.83531213,-1.490184784,0.1020460129,-1.112691164,2024-06-05 20:43:28.835312
30.87581317,-1.126939774,-0.5231614113,-1.017767191,2024-06-05 20:43:28.875813
30.91626296,0.03545951843,-1.855804443,-0.609619379,2024-06-05 20:43:28.916263
30.95677922,-1.723504066,-3.459698677,-1.039075732,2024-06-05 20:43:28.956779
30.99724604,1.036718369,-0.8152785301,-1.474587679,2024-06-05 20:43:28.997246
31.0377225,4.913713932,1.098939538,-0.6970659494,2024-06-05 20:43:29.037723
31.07821796,7.147772312,1.462893486,-0.7260564566,2024-06-05 20:43:29.078218
31.1187064,6.146421432,0.505354166,-0.1740041375,2024-06-05 20:43:29.118706
31.15919906,4.343225479,1.346485138,1.00799334,2024-06-05 20:43:29.159199
31.19966177,1.189160347,1.104497075,0.233394146,2024-06-05 20:43:29.199662
31.2401163,3.269958496,-1.769883394,0.2439116836,2024-06-05 20:43:29.240116
31.28058573,0.1215438843,-1.227510452,0.8816006184,2024-06-05 20:43:29.280586
31.32109182,0.5264043808,0.3984885216,0.5571695566,2024-06-05 20:43:29.321092
31.36155573,-3.36344099,1.060664177,1.215659618,2024-06-05 20:43:29.361556
31.40204869,-2.120268822,0.1123447418,0.02045066655,2024-06-05 20:43:29.402049
31.44252146,0.7437591553,1.304906845,0.6102388501,2024-06-05 20:43:29.442521
31.48302922,-2.323379993,0.4157838821,0.7433896065,2024-06-05 20:43:29.483029
31.5234989,-5.374268055,-2.667215347,-0.5755001903,2024-06-05 20:43:29.523499
31.56396385,-3.512214661,-1.219673157,0.7804207802,2024-06-05 20:43:29.563964
31.60444083,-4.95233202,-3.126814842,-0.3914996982,2024-06-05 20:43:29.604441
31.64494255,-0.2292876244,-0.1104307175,-0.04356762767,2024-06-05 20:43:29.644943
31.6854013,1.460043907,0.6527867317,0.04456163943,2024-06-05 20:43:29.685401
31.72590057,0.6113843918,-0.5733590126,0.5474156141,2024-06-05 20:43:29.725901
31.76634234,-1.755916119,-1.09858799,-1.047213674,2024-06-05 20:43:29.766342
31.80685,-2.139920235,0.5394825935,-0.3015828729,2024-06-05 20:43:29.806850
31.8473114,-0.852994442,-0.9505367279,-0.9614036083,2024-06-05 20:43:29.847311
31.88780182,-1.482047558,-2.313080311,-0.7742260695,2024-06-05 20:43:29.887802
31.92829448,-1.54907608,-2.578014374,-1.123637199,2024-06-05 20:43:29.928294
31.96877734,-1.993034363,-2.50149107,-1.367435932,2024-06-05 20:43:29.968777
32.00922942,1.348762989,-2.073697329,-0.542601943,2024-06-05 20:43:30.009229
32.04974234,2.612858772,-0.04652094841,-1.719948292,2024-06-05 20:43:30.049742
32.09021599,3.833581924,-0.3577716351,-1.141978502,2024-06-05 20:43:30.090216
32.13069349,4.669748306,0.4861457348,-0.4653964043,2024-06-05 20:43:30.130693
32.1711976,4.426076889,0.0317940712,0.1976642609,2024-06-05 20:43:30.171198
32.21165646,3.569962502,0.4856045246,-0.2180548906,2024-06-05 20:43:30.211656
32.25211885,3.855137825,1.236753225,0.7014328241,2024-06-05 20:43:30.252119
32.29261968,1.652856827,2.142208338,0.724869132,2024-06-05 20:43:30.292620
32.3331177,2.307828426,0.6535489559,-0.09067773819,2024-06-05 20:43:30.333118
32.3735988,1.877890587,0.3855679035,0.2243420184,2024-06-05 20:43:30.373599
32.41406328,-0.2116289139,0.4905176163,0.7530426979,2024-06-05 20:43:30.414063
32.45452422,-0.3614668846,0.1502790451,0.9668345451,2024-06-05 20:43:30.454524
32.4950039,-0.7173290253,-1.419062138,0.4991222918,2024-06-05 20:43:30.495004
32.53548396,-2.998972893,-2.446466923,0.5004222393,2024-06-05 20:43:30.535484
32.57598156,-4.261962414,-2.767110825,-0.7504757047,2024-06-05 20:43:30.575982
32.61646942,-3.917741299,-0.8021159172,0.1482015848,2024-06-05 20:43:30.616469
32.65694067,-4.386702061,-1.18034935,-0.8133808374,2024-06-05 20:43:30.656941
32.69741218,-1.791746616,-0.05926656723,0.2508770823,2024-06-05 20:43:30.697412
32.7379025,0.5349907875,1.130107403,1.122560978,2024-06-05 20:43:30.737902
32.77836604,0.3805413246,0.1916766167,0.4831964672,2024-06-05 20:43:30.778366
32.81882166,-1.255414963,-1.60678196,0.2458935082,2024-06-05 20:43:30.818822
32.8593313,-4.23903656,-3.17484951,-0.7461320758,2024-06-05 20:43:30.859331
32.89980286,0.1695227623,-1.975447178,-0.4736275971,2024-06-05 20:43:30.899803
32.94027177,0.4244875908,-2.348270416,-0.9829134345,2024-06-05 20:43:30.940272
32.98076843,-0.2237577438,-0.4303951263,-0.6333599091,2024-06-05 20:43:30.980768
33.02125406,-0.277630806,0.04581785202,-0.4443050623,2024-06-05 20:43:31.021254
33.06176302,-0.8299179077,-1.195317745,-1.278034806,2024-06-05 20:43:31.061763
33.10223291,0.6008014679,-1.621969461,-0.8816340566,2024-06-05 20:43:31.102233
33.14270338,2.250923157,0.623544693,-1.305860519,2024-06-05 20:43:31.142703
33.18316182,3.51206255,-0.2992868423,-1.555307865,2024-06-05 20:43:31.183162
33.22365041,5.415010452,0.4859716892,-0.8199121952,2024-06-05 20:43:31.223650
33.26412708,4.634055614,1.883339167,0.07763814926,2024-06-05 20:43:31.264127
33.30460953,4.488564491,0.3520381451,0.6733152866,2024-06-05 20:43:31.304610
33.34510296,3.29309988,0.6283690929,0.5123462677,2024-06-05 20:43:31.345103
33.38557406,3.23794651,0.4856460094,0.4807691276,2024-06-05 20:43:31.385574
33.42604833,1.222737789,-0.7367763519,0.5295058489,2024-06-05 20:43:31.426048
33.46654646,-0.4423427582,-0.9716277122,1.152419686,2024-06-05 20:43:31.466546
33.50701828,-1.097116947,0.9328465462,1.213118911,2024-06-05 20:43:31.507018
33.54749677,-2.2245965,0.8233995438,0.5501741171,2024-06-05 20:43:31.547497
33.58797489,-2.766809464,-1.470780849,-0.5855997801,2024-06-05 20:43:31.587975
33.6285014,-4.144645214,-2.645698547,0.004848122597,2024-06-05 20:43:31.628501
33.66894828,-4.269971371,-1.217556477,-0.1472933292,2024-06-05 20:43:31.668948
33.70943297,-1.390185833,1.433729649,1.019215465,2024-06-05 20:43:31.709433
33.74987109,-1.71906805,-0.5564312935,0.3860753775,2024-06-05 20:43:31.749871
33.79040666,-2.276266575,-2.407495022,-0.3736378551,2024-06-05 20:43:31.790407
33.83090458,-1.456495285,-1.248728275,-0.03687852621,2024-06-05 20:43:31.830905
33.87133619,0.3310890198,-1.333055496,0.6070197821,2024-06-05 20:43:31.871336
33.91184776,-0.8598327637,0.02660322189,-0.381788671,2024-06-05 20:43:31.911848
33.95233885,-2.067644119,0.6590251923,-0.1945782006,2024-06-05 20:43:31.952339
33.99278807,-1.226841927,-0.1544947624,-1.972439647,2024-06-05 20:43:31.992788
34.03327078,-0.9056420326,-1.876780033,-1.506462812,2024-06-05 20:43:32.033271
34.07375708,-0.3292121887,-3.494959354,-0.8607339263,2024-06-05 20:43:32.073757
34.11430661,-0.925327301,-3.402131081,-0.7311546803,2024-06-05 20:43:32.114307
34.15470911,-0.7654705048,-1.243897438,0.1768937707,2024-06-05 20:43:32.154709
34.19517609,2.514739513,0.3601632118,-0.02750253677,2024-06-05 20:43:32.195176
34.23565703,6.500191212,-0.9555633068,-2.148489475,2024-06-05 20:43:32.235657
34.27615349,5.276054382,0.2889990807,-0.5985512137,2024-06-05 20:43:32.276153
34.31664849,1.133277893,0.4754626751,-0.9625226259,2024-06-05 20:43:32.316648
34.35712593,1.929674625,-0.4756472111,0.2336485386,2024-06-05 20:43:32.357126
34.39761963,3.833287716,1.452875733,0.5023325682,2024-06-05 20:43:32.397620
34.43803099,5.85504961,2.120714188,0.8021665812,2024-06-05 20:43:32.438031
34.47856192,3.899628162,1.653369188,0.8335869908,2024-06-05 20:43:32.478562
34.51904198,-0.5490064621,0.5954098701,0.9270278215,2024-06-05 20:43:32.519042
34.55951448,-3.137495041,-1.804848671,0.21308963,2024-06-05 20:43:32.559514
34.59996135,-2.23028326,-1.823142052,-0.05386002362,2024-06-05 20:43:32.599961
34.64047599,-0.6331577301,-1.381925106,0.1015736908,2024-06-05 20:43:32.640476
34.68094713,-0.3218221664,-0.4905686378,-0.1976562738,2024-06-05 20:43:32.680947
34.72140354,-2.344914913,0.68491745,0.01402920485,2024-06-05 20:43:32.721404
34.76193,-1.696488857,1.309587002,0.3171460032,2024-06-05 20:43:32.761930
34.80241599,-3.439621449,-0.7476143837,0.4433054924,2024-06-05 20:43:32.802416
34.84288692,-5.468378544,-3.724814415,-1.427455902,2024-06-05 20:43:32.842887
34.88335172,-1.847709656,-1.904258728,0.6999315023,2024-06-05 20:43:32.883352
34.9238551,-0.2775702477,-1.00846529,0.2273655832,2024-06-05 20:43:32.923855
34.96431328,0.09305334091,-0.6989607811,-1.126249194,2024-06-05 20:43:32.964313
35.00476963,1.504323006,1.193766117,-0.4104332924,2024-06-05 20:43:33.004770
35.04530026,1.3335886,0.690551281,-0.3022266626,2024-06-05 20:43:33.045300
35.08574989,-1.47385931,-1.426705837,-1.049982071,2024-06-05 20:43:33.085750
35.12624343,-2.165269375,-0.9071731567,-1.014546514,2024-06-05 20:43:33.126243
35.16673291,-3.351616859,-1.311797142,-1.508157372,2024-06-05 20:43:33.166733
35.20717437,-1.622766495,-1.785758495,-1.043424845,2024-06-05 20:43:33.207174
35.24768937,0.5740194321,-1.957777977,-0.6108899117,2024-06-05 20:43:33.247689
35.28816666,2.934129715,-1.185526609,-0.03524255753,2024-06-05 20:43:33.288167
35.32864703,3.957448483,-1.758786201,-0.7779510021,2024-06-05 20:43:33.328647
35.36909677,3.143042564,0.2431824207,-0.5279842019,2024-06-05 20:43:33.369097
35.40960031,5.652429104,0.4482164383,-0.7848012447,2024-06-05 20:43:33.409600
35.45005682,3.841718674,0.9812405109,0.07462787628,2024-06-05 20:43:33.450057
35.49052984,5.564434052,1.250616431,-0.185970664,2024-06-05 20:43:33.490530
35.53103125,1.341100693,1.603860855,1.259268999,2024-06-05 20:43:33.531031
35.57153547,-2.643046379,1.315934896,0.7211509943,2024-06-05 20:43:33.571535
35.61200698,-0.3480119705,-1.622388363,0.6243873835,2024-06-05 20:43:33.612007
35.65249515,-0.07236480713,-0.2170739174,0.561001718,2024-06-05 20:43:33.652495
35.69298677,0.8707027435,1.562197924,0.338016659,2024-06-05 20:43:33.692987
35.7334164,-0.4121394157,1.058569431,0.423930347,2024-06-05 20:43:33.733416
35.77390661,-1.04797554,0.05060338974,-0.1800703704,2024-06-05 20:43:33.773907
35.81440432,-2.786294937,-1.584429264,0.02057099342,2024-06-05 20:43:33.814404
35.85486791,-5.19338274,-1.813929558,0.06471818686,2024-06-05 20:43:33.854868
35.89535239,-4.984269619,-0.00425863266,-0.6446400285,2024-06-05 20:43:33.895352
35.93583187,-1.612729549,-0.7807264328,-0.7823829651,2024-06-05 20:43:33.935832
35.97632776,1.130778313,-2.873715401,-0.1921836138,2024-06-05 20:43:33.976328
36.01679296,1.244689941,-1.969687939,0.1785908043,2024-06-05 20:43:34.016793
36.05728083,0.5299034119,0.7501535416,1.161014676,2024-06-05 20:43:34.057281
36.09778088,-0.4298419952,1.376427174,0.4726034403,2024-06-05 20:43:34.097781
36.13824172,-0.373925209,0.9310150146,-0.1846093088,2024-06-05 20:43:34.138242
36.17867192,-2.839668751,-0.3461103439,-0.4967901409,2024-06-05 20:43:34.178672
36.21917583,-2.583297729,-2.62080574,-1.940758467,2024-06-05 20:43:34.219176
36.25968052,-1.86921978,-2.731848717,-0.8219844103,2024-06-05 20:43:34.259681
36.30017729,-2.216680527,-2.539204597,-0.7998169661,2024-06-05 20:43:34.300177
36.34064557,1.099345207,-0.8640761375,-0.751301229,2024-06-05 20:43:34.340646
36.38113276,3.787770271,-0.05126142502,-0.06380474567,2024-06-05 20:43:34.381133
36.42162067,3.475270271,0.6734702587,-0.9626965523,2024-06-05 20:43:34.421621
36.46208208,4.950676918,-1.143832445,-1.165104985,2024-06-05 20:43:34.462082
36.5025577,4.336589336,1.497584701,0.07709562778,2024-06-05 20:43:34.502558
36.54304021,0.1743507385,0.006268501282,0.6290515065,2024-06-05 20:43:34.543040
36.58353583,2.717950344,-0.1997442245,0.4161966443,2024-06-05 20:43:34.583536
36.62401838,4.912652969,1.314022303,1.077397585,2024-06-05 20:43:34.624018
36.66449187,3.939375401,1.257386923,0.963098526,2024-06-05 20:43:34.664492
36.70497698,0.2198705673,0.1823649406,0.7462170124,2024-06-05 20:43:34.704977
36.74543896,-0.9620609283,-0.6879234314,0.1948626339,2024-06-05 20:43:34.745439
36.78592922,-0.1091456413,-0.4141788483,0.3021942079,2024-06-05 20:43:34.785929
36.82641052,-0.8489174843,0.5726613998,1.580124259,2024-06-05 20:43:34.826411
36.8668975,-3.372127056,-0.8455958366,0.4848017991,2024-06-05 20:43:34.866898
36.90736547,-2.908155441,-1.391446114,0.5959306955,2024-06-05 20:43:34.907365
36.94783656,-4.765761375,-2.343751907,-1.130759954,2024-06-05 20:43:34.947837
36.98832625,-4.009603024,-0.2252449989,-0.5989222527,2024-06-05 20:43:34.988326
37.02886567,-1.623790741,-0.961628437,-0.01776617765,2024-06-05 20:43:35.028866
37.06931166,-0.8557534218,-0.464527607,0.2847925425,2024-06-05 20:43:35.069312
37.10975906,0.1567454338,1.060557365,0.02513290942,2024-06-05 20:43:35.109759
37.15023859,0.2548799515,0.8264117241,0.4187602103,2024-06-05 20:43:35.150239
37.19071682,0.9295744896,0.2887201309,0.595905602,2024-06-05 20:43:35.190717
37.23120906,-1.271208763,-1.089690208,-0.4868625104,2024-06-05 20:43:35.231209
37.27168125,-2.07027626,-0.6298861504,0.3711030781,2024-06-05 20:43:35.271681
37.31219187,-1.76631403,-2.052103043,-0.7453867793,2024-06-05 20:43:35.312192
37.35264338,-2.59227562,-1.767780304,-1.332107067,2024-06-05 20:43:35.352643
37.39314052,-0.6796483994,-1.91625309,-1.028671265,2024-06-05 20:43:35.393141
37.43359406,-0.3482904434,-1.688494205,-0.912949264,2024-06-05 20:43:35.433594
37.47407963,2.53268671,-1.089386463,-0.190628916,2024-06-05 20:43:35.474080
37.51456875,1.590857506,-0.5216896534,-1.038637638,2024-06-05 20:43:35.514569
37.55506239,1.364509583,-0.288361311,-1.029707432,2024-06-05 20:43:35.555062
37.59554552,4.388401031,0.6140791178,-0.3240831792,2024-06-05 20:43:35.595546
37.63601468,4.250022888,0.4808402061,0.3740893602,2024-06-05 20:43:35.636015
37.67650979,3.971840382,0.4352786541,0.433408916,2024-06-05 20:43:35.676510
37.71699609,4.654550552,1.106504917,0.507733345,2024-06-05 20:43:35.716996
37.75744146,3.033927441,0.6607503891,0.8554033041,2024-06-05 20:43:35.757441
37.7979739,1.547075272,-0.2410900593,0.4758338928,2024-06-05 20:43:35.797974
37.83841296,-0.565246582,-0.7389941216,0.9698831439,2024-06-05 20:43:35.838413
37.87888552,-1.467851639,-0.2550292015,1.036446333,2024-06-05 20:43:35.878886
37.91933515,-0.4777641296,-0.08442640305,1.038169503,2024-06-05 20:43:35.919335
37.9598589,0.03426599503,-0.1148724556,0.6355442405,2024-06-05 20:43:35.959859
38.00033474,-1.010971069,-0.4140601158,0.3955920041,2024-06-05 20:43:36.000335
38.04087411,-4.111558437,-1.169362545,0.2140415907,2024-06-05 20:43:36.040874
38.08133031,-5.893994331,-0.2999510765,0.04933279753,2024-06-05 20:43:36.081330
38.12178125,-5.505578995,-1.133205891,-0.3154978156,2024-06-05 20:43:36.121781
38.16228974,-1.691817284,-0.6086316109,-0.03371250629,2024-06-05 20:43:36.162290
38.2027214,1.589141369,-0.06983184814,0.6411440372,2024-06-05 20:43:36.202721
38.24321536,2.290100813,-0.2239866257,-0.1325367391,2024-06-05 20:43:36.243215
38.28368781,0.8973050117,0.1904873848,-0.2885802984,2024-06-05 20:43:36.283688
38.32418729,-3.827545166,-0.1182966232,0.2744683325,2024-06-05 20:43:36.324187
38.36466958,-2.97758007,-0.2040328979,-0.7734094262,2024-06-05 20:43:36.364670
38.40513328,-0.6729431152,-1.310050964,-0.7025585175,2024-06-05 20:43:36.405133
38.44561875,-0.1509480476,-2.92633009,-1.008807182,2024-06-05 20:43:36.445619
38.48611583,-1.485851288,-1.558343887,-0.960837841,2024-06-05 20:43:36.486116
38.52657786,-0.7997760773,0.08327198029,-1.407073379,2024-06-05 20:43:36.526578
38.56708203,-0.4992294312,-0.7705607414,-0.7033945322,2024-06-05 20:43:36.567082
38.60755869,-0.009202957153,-0.9018085003,-1.680420637,2024-06-05 20:43:36.607559
38.64802838,3.045507431,-0.6817872524,-1.399068594,2024-06-05 20:43:36.648028
38.6885364,4.050680161,0.6312997341,-0.7768337727,2024-06-05 20:43:36.688536
38.72901656,4.12994194,-0.9337127209,0.418038249,2024-06-05 20:43:36.729017
38.76941948,-0.06851768494,-0.6550478935,0.07709527016,2024-06-05 20:43:36.769419
38.80994573,1.724351883,-0.1473245621,-0.2879741192,2024-06-05 20:43:36.809946
38.85043547,6.355221748,1.449128509,0.150249958,2024-06-05 20:43:36.850435
38.89091463,6.100844383,3.457673311,0.6215082407,2024-06-05 20:43:36.890915
38.93140307,3.771997452,2.233389854,-0.3180397749,2024-06-05 20:43:36.931403
38.97185109,0.8846502304,0.3596887589,0.09523272514,2024-06-05 20:43:36.971851
39.01237781,-4.072572708,-0.2970380783,0.647587955,2024-06-05 20:43:37.012378
39.05282911,-3.58420229,-2.138239384,0.1202805638,2024-06-05 20:43:37.052829
39.09331791,-0.4246988297,-2.721637249,-0.013679564,2024-06-05 20:43:37.093318
39.13378083,-0.7048316002,-1.352782249,0.2617876232,2024-06-05 20:43:37.133781
39.17423614,-1.87579298,0.1621317863,0.02657473087,2024-06-05 20:43:37.174236
39.2147114,-2.349085331,0.2899522781,0.8094778061,2024-06-05 20:43:37.214711
39.25523948,-0.9351820946,0.6750812531,-0.08157455921,2024-06-05 20:43:37.255239
39.29574437,-2.366240501,-0.9560508728,-0.2828004956,2024-06-05 20:43:37.295744
39.33621338,-3.826805115,-2.245368958,-0.4376572371,2024-06-05 20:43:37.336213
39.37670494,-1.746092319,-1.137563705,1.327265501,2024-06-05 20:43:37.376705
39.41716619,-0.6955037117,-0.2915525436,0.8399370909,2024-06-05 20:43:37.417166
39.45764338,-0.5197424889,0.2482495308,0.5541394949,2024-06-05 20:43:37.457643
39.49811713,-0.4438905716,-1.035626888,0.106162101,2024-06-05 20:43:37.498117
39.5385977,-1.703079224,-0.8462328911,-0.4286151826,2024-06-05 20:43:37.538598
39.57906411,-0.3260412216,-0.9223012924,-0.07036100328,2024-06-05 20:43:37.579064
39.61951646,-2.002398491,-2.659219742,-1.111812234,2024-06-05 20:43:37.619516
39.66002781,-1.269535065,-1.701392651,-1.033971071,2024-06-05 20:43:37.660028
39.70050823,0.1258802414,-0.5014438629,-0.3074603081,2024-06-05 20:43:37.700508
39.74098505,0.646982193,-1.565069199,-0.3960753977,2024-06-05 20:43:37.740985
39.78148453,2.932727337,-1.676784754,-0.7477259636,2024-06-05 20:43:37.781485
39.82196182,4.121663094,0.5427615643,-0.6945372224,2024-06-05 20:43:37.821962
39.86243312,4.606303215,0.4485744238,0.2876725197,2024-06-05 20:43:37.862433
39.90294666,1.772298813,0.09335398674,0.1539338231,2024-06-05 20:43:37.902947
39.9434451,2.421764851,0.001571416855,0.2119884491,2024-06-05 20:43:37.943445
39.98387593,3.632783413,0.4347238541,0.2925770879,2024-06-05 20:43:37.983876
40.02434406,4.665958881,1.384797096,-0.06126987934,2024-06-05 20:43:38.024344
40.06484364,4.465021133,2.122595072,0.09416523576,2024-06-05 20:43:38.064844
40.10531151,-0.1424093246,1.296966553,0.7028579116,2024-06-05 20:43:38.105312
40.14580468,-2.335365295,-0.8369445801,0.5627951026,2024-06-05 20:43:38.145805
40.18624599,-2.728043556,-0.5823216438,0.8944410682,2024-06-05 20:43:38.186246
40.22674067,-2.734457493,-1.496446133,0.1583362967,2024-06-05 20:43:38.226741
40.26723458,-0.7779636383,-2.921665668,-0.2557511032,2024-06-05 20:43:38.267235
40.30770994,-1.181553841,0.2237944603,-0.2151703835,2024-06-05 20:43:38.307710
40.34818239,-3.070389748,1.72765398,-0.2144008726,2024-06-05 20:43:38.348182
40.38866125,-1.795450211,-0.6894402504,0.1946632564,2024-06-05 20:43:38.388661
40.42913994,-2.140655518,0.1085014343,0.1596857011,2024-06-05 20:43:38.429140
40.46962567,-2.191357613,-0.11059618,0.0422745645,2024-06-05 20:43:38.469626
40.51011281,-1.694554806,-2.62117672,-0.002439469099,2024-06-05 20:43:38.510113
40.55061911,-0.4037370682,-0.7474541664,0.04231701046,2024-06-05 20:43:38.550619
40.59108896,-1.671037674,0.03506660461,-0.05712237954,2024-06-05 20:43:38.591089
40.63157677,-0.9752664566,-0.3127307892,-0.545892477,2024-06-05 20:43:38.631577
40.67204401,0.6585178375,-0.339422226,-0.4714257419,2024-06-05 20:43:38.672044
40.71253812,-1.320383549,-0.3799405098,-1.081207633,2024-06-05 20:43:38.712538
40.75299911,-3.038758278,-1.872196198,-0.6307767034,2024-06-05 20:43:38.752999
40.7934752,-1.796956062,-2.894517899,-1.608983517,2024-06-05 20:43:38.793475
40.83396692,-0.882021904,-2.278277397,-0.9961709976,2024-06-05 20:43:38.833967
40.87442578,0.7976055145,-1.695294142,-1.771010995,2024-06-05 20:43:38.874426
40.91491479,3.003154755,-0.841442585,-0.8534609675,2024-06-05 20:43:38.914915
40.95540026,4.289624691,0.4045238495,-1.194081306,2024-06-05 20:43:38.955400
40.99586026,5.234869957,0.6838517189,-0.2010741234,2024-06-05 20:43:38.995860
41.03638411,4.128327847,0.3166270256,-0.9171013832,2024-06-05 20:43:39.036384
41.07684896,4.468765736,1.175915599,0.01426875591,2024-06-05 20:43:39.076849
41.11735838,1.610262871,2.614620924,0.1623616219,2024-06-05 20:43:39.117358
41.15779838,0.7349529266,0.6505899429,0.1111026406,2024-06-05 20:43:39.157798
41.19826182,0.6617460251,0.3972315788,0.07433062792,2024-06-05 20:43:39.198262
41.23875359,1.903606415,-0.01632452011,-0.04412463307,2024-06-05 20:43:39.238754
41.27922948,1.609437943,0.4505796432,0.5131412745,2024-06-05 20:43:39.279229
41.31970916,0.9640483856,0.3582782745,0.8543108702,2024-06-05 20:43:39.319709
41.36019718,-0.7754702568,-2.071430683,0.1627643406,2024-06-05 20:43:39.360197
41.40068312,-2.364581108,-3.286756516,0.2066158354,2024-06-05 20:43:39.400683
41.44115432,-2.438156605,-0.7670855522,-0.09159970284,2024-06-05 20:43:39.441154
41.48169703,-3.499717236,-0.149702549,-0.3659401238,2024-06-05 20:43:39.481697
41.52213073,-2.379359722,0.511598587,0.2315049618,2024-06-05 20:43:39.522131
41.5626301,-3.210541248,-0.389040947,0.234041512,2024-06-05 20:43:39.562630
41.60310479,-3.076660633,-0.7695398331,-0.1055648327,2024-06-05 20:43:39.603105
41.64358974,-0.6950979233,-0.6617031097,0.4606668651,2024-06-05 20:43:39.643590
41.68408203,-0.5513362885,-0.8413553238,0.8440638781,2024-06-05 20:43:39.684082
41.72452036,-0.2843894958,0.1030306816,0.1590461135,2024-06-05 20:43:39.724520
41.7650289,-1.289014339,-0.2891693115,0.3800606728,2024-06-05 20:43:39.765029
41.80549942,-1.890916348,-1.941029549,-0.7396692038,2024-06-05 20:43:39.805499
41.84597713,0.2226462364,0.1012506485,0.07630804181,2024-06-05 20:43:39.845977
41.88646442,-0.3648853302,-1.061786175,-0.8666924238,2024-06-05 20:43:39.886464
41.92693864,-1.132633209,-2.013947487,-0.6868255138,2024-06-05 20:43:39.926939
41.96741765,-0.7446880341,-1.584319115,-0.05839727819,2024-06-05 20:43:39.967418
42.00787541,-0.6228227615,-1.504663467,-1.590515852,2024-06-05 20:43:40.007875
42.04837244,0.4365816116,-0.6521115303,-1.274942517,2024-06-05 20:43:40.048372
42.08883593,3.687234402,-0.5034611225,-1.146113634,2024-06-05 20:43:40.088836
42.12931333,3.655995369,0.4551560879,-0.5577418208,2024-06-05 20:43:40.129313
42.16981739,4.461411953,0.737319231,-0.5554871559,2024-06-05 20:43:40.169817
42.21028901,3.487219334,1.205661058,0.3095264435,2024-06-05 20:43:40.210289
42.25079546,3.736768246,0.6963498592,0.8376401663,2024-06-05 20:43:40.250795
42.2912738,2.530771732,0.6155138016,0.8229796886,2024-06-05 20:43:40.291274
42.33173494,2.349453926,-0.009093761444,0.8603929281,2024-06-05 20:43:40.331735
42.37222656,-0.1097602844,-0.3694200516,0.6127133369,2024-06-05 20:43:40.372227
42.41272859,-0.2469081879,-0.338956356,0.3634299934,2024-06-05 20:43:40.412729
42.4531826,0.3969426155,0.3183379173,0.4057317972,2024-06-05 20:43:40.453183
42.49366614,-0.2894906998,0.5233469009,0.2518596351,2024-06-05 20:43:40.493666
42.53414489,-1.094689369,0.3086538315,0.3350633383,2024-06-05 20:43:40.534145
42.57462682,-2.747077942,-2.007086277,-0.05124467611,2024-06-05 20:43:40.574627
42.61510755,-3.145394325,-0.9343276024,0.05684676766,2024-06-05 20:43:40.615108
42.65558312,-4.053349495,-0.9783182144,-0.0767942965,2024-06-05 20:43:40.655583
42.69608786,-3.194673538,-0.6043930054,0.2503926754,2024-06-05 20:43:40.696088
42.73655265,-1.296132088,0.02498912811,0.4208818376,2024-06-05 20:43:40.736553
42.77700911,-1.790012836,-0.4815740585,0.2010549605,2024-06-05 20:43:40.777009
42.81750635,-0.4424295425,0.1672616005,0.5808155537,2024-06-05 20:43:40.817506
42.85798521,-0.1586766243,-1.698565483,0.2061422169,2024-06-05 20:43:40.857985
42.89845276,2.089983463,-0.3929724693,-0.6002453566,2024-06-05 20:43:40.898453
42.93890161,1.481415749,0.6124019623,0.8654205799,2024-06-05 20:43:40.938902
42.97938583,-2.967952251,-0.558816433,-0.1519106179,2024-06-05 20:43:40.979386
43.01990046,-2.756745815,-0.3501605988,-1.121729851,2024-06-05 20:43:41.019900
43.06038625,-1.525226593,-1.146569252,-0.6385800838,2024-06-05 20:43:41.060386
43.10086734,-1.183905602,-1.344657898,-0.7650441527,2024-06-05 20:43:41.100867
43.14135666,-1.26186657,-2.097666264,-0.4713787735,2024-06-05 20:43:41.141357
43.18178448,-0.2842988968,-2.083403826,-0.807250917,2024-06-05 20:43:41.181784
43.22229557,1.479836464,-0.9149112701,-0.670925498,2024-06-05 20:43:41.222296
43.26278937,3.781147957,0.2711899281,0.2637882233,2024-06-05 20:43:41.262789
43.30326729,6.195751667,-1.046397924,-0.2383636832,2024-06-05 20:43:41.303267
43.3437525,5.792438507,0.9620629549,-0.3269249201,2024-06-05 20:43:41.343753
43.38422567,3.943160534,2.315462828,-0.02137029171,2024-06-05 20:43:41.384226
43.42470885,-1.055276871,1.081137419,-0.3091188967,2024-06-05 20:43:41.424709
43.46519817,0.9993429184,-0.04274964333,0.3331484199,2024-06-05 20:43:41.465198
43.50568333,3.610045433,0.8112034798,0.5976622701,2024-06-05 20:43:41.505683
43.54616338,3.365942001,1.282027245,0.2402500808,2024-06-05 20:43:41.546163
43.58663156,1.792642593,0.6361260414,0.1610577404,2024-06-05 20:43:41.586632
43.62709817,-0.003205299377,0.1762471199,0.2574378848,2024-06-05 20:43:41.627098
43.66760625,-1.46062088,-1.003886223,0.5700656772,2024-06-05 20:43:41.667606
43.70808448,-3.636247635,-3.025304317,0.1612416506,2024-06-05 20:43:41.708084
43.74853833,-6.136985779,-3.359662533,0.4543694258,2024-06-05 20:43:41.748538
43.78901448,-4.599317551,-2.182003498,-0.04977822304,2024-06-05 20:43:41.789014
43.82950989,-2.005220413,0.1335988045,0.6719039083,2024-06-05 20:43:41.829510
43.87001463,-0.2982811928,0.9416356087,0.5197980404,2024-06-05 20:43:41.870015
43.91048375,-0.0461268425,0.7817902565,0.1172875762,2024-06-05 20:43:41.910484
43.95096432,1.111989498,1.067710876,-0.1354091763,2024-06-05 20:43:41.950964
43.99141276,-0.7773461342,-0.9267787933,0.2889238,2024-06-05 20:43:41.991413
44.03192291,-1.843855858,-0.2210040092,0.224462688,2024-06-05 20:43:42.031923
44.07240953,-2.861496449,-0.7981681824,0.1010800004,2024-06-05 20:43:42.072410
44.11288328,-0.6556668282,-0.9438853264,-0.3424834311,2024-06-05 20:43:42.112883
44.15336807,-0.5736999512,-0.5818471909,-1.020774841,2024-06-05 20:43:42.153368
44.19380807,0.04838323593,-0.9753608704,0.02337705158,2024-06-05 20:43:42.193808
44.23430239,-2.10337162,-1.45800209,-1.045931339,2024-06-05 20:43:42.234302
44.27482187,-0.8338899612,-1.887829304,-0.7431851625,2024-06-05 20:43:42.274822
44.31526578,-1.089227676,-1.306923866,-1.322199106,2024-06-05 20:43:42.315266
44.35576271,0.5068540573,-1.217038155,-1.052195907,2024-06-05 20:43:42.355763
44.3962463,1.572692871,-0.4472761154,-0.7400410175,2024-06-05 20:43:42.396246
44.43674218,5.256511211,-1.347523212,-1.037501097,2024-06-05 20:43:42.436742
44.47720265,5.14796114,1.667114258,-0.1919496059,2024-06-05 20:43:42.477203
44.51770041,3.303601265,1.006871939,0.2959495783,2024-06-05 20:43:42.517700
44.55815291,2.246887207,0.8142334223,0.5703113675,2024-06-05 20:43:42.558153
44.59863364,2.69695425,0.7833080292,0.6840242743,2024-06-05 20:43:42.598634
44.63911172,2.020172119,0.6088812351,0.3547688127,2024-06-05 20:43:42.639112
44.67958776,1.856722832,0.3493738174,0.3030301332,2024-06-05 20:43:42.679588
44.72006958,0.2795448303,0.3024945259,0.4204932451,2024-06-05 20:43:42.720070
44.76056291,-0.3870735168,0.09180498123,-0.1260185689,2024-06-05 20:43:42.760563
44.80105526,-0.6939573288,-0.43247509,-0.06365306675,2024-06-05 20:43:42.801055
44.8415025,-0.2506456375,0.7092661858,-0.07743361592,2024-06-05 20:43:42.841502
44.88200989,-2.301882744,0.1202111244,-0.259157449,2024-06-05 20:43:42.882010
44.9224814,-1.806818008,-1.195115089,-0.5806319714,2024-06-05 20:43:42.922481
44.96295463,-3.153940678,-1.432395935,-0.04106861353,2024-06-05 20:43:42.962955
45.00344338,-2.494330883,-0.40710783,0.2388997078,2024-06-05 20:43:43.003443
45.0439114,-3.190073013,-2.982833385,-0.6633656025,2024-06-05 20:43:43.043911
45.08441734,-1.826696396,0.83589077,0.2013919801,2024-06-05 20:43:43.084417
45.12488067,-0.172806263,1.042658329,0.4955088794,2024-06-05 20:43:43.124881
45.16536672,-0.9014286995,-2.551157951,0.02775403857,2024-06-05 20:43:43.165367
45.20582281,-0.680328846,0.5886940956,-0.04624347389,2024-06-05 20:43:43.205823
45.24633104,-3.51887846,-0.07180786133,-0.9903963208,2024-06-05 20:43:43.246331
45.28682896,-1.897025108,-1.888019085,-0.4052835107,2024-06-05 20:43:43.286829
45.32729494,2.100929737,-0.892437458,-0.7714580297,2024-06-05 20:43:43.327295
45.36781781,-1.392729759,-2.425890446,-1.017708778,2024-06-05 20:43:43.367818
45.40825192,-3.448217392,-1.243082523,-2.115446568,2024-06-05 20:43:43.408252
45.44872062,0.5072479248,-1.799433708,-0.3688822687,2024-06-05 20:43:43.448721
45.48918187,2.580749512,-1.560073853,-1.667141676,2024-06-05 20:43:43.489182
45.52968432,2.371033669,-0.9267902374,-2.629965067,2024-06-05 20:43:43.529684
45.57017468,2.567825317,1.025629282,-0.4276350439,2024-06-05 20:43:43.570175
45.61065541,4.085954666,0.8530390263,0.109880507,2024-06-05 20:43:43.610655
45.65111927,2.915806293,-0.2895987034,-0.04557710886,2024-06-05 20:43:43.651119
45.69160468,3.503116131,0.1750576496,0.002097904682,2024-06-05 20:43:43.691605
45.73208031,5.637230873,2.358237267,0.4892240763,2024-06-05 20:43:43.732080
45.77257984,4.971457005,2.702402592,0.7131094337,2024-06-05 20:43:43.772580
45.81307614,-0.1263427734,0.1474282742,0.1243585646,2024-06-05 20:43:43.813076
45.85354541,0.600153923,-1.732235432,0.4842290282,2024-06-05 20:43:43.853545
45.89402593,-1.667859077,0.2544798851,1.286961555,2024-06-05 20:43:43.894026
45.93449328,-2.5757761,0.5303344727,0.9918248653,2024-06-05 20:43:43.934493
45.97498317,-1.874902248,-2.779903889,-0.3226228952,2024-06-05 20:43:43.974983
46.01547052,-0.481590271,-0.8153195381,-0.03990322351,2024-06-05 20:43:44.015471
46.05592614,-2.514157295,0.2173914909,-0.7078838348,2024-06-05 20:43:44.055926
46.09641859,-2.606332302,0.6955270767,0.06851655245,2024-06-05 20:43:44.096419
46.13690484,-1.940115452,1.526896954,0.5346995592,2024-06-05 20:43:44.136905
46.17735635,-2.78061533,-0.0332326889,-0.1802276075,2024-06-05 20:43:44.177356
46.21783546,-3.835879326,-2.529371262,-0.5801388025,2024-06-05 20:43:44.217835
46.25835052,-2.135122299,-3.969300747,-0.1581345201,2024-06-05 20:43:44.258351
46.29883088,1.476451874,-0.8845510483,0.5043365955,2024-06-05 20:43:44.298831
46.33929911,-0.1588602066,0.4449138641,-0.2558208108,2024-06-05 20:43:44.339299
46.37977916,-1.081904888,1.876748085,-0.01306455955,2024-06-05 20:43:44.379779
46.42028125,-0.4345288277,0.7843990326,-0.673015058,2024-06-05 20:43:44.420281
46.46074854,-0.8004107475,-1.208084583,-0.9103782177,2024-06-05 20:43:44.460749
46.50125255,-2.421622276,-2.206323147,-0.2249093056,2024-06-05 20:43:44.501253
46.54172,-2.798238754,-2.802880764,-0.4852600992,2024-06-05 20:43:44.541720
46.58217708,-1.158269882,-2.929097176,-1.131904364,2024-06-05 20:43:44.582177
46.62267776,0.8025121689,-1.27603054,0.05979281664,2024-06-05 20:43:44.622678
46.66314823,3.081914902,-0.5882892609,-0.8273204565,2024-06-05 20:43:44.663148
46.70362453,6.159747124,-0.4541070461,-1.703707695,2024-06-05 20:43:44.703625
46.74408781,5.054174423,2.224813461,-0.4547446966,2024-06-05 20:43:44.744088
46.78456588,3.375676632,1.581891537,0.2566507459,2024-06-05 20:43:44.784566
46.82505323,2.118291855,-0.541987896,-0.1578918099,2024-06-05 20:43:44.825053
46.86554156,1.16297245,-0.593231678,0.6901820302,2024-06-05 20:43:44.865542
46.90603812,2.31985569,0.3414537907,1.794215798,2024-06-05 20:43:44.906038
46.94652479,2.355600834,1.228522778,1.240466833,2024-06-05 20:43:44.946525
46.98698906,0.2227268219,0.4472064972,0.6631451845,2024-06-05 20:43:44.986989
47.02747765,0.9273023605,0.09582996368,0.4784801304,2024-06-05 20:43:45.027478
47.06797843,0.5380125046,0.8948907852,0.5217846632,2024-06-05 20:43:45.067978
47.10842963,-2.660653114,1.95666647,0.8651247025,2024-06-05 20:43:45.108430
47.14891062,-2.807424068,-0.8581309319,0.4018110037,2024-06-05 20:43:45.148911
47.18937823,-2.806097031,-2.478452682,0.3580389023,2024-06-05 20:43:45.189378
47.22988739,-3.317090988,-0.7795214653,-0.2252280712,2024-06-05 20:43:45.229887
47.27036802,-2.715393543,-0.741350174,-0.4380884767,2024-06-05 20:43:45.270368
47.31081979,-2.540695667,-0.4567799568,-0.2638581395,2024-06-05 20:43:45.310820
47.35132302,-0.4439105988,0.0984787941,-0.1685408652,2024-06-05 20:43:45.351323
47.39180984,-0.2479057312,-1.268579006,0.07351568341,2024-06-05 20:43:45.391810
47.43228843,-1.114277363,-1.480782032,-0.67524755,2024-06-05 20:43:45.432288
47.47273224,-1.382155418,0.449488163,0.7764173746,2024-06-05 20:43:45.472732
47.51322239,-0.0810341835,0.3805069923,0.1555177867,2024-06-05 20:43:45.513222
47.55375765,-0.1815271378,-1.247630119,-0.2510524392,2024-06-05 20:43:45.553758
47.59420151,-0.2339763641,-1.447314262,-0.2558366954,2024-06-05 20:43:45.594202
47.6346827,-0.7378921509,-1.426441669,-0.284512043,2024-06-05 20:43:45.634683
47.67515718,-1.582684517,-0.8626093864,-0.3201190531,2024-06-05 20:43:45.675157
47.71566073,-0.5039634705,-2.608557224,-0.6098400354,2024-06-05 20:43:45.715661
47.75611213,-0.3890285492,-1.027342796,-0.702826798,2024-06-05 20:43:45.756112
47.79661146,0.7167921066,-0.03089022636,-0.3210190237,2024-06-05 20:43:45.796611
47.83709739,2.769880295,-0.08772063255,-1.6772995,2024-06-05 20:43:45.837097
47.87755067,7.220096588,0.2131228447,0.3045013547,2024-06-05 20:43:45.877551
47.91806953,4.240254402,1.086032987,0.4541156888,2024-06-05 20:43:45.918070
47.95854557,1.328360558,-1.039798021,0.3219031096,2024-06-05 20:43:45.958546
47.99898797,1.824422836,-0.5521426201,0.6865793467,2024-06-05 20:43:45.998988
48.03947052,2.70338726,1.899984956,0.9877350926,2024-06-05 20:43:46.039471
48.07994494,3.751678944,1.634503126,0.6639771461,2024-06-05 20:43:46.079945
48.12044265,2.808148861,1.170452118,0.5579816103,2024-06-05 20:43:46.120443
48.16092192,-1.130805969,0.3451862335,0.8939014673,2024-06-05 20:43:46.160922
48.20137541,-3.206115723,-1.283648491,0.518795073,2024-06-05 20:43:46.201375
48.24186354,-3.158568382,-1.08611536,0.5397934318,2024-06-05 20:43:46.241864
48.28235396,-1.826458931,-1.571007252,0.1593200266,2024-06-05 20:43:46.282354
48.32284833,-1.170842171,-0.1476392746,-0.1481146812,2024-06-05 20:43:46.322848
48.36333536,-1.361477375,0.9241991043,0.5453805327,2024-06-05 20:43:46.363335
48.40381172,-2.389609814,2.001572609,-0.01591295004,2024-06-05 20:43:46.403812
48.44427229,-2.814770699,-1.755022049,-1.267974377,2024-06-05 20:43:46.444272
48.4848001,-2.069259644,-2.804477692,0.1936792731,2024-06-05 20:43:46.484800
48.52524088,-0.5833697319,-0.8884429932,1.305338383,2024-06-05 20:43:46.525241
48.56575067,-2.181916714,-1.393192768,0.01897627115,2024-06-05 20:43:46.565751
48.60621125,-0.2837753296,-0.5786414146,0.1961194575,2024-06-05 20:43:46.606211
48.64668791,-0.70454216,0.2337884903,-0.4352102578,2024-06-05 20:43:46.646688
48.68717859,0.8957371712,0.4202418327,-0.2947930694,2024-06-05 20:43:46.687179
48.72765255,-1.26538372,-1.923395634,-0.6484894156,2024-06-05 20:43:46.727653
48.76815109,-2.817777634,-2.499743462,-1.157344818,2024-06-05 20:43:46.768151
48.80856791,-3.076242447,-1.308938503,-0.6529097557,2024-06-05 20:43:46.808568
48.84904854,0.1703948975,-2.362822533,0.3767980337,2024-06-05 20:43:46.849049
48.88956817,3.317485809,-0.5742530823,-0.4369041026,2024-06-05 20:43:46.889568
48.93004963,5.092959881,0.3101718426,-0.9331344962,2024-06-05 20:43:46.930050
48.97052208,2.530174255,-0.1180794239,-0.5843321681,2024-06-05 20:43:46.970522
49.0109988,2.287258148,-0.6482326984,-0.5611071587,2024-06-05 20:43:47.010999
49.05148026,3.536971569,0.5903015137,0.3447695374,2024-06-05 20:43:47.051480
49.09197156,1.656014442,-0.4667131901,-0.2508493662,2024-06-05 20:43:47.091972
49.13246156,4.381614685,1.160774827,0.6333956718,2024-06-05 20:43:47.132462
49.17292885,7.504605293,2.70357132,1.508112311,2024-06-05 20:43:47.172929
49.21340067,1.225908279,2.176945686,0.9501804113,2024-06-05 20:43:47.213401
49.25389036,-3.569284439,-2.433138371,0.6701081991,2024-06-05 20:43:47.253890
49.29438651,-0.0291891098,-1.613735199,0.826705575,2024-06-05 20:43:47.294387
49.33486,-0.8197646141,1.002976894,1.473816991,2024-06-05 20:43:47.334860
49.37533755,-1.475476265,-1.161334038,0.2637143731,2024-06-05 20:43:47.375338
49.41581937,-0.8638525009,-2.374955177,0.1409466863,2024-06-05 20:43:47.415819
49.45631755,-4.450734615,1.292028904,0.3415748477,2024-06-05 20:43:47.456318
49.49679906,-3.392557621,-1.178246021,-0.1424665451,2024-06-05 20:43:47.496799
49.5372552,-2.297035694,-1.436678886,-0.2973802686,2024-06-05 20:43:47.537255
49.57775224,-2.630135536,0.5164136887,-0.2461374998,2024-06-05 20:43:47.577752
49.61825146,-1.989185333,-0.3847403526,-0.4377301931,2024-06-05 20:43:47.618251
49.65870843,-0.08255577087,-0.3802113533,0.4457167983,2024-06-05 20:43:47.658708
49.69915338,-0.692917347,0.4410843849,-0.4750093222,2024-06-05 20:43:47.699153
49.73966307,-1.474921703,-0.0582242012,0.1105467081,2024-06-05 20:43:47.739663
49.78012661,-0.8630986214,-0.4778442383,-0.6017363071,2024-06-05 20:43:47.780127
49.82061328,-0.07526731491,-0.8891978264,-0.4494385421,2024-06-05 20:43:47.820613
49.86110646,-1.417065144,-2.246040344,-0.982842207,2024-06-05 20:43:47.861106
49.90159541,-1.834201813,-2.3751297,-1.051243782,2024-06-05 20:43:47.901595
49.94207916,-0.2768335342,-1.907844067,-1.083492041,2024-06-05 20:43:47.942079
49.98255166,0.8171873093,-1.277809143,-0.09921360016,2024-06-05 20:43:47.982552
50.02301791,2.118262291,-1.24475956,-0.7906218767,2024-06-05 20:43:48.023018
50.06349838,0.5988349915,0.5236487389,-1.054821253,2024-06-05 20:43:48.063498
50.10397146,3.419329643,-0.8589878082,-0.984438777,2024-06-05 20:43:48.103971
50.1444475,4.378191471,1.340248227,-1.007163525,2024-06-05 20:43:48.144447
50.18492828,6.544332504,1.325691938,-0.007600665092,2024-06-05 20:43:48.184928
50.22542151,3.194771767,1.587666988,0.2094867229,2024-06-05 20:43:48.225422
50.2659088,0.9610118866,0.8614785671,0.4785096049,2024-06-05 20:43:48.265909
50.30640276,0.7458620071,-0.4539051056,0.08303099871,2024-06-05 20:43:48.306403
50.34687343,0.9447846413,-0.4574198723,0.2216010094,2024-06-05 20:43:48.346873
50.38733948,0.8878159523,0.3391098976,0.297611624,2024-06-05 20:43:48.387339
50.4278225,1.138636589,-0.04146242142,0.3258606493,2024-06-05 20:43:48.427822
50.46830885,1.147326946,0.7367019653,1.042292118,2024-06-05 20:43:48.468309
50.50877187,-0.9320363998,0.8355336189,0.3232631683,2024-06-05 20:43:48.508772
50.54924109,-5.010984898,-2.138878822,-0.2056201398,2024-06-05 20:43:48.549241
50.58974807,-4.296873569,-4.166204929,-0.9345320463,2024-06-05 20:43:48.589748
50.63021041,-3.020868778,-1.135168076,-0.02707818151,2024-06-05 20:43:48.630210
50.67073854,-3.682610512,-1.310035706,-0.144982636,2024-06-05 20:43:48.670739
50.71121281,-1.496885777,1.7052145,0.203915149,2024-06-05 20:43:48.711213
50.75170146,0.2464437485,1.228691578,0.4317407012,2024-06-05 20:43:48.751701
50.79214046,0.057284832,0.01334524155,0.2181352377,2024-06-05 20:43:48.792140
50.83261843,1.048848152,0.4697270393,-0.1197891235,2024-06-05 20:43:48.832618
50.87315083,-3.747062206,-2.062963486,-0.3347183168,2024-06-05 20:43:48.873151
50.9135801,-3.659915447,-3.217933655,-1.023736,2024-06-05 20:43:48.913580
50.95409968,-1.741838932,-4.453676224,-1.106925368,2024-06-05 20:43:48.954100
50.99455005,0.383535862,-0.6346120834,-1.051224113,2024-06-05 20:43:48.994550
51.03502536,1.747671127,1.227275372,-0.5858098865,2024-06-05 20:43:49.035025
51.0755338,1.116387367,0.4112925529,-0.2249990404,2024-06-05 20:43:49.075534
51.11598015,2.327345848,-0.9506816864,-0.9678644538,2024-06-05 20:43:49.115980
51.15652187,-2.369294167,-1.720199823,-1.301136136,2024-06-05 20:43:49.156522
51.19694406,0.2219552994,-2.55198884,-1.703985333,2024-06-05 20:43:49.196944
51.23741994,3.555547237,-0.7170550823,-1.056597233,2024-06-05 20:43:49.237420
51.27790797,5.059094429,1.199965477,-0.2390581369,2024-06-05 20:43:49.277908
51.31834937,5.871534348,1.957889318,0.1238886118,2024-06-05 20:43:49.318349
51.35885396,5.313338757,2.509944916,0.5031449795,2024-06-05 20:43:49.358854
51.39934541,2.626957893,1.41889739,-0.1689041853,2024-06-05 20:43:49.399345
51.43984994,1.080813885,-0.6121687889,-0.0513163805,2024-06-05 20:43:49.439850
51.4803302,0.7386422157,-0.7354149818,0.2285374403,2024-06-05 20:43:49.480330
51.52081885,-0.4410095215,-0.8608627319,0.7089490891,2024-06-05 20:43:49.520819
51.56126463,-0.1843972206,-0.4497671127,0.9796143174,2024-06-05 20:43:49.561265
51.60177958,-0.1787981987,0.1824326515,1.277140856,2024-06-05 20:43:49.601780
51.64223963,-1.868062496,-0.04226207733,-0.1062349081,2024-06-05 20:43:49.642240
51.6827401,-3.986124992,-2.21745348,-0.3411844969,2024-06-05 20:43:49.682740
51.72321343,-3.198181629,-4.35430336,-0.7505879402,2024-06-05 20:43:49.723213
51.76368614,-3.745171547,0.3943190575,0.05459645391,2024-06-05 20:43:49.763686
51.80416666,-2.380033493,0.3864202499,0.01707330346,2024-06-05 20:43:49.804167
51.84465984,-1.759564877,1.624045849,0.2690476477,2024-06-05 20:43:49.844660
51.88513932,0.2640562057,1.51500988,0.02920469642,2024-06-05 20:43:49.885139
51.92558864,-2.213798046,-1.980815887,0.07402607799,2024-06-05 20:43:49.925589
51.96608484,-1.256293297,-1.89934206,-0.01231962442,2024-06-05 20:43:49.966085
52.00656692,-1.925994873,-0.7697963715,-0.2691485286,2024-06-05 20:43:50.006567
52.04706385,-1.246005058,-2.758630276,-0.756280005,2024-06-05 20:43:50.047064
52.08755286,0.6423821449,-0.3766922951,-1.026133657,2024-06-05 20:43:50.087553
52.1279989,1.093073845,0.1319150925,-0.4731642902,2024-06-05 20:43:50.127999
52.16845823,0.5652780533,-0.8231706619,-0.8130968213,2024-06-05 20:43:50.168458
52.20900494,-0.2812023163,-0.5839295387,-0.4765556455,2024-06-05 20:43:50.209005
52.24945005,-0.3332548141,-1.550572157,-0.5800614357,2024-06-05 20:43:50.249450
52.28993979,-0.5736837387,-0.9374079704,-0.3682256341,2024-06-05 20:43:50.289940
52.33040692,1.12693882,-1.018835783,-0.7004063129,2024-06-05 20:43:50.330407
52.37088177,3.976038933,-0.8907151222,-0.5794224739,2024-06-05 20:43:50.370882
52.4113864,4.787092209,0.2698566914,-0.324121356,2024-06-05 20:43:50.411386
52.45185911,5.014800549,1.25667429,0.02146196365,2024-06-05 20:43:50.451859
52.49232479,6.236703873,2.189662933,0.4946303368,2024-06-05 20:43:50.492325
52.53280812,4.163475037,1.696300387,0.710483551,2024-06-05 20:43:50.532808
52.57328948,0.1623468399,0.2962903976,0.810765028,2024-06-05 20:43:50.573289
52.61377989,-2.407958031,-1.45213294,0.735692203,2024-06-05 20:43:50.613780
52.65425578,-2.305980682,-2.181438923,0.7856596708,2024-06-05 20:43:50.654256
52.69474349,-0.6192779541,-1.306988716,0.615909934,2024-06-05 20:43:50.694743
52.73523588,2.478181362,1.417388439,0.718485713,2024-06-05 20:43:50.735236
52.77568739,1.806703568,1.654000759,0.6062333584,2024-06-05 20:43:50.775687
52.81617062,-3.632869244,0.572414875,0.5963009,2024-06-05 20:43:50.816171
52.8566589,-3.19815731,-2.704220772,-0.2812071443,2024-06-05 20:43:50.856659
52.8971439,-4.15444994,-0.602971077,0.01301270723,2024-06-05 20:43:50.897144
52.93761932,-4.15653944,-3.058358192,0.4163087606,2024-06-05 20:43:50.937619
52.97808161,-3.667901516,-1.120983124,-0.4896333218,2024-06-05 20:43:50.978082
53.01857646,-1.322583675,1.189665318,0.6333456635,2024-06-05 20:43:51.018576
53.05907958,-0.144618988,-1.133056164,0.7483648062,2024-06-05 20:43:51.059080
53.09955927,1.909008026,-0.3875541687,0.7442061901,2024-06-05 20:43:51.099559
53.14002755,0.3710455894,1.495881557,-0.07864689827,2024-06-05 20:43:51.140028
53.18049067,-3.689471722,-1.138520241,-0.06919011474,2024-06-05 20:43:51.180491
53.22097422,-2.332271576,-1.27372694,-0.453364253,2024-06-05 20:43:51.220974
53.2614663,-1.712716103,-0.9306769371,-1.176468134,2024-06-05 20:43:51.261466
53.30193854,-0.3881511688,-1.195891857,-1.286489606,2024-06-05 20:43:51.301939
53.34243729,0.1772975922,-1.161191463,-1.090680599,2024-06-05 20:43:51.342437
53.38291349,0.5453548431,-2.205940247,-0.6672505736,2024-06-05 20:43:51.382913
53.42337583,0.6907482147,-2.33830452,-0.9993569255,2024-06-05 20:43:51.423376
53.46385724,0.7082223892,-0.8926792145,-1.201850176,2024-06-05 20:43:51.463857
53.50433239,4.079027176,-0.4488196373,-2.056365967,2024-06-05 20:43:51.504332
53.54481906,7.620244503,0.5237007141,-0.8654101491,2024-06-05 20:43:51.544819
53.58531718,5.926378727,2.227977991,0.02343165874,2024-06-05 20:43:51.585317
53.62580724,0.3939027786,1.604453802,0.3584780097,2024-06-05 20:43:51.625807
53.66626599,0.003667831421,0.6508382559,0.6835075617,2024-06-05 20:43:51.666266
53.70673385,1.693608284,0.7914464474,0.4194618464,2024-06-05 20:43:51.706734
53.74722833,2.677270889,0.4487607479,-0.1442427337,2024-06-05 20:43:51.747228
53.78770479,0.6381921768,-0.689620018,-0.1143470407,2024-06-05 20:43:51.787705
53.82818708,-0.162566185,-0.2418341637,0.3155220747,2024-06-05 20:43:51.828187
53.86868291,-0.6989574432,0.8707671165,0.668579936,2024-06-05 20:43:51.868683
53.90913724,-1.348770618,0.3656053543,0.2092599869,2024-06-05 20:43:51.909137
53.94963843,-2.24416256,-3.16900444,-0.8728250265,2024-06-05 20:43:51.949638
53.9901377,-3.356935501,-1.51585722,-0.244813621,2024-06-05 20:43:51.990138
54.03057442,-3.412258625,0.3284888268,0.1146493033,2024-06-05 20:43:52.030574
54.07107307,-2.501796246,-1.007063389,-0.2021738142,2024-06-05 20:43:52.071073
54.11154942,-1.471349716,-0.8859686852,-0.09626799822,2024-06-05 20:43:52.111549
54.15203625,-1.015678406,0.8772678375,-0.06875095516,2024-06-05 20:43:52.152036
54.19246823,0.2303981781,0.5569343567,0.7243052721,2024-06-05 20:43:52.192468
54.23300073,-0.1107831001,-1.917720795,-0.2154355049,2024-06-05 20:43:52.233001
54.27349349,-1.192028999,-0.2426624298,0.008903438225,2024-06-05 20:43:52.273493
54.3139877,-1.910959244,-0.5586652756,-1.3017205,2024-06-05 20:43:52.313988
54.35445125,-0.7167754173,-0.2606039047,-0.5942346454,2024-06-05 20:43:52.354451
54.39492276,-0.06753396988,-2.275675774,-1.232998848,2024-06-05 20:43:52.394923
54.43541463,-1.380732536,-2.41079998,-0.6393791437,2024-06-05 20:43:52.435415
54.47593463,-1.479655266,-0.01928853989,-1.333628058,2024-06-05 20:43:52.475935
54.51635151,0.004979133606,-0.1125845909,-0.1167399883,2024-06-05 20:43:52.516352
54.55685646,2.820531368,-0.8483223915,-0.5116837025,2024-06-05 20:43:52.556856
54.59731224,2.953627586,-0.5937893391,-0.7264341116,2024-06-05 20:43:52.597312
54.63780041,-1.545685768,-0.2876710892,-1.345485449,2024-06-05 20:43:52.637800
54.67824776,3.627882481,-1.854510307,-1.008684635,2024-06-05 20:43:52.678248
54.7187738,4.18236351,0.005130767822,-0.3132767677,2024-06-05 20:43:52.718774
54.7592188,3.875474453,0.3842682838,0.07358849049,2024-06-05 20:43:52.759219
54.79970166,4.270563602,2.029816628,-0.1084407568,2024-06-05 20:43:52.799702
54.84021708,7.06222105,2.618120193,0.4365702271,2024-06-05 20:43:52.840217
54.8806951,1.252876282,2.888206482,-0.03187510371,2024-06-05 20:43:52.880695
54.92119276,0.9756803513,-0.5095534325,-0.04301474988,2024-06-05 20:43:52.921193
54.96163312,-2.336984634,-1.203415871,0.4284513891,2024-06-05 20:43:52.961633
55.00213015,-3.864048004,-1.619023323,0.6418921947,2024-06-05 20:43:53.002130
55.04260729,-2.928149223,-1.836524487,0.9251708984,2024-06-05 20:43:53.042607
55.08308708,-1.37663269,-0.6783099174,0.4372811317,2024-06-05 20:43:53.083087
55.12356239,-0.4795103073,1.007174492,0.3958070874,2024-06-05 20:43:53.123562
55.164035,-0.3989191055,1.16951561,0.2498502731,2024-06-05 20:43:53.164035
55.20449286,-2.882185459,1.147462368,0.2312085629,2024-06-05 20:43:53.204493
55.24502119,-3.376057625,-1.257522583,-0.3195043206,2024-06-05 20:43:53.245021
55.28548333,-3.35733366,-0.6945757866,0.6698300838,2024-06-05 20:43:53.285483
55.32597442,-3.054443836,-4.308264256,0.3991861343,2024-06-05 20:43:53.325974
55.36644427,-0.9497556686,-2.933944702,0.211479187,2024-06-05 20:43:53.366444
55.40694724,0.9593167305,-0.053150177,0.2952833176,2024-06-05 20:43:53.406947
55.44740453,0.7960734367,1.586907864,-0.03179563582,2024-06-05 20:43:53.447405
55.48790698,0.1836872101,1.553490162,-0.2127206624,2024-06-05 20:43:53.487907
55.52834859,-2.907938957,-0.0999622345,-1.411939144,2024-06-05 20:43:53.528349
55.56888416,-3.408184528,-1.416537285,-2.116870403,2024-06-05 20:43:53.568884
55.60936448,-1.354388237,-3.70424366,-1.479009151,2024-06-05 20:43:53.609364
55.64983786,-0.3910684586,-2.376930237,-1.156658053,2024-06-05 20:43:53.649838
55.6903063,0.1098556519,-0.6129360199,-0.3980644047,2024-06-05 20:43:53.690306
55.730795,1.628787518,-1.236412048,0.1979245543,2024-06-05 20:43:53.730795
55.77128557,5.612625122,-0.9331581593,-1.764200687,2024-06-05 20:43:53.771286
55.81173609,4.282058239,1.219116449,-0.0102930069,2024-06-05 20:43:53.811736
55.85220864,1.19244957,-1.254323483,-0.475356102,2024-06-05 20:43:53.852209
55.89268536,2.824128151,-0.3037564754,0.4229466319,2024-06-05 20:43:53.892685
55.93316588,5.030849934,2.331142664,0.8727064133,2024-06-05 20:43:53.933166
55.97364146,3.571896076,1.652243972,0.6250230074,2024-06-05 20:43:53.973641
56.01415463,2.222981453,0.08059763908,0.2157813907,2024-06-05 20:43:54.014155
56.05469505,2.400120735,-0.6649656296,0.767621398,2024-06-05 20:43:54.054695
56.09512125,-1.855196953,0.02387189865,0.8352232575,2024-06-05 20:43:54.095121
56.13560036,-2.732469082,0.2491989136,0.726821959,2024-06-05 20:43:54.135600
56.17605672,0.5889334679,0.386841774,0.549359262,2024-06-05 20:43:54.176057
56.21651385,-1.673639297,0.4550271034,0.06224942207,2024-06-05 20:43:54.216514
56.25701562,-3.345694065,-1.420594692,0.05282330513,2024-06-05 20:43:54.257016
56.2975151,-1.815282822,-0.8388915062,0.4020167887,2024-06-05 20:43:54.297515
56.33799807,-2.846500397,-0.1148281097,0.2943701148,2024-06-05 20:43:54.337998
56.37846323,-3.412449837,-2.633885384,0.080745399,2024-06-05 20:43:54.378463
56.41898036,-3.112154961,-0.3689918518,-0.2573192716,2024-06-05 20:43:54.418980
56.45947161,-0.6356625557,0.6902165413,0.4042586684,2024-06-05 20:43:54.459472
56.4999188,0.7158575058,-2.929587364,-0.3209308684,2024-06-05 20:43:54.499919
56.54037182,0.7134618759,-1.384271145,0.004532039165,2024-06-05 20:43:54.540372
56.58086187,-1.102068424,1.567616463,-0.3751562536,2024-06-05 20:43:54.580862
56.62134651,-0.568655014,1.450942516,0.08303119242,2024-06-05 20:43:54.621347
56.66186213,-0.9976325035,0.4081673622,-1.076858282,2024-06-05 20:43:54.661862
56.70235083,-2.477451801,-2.057107449,-1.008299828,2024-06-05 20:43:54.702351
56.7428076,-3.114074707,-3.223320961,-1.183423281,2024-06-05 20:43:54.742808
56.78327104,-0.8174753189,-2.3784132,-0.07170090079,2024-06-05 20:43:54.783271
56.82375125,0.02585411072,-1.812581539,0.4613283873,2024-06-05 20:43:54.823751
56.86423958,2.494686127,-1.114830017,-0.9579452276,2024-06-05 20:43:54.864240
56.90471541,3.819700241,0.5059680939,-1.654215574,2024-06-05 20:43:54.904715
56.94519255,2.906070232,0.4285783768,-0.2339664102,2024-06-05 20:43:54.945193
56.98565729,3.862079144,-0.8369650841,0.1631317735,2024-06-05 20:43:54.985657
57.02614505,4.414356232,1.089585662,0.9421412349,2024-06-05 20:43:55.026145
57.06664484,2.888449192,0.1968398094,0.6429870725,2024-06-05 20:43:55.066645
57.10712646,2.511281013,-0.2359452248,0.4810798764,2024-06-05 20:43:55.107126
57.14760234,2.651400566,1.225055456,0.2371240556,2024-06-05 20:43:55.147602
57.18804526,1.97892046,1.584391594,0.3710203469,2024-06-05 20:43:55.188045
57.22853005,0.8465023041,0.1003093719,0.8424586058,2024-06-05 20:43:55.228530
57.26904547,0.1420636177,-1.239032269,0.8952433467,2024-06-05 20:43:55.269045
57.30951239,-0.4492096901,-0.09556818008,1.907844901,2024-06-05 20:43:55.309512
57.34998546,-3.557066441,0.7678632736,0.7724654675,2024-06-05 20:43:55.349985
57.39048041,-4.304789066,-1.922836781,-0.1099736691,2024-06-05 20:43:55.390480
57.43097369,-3.160374165,-1.946787834,-0.792135179,2024-06-05 20:43:55.430974
57.47146109,-2.348824501,0.3148145676,-0.4313996434,2024-06-05 20:43:55.471461
57.51193531,-2.470279694,0.1181817055,-0.1266157627,2024-06-05 20:43:55.511935
57.55240333,-1.247582912,0.07614946365,-0.1453928351,2024-06-05 20:43:55.552403
57.59292984,-0.5453853607,0.7530045509,0.07750874758,2024-06-05 20:43:55.592930
57.63335677,-1.015393257,-1.27534008,0.2028801292,2024-06-05 20:43:55.633357
57.67383661,-0.1429686546,-2.324500561,0.06874191761,2024-06-05 20:43:55.673837
57.71432364,-0.475856781,-0.7344355583,0.03834351897,2024-06-05 20:43:55.714324
57.75479047,-1.885251045,0.5707707405,-0.6846103668,2024-06-05 20:43:55.754790
57.79529531,-1.354561329,0.9272961617,-0.8550451398,2024-06-05 20:43:55.795295
57.83577531,-0.156206131,-0.8222103119,-1.661544323,2024-06-05 20:43:55.835775
57.8762864,-0.8177814484,-1.531860352,-1.792579889,2024-06-05 20:43:55.876286
57.91674479,-1.397867203,-1.379796505,-1.123073339,2024-06-05 20:43:55.916745
57.95719859,-1.874394417,-1.31752634,-1.091845036,2024-06-05 20:43:55.957199
57.99766932,0.6964559555,-1.204425573,-0.4532757401,2024-06-05 20:43:55.997669
58.03817489,1.673771381,-0.0398170948,-0.9184410572,2024-06-05 20:43:56.038175
58.07865521,2.803033352,-1.545968533,-1.55180335,2024-06-05 20:43:56.078655
58.11916453,5.263725281,-0.6590793133,-1.09805429,2024-06-05 20:43:56.119165
58.15959869,6.234519482,1.820572495,-0.6750027537,2024-06-05 20:43:56.159599
58.20008599,3.468091488,0.9491569996,0.3291161656,2024-06-05 20:43:56.200086
58.24057765,3.208726406,-0.1387386322,0.7882152796,2024-06-05 20:43:56.240578
58.28105942,1.60632658,0.6774189472,1.243669033,2024-06-05 20:43:56.281059
58.32152593,0.6999502182,0.1547384262,0.9697818756,2024-06-05 20:43:56.321526
58.36203276,0.07792186737,-0.1564941406,1.029395819,2024-06-05 20:43:56.362033
58.40248203,-1.20839119,0.02033758163,1.003809094,2024-06-05 20:43:56.402482
58.44295698,-1.942597866,-0.2552995682,0.6755748391,2024-06-05 20:43:56.442957
58.48344875,-1.19507122,-0.1920795441,0.5983851552,2024-06-05 20:43:56.483449
58.52399963,-1.225340366,1.366862297,1.000218868,2024-06-05 20:43:56.524000
58.56442062,-2.426075935,-0.8261275291,0.01615875959,2024-06-05 20:43:56.564421
58.60490942,-3.188192844,-0.6546773911,0.6690581441,2024-06-05 20:43:56.604909
58.64536317,-4.12800312,-0.3692684174,0.5207952261,2024-06-05 20:43:56.645363
58.68590896,-4.826369762,-2.440267086,-1.655645609,2024-06-05 20:43:56.685909
58.72632906,-0.5081181526,-1.355473518,-0.2988618612,2024-06-05 20:43:56.726329
58.76680041,0.4147582054,-0.6923346519,0.2220273614,2024-06-05 20:43:56.766800
58.80733406,0.1172194481,1.056238651,-0.8165954947,2024-06-05 20:43:56.807334
58.84778406,-0.03695583344,0.8451375961,0.3850897849,2024-06-05 20:43:56.847784
58.88824375,-1.037373543,0.2427062988,-1.131781816,2024-06-05 20:43:56.888244
58.92877625,-2.079631329,-1.59666729,-1.163555384,2024-06-05 20:43:56.928776
58.96925333,-2.422148228,-3.255812168,-2.042104006,2024-06-05 20:43:56.969253
59.00970375,-0.4305095673,-1.802942753,-0.4054706693,2024-06-05 20:43:57.009704
59.05019468,-0.6503858566,-0.9373793602,-0.8663404584,2024-06-05 20:43:57.050195
59.09066885,0.9886932373,-0.2873077393,0.161477685,2024-06-05 20:43:57.090669
59.13113635,2.568144321,-0.4599206448,-0.8518527746,2024-06-05 20:43:57.131136
59.17161375,0.6822881699,-0.4507219791,-0.07810735703,2024-06-05 20:43:57.171614
59.21208479,2.705958843,-2.84812212,-1.329962969,2024-06-05 20:43:57.212085
59.25258755,4.667363644,-0.009650230408,-0.4972736835,2024-06-05 20:43:57.252588
59.29306343,3.195339203,0.2999362946,-0.7524272799,2024-06-05 20:43:57.293063
59.33354656,4.531129837,0.5391893387,0.05919575691,2024-06-05 20:43:57.333547
59.37402609,4.959342957,2.109616756,0.4464944601,2024-06-05 20:43:57.374026
59.41450979,4.093599319,1.90568018,0.1576841474,2024-06-05 20:43:57.414510
59.45500557,-0.3680715561,-0.3265430927,0.3548757136,2024-06-05 20:43:57.455006
59.49548375,-0.89199543,-0.5292568207,0.9746096134,2024-06-05 20:43:57.495484
59.53594015,-3.363253593,0.3704838753,1.413262248,2024-06-05 20:43:57.535940
59.57642187,-3.083959579,-2.151035309,0.2439929694,2024-06-05 20:43:57.576422
59.61691125,0.2480015755,-0.4732937813,0.7726793885,2024-06-05 20:43:57.616911
59.65738442,-1.205290318,2.531208515,0.3602621555,2024-06-05 20:43:57.657384
59.6978713,-3.163051605,0.3737845421,-0.1847892702,2024-06-05 20:43:57.697871
59.73834067,-3.134554386,-2.335207939,-0.6439551711,2024-06-05 20:43:57.738341
59.77880406,-3.466200829,0.5503172874,-0.06600539386,2024-06-05 20:43:57.778804
59.81928416,-3.347224236,-0.1445055008,-0.2174603343,2024-06-05 20:43:57.819284
59.85978974,-0.9947762489,-1.515454292,0.09470232576,2024-06-05 20:43:57.859790
59.90028682,0.06550121307,-0.9291410446,0.9227970243,2024-06-05 20:43:57.900287
59.94076896,-0.09240102768,-2.675235748,-1.03608489,2024-06-05 20:43:57.940769
59.98123312,0.8425345421,-0.04995632172,-0.2747347355,2024-06-05 20:43:57.981233
60.02171302,1.923582077,0.1997203827,-0.849147737,2024-06-05 20:43:58.021713
60.06220448,-2.376053333,-0.4521036148,-1.151471972,2024-06-05 20:43:58.062204
60.10267229,-3.7389884,-0.1041154861,-1.041540027,2024-06-05 20:43:58.102672
60.14314416,-2.504398346,-1.456332684,-0.4763598144,2024-06-05 20:43:58.143144
60.18362609,-0.006949424744,-2.914408207,-0.8341383934,2024-06-05 20:43:58.183626
60.22410422,0.04856300354,-1.538393974,-0.5832935572,2024-06-05 20:43:58.224104
60.26458354,0.8708562851,0.1045415401,-0.3383039832,2024-06-05 20:43:58.264584
60.30506708,4.837976456,-0.9050414562,-1.769728661,2024-06-05 20:43:58.305067
60.34554583,4.548786163,0.1096880436,-1.606208205,2024-06-05 20:43:58.345546
60.38603276,5.914006233,0.6669802666,0.3843144178,2024-06-05 20:43:58.386033
60.42652354,1.647150993,0.7530269623,1.573968172,2024-06-05 20:43:58.426524
60.46700453,3.440209866,-0.1581413746,0.2740733624,2024-06-05 20:43:58.467005
60.50747213,3.556972027,0.8141460419,0.1475175619,2024-06-05 20:43:58.507472
60.54797422,1.08672905,0.8135666847,-0.8257076144,2024-06-05 20:43:58.547974
60.58846828,0.1368665695,-0.1825437546,-0.700214684,2024-06-05 20:43:58.588468
60.62892088,-0.9599142075,0.2362456322,0.2230757475,2024-06-05 20:43:58.628921
60.66938119,-0.05659246445,0.9878377914,0.4728204906,2024-06-05 20:43:58.669381
60.7098851,0.223716259,0.5441131592,1.141751647,2024-06-05 20:43:58.709885
60.75037244,-3.378639698,-1.607519627,0.6961687803,2024-06-05 20:43:58.750372
60.79084406,-3.92448473,-1.469878197,-0.1307752877,2024-06-05 20:43:58.790844
60.8313439,-4.625788689,0.5694432259,0.1446405351,2024-06-05 20:43:58.831344
60.87179224,-4.596422195,0.2306370735,0.01342109777,2024-06-05 20:43:58.871792
60.91228651,-2.459730625,-0.877307415,0.06644273549,2024-06-05 20:43:58.912287
60.95276515,-0.7780117989,-2.579614162,-0.02850498259,2024-06-05 20:43:58.952765
60.99323875,1.826243877,-2.648052692,-0.6615203023,2024-06-05 20:43:58.993239
61.03372099,3.021657705,0.9169631004,0.2881299257,2024-06-05 20:43:59.033721
61.07420948,-0.03582048416,2.217605114,0.4089267552,2024-06-05 20:43:59.074209
61.11467422,-2.915236473,0.5859427452,0.04647991061,2024-06-05 20:43:59.114674
61.15516771,-3.107518196,-1.13273859,-1.159036517,2024-06-05 20:43:59.155168
61.19561729,-3.683594704,-3.310752392,-1.223737001,2024-06-05 20:43:59.195617
61.23614422,-0.9627637863,-3.766484737,-0.6321872473,2024-06-05 20:43:59.236144
61.27665015,0.2713890076,-1.106256008,-0.8514615893,2024-06-05 20:43:59.276650
61.31711093,1.857682228,0.01316785812,0.2751271725,2024-06-05 20:43:59.317111
61.35756922,1.10682106,-0.8826057911,-1.536368251,2024-06-05 20:43:59.357569
