Time (s),Acceleration x (m/s^2),Acceleration y (m/s^2),Acceleration z (m/s^2),Datetime
0.0,-2.836392164,7.521838188,4.177868366,2024-06-05 18:49:11.000000
0.018450469,-3.50219512,7.438089371,4.841278553,2024-06-05 18:49:11.018450
0.058450469,-3.844667673,7.22482872,5.717948914,2024-06-05 18:49:11.058450
0.098450469,-3.159722328,7.165008068,5.952744484,2024-06-05 18:49:11.098450
0.138450469,-3.159722328,7.165008068,5.952744484,2024-06-05 18:49:11.138450
0.178450469,-2.749951363,7.144669533,6.282056808,2024-06-05 18:49:11.178450
0.218450469,-2.985943556,7.211668491,6.80309391,2024-06-05 18:49:11.218450
0.258450469,-2.042274237,6.615257263,5.810371399,2024-06-05 18:49:11.258450
0.298450469,-2.766701221,7.003193855,6.320641041,2024-06-05 18:49:11.298450
0.338450469,-2.541476727,7.657331467,6.664309978,2024-06-05 18:49:11.338450
0.378450469,-0.5222335458,6.532405853,5.997011662,2024-06-05 18:49:11.378450
0.418450469,-0.4504488707,5.574379444,6.963712215,2024-06-05 18:49:11.418450
0.458450469,-0.4504488707,5.574379444,6.963712215,2024-06-05 18:49:11.458450
0.498450469,-0.7307082415,3.290131092,9.753145218,2024-06-05 18:49:11.498450
0.538450469,-0.7307082415,3.290131092,9.753145218,2024-06-05 18:49:11.538450
0.578450469,-0.7307082415,3.290131092,9.753145218,2024-06-05 18:49:11.578450
0.618450469,-0.7307082415,3.290131092,9.753145218,2024-06-05 18:49:11.618450
0.658450469,-0.7307082415,3.290131092,9.753145218,2024-06-05 18:49:11.658450
0.698450469,-0.7307082415,3.290131092,9.753145218,2024-06-05 18:49:11.698450
0.738450469,-0.7307082415,3.290131092,9.753145218,2024-06-05 18:49:11.738450
0.778450469,-0.7307082415,3.290131092,9.753145218,2024-06-05 18:49:11.778450
0.818450469,-0.7307082415,3.290131092,9.753145218,2024-06-05 18:49:11.818450
0.858450469,-0.7307082415,3.290131092,9.753145218,2024-06-05 18:49:11.858450
0.898450469,-0.7307082415,3.290131092,9.753145218,2024-06-05 18:49:11.898450
0.938450469,-0.7307082415,3.290131092,9.753145218,2024-06-05 18:49:11.938450
0.978450469,-0.7307082415,3.290131092,9.753145218,2024-06-05 18:49:11.978450
1.018450469,-0.7307082415,3.290131092,9.753145218,2024-06-05 18:49:12.018450
1.058450469,-0.7307082415,3.290131092,9.753145218,2024-06-05 18:49:12.058450
1.098450469,-0.7307082415,3.290131092,9.753145218,2024-06-05 18:49:12.098450
1.138450469,-0.7307082415,3.290131092,9.753145218,2024-06-05 18:49:12.138450
1.178450469,-0.7307082415,3.290131092,9.753145218,2024-06-05 18:49:12.178450
1.218450469,-0.7307082415,3.290131092,9.753145218,2024-06-05 18:49:12.218450
1.258450469,-0.7307082415,3.290131092,9.753145218,2024-06-05 18:49:12.258450
1.298450469,-11.29831028,-1.910369754,3.214757204,2024-06-05 18:49:12.298450
1.338450469,-4.58255434,-1.47457695,-4.350151539,2024-06-05 18:49:12.338450
1.378450469,-9.415457726,-2.576471806,-4.238885403,2024-06-05 18:49:12.378450
1.418450469,-10.20479012,-2.298605204,2.238485575,2024-06-05 18:49:12.418450
1.458450469,-13.56700516,-4.296313286,8.336295128,2024-06-05 18:49:12.458450
1.498450469,-9.80249691,-2.001296997,9.423832893,2024-06-05 18:49:12.498450
1.538450469,-4.628017902,-4.66151762,9.995119095,2024-06-05 18:49:12.538450
1.578450469,-10.1330061,-3.844667673,7.153044224,2024-06-05 18:49:12.578450
1.618450469,-10.1282196,-3.380161047,4.716851711,2024-06-05 18:49:12.618450
1.658450469,-15.27727509,-4.144069672,4.820939541,2024-06-05 18:49:12.658450
1.698450469,-8.783154488,-0.9978070259,11.06949711,2024-06-05 18:49:12.698450
1.738450469,-9.077771187,-3.643670797,2.928515911,2024-06-05 18:49:12.738450
1.778450469,-8.32791996,-2.849552631,-0.4923232496,2024-06-05 18:49:12.778450
1.818450469,-2.89980197,-1.128215909,3.304488182,2024-06-05 18:49:12.818450
1.858450469,-2.290230274,0.1666002721,6.277271271,2024-06-05 18:49:12.858450
1.898450469,-6.620042801,-4.19581461,6.679863453,2024-06-05 18:49:12.898450
1.938450469,-3.037389278,-4.250849247,5.044967651,2024-06-05 18:49:12.938450
1.978450469,-8.20468998,-4.217350006,3.691527128,2024-06-05 18:49:12.978450
2.018450469,-10.77727318,-1.909173369,7.237989426,2024-06-05 18:49:13.018450
2.058450469,-6.931408882,2.884248495,7.757830143,2024-06-05 18:49:13.058450
2.098450469,-12.01346493,-1.331904888,6.170790672,2024-06-05 18:49:13.098450
2.138450469,-12.01346493,-1.331904888,6.170790672,2024-06-05 18:49:13.138450
2.178450469,-12.01346493,-1.331904888,6.170790672,2024-06-05 18:49:13.178450
2.218450469,-12.01346493,-1.331904888,6.170790672,2024-06-05 18:49:13.218450
2.258450469,-5.607879162,-4.383651257,5.182554722,2024-06-05 18:49:13.258450
2.298450469,-5.607879162,-4.383651257,5.182554722,2024-06-05 18:49:13.298450
2.338450469,-5.607879162,-4.383651257,5.182554722,2024-06-05 18:49:13.338450
2.378450469,-5.607879162,-4.383651257,5.182554722,2024-06-05 18:49:13.378450
2.418450469,-5.607879162,-4.383651257,5.182554722,2024-06-05 18:49:13.418450
2.458450469,-5.607879162,-4.383651257,5.182554722,2024-06-05 18:49:13.458450
2.498450469,-7.678866863,0.5712863803,3.36700058,2024-06-05 18:49:13.498450
2.538450469,-7.678866863,0.5712863803,3.36700058,2024-06-05 18:49:13.538450
2.578450469,-7.678866863,0.5712863803,3.36700058,2024-06-05 18:49:13.578450
2.618450469,-7.678866863,0.5712863803,3.36700058,2024-06-05 18:49:13.618450
2.658450469,-7.678866863,0.5712863803,3.36700058,2024-06-05 18:49:13.658450
2.698450469,-7.678866863,0.5712863803,3.36700058,2024-06-05 18:49:13.698450
2.738450469,-7.678866863,0.5712863803,3.36700058,2024-06-05 18:49:13.738450
2.778450469,-7.678866863,0.5712863803,3.36700058,2024-06-05 18:49:13.778450
2.818450469,-7.678866863,0.5712863803,3.36700058,2024-06-05 18:49:13.818450
2.858450469,-7.678866863,0.5712863803,3.36700058,2024-06-05 18:49:13.858450
2.898450469,-7.678866863,0.5712863803,3.36700058,2024-06-05 18:49:13.898450
2.938450469,-7.678866863,0.5712863803,3.36700058,2024-06-05 18:49:13.938450
2.978450469,-8.836993217,-3.221935749,1.919941068,2024-06-05 18:49:13.978450
3.018450469,-10.34028435,-3.098705292,2.33449769,2024-06-05 18:49:14.018450
3.058450469,-8.833403587,-4.933402061,1.450349569,2024-06-05 18:49:14.058450
3.098450469,-8.154141426,-4.053142548,1.243370414,2024-06-05 18:49:14.098450
3.138450469,-8.313563347,-2.921337366,2.184647083,2024-06-05 18:49:14.138450
3.178450469,-8.611768723,-4.00887537,1.917548299,2024-06-05 18:49:14.178450
3.218450469,-9.594022751,-2.978765011,1.496112347,2024-06-05 18:49:14.218450
3.258450469,-9.610772133,-2.336890459,1.863709688,2024-06-05 18:49:14.258450
3.298450469,-8.914759636,-3.357429266,1.564307809,2024-06-05 18:49:14.298450
3.338450469,-8.718548775,-3.097508907,1.891227245,2024-06-05 18:49:14.338450
3.378450469,-8.743673325,-3.274577856,1.867298961,2024-06-05 18:49:14.378450
3.418450469,-9.004789352,-3.308077335,1.69950223,2024-06-05 18:49:14.418450
3.458450469,-9.190233231,-3.590729475,1.886441588,2024-06-05 18:49:14.458450
3.498450469,-8.177172661,-3.725026608,1.66600275,2024-06-05 18:49:14.498450
3.538450469,-8.630910873,-3.320041418,1.946262121,2024-06-05 18:49:14.538450
3.578450469,-9.841979027,-2.771486759,2.066202402,2024-06-05 18:49:14.578450
3.618450469,-9.38435173,-3.600300789,1.890030742,2024-06-05 18:49:14.618450
3.658450469,-9.071788788,-3.578765392,2.059023857,2024-06-05 18:49:14.658450
3.698450469,-8.642875671,-3.306880951,1.929512382,2024-06-05 18:49:14.698450
3.738450469,-8.57228756,-3.224328518,1.790728688,2024-06-05 18:49:14.738450
3.778450469,-9.051449776,-3.439981699,1.789532185,2024-06-05 18:49:14.778450
3.818450469,-9.051449776,-3.439981699,1.789532185,2024-06-05 18:49:14.818450
3.858450469,-9.051449776,-3.439981699,1.789532185,2024-06-05 18:49:14.858450
3.898450469,-9.051449776,-3.439981699,1.789532185,2024-06-05 18:49:14.898450
3.938450469,-9.051449776,-3.439981699,1.789532185,2024-06-05 18:49:14.938450
3.978450469,-9.051449776,-3.439981699,1.789532185,2024-06-05 18:49:14.978450
4.018450469,-9.051449776,-3.439981699,1.789532185,2024-06-05 18:49:15.018450
4.058450469,-9.051449776,-3.439981699,1.789532185,2024-06-05 18:49:15.058450
4.098450469,-9.051449776,-3.439981699,1.789532185,2024-06-05 18:49:15.098450
4.138450469,-9.051449776,-3.439981699,1.789532185,2024-06-05 18:49:15.138450
4.178450469,-9.051449776,-3.439981699,1.789532185,2024-06-05 18:49:15.178450
4.218450469,-9.051449776,-3.439981699,1.789532185,2024-06-05 18:49:15.218450
4.258450469,-8.638090134,-3.150151014,2.631506681,2024-06-05 18:49:15.258450
4.298450469,-8.638090134,-3.150151014,2.631506681,2024-06-05 18:49:15.298450
4.338450469,-8.638090134,-3.150151014,2.631506681,2024-06-05 18:49:15.338450
4.378450469,-8.638090134,-3.150151014,2.631506681,2024-06-05 18:49:15.378450
4.418450469,-8.638090134,-3.150151014,2.631506681,2024-06-05 18:49:15.418450
4.458450469,-8.638090134,-3.150151014,2.631506681,2024-06-05 18:49:15.458450
4.498450469,-8.638090134,-3.150151014,2.631506681,2024-06-05 18:49:15.498450
4.538450469,-8.638090134,-3.150151014,2.631506681,2024-06-05 18:49:15.538450
4.578450469,-8.638090134,-3.150151014,2.631506681,2024-06-05 18:49:15.578450
4.618450469,-8.638090134,-3.150151014,2.631506681,2024-06-05 18:49:15.618450
4.658450469,-8.166404724,-4.017250061,3.671188116,2024-06-05 18:49:15.658450
4.698450469,-7.707581043,-4.47009182,3.62452817,2024-06-05 18:49:15.698450
4.738450469,-7.487142086,-4.100998878,3.449553013,2024-06-05 18:49:15.738450
4.778450469,-7.863114357,-3.500998735,3.459124327,2024-06-05 18:49:15.778450
4.818450469,-8.288438797,-3.617349625,3.408874989,2024-06-05 18:49:15.818450
4.858450469,-8.320741653,-3.650849104,3.863810301,2024-06-05 18:49:15.858450
4.898450469,-8.012965202,-3.90478754,4.087838173,2024-06-05 18:49:15.898450
4.938450469,-7.788936615,-3.999304056,4.110570431,2024-06-05 18:49:15.938450
4.978450469,-8.112266541,-4.264009953,4.427021027,2024-06-05 18:49:15.978450
5.018450469,-6.728916168,-4.674678326,4.133302212,2024-06-05 18:49:16.018450
5.058450469,-7.31814909,-4.985146999,4.461717129,2024-06-05 18:49:16.058450
5.098450469,-7.788936615,-4.272384644,4.332205296,2024-06-05 18:49:16.098450
5.138450469,-6.821040154,-4.814957142,4.551447868,2024-06-05 18:49:16.138450
5.178450469,-7.325327396,-5.198108196,4.708476543,2024-06-05 18:49:16.178450
5.218450469,-7.355237484,-4.354937077,4.684548378,2024-06-05 18:49:16.218450
5.258450469,-5.967101574,-3.90478754,4.191029072,2024-06-05 18:49:16.258450
5.298450469,-7.180561543,-4.527519703,3.976572037,2024-06-05 18:49:16.298450
5.338450469,-7.41176796,-4.757529736,3.778865099,2024-06-05 18:49:16.338450
5.378450469,-7.372286797,-5.094020367,4.132105827,2024-06-05 18:49:16.378450
5.418450469,-7.206882477,-5.276174068,4.452145576,2024-06-05 18:49:16.418450
5.458450469,-7.229614735,-4.95015192,4.569394112,2024-06-05 18:49:16.458450
5.498450469,-7.619943619,-4.738387108,4.510769844,2024-06-05 18:49:16.498450
5.538450469,-7.619943619,-4.738387108,4.510769844,2024-06-05 18:49:16.538450
5.578450469,-7.619943619,-4.738387108,4.510769844,2024-06-05 18:49:16.578450
5.618450469,-7.619943619,-4.738387108,4.510769844,2024-06-05 18:49:16.618450
5.658450469,-7.619943619,-4.738387108,4.510769844,2024-06-05 18:49:16.658450
5.698450469,-7.619943619,-4.738387108,4.510769844,2024-06-05 18:49:16.698450
5.738450469,-7.619943619,-4.738387108,4.510769844,2024-06-05 18:49:16.738450
5.778450469,-7.619943619,-4.738387108,4.510769844,2024-06-05 18:49:16.778450
5.818450469,-7.619943619,-4.738387108,4.510769844,2024-06-05 18:49:16.818450
5.858450469,-7.619943619,-4.738387108,4.510769844,2024-06-05 18:49:16.858450
5.898450469,-7.619943619,-4.738387108,4.510769844,2024-06-05 18:49:16.898450
5.938450469,-7.619943619,-4.738387108,4.510769844,2024-06-05 18:49:16.938450
5.978450469,-7.619943619,-4.738387108,4.510769844,2024-06-05 18:49:16.978450
6.018450469,-7.619943619,-4.738387108,4.510769844,2024-06-05 18:49:17.018450
6.058450469,-7.619943619,-4.738387108,4.510769844,2024-06-05 18:49:17.058450
6.098450469,-7.619943619,-4.738387108,4.510769844,2024-06-05 18:49:17.098450
6.138450469,-7.619943619,-4.738387108,4.510769844,2024-06-05 18:49:17.138450
6.178450469,-7.619943619,-4.738387108,4.510769844,2024-06-05 18:49:17.178450
6.218450469,-7.619943619,-4.738387108,4.510769844,2024-06-05 18:49:17.218450
6.258450469,-7.619943619,-4.738387108,4.510769844,2024-06-05 18:49:17.258450
6.298450469,-7.619943619,-4.738387108,4.510769844,2024-06-05 18:49:17.298450
6.338450469,-8.097909927,-4.409972191,2.302194595,2024-06-05 18:49:17.338450
6.378450469,-9.291030884,-4.922634602,2.084148407,2024-06-05 18:49:17.378450
6.418450469,-9.66580677,-4.550251484,2.146361828,2024-06-05 18:49:17.418450
6.458450469,-8.842975616,-3.732205153,2.263610125,2024-06-05 18:49:17.458450
6.498450469,-9.187840462,-4.093820572,2.699702263,2024-06-05 18:49:17.498450
6.538450469,-8.629714966,-4.176671982,2.486441851,2024-06-05 18:49:17.538450
6.578450469,-8.559126854,-3.853042603,3.063710213,2024-06-05 18:49:17.578450
6.618450469,-8.854939461,-3.672384501,2.921337366,2024-06-05 18:49:17.618450
6.658450469,-7.441678524,-3.146561861,3.200400352,2024-06-05 18:49:17.658450
6.698450469,-7.16022253,-3.976572037,2.560918331,2024-06-05 18:49:17.698450
6.738450469,-10.06361389,-4.354937077,1.363011599,2024-06-05 18:49:17.738450
6.778450469,-9.536594391,-3.623331785,1.767996788,2024-06-05 18:49:17.778450
6.818450469,-8.143373489,-3.064906597,2.803789854,2024-06-05 18:49:17.818450
6.858450469,-6.93619442,-3.303291559,2.143969059,2024-06-05 18:49:17.858450
6.898450469,-8.710173607,-4.207778454,3.215953588,2024-06-05 18:49:17.898450
6.938450469,-8.883653641,-3.783650875,3.02063942,2024-06-05 18:49:17.938450
6.978450469,-8.973683357,-3.68075943,3.10947299,2024-06-05 18:49:17.978450
7.018450469,-7.904091358,-3.693919897,4.042374611,2024-06-05 18:49:18.018450
7.058450469,-8.309973717,-3.540480137,3.89880538,2024-06-05 18:49:18.058450
7.098450469,-8.717351913,-3.693919897,4.07348156,2024-06-05 18:49:18.098450
7.138450469,-8.036892891,-3.875774384,4.363312244,2024-06-05 18:49:18.138450
7.178450469,-8.036892891,-3.875774384,4.363312244,2024-06-05 18:49:18.178450
7.218450469,-8.036892891,-3.875774384,4.363312244,2024-06-05 18:49:18.218450
7.258450469,-7.89930582,-3.795614958,4.521537304,2024-06-05 18:49:18.258450
7.298450469,-7.89930582,-3.795614958,4.521537304,2024-06-05 18:49:18.298450
7.338450469,-7.89930582,-3.795614958,4.521537304,2024-06-05 18:49:18.338450
7.378450469,-7.89930582,-3.795614958,4.521537304,2024-06-05 18:49:18.378450
7.418450469,-7.89930582,-3.795614958,4.521537304,2024-06-05 18:49:18.418450
7.458450469,-7.89930582,-3.795614958,4.521537304,2024-06-05 18:49:18.458450
7.498450469,-5.588736534,-4.749154568,4.139284134,2024-06-05 18:49:18.498450
7.538450469,-5.588736534,-4.749154568,4.139284134,2024-06-05 18:49:18.538450
7.578450469,-5.588736534,-4.749154568,4.139284134,2024-06-05 18:49:18.578450
7.618450469,-5.588736534,-4.749154568,4.139284134,2024-06-05 18:49:18.618450
7.658450469,-5.588736534,-4.749154568,4.139284134,2024-06-05 18:49:18.658450
7.698450469,-5.588736534,-4.749154568,4.139284134,2024-06-05 18:49:18.698450
7.738450469,-5.588736534,-4.749154568,4.139284134,2024-06-05 18:49:18.738450
7.778450469,-5.588736534,-4.749154568,4.139284134,2024-06-05 18:49:18.778450
7.818450469,-5.588736534,-4.749154568,4.139284134,2024-06-05 18:49:18.818450
7.858450469,-5.588736534,-4.749154568,4.139284134,2024-06-05 18:49:18.858450
7.898450469,-5.588736534,-4.749154568,4.139284134,2024-06-05 18:49:18.898450
7.938450469,-5.588736534,-4.749154568,4.139284134,2024-06-05 18:49:18.938450
7.978450469,-5.588736534,-4.749154568,4.139284134,2024-06-05 18:49:18.978450
8.018450469,-6.441478729,-8.672785759,1.049252748,2024-06-05 18:49:19.018450
8.058450469,-5.537290573,-6.844070911,-0.3975076675,2024-06-05 18:49:19.058450
8.098450469,-4.496412754,-5.636592865,0.5820540786,2024-06-05 18:49:19.098450
8.138450469,-3.962215185,-7.472784996,-0.1088734269,2024-06-05 18:49:19.138450
8.178450469,-4.885545731,-7.9782691,0.2694916427,2024-06-05 18:49:19.178450
8.218450469,-6.339783669,-8.156534195,0.8359923959,2024-06-05 18:49:19.218450
8.258450469,-4.832903385,-9.584450722,1.013360381,2024-06-05 18:49:19.258450
8.298450469,-5.987440586,-8.516056061,-0.8276175261,2024-06-05 18:49:19.298450
8.338450469,-6.397211552,-8.992825508,1.196411371,2024-06-05 18:49:19.338450
8.378450469,-4.61126852,-10.04925728,0.2072782665,2024-06-05 18:49:19.378450
8.418450469,-4.757529736,-6.781558514,0.704387188,2024-06-05 18:49:19.418450
8.458450469,-5.068895817,-7.656135082,1.21704936,2024-06-05 18:49:19.458450
8.498450469,-5.796014786,-7.434499741,1.363011599,2024-06-05 18:49:19.498450
8.538450469,-6.99003315,-8.015357971,0.7642077208,2024-06-05 18:49:19.538450
8.578450469,-7.383054256,-8.967700958,0.1402792335,2024-06-05 18:49:19.578450
8.618450469,-7.153044224,-9.137591362,0.2312064916,2024-06-05 18:49:19.618450
8.658450469,-4.667499542,-6.987640381,-0.007178467698,2024-06-05 18:49:19.658450
8.698450469,-5.363512039,-6.87517786,0.8694919348,2024-06-05 18:49:19.698450
8.738450469,-5.981458187,-6.073881149,0.07537391037,2024-06-05 18:49:19.738450
8.778450469,-9.825228691,-5.291727066,0.6562315822,2024-06-05 18:49:19.778450
8.818450469,-10.04207802,-6.179165363,0.6215356588,2024-06-05 18:49:19.818450
8.858450469,-10.04207802,-6.179165363,0.6215356588,2024-06-05 18:49:19.858450
8.898450469,-10.04207802,-6.179165363,0.6215356588,2024-06-05 18:49:19.898450
8.938450469,-10.04207802,-6.179165363,0.6215356588,2024-06-05 18:49:19.938450
8.978450469,-10.04207802,-6.179165363,0.6215356588,2024-06-05 18:49:19.978450
9.018450469,-10.04207802,-6.179165363,0.6215356588,2024-06-05 18:49:20.018450
9.058450469,-10.04207802,-6.179165363,0.6215356588,2024-06-05 18:49:20.058450
9.098450469,-10.04207802,-6.179165363,0.6215356588,2024-06-05 18:49:20.098450
9.138450469,-10.04207802,-6.179165363,0.6215356588,2024-06-05 18:49:20.138450
9.178450469,-10.04207802,-6.179165363,0.6215356588,2024-06-05 18:49:20.178450
9.218450469,-10.04207802,-6.179165363,0.6215356588,2024-06-05 18:49:20.218450
9.258450469,-8.215457916,-4.383651257,0.9305089116,2024-06-05 18:49:20.258450
9.298450469,-8.215457916,-4.383651257,0.9305089116,2024-06-05 18:49:20.298450
9.338450469,-8.215457916,-4.383651257,0.9305089116,2024-06-05 18:49:20.338450
9.378450469,-8.215457916,-4.383651257,0.9305089116,2024-06-05 18:49:20.378450
9.418450469,-8.215457916,-4.383651257,0.9305089116,2024-06-05 18:49:20.418450
9.458450469,-8.215457916,-4.383651257,0.9305089116,2024-06-05 18:49:20.458450
9.498450469,-8.215457916,-4.383651257,0.9305089116,2024-06-05 18:49:20.498450
9.538450469,-8.215457916,-4.383651257,0.9305089116,2024-06-05 18:49:20.538450
9.578450469,-8.215457916,-4.383651257,0.9305089116,2024-06-05 18:49:20.578450
9.618450469,-8.215457916,-4.383651257,0.9305089116,2024-06-05 18:49:20.618450
9.658450469,-8.677571297,-2.732005358,0.5988038778,2024-06-05 18:49:20.658450
9.698450469,-7.684848785,-4.032803535,2.19780755,2024-06-05 18:49:20.698450
9.738450469,-8.729315758,-4.339384079,1.811067581,2024-06-05 18:49:20.738450
9.778450469,-6.887141705,-2.811267614,2.847159863,2024-06-05 18:49:20.778450
9.818450469,-5.853442192,-1.002592683,3.226721287,2024-06-05 18:49:20.818450
9.858450469,-5.796014786,0.3137588799,2.068595171,2024-06-05 18:49:20.858450
9.898450469,-8.995218277,0.2324029058,1.533201098,2024-06-05 18:49:20.898450
9.938450469,-12.3738842,-1.704287887,1.254138112,2024-06-05 18:49:20.938450
9.978450469,-9.385547638,-2.433799744,0.7474579811,2024-06-05 18:49:20.978450
10.01845047,-8.796315193,-2.300997972,1.912762642,2024-06-05 18:49:21.018450
10.05845047,-8.966505051,-3.090330362,1.601396561,2024-06-05 18:49:21.058450
10.09845047,-7.942376614,-3.965804338,1.679163337,2024-06-05 18:49:21.098450
10.13845047,-6.243771553,-3.023032188,1.70548439,2024-06-05 18:49:21.138450
10.17845047,-6.933801651,-3.492623806,1.13419795,2024-06-05 18:49:21.178450
10.21845047,-10.64088249,-6.248557091,0.8001000881,2024-06-05 18:49:21.218450
10.25845047,-8.839385986,-5.953940868,0.7498508096,2024-06-05 18:49:21.258450
10.29845047,-7.179365158,-5.080859661,1.246959686,2024-06-05 18:49:21.298450
10.33845047,-8.078767776,-8.189136505,0.7701897621,2024-06-05 18:49:21.338450
10.37845047,-7.184150696,-6.884748936,0.1821536273,2024-06-05 18:49:21.378450
10.41845047,-7.683652401,-7.064210415,0.4731806815,2024-06-05 18:49:21.418450
10.45845047,-5.824728489,-7.35763073,-0.2000997961,2024-06-05 18:49:21.458450
10.49845047,-5.824728489,-7.35763073,-0.2000997961,2024-06-05 18:49:21.498450
10.53845047,-5.824728489,-7.35763073,-0.2000997961,2024-06-05 18:49:21.538450
10.57845047,-5.824728489,-7.35763073,-0.2000997961,2024-06-05 18:49:21.578450
10.61845047,-5.824728489,-7.35763073,-0.2000997961,2024-06-05 18:49:21.618450
10.65845047,-5.824728489,-7.35763073,-0.2000997961,2024-06-05 18:49:21.658450
10.69845047,-5.824728489,-7.35763073,-0.2000997961,2024-06-05 18:49:21.698450
10.73845047,-5.824728489,-7.35763073,-0.2000997961,2024-06-05 18:49:21.738450
10.77845047,-5.824728489,-7.35763073,-0.2000997961,2024-06-05 18:49:21.778450
10.81845047,-5.824728489,-7.35763073,-0.2000997961,2024-06-05 18:49:21.818450
10.85845047,-5.824728489,-7.35763073,-0.2000997961,2024-06-05 18:49:21.858450
10.89845047,-5.824728489,-7.35763073,-0.2000997961,2024-06-05 18:49:21.898450
10.93845047,-5.824728489,-7.35763073,-0.2000997961,2024-06-05 18:49:21.938450
10.97845047,-5.824728489,-7.35763073,-0.2000997961,2024-06-05 18:49:21.978450
11.01845047,-5.824728489,-7.35763073,-0.2000997961,2024-06-05 18:49:22.018450
11.05845047,-5.824728489,-7.35763073,-0.2000997961,2024-06-05 18:49:22.058450
11.09845047,-5.824728489,-7.35763073,-0.2000997961,2024-06-05 18:49:22.098450
11.13845047,-5.824728489,-7.35763073,-0.2000997961,2024-06-05 18:49:22.138450
11.17845047,-5.824728489,-7.35763073,-0.2000997961,2024-06-05 18:49:22.178450
11.21845047,-5.824728489,-7.35763073,-0.2000997961,2024-06-05 18:49:22.218450
11.25845047,-5.824728489,-7.35763073,-0.2000997961,2024-06-05 18:49:22.258450
11.29845047,-5.824728489,-7.35763073,-0.2000997961,2024-06-05 18:49:22.298450
11.33845047,-9.362815857,-6.289534092,-0.6167500615,2024-06-05 18:49:22.338450
11.37845047,-9.025128365,-5.431707382,-0.9281160831,2024-06-05 18:49:22.378450
11.41845047,-9.366405487,-4.644767761,-0.6251249313,2024-06-05 18:49:22.418450
11.45845047,-8.681160927,-4.013660908,-0.3317050338,2024-06-05 18:49:22.458450
11.49845047,-9.203393936,-3.496212959,-0.2922234535,2024-06-05 18:49:22.498450
11.53845047,-9.255139351,-4.623232365,-0.5485545993,2024-06-05 18:49:22.538450
11.57845047,-6.897909641,-3.983750582,-2.321336985,2024-06-05 18:49:22.578450
11.61845047,-7.491927624,-3.900001764,0.3113660514,2024-06-05 18:49:22.618450
11.65845047,-7.645367622,-3.203989506,1.033699393,2024-06-05 18:49:22.658450
11.69845047,-6.325426579,-1.897209287,1.292423368,2024-06-05 18:49:22.698450
11.73845047,-6.708577156,-2.479263306,1.215852976,2024-06-05 18:49:22.738450
11.77845047,-5.987440586,-2.438585281,1.11984098,2024-06-05 18:49:22.778450
11.81845047,-8.46819973,-2.509173632,1.062413216,2024-06-05 18:49:22.818450
11.85845047,-7.908876896,-3.450749397,0.9726824164,2024-06-05 18:49:22.858450
11.89845047,-7.148258686,-2.472084999,1.057627559,2024-06-05 18:49:22.898450
11.93845047,-7.642974854,-2.400300264,1.091127157,2024-06-05 18:49:22.938450
11.97845047,-10.59541893,-3.588336706,0.8347960114,2024-06-05 18:49:22.978450
12.01845047,-11.25404263,-5.828317642,0.4624129832,2024-06-05 18:49:23.018450
12.05845047,-7.802097321,-5.87258482,0.1534397453,2024-06-05 18:49:23.058450
12.09845047,-6.984051228,-5.277370453,0.2276172489,2024-06-05 18:49:23.098450
12.13845047,-8.160123825,-5.766104221,0.9918249846,2024-06-05 18:49:23.138450
12.17845047,-8.160123825,-5.766104221,0.9918249846,2024-06-05 18:49:23.178450
12.21845047,-8.160123825,-5.766104221,0.9918249846,2024-06-05 18:49:23.218450
12.25845047,-8.541180611,-8.871688843,-0.3221337497,2024-06-05 18:49:23.258450
12.29845047,-8.541180611,-8.871688843,-0.3221337497,2024-06-05 18:49:23.298450
12.33845047,-8.541180611,-8.871688843,-0.3221337497,2024-06-05 18:49:23.338450
12.37845047,-8.541180611,-8.871688843,-0.3221337497,2024-06-05 18:49:23.378450
12.41845047,-8.541180611,-8.871688843,-0.3221337497,2024-06-05 18:49:23.418450
12.45845047,-8.541180611,-8.871688843,-0.3221337497,2024-06-05 18:49:23.458450
12.49845047,-8.541180611,-8.871688843,-0.3221337497,2024-06-05 18:49:23.498450
12.53845047,-8.541180611,-8.871688843,-0.3221337497,2024-06-05 18:49:23.538450
12.57845047,-8.541180611,-8.871688843,-0.3221337497,2024-06-05 18:49:23.578450
12.61845047,-8.541180611,-8.871688843,-0.3221337497,2024-06-05 18:49:23.618450
12.65845047,-8.541180611,-8.871688843,-0.3221337497,2024-06-05 18:49:23.658450
12.69845047,-8.541180611,-8.871688843,-0.3221337497,2024-06-05 18:49:23.698450
12.73845047,-8.541180611,-8.871688843,-0.3221337497,2024-06-05 18:49:23.738450
12.77845047,-8.541180611,-8.871688843,-0.3221337497,2024-06-05 18:49:23.778450
12.81845047,-8.541180611,-8.871688843,-0.3221337497,2024-06-05 18:49:23.818450
12.85845047,-8.541180611,-8.871688843,-0.3221337497,2024-06-05 18:49:23.858450
12.89845047,-8.541180611,-8.871688843,-0.3221337497,2024-06-05 18:49:23.898450
12.93845047,-8.541180611,-8.871688843,-0.3221337497,2024-06-05 18:49:23.938450
12.97845047,-8.541180611,-8.871688843,-0.3221337497,2024-06-05 18:49:23.978450
13.01845047,-9.684949875,-4.963611603,-0.1124626622,2024-06-05 18:49:24.018450
13.05845047,-10.2969141,-5.613861084,-0.1414756328,2024-06-05 18:49:24.058450
13.09845047,-8.422436714,-6.233004093,-0.643071115,2024-06-05 18:49:24.098450
13.13845047,-6.17557621,-3.799204111,-1.654038668,2024-06-05 18:49:24.138450
13.17845047,-5.643771172,-2.524727106,-0.05264209956,2024-06-05 18:49:24.178450
13.21845047,-9.638289452,-2.618346214,-0.4229314029,2024-06-05 18:49:24.218450
13.25845047,-7.797311783,-2.869891644,0.7031907439,2024-06-05 18:49:24.258450
13.29845047,-5.031806946,-1.817049742,0.7654041648,2024-06-05 18:49:24.298450
13.33845047,-6.122933865,-2.092523336,0.9571290612,2024-06-05 18:49:24.338450
13.37845047,-8.90518856,-1.434796333,1.260120273,2024-06-05 18:49:24.378450
13.41845047,-9.972387314,-2.563311338,0.1160518974,2024-06-05 18:49:24.418450
13.45845047,-7.272685528,-2.714059114,-0.05264209956,2024-06-05 18:49:24.458450
13.49845047,-7.095616341,-2.234896421,0.4624129832,2024-06-05 18:49:24.498450
13.53845047,-8.191529274,-3.207578659,0.1929213256,2024-06-05 18:49:24.538450
13.57845047,-7.822436333,-4.79820776,0.4301098585,2024-06-05 18:49:24.578450
13.61845047,-7.187740326,-5.318048477,-0.294616282,2024-06-05 18:49:24.618450
13.65845047,-6.205486298,-4.911866665,0.2766701281,2024-06-05 18:49:24.658450
13.69845047,-7.674081326,-4.824528694,-0.2659024298,2024-06-05 18:49:24.698450
13.73845047,-11.59651566,-5.408975601,-0.05982056633,2024-06-05 18:49:24.738450
13.77845047,-9.731609344,-8.529216766,-0.1462612897,2024-06-05 18:49:24.778450
13.81845047,-7.688438416,-9.40229702,-1.00737834,2024-06-05 18:49:24.818450
13.85845047,-8.123034477,-9.107681274,-0.5641079545,2024-06-05 18:49:24.858450
13.89845047,-6.455835342,-7.113562584,-0.6646065116,2024-06-05 18:49:24.898450
13.93845047,-6.455835342,-7.113562584,-0.6646065116,2024-06-05 18:49:24.938450
13.97845047,-6.455835342,-7.113562584,-0.6646065116,2024-06-05 18:49:24.978450
14.01845047,-6.455835342,-7.113562584,-0.6646065116,2024-06-05 18:49:25.018450
14.05845047,-6.107380867,-8.082356453,-0.2276172489,2024-06-05 18:49:25.058450
14.09845047,-5.322834015,-9.010771751,0.2539383173,2024-06-05 18:49:25.098450
14.13845047,-5.264209747,-6.976872444,0.1052841991,2024-06-05 18:49:25.138450
14.17845047,-5.264209747,-6.976872444,0.1052841991,2024-06-05 18:49:25.178450
14.21845047,-5.264209747,-6.976872444,0.1052841991,2024-06-05 18:49:25.218450
14.25845047,-6.74925518,-7.520641804,0.1244267747,2024-06-05 18:49:25.258450
14.29845047,-8.290831566,-7.220043182,-0.01555334684,2024-06-05 18:49:25.298450
14.33845047,-8.447860718,-7.22482872,-0.3029911816,2024-06-05 18:49:25.338450
14.37845047,-9.206983566,-7.197311401,-0.5174478889,2024-06-05 18:49:25.378450
14.41845047,-7.540980339,-6.852446079,-0.5078766346,2024-06-05 18:49:25.418450
14.45845047,-7.619943619,-4.931009293,-0.4313062727,2024-06-05 18:49:25.458450
14.49845047,-7.619943619,-4.931009293,-0.4313062727,2024-06-05 18:49:25.498450
14.53845047,-7.619943619,-4.931009293,-0.4313062727,2024-06-05 18:49:25.538450
14.57845047,-9.991530418,-3.862613916,-2.958425999,2024-06-05 18:49:25.578450
14.61845047,-9.416654587,-3.903591156,0.02153540403,2024-06-05 18:49:25.618450
14.65845047,-7.365108013,-4.345366001,0.7618148923,2024-06-05 18:49:25.658450
14.69845047,-7.365108013,-4.345366001,0.7618148923,2024-06-05 18:49:25.698450
14.73845047,-6.600900173,-3.422035456,0.4313062727,2024-06-05 18:49:25.738450
14.77845047,-6.600900173,-3.422035456,0.4313062727,2024-06-05 18:49:25.778450
14.81845047,-4.466502666,-0.6792625189,0.6227321029,2024-06-05 18:49:25.818450
14.85845047,-6.087041855,-1.613360643,0.6071787477,2024-06-05 18:49:25.858450
14.89845047,-8.561519623,-2.581257343,1.063609719,2024-06-05 18:49:25.898450
14.93845047,-9.518648148,-2.823231697,0.7821539044,2024-06-05 18:49:25.938450
14.97845047,-9.518648148,-2.823231697,0.7821539044,2024-06-05 18:49:25.978450
15.01845047,-7.283452988,-2.842374086,0.2958126962,2024-06-05 18:49:26.018450
15.05845047,-7.283452988,-2.842374086,0.2958126962,2024-06-05 18:49:26.058450
15.09845047,-7.96391201,-5.692824364,-0.399900496,2024-06-05 18:49:26.098450
15.13845047,-9.374779701,-6.108577251,-0.1268195957,2024-06-05 18:49:26.138450
15.17845047,-14.00758362,-8.209475517,0.08853443712,2024-06-05 18:49:26.178450
15.21845047,-9.38435173,-9.958030701,-0.3448655605,2024-06-05 18:49:26.218450
15.25845047,-6.901498795,-8.345866203,-0.6191428304,2024-06-05 18:49:26.258450
15.29845047,-7.210472107,-7.227221489,-0.4660021961,2024-06-05 18:49:26.298450
15.33845047,-7.314559937,-8.100302696,-0.06340979785,2024-06-05 18:49:26.338450
15.37845047,-5.168197632,-5.109573841,-0.6323033571,2024-06-05 18:49:26.378450
15.41845047,-6.865606308,-6.706184387,0.5760720372,2024-06-05 18:49:26.418450
15.45845047,-8.808279037,-7.464410305,-0.3640081584,2024-06-05 18:49:26.458450
15.49845047,-7.212864876,-8.451449394,-0.1136590764,2024-06-05 18:49:26.498450
15.53845047,-7.212864876,-8.451449394,-0.1136590764,2024-06-05 18:49:26.538450
15.53845047,-6.370890141,-7.49910593,0.004785645287,2024-06-05 18:49:26.538450
15.61845047,-7.423732281,-5.956333637,-0.1606182158,2024-06-05 18:49:26.618450
15.65845047,-7.774580002,-8.142177582,-0.752243638,2024-06-05 18:49:26.658450
15.69845047,-7.774580002,-8.142177582,-0.752243638,2024-06-05 18:49:26.698450
15.73845047,-7.774580002,-8.142177582,-0.752243638,2024-06-05 18:49:26.738450
15.77845047,-7.774580002,-8.142177582,-0.752243638,2024-06-05 18:49:26.778450
15.81845047,-7.114758968,-6.064310074,-0.699601531,2024-06-05 18:49:26.818450
15.85845047,-8.551948547,-6.295516491,-1.572682738,2024-06-05 18:49:26.858450
15.89845047,-8.61296463,-5.080859661,-1.220638633,2024-06-05 18:49:26.898450
15.93845047,-11.41226864,-5.70000267,-0.6876373887,2024-06-05 18:49:26.938450
15.97845047,-8.523234367,-5.792425632,0.5700899959,2024-06-05 18:49:26.978450
16.01845047,-8.523234367,-5.792425632,0.5700899959,2024-06-05 18:49:27.018450
16.05845047,-6.354140759,-3.512962818,0.5210371017,2024-06-05 18:49:27.058450
16.09845047,-4.365705013,-1.831406593,0.8874381185,2024-06-05 18:49:27.098450
16.13845047,-4.886742115,-0.3257229924,1.037288666,2024-06-05 18:49:27.138450
16.17845047,-7.536194801,-0.5940182209,0.8252246976,2024-06-05 18:49:27.178450
16.21845047,-5.901299,-1.917548299,0.2467598319,2024-06-05 18:49:27.218450
16.25845047,-7.04387188,-2.143969059,0.6095715761,2024-06-05 18:49:27.258450
16.29845047,-10.40010452,-3.040978432,-0.03230310604,2024-06-05 18:49:27.298450
16.33845047,-8.073982239,-3.89880538,0.2024926096,2024-06-05 18:49:27.338450
16.37845047,-6.277271271,-3.746562004,-0.0466600433,2024-06-05 18:49:27.378450
16.41845047,-6.914659023,-2.690130949,-0.06340979785,2024-06-05 18:49:27.418450
16.45845047,-9.229715347,-5.316852093,-0.7378866673,2024-06-05 18:49:27.458450
16.49845047,-10.81675434,-8.208278656,-0.1546361595,2024-06-05 18:49:27.498450
16.53845047,-7.826025486,-7.780561924,-1.012163997,2024-06-05 18:49:27.538450
16.57845047,-7.826025486,-7.780561924,-1.012163997,2024-06-05 18:49:27.578450
16.61845047,-6.390032768,-10.51854897,-1.000199914,2024-06-05 18:49:27.618450
16.65845047,-7.532605648,-8.026124954,-0.4241278172,2024-06-05 18:49:27.658450
16.69845047,-7.033103943,-5.190929413,-0.7247261405,2024-06-05 18:49:27.698450
16.73845047,-7.326523781,-8.138587952,0.03230310604,2024-06-05 18:49:27.738450
16.77845047,-9.304191589,-8.408080101,-0.8922237158,2024-06-05 18:49:27.778450
16.81845047,-6.847660065,-8.298009872,0.03469592705,2024-06-05 18:49:27.818450
16.85845047,-5.824728489,-9.411869049,0.3975076675,2024-06-05 18:49:27.858450
16.89845047,-6.69063139,-6.602096558,0.2383849621,2024-06-05 18:49:27.898450
16.93845047,-5.64616394,-5.781657696,-0.004785645287,2024-06-05 18:49:27.938450
16.97845047,-8.286046028,-7.18893671,-0.4109672904,2024-06-05 18:49:27.978450
17.01845047,-9.040681839,-7.788936615,-0.8276175261,2024-06-05 18:49:28.018450
17.05845047,-9.7196455,-7.373483181,-0.3197409213,2024-06-05 18:49:28.058450
17.09845047,-9.113663673,-6.90030241,-0.9822536707,2024-06-05 18:49:28.098450
17.13845047,-8.286046028,-7.19970417,-0.6972087026,2024-06-05 18:49:28.138450
17.17845047,-8.336295128,-6.551548481,-0.08015955985,2024-06-05 18:49:28.178450
17.21845047,-7.748258591,-4.903491974,-2.621935368,2024-06-05 18:49:28.218450
17.25845047,-8.478966713,-1.22542429,-1.224227905,2024-06-05 18:49:28.258450
17.29845047,-9.392725945,-4.464109898,-0.6948158741,2024-06-05 18:49:28.298450
17.33845047,-9.392725945,-4.464109898,-0.6948158741,2024-06-05 18:49:28.338450
17.37845047,-9.392725945,-4.464109898,-0.6948158741,2024-06-05 18:49:28.378450
17.41845047,-7.41535759,-2.839981318,1.620539188,2024-06-05 18:49:28.418450
17.45845047,-6.722934246,-1.376172066,0.6876373887,2024-06-05 18:49:28.458450
17.49845047,-4.105784416,-1.535593987,0.157028988,2024-06-05 18:49:28.498450
17.53845047,-6.381658077,-1.663609982,0.3675973713,2024-06-05 18:49:28.538450
17.57845047,-6.381658077,-1.663609982,0.3675973713,2024-06-05 18:49:28.578450
17.61845047,-6.006583214,-2.93090868,-0.3209373355,2024-06-05 18:49:28.618450
17.65845047,-10.60618591,-4.442574501,0.7725825906,2024-06-05 18:49:28.658450
17.69845047,-10.60618591,-4.442574501,0.7725825906,2024-06-05 18:49:28.698450
17.73845047,-9.925727844,-6.267699718,0.8383852243,2024-06-05 18:49:28.738450
17.77845047,-10.97737312,-8.062017441,-0.2706880569,2024-06-05 18:49:28.778450
17.81845047,-10.19282627,-9.128020287,-0.5330012441,2024-06-05 18:49:28.818450
17.85845047,-5.171787262,-5.079663277,-1.533201098,2024-06-05 18:49:28.858450
17.89845047,-5.171787262,-5.079663277,-1.533201098,2024-06-05 18:49:28.898450
17.93845047,-7.939983845,-8.203493118,1.190429211,2024-06-05 18:49:28.938450
17.97845047,-6.654738903,-6.637989044,-0.005982056726,2024-06-05 18:49:28.978450
18.01845047,-6.547959328,-8.640482903,-0.4277170599,2024-06-05 18:49:29.018450
18.05845047,-8.100302696,-9.216554642,0.1677966863,2024-06-05 18:49:29.058450
18.09845047,-8.100302696,-9.216554642,0.1677966863,2024-06-05 18:49:29.098450
18.13845047,-8.100302696,-9.216554642,0.1677966863,2024-06-05 18:49:29.138450
18.17845047,-8.100302696,-9.216554642,0.1677966863,2024-06-05 18:49:29.178450
18.21845047,-5.884549141,-5.976672649,1.002592683,2024-06-05 18:49:29.218450
18.25845047,-8.035696983,-5.94078064,-0.9738788009,2024-06-05 18:49:29.258450
18.29845047,-8.816654205,-6.785147667,-0.6804589629,2024-06-05 18:49:29.298450
18.33845047,-6.725327015,-7.013961315,-1.009771109,2024-06-05 18:49:29.338450
18.37845047,-6.725327015,-7.013961315,-1.009771109,2024-06-05 18:49:29.378450
18.41845047,-6.725327015,-7.013961315,-1.009771109,2024-06-05 18:49:29.418450
18.45845047,-9.237193108,-5.37188673,-1.256531,2024-06-05 18:49:29.458450
18.49845047,-8.632107735,-2.989532709,-1.56191504,2024-06-05 18:49:29.498450
18.53845047,-8.169993401,-3.16570425,-2.649452925,2024-06-05 18:49:29.538450
18.57845047,-6.069095612,-3.182454109,-1.154536963,2024-06-05 18:49:29.578450
18.61845047,-5.221138954,-2.350050926,0.1088734269,2024-06-05 18:49:29.618450
18.65845047,-4.650749683,-1.602592945,0.584446907,2024-06-05 18:49:29.658450
18.69845047,-4.650749683,-1.602592945,0.584446907,2024-06-05 18:49:29.698450
18.73845047,-5.823532104,-1.669592023,0.2910270393,2024-06-05 18:49:29.738450
18.77845047,-6.857231617,-2.279462576,-0.6119644046,2024-06-05 18:49:29.778450
18.81845047,-8.668000221,-3.369393349,-0.3903291821,2024-06-05 18:49:29.818450
18.85845047,-9.706484795,-4.871188641,0.05144568533,2024-06-05 18:49:29.858450
18.89845047,-8.923134804,-4.336990833,0.399900496,2024-06-05 18:49:29.898450
18.93845047,-8.923134804,-4.336990833,0.399900496,2024-06-05 18:49:29.938450
18.97845047,-8.016553879,-4.486841679,0.8575277925,2024-06-05 18:49:29.978450
19.01845047,-8.132605553,-6.256932259,0.704387188,2024-06-05 18:49:30.018450
19.05845047,-7.175776005,-6.769594193,-0.1438684613,2024-06-05 18:49:30.058450
19.09845047,-9.51745224,-8.542376518,-1.080359459,2024-06-05 18:49:30.098450
19.13845047,-9.561718941,-9.925727844,-1.299601793,2024-06-05 18:49:30.138450
19.17845047,-9.561718941,-9.925727844,-1.299601793,2024-06-05 18:49:30.178450
19.21845047,-9.561718941,-9.925727844,-1.299601793,2024-06-05 18:49:30.218450
19.25845047,-4.695316315,-8.295617104,0.3735794425,2024-06-05 18:49:30.258450
19.29845047,-6.53958416,-9.955637932,1.389332652,2024-06-05 18:49:30.298450
19.33845047,-7.070192814,-8.056035995,-0.9185447693,2024-06-05 18:49:30.338450
19.37845047,-7.344470024,-7.668099403,0.2024926096,2024-06-05 18:49:30.378450
19.41845047,-7.348059177,-6.054738522,0.132801652,2024-06-05 18:49:30.418450
19.45845047,-9.209376335,-7.42612505,-2.055434704,2024-06-05 18:49:30.458450
19.49845047,-9.209376335,-7.42612505,-2.055434704,2024-06-05 18:49:30.498450
19.53845047,-9.209376335,-7.42612505,-2.055434704,2024-06-05 18:49:30.538450
19.57845047,-7.155436993,-6.48933506,-1.85892415,2024-06-05 18:49:30.578450
19.61845047,-9.408279419,-6.358926296,-1.560718536,2024-06-05 18:49:30.618450
19.65845047,-10.4718895,-5.455635548,0.01794617064,2024-06-05 18:49:30.658450
19.69845047,-8.481359482,-4.802993298,-0.965503931,2024-06-05 18:49:30.698450
19.73845047,-4.157529354,-2.46371007,2.175075769,2024-06-05 18:49:30.738450
19.73845047,-8.481359482,-4.802993298,-0.965503931,2024-06-05 18:49:30.738450
19.81845047,-3.823132277,-2.01475668,0.8204390407,2024-06-05 18:49:30.818450
19.85845047,-4.241278172,-1.386939883,-0.08853443712,2024-06-05 18:49:30.858450
19.89845047,-6.407979012,-2.714059114,-0.03469592705,2024-06-05 18:49:30.898450
19.93845047,-7.02951479,-3.984946966,0.1893320978,2024-06-05 18:49:30.938450
19.97845047,-9.913763046,-4.987539768,0.3496512175,2024-06-05 18:49:30.978450
20.01845047,-10.6540432,-5.845067501,0.5952146053,2024-06-05 18:49:31.018450
20.05845047,-10.6540432,-5.845067501,0.5952146053,2024-06-05 18:49:31.058450
20.09845047,-8.726922989,-4.864010334,-0.2754737139,2024-06-05 18:49:31.098450
20.13845047,-8.453842163,-6.231807709,-0.7127620578,2024-06-05 18:49:31.138450
20.17845047,-9.366405487,-8.08953476,-0.7773682475,2024-06-05 18:49:31.178450
20.21845047,-9.828818321,-8.03928566,-1.309173107,2024-06-05 18:49:31.218450
20.25845047,-8.311170578,-7.750651836,-0.6346961856,2024-06-05 18:49:31.258450
20.29845047,-6.726523399,-8.202297211,-0.6263213158,2024-06-05 18:49:31.298450
20.33845047,-7.496713161,-9.868299484,-0.2120639086,2024-06-05 18:49:31.338450
20.37845047,-6.295516491,-9.322137833,0.4863412082,2024-06-05 18:49:31.378450
20.41845047,-6.070291996,-8.024929047,0.5306084156,2024-06-05 18:49:31.418450
20.45845047,-8.90518856,-7.334898949,-0.4839483798,2024-06-05 18:49:31.458450
20.49845047,-6.809075832,-5.959922791,-0.6478567123,2024-06-05 18:49:31.498450
20.53845047,-10.4599247,-6.222236156,-2.238485575,2024-06-05 18:49:31.538450
20.57845047,-10.70070267,-7.094419956,-0.4408775866,2024-06-05 18:49:31.578450
20.61845047,-9.366405487,-7.647760391,-2.733201742,2024-06-05 18:49:31.618450
20.65845047,-8.621339798,-4.534698009,-2.069791555,2024-06-05 18:49:31.658450
20.69845047,-8.471788406,-4.666303158,-0.1905284971,2024-06-05 18:49:31.698450
20.73845047,-5.242674351,-3.892823458,0.7342974544,2024-06-05 18:49:31.738450
20.77845047,-3.005086184,-2.64227438,1.266102314,2024-06-05 18:49:31.778450
20.81845047,-3.005086184,-2.64227438,1.266102314,2024-06-05 18:49:31.818450
20.85845047,-3.005086184,-2.64227438,1.266102314,2024-06-05 18:49:31.858450
20.89845047,-3.005086184,-2.64227438,1.266102314,2024-06-05 18:49:31.898450
20.93845047,-6.418746948,-3.978965044,0.0143569354,2024-06-05 18:49:31.938450
20.97845047,-7.641777992,-5.294120312,-0.176171571,2024-06-05 18:49:31.978450
21.01845047,-9.457332611,-4.856831551,-1.037288666,2024-06-05 18:49:32.018450
21.05845047,-9.659825325,-5.001896858,-0.3424727321,2024-06-05 18:49:32.058450
21.09845047,-8.236992836,-6.538387775,-1.256531,2024-06-05 18:49:32.098450
21.13845047,-9.776176453,-10.0839529,-0.6696912646,2024-06-05 18:49:32.138450
21.17845047,-8.924330711,-9.80608654,-0.5700899959,2024-06-05 18:49:32.178450
21.21845047,-11.5642128,-9.332905769,0.1666002721,2024-06-05 18:49:32.218450
21.25845047,-8.603393555,-7.851150036,0.2240280211,2024-06-05 18:49:32.258450
21.29845047,-7.485945702,-7.79372263,-0.2395813614,2024-06-05 18:49:32.298450
21.33845047,-6.504888535,-7.654938698,0.332901448,2024-06-05 18:49:32.338450
21.37845047,-6.247360706,-7.666903019,0.7845467329,2024-06-05 18:49:32.378450
21.41845047,-6.247360706,-7.666903019,0.7845467329,2024-06-05 18:49:32.418450
21.41845047,-7.723134041,-6.473781586,-0.499501735,2024-06-05 18:49:32.418450
21.49845047,-9.728020668,-7.366304398,-1.921137452,2024-06-05 18:49:32.498450
21.53845047,-11.99193001,-8.766405106,-1.711466432,2024-06-05 18:49:32.538450
21.57845047,-11.99193001,-8.766405106,-1.711466432,2024-06-05 18:49:32.578450
21.61845047,-11.99193001,-8.766405106,-1.711466432,2024-06-05 18:49:32.618450
21.65845047,-10.16291618,-6.494120598,-0.6311069727,2024-06-05 18:49:32.658450
21.69845047,-10.16291618,-6.494120598,-0.6311069727,2024-06-05 18:49:32.698450
21.73845047,-5.222335339,-2.485245466,-0.294616282,2024-06-05 18:49:32.738450
21.77845047,0.6239284873,-0.9690931439,1.200000525,2024-06-05 18:49:32.778450
21.81845047,0.6239284873,-0.9690931439,1.200000525,2024-06-05 18:49:32.818450
21.85845047,-9.291030884,-0.1701895148,0.256331116,2024-06-05 18:49:32.858450
21.89845047,-5.994618893,-5.600700378,-0.6059823632,2024-06-05 18:49:32.898450
21.93845047,-6.413960934,-5.172983646,-0.9305089116,2024-06-05 18:49:32.938450
21.97845047,-6.687041759,-4.039981842,0.1256231815,2024-06-05 18:49:32.978450
22.01845047,-7.501499176,-4.864010334,-0.3161516786,2024-06-05 18:49:33.018450
22.05845047,-7.074978352,-7.00439024,-0.1256231815,2024-06-05 18:49:33.058450
22.09845047,-7.074978352,-7.00439024,-0.1256231815,2024-06-05 18:49:33.098450
22.13845047,-10.1210413,-10.50060272,1.000199914,2024-06-05 18:49:33.138450
22.17845047,-12.62662601,-9.534201622,-0.9391828775,2024-06-05 18:49:33.178450
22.21845047,-9.622735977,-8.051250458,-0.1977069676,2024-06-05 18:49:33.218450
22.25845047,-6.099005699,-8.001000404,-0.2000997961,2024-06-05 18:49:33.258450
22.29845047,-6.099005699,-8.001000404,-0.2000997961,2024-06-05 18:49:33.298450
22.33845047,-6.43549633,-5.731109142,0.04187439755,2024-06-05 18:49:33.338450
22.37845047,-10.54965591,-6.222236156,-0.442073971,2024-06-05 18:49:33.378450
22.41845047,-10.0779705,-6.87158823,-0.8024929166,2024-06-05 18:49:33.418450
22.45845047,-11.06112194,-7.668099403,-1.521237016,2024-06-05 18:49:33.458450
22.49845047,-9.832406998,-9.918548584,-1.554736495,2024-06-05 18:49:33.498450
22.53845047,-9.832406998,-9.918548584,-1.554736495,2024-06-05 18:49:33.538450
22.57845047,-9.832406998,-9.918548584,-1.554736495,2024-06-05 18:49:33.578450
22.61845047,-6.987640381,-3.514159203,0.1797607988,2024-06-05 18:49:33.618450
22.65845047,-2.849552631,-0.4504488707,-0.03469592705,2024-06-05 18:49:33.658450
22.69845047,-1.002592683,-2.157129526,-0.2587239444,2024-06-05 18:49:33.698450
22.73845047,-1.639681697,-0.1965105534,0.9954141974,2024-06-05 18:49:33.738450
22.77845047,-3.408874989,-1.111466169,0.7642077208,2024-06-05 18:49:33.778450
22.81845047,-7.797311783,-2.27078867,0.2694916427,2024-06-05 18:49:33.818450
22.85845047,-9.782157898,-5.454439163,-0.537786901,2024-06-05 18:49:33.858450
22.89845047,-10.57627583,-7.802097321,-0.6828517914,2024-06-05 18:49:33.898450
22.93845047,-7.573283672,-6.580561161,-1.04685986,2024-06-05 18:49:33.938450
22.97845047,-8.108677864,-7.022336483,-0.7390831113,2024-06-05 18:49:33.978450
23.01845047,-8.108677864,-7.022336483,-0.7390831113,2024-06-05 18:49:34.018450
23.05845047,-11.47807121,-6.610471725,-0.8814560175,2024-06-05 18:49:34.058450
23.09845047,-11.47807121,-6.610471725,-0.8814560175,2024-06-05 18:49:34.098450
23.13845047,-9.38435173,-8.864510536,-0.05264209956,2024-06-05 18:49:34.138450
23.17845047,-9.003593445,-9.21535778,-0.06101697683,2024-06-05 18:49:34.178450
23.21845047,-8.284849167,-7.444071293,0.08135596663,2024-06-05 18:49:34.218450
23.25845047,-8.171190262,-7.496713161,0.4803591371,2024-06-05 18:49:34.258450
23.29845047,-7.039085865,-6.384050846,-0.2407777756,2024-06-05 18:49:34.298450
23.33845047,-7.039085865,-6.384050846,-0.2407777756,2024-06-05 18:49:34.338450
23.37845047,-7.039085865,-6.384050846,-0.2407777756,2024-06-05 18:49:34.378450
23.41845047,-12.69721413,-6.940980434,-2.800200701,2024-06-05 18:49:34.418450
23.41845047,-12.69721413,-6.940980434,-2.800200701,2024-06-05 18:49:34.418450
23.49845047,-8.847761154,-5.034199715,-1.597807288,2024-06-05 18:49:34.498450
23.53845047,-7.726723194,-5.040181637,-2.075773716,2024-06-05 18:49:34.538450
23.57845047,-6.578168392,-5.318048477,0.02871387079,2024-06-05 18:49:34.578450
23.61845047,-4.440181732,-2.230110645,1.36061883,2024-06-05 18:49:34.618450
23.65845047,-2.48045969,-0.9762716293,1.279262781,2024-06-05 18:49:34.658450
23.69845047,-0.9690931439,-0.02033899166,1.40010035,2024-06-05 18:49:34.698450
23.73845047,-3.376571894,-0.7067800164,-0.5318048596,2024-06-05 18:49:34.738450
23.77845047,-6.293123722,-3.346661568,-0.9173483849,2024-06-05 18:49:34.778450
23.81845047,-10.49820995,-5.973083496,-0.3867399693,2024-06-05 18:49:34.818450
23.85845047,-10.52572727,-7.638188839,-1.581057549,2024-06-05 18:49:34.858450
23.89845047,-10.68275642,-9.053842545,-0.9595218897,2024-06-05 18:49:34.898450
23.93845047,-9.738788605,-7.508677483,-1.432403445,2024-06-05 18:49:34.938450
23.97845047,-8.708976746,-6.873981476,-1.280459166,2024-06-05 18:49:34.978450
24.01845047,-9.726823807,-7.769794464,0.5976074338,2024-06-05 18:49:35.018450
24.05845047,-9.726823807,-7.769794464,0.5976074338,2024-06-05 18:49:35.058450
24.09845047,-8.548358917,-9.052646637,-0.6681957245,2024-06-05 18:49:35.098450
24.09845047,-8.548358917,-9.052646637,-0.6681957245,2024-06-05 18:49:35.098450
24.17845047,-7.951947689,-7.377072334,0.2994019389,2024-06-05 18:49:35.178450
24.21845047,-8.736495018,-6.806683064,-0.1654038578,2024-06-05 18:49:35.218450
24.25845047,-8.736495018,-6.806683064,-0.1654038578,2024-06-05 18:49:35.258450
24.29845047,-8.736495018,-6.806683064,-0.1654038578,2024-06-05 18:49:35.298450
24.33845047,-11.39312553,-8.028517723,-0.8228318691,2024-06-05 18:49:35.338450
24.37845047,-7.374679565,-8.424829483,-0.3412763178,2024-06-05 18:49:35.378450
24.41845047,-6.973283291,-4.266402721,-4.447360039,2024-06-05 18:49:35.418450
24.45845047,-10.11864853,-3.766901016,-3.218346357,2024-06-05 18:49:35.458450
24.49845047,-6.177968979,-4.071088791,0.09451649338,2024-06-05 18:49:35.498450
24.53845047,-6.177968979,-4.071088791,0.09451649338,2024-06-05 18:49:35.538450
24.57845047,-0.9667003751,0.03469592705,1.229013562,2024-06-05 18:49:35.578450
24.61845047,-1.131805062,-0.5653043389,1.274477124,2024-06-05 18:49:35.618450
24.65845047,-5.338387489,-0.8431708813,0.4959124923,2024-06-05 18:49:35.658450
24.69845047,-6.004190445,-2.560918331,-0.16181463,2024-06-05 18:49:35.698450
24.73845047,-10.31396294,-4.346562386,-0.499501735,2024-06-05 18:49:35.738450
24.77845047,-9.652647018,-6.333801746,-1.063609719,2024-06-05 18:49:35.778450
24.81845047,-7.057032108,-8.33150959,-1.504487276,2024-06-05 18:49:35.818450
24.85845047,-9.259924889,-9.922138214,-1.079162955,2024-06-05 18:49:35.858450
24.89845047,-9.259924889,-9.922138214,-1.079162955,2024-06-05 18:49:35.898450
24.93845047,-9.259924889,-9.922138214,-1.079162955,2024-06-05 18:49:35.938450
24.97845047,-9.259924889,-9.922138214,-1.079162955,2024-06-05 18:49:35.978450
25.01845047,-10.10309505,-9.332905769,-0.2383849621,2024-06-05 18:49:36.018450
25.05845047,-7.51346302,-6.479763508,0.4923232496,2024-06-05 18:49:36.058450
25.09845047,-7.393822193,-7.684848785,0.1208375469,2024-06-05 18:49:36.098450
25.13845047,-6.923034191,-7.018746853,-0.180957213,2024-06-05 18:49:36.138450
25.17845047,-9.601201057,-7.433303356,-0.4576273263,2024-06-05 18:49:36.178450
25.21845047,-9.731609344,-7.445267677,-1.572682738,2024-06-05 18:49:36.218450
25.25845047,-9.770194054,-8.878867149,-1.558325768,2024-06-05 18:49:36.258450
25.29845047,-9.759127617,-7.853542805,-1.607378602,2024-06-05 18:49:36.298450
25.33845047,-8.808279037,-5.591129303,-1.272084355,2024-06-05 18:49:36.338450
25.37845047,-7.832007408,-5.030610561,-1.276870012,2024-06-05 18:49:36.378450
25.41845047,-4.274777889,-3.101098061,-0.2036890239,2024-06-05 18:49:36.418450
25.45845047,-2.948854923,-1.093519926,0.4815555513,2024-06-05 18:49:36.458450
25.49845047,-5.751448154,-0.5868397355,0.2383849621,2024-06-05 18:49:36.498450
25.53845047,-3.207578659,-1.778764486,0.5497509837,2024-06-05 18:49:36.538450
25.57845047,-3.207578659,-1.778764486,0.5497509837,2024-06-05 18:49:36.578450
25.61845047,-3.697509289,-2.547757864,0.0466600433,2024-06-05 18:49:36.618450
25.65845047,-3.697509289,-2.547757864,0.0466600433,2024-06-05 18:49:36.658450
25.69845047,-9.614361763,-7.295417309,-0.7893323898,2024-06-05 18:49:36.698450
25.73845047,-9.395118713,-8.165207863,-1.030110121,2024-06-05 18:49:36.738450
25.77845047,-9.369994164,-8.750851631,-1.882852316,2024-06-05 18:49:36.778450
25.81845047,-9.311369896,-8.108677864,-1.079162955,2024-06-05 18:49:36.818450
25.85845047,-9.039485931,-7.992625713,-0.280259341,2024-06-05 18:49:36.858450
25.89845047,-8.630910873,-7.843971729,0.280259341,2024-06-05 18:49:36.898450
25.93845047,-10.88883877,-7.662117004,-0.1112662554,2024-06-05 18:49:36.938450
25.97845047,-8.614161491,-7.686045647,0.1438684613,2024-06-05 18:49:36.978450
26.01845047,-8.614161491,-7.686045647,0.1438684613,2024-06-05 18:49:37.018450
26.05845047,-7.895716667,-7.984251022,0.08614161611,2024-06-05 18:49:37.058450
26.09845047,-8.361419678,-8.372187614,-0.6000002623,2024-06-05 18:49:37.098450
26.13845047,-10.17846966,-7.727920055,-1.001396298,2024-06-05 18:49:37.138450
26.17845047,-11.30548859,-6.985247612,-1.837388635,2024-06-05 18:49:37.178450
26.21845047,-9.271888733,-7.512266636,-2.283051968,2024-06-05 18:49:37.218450
26.25845047,-8.980861664,-5.654539108,-0.560518682,2024-06-05 18:49:37.258450
26.29845047,-6.034399509,-3.729812384,-1.582253933,2024-06-05 18:49:37.298450
26.33845047,-5.33240509,-4.078267097,-1.7883358,2024-06-05 18:49:37.338450
26.37845047,-5.398207664,-1.300798178,0.7378866673,2024-06-05 18:49:37.378450
26.41845047,-4.619643211,-1.297209024,1.044467092,2024-06-05 18:49:37.418450
26.45845047,-3.02662158,-1.057627559,1.440778375,2024-06-05 18:49:37.458450
26.49845047,-1.620539188,0.1989033818,0.9269196987,2024-06-05 18:49:37.498450
26.53845047,-1.620539188,0.1989033818,0.9269196987,2024-06-05 18:49:37.538450
26.57845047,-9.232108116,-4.816154003,-0.2718844712,2024-06-05 18:49:37.578450
26.61845047,-9.865906715,-7.799704552,-1.75722909,2024-06-05 18:49:37.618450
26.65845047,-8.822636604,-7.19970417,-1.310369492,2024-06-05 18:49:37.658450
26.69845047,-9.688538551,-8.349455833,-0.3017947674,2024-06-05 18:49:37.698450
26.73845047,-9.688538551,-8.349455833,-0.3017947674,2024-06-05 18:49:37.738450
26.77845047,-9.263513565,-8.202297211,-0.9499505758,2024-06-05 18:49:37.778450
26.81845047,-9.263513565,-8.202297211,-0.9499505758,2024-06-05 18:49:37.818450
26.85845047,-10.4228363,-7.724330425,0.1450648755,2024-06-05 18:49:37.858450
26.89845047,-9.401101112,-6.290730953,-0.1725823283,2024-06-05 18:49:37.898450
26.93845047,-7.633403301,-6.981658459,0.5210371017,2024-06-05 18:49:37.938450
26.97845047,-6.532405853,-7.737491131,-0.3293122053,2024-06-05 18:49:37.978450
27.01845047,-6.576972008,-7.402196884,-0.5988038778,2024-06-05 18:49:38.018450
27.05845047,-8.370990753,-6.485745907,-0.7199404836,2024-06-05 18:49:38.058450
27.09845047,-8.471788406,-5.180161953,-0.8012964725,2024-06-05 18:49:38.098450
27.13845047,-10.12223816,-6.142076492,-1.414457321,2024-06-05 18:49:38.138450
27.17845047,-9.505488396,-8.575876236,-1.435992718,2024-06-05 18:49:38.178450
27.21845047,-9.132805824,-6.162415504,-1.470688581,2024-06-05 18:49:38.218450
27.25845047,-8.241778374,-4.313062668,-0.6478567123,2024-06-05 18:49:38.258450
27.29845047,-8.241778374,-4.313062668,-0.6478567123,2024-06-05 18:49:38.298450
27.33845047,-2.848356247,0.2060818523,0.9834501147,2024-06-05 18:49:38.338450
27.37845047,-1.811067581,-0.931705296,0.6191428304,2024-06-05 18:49:38.378450
27.41845047,-3.824328899,-1.179661512,0.88504529,2024-06-05 18:49:38.418450
27.45845047,-7.396214962,-3.515355587,0.5736792088,2024-06-05 18:49:38.458450
27.49845047,-8.207082748,-4.992325306,-0.6720840335,2024-06-05 18:49:38.498450
27.53845047,-9.410672188,-6.453442574,-0.4289134443,2024-06-05 18:49:38.538450
27.57845047,-9.410672188,-6.453442574,-0.4289134443,2024-06-05 18:49:38.578450
27.61845047,-9.410672188,-6.453442574,-0.4289134443,2024-06-05 18:49:38.618450
27.65845047,-9.410672188,-6.453442574,-0.4289134443,2024-06-05 18:49:38.658450
27.69845047,-9.616754532,-7.434499741,-1.008574724,2024-06-05 18:49:38.698450
27.73845047,-8.754440308,-7.66451025,-0.446859628,2024-06-05 18:49:38.738450
27.77845047,-8.683553696,-8.8034935,0.3831507266,2024-06-05 18:49:38.778450
27.81845047,-7.842775345,-8.191529274,-0.09810572863,2024-06-05 18:49:38.818450
27.85845047,-7.179365158,-7.307381153,0.3424727321,2024-06-05 18:49:38.858450
27.89845047,-7.601997375,-6.942176819,-0.6634100676,2024-06-05 18:49:38.898450
27.93845047,-11.03958607,-7.102795124,-0.494716078,2024-06-05 18:49:38.938450
27.97845047,-11.03958607,-7.102795124,-0.494716078,2024-06-05 18:49:38.978450
27.97845047,-10.51017475,-6.828517437,-1.795514345,2024-06-05 18:49:38.978450
28.05845047,-9.319745064,-7.876275063,-1.105484009,2024-06-05 18:49:39.058450
28.09845047,-8.069195747,-6.393621922,-2.679363251,2024-06-05 18:49:39.098450
28.13845047,-9.240781784,-4.341776848,-1.095912814,2024-06-05 18:49:39.138450
28.17845047,-8.399704933,-5.701199055,-2.132004976,2024-06-05 18:49:39.178450
28.21845047,-4.262813568,-3.524926901,-0.2156531364,2024-06-05 18:49:39.218450
28.25845047,-2.127219439,-0.6370890141,0.7402794957,2024-06-05 18:49:39.258450
28.29845047,-3.70588398,-1.336690545,1.042074203,2024-06-05 18:49:39.298450
28.33845047,-3.70588398,-1.336690545,1.042074203,2024-06-05 18:49:39.338450
28.37845047,-3.70588398,-1.336690545,1.042074203,2024-06-05 18:49:39.378450
28.41845047,-3.70588398,-1.336690545,1.042074203,2024-06-05 18:49:39.418450
28.45845047,-8.157731056,-5.71435976,0.05503492057,2024-06-05 18:49:39.458450
28.49845047,-10.11027431,-7.834400654,-1.110269666,2024-06-05 18:49:39.498450
28.53845047,-10.33430195,-8.062017441,-1.339083314,2024-06-05 18:49:39.538450
28.57845047,-10.0839529,-8.292027473,-1.10309124,2024-06-05 18:49:39.578450
28.61845047,-9.804889679,-7.287042141,-1.335494161,2024-06-05 18:49:39.618450
28.65845047,-10.72463131,-8.233403206,0.2503490746,2024-06-05 18:49:39.658450
28.69845047,-10.72463131,-8.233403206,0.2503490746,2024-06-05 18:49:39.698450
28.73845047,-8.292027473,-6.791129589,-0.2730808854,2024-06-05 18:49:39.738450
28.77845047,-6.878767014,-7.893024445,0.05144568533,2024-06-05 18:49:39.778450
28.81845047,-6.313462734,-6.779165745,-0.5676971674,2024-06-05 18:49:39.818450
28.85845047,-8.693124771,-6.703791618,0.2312064916,2024-06-05 18:49:39.858450
28.89845047,-9.867103577,-7.782954693,-1.060020447,2024-06-05 18:49:39.898450
28.93845047,-10.98574829,-7.074978352,-0.614357233,2024-06-05 18:49:39.938450
28.97845047,-11.05513954,-8.208278656,-0.4073780477,2024-06-05 18:49:39.978450
29.01845047,-7.629814148,-8.305188179,-4.303491592,2024-06-05 18:49:40.018450
29.05845047,-9.625128746,-5.401797295,-0.4384847581,2024-06-05 18:49:40.058450
29.09845047,-8.054839134,-4.030410767,-0.3723830283,2024-06-05 18:49:40.098450
29.13845047,-3.02662158,-3.972982883,-0.147457689,2024-06-05 18:49:40.138450
29.17845047,-3.279363394,-1.366600871,0.7115656137,2024-06-05 18:49:40.178450
29.21845047,-3.279363394,-1.366600871,0.7115656137,2024-06-05 18:49:40.218450
29.25845047,-3.279363394,-1.366600871,0.7115656137,2024-06-05 18:49:40.258450
29.29845047,-3.279363394,-1.366600871,0.7115656137,2024-06-05 18:49:40.298450
29.33845047,-6.949355125,-2.722434044,0.1076770201,2024-06-05 18:49:40.338450
29.37845047,-9.037093163,-6.229414463,-0.3125624657,2024-06-05 18:49:40.378450
29.41845047,-9.586843491,-7.396214962,-0.4504488707,2024-06-05 18:49:40.418450
29.45845047,-8.707780838,-7.48833847,-1.110269666,2024-06-05 18:49:40.458450
29.49845047,-9.35204792,-7.383054256,-1.050449133,2024-06-05 18:49:40.498450
29.53845047,-10.25862885,-6.652346134,-0.6646065116,2024-06-05 18:49:40.538450
29.57845047,-9.505488396,-7.77936554,0.728315413,2024-06-05 18:49:40.578450
29.61845047,-8.423632622,-9.436993599,0.2132603228,2024-06-05 18:49:40.618450
29.65845047,-9.011968613,-7.615158081,0.699601531,2024-06-05 18:49:40.658450
29.69845047,-9.011968613,-7.615158081,0.699601531,2024-06-05 18:49:40.698450
29.73845047,-5.749055386,-7.059424877,-0.1989033818,2024-06-05 18:49:40.738450
29.77845047,-6.99003315,-7.641777992,-0.385543555,2024-06-05 18:49:40.778450
29.81845047,-9.743574142,-7.999804497,-0.7606185079,2024-06-05 18:49:40.818450
29.85845047,-9.381958008,-6.845267296,-1.015753269,2024-06-05 18:49:40.858450
29.89845047,-10.54247761,-7.191329479,-1.497308731,2024-06-05 18:49:40.898450
29.93845047,-9.544969559,-8.018946648,-0.94277215,2024-06-05 18:49:40.938450
29.97845047,-9.544969559,-8.018946648,-0.94277215,2024-06-05 18:49:40.978450
30.01845047,-7.076174736,-6.422336102,-3.14895463,2024-06-05 18:49:41.018450
30.05845047,-6.877570629,-3.87218523,0.05862415582,2024-06-05 18:49:41.058450
30.09845047,-6.877570629,-3.87218523,0.05862415582,2024-06-05 18:49:41.098450
30.13845047,-3.516551971,-0.8886345029,0.2216351926,2024-06-05 18:49:41.138450
30.17845047,-3.329612732,-0.7366902828,0.5796613097,2024-06-05 18:49:41.178450
30.21845047,-3.337987661,-0.6119644046,0.88504529,2024-06-05 18:49:41.218450
30.25845047,-5.637789249,-0.9978070259,0.728315413,2024-06-05 18:49:41.258450
30.29845047,-5.637789249,-0.9978070259,0.728315413,2024-06-05 18:49:41.298450
30.33845047,-9.226125717,-7.191329479,-0.5832505226,2024-06-05 18:49:41.338450
30.37845047,-10.51854897,-7.362715244,-0.4133601189,2024-06-05 18:49:41.378450
30.41845047,-9.458528519,-7.346862793,-0.4480560422,2024-06-05 18:49:41.418450
30.45845047,-9.410672188,-8.557929993,-1.229013562,2024-06-05 18:49:41.458450
30.49845047,-8.535198212,-7.18893671,-0.9269196987,2024-06-05 18:49:41.498450
30.53845047,-10.91396332,-7.806882858,1.075573802,2024-06-05 18:49:41.538450
30.57845047,-8.711369514,-8.650053978,0.1893320978,2024-06-05 18:49:41.578450
30.61845047,-8.767601013,-7.688438416,0.2886342406,2024-06-05 18:49:41.618450
30.65845047,-8.386544228,-6.767201424,0.04187439755,2024-06-05 18:49:41.658450
30.69845047,-5.843871117,-8.689535141,-0.2120639086,2024-06-05 18:49:41.698450
30.73845047,-8.415258408,-7.4010005,-0.6299105883,2024-06-05 18:49:41.738450
30.77845047,-8.415258408,-7.4010005,-0.6299105883,2024-06-05 18:49:41.778450
30.81845047,-8.415258408,-7.4010005,-0.6299105883,2024-06-05 18:49:41.818450
30.85845047,-8.415258408,-7.4010005,-0.6299105883,2024-06-05 18:49:41.858450
30.89845047,-8.43948555,-7.738687515,0.02632104978,2024-06-05 18:49:41.898450
30.93845047,-7.847560883,-5.873781204,-0.470787853,2024-06-05 18:49:41.938450
30.97845047,-6.59731102,-5.38624382,-0.804885745,2024-06-05 18:49:41.978450
31.01845047,-5.52293396,-3.538087368,-0.6179464459,2024-06-05 18:49:42.018450
31.05845047,-2.923730135,-0.3867399693,0.3640081584,2024-06-05 18:49:42.058450
31.09845047,-6.55394125,-0.7247261405,0.05383851007,2024-06-05 18:49:42.098450
31.13845047,-4.345366001,-1.249352574,-0.2515454888,2024-06-05 18:49:42.138450
31.17845047,-3.033800125,-0.613160789,1.38574338,2024-06-05 18:49:42.178450
31.21845047,-5.794818401,-2.500798702,-0.1390828192,2024-06-05 18:49:42.218450
31.25845047,-7.156633377,-5.648557186,-0.8371888399,2024-06-05 18:49:42.258450
31.29845047,-12.38225937,-8.140980721,-0.5916253924,2024-06-05 18:49:42.298450
31.33845047,-9.801301003,-7.816454411,-0.6780661345,2024-06-05 18:49:42.338450
31.37845047,-10.90678501,-8.236992836,0.1160518974,2024-06-05 18:49:42.378450
31.41845047,-9.826425552,-7.804490089,-0.7785646915,2024-06-05 18:49:42.418450
31.45845047,-9.687342644,-9.305388451,-0.6311069727,2024-06-05 18:49:42.458450
31.49845047,-7.471588612,-7.490731239,-0.2479562461,2024-06-05 18:49:42.498450
31.53845047,-9.468100548,-8.404490471,0.3053839803,2024-06-05 18:49:42.538450
31.57845047,-9.468100548,-8.404490471,0.3053839803,2024-06-05 18:49:42.578450
31.61845047,-9.468100548,-8.404490471,0.3053839803,2024-06-05 18:49:42.618450
31.65845047,-8.38175869,-7.877471447,-0.4384847581,2024-06-05 18:49:42.658450
31.69845047,-8.201100349,-8.052446365,-0.3675973713,2024-06-05 18:49:42.698450
31.73845047,-11.16431236,-7.349255562,-1.391725421,2024-06-05 18:49:42.738450
31.77845047,-9.940084457,-7.550551891,-0.7187440991,2024-06-05 18:49:42.778450
31.81845047,-12.58594799,-9.579665184,-2.27078867,2024-06-05 18:49:42.818450
31.85845047,-12.58594799,-9.579665184,-2.27078867,2024-06-05 18:49:42.858450
31.89845047,-3.375375509,-2.89980197,-1.604985833,2024-06-05 18:49:42.898450
31.93845047,-3.889234066,-3.432803154,-0.1977069676,2024-06-05 18:49:42.938450
31.97845047,-6.895516872,-1.660020709,-0.1869392693,2024-06-05 18:49:42.978450
32.01845047,-5.537290573,-1.856531262,0.8754739761,2024-06-05 18:49:43.018450
32.05845047,-2.49481678,-0.4839483798,0.9583254457,2024-06-05 18:49:43.058450
32.09845047,-3.073281527,-0.5258227587,0.832403183,2024-06-05 18:49:43.098450
32.13845047,-6.703791618,-2.234896421,0.2036890239,2024-06-05 18:49:43.138450
32.17845047,-7.13509798,-4.427021027,-0.3903291821,2024-06-05 18:49:43.178450
32.21845047,-9.701699257,-6.403193474,-0.4372883439,2024-06-05 18:49:43.218450
32.25845047,-9.595218658,-7.260721207,-0.6442674994,2024-06-05 18:49:43.258450
32.29845047,-9.98913765,-9.241978645,-0.8443672657,2024-06-05 18:49:43.298450
32.33845047,-9.850353241,-6.687041759,0.03230310604,2024-06-05 18:49:43.338450
32.37845047,-10.25025368,-7.027122021,-1.439581871,2024-06-05 18:49:43.378450
32.41845047,-8.652446747,-9.534201622,0.1450648755,2024-06-05 18:49:43.418450
32.45845047,-8.652446747,-9.534201622,0.1450648755,2024-06-05 18:49:43.458450
32.49845047,-8.652446747,-9.534201622,0.1450648755,2024-06-05 18:49:43.498450
32.53845047,-8.652446747,-9.534201622,0.1450648755,2024-06-05 18:49:43.538450
32.57845047,-8.652446747,-9.534201622,0.1450648755,2024-06-05 18:49:43.578450
32.61845047,-8.652446747,-9.534201622,0.1450648755,2024-06-05 18:49:43.618450
32.65845047,-9.486045837,-6.890730858,-0.195314154,2024-06-05 18:49:43.658450
32.69845047,-10.91755199,-8.342276573,-0.994217813,2024-06-05 18:49:43.698450
32.73845047,-11.01565838,-9.82762146,-0.8395816684,2024-06-05 18:49:43.738450
32.77845047,-11.01565838,-9.82762146,-0.8395816684,2024-06-05 18:49:43.778450
32.81845047,-6.315855503,-5.040181637,-1.160519004,2024-06-05 18:49:43.818450
32.85845047,-4.644767761,-5.664110184,-2.711666346,2024-06-05 18:49:43.858450
32.89845047,-4.562215328,0.2970091105,0.8479565382,2024-06-05 18:49:43.898450
32.93845047,-5.164608479,-0.375972271,-0.3101696372,2024-06-05 18:49:43.938450
32.97845047,-4.67587471,-2.394318104,1.351047516,2024-06-05 18:49:43.978450
33.01845047,-4.67587471,-2.394318104,1.351047516,2024-06-05 18:49:44.018450
33.05845047,-5.196911812,-1.808674812,0.9463613629,2024-06-05 18:49:44.058450
33.09845047,-5.240281582,-3.636492252,0.3687937856,2024-06-05 18:49:44.098450
33.13845047,-6.278467655,-5.528915882,-0.5593222976,2024-06-05 18:49:44.138450
33.17845047,-8.801100731,-5.99940443,-0.385543555,2024-06-05 18:49:44.178450
33.21845047,-11.71406364,-8.123034477,-0.5066801906,2024-06-05 18:49:44.218450
33.25845047,-9.1423769,-9.457332611,-1.131805062,2024-06-05 18:49:44.258450
33.29845047,-9.223732948,-8.301599503,-0.3113660514,2024-06-05 18:49:44.298450
33.33845047,-10.30798054,-7.217650414,-0.7211369276,2024-06-05 18:49:44.338450
33.37845047,-7.934001446,-7.60319376,0.4959124923,2024-06-05 18:49:44.378450
33.41845047,-7.934001446,-7.60319376,0.4959124923,2024-06-05 18:49:44.418450
33.45845047,-7.934001446,-7.60319376,0.4959124923,2024-06-05 18:49:44.458450
33.49845047,-7.934001446,-7.60319376,0.4959124923,2024-06-05 18:49:44.498450
33.53845047,-7.816454411,-7.439285755,-0.1390828192,2024-06-05 18:49:44.538450
33.57845047,-8.731708527,-7.720741272,-0.6900302172,2024-06-05 18:49:44.578450
33.61845047,-10.51974583,-7.001997471,-0.4145565331,2024-06-05 18:49:44.618450
33.65845047,-10.05763149,-7.007979393,-1.649253011,2024-06-05 18:49:44.658450
33.69845047,-10.4730854,-8.414061546,-1.162911773,2024-06-05 18:49:44.698450
33.73845047,-8.149355888,-5.938387394,-0.7295117974,2024-06-05 18:49:44.738450
33.77845047,-8.149355888,-5.938387394,-0.7295117974,2024-06-05 18:49:44.778450
33.81845047,-7.111169815,-4.163511276,-2.716451883,2024-06-05 18:49:44.818450
33.85845047,-5.414957523,-0.6466603279,0.7247261405,2024-06-05 18:49:44.858450
33.89845047,-4.83409977,-2.565704107,-0.1989033818,2024-06-05 18:49:44.898450
33.93845047,-4.141676903,-2.140379906,0.3412763178,2024-06-05 18:49:44.938450
33.97845047,-4.290330887,-0.4528416991,1.195214868,2024-06-05 18:49:44.978450
34.01845047,-3.971786499,-1.490130305,0.6478567123,2024-06-05 18:49:45.018450
34.05845047,-3.971786499,-1.490130305,0.6478567123,2024-06-05 18:49:45.058450
34.09845047,-6.654738903,-5.506184101,-0.3161516786,2024-06-05 18:49:45.098450
34.13845047,-10.30558777,-7.10159874,-0.5425725579,2024-06-05 18:49:45.138450
34.17845047,-8.817850113,-9.930513382,-2.418246269,2024-06-05 18:49:45.178450
34.21845047,-9.053842545,-11.01446152,-0.1929213256,2024-06-05 18:49:45.218450
34.25845047,-9.053842545,-11.01446152,-0.1929213256,2024-06-05 18:49:45.258450
34.29845047,-9.053842545,-11.01446152,-0.1929213256,2024-06-05 18:49:45.298450
34.33845047,-9.053842545,-11.01446152,-0.1929213256,2024-06-05 18:49:45.338450
34.37845047,-7.360322475,-10.43599701,0.9750752449,2024-06-05 18:49:45.378450
34.41845047,-4.601696968,-8.257331848,-0.8910273314,2024-06-05 18:49:45.418450
34.45845047,-6.17557621,-8.761619568,-1.263709426,2024-06-05 18:49:45.458450
34.49845047,-6.805486679,-8.06441021,-0.8120641708,2024-06-05 18:49:45.498450
34.53845047,-6.805486679,-8.06441021,-0.8120641708,2024-06-05 18:49:45.538450
34.57845047,-7.564908981,-9.826425552,-1.376172066,2024-06-05 18:49:45.578450
34.61845047,-7.381857872,-5.489434242,2.592025042,2024-06-05 18:49:45.618450
34.65845047,-7.902894974,-6.653542519,3.335594654,2024-06-05 18:49:45.658450
34.69845047,-9.330513,-5.854638577,-3.975375652,2024-06-05 18:49:45.698450
34.73845047,-8.962615967,-5.380261898,-0.2515454888,2024-06-05 18:49:45.738450
34.77845047,-8.962615967,-5.380261898,-0.2515454888,2024-06-05 18:49:45.778450
34.81845047,-6.039185047,-3.430410385,-0.1280160099,2024-06-05 18:49:45.818450
34.85845047,-5.495416164,-2.55254364,0.3257229924,2024-06-05 18:49:45.858450
34.89845047,-3.171686411,-0.3029911816,1.296012521,2024-06-05 18:49:45.898450
34.93845047,-3.652045488,-0.9125627279,1.116251707,2024-06-05 18:49:45.938450
34.97845047,-3.419642687,-0.446859628,1.079162955,2024-06-05 18:49:45.978450
35.01845047,-6.736094952,-1.87567389,-0.1196411327,2024-06-05 18:49:46.018450
35.05845047,-6.736094952,-1.87567389,-0.1196411327,2024-06-05 18:49:46.058450
35.09845047,-8.98803997,-5.402993679,0.3508476317,2024-06-05 18:49:46.098450
35.13845047,-8.98803997,-5.402993679,0.3508476317,2024-06-05 18:49:46.138450
35.17845047,-9.861121178,-5.866602898,-1.470688581,2024-06-05 18:49:46.178450
35.21845047,-12.30209923,-5.424529076,0.8515457511,2024-06-05 18:49:46.218450
35.25845047,-11.52951717,-6.053542137,-2.539083958,2024-06-05 18:49:46.258450
35.29845047,-11.52951717,-6.053542137,-2.539083958,2024-06-05 18:49:46.298450
35.33845047,-9.511469841,-7.830811024,-1.075573802,2024-06-05 18:49:46.338450
35.37845047,-9.052646637,-6.089434624,0.8072785139,2024-06-05 18:49:46.378450
35.41845047,-7.28943491,-4.540679932,-0.8994022012,2024-06-05 18:49:46.418450
35.45845047,-7.97467947,-5.501398563,-0.8515457511,2024-06-05 18:49:46.458450
35.49845047,-8.458627701,-6.156433582,-0.03469592705,2024-06-05 18:49:46.498450
35.53845047,-9.795318604,-7.365108013,-0.4480560422,2024-06-05 18:49:46.538450
35.57845047,-10.41206837,-9.821640015,-0.6828517914,2024-06-05 18:49:46.578450
35.61845047,-10.41206837,-9.821640015,-0.6828517914,2024-06-05 18:49:46.618450
35.65845047,-9.371191025,-6.541976929,1.58703959,2024-06-05 18:49:46.658450
35.69845047,-9.371191025,-6.541976929,1.58703959,2024-06-05 18:49:46.698450
35.73845047,-8.184350967,-6.84646368,0.9583254457,2024-06-05 18:49:46.738450
35.77845047,-9.026325226,-4.217350006,0.1148554832,2024-06-05 18:49:46.778450
35.81845047,-5.652146339,-3.085544825,0.4911268353,2024-06-05 18:49:46.818450
35.85845047,-4.022035599,-1.917548299,0.3975076675,2024-06-05 18:49:46.858450
35.89845047,-5.267798901,-1.00737834,1.111466169,2024-06-05 18:49:46.898450
35.93845047,-4.201796532,-1.467099428,1.639681697,2024-06-05 18:49:46.938450
35.97845047,-4.201796532,-1.467099428,1.639681697,2024-06-05 18:49:46.978450
36.01845047,-7.059424877,-2.758326292,1.100698471,2024-06-05 18:49:47.018450
36.05845047,-7.800900936,-5.634200096,0.7917252183,2024-06-05 18:49:47.058450
36.09845047,-9.015557289,-6.829713821,0.6669993401,2024-06-05 18:49:47.098450
36.13845047,-7.6896348,-6.291927338,0.456430912,2024-06-05 18:49:47.138450
36.17845047,-8.201100349,-7.808079243,1.443171144,2024-06-05 18:49:47.178450
36.21845047,-9.16750145,-7.597211838,1.660020709,2024-06-05 18:49:47.218450
36.25845047,-7.326523781,-8.03928566,0.9173483849,2024-06-05 18:49:47.258450
36.29845047,-7.326523781,-8.03928566,0.9173483849,2024-06-05 18:49:47.298450
36.33845047,-9.181859016,-11.93091297,2.263610125,2024-06-05 18:49:47.338450
36.37845047,-7.863114357,-8.276473999,0.5988038778,2024-06-05 18:49:47.378450
36.41845047,-6.114559174,-7.633403301,1.402493119,2024-06-05 18:49:47.418450
36.45845047,-6.114559174,-7.633403301,1.402493119,2024-06-05 18:49:47.458450
36.49845047,-6.966104984,-8.465806961,0.4504488707,2024-06-05 18:49:47.498450
36.53845047,-6.966104984,-8.465806961,0.4504488707,2024-06-05 18:49:47.538450
36.57845047,-9.749555588,-8.851349831,0.16181463,2024-06-05 18:49:47.578450
36.61845047,-8.972486496,-6.183950901,2.348854542,2024-06-05 18:49:47.618450
36.65845047,-11.27797127,-7.365108013,-1.124626637,2024-06-05 18:49:47.658450
36.69845047,-7.914859295,-7.600800991,-0.5306084156,2024-06-05 18:49:47.698450
36.73845047,-7.914859295,-7.600800991,-0.5306084156,2024-06-05 18:49:47.738450
36.77845047,-8.444271088,-5.171787262,-0.7151548862,2024-06-05 18:49:47.778450
36.81845047,-5.910870075,-4.036392689,2.013560295,2024-06-05 18:49:47.818450
36.85845047,-5.910870075,-4.036392689,2.013560295,2024-06-05 18:49:47.858450
36.89845047,-3.402892828,-1.115055323,2.000100613,2024-06-05 18:49:47.898450
36.93845047,-5.841478348,-0.613160789,0.9906286001,2024-06-05 18:49:47.938450
36.97845047,-5.260620594,-3.927519321,-0.1016949639,2024-06-05 18:49:47.978450
37.01845047,-5.079663277,-0.8742775917,1.918744683,2024-06-05 18:49:48.018450
37.05845047,-9.204590797,-1.248156071,0.2431706041,2024-06-05 18:49:48.058450
37.09845047,-7.784151077,-4.885545731,-0.470787853,2024-06-05 18:49:48.098450
37.13845047,-5.609075546,-5.145465851,0.5509474277,2024-06-05 18:49:48.138450
37.17845047,-11.54626656,-5.012664318,2.27078867,2024-06-05 18:49:48.178450
37.21845047,-12.34038448,-7.849953651,-0.4731806815,2024-06-05 18:49:48.218450
37.25845047,-4.533501625,-6.853642464,-0.1004985496,2024-06-05 18:49:48.258450
37.29845047,-12.19322586,-11.38594723,-1.534397483,2024-06-05 18:49:48.298450
37.33845047,-6.750451565,-7.672884941,-0.9005986452,2024-06-05 18:49:48.338450
37.37845047,-7.934001446,-6.786344051,0.9379864931,2024-06-05 18:49:48.378450
37.41845047,-7.934001446,-6.786344051,0.9379864931,2024-06-05 18:49:48.418450
37.45845047,-7.934001446,-6.786344051,0.9379864931,2024-06-05 18:49:48.458450
37.49845047,-7.934001446,-6.786344051,0.9379864931,2024-06-05 18:49:48.498450
37.53845047,-5.622235775,-10.62413216,1.156929731,2024-06-05 18:49:48.538450
37.57845047,-6.86082077,-10.25025368,2.28903389,2024-06-05 18:49:48.578450
37.61845047,-9.311369896,-10.49701405,1.753639936,2024-06-05 18:49:48.618450
37.65845047,-9.311369896,-10.49701405,1.753639936,2024-06-05 18:49:48.658450
37.69845047,-9.311369896,-10.49701405,1.753639936,2024-06-05 18:49:48.698450
37.73845047,-7.019943237,-6.708577156,2.754737139,2024-06-05 18:49:48.738450
37.77845047,-5.302495003,-8.735298157,3.129812002,2024-06-05 18:49:48.778450
37.81845047,-2.479263306,-6.504888535,-0.5401797295,2024-06-05 18:49:48.818450
37.85845047,-4.708476543,-1.028913736,2.518744946,2024-06-05 18:49:48.858450
37.89845047,-4.708476543,-1.028913736,2.518744946,2024-06-05 18:49:48.898450
37.93845047,-4.327419758,-0.1929213256,4.985146999,2024-06-05 18:49:48.938450
37.97845047,-7.226025105,-3.285345554,3.153740168,2024-06-05 18:49:48.978450
38.01845047,-6.73848772,-2.606382132,1.174875975,2024-06-05 18:49:49.018450
38.05845047,-1.640878081,-3.168097258,3.176471949,2024-06-05 18:49:49.058450
38.09845047,-5.33599472,-5.55882597,3.419642687,2024-06-05 18:49:49.098450
38.13845047,-9.516255379,-8.114660263,5.188536644,2024-06-05 18:49:49.138450
38.17845047,-9.516255379,-8.114660263,5.188536644,2024-06-05 18:49:49.178450
38.21845047,-9.516255379,-8.114660263,5.188536644,2024-06-05 18:49:49.218450
38.25845047,-9.516255379,-8.114660263,5.188536644,2024-06-05 18:49:49.258450
38.29845047,-9.516255379,-8.114660263,5.188536644,2024-06-05 18:49:49.298450
38.33845047,-6.697809696,-9.002396584,4.435395718,2024-06-05 18:49:49.338450
38.37845047,-6.697809696,-9.002396584,4.435395718,2024-06-05 18:49:49.378450
38.41845047,-8.525627136,-4.923830986,3.710669756,2024-06-05 18:49:49.418450
38.45845047,-8.525627136,-4.923830986,3.710669756,2024-06-05 18:49:49.458450
38.49845047,-6.940980434,-4.152743816,3.849453449,2024-06-05 18:49:49.498450
38.53845047,-4.62203598,-5.158626556,4.15633297,2024-06-05 18:49:49.538450
38.57845047,-4.313062668,-2.690130949,5.539683342,2024-06-05 18:49:49.578450
38.61845047,-7.971090317,-6.684648991,5.252245903,2024-06-05 18:49:49.618450
38.65845047,-7.902894974,-6.929016113,6.332605362,2024-06-05 18:49:49.658450
38.69845047,-7.902894974,-6.929016113,6.332605362,2024-06-05 18:49:49.698450
38.73845047,-7.484749317,-9.003593445,4.422235489,2024-06-05 18:49:49.738450
38.77845047,-9.594022751,-11.90788174,6.361319065,2024-06-05 18:49:49.778450
38.81845047,-4.731208801,-10.70907784,0.5724828243,2024-06-05 18:49:49.818450
38.85845047,-1.475773335,-5.096413136,6.429514408,2024-06-05 18:49:49.858450
38.89845047,0.142672047,-1.717448473,8.166404724,2024-06-05 18:49:49.898450
38.93845047,2.558525562,2.154736757,9.74477005,2024-06-05 18:49:49.938450
38.97845047,0.3436691463,-0.3520440459,7.634599686,2024-06-05 18:49:49.978450
39.01845047,9.046664238,1.191625714,20.0730896,2024-06-05 18:49:50.018450
39.05845047,-0.7881359458,-1.673181176,21.81596184,2024-06-05 18:49:50.058450
39.09845047,3.463909864,-1.80508554,13.99681568,2024-06-05 18:49:50.098450
39.13845047,3.463909864,-1.80508554,13.99681568,2024-06-05 18:49:50.138450
39.17845047,3.463909864,-1.80508554,13.99681568,2024-06-05 18:49:50.178450
39.21845047,3.463909864,-1.80508554,13.99681568,2024-06-05 18:49:50.218450
39.25845047,4.327419758,-4.219742775,11.65184975,2024-06-05 18:49:50.258450
39.29845047,1.534397483,-3.002693415,7.263113976,2024-06-05 18:49:50.298450
39.33845047,1.553540111,-1.701895118,7.634599686,2024-06-05 18:49:50.338450
39.37845047,4.680660248,0.1304088384,4.957629204,2024-06-05 18:49:50.378450
39.41845047,5.754140377,0.970289588,4.581357956,2024-06-05 18:49:50.418450
39.45845047,5.599503994,2.088934183,3.087937593,2024-06-05 18:49:50.458450
39.49845047,5.534897804,4.279563427,1.904387712,2024-06-05 18:49:50.498450
39.53845047,6.541976929,5.156233788,7.420143127,2024-06-05 18:49:50.538450
39.57845047,5.25942421,4.806582451,5.532505035,2024-06-05 18:49:50.578450
39.61845047,2.884248495,5.722734451,3.02662158,2024-06-05 18:49:50.618450
39.65845047,3.282952785,6.563811779,4.075874329,2024-06-05 18:49:50.658450
39.69845047,2.079362869,6.138487339,5.049753189,2024-06-05 18:49:50.698450
39.73845047,6.016154289,7.4010005,2.43021059,2024-06-05 18:49:50.738450
39.77845047,8.411668777,8.158926964,7.487142086,2024-06-05 18:49:50.778450
39.81845047,8.393722534,8.114660263,5.810371399,2024-06-05 18:49:50.818450
39.85845047,4.564608097,6.744469643,2.746362209,2024-06-05 18:49:50.858450
39.89845047,6.26530695,7.821239948,4.286741734,2024-06-05 18:49:50.898450
39.93845047,6.273681641,7.636992455,3.626920938,2024-06-05 18:49:50.938450
39.97845047,4.260420799,7.715955734,4.210171223,2024-06-05 18:49:50.978450
40.01845047,4.472484589,6.80309391,2.182254314,2024-06-05 18:49:51.018450
40.05845047,5.08684206,7.983054638,4.357329845,2024-06-05 18:49:51.058450
40.09845047,5.08684206,7.983054638,4.357329845,2024-06-05 18:49:51.098450
40.13845047,5.08684206,7.983054638,4.357329845,2024-06-05 18:49:51.138450
40.17845047,5.08684206,7.983054638,4.357329845,2024-06-05 18:49:51.178450
40.21845047,-5.72512722,3.614956856,-1.293619752,2024-06-05 18:49:51.218450
40.25845047,-10.15095139,0.6251249313,1.445564032,2024-06-05 18:49:51.258450
40.29845047,-19.64776611,2.647060156,-2.142772675,2024-06-05 18:49:51.298450
40.33845047,-5.38624382,7.165008068,5.75025177,2024-06-05 18:49:51.338450
40.37845047,-4.389633179,8.17956543,7.605587006,2024-06-05 18:49:51.378450
40.41845047,-10.87926769,5.909673691,2.414657116,2024-06-05 18:49:51.418450
40.45845047,-8.694320679,5.163412094,2.635095835,2024-06-05 18:49:51.458450
40.49845047,-8.694320679,5.163412094,2.635095835,2024-06-05 18:49:51.498450
40.53845047,0.3699901998,-0.1232303679,19.06092644,2024-06-05 18:49:51.538450
40.57845047,6.637989044,6.267699718,17.03211212,2024-06-05 18:49:51.578450
40.61845047,-3.77049017,5.011467934,7.397411346,2024-06-05 18:49:51.618450
40.65845047,3.06610322,6.445067883,8.557929993,2024-06-05 18:49:51.658450
40.69845047,7.297810078,6.908677101,10.64566803,2024-06-05 18:49:51.698450
40.73845047,7.297810078,6.908677101,10.64566803,2024-06-05 18:49:51.738450
40.77845047,7.297810078,6.908677101,10.64566803,2024-06-05 18:49:51.778450
40.81845047,-3.642474174,0.4396811724,10.79402256,2024-06-05 18:49:51.818450
40.85845047,-3.278167009,1.716252089,11.42662525,2024-06-05 18:49:51.858450
40.89845047,-6.829713821,2.906980515,4.889134884,2024-06-05 18:49:51.898450
40.93845047,-8.684749603,3.637688637,5.314459324,2024-06-05 18:49:51.938450
40.93845047,-8.684749603,3.637688637,5.314459324,2024-06-05 18:49:51.938450
41.01845047,-8.456234932,3.848257065,3.873381615,2024-06-05 18:49:52.018450
41.05845047,-5.845067501,2.082952023,1.294816136,2024-06-05 18:49:52.058450
41.09845047,-2.915355206,2.476870537,4.73001194,2024-06-05 18:49:52.098450
41.13845047,-4.134498596,2.498405933,7.47398138,2024-06-05 18:49:52.138450
41.17845047,6.019743443,10.22034359,30.84916687,2024-06-05 18:49:52.178450
41.21845047,0.907777071,6.570990086,18.75195312,2024-06-05 18:49:52.218450
41.25845047,-1.691127419,3.931108475,7.187740326,2024-06-05 18:49:52.258450
41.29845047,-1.691127419,3.931108475,7.187740326,2024-06-05 18:49:52.298450
41.33845047,2.081755638,1.487737536,9.014361382,2024-06-05 18:49:52.338450
41.37845047,-2.143969059,-2.193022013,10.4659071,2024-06-05 18:49:52.378450
41.41845047,1.498505235,3.005086184,9.649057388,2024-06-05 18:49:52.418450
41.45845047,-0.6681957245,3.133401155,7.41535759,2024-06-05 18:49:52.458450
41.49845047,-2.708076954,2.727219582,8.236992836,2024-06-05 18:49:52.498450
41.53845047,0.1606182158,3.472284794,5.380261898,2024-06-05 18:49:52.538450
41.57845047,0.6780661345,3.769293785,11.99193001,2024-06-05 18:49:52.578450
41.61845047,0.6780661345,3.769293785,11.99193001,2024-06-05 18:49:52.618450
41.65845047,0.6780661345,3.769293785,11.99193001,2024-06-05 18:49:52.658450
41.69845047,0.6780661345,3.769293785,11.99193001,2024-06-05 18:49:52.698450
41.73845047,0.8216354847,3.607479334,8.027321815,2024-06-05 18:49:52.738450
41.77845047,3.448356628,4.425824642,10.66002464,2024-06-05 18:49:52.778450
41.81845047,0.2934198678,2.740380049,11.82174015,2024-06-05 18:49:52.818450
41.85845047,0.2934198678,2.740380049,11.82174015,2024-06-05 18:49:52.858450
41.89845047,0.2934198678,2.740380049,11.82174015,2024-06-05 18:49:52.898450
41.93845047,-2.371586323,3.145365477,8.462217331,2024-06-05 18:49:52.938450
41.97845047,-3.764508247,2.381157637,8.056035995,2024-06-05 18:49:52.978450
42.01845047,-4.049553394,1.891227245,8.597412109,2024-06-05 18:49:53.018450
42.05845047,-1.667199135,1.159322619,12.60150146,2024-06-05 18:49:53.058450
42.09845047,-1.667199135,1.159322619,12.60150146,2024-06-05 18:49:53.098450
42.13845047,-6.538387775,0.861117065,3.878167391,2024-06-05 18:49:53.138450
42.17845047,-5.83669281,3.517748356,9.35204792,2024-06-05 18:49:53.178450
42.21845047,-2.226521492,-2.45533514,6.887141705,2024-06-05 18:49:53.218450
42.25845047,-5.362315655,2.752344131,11.6084795,2024-06-05 18:49:53.258450
42.29845047,-5.362315655,2.752344131,11.6084795,2024-06-05 18:49:53.298450
42.33845047,-6.331408501,3.885644913,9.601201057,2024-06-05 18:49:53.338450
42.37845047,-3.959822416,3.312862873,11.52592754,2024-06-05 18:49:53.378450
42.41845047,-4.618446827,1.797907114,9.813264847,2024-06-05 18:49:53.418450
42.45845047,-2.084148407,5.052145958,6.671488762,2024-06-05 18:49:53.458450
42.49845047,-5.347958565,3.882055521,5.902495384,2024-06-05 18:49:53.498450
42.53845047,-8.738887787,3.456731319,9.855138779,2024-06-05 18:49:53.538450
42.57845047,-8.738887787,3.456731319,9.855138779,2024-06-05 18:49:53.578450
42.61845047,-8.738887787,3.456731319,9.855138779,2024-06-05 18:49:53.618450
42.65845047,-8.738887787,3.456731319,9.855138779,2024-06-05 18:49:53.658450
42.69845047,-4.433002949,3.291327477,1.834995866,2024-06-05 18:49:53.698450
42.69845047,-4.433002949,3.291327477,1.834995866,2024-06-05 18:49:53.698450
42.77845047,-8.416454315,1.068395257,4.629214287,2024-06-05 18:49:53.778450
42.81845047,-2.479263306,4.665106773,10.09591675,2024-06-05 18:49:53.818450
42.85845047,-5.314459324,1.98813653,9.166305542,2024-06-05 18:49:53.858450
42.89845047,-3.442374468,2.906980515,6.93619442,2024-06-05 18:49:53.898450
42.93845047,-1.396511078,3.618546009,8.662017822,2024-06-05 18:49:53.938450
42.97845047,-4.014857292,1.63489604,9.670592308,2024-06-05 18:49:53.978450
43.01845047,-2.371586323,2.825624466,9.609575272,2024-06-05 18:49:54.018450
43.05845047,-1.922333837,2.352443695,9.027522087,2024-06-05 18:49:54.058450
43.09845047,0.399900496,3.215953588,9.474081993,2024-06-05 18:49:54.098450
43.13845047,0.3843471408,3.36700058,7.60319376,2024-06-05 18:49:54.138450
43.17845047,-1.66600275,2.454138756,6.527620316,2024-06-05 18:49:54.178450
43.21845047,-1.478166223,0.9149555564,6.041578293,2024-06-05 18:49:54.218450
43.25845047,2.297408819,2.97039032,10.6420784,2024-06-05 18:49:54.258450
43.29845047,2.297408819,2.97039032,10.6420784,2024-06-05 18:49:54.298450
43.33845047,2.297408819,2.97039032,10.6420784,2024-06-05 18:49:54.338450
43.37845047,2.297408819,2.97039032,10.6420784,2024-06-05 18:49:54.378450
43.37845047,1.750050664,1.718644857,10.4718895,2024-06-05 18:49:54.378450
43.45845047,0.9918249846,0.7307082415,8.711369514,2024-06-05 18:49:54.458450
43.49845047,0.9918249846,0.7307082415,8.711369514,2024-06-05 18:49:54.498450
43.53845047,0.8778668046,2.711666346,10.31515884,2024-06-05 18:49:54.538450
43.57845047,1.26490593,3.18006134,10.91874886,2024-06-05 18:49:54.578450
43.61845047,1.978565216,2.940479994,10.53170967,2024-06-05 18:49:54.618450
43.65845047,1.370190024,2.224128723,10.00588703,2024-06-05 18:49:54.658450
43.69845047,1.370190024,2.224128723,10.00588703,2024-06-05 18:49:54.698450
43.73845047,1.160519004,2.468495607,8.193922043,2024-06-05 18:49:54.738450
43.77845047,0.7677969933,2.887837887,8.145766258,2024-06-05 18:49:54.778450
43.81845047,1.595414519,3.120240688,9.411869049,2024-06-05 18:49:54.818450
43.85845047,0.3915255964,1.807478428,9.816853523,2024-06-05 18:49:54.858450
43.89845047,1.363011599,2.948854923,10.69113159,2024-06-05 18:49:54.898450
43.93845047,1.36899364,3.296113253,8.318348885,2024-06-05 18:49:54.938450
43.97845047,1.36899364,3.296113253,8.318348885,2024-06-05 18:49:54.978450
44.01845047,1.36899364,3.296113253,8.318348885,2024-06-05 18:49:55.018450
44.05845047,-0.157028988,2.474477768,7.519444942,2024-06-05 18:49:55.058450
44.09845047,-0.2431706041,2.770290375,9.06700325,2024-06-05 18:49:55.098450
44.13845047,3.218346357,2.657827854,10.54726315,2024-06-05 18:49:55.138450
44.17845047,-0.0239282269,2.727219582,11.77627659,2024-06-05 18:49:55.178450
44.21845047,-0.0239282269,2.727219582,11.77627659,2024-06-05 18:49:55.218450
44.25845047,-0.0239282269,2.727219582,11.77627659,2024-06-05 18:49:55.258450
44.29845047,-0.0239282269,2.727219582,11.77627659,2024-06-05 18:49:55.298450
44.33845047,-0.2359921336,3.803989887,10.36062336,2024-06-05 18:49:55.338450
44.37845047,-0.03469592705,3.400500059,9.100502968,2024-06-05 18:49:55.378450
44.41845047,0.6215356588,3.498605728,8.877671242,2024-06-05 18:49:55.418450
44.45845047,0.7307082415,3.689134359,7.118348122,2024-06-05 18:49:55.458450
44.49845047,0.05742774159,4.057928085,6.525227547,2024-06-05 18:49:55.498450
44.53845047,-0.9954141974,3.735794306,7.003193855,2024-06-05 18:49:55.538450
44.57845047,0.04187439755,4.826921463,9.108877182,2024-06-05 18:49:55.578450
44.61845047,-1.004985452,4.724030018,8.511270523,2024-06-05 18:49:55.618450
44.65845047,-0.8228318691,4.438984871,8.638090134,2024-06-05 18:49:55.658450
44.69845047,-0.8228318691,4.438984871,8.638090134,2024-06-05 18:49:55.698450
44.73845047,0.8730811477,5.557629585,7.751848221,2024-06-05 18:49:55.738450
44.77845047,0.8730811477,5.557629585,7.751848221,2024-06-05 18:49:55.778450
44.81845047,0.5760720372,5.303691387,10.34028435,2024-06-05 18:49:55.818450
44.85845047,0.5006981492,5.247459888,8.168797493,2024-06-05 18:49:55.858450
44.89845047,0.3053839803,5.339583874,8.74965477,2024-06-05 18:49:55.898450
44.93845047,1.11984098,5.446064472,7.464410305,2024-06-05 18:49:55.938450
44.97845047,1.11984098,5.446064472,7.464410305,2024-06-05 18:49:55.978450
45.01845047,0.1316052526,6.447460651,2.855534792,2024-06-05 18:49:56.018450
45.05845047,0.1316052526,6.447460651,2.855534792,2024-06-05 18:49:56.058450
45.09845047,0.1316052526,6.447460651,2.855534792,2024-06-05 18:49:56.098450
45.09845047,-0.665802896,4.850849628,5.315655708,2024-06-05 18:49:56.098450
45.17845047,0.6275177598,5.037788868,8.69551754,2024-06-05 18:49:56.178450
45.21845047,0.6275177598,5.037788868,8.69551754,2024-06-05 18:49:56.218450
45.25845047,-0.8802596331,5.467599869,7.345666409,2024-06-05 18:49:56.258450
45.29845047,-0.8802596331,5.467599869,7.345666409,2024-06-05 18:49:56.298450
45.33845047,-0.8120641708,5.00787878,10.47069263,2024-06-05 18:49:56.338450
45.37845047,-0.3352942765,5.38624382,9.291030884,2024-06-05 18:49:56.378450
45.41845047,-0.04187439755,4.435395718,10.66600704,2024-06-05 18:49:56.418450
45.45845047,-0.8682954907,3.981357813,10.68395329,2024-06-05 18:49:56.458450
45.49845047,-0.4528416991,3.765704632,8.228617668,2024-06-05 18:49:56.498450
45.53845047,-0.5964110494,3.601497173,8.421239853,2024-06-05 18:49:56.538450
45.57845047,-0.8539385796,3.726222992,7.853542805,2024-06-05 18:49:56.578450
45.61845047,-0.8132606149,3.778865099,8.51844883,2024-06-05 18:49:56.618450
45.65845047,-0.6287141442,3.77049017,8.908778191,2024-06-05 18:49:56.658450
45.69845047,-0.003589233849,4.199403763,11.25045395,2024-06-05 18:49:56.698450
45.73845047,-0.04785645381,2.897409201,14.88096428,2024-06-05 18:49:56.738450
45.77845047,0.6936194897,2.723630428,10.54128075,2024-06-05 18:49:56.778450
45.81845047,2.023131609,4.045963764,10.80957603,2024-06-05 18:49:56.818450
45.85845047,2.023131609,4.045963764,10.80957603,2024-06-05 18:49:56.858450
45.89845047,2.023131609,4.045963764,10.80957603,2024-06-05 18:49:56.898450
45.93845047,2.023131609,4.045963764,10.80957603,2024-06-05 18:49:56.938450
45.97845047,1.43359983,3.404089212,7.432106972,2024-06-05 18:49:56.978450
46.01845047,1.152144074,3.298506021,6.575775623,2024-06-05 18:49:57.018450
46.05845047,1.152144074,3.298506021,6.575775623,2024-06-05 18:49:57.058450
46.09845047,1.146162033,3.880859137,7.157829762,2024-06-05 18:49:57.098450
46.13845047,1.660020709,4.802993298,6.272485256,2024-06-05 18:49:57.138450
46.17845047,0.856331408,5.00787878,8.313563347,2024-06-05 18:49:57.178450
46.21845047,0.6696912646,5.264209747,8.677571297,2024-06-05 18:49:57.218450
46.25845047,0.9870393276,5.356333256,8.393722534,2024-06-05 18:49:57.258450
46.29845047,0.9870393276,5.356333256,8.393722534,2024-06-05 18:49:57.298450
46.33845047,0.3544368446,5.615057468,7.89182806,2024-06-05 18:49:57.338450
46.37845047,0.3388835192,5.227120876,9.421440125,2024-06-05 18:49:57.378450
46.41845047,0.5341976285,5.407779217,8.688339233,2024-06-05 18:49:57.418450
46.45845047,0.6900302172,5.701199055,8.30279541,2024-06-05 18:49:57.458450
46.49845047,0.6900302172,5.701199055,8.30279541,2024-06-05 18:49:57.498450
46.53845047,0.2874378264,4.718048096,8.189136505,2024-06-05 18:49:57.538450
46.57845047,0.2874378264,4.718048096,8.189136505,2024-06-05 18:49:57.578450
46.61845047,-0.256331116,4.403990269,9.528220177,2024-06-05 18:49:57.618450
46.65845047,-0.07417750359,5.15144825,7.864310741,2024-06-05 18:49:57.658450
46.69845047,-0.584446907,5.394618511,7.997411251,2024-06-05 18:49:57.698450
46.73845047,0.1737787426,6.358926296,7.281060219,2024-06-05 18:49:57.738450
46.77845047,-0.001196411322,6.212665081,6.391229153,2024-06-05 18:49:57.778450
46.81845047,-0.001196411322,6.212665081,6.391229153,2024-06-05 18:49:57.818450
46.85845047,-0.001196411322,6.212665081,6.391229153,2024-06-05 18:49:57.858450
46.89845047,-0.001196411322,6.212665081,6.391229153,2024-06-05 18:49:57.898450
46.93845047,1.008574724,5.963512421,8.203493118,2024-06-05 18:49:57.938450
46.97845047,0.8970093727,5.841478348,7.935198307,2024-06-05 18:49:57.978450
47.01845047,0.1280160099,5.773283005,7.632206917,2024-06-05 18:49:58.018450
47.05845047,0.4935196638,5.610271931,8.831010818,2024-06-05 18:49:58.058450
47.09845047,0.4253242314,5.410171986,8.264510155,2024-06-05 18:49:58.098450
47.13845047,0.2192423791,5.369493961,8.178368568,2024-06-05 18:49:58.138450
47.17845047,0.6083751321,5.416153908,8.272885323,2024-06-05 18:49:58.178450
47.21845047,-0.152243346,5.098805904,7.046264648,2024-06-05 18:49:58.218450
47.25845047,0.3675973713,5.298905849,8.158926964,2024-06-05 18:49:58.258450
47.29845047,-0.7175477147,5.278566837,9.292227745,2024-06-05 18:49:58.298450
47.33845047,-0.6107679605,5.780461311,8.167600632,2024-06-05 18:49:58.338450
47.37845047,-0.6107679605,5.780461311,8.167600632,2024-06-05 18:49:58.378450
47.41845047,-0.6107679605,5.780461311,8.167600632,2024-06-05 18:49:58.418450
47.45845047,-1.677966833,5.224728107,6.058327675,2024-06-05 18:49:58.458450
47.49845047,-1.677966833,5.224728107,6.058327675,2024-06-05 18:49:58.498450
47.53845047,-1.821835399,3.735794306,6.526423931,2024-06-05 18:49:58.538450
47.57845047,-1.642074585,3.790829182,7.669295788,2024-06-05 18:49:58.578450
47.61845047,-1.642074585,3.790829182,7.669295788,2024-06-05 18:49:58.618450
47.65845047,-1.642074585,3.790829182,7.669295788,2024-06-05 18:49:58.658450
47.69845047,-0.6708876491,3.868596077,11.6084795,2024-06-05 18:49:58.698450
47.73845047,-0.08255238086,4.429413795,11.2253294,2024-06-05 18:49:58.738450
47.77845047,-0.2168495506,3.683152199,11.58694458,2024-06-05 18:49:58.778450
47.81845047,-1.231406331,2.751147747,10.80359459,2024-06-05 18:49:58.818450
47.85845047,-0.5521438122,3.646063566,9.916155815,2024-06-05 18:49:58.858450
47.89845047,0.3293122053,4.020839214,10.0707922,2024-06-05 18:49:58.898450
47.93845047,0.2910270393,3.588336706,10.5352993,2024-06-05 18:49:58.938450
47.97845047,0.4755735099,3.473481178,9.966405869,2024-06-05 18:49:58.978450
48.01845047,0.3161516786,3.36700058,9.855138779,2024-06-05 18:49:59.018450
48.05845047,0.5916253924,3.296113253,8.996415138,2024-06-05 18:49:59.058450
48.09845047,0.4911268353,3.499802113,6.372086525,2024-06-05 18:49:59.098450
48.13845047,1.212263823,3.999304056,8.30638504,2024-06-05 18:49:59.138450
48.17845047,1.083948612,3.625724554,9.85992527,2024-06-05 18:49:59.178450
48.21845047,1.135394335,3.115455151,10.24427223,2024-06-05 18:49:59.218450
48.25845047,1.135394335,3.115455151,10.24427223,2024-06-05 18:49:59.258450
48.29845047,1.135394335,3.115455151,10.24427223,2024-06-05 18:49:59.298450
48.33845047,1.621735573,3.972982883,8.553144455,2024-06-05 18:49:59.338450
48.37845047,1.621735573,3.972982883,8.553144455,2024-06-05 18:49:59.378450
48.41845047,0.9858429432,4.030410767,10.31157017,2024-06-05 18:49:59.418450
48.45845047,0.9858429432,4.030410767,10.31157017,2024-06-05 18:49:59.458450
48.49845047,0.9858429432,4.030410767,10.31157017,2024-06-05 18:49:59.498450
48.53845047,0.8826524615,4.338187218,10.2837534,2024-06-05 18:49:59.538450
48.57845047,1.97138679,5.441278458,6.988836765,2024-06-05 18:49:59.578450
48.61845047,1.201196909,5.060520649,9.035896301,2024-06-05 18:49:59.618450
48.65845047,0.6263213158,4.199403763,8.994022369,2024-06-05 18:49:59.658450
48.69845047,0.9858429432,4.774279594,8.467002869,2024-06-05 18:49:59.698450
48.73845047,0.1606182158,4.777868748,7.302595615,2024-06-05 18:49:59.738450
48.77845047,-0.9065806866,4.632803917,7.395018578,2024-06-05 18:49:59.778450
48.81845047,-0.2264208496,4.396811485,8.681160927,2024-06-05 18:49:59.818450
48.85845047,-1.518844128,2.948854923,11.81097221,2024-06-05 18:49:59.858450
48.89845047,-0.2120639086,4.619643211,6.857231617,2024-06-05 18:49:59.898450
48.93845047,0.5952146053,4.964807987,10.16052341,2024-06-05 18:49:59.938450
48.97845047,0.8335995674,4.568197727,8.462217331,2024-06-05 18:49:59.978450
49.01845047,1.333101273,6.047560215,8.977272034,2024-06-05 18:50:00.018450
49.05845047,1.333101273,6.047560215,8.977272034,2024-06-05 18:50:00.058450
49.09845047,0.0239282269,5.746662617,6.59731102,2024-06-05 18:50:00.098450
49.13845047,0.0239282269,5.746662617,6.59731102,2024-06-05 18:50:00.138450
49.17845047,-0.584446907,2.4158535,10.41924667,2024-06-05 18:50:00.178450
49.21845047,1.031306505,5.863013744,3.117847919,2024-06-05 18:50:00.218450
49.25845047,1.031306505,5.863013744,3.117847919,2024-06-05 18:50:00.258450
49.25845047,1.480558991,6.266503334,9.874281883,2024-06-05 18:50:00.258450
49.33845047,1.851745605,7.047461033,3.677170277,2024-06-05 18:50:00.338450
49.37845047,0.590429008,3.160918713,17.81187248,2024-06-05 18:50:00.378450
49.41845047,0.590429008,3.160918713,17.81187248,2024-06-05 18:50:00.418450
49.45845047,2.054238319,7.144669533,2.365604401,2024-06-05 18:50:00.458450
49.49845047,0.8192426562,5.316852093,7.625925541,2024-06-05 18:50:00.498450
49.53845047,-1.377368569,5.204090118,6.786344051,2024-06-05 18:50:00.538450
49.57845047,1.695913076,6.701398849,8.472985268,2024-06-05 18:50:00.578450
49.61845047,-4.316651821,4.802993298,6.107380867,2024-06-05 18:50:00.618450
49.65845047,-1.234995604,6.652346134,11.49003506,2024-06-05 18:50:00.658450
49.69845047,-3.61615324,5.210072041,5.341976643,2024-06-05 18:50:00.698450
49.73845047,-2.413460732,5.304887772,7.875078201,2024-06-05 18:50:00.738450
49.77845047,-2.413460732,5.304887772,7.875078201,2024-06-05 18:50:00.778450
49.81845047,-2.420639277,5.902495384,7.6896348,2024-06-05 18:50:00.818450
49.85845047,-1.909173369,5.443671703,8.349455833,2024-06-05 18:50:00.858450
49.89845047,-1.604985833,5.473581791,9.027522087,2024-06-05 18:50:00.898450
49.93845047,-2.690130949,5.044967651,8.240582466,2024-06-05 18:50:00.938450
49.97845047,-2.690130949,5.044967651,8.240582466,2024-06-05 18:50:00.978450
50.01845047,-2.690130949,5.044967651,8.240582466,2024-06-05 18:50:01.018450
50.05845047,-2.690130949,5.044967651,8.240582466,2024-06-05 18:50:01.058450
50.09845047,-0.3891327679,5.300102234,9.916155815,2024-06-05 18:50:01.098450
50.13845047,-0.7666005492,4.93579483,10.00708294,2024-06-05 18:50:01.138450
50.17845047,-1.231406331,4.639982224,8.95543766,2024-06-05 18:50:01.178450
50.21845047,-0.4372883439,4.464109898,6.919445038,2024-06-05 18:50:01.218450
50.25845047,-0.8778668046,3.77049017,7.412964344,2024-06-05 18:50:01.258450
50.29845047,-0.8778668046,3.77049017,7.412964344,2024-06-05 18:50:01.298450
50.33845047,1.479362607,5.866602898,6.428318024,2024-06-05 18:50:01.338450
50.37845047,-0.2898306549,4.660321236,10.48146057,2024-06-05 18:50:01.378450
50.41845047,0.537786901,4.04476738,10.99531937,2024-06-05 18:50:01.418450
50.45845047,0.8946165442,4.446163654,9.098110199,2024-06-05 18:50:01.458450
50.49845047,0.05144568533,3.961018801,7.962715626,2024-06-05 18:50:01.498450
50.53845047,1.85892415,5.172983646,8.679964066,2024-06-05 18:50:01.538450
50.57845047,2.027917147,5.127519608,9.460921288,2024-06-05 18:50:01.578450
50.61845047,1.89242363,4.644767761,9.967601776,2024-06-05 18:50:01.618450
50.65845047,1.89242363,4.644767761,9.967601776,2024-06-05 18:50:01.658450
50.69845047,1.89242363,4.644767761,9.967601776,2024-06-05 18:50:01.698450
50.73845047,0.7606185079,4.584947109,8.009375572,2024-06-05 18:50:01.738450
50.77845047,0.3568296731,5.254638672,6.78873682,2024-06-05 18:50:01.778450
50.81845047,1.036092162,5.837889194,6.091827393,2024-06-05 18:50:01.818450
50.85845047,0.08494520187,5.679663658,7.75424099,2024-06-05 18:50:01.858450
50.89845047,0.1052841991,5.471189022,8.08953476,2024-06-05 18:50:01.898450
50.93845047,0.2036890239,5.703591824,7.911269665,2024-06-05 18:50:01.938450
50.97845047,-0.08374879509,5.316852093,7.688438416,2024-06-05 18:50:01.978450
51.01845047,-0.08374879509,5.316852093,7.688438416,2024-06-05 18:50:02.018450
51.05845047,-0.08374879509,5.316852093,7.688438416,2024-06-05 18:50:02.058450
51.09845047,-0.08374879509,5.316852093,7.688438416,2024-06-05 18:50:02.098450
51.13845047,-0.7331010103,5.979065418,9.065806389,2024-06-05 18:50:02.138450
51.17845047,-0.4384847581,6.01376152,8.260921478,2024-06-05 18:50:02.178450
51.21845047,-0.1869392693,6.162415504,8.193922043,2024-06-05 18:50:02.218450
51.25845047,-0.08374879509,5.778068542,9.463314056,2024-06-05 18:50:02.258450
51.29845047,0.3484548032,5.956333637,8.012965202,2024-06-05 18:50:02.298450
51.33845047,0.2312064916,5.825924873,7.483552933,2024-06-05 18:50:02.338450
51.37845047,0.3819543123,5.894120216,7.878667831,2024-06-05 18:50:02.378450
51.41845047,0.09092725813,5.611468315,8.312366486,2024-06-05 18:50:02.418450
51.45845047,0.9786644578,5.975476265,8.167600632,2024-06-05 18:50:02.458450
51.49845047,1.079162955,5.835496426,7.439285755,2024-06-05 18:50:02.498450
51.53845047,1.420439363,5.949155331,7.018746853,2024-06-05 18:50:02.538450
51.57845047,1.325922847,5.662913799,7.340880871,2024-06-05 18:50:02.578450
51.61845047,0.5988038778,5.327619553,7.842775345,2024-06-05 18:50:02.618450
51.65845047,0.704387188,5.617450237,8.222636223,2024-06-05 18:50:02.658450
51.69845047,0.699601531,6.498906136,6.897909641,2024-06-05 18:50:02.698450
51.73845047,0.699601531,6.498906136,6.897909641,2024-06-05 18:50:02.738450
51.77845047,-0.03110669367,5.312066078,8.239385605,2024-06-05 18:50:02.778450
51.81845047,-0.8180462122,5.958726406,7.60319376,2024-06-05 18:50:02.818450
51.85845047,-0.8180462122,5.295316696,7.696813107,2024-06-05 18:50:02.858450
51.89845047,-0.8180462122,5.295316696,7.696813107,2024-06-05 18:50:02.898450
51.93845047,-0.4624129832,5.828317642,7.36151886,2024-06-05 18:50:02.938450
51.97845047,-1.712662816,5.339583874,6.385247231,2024-06-05 18:50:02.978450
52.01845047,-0.8599206209,4.985146999,8.567501068,2024-06-05 18:50:03.018450
52.05845047,-1.649253011,3.849453449,8.738887787,2024-06-05 18:50:03.058450
52.09845047,-1.759621978,3.512962818,7.7398839,2024-06-05 18:50:03.098450
52.13845047,-1.628913999,3.278167009,6.230610847,2024-06-05 18:50:03.138450
52.17845047,-1.473380566,3.196810961,6.748058796,2024-06-05 18:50:03.178450
52.21845047,-0.4384847581,3.701098442,8.532805443,2024-06-05 18:50:03.218450
52.25845047,1.383350611,4.539483547,11.91057396,2024-06-05 18:50:03.258450
52.29845047,1.161715388,4.706083775,11.42782211,2024-06-05 18:50:03.298450
52.33845047,2.408675194,5.690431118,10.34387302,2024-06-05 18:50:03.338450
52.37845047,2.408675194,5.690431118,10.34387302,2024-06-05 18:50:03.378450
52.41845047,2.408675194,5.690431118,10.34387302,2024-06-05 18:50:03.418450
52.45845047,2.693720102,5.115555763,9.202198029,2024-06-05 18:50:03.458450
52.49845047,2.393121719,4.749154568,9.383154869,2024-06-05 18:50:03.498450
52.53845047,1.775175333,3.839882135,10.40130138,2024-06-05 18:50:03.538450
52.57845047,2.044667006,3.450749397,9.469296455,2024-06-05 18:50:03.578450
52.61845047,2.715255499,3.675973892,8.357830048,2024-06-05 18:50:03.618450
52.65845047,3.135794163,3.443570852,6.388836384,2024-06-05 18:50:03.658450
52.69845047,3.135794163,3.443570852,6.388836384,2024-06-05 18:50:03.698450
52.73845047,3.135794163,3.443570852,6.388836384,2024-06-05 18:50:03.738450
52.77845047,4.01964283,4.085445404,11.95125198,2024-06-05 18:50:03.778450
52.81845047,2.740380049,3.443570852,10.15813065,2024-06-05 18:50:03.818450
52.85845047,3.400500059,3.934697628,6.792325974,2024-06-05 18:50:03.858450
52.89845047,3.570390463,4.570590496,5.034199715,2024-06-05 18:50:03.898450
52.93845047,5.402993679,5.66052103,7.49910593,2024-06-05 18:50:03.938450
52.97845047,2.533101797,4.43061018,9.107681274,2024-06-05 18:50:03.978450
53.01845047,0.7845467329,3.279363394,8.962615967,2024-06-05 18:50:04.018450
53.05845047,1.945065737,4.745565414,9.604789734,2024-06-05 18:50:04.058450
53.09845047,2.32851553,5.121537685,8.960223198,2024-06-05 18:50:04.098450
53.13845047,1.584646821,4.850849628,9.128020287,2024-06-05 18:50:04.138450
53.17845047,1.584646821,4.852046013,9.450154305,2024-06-05 18:50:04.178450
53.21845047,2.017149448,4.846064091,8.93390274,2024-06-05 18:50:04.218450
53.25845047,1.794317842,4.727619171,7.666903019,2024-06-05 18:50:04.258450
53.29845047,2.190629244,5.204090118,8.644071579,2024-06-05 18:50:04.298450
53.33845047,1.754836321,5.39701128,8.90518856,2024-06-05 18:50:04.338450
53.37845047,0.6804589629,5.159822941,8.568697929,2024-06-05 18:50:04.378450
53.41845047,0.7319046259,5.1765728,9.229715347,2024-06-05 18:50:04.418450
53.45845047,0.9523434043,5.252245903,9.522237778,2024-06-05 18:50:04.458450
53.49845047,0.9523434043,5.252245903,9.522237778,2024-06-05 18:50:04.498450
53.53845047,-0.07776673883,5.133502007,8.09671402,2024-06-05 18:50:04.538450
53.57845047,-0.07776673883,5.133502007,8.09671402,2024-06-05 18:50:04.578450
53.61845047,0.1438684613,5.028217793,8.139784813,2024-06-05 18:50:04.618450
53.65845047,0.7677969933,4.716851711,6.665506363,2024-06-05 18:50:04.658450
53.69845047,2.074577332,5.345565796,8.539983749,2024-06-05 18:50:04.698450
53.73845047,0.9535398483,4.570590496,6.187540054,2024-06-05 18:50:04.738450
53.77845047,1.168893814,4.795814991,7.954340458,2024-06-05 18:50:04.778450
53.81845047,1.015753269,4.531108856,7.760222912,2024-06-05 18:50:04.818450
53.85845047,1.5224334,5.229514122,7.143472672,2024-06-05 18:50:04.858450
53.89845047,1.233799219,5.424529076,8.143373489,2024-06-05 18:50:04.898450
53.93845047,1.922333837,6.088238239,8.138587952,2024-06-05 18:50:04.938450
53.97845047,1.260120273,6.236593246,7.406982422,2024-06-05 18:50:04.978450
54.01845047,0.9005986452,6.024828434,8.494520187,2024-06-05 18:50:05.018450
54.05845047,0.6792625189,6.049952984,7.907680511,2024-06-05 18:50:05.058450
54.09845047,0.6323033571,5.375475883,9.125627518,2024-06-05 18:50:05.098450
54.13845047,1.540379524,5.935994625,7.646564007,2024-06-05 18:50:05.138450
54.17845047,1.242174029,6.019743443,6.369693756,2024-06-05 18:50:05.178450
54.21845047,0.1881356835,6.170790672,6.488138676,2024-06-05 18:50:05.218450
54.25845047,0.7259225845,6.148058891,7.28943491,2024-06-05 18:50:05.258450
54.29845047,-0.2419741899,5.49421978,8.636893272,2024-06-05 18:50:05.298450
54.33845047,-0.5042873621,5.488237858,8.368597984,2024-06-05 18:50:05.338450
54.37845047,-0.6924230456,5.373083115,9.48484993,2024-06-05 18:50:05.378450
54.41845047,-0.6924230456,5.373083115,9.48484993,2024-06-05 18:50:05.418450
54.45845047,-0.08374879509,5.585147381,6.248557091,2024-06-05 18:50:05.458450
54.49845047,0.36161533,5.733502388,7.77936554,2024-06-05 18:50:05.498450
54.53845047,-0.4911268353,5.460421085,7.072585583,2024-06-05 18:50:05.538450
54.57845047,-0.4779663086,5.894120216,5.87258482,2024-06-05 18:50:05.578450
54.61845047,1.992922187,7.348059177,5.442475319,2024-06-05 18:50:05.618450
54.65845047,0.6382854581,6.146862507,12.01226902,2024-06-05 18:50:05.658450
54.69845047,0.6382854581,6.146862507,12.01226902,2024-06-05 18:50:05.698450
54.73845047,0.9391828775,7.025925636,7.157829762,2024-06-05 18:50:05.738450
54.77845047,0.9391828775,7.025925636,7.157829762,2024-06-05 18:50:05.778450
54.81845047,1.135394335,5.86181736,5.624628544,2024-06-05 18:50:05.818450
54.85845047,1.361815214,6.291927338,5.92642355,2024-06-05 18:50:05.858450
54.89845047,1.608574986,6.018547058,6.473781586,2024-06-05 18:50:05.898450
54.93845047,0.6888338327,5.455635548,7.582854748,2024-06-05 18:50:05.938450
54.97845047,1.83619225,5.747859001,7.572087288,2024-06-05 18:50:05.978450
55.01845047,0.8659027219,4.751547337,7.653742313,2024-06-05 18:50:06.018450
55.05845047,0.9678967595,4.810171604,7.859525204,2024-06-05 18:50:06.058450
55.09845047,2.367997169,5.387440205,9.818050385,2024-06-05 18:50:06.098450
55.13845047,-0.02153540403,4.352544308,7.832007408,2024-06-05 18:50:06.138450
55.17845047,1.736590981,3.886841297,9.954441071,2024-06-05 18:50:06.178450
55.21845047,1.736590981,3.886841297,9.954441071,2024-06-05 18:50:06.218450
55.25845047,-0.2084746659,4.012464523,8.183154106,2024-06-05 18:50:06.258450
55.29845047,-0.1316052526,5.230710506,4.755136967,2024-06-05 18:50:06.298450
55.33845047,-0.8479565382,5.73948431,9.061020851,2024-06-05 18:50:06.338450
55.37845047,0.5473581553,4.62203598,8.380561829,2024-06-05 18:50:06.378450
55.41845047,-0.004785645287,4.384847641,9.863513947,2024-06-05 18:50:06.418450
55.45845047,-0.3197409213,3.578765392,10.71506023,2024-06-05 18:50:06.458450
55.49845047,1.752443433,2.336890459,6.988836765,2024-06-05 18:50:06.498450
55.53845047,-0.01316052489,3.115455151,9.287442207,2024-06-05 18:50:06.538450
55.57845047,0.1208375469,2.505584478,11.85763264,2024-06-05 18:50:06.578450
55.61845047,1.808674812,3.323630571,9.895816803,2024-06-05 18:50:06.618450
55.65845047,0.1594218016,3.43758893,9.151947975,2024-06-05 18:50:06.658450
55.69845047,1.846959949,3.902394533,13.49133205,2024-06-05 18:50:06.698450
55.73845047,-0.1028913707,4.861617565,6.986443996,2024-06-05 18:50:06.738450
55.77845047,-2.073380709,1.793121457,12.3236351,2024-06-05 18:50:06.778450
55.81845047,-0.07537391037,4.202992916,9.07059288,2024-06-05 18:50:06.818450
55.85845047,0.4265206456,4.780261517,6.908677101,2024-06-05 18:50:06.858450
55.89845047,0.1244267747,4.970789909,5.738287926,2024-06-05 18:50:06.898450
55.93845047,0.1244267747,4.970789909,5.738287926,2024-06-05 18:50:06.938450
55.97845047,0.1244267747,4.970789909,5.738287926,2024-06-05 18:50:06.978450
56.01845047,0.1244267747,4.970789909,5.738287926,2024-06-05 18:50:07.018450
56.05845047,0.4983053207,5.168197632,7.438089371,2024-06-05 18:50:07.058450
56.09845047,-0.3209373355,4.761118889,9.48484993,2024-06-05 18:50:07.098450
56.13845047,-1.11984098,4.883152962,7.417750359,2024-06-05 18:50:07.138450
56.17845047,-1.843370795,5.456831932,5.858228207,2024-06-05 18:50:07.178450
56.21845047,-3.496212959,4.709673405,7.203293324,2024-06-05 18:50:07.218450
56.25845047,-4.254438877,4.065106392,9.72323513,2024-06-05 18:50:07.258450
56.29845047,-4.254438877,4.065106392,9.72323513,2024-06-05 18:50:07.298450
56.33845047,-5.277370453,2.26241374,6.471388817,2024-06-05 18:50:07.338450
56.37845047,-4.703691006,0.6466603279,4.366901398,2024-06-05 18:50:07.378450
56.41845047,0.6466603279,1.288834095,10.72104168,2024-06-05 18:50:07.418450
56.45845047,3.296113253,3.837489367,5.848656654,2024-06-05 18:50:07.458450
56.49845047,3.716651678,4.98275423,3.276970625,2024-06-05 18:50:07.498450
56.53845047,1.281655669,3.273381472,5.631807327,2024-06-05 18:50:07.538450
56.57845047,-2.213361025,0.2766701281,10.20837975,2024-06-05 18:50:07.578450
56.61845047,-4.903491974,2.694916487,8.672785759,2024-06-05 18:50:07.618450
56.65845047,-3.802793503,3.412464142,8.172386169,2024-06-05 18:50:07.658450
56.69845047,-5.212464809,3.798007727,10.65882874,2024-06-05 18:50:07.698450
56.73845047,-1.857727647,3.626920938,13.68425369,2024-06-05 18:50:07.738450
56.77845047,-1.336690545,1.434796333,11.92612743,2024-06-05 18:50:07.778450
56.81845047,1.43359983,0.4313062727,15.67986774,2024-06-05 18:50:07.818450
56.85845047,2.787040234,0.6948158741,16.49193192,2024-06-05 18:50:07.858450
56.89845047,2.787040234,0.6948158741,16.49193192,2024-06-05 18:50:07.898450
56.93845047,2.787040234,0.6948158741,16.49193192,2024-06-05 18:50:07.938450
56.97845047,-0.6011967063,-1.68275249,9.755537987,2024-06-05 18:50:07.978450
57.01845047,-2.165504456,-2.458924294,9.381958008,2024-06-05 18:50:08.018450
57.05845047,-1.165304661,-0.4372883439,9.922138214,2024-06-05 18:50:08.058450
57.09845047,-4.183850288,-1.668395638,10.24786091,2024-06-05 18:50:08.098450
57.13845047,-5.747859001,-2.316551447,8.236992836,2024-06-05 18:50:08.138450
57.17845047,-2.551347256,1.628913999,9.919745445,2024-06-05 18:50:08.178450
57.21845047,-2.551347256,1.628913999,9.919745445,2024-06-05 18:50:08.218450
57.25845047,-2.644667149,-1.559522152,8.895617485,2024-06-05 18:50:08.258450
57.29845047,-2.644667149,-1.559522152,8.895617485,2024-06-05 18:50:08.298450
57.33845047,-3.058924675,0.1100698411,10.38455105,2024-06-05 18:50:08.338450
57.37845047,-4.303491592,-1.842174292,10.03609657,2024-06-05 18:50:08.378450
57.41845047,-3.763311863,-1.680359721,9.713663101,2024-06-05 18:50:08.418450
57.45845047,-3.114258766,-1.354636669,8.707780838,2024-06-05 18:50:08.458450
57.49845047,0.5246263742,-0.1052841991,8.883653641,2024-06-05 18:50:08.498450
57.53845047,-3.337987661,-2.873480797,10.6480608,2024-06-05 18:50:08.538450
57.57845047,-3.337987661,-2.873480797,10.6480608,2024-06-05 18:50:08.578450
57.61845047,-3.337987661,-2.873480797,10.6480608,2024-06-05 18:50:08.618450
57.65845047,-3.337987661,-2.873480797,10.6480608,2024-06-05 18:50:08.658450
57.69845047,-3.337987661,-2.873480797,10.6480608,2024-06-05 18:50:08.698450
57.73845047,-3.337987661,-2.873480797,10.6480608,2024-06-05 18:50:08.738450
57.77845047,1.269691467,-0.3412763178,10.93430233,2024-06-05 18:50:08.778450
57.81845047,1.662413478,-1.044467092,7.641777992,2024-06-05 18:50:08.818450
57.85845047,-6.154040813,-2.595614433,6.419943333,2024-06-05 18:50:08.858450
57.89845047,-0.566500783,-0.614357233,9.123234749,2024-06-05 18:50:08.898450
57.93845047,-7.947162151,-3.070888758,4.272384644,2024-06-05 18:50:08.938450
57.97845047,-3.600300789,0.1148554832,9.735198975,2024-06-05 18:50:08.978450
58.01845047,-8.499305725,-2.914158821,9.3807621,2024-06-05 18:50:09.018450
58.05845047,-6.064310074,-2.787040234,7.168597698,2024-06-05 18:50:09.058450
58.09845047,-6.43549633,-5.274977684,7.77936554,2024-06-05 18:50:09.098450
58.13845047,-4.816154003,-3.75134778,12.49143124,2024-06-05 18:50:09.138450
58.17845047,-5.927619934,-6.219843388,7.755437374,2024-06-05 18:50:09.178450
58.21845047,-7.139883518,-7.157829762,2.999104023,2024-06-05 18:50:09.218450
58.25845047,-6.355337143,-7.917252064,4.985146999,2024-06-05 18:50:09.258450
58.29845047,0.6346961856,-9.494421005,7.094419956,2024-06-05 18:50:09.298450
58.33845047,-2.875873804,-11.55703449,5.950351715,2024-06-05 18:50:09.338450
58.37845047,-2.875873804,-11.55703449,5.950351715,2024-06-05 18:50:09.378450
58.41845047,-2.875873804,-11.55703449,5.950351715,2024-06-05 18:50:09.418450
58.45845047,-1.973779559,-7.166204929,1.205085278,2024-06-05 18:50:09.458450
58.49845047,0.1280160099,-8.87647438,1.588235974,2024-06-05 18:50:09.498450
58.53845047,-5.941977024,-5.993422508,4.005286217,2024-06-05 18:50:09.538450
58.57845047,-5.774479389,-2.339283228,7.944769382,2024-06-05 18:50:09.578450
58.61845047,-9.111269951,-5.784050465,-6.118148327,2024-06-05 18:50:09.618450
58.65845047,-9.887442589,-4.130908966,0.9750752449,2024-06-05 18:50:09.658450
58.69845047,-9.887442589,-4.130908966,0.9750752449,2024-06-05 18:50:09.698450
58.69845047,-14.1119709,-5.622235775,5.222335339,2024-06-05 18:50:09.698450
58.77845047,-8.995218277,-3.848257065,2.885445118,2024-06-05 18:50:09.778450
58.81845047,-9.807282448,-3.279363394,6.327819347,2024-06-05 18:50:09.818450
58.85845047,-8.379365921,-2.629113913,3.838685751,2024-06-05 18:50:09.858450
58.89845047,-8.379365921,-2.629113913,3.838685751,2024-06-05 18:50:09.898450
58.93845047,-10.40847969,-3.895216227,4.069892406,2024-06-05 18:50:09.938450
58.97845047,-3.951447487,-4.954040051,2.059023857,2024-06-05 18:50:09.978450
59.01845047,1.742872238,-3.128615618,-1.214656591,2024-06-05 18:50:10.018450
59.05845047,-7.506284714,-4.552644253,7.834400654,2024-06-05 18:50:10.058450
59.09845047,-9.45972538,-7.312166691,2.209771633,2024-06-05 18:50:10.098450
59.13845047,-10.59900761,-7.611568928,3.717848301,2024-06-05 18:50:10.138450
59.17845047,-10.59900761,-7.611568928,3.717848301,2024-06-05 18:50:10.178450
59.21845047,-10.59900761,-7.611568928,3.717848301,2024-06-05 18:50:10.218450
59.25845047,-7.950751305,-2.619542599,4.247260094,2024-06-05 18:50:10.258450
59.29845047,-7.950751305,-2.619542599,4.247260094,2024-06-05 18:50:10.298450
59.29845047,-7.774580002,-3.528516054,2.554936409,2024-06-05 18:50:10.298450
59.37845047,-4.678267479,-4.913063049,3.577569008,2024-06-05 18:50:10.378450
59.41845047,-7.97467947,-8.825029373,3.826721668,2024-06-05 18:50:10.418450
59.45845047,-7.97467947,-8.825029373,3.826721668,2024-06-05 18:50:10.458450
59.49845047,-9.745966911,-9.830014229,3.58355093,2024-06-05 18:50:10.498450
59.53845047,-6.688238621,-6.924230576,2.479263306,2024-06-05 18:50:10.538450
59.57845047,-8.209475517,-5.062913418,3.993321896,2024-06-05 18:50:10.578450
59.61845047,-7.088139057,-8.288438797,1.218245864,2024-06-05 18:50:10.618450
59.65845047,-6.770790577,-8.207082748,2.26241374,2024-06-05 18:50:10.658450
59.69845047,-6.889534473,-6.882356167,1.476969719,2024-06-05 18:50:10.698450
59.73845047,-6.259325027,-3.660420418,3.710669756,2024-06-05 18:50:10.738450
59.77845047,-6.211468697,-4.183850288,2.541476727,2024-06-05 18:50:10.778450
59.81845047,-7.887042522,-6.188736439,2.754737139,2024-06-05 18:50:10.818450
59.85845047,-5.611468315,-3.285345554,2.89980197,2024-06-05 18:50:10.858450
59.89845047,-3.449553013,-0.8383852243,2.881855726,2024-06-05 18:50:10.898450
59.93845047,-3.868596077,-2.694916487,2.966800928,2024-06-05 18:50:10.938450
59.97845047,-4.04476738,-2.749951363,2.623131752,2024-06-05 18:50:10.978450
60.01845047,-4.04476738,-2.749951363,2.623131752,2024-06-05 18:50:11.018450
60.05845047,-4.04476738,-2.749951363,2.623131752,2024-06-05 18:50:11.058450
60.09845047,-4.04476738,-2.749951363,2.623131752,2024-06-05 18:50:11.098450
60.13845047,-3.339184046,-4.16710043,0.1244267747,2024-06-05 18:50:11.138450
60.17845047,-3.896412611,-8.898010254,2.414657116,2024-06-05 18:50:11.178450
60.21845047,-6.319444656,-12.93559933,1.925923109,2024-06-05 18:50:11.218450
60.25845047,-6.319444656,-12.93559933,1.925923109,2024-06-05 18:50:11.258450
60.29845047,-5.804389477,-13.31187057,-1.036092162,2024-06-05 18:50:11.298450
60.33845047,-7.310970306,-10.41924667,-0.3604189157,2024-06-05 18:50:11.338450
60.37845047,-6.048756599,-11.37996578,0.8706883192,2024-06-05 18:50:11.378450
60.41845047,-4.9791646,-9.082556725,-0.005982056726,2024-06-05 18:50:11.418450
60.45845047,-6.191129684,-8.833403587,0.2276172489,2024-06-05 18:50:11.458450
60.49845047,-3.950251102,-11.74756241,0.1232303679,2024-06-05 18:50:11.498450
60.53845047,-8.893224716,-5.921638012,0.5461617708,2024-06-05 18:50:11.538450
60.57845047,-7.928019524,-9.324530602,0.5676971674,2024-06-05 18:50:11.578450
60.61845047,-8.611768723,-5.988636971,-1.269691467,2024-06-05 18:50:11.618450
60.65845047,-10.04806042,-6.580561161,-0.5449653864,2024-06-05 18:50:11.658450
60.69845047,-10.04806042,-6.580561161,-0.5449653864,2024-06-05 18:50:11.698450
60.73845047,-8.155337334,-10.09352398,-1.751247048,2024-06-05 18:50:11.738450
60.77845047,-6.468996048,-7.826025486,-0.5042873621,2024-06-05 18:50:11.778450
60.81845047,-5.857031822,-5.393422127,-0.1857428551,2024-06-05 18:50:11.818450
60.85845047,-6.700202465,-7.490731239,-1.719841242,2024-06-05 18:50:11.858450
60.89845047,-7.07737112,-4.304687977,1.7883358,2024-06-05 18:50:11.898450
60.93845047,-7.07737112,-4.304687977,1.7883358,2024-06-05 18:50:11.938450
60.97845047,-7.07737112,-4.304687977,1.7883358,2024-06-05 18:50:11.978450
61.01845047,-7.07737112,-4.304687977,1.7883358,2024-06-05 18:50:12.018450
61.05845047,-7.07737112,-4.304687977,1.7883358,2024-06-05 18:50:12.058450
61.09845047,-5.497808933,-2.999104023,0.8252246976,2024-06-05 18:50:12.098450
61.13845047,-4.932205677,-2.844767094,0.6948158741,2024-06-05 18:50:12.138450
61.17845047,-7.570890903,-5.117948532,0.7211369276,2024-06-05 18:50:12.178450
61.21845047,-10.55922699,-6.319444656,-0.005982056726,2024-06-05 18:50:12.218450
61.25845047,-9.047860146,-6.826124668,0.157028988,2024-06-05 18:50:12.258450
61.29845047,-9.047860146,-6.826124668,0.157028988,2024-06-05 18:50:12.298450
61.33845047,-8.57228756,-8.213064194,-0.06340979785,2024-06-05 18:50:12.338450
61.37845047,-9.246764183,-11.80618668,-0.5796613097,2024-06-05 18:50:12.378450
61.41845047,-8.269295692,-10.95224857,0.7199404836,2024-06-05 18:50:12.418450
61.45845047,-7.514659405,-6.591329098,1.075573802,2024-06-05 18:50:12.458450
61.49845047,-7.658527851,-5.412564754,0.1666002721,2024-06-05 18:50:12.498450
61.53845047,-7.658527851,-5.412564754,0.1666002721,2024-06-05 18:50:12.538450
61.57845047,-5.011467934,-8.090731621,0.4719842672,2024-06-05 18:50:12.578450
61.61845047,-7.817650795,-8.345866203,-0.699601531,2024-06-05 18:50:12.618450
61.65845047,-7.753044605,-6.537191391,-0.4719842672,2024-06-05 18:50:12.658450
61.69845047,-9.335298538,-6.83569622,-0.4743770957,2024-06-05 18:50:12.698450
61.73845047,-11.20738316,-6.740880489,-0.7534400225,2024-06-05 18:50:12.738450
61.77845047,-8.762815475,-5.661717415,-2.692523718,2024-06-05 18:50:12.778450
61.81845047,-8.762815475,-5.661717415,-2.692523718,2024-06-05 18:50:12.818450
61.85845047,-8.762815475,-5.661717415,-2.692523718,2024-06-05 18:50:12.858450
61.89845047,-8.762815475,-3.987339735,-0.6900302172,2024-06-05 18:50:12.898450
61.93845047,-8.505288124,-4.38724041,-1.412064433,2024-06-05 18:50:12.938450
61.97845047,-6.728916168,-4.683351994,-0.9209375978,2024-06-05 18:50:12.978450
62.01845047,-8.010572433,-1.974975944,-0.4193421602,2024-06-05 18:50:13.018450
62.05845047,-8.010572433,-1.974975944,-0.4193421602,2024-06-05 18:50:13.058450
62.09845047,-8.010572433,-1.974975944,-0.4193421602,2024-06-05 18:50:13.098450
62.13845047,-2.924926519,-1.334297776,0.9257232547,2024-06-05 18:50:13.138450
