Time (s),Gyroscope x (rad/s),Gyroscope y (rad/s),Gyroscope z (rad/s),Datetime
0.144627813,-0.597196281,-0.3681711555,0.3623123765,2024-06-05 18:49:11.144628
0.185059896,-0.597995162,-0.3199693561,0.3623123765,2024-06-05 18:49:11.185060
0.225492917,-0.4262263775,-0.3790898025,0.4430037737,2024-06-05 18:49:11.225493
0.266100573,-0.5204994678,-0.4163729548,0.7497909069,2024-06-05 18:49:11.266101
0.30612474,-0.6017234921,-0.392937839,1.061504722,2024-06-05 18:49:11.306125
0.346955,-0.4954665005,0.0171768833,1.712495208,2024-06-05 18:49:11.346955
0.387441406,-1.237800717,1.116763711,1.693587303,2024-06-05 18:49:11.387441
0.427879948,-1.803838968,1.450048447,1.638727903,2024-06-05 18:49:11.427880
0.468489427,-1.898378372,0.8552489877,0.9949276447,2024-06-05 18:49:11.468489
0.50876724,-1.422618747,1.291594982,0.7436658144,2024-06-05 18:49:11.508767
0.54946099,-0.4928034246,0.8597761989,0.8179658055,2024-06-05 18:49:11.549461
0.589883698,0.1832200736,0.3129121959,0.511977613,2024-06-05 18:49:11.589884
0.630354479,-0.09427312016,0.9657669067,0.0822892487,2024-06-05 18:49:11.630354
0.670851979,-0.09054480493,1.342193604,-0.06098458916,2024-06-05 18:49:11.670852
0.711335156,-0.3531247377,0.8536511064,0.06551183015,2024-06-05 18:49:11.711335
0.751835625,-0.3661738634,0.6888062954,0.2872134447,2024-06-05 18:49:11.751836
0.792227292,-0.5934679508,0.517170608,-0.009853405878,2024-06-05 18:49:11.792227
0.832807656,-0.4800206423,1.001185894,-0.316107899,2024-06-05 18:49:11.832808
0.873300313,0.1595186442,1.894117475,-0.8358084559,2024-06-05 18:49:11.873300
0.913785625,1.415694714,3.863866568,-1.082543015,2024-06-05 18:49:11.913786
0.954259948,1.6555053,6.288336754,-2.103169441,2024-06-05 18:49:11.954260
0.994768854,-0.4624442756,4.904066563,-1.43247211,2024-06-05 18:49:11.994769
1.035188021,-3.923785925,3.821257114,-1.68000567,2024-06-05 18:49:12.035188
1.075698229,-4.879299641,0.001997311832,-0.7492582798,2024-06-05 18:49:12.075698
1.116053906,-2.713148594,-1.998643517,-0.5849460959,2024-06-05 18:49:12.116054
1.156425833,-2.236722946,-0.7829462886,-1.879736781,2024-06-05 18:49:12.156426
1.197173021,-0.2836183012,0.1014634445,-2.52646637,2024-06-05 18:49:12.197173
1.237519948,0.8107754588,0.07856093347,-2.321142673,2024-06-05 18:49:12.237520
1.278000365,2.068416119,-0.1727008969,-2.028336763,2024-06-05 18:49:12.278000
1.318674583,2.186124563,-1.690657973,-1.601711035,2024-06-05 18:49:12.318675
1.35913151,-0.08069140464,-1.397452593,-2.266283274,2024-06-05 18:49:12.359132
1.399607969,-1.589327693,-1.683201313,-1.709033251,2024-06-05 18:49:12.399608
1.44008526,-1.42288506,-0.6692326665,-1.626211405,2024-06-05 18:49:12.440085
1.480574479,-0.8469933867,0.3688369393,-0.6328815818,2024-06-05 18:49:12.480574
1.52086401,-0.5026568174,-0.02250304818,-0.4035901725,2024-06-05 18:49:12.520864
1.561578021,0.1776276082,-0.08668334037,-0.4193023443,2024-06-05 18:49:12.561578
1.602055573,0.1062569916,0.148067385,0.1824211627,2024-06-05 18:49:12.602056
1.642536042,-0.214644447,0.08974587917,1.201050282,2024-06-05 18:49:12.642536
1.683030469,0.4981296062,0.4900071919,2.310224056,2024-06-05 18:49:12.683030
1.723466615,0.9824111462,1.021159053,2.292647839,2024-06-05 18:49:12.723467
1.763778438,0.2034595013,0.0171768833,4.022452831,2024-06-05 18:49:12.763778
1.804361406,-0.1712362021,0.6448654532,2.700232506,2024-06-05 18:49:12.804361
1.844963333,-0.1573881805,-0.782679975,0.8593767285,2024-06-05 18:49:12.844963
1.88546901,0.1834863871,-0.2800231278,-0.2322207987,2024-06-05 18:49:12.885469
1.925928906,0.3314206302,-0.6034545302,-0.548728168,2024-06-05 18:49:12.925929
1.966425469,0.07669677585,-0.4565854967,-1.936460495,2024-06-05 18:49:12.966425
2.006937031,0.1062569916,-0.8204957247,-1.591324925,2024-06-05 18:49:13.006937
2.047351823,0.6230281591,0.1360835135,-1.589194536,2024-06-05 18:49:13.047352
2.087830104,1.114233732,0.9343425035,-1.451646328,2024-06-05 18:49:13.087830
2.128391406,0.8150364161,0.632748425,-0.6557840705,2024-06-05 18:49:13.128391
2.168815104,-0.2143781483,0.3616466224,-0.2868140042,2024-06-05 18:49:13.168815
2.209340625,-0.1760297567,0.4940018058,-0.330222249,2024-06-05 18:49:13.209341
2.249827604,-0.2383458912,-0.4017260075,-1.766555786,2024-06-05 18:49:13.249828
2.29033901,-0.7202306986,0.6515231729,-2.040586948,2024-06-05 18:49:13.290339
2.330746094,0.2685718834,0.7292851806,-1.15045166,2024-06-05 18:49:13.330746
2.371258594,0.1744319052,0.3464670479,0.2571206093,2024-06-05 18:49:13.371259
2.411728438,0.3207682967,1.304644108,-0.5133091807,2024-06-05 18:49:13.411728
2.452222813,0.7737586498,0.6354115009,-0.3777582645,2024-06-05 18:49:13.452223
2.492731406,-0.2705691755,-0.05099803209,-0.0458050184,2024-06-05 18:49:13.492731
2.533248958,-0.07696308941,0.9045159817,0.7338123918,2024-06-05 18:49:13.533249
2.573704844,0.4443353117,3.558544159,0.7737586498,2024-06-05 18:49:13.573705
2.614158958,0.4882761836,1.118361473,0.5149070024,2024-06-05 18:49:13.614159
2.654647083,-0.493868649,0.04687025398,-0.1800243855,2024-06-05 18:49:13.654647
2.695135677,-1.076417923,-0.1575213373,-1.621151567,2024-06-05 18:49:13.695136
2.735636615,-0.1472684592,-0.3708342612,-1.984928608,2024-06-05 18:49:13.735637
2.776134844,0.3276923001,-0.0323564522,-0.2135792226,2024-06-05 18:49:13.776135
2.816609583,0.1342193633,0.2226337045,1.765490532,2024-06-05 18:49:13.816610
2.857050677,-0.3190372884,0.405321151,2.449503422,2024-06-05 18:49:13.857051
2.897380573,-0.1246322617,0.348331213,1.377878904,2024-06-05 18:49:13.897381
2.937998385,0.2616478503,0.5549864173,0.4360797703,2024-06-05 18:49:13.937998
2.978486771,0.0596530512,0.3786903322,0.0713706091,2024-06-05 18:49:13.978487
3.018965625,-0.3201025128,0.4732297659,-1.028748751,2024-06-05 18:49:14.018966
3.059449271,-0.01065232977,0.1432738453,-1.221289635,2024-06-05 18:49:14.059449
3.099969219,0.2215684652,-0.3585840762,0.1334204376,2024-06-05 18:49:14.099969
3.140434635,0.1113168523,-0.1138467789,0.5074504018,2024-06-05 18:49:14.140435
3.180894688,0.2717675865,0.09933298081,0.4645747542,2024-06-05 18:49:14.180895
3.221400625,0.04287562892,0.007856093347,0.2026605755,2024-06-05 18:49:14.221401
3.261904375,0.00186415785,-0.02649767138,-0.09507204592,2024-06-05 18:49:14.261904
3.302379635,-0.005326164886,-0.05019910634,-0.03967992961,2024-06-05 18:49:14.302380
3.342865052,-0.06364767253,0.03941362351,0.03648423031,2024-06-05 18:49:14.342865
3.383373438,-0.08655018359,0.1001319066,0.001065233024,2024-06-05 18:49:14.383373
3.423824844,-0.07722939551,0.01158440951,-0.004527240526,2024-06-05 18:49:14.423825
3.464318438,-0.04047885537,-0.08828118443,0.04766917601,2024-06-05 18:49:14.464318
3.504766615,-0.007722939365,-0.2427399755,0.2738980353,2024-06-05 18:49:14.504767
3.545301771,0.02556559257,-0.07177007198,0.2491313666,2024-06-05 18:49:14.545302
3.58575625,-0.06098458916,0.2122476846,-0.02769605815,2024-06-05 18:49:14.585756
3.626235,-0.006125089712,0.09560466558,-0.02396774292,2024-06-05 18:49:14.626235
3.666713594,0.1083874628,0.07669677585,-0.0519301109,2024-06-05 18:49:14.666714
3.707198594,0.1352845877,-0.05685681105,-0.03222329915,2024-06-05 18:49:14.707199
3.747651823,0.1438064575,0.02170412242,0.0117175635,2024-06-05 18:49:14.747652
3.788204635,0.1440727711,0.01211702544,0.02316881903,2024-06-05 18:49:14.788205
3.828667865,0.07456631213,-0.1252980381,0.001065233024,2024-06-05 18:49:14.828668
3.869152292,0.04713656008,-0.1924077123,-0.1310236603,2024-06-05 18:49:14.869152
3.909655313,0.08441971987,-0.1471353173,-0.08388710022,2024-06-05 18:49:14.909655
3.950143021,0.1672415882,-0.2182396203,-0.09027849883,2024-06-05 18:49:14.950143
3.990593646,0.1840189993,-0.1210371032,-0.0980014354,2024-06-05 18:49:14.990594
4.031077604,0.1736329794,0.0003994623839,0.01704372838,2024-06-05 18:49:15.031078
4.071564688,0.1014634445,-0.1340862066,-0.05006595328,2024-06-05 18:49:15.071565
4.112041406,0.003994623665,-0.1615159512,-0.08894696087,2024-06-05 18:49:15.112041
4.152525365,-0.08947957307,-0.02250304818,-0.09081111848,2024-06-05 18:49:15.152525
4.1930175,-0.1853505522,-0.1679073572,-0.1629806459,2024-06-05 18:49:15.193017
4.23351875,-0.2671071887,-0.4035901725,-0.2740311921,2024-06-05 18:49:15.233519
4.273970104,-0.2380795777,-0.342605561,-0.1395455301,2024-06-05 18:49:15.273970
4.314485833,-0.08521863818,-0.1961360276,-0.1227681041,2024-06-05 18:49:15.314486
4.354966979,-0.006391398143,-0.1050586104,-0.1206376404,2024-06-05 18:49:15.354967
4.395451146,0.05592473224,-0.2073209733,-0.09187635034,2024-06-05 18:49:15.395451
4.435927656,0.1462032348,-0.2001306564,-0.139012903,2024-06-05 18:49:15.435928
4.476421875,0.1709699035,-0.1958697289,-0.1027949899,2024-06-05 18:49:15.476422
4.516892396,0.1411433816,-0.2467346042,-0.1406107545,2024-06-05 18:49:15.516892
4.557298438,0.139012903,-0.2952027023,-0.2444709837,2024-06-05 18:49:15.557298
4.597763177,0.1936061084,-0.3138442934,-0.2492645234,2024-06-05 18:49:15.597763
4.638343906,0.2379464209,-0.3420729637,-0.2013290375,2024-06-05 18:49:15.638344
4.678807292,0.3063876629,-0.2286256403,-0.2098509073,2024-06-05 18:49:15.678807
4.719314063,0.3601819277,-0.1497983932,-0.2428731322,2024-06-05 18:49:15.719314
4.759793958,0.3295564651,-0.1071890742,-0.2705691755,2024-06-05 18:49:15.759794
4.800275052,0.1983996481,-0.0736342296,-0.2593842447,2024-06-05 18:49:15.800275
4.840784167,0.1203713343,-0.08881380409,-0.2226337045,2024-06-05 18:49:15.840784
4.881256875,0.08122401685,-0.1529940963,-0.1515294015,2024-06-05 18:49:15.881257
4.921732292,0.09001219273,-0.156456098,-0.16031757,2024-06-05 18:49:15.921732
4.962218802,0.0705716908,-0.1244991124,-0.1123820841,2024-06-05 18:49:15.962219
5.002714844,0.01864157803,-0.09600412846,-0.1240996495,2024-06-05 18:49:16.002715
5.043213073,0.05059856921,-0.1828206182,-0.2303566486,2024-06-05 18:49:16.043213
5.0837,0.06764229387,-0.1716356725,-0.1864157766,2024-06-05 18:49:16.083700
5.124181979,0.07882724702,-0.1194392517,-0.2593842447,2024-06-05 18:49:16.124182
5.164645573,0.2271609455,-0.2030600458,-0.3926715255,2024-06-05 18:49:16.164646
5.205125521,0.2350170314,-0.2254299372,-0.2548570037,2024-06-05 18:49:16.205126
5.24561224,0.1696383655,-0.0006657706108,-0.2476666719,2024-06-05 18:49:16.245612
5.286094115,0.05512581021,0.1898777932,-0.190676704,2024-06-05 18:49:16.286094
5.326535417,-0.1174419373,0.2175738513,-0.06125089899,2024-06-05 18:49:16.326535
5.36703526,-0.1717688292,0.052196417,-0.1174419373,2024-06-05 18:49:16.367035
5.407522292,-0.1768286824,-0.03129122034,-0.06204982474,2024-06-05 18:49:16.407522
5.448008646,-0.1350182891,0.01930734888,0.00186415785,2024-06-05 18:49:16.448009
5.488495677,-0.1153114736,0.1027949899,0.1065233052,2024-06-05 18:49:16.488496
5.52901026,-0.1291595101,0.1187734827,0.0705716908,2024-06-05 18:49:16.529010
5.569514948,-0.1291595101,0.1800243855,0.1584534049,2024-06-05 18:49:16.569515
5.609969583,-0.12117026,0.1299584359,0.1983996481,2024-06-05 18:49:16.609970
5.650479271,-0.08894696087,0.09054480493,0.2364817262,2024-06-05 18:49:16.650479
5.690883958,-0.09427312016,0.03248960897,0.3306216896,2024-06-05 18:49:16.690884
5.731415885,-0.1347519755,0.002263620263,0.2901428342,2024-06-05 18:49:16.731416
5.771877552,-0.0977351293,0.04553871229,0.2770937383,2024-06-05 18:49:16.771878
5.812388125,0.0005326165119,0.1752308309,0.3197030723,2024-06-05 18:49:16.812388
5.852875208,0.1230344176,0.1912093312,0.3718994856,2024-06-05 18:49:16.852875
5.893346563,0.0977351293,0.1190397888,0.3609808385,2024-06-05 18:49:16.893347
5.93383901,-0.03462007269,-0.03501953557,0.2792242169,2024-06-05 18:49:16.933839
5.974359115,-0.1509967744,0.02703028731,0.2149107605,2024-06-05 18:49:16.974359
6.014803802,-0.1944050342,-0.03155753016,0.122501798,2024-06-05 18:49:17.014804
6.055374844,-0.2183727771,0.0275629051,0.1312899739,2024-06-05 18:49:17.055375
6.095809688,-0.2095845938,0.1304910481,0.1667089611,2024-06-05 18:49:17.095810
6.136254219,-0.1848179251,0.2002638131,0.1182408631,2024-06-05 18:49:17.136254
6.176698854,-0.1688394397,0.2428731322,0.05113118514,2024-06-05 18:49:17.176699
6.217223281,-0.1723014414,0.2303566486,0.037815772,2024-06-05 18:49:17.217223
6.25768625,-0.1563229412,0.4505935609,0.05006595328,2024-06-05 18:49:17.257686
6.298172396,-0.190676704,0.5893401504,0.04154408723,2024-06-05 18:49:17.298172
6.338645833,-0.2756290436,0.5571168661,0.08548495173,2024-06-05 18:49:17.338646
6.379159375,-0.06764229387,0.190676704,0.06045197323,2024-06-05 18:49:17.379159
6.4196625,-0.02956021577,0.071104303,0.04287562892,2024-06-05 18:49:17.419663
6.460121198,-0.08708280325,-0.04860125855,0.06071828306,2024-06-05 18:49:17.460121
6.500615,0.0007989247679,-0.1346188188,0.02503297664,2024-06-05 18:49:17.500615
6.541119896,0.07323476672,-0.2659088075,-0.07030537724,2024-06-05 18:49:17.541120
6.581577344,0.1874810159,-0.3908073604,-0.1126483902,2024-06-05 18:49:17.581577
6.622061771,0.3825518191,-0.5026568174,-0.1661763489,2024-06-05 18:49:17.622062
6.662534323,0.4387428463,-0.0126496423,-0.142208606,2024-06-05 18:49:17.662534
6.703011146,0.3167736828,0.1792254597,-0.1302247345,2024-06-05 18:49:17.703011
6.743530833,0.2406095117,-0.02010627277,-0.1374150664,2024-06-05 18:49:17.743531
6.783956146,0.1320888996,-0.2579195499,-0.2519276142,2024-06-05 18:49:17.783956
6.824537344,0.09826774895,-0.1817553788,-0.2367480397,2024-06-05 18:49:17.824537
6.864979479,-0.01038602181,-0.02303566411,-0.2940043211,2024-06-05 18:49:17.864979
6.905470052,-0.02636451647,-0.1170424819,-0.3525921404,2024-06-05 18:49:17.905470
6.945941094,-0.142208606,-0.3444697261,-0.3454017937,2024-06-05 18:49:17.945941
6.986452344,-0.2034595013,-0.3191704452,-0.2505960763,2024-06-05 18:49:17.986452
7.026887135,-0.216508612,-0.3087844253,-0.284417212,2024-06-05 18:49:18.026887
7.06734526,-0.2431394309,-0.3167736828,-0.3288906813,2024-06-05 18:49:18.067345
7.107860417,-0.403323859,-0.2286256403,-0.2548570037,2024-06-05 18:49:18.107860
7.148342865,-0.2940043211,-0.2882786989,-0.328358084,2024-06-05 18:49:18.148343
7.188825938,-0.2330197245,-0.2571206093,-0.2969337106,2024-06-05 18:49:18.188826
7.22933724,-0.3006620109,-0.2065220475,-0.2010627389,2024-06-05 18:49:18.229337
7.269801979,-0.2463351339,-0.3676385581,-0.2234326303,2024-06-05 18:49:18.269802
7.310275833,-0.3027924895,-0.3588503897,-0.2343512625,2024-06-05 18:49:18.310276
7.350771563,-0.3456681073,-0.2153102309,-0.1600512564,2024-06-05 18:49:18.350772
7.391251719,-0.3645760119,-0.2110492885,-0.2141118348,2024-06-05 18:49:18.391252
7.431729167,-0.3746957183,-0.2187722325,-0.319303602,2024-06-05 18:49:18.431729
7.47222026,-0.34513551,-0.08082455397,-0.4499278069,2024-06-05 18:49:18.472220
7.512744323,-0.5468640327,0.1866820902,-0.5322170258,2024-06-05 18:49:18.512744
7.553206042,-0.5804188251,0.5379426479,-0.5673697591,2024-06-05 18:49:18.553206
7.593668958,-0.5026568174,0.4921376705,-0.5724295974,2024-06-05 18:49:18.593669
7.63417651,-0.5346138477,1.058708429,-0.7993242145,2024-06-05 18:49:18.634177
7.674688698,-0.4475310147,1.256708622,-0.7575138211,2024-06-05 18:49:18.674689
7.715144115,-0.1627143472,1.036072254,-0.6778876781,2024-06-05 18:49:18.715144
7.755593906,-0.3163742125,0.6967955232,-0.3645760119,2024-06-05 18:49:18.755594
7.796070156,-0.154458791,0.4740287066,-0.3886769116,2024-06-05 18:49:18.796070
7.836594063,-0.433683008,0.1185071766,-0.4459331632,2024-06-05 18:49:18.836594
7.877129479,-0.6081148982,-0.1170424819,-0.4259600639,2024-06-05 18:49:18.877129
7.91759375,-0.6411371231,-0.2278267145,-0.2649767101,2024-06-05 18:49:18.917594
7.958040208,-0.4565854967,-0.6615096927,-0.09480573982,2024-06-05 18:49:18.958040
7.998485417,-0.4403406978,-0.7179670334,-0.195203945,2024-06-05 18:49:18.998485
8.038990729,-0.5207657814,-0.7935985923,-0.211981371,2024-06-05 18:49:19.038991
8.079481615,-0.7212958932,-0.605052352,-0.4078511,2024-06-05 18:49:19.079482
8.119961146,-1.042596817,-0.8788172603,-0.4027912319,2024-06-05 18:49:19.119961
8.160471146,-0.8041177988,-0.5824161768,-0.5340812206,2024-06-05 18:49:19.160471
8.200960625,-0.7239589691,-0.7025212049,-0.2335523367,2024-06-05 18:49:19.200961
8.241424427,-0.4749607742,-0.5753589869,0.04660394415,2024-06-05 18:49:19.241424
8.281889271,-0.276694268,-0.4451342523,0.3197030723,2024-06-05 18:49:19.281889
8.32238276,0.01917419396,-0.133819893,0.5924026966,2024-06-05 18:49:19.322383
8.362863698,0.1962691844,-0.1300915778,0.9728240371,2024-06-05 18:49:19.362864
8.403347031,0.0980014354,0.1597849578,0.6448654532,2024-06-05 18:49:19.403347
8.4438425,0.1752308309,0.1707035899,0.6816160083,2024-06-05 18:49:19.443843
8.484317969,0.2973331809,0.234617576,1.009042025,2024-06-05 18:49:19.484318
8.524785052,0.2079867423,0.466039449,0.9637695551,2024-06-05 18:49:19.524785
8.565301927,0.2728328109,0.2713681161,0.6637732983,2024-06-05 18:49:19.565302
8.605783281,0.3151758313,-0.1785596907,0.4792217016,2024-06-05 18:49:19.605783
8.64628724,0.0977351293,-0.1993317306,0.05698996782,2024-06-05 18:49:19.646287
8.686777448,-0.06790860742,-0.1671084315,-0.3692364097,2024-06-05 18:49:19.686777
8.727248125,-0.1246322617,0.122501798,-0.3860138059,2024-06-05 18:49:19.727248
8.7676625,0.004793548491,-0.01451379992,0.02343512699,2024-06-05 18:49:19.767663
8.808161563,-0.009054481052,0.2031932026,0.4283568263,2024-06-05 18:49:19.808162
8.848651667,0.1123820841,0.05805519968,0.6163704395,2024-06-05 18:49:19.848652
8.889168229,0.1003982127,0.08708280325,0.601190865,2024-06-05 18:49:19.889168
8.929661406,0.1741656065,0.3105154335,0.3846822679,2024-06-05 18:49:19.929661
8.970141198,0.1565892547,0.1912093312,0.3170399666,2024-06-05 18:49:19.970141
9.010634167,0.1874810159,0.3464670479,0.4091826379,2024-06-05 18:49:20.010634
9.051094583,0.2512618303,0.2474003732,0.4059869349,2024-06-05 18:49:20.051095
9.091575885,0.2757622004,0.1991985738,0.4733629227,2024-06-05 18:49:20.091576
9.132108125,0.2472672164,-0.03768261895,0.5508586168,2024-06-05 18:49:20.132108
9.172553646,0.1802906841,-0.2595174015,0.5204994678,2024-06-05 18:49:20.172554
9.213037969,0.1323551983,-0.1125152409,0.4456668794,2024-06-05 18:49:20.213038
9.253528385,0.02636451647,0.1842853129,0.4898740351,2024-06-05 18:49:20.253528
9.29400224,-0.06098458916,0.2125139832,0.665104866,2024-06-05 18:49:20.294002
9.334457656,-0.04953333735,-0.03342168778,0.6073159575,2024-06-05 18:49:20.334458
9.374953958,-0.1438064575,-0.04833494872,0.7055837512,2024-06-05 18:49:20.374954
9.415477292,-0.07483261824,-0.1412765235,0.9395354986,2024-06-05 18:49:20.415477
9.455919844,-0.008255556226,-0.3010614812,0.8628387451,2024-06-05 18:49:20.455920
9.496438906,0.06604444981,-0.4414059222,0.7210295796,2024-06-05 18:49:20.496439
9.536914688,0.1264964193,-0.4035901725,0.6701647043,2024-06-05 18:49:20.536915
9.577390521,0.2247641683,-0.4818847775,0.6957303286,2024-06-05 18:49:20.577391
9.617866302,0.2794905007,-0.7110430598,0.4744281471,2024-06-05 18:49:20.617866
9.658338177,0.1989322603,-0.6250254512,0.4797543287,2024-06-05 18:49:20.658338
9.698813906,0.213312909,-0.2003969699,0.6629744172,2024-06-05 18:49:20.698814
9.739313385,0.2539249361,-0.1841521561,0.6957303286,2024-06-05 18:49:20.739313
9.779758854,0.3657743931,-0.1418091506,0.4778901637,2024-06-05 18:49:20.779759
9.820258802,0.356187284,0.4348813891,0.1541924775,2024-06-05 18:49:20.820259
9.860780156,0.3053224087,0.2543243766,-0.2250304818,2024-06-05 18:49:20.860780
9.901252708,0.06764229387,0.2894770801,-0.4368786812,2024-06-05 18:49:20.901253
9.941754167,-0.01438064594,0.03888100386,-0.3635107577,2024-06-05 18:49:20.941754
9.982209427,-0.2298240215,0.1209039465,-0.5476629138,2024-06-05 18:49:20.982209
10.02272505,-0.4078511,0.06844121963,-0.8989235163,2024-06-05 18:49:21.022725
10.06319172,-0.4834826291,-0.06031882018,-1.074553847,2024-06-05 18:49:21.063192
10.10365688,-0.5053198934,-0.09227581322,-1.301981091,2024-06-05 18:49:21.103657
10.14414125,-0.5870765448,0.2468677461,-1.667755485,2024-06-05 18:49:21.144141
10.18462568,-0.484814167,0.2037258148,-1.680271983,2024-06-05 18:49:21.184626
10.22511104,-0.3595161438,0.02703028731,-1.318492174,2024-06-05 18:49:21.225111
10.26559901,-0.5074504018,0.7551170588,-1.472418308,2024-06-05 18:49:21.265599
10.3060763,-0.3547225893,1.179079771,-1.378944159,2024-06-05 18:49:21.306076
10.34665922,-0.2229000032,0.6768224239,-1.210903645,2024-06-05 18:49:21.346659
10.38707365,-0.1163767055,0.8885374665,-1.297720075,2024-06-05 18:49:21.387074
10.42755094,-0.01997311972,0.6613765359,-1.155511498,2024-06-05 18:49:21.427551
10.46798823,0.01065232977,0.5307523608,-1.211436272,2024-06-05 18:49:21.467988
10.50848151,0.06844121963,0.4718982279,-1.097456336,2024-06-05 18:49:21.508482
10.54899104,0.2055899799,0.3462007344,-0.8904016614,2024-06-05 18:49:21.548991
10.58953198,0.2162422985,0.1240996495,-0.5548532605,2024-06-05 18:49:21.589532
10.62999063,0.1600512564,0.1254311949,-0.1829537749,2024-06-05 18:49:21.629991
10.67042844,0.04740286991,-0.08721595258,0.2757622004,2024-06-05 18:49:21.670428
10.71091375,-0.02263620123,-0.2118482143,0.4267589748,2024-06-05 18:49:21.710914
10.7513963,-0.2442046702,-0.4238295853,0.6978607774,2024-06-05 18:49:21.751396
10.79187531,-0.1525946259,-0.6457974911,1.175218344,2024-06-05 18:49:21.791875
10.83237943,-0.158986032,-0.5037220716,1.076684237,2024-06-05 18:49:21.832379
10.87286042,-0.08015878499,-0.4129109383,0.5540543199,2024-06-05 18:49:21.872860
10.913365,0.03275591508,-0.3450023532,0.3647091687,2024-06-05 18:49:21.913365
10.95385031,0.03089175746,-0.3963998258,0.2877460718,2024-06-05 18:49:21.953850
10.99432703,0.1153114736,-0.3186378181,0.2454030514,2024-06-05 18:49:21.994327
11.03479912,0.2483324558,-0.2627131045,0.4443353117,2024-06-05 18:49:22.034799
11.07527922,0.2762948275,0.02809552103,0.4691019952,2024-06-05 18:49:22.075279
11.11576234,0.3556546867,0.4418053925,0.5631088018,2024-06-05 18:49:22.115762
11.15627453,0.2491313666,0.3826849759,0.6621754766,2024-06-05 18:49:22.156275
11.19679479,0.1294258088,0.04713656008,0.8022536039,2024-06-05 18:49:22.196795
11.23722287,0.2973331809,0.1022623703,0.8003894687,2024-06-05 18:49:22.237223
11.2777024,0.1866820902,0.3800218701,0.8684312105,2024-06-05 18:49:22.277702
11.31816583,0.1206376404,0.3169068098,0.9371387362,2024-06-05 18:49:22.318166
11.35864943,0.02876129188,0.2194380015,0.9600412846,2024-06-05 18:49:22.358649
11.39914057,-0.139012903,-0.1431406885,1.083341956,2024-06-05 18:49:22.399141
11.43962,-0.2737648785,-0.273365438,1.224485397,2024-06-05 18:49:22.439620
11.48010771,-0.3206351399,-0.4701672196,1.146457076,2024-06-05 18:49:22.480108
11.52059172,-0.2740311921,-0.386546433,0.8283518553,2024-06-05 18:49:22.520592
11.56107844,-0.1185071766,-0.6311505437,0.4139761925,2024-06-05 18:49:22.561078
11.60156667,-0.1411433816,-0.5426030755,0.6850779653,2024-06-05 18:49:22.601567
11.64205781,-0.2412752807,-0.2312887162,0.7740249634,2024-06-05 18:49:22.642058
11.68254224,-0.1960028708,-0.1604507267,0.7449973226,2024-06-05 18:49:22.682542
11.72302958,-0.09880036116,-0.09760197252,0.5005263686,2024-06-05 18:49:22.723030
11.76349177,-0.08894696087,0.003595161485,0.07003907114,2024-06-05 18:49:22.763492
11.8039976,-0.06125089899,0.2324871123,-0.2692376375,2024-06-05 18:49:22.803998
11.8444837,0.04607132822,0.01744319126,-0.5415378213,2024-06-05 18:49:22.844484
11.88497063,0.1350182891,-0.004394086078,-0.9071790576,2024-06-05 18:49:22.884971
11.92545406,0.1400781423,0.2894770801,-1.119559884,2024-06-05 18:49:22.925454
11.96592839,0.229424566,0.2354165018,-1.221822262,2024-06-05 18:49:22.965928
12.00640667,0.05166380107,0.155790329,-1.391194344,2024-06-05 18:49:23.006407
12.04690958,-0.01065232977,0.1746982187,-1.482538104,2024-06-05 18:49:23.046910
12.08740151,-0.08015878499,0.4093157947,-1.702375531,2024-06-05 18:49:23.087402
12.12784927,-0.143540144,0.1869483888,-1.750044703,2024-06-05 18:49:23.127849
12.16831156,-0.08441971987,0.3896089792,-1.661364079,2024-06-05 18:49:23.168312
12.20880271,0.03515268862,0.2074541301,-1.311301827,2024-06-05 18:49:23.208803
12.24931797,0.01278279629,0.2564548552,-1.034873843,2024-06-05 18:49:23.249318
12.28979896,0.06284874678,-0.3372794092,-0.8291507363,2024-06-05 18:49:23.289799
12.33026958,0.06258244067,0.07962616533,-0.7324808836,2024-06-05 18:49:23.330270
12.37075057,-0.1909430176,-0.4978632927,-0.4419385493,2024-06-05 18:49:23.370751
12.41125844,-0.3201025128,-0.4917382002,-0.2013290375,2024-06-05 18:49:23.411258
12.45174031,-0.2543243766,-0.5069177747,0.2752295732,2024-06-05 18:49:23.451740
12.49219651,-0.3701684773,-0.6133078933,0.6083812118,2024-06-05 18:49:23.492197
12.53268219,-0.4555202723,-0.4464657903,0.4949339032,2024-06-05 18:49:23.532682
12.57316786,-0.3382114768,-0.5308855176,0.3500621915,2024-06-05 18:49:23.573168
12.61367787,-0.2556559145,-0.3205019832,0.1083874628,2024-06-05 18:49:23.613678
12.65416005,-0.1701709777,-0.1758965999,0.1613828093,2024-06-05 18:49:23.654160
12.6946413,-0.06684337556,-0.1346188188,0.4118457139,2024-06-05 18:49:23.694641
12.73510865,0.03382114694,-0.07896039635,0.8734911084,2024-06-05 18:49:23.735109
12.77557391,0.08575125784,-0.04141093418,1.067629814,2024-06-05 18:49:23.775574
12.81608964,0.1278279573,0.07802832127,1.258306503,2024-06-05 18:49:23.816090
12.85657088,0.169372052,0.03382114694,1.09399426,2024-06-05 18:49:23.856571
12.89707724,0.07243584841,-0.1063901484,1.101184607,2024-06-05 18:49:23.897077
12.93750177,0.07989247888,-0.06404713541,1.372819066,2024-06-05 18:49:23.937502
12.97797307,0.007722939365,0.1491326243,1.471486211,2024-06-05 18:49:23.977973
13.01845432,-0.164844811,0.3608476818,1.219958067,2024-06-05 18:49:24.018454
13.05893562,-0.1888125539,0.2085193694,0.9323452115,2024-06-05 18:49:24.058936
13.09948427,-0.223698929,-0.142874375,0.7298177481,2024-06-05 18:49:24.099484
13.13994932,-0.1957365721,-0.5476629138,0.7452636361,2024-06-05 18:49:24.139949
13.18045787,-0.1379476786,-0.2664414048,0.9736229777,2024-06-05 18:49:24.180458
13.22092719,-0.230090335,-0.1585865617,1.080945253,2024-06-05 18:49:24.220927
13.26140177,-0.107588537,-0.2022611201,0.6688331962,2024-06-05 18:49:24.261402
13.30188307,0.02583190054,-0.1031944528,0.3410077095,2024-06-05 18:49:24.301883
13.34235708,0.1203713343,0.07323476672,-0.03488638252,2024-06-05 18:49:24.342357
13.38283922,0.071104303,0.2569874525,-0.4840152562,2024-06-05 18:49:24.382839
13.42333729,0.03435376659,0.03142437339,-0.6725615263,2024-06-05 18:49:24.423337
13.46383323,-0.03222329915,0.1451379955,-0.9109073877,2024-06-05 18:49:24.463833
13.50433338,-0.0117175635,0.4716319144,-0.9880036116,2024-06-05 18:49:24.504333
13.5448163,0.1049254537,0.5600462556,-1.210371017,2024-06-05 18:49:24.544816
13.58526891,0.09906667471,0.3975982368,-1.543256402,2024-06-05 18:49:24.585269
13.62574964,0.07909355313,-0.0731016174,-1.568555593,2024-06-05 18:49:24.625750
13.66622677,-0.07802832127,0.2596505582,-1.701043963,2024-06-05 18:49:24.666227
13.70670947,-0.03435376659,0.008655018173,-1.790523529,2024-06-05 18:49:24.706709
13.74720666,0.02529928461,0.2199706137,-1.507304788,2024-06-05 18:49:24.747207
13.78765249,0.1174419373,0.4154408872,-1.292393923,2024-06-05 18:49:24.787652
13.82817411,0.002130466048,0.06338136643,-1.238333344,2024-06-05 18:49:24.828174
13.86865229,-0.08441971987,-0.147401616,-1.05697751,2024-06-05 18:49:24.868652
13.90915098,-0.1917419434,-0.3061213493,-0.8770862222,2024-06-05 18:49:24.909151
13.94962677,-0.2229000032,-0.4174381793,-0.4579170346,2024-06-05 18:49:24.949627
13.99013119,-0.04287562892,-0.3436708152,0.2651098669,2024-06-05 18:49:24.990131
14.03061411,-0.0705716908,-0.1745650619,0.6874747872,2024-06-05 18:49:25.030614
14.07105067,-0.05379426852,-0.1252980381,0.6760234833,2024-06-05 18:49:25.071051
14.11154151,-0.03541899845,0.04154408723,0.5268908739,2024-06-05 18:49:25.111542
14.15202666,0.01438064594,-0.04513924941,0.4709661603,2024-06-05 18:49:25.152027
14.19248541,0.1528609395,-0.04540555924,0.3665733039,2024-06-05 18:49:25.192485
14.23297807,0.148067385,0.006524552125,0.5476629138,2024-06-05 18:49:25.232978
14.27346666,0.2877460718,-0.0126496423,0.6509905457,2024-06-05 18:49:25.273467
14.3139752,0.3002625704,0.2695039511,0.851254344,2024-06-05 18:49:25.313975
14.35444145,0.1914756298,0.2697702646,0.9453943372,2024-06-05 18:49:25.354441
14.39494046,0.07243584841,0.2383458912,1.146190763,2024-06-05 18:49:25.394940
14.43543109,0.008521864191,0.137681365,1.26549685,2024-06-05 18:49:25.435431
14.47590062,-0.1323551983,-0.02303566411,1.512497783,2024-06-05 18:49:25.475901
14.51640124,-0.2793573737,0.01797580719,1.59239018,2024-06-05 18:49:25.516401
14.55686255,-0.3950682878,0.2537917793,1.59691751,2024-06-05 18:49:25.556863
14.59733552,-0.2604494691,-0.2890776098,1.311834455,2024-06-05 18:49:25.597336
14.63783426,-0.1398118287,-0.5864107609,0.8493902087,2024-06-05 18:49:25.637834
14.67832692,0.01118494663,-0.3860138059,0.4211665094,2024-06-05 18:49:25.678327
14.71880958,0.04447348043,-0.1785596907,0.2805557549,2024-06-05 18:49:25.718810
14.75926588,0.02929390781,-0.265642494,0.3186378181,2024-06-05 18:49:25.759266
14.79974869,0.1272953451,-0.2605826259,0.02796236612,2024-06-05 18:49:25.799749
14.84035901,0.1398118287,0.1573881805,-0.2434057444,2024-06-05 18:49:25.840359
14.88073968,0.139012903,0.2588516176,-0.4395417869,2024-06-05 18:49:25.880740
14.92125583,-0.008255556226,0.3786903322,-0.6472622156,2024-06-05 18:49:25.921256
14.96168557,0.04926702753,0.4015928507,-0.8877385855,2024-06-05 18:49:25.961686
15.00216833,0.09187635034,0.7892045379,-1.176283598,2024-06-05 18:49:26.002168
15.0426415,0.2416747361,0.5070509315,-1.380275726,2024-06-05 18:49:26.042642
15.08312609,0.2053236663,-0.01451379992,-1.640325665,2024-06-05 18:49:26.083126
15.1236213,0.2098509073,0.3733641803,-1.853904963,2024-06-05 18:49:26.123621
15.1641513,0.1057243794,0.04979964346,-1.749512076,2024-06-05 18:49:26.164151
15.20466838,0.05938674137,0.1509967744,-1.501978517,2024-06-05 18:49:26.204668
15.24510624,0.07802832127,0.03754946589,-1.566425204,2024-06-05 18:49:26.245106
15.28559119,0.004260932095,-0.06404713541,-1.279344916,2024-06-05 18:49:26.285591
15.32607281,0.003994623665,-0.1327546686,-0.854450047,2024-06-05 18:49:26.326073
15.36656968,-0.1619154215,-0.3015941083,-0.4624442756,2024-06-05 18:49:26.366570
15.40703395,0.1613828093,-0.1937392503,0.02529928461,2024-06-05 18:49:26.407034
15.44752265,0.07003907114,-0.3109148741,0.5135754943,2024-06-05 18:49:26.447523
15.48801354,0.139012903,-0.06990591437,0.6137073636,2024-06-05 18:49:26.488014
15.52847874,0.1352845877,-0.0171768833,0.6757571697,2024-06-05 18:49:26.528479
15.56896598,0.07776200771,-0.2829525173,0.6757571697,2024-06-05 18:49:26.568966
15.6094551,0.2109161317,-0.3505948186,0.670963645,2024-06-05 18:49:26.609455
15.64993973,0.3026593328,0.07989247888,0.7162360549,2024-06-05 18:49:26.649940
15.69043265,-0.03062544949,-0.000133154128,0.9464595318,2024-06-05 18:49:26.690433
15.73091026,-0.1041265279,-0.05685681105,1.235404015,2024-06-05 18:49:26.730910
15.77138161,-0.301194638,0.005459319334,1.27295351,2024-06-05 18:49:26.771382
15.8118602,-0.3688369393,0.08468602598,1.352579594,2024-06-05 18:49:26.811860
15.85233427,-0.2439383566,0.03967992961,1.422618747,2024-06-05 18:49:26.852334
15.8928201,-0.2774932086,0.3446028829,1.490394115,2024-06-05 18:49:26.892820
15.93329963,-0.3027924895,-0.003062544856,1.669885874,2024-06-05 18:49:26.933300
15.97380208,-0.0713706091,-0.2635120153,0.9640358686,2024-06-05 18:49:26.973802
16.01425692,0.0926752761,-0.5087819099,0.6200987697,2024-06-05 18:49:27.014257
16.0547588,0.1547250897,-0.6500584483,0.6840127707,2024-06-05 18:49:27.054759
16.09524661,0.2029268891,-0.3332847953,0.506118834,2024-06-05 18:49:27.095247
16.13573005,0.1256974936,-0.1929403245,0.3332847953,2024-06-05 18:49:27.135730
16.17622484,0.09214265645,-0.01291595027,-0.03967992961,2024-06-05 18:49:27.176225
16.21670421,-0.007722939365,0.1715025157,-0.4621779919,2024-06-05 18:49:27.216704
16.2571765,0.002396774245,0.4151745737,-0.8003894687,2024-06-05 18:49:27.257176
16.29772171,-0.143540144,0.49506706,-0.990933001,2024-06-05 18:49:27.297722
16.33818411,-0.1062569916,0.2061225921,-1.233007193,2024-06-05 18:49:27.338184
16.37863463,-0.273498565,0.1174419373,-1.796115994,2024-06-05 18:49:27.378635
16.41911812,-0.1041265279,0.1760297567,-1.817687035,2024-06-05 18:49:27.419118
16.45961661,-0.3485974967,0.1227681041,-1.838192701,2024-06-05 18:49:27.459617
16.50009223,-0.2636451721,0.3667064607,-1.711962581,2024-06-05 18:49:27.500092
16.54056791,-0.1616491079,-0.1660431921,-1.598248959,2024-06-05 18:49:27.540568
16.58105093,-0.09081111848,-0.004394086078,-1.451113701,2024-06-05 18:49:27.581051
16.6215276,-0.08441971987,0.2039921284,-1.446053863,2024-06-05 18:49:27.621528
16.6620114,0.0458050184,-0.08561810106,-0.8139711618,2024-06-05 18:49:27.662011
16.70249651,-0.003462007269,0.07163692266,-0.4688356817,2024-06-05 18:49:27.702497
16.74294317,0.04553871229,0.04314193875,-0.09054480493,2024-06-05 18:49:27.742943
16.78342593,0.04127778113,-0.1620485783,0.3961335421,2024-06-05 18:49:27.783426
16.82394176,-0.07030537724,0.07456631213,0.4991948307,2024-06-05 18:49:27.823942
16.86446854,-0.02077204362,0.02303566411,0.4296883643,2024-06-05 18:49:27.864469
16.9049102,0.1302247345,0.2367480397,0.616104126,2024-06-05 18:49:27.904910
16.94539291,0.3663070202,0.2772268951,0.8304823041,2024-06-05 18:49:27.945393
16.98588874,0.4272916019,0.163513273,1.064966679,2024-06-05 18:49:27.985889
17.02635244,0.414242506,0.4050548673,1.279078603,2024-06-05 18:49:28.026352
17.06683953,0.265642494,0.2926727831,1.354976416,2024-06-05 18:49:28.066840
17.10738161,0.148067385,0.1398118287,1.36642766,2024-06-05 18:49:28.107382
17.14784072,0.1360835135,0.06231613085,1.453776717,2024-06-05 18:49:28.147841
17.18831416,-0.1195724085,0.3291569948,1.706370115,2024-06-05 18:49:28.188314
17.22878463,-0.2503297627,-0.4275579154,1.582004189,2024-06-05 18:49:28.228785
17.26923682,-0.1326215118,-0.02170412242,1.192262053,2024-06-05 18:49:28.269237
17.30976984,-0.1605838835,-0.6085143685,0.9648348093,2024-06-05 18:49:28.309770
17.35024119,-0.1805569977,-0.4294220507,0.5897396207,2024-06-05 18:49:28.350241
17.39073249,-0.2090519816,-0.3295564651,0.7833457589,2024-06-05 18:49:28.390732
17.4312489,-0.09400681406,-0.2270277888,0.5338149071,2024-06-05 18:49:28.431249
17.47171026,-0.0490007177,-0.08694964647,0.04047885537,2024-06-05 18:49:28.471710
17.51219322,-0.01278279629,0.1483336985,-0.4243622124,2024-06-05 18:49:28.512193
17.55264723,-0.004793548491,0.5296871066,-0.7457962632,2024-06-05 18:49:28.552647
17.59312151,-0.003195699072,0.5515244007,-1.252181411,2024-06-05 18:49:28.593122
17.63363031,0.03062544949,0.6183677912,-1.721017122,2024-06-05 18:49:28.633630
17.67415119,0.06844121963,0.4785559475,-1.625678778,2024-06-05 18:49:28.674151
17.71463421,-0.01731003635,0.7508561015,-2.025407553,2024-06-05 18:49:28.714634
17.75507552,0.4014596939,1.00012064,-1.960960865,2024-06-05 18:49:28.755076
17.79555942,0.3932041526,0.4876104295,-1.721816063,2024-06-05 18:49:28.795559
17.83602958,0.5745600462,0.4021254778,-1.446320176,2024-06-05 18:49:28.836030
17.87651666,0.3319532275,0.1976007223,-1.460168123,2024-06-05 18:49:28.876517
17.91699926,0.186149478,-0.08934641629,-0.8547163606,2024-06-05 18:49:28.916999
17.95750458,0.1573881805,-0.04274247587,-0.5567173958,2024-06-05 18:49:28.957505
17.99799026,0.1251648813,-0.3103822768,-0.01091863867,2024-06-05 18:49:28.997990
18.03842166,0.07776200771,-0.2411421239,0.2669740319,2024-06-05 18:49:29.038422
18.07896697,0.3641765416,-0.1463363916,0.6786866188,2024-06-05 18:49:29.078967
18.11942072,0.3061213493,0.03355484083,0.5833482146,2024-06-05 18:49:29.119421
18.15990307,0.226894632,-0.006258244161,0.6738930345,2024-06-05 18:49:29.159903
18.20038765,0.4105141759,-0.1676410437,0.8195636868,2024-06-05 18:49:29.200388
18.24088567,0.4520582557,-0.3234313726,0.9259538054,2024-06-05 18:49:29.240886
18.28134322,0.5207657814,-0.0621829778,1.259371758,2024-06-05 18:49:29.281343
18.32184911,0.2925396264,0.3555215299,1.178946614,2024-06-05 18:49:29.321849
18.36233249,0.2906754613,0.3882774413,1.397319436,2024-06-05 18:49:29.362332
18.40280109,-0.03248960897,0.1728340536,1.535666585,2024-06-05 18:49:29.402801
18.44327848,-0.1493989378,0.0171768833,1.468823195,2024-06-05 18:49:29.443278
18.48375859,-0.1145125479,-0.8583115339,1.394656301,2024-06-05 18:49:29.483759
18.52426364,-0.14993155,-1.186403275,1.249518394,2024-06-05 18:49:29.524264
18.56474374,-0.2127802968,-0.7776201367,1.191196799,2024-06-05 18:49:29.564744
18.60523911,-0.01704372838,-0.5877423286,1.009308338,2024-06-05 18:49:29.605239
18.64572083,0.06258244067,-0.398796618,0.7766880393,2024-06-05 18:49:29.645721
18.68617609,-0.0705716908,-0.1271621883,0.1555240154,2024-06-05 18:49:29.686176
18.72666494,-0.2077204436,-0.03342168778,-0.6821485758,2024-06-05 18:49:29.726665
18.76715921,-0.3113143444,-0.1159772426,-1.372286439,2024-06-05 18:49:29.767159
18.8076501,-0.3765598834,0.1027949899,-1.78173542,2024-06-05 18:49:29.807650
18.84814057,-0.4115794003,0.3150426745,-1.809431434,2024-06-05 18:49:29.848141
18.88861708,-0.5567173958,0.04820179567,-2.056032896,2024-06-05 18:49:29.888617
18.92911718,-0.530619204,0.3635107577,-2.121810913,2024-06-05 18:49:29.929117
18.96959161,-0.3414071798,0.7854762077,-1.837660074,2024-06-05 18:49:29.969592
19.01001744,-0.3725652397,0.5619103909,-1.637928963,2024-06-05 18:49:30.010017
19.05051458,-0.09853405505,0.3121132851,-1.676543593,2024-06-05 18:49:30.050515
19.09102322,-0.2114487588,-0.270169735,-1.415961027,2024-06-05 18:49:30.091023
19.13150291,-0.3680379987,-0.4014596939,-0.8896027207,2024-06-05 18:49:30.131503
19.17197926,-0.2034595013,-0.2957353294,0.05352795869,2024-06-05 18:49:30.171979
19.21244833,-0.415574044,-0.6362104416,0.4280905128,2024-06-05 18:49:30.212448
19.25292463,-0.2995967865,-0.4517919421,0.4605801404,2024-06-05 18:49:30.252925
19.29343723,-0.07350108027,-0.2187722325,0.6248922944,2024-06-05 18:49:30.293437
19.33394635,0.2263620198,0.3960003853,1.040998936,2024-06-05 18:49:30.333946
19.37443609,0.4941349626,0.1219691783,1.331274986,2024-06-05 18:49:30.374436
19.41492984,0.2845503688,0.5326164961,1.12595129,2024-06-05 18:49:30.414930
19.45538338,0.1091863886,0.1845516264,1.116630554,2024-06-05 18:49:30.455383
19.4958515,-0.01411433797,0.07962616533,1.251648784,2024-06-05 18:49:30.495852
19.53633562,-0.1163767055,0.3653749228,1.354976416,2024-06-05 18:49:30.536336
19.57680906,-0.1920082569,0.1925408691,1.39092803,2024-06-05 18:49:30.576809
19.61731494,-0.04687025398,0.1137136221,1.601977348,2024-06-05 18:49:30.617315
19.65780645,-0.02476666868,-0.4344819188,1.691723228,2024-06-05 18:49:30.657806
19.69828671,-0.0330222249,-0.9019860625,1.383737683,2024-06-05 18:49:30.698287
19.73875166,0.1193061024,-0.6809502244,0.6970618367,2024-06-05 18:49:30.738752
19.77922572,0.2122476846,-0.2158428431,0.415574044,2024-06-05 18:49:30.779226
19.81972776,0.0980014354,0.1430075318,-0.05512581021,2024-06-05 18:49:30.819728
19.86023203,0.05113118514,0.4948007464,-0.7772206664,2024-06-05 18:49:30.860232
19.90070406,0.1789591461,0.5304860473,-1.381607175,2024-06-05 18:49:30.900704
19.94118437,0.1600512564,0.6422023773,-1.730337858,2024-06-05 18:49:30.941184
19.98167062,0.3396761715,0.6063839197,-1.74312067,2024-06-05 18:49:30.981671
20.0221351,0.374296248,0.2418078929,-1.883997798,2024-06-05 18:49:31.022135
20.06261505,0.4238295853,0.464707911,-1.991586328,2024-06-05 18:49:31.062615
20.10309682,0.0705716908,0.2463351339,-2.089055061,2024-06-05 18:49:31.103097
20.14357312,-0.08122401685,-0.2264951766,-2.011293173,2024-06-05 18:49:31.143573
20.18406755,-0.2577863932,-0.7041190267,-1.573615432,2024-06-05 18:49:31.184068
20.22456656,-0.3860138059,-0.6713631153,-0.8006557822,2024-06-05 18:49:31.224567
20.26503947,-0.2987978756,-0.8652355075,0.1272953451,2024-06-05 18:49:31.265039
20.30555562,-0.4797543287,-0.7145050764,0.4632432163,2024-06-05 18:49:31.305556
20.34603588,-0.08495233208,-0.3236976862,0.7407364249,2024-06-05 18:49:31.346036
20.3865364,0.229424566,0.1182408631,1.003449559,2024-06-05 18:49:31.386536
20.42696661,0.4829500318,0.09081111848,1.157642007,2024-06-05 18:49:31.426967
20.46748354,0.2975994647,0.3331516385,1.395721555,2024-06-05 18:49:31.467484
20.50796843,0.07696308941,0.7239589691,1.394123673,2024-06-05 18:49:31.507968
20.54845213,-0.2005301118,0.6491263509,1.69411993,2024-06-05 18:49:31.548452
20.58891359,-0.4331503808,0.7947970033,1.969216347,2024-06-05 18:49:31.588914
20.62941932,-0.4206338823,-0.1913424879,1.820083737,2024-06-05 18:49:31.629419
20.66990963,-0.1419423074,-0.9749545455,1.689592719,2024-06-05 18:49:31.669910
20.71039328,-0.1398118287,-0.8892032504,1.470687389,2024-06-05 18:49:31.710393
20.75086557,0.03328853101,-0.6258243918,0.9525846243,2024-06-05 18:49:31.750866
20.79134958,0.1419423074,-0.108254306,0.6296858788,2024-06-05 18:49:31.791350
20.83180072,0.1288931966,-0.1335535944,0.1310236603,2024-06-05 18:49:31.831801
20.8722713,0.1707035899,0.2905423045,-0.8568468094,2024-06-05 18:49:31.872271
20.9127477,0.2869471312,0.4527240396,-1.38427031,2024-06-05 18:49:31.912748
20.95326182,0.2074541301,0.7330134511,-1.713560462,2024-06-05 18:49:31.953262
20.99375624,0.1688394397,0.7194317579,-1.935395241,2024-06-05 18:49:31.993756
21.03422291,0.1917419434,0.3195699155,-2.094381332,2024-06-05 18:49:32.034223
21.07471281,0.1366161406,0.2537917793,-2.331262589,2024-06-05 18:49:32.074713
21.11524072,-0.1187734827,0.007323476952,-2.457226276,2024-06-05 18:49:32.115241
21.15570604,-0.1611164957,-0.2462019771,-1.857899547,2024-06-05 18:49:32.155706
21.19618296,-0.08841434121,-0.2355496585,-1.238865972,2024-06-05 18:49:32.196183
21.23663838,0.04340824485,-0.497064352,-0.2633788586,2024-06-05 18:49:32.236638
21.27713005,0.06071828306,-0.5588479042,0.3149095178,2024-06-05 18:49:32.277130
21.31761359,0.1651111245,-0.3814865649,0.7455299497,2024-06-05 18:49:32.317614
21.35814031,0.226894632,0.2106498331,0.762839973,2024-06-05 18:49:32.358140
21.3985864,0.2571206093,0.02170412242,0.947524786,2024-06-05 18:49:32.398586
21.4390538,0.2834851444,0.2018616647,1.203446984,2024-06-05 18:49:32.439054
21.47956973,0.1581871063,0.2615146935,1.591324925,2024-06-05 18:49:32.479570
21.520069,-0.2061225921,0.330222249,1.600645781,2024-06-05 18:49:32.520069
21.56052968,-0.3873453438,0.3464670479,1.796914935,2024-06-05 18:49:32.560530
21.60100796,-0.2604494691,0.3121132851,2.217815161,2024-06-05 18:49:32.601008
21.64148031,-0.4749607742,-0.6444659829,1.844850421,2024-06-05 18:49:32.641480
21.68193468,-0.5135754943,-0.7086462975,1.849643946,2024-06-05 18:49:32.681935
21.72241828,-0.395600915,-0.8790835738,0.9536498785,2024-06-05 18:49:32.722418
21.76291526,-0.2151770741,-0.3969324529,0.4549876451,2024-06-05 18:49:32.762915
21.80340317,0.1667089611,0.01318225823,0.2205032408,2024-06-05 18:49:32.803403
21.84393145,0.2175738513,0.8680317402,-0.9545819163,2024-06-05 18:49:32.843931
21.88445848,0.1989322603,0.6778876781,-1.659766197,2024-06-05 18:49:32.884458
21.92488791,0.2877460718,0.3752283454,-1.995847225,2024-06-05 18:49:32.924888
21.96537249,0.2933385372,0.5605788827,-1.96948266,2024-06-05 18:49:32.965372
22.00582426,0.04633763805,0.5683017969,-2.213820457,2024-06-05 18:49:33.005824
22.04629635,0.4150414169,0.2633788586,-2.050440311,2024-06-05 18:49:33.046296
22.0868377,0.1419423074,-0.02676397935,-2.160159349,2024-06-05 18:49:33.086838
22.12735213,-0.09001219273,-0.4440690279,-1.726343274,2024-06-05 18:49:33.127352
22.16780604,-0.04021254554,-0.5973294377,-0.9172987938,2024-06-05 18:49:33.167806
22.20826692,-0.04793548584,-0.2448704392,-0.01358172111,2024-06-05 18:49:33.208267
22.24875109,0.04660394415,0.0817566365,0.3734973371,2024-06-05 18:49:33.248751
22.28924312,0.04607132822,0.240476355,0.4414059222,2024-06-05 18:49:33.289243
22.3297189,0.1749645174,0.146735847,0.701322794,2024-06-05 18:49:33.329719
22.37019093,0.223698929,0.1243659556,1.153647423,2024-06-05 18:49:33.370191
22.41069536,0.3034582436,0.1262301207,1.708500624,2024-06-05 18:49:33.410695
22.4511938,0.2965342402,0.1560566425,2.18212986,2024-06-05 18:49:33.451194
22.49163427,0.1973344237,0.6512568593,2.430329084,2024-06-05 18:49:33.491634
22.53208859,0.2390116602,-0.2786915898,1.922612429,2024-06-05 18:49:33.532089
22.57258213,0.007722939365,-0.2928059399,1.954303145,2024-06-05 18:49:33.572582
22.61309302,-0.2535254657,-0.8143706322,1.909030676,2024-06-05 18:49:33.613093
22.65359489,-0.3198362291,-0.599193573,1.028482437,2024-06-05 18:49:33.653595
22.69408348,-0.3235645294,-0.02223674022,0.1533935517,2024-06-05 18:49:33.694083
22.73453328,-0.162181735,0.03994623944,0.1933397949,2024-06-05 18:49:33.734533
22.77499994,-0.1358172148,0.617302537,-0.6336805224,2024-06-05 18:49:33.775000
22.81549906,0.07989247888,0.90291816,-1.344324112,2024-06-05 18:49:33.815499
22.85599848,0.2459356785,0.7463288903,-1.860828996,2024-06-05 18:49:33.855998
22.89647984,0.3418066502,0.4458000064,-2.141517878,2024-06-05 18:49:33.896480
22.93696682,0.2331528813,0.162181735,-2.215418339,2024-06-05 18:49:33.936967
22.97745682,0.05512581021,0.1312899739,-2.364551067,2024-06-05 18:49:33.977457
23.0178926,0.09720251709,-0.2885449827,-2.134327412,2024-06-05 18:49:34.017893
23.05838197,-0.09933298081,-0.4323514402,-1.659499884,2024-06-05 18:49:34.058382
23.09888859,-0.1616491079,-0.4408733249,-1.084140897,2024-06-05 18:49:34.098889
23.13938328,-0.02503297664,-0.1676410437,-0.186149478,2024-06-05 18:49:34.139383
23.17986098,0.09214265645,0.03621792421,0.2629793882,2024-06-05 18:49:34.179861
23.22033984,0.1797580719,-0.1351514459,0.5322170258,2024-06-05 18:49:34.220340
23.26082083,0.3098496497,-0.0731016174,0.7766880393,2024-06-05 18:49:34.260821
23.30130187,0.4387428463,0.1283605844,1.102782488,2024-06-05 18:49:34.301302
23.341784,0.2762948275,0.1358172148,1.521552205,2024-06-05 18:49:34.341784
23.38226718,0.1278279573,-0.1567224115,1.970281601,2024-06-05 18:49:34.382267
23.42275744,-0.3804213405,0.04713656008,2.254565716,2024-06-05 18:49:34.422757
23.46321411,-0.5181027055,-0.3015941083,1.925275564,2024-06-05 18:49:34.463214
23.50372739,-0.2918738425,0.1400781423,1.935927868,2024-06-05 18:49:34.503727
23.54419312,-0.4832163453,-0.5175700784,1.531139374,2024-06-05 18:49:34.544193
23.58466635,-0.3924052119,-0.4845478833,1.013835549,2024-06-05 18:49:34.584666
23.62525416,-0.08415340632,-0.4331503808,0.6105116606,2024-06-05 18:49:34.625254
23.66566989,0.004527240526,-0.3705679476,0.02023942769,2024-06-05 18:49:34.665670
23.7061414,0.07216953486,0.3994623721,-0.8690969944,2024-06-05 18:49:34.706141
23.74659802,0.06577813625,0.9945281744,-1.311834455,2024-06-05 18:49:34.746598
23.78712755,0.2167749256,0.9718919992,-1.678940415,2024-06-05 18:49:34.787128
23.82759244,0.3322195411,0.8049166799,-2.283859491,2024-06-05 18:49:34.827592
23.86808312,0.1350182891,-0.1431406885,-2.562950611,2024-06-05 18:49:34.868083
23.90857588,-0.006924014539,-0.2952027023,-2.267348528,2024-06-05 18:49:34.908576
23.94906255,-0.1555240154,-0.4842815697,-2.078935385,2024-06-05 18:49:34.949063
23.98953802,-0.3001294136,-0.4944012761,-1.66589129,2024-06-05 18:49:34.989538
24.03000052,-0.1283605844,-0.4334166944,-0.7556496859,2024-06-05 18:49:35.030001
24.07050645,-0.0298265256,-0.1532603949,-0.1366161406,2024-06-05 18:49:35.070506
24.11098489,0.1097190008,0.09187635034,0.4531235099,2024-06-05 18:49:35.110985
24.15146343,0.2031932026,0.186149478,0.6818822622,2024-06-05 18:49:35.151463
24.19194208,0.329023838,0.1784265339,0.8663007617,2024-06-05 18:49:35.191942
24.23242552,0.3804213405,0.2420742065,1.064434052,2024-06-05 18:49:35.232426
24.27290354,0.2816209793,0.1360835135,1.427412271,2024-06-05 18:49:35.272904
24.31338734,0.1501978636,-0.06431344151,1.796115994,2024-06-05 18:49:35.313387
24.35385979,-0.04367455468,0.3890763521,2.17254281,2024-06-05 18:49:35.353860
24.39438067,-0.052196417,0.2439383566,2.175738335,2024-06-05 18:49:35.394381
24.43486052,0.07003907114,-0.5829487443,1.737261891,2024-06-05 18:49:35.434861
24.47536588,-0.122501798,-0.822093606,1.716489911,2024-06-05 18:49:35.475366
24.5158289,-0.07350108027,-0.8620398045,0.8535179496,2024-06-05 18:49:35.515829
24.55629244,-0.1659100503,-0.377491951,0.4675041437,2024-06-05 18:49:35.556292
24.59677531,-0.02236989327,0.04207670316,-0.04447348043,2024-06-05 18:49:35.596775
24.63726171,-0.08362079412,0.6018566489,-0.7921339273,2024-06-05 18:49:35.637262
24.67776505,0.1792254597,0.4252942801,-1.214099288,2024-06-05 18:49:35.677765
24.71824744,0.09587097168,0.9599081278,-1.842187405,2024-06-05 18:49:35.718247
24.75874947,0.07669677585,0.3363473415,-2.306495905,2024-06-05 18:49:35.758749
24.79920895,-0.1768286824,0.08069140464,-2.623668909,2024-06-05 18:49:35.799209
24.83966697,-0.00186415785,-0.2097177505,-2.517678261,2024-06-05 18:49:35.839667
24.88016135,-0.3990629315,-0.6671021581,-2.425535679,2024-06-05 18:49:35.880161
24.92064031,-0.5197005868,-0.2456693649,-1.695717812,2024-06-05 18:49:35.920640
24.96114895,-0.4331503808,-0.2994636297,-0.8384715319,2024-06-05 18:49:35.961149
25.0016326,-0.2444709837,-0.1902772486,-0.05698996782,2024-06-05 18:49:36.001633
25.04207229,-0.07909355313,-0.1769618392,0.6605776548,2024-06-05 18:49:36.042072
25.08255635,0.07456631213,-0.06457975507,1.031145573,2024-06-05 18:49:36.082556
25.12304041,0.2183727771,0.107588537,1.236735582,2024-06-05 18:49:36.123040
25.16357562,0.3215672076,0.3632444739,1.485334277,2024-06-05 18:49:36.163576
25.20402609,0.1549914032,-0.05366111174,1.852573395,2024-06-05 18:49:36.204026
25.24451104,-0.000266308256,0.4197018147,2.005434275,2024-06-05 18:49:36.244511
25.28500416,-0.2990641594,0.799590528,2.226336956,2024-06-05 18:49:36.285004
25.32550166,-0.3035914004,0.1989322603,2.045646906,2024-06-05 18:49:36.325502
25.36598807,-0.177094996,-0.7054505944,1.875742197,2024-06-05 18:49:36.365988
25.4064614,0.06151720881,-1.083341956,1.338731647,2024-06-05 18:49:36.406461
25.44692276,0.05619104207,-0.5663045049,0.6925346255,2024-06-05 18:49:36.446923
25.48742411,-0.01944050193,-0.05659050494,0.3700353205,2024-06-05 18:49:36.487424
25.5279138,0.03808208182,0.06817491353,-0.3643096983,2024-06-05 18:49:36.527914
25.56839328,0.08308817446,0.3970656097,-0.9888025522,2024-06-05 18:49:36.568393
25.60885781,0.154458791,0.8874722719,-1.487864256,2024-06-05 18:49:36.608858
25.64935479,0.3167736828,0.9511199594,-1.930601716,2024-06-05 18:49:36.649355
25.68982999,0.4645747542,0.3240971565,-2.337121248,2024-06-05 18:49:36.689830
25.73032072,0.169372052,-0.01557903271,-2.667343378,2024-06-05 18:49:36.730321
25.77081328,0.1078548431,-0.2792242169,-2.384790421,2024-06-05 18:49:36.770813
25.81129676,-0.07243584841,-0.4131772518,-2.166817188,2024-06-05 18:49:36.811297
25.85177374,-0.2207695395,-0.2422073632,-1.69332099,2024-06-05 18:49:36.851774
25.89226765,-0.1715025157,-0.07203638554,-0.9164998531,2024-06-05 18:49:36.892268
25.93272057,-0.07776200771,-0.2280930281,-0.1193061024,2024-06-05 18:49:36.932721
25.97319838,0.04926702753,-0.1426080763,0.5556522012,2024-06-05 18:49:36.973198
26.01366057,0.2667077184,-0.2083862126,1.149386406,2024-06-05 18:49:37.013661
26.05416536,0.4299546778,0.2497971505,1.327546597,2024-06-05 18:49:37.054165
26.09467218,0.5066514611,0.3166405261,1.455108285,2024-06-05 18:49:37.094672
26.13516067,0.4419385493,-0.0323564522,1.791588783,2024-06-05 18:49:37.135161
26.17564124,0.2221010923,0.08894696087,2.040320635,2024-06-05 18:49:37.175641
26.21614286,-0.1355509013,0.3432713449,2.300637007,2024-06-05 18:49:37.216143
26.25661661,-0.2407426685,-0.1165098622,2.257228851,2024-06-05 18:49:37.256617
26.29711286,-0.1664426625,-0.6545857191,1.943917155,2024-06-05 18:49:37.297113
26.33758458,-0.3459344208,-0.5997262001,0.9837427139,2024-06-05 18:49:37.337585
26.37805505,-0.3232982159,-0.5367442966,0.8918663263,2024-06-05 18:49:37.378055
26.41853942,-0.2460688353,-0.1125152409,0.3569862247,2024-06-05 18:49:37.418539
26.45902359,0.03941362351,-0.06963960826,-0.395600915,2024-06-05 18:49:37.459024
26.49952203,0.1619154215,0.4319519997,-1.077749491,2024-06-05 18:49:37.499522
26.53998979,0.238479048,0.7204970121,-1.442325473,2024-06-05 18:49:37.539990
26.58046697,0.2483324558,0.7615084648,-1.849910259,2024-06-05 18:49:37.580467
26.62094906,0.04953333735,0.304390341,-2.252701521,2024-06-05 18:49:37.620949
26.66144328,-0.0490007177,0.1840189993,-2.607157707,2024-06-05 18:49:37.661443
26.70192244,-0.09533835202,-0.03874785081,-2.422073603,2024-06-05 18:49:37.701922
26.74239369,-0.03754946589,-0.3386109471,-1.873345375,2024-06-05 18:49:37.742394
26.7828626,-0.1078548431,-0.2691044807,-1.318492174,2024-06-05 18:49:37.782863
26.82334619,-0.01278279629,-0.220370084,-0.6493926644,2024-06-05 18:49:37.823346
26.86385968,-0.04607132822,-0.3061213493,-0.03941362351,2024-06-05 18:49:37.863860
26.9043276,-0.0817566365,-0.5074504018,0.3934704363,2024-06-05 18:49:37.904328
26.94482588,0.02130465955,-0.239810586,0.6959966421,2024-06-05 18:49:37.944826
26.98530885,0.1597849578,0.01691057347,0.9083774686,2024-06-05 18:49:37.985309
27.02576947,0.3205019832,0.2364817262,1.161103964,2024-06-05 18:49:38.025769
27.06624166,0.2595174015,0.1637795717,1.490660429,2024-06-05 18:49:38.066242
27.10676041,0.1456706226,0.1110505462,1.919949412,2024-06-05 18:49:38.106760
27.14724406,-0.1062569916,0.09134373069,2.556293011,2024-06-05 18:49:38.147244
27.18772046,-0.2327534109,0.08761541545,2.279066086,2024-06-05 18:49:38.187720
27.22821973,-0.3886769116,-0.01637795754,1.891986966,2024-06-05 18:49:38.228220
27.26868531,-0.4496614933,-0.4315525293,1.351514339,2024-06-05 18:49:38.268685
27.30915776,-0.2793573737,-0.7145050764,0.8043841124,2024-06-05 18:49:38.309158
27.34965598,-0.1667089611,-0.1599181145,0.2579195499,2024-06-05 18:49:38.349656
27.39013687,-0.1214365661,0.3456681073,-0.4568518102,2024-06-05 18:49:38.390137
27.43063333,0.071104303,1.033941746,-0.9239565134,2024-06-05 18:49:38.430633
27.4711038,0.2515281439,0.8587109447,-1.563229442,2024-06-05 18:49:38.471104
27.5115788,0.2757622004,0.6435338855,-2.157496452,2024-06-05 18:49:38.511579
27.55209328,0.3034582436,0.2159759998,-2.334458113,2024-06-05 18:49:38.552093
27.59257682,0.02796236612,-0.02623136342,-2.474536419,2024-06-05 18:49:38.592577
27.63299557,0.03808208182,-0.2579195499,-2.220478296,2024-06-05 18:49:38.632996
27.6734738,-0.1355509013,-0.3527252972,-1.849111319,2024-06-05 18:49:38.673474
27.71396942,-0.2154433727,-0.3181052208,-1.202648044,2024-06-05 18:49:38.713969
27.75448624,-0.1789591461,-0.151928857,-0.5473966002,2024-06-05 18:49:38.754486
27.79495812,0.03595161438,-0.05872096866,0.1517957002,2024-06-05 18:49:38.794958
27.83546489,0.1350182891,0.172567755,0.4967980385,2024-06-05 18:49:38.835465
27.87600989,0.261115253,0.2010627389,0.7481930256,2024-06-05 18:49:38.876010
27.91642588,0.4195686579,0.1778939217,0.9917319417,2024-06-05 18:49:38.916426
27.95689473,0.3990629315,0.2380795777,1.465627432,2024-06-05 18:49:38.956895
27.99741197,0.2456693649,-0.2006632686,1.955901027,2024-06-05 18:49:38.997412
28.03783864,0.1470021605,-0.0323564522,2.224206448,2024-06-05 18:49:39.037839
28.07837057,-0.07163692266,0.05139749497,2.10862875,2024-06-05 18:49:39.078371
28.11882494,-0.3083849549,-0.2288919389,1.809431434,2024-06-05 18:49:39.118825
28.15932557,-0.2247641683,-0.8303491473,1.770816803,2024-06-05 18:49:39.159326
28.19979416,-0.2466014475,-1.25178194,1.095325828,2024-06-05 18:49:39.199794
28.24027692,-0.3022598624,-0.5023905039,0.5825493336,2024-06-05 18:49:39.240277
28.28081676,-0.2452699095,0.001464695437,0.2938711643,2024-06-05 18:49:39.280817
28.32124109,-0.1752308309,0.2471340597,-0.4728302956,2024-06-05 18:49:39.321241
28.36175156,0.01651111245,0.6141068339,-1.136869907,2024-06-05 18:49:39.361752
28.40222083,0.03808208182,0.9252880216,-1.517957091,2024-06-05 18:49:39.402221
28.44269885,0.1701709777,0.8296833634,-1.820616364,2024-06-05 18:49:39.442699
28.4831826,0.2312887162,0.4082505703,-2.249772072,2024-06-05 18:49:39.483183
28.52367796,0.2194380015,-0.05845466256,-2.393045902,2024-06-05 18:49:39.523678
28.56415427,-0.02769605815,-0.2941374779,-2.196510553,2024-06-05 18:49:39.564154
28.60462348,-0.1323551983,-0.1399449855,-1.954036832,2024-06-05 18:49:39.604623
28.64511926,-0.3017272651,-0.3021267056,-1.417558789,2024-06-05 18:49:39.645119
28.68562744,-0.2407426685,-0.230756104,-0.5953320861,2024-06-05 18:49:39.685627
28.72610999,-0.08095771074,-0.3695026934,0.1592523307,2024-06-05 18:49:39.726110
28.76659176,-0.0458050184,-0.0954715088,0.5921363831,2024-06-05 18:49:39.766592
28.80706067,0.07296846062,0.006258244161,0.820895195,2024-06-05 18:49:39.807061
28.84754744,0.2029268891,0.223698929,0.9419323206,2024-06-05 18:49:39.847547
28.88804968,0.2085193694,0.3840165138,1.366693974,2024-06-05 18:49:39.888050
28.9285263,0.222367391,-0.08508548886,1.87228024,2024-06-05 18:49:39.928526
28.96899947,0.1163767055,0.5246272683,2.157363176,2024-06-05 18:49:39.968999
29.00947026,-0.05912043154,0.02516612969,2.072410822,2024-06-05 18:49:40.009470
29.04994229,0.253392309,-0.4046553969,1.985993862,2024-06-05 18:49:40.049942
29.09045859,0.137681365,-0.9669652581,1.87228024,2024-06-05 18:49:40.090459
29.13096645,-0.03142437339,-0.3665733039,1.26176846,2024-06-05 18:49:40.130966
29.1714339,-0.1675078869,-0.04354140162,0.8211615086,2024-06-05 18:49:40.171434
29.21190802,-0.06790860742,-0.007057168987,0.3948020041,2024-06-05 18:49:40.211908
29.25236067,-0.007722939365,0.1275616586,-0.5548532605,2024-06-05 18:49:40.252361
29.29283885,0.1059906855,0.534480691,-1.151250601,2024-06-05 18:49:40.292839
29.3333102,0.1637795717,0.8874722719,-1.549647689,2024-06-05 18:49:40.333310
29.37381416,0.2464682907,0.6872084737,-2.054701328,2024-06-05 18:49:40.373814
29.4143027,0.2283593267,0.195203945,-2.341648579,2024-06-05 18:49:40.414303
29.45480119,0.05752258375,0.004660394508,-2.547504663,2024-06-05 18:49:40.454801
29.4952715,-0.1736329794,-0.2832188308,-2.244179726,2024-06-05 18:49:40.495272
29.53574406,-0.1792254597,-0.4432700872,-1.881334662,2024-06-05 18:49:40.535744
29.57624145,-0.4651073813,-0.5045210123,-1.441260338,2024-06-05 18:49:40.576241
29.61675317,-0.1784265339,-0.2360822707,-0.6768224239,2024-06-05 18:49:40.616753
29.65723552,0.02902759984,-0.02543243766,0.0005326165119,2024-06-05 18:49:40.657236
29.69769999,0.1749645174,0.1387466043,0.5772231221,2024-06-05 18:49:40.697700
29.73819265,0.02450035885,-0.2683055699,0.6869421601,2024-06-05 18:49:40.738193
29.7786876,0.2015953511,0.07722939551,0.7902697325,2024-06-05 18:49:40.778688
29.81915208,0.3801550269,0.05166380107,1.487997413,2024-06-05 18:49:40.819152
29.85962031,0.3122464418,-0.2467346042,1.871747613,2024-06-05 18:49:40.859620
29.90011984,0.1368824393,0.1762960702,2.112889767,2024-06-05 18:49:40.900120
29.9406052,0.0458050184,0.01291595027,2.177069902,2024-06-05 18:49:40.940605
29.98108468,-0.02236989327,0.2330197245,2.177868843,2024-06-05 18:49:40.981085
30.02155104,-0.1246322617,-0.6101121902,1.82993722,2024-06-05 18:49:41.021551
30.06202999,-0.2852161527,-0.4523245692,1.480274439,2024-06-05 18:49:41.062030
30.10251119,-0.3054555655,-0.3479317427,0.9387366176,2024-06-05 18:49:41.102511
30.14299989,-0.2532591522,-0.159651801,0.3202356696,2024-06-05 18:49:41.143000
30.18347031,-0.1379476786,0.04500609636,-0.3772256374,2024-06-05 18:49:41.183470
30.22398276,0.02423405088,0.3816197217,-1.05617857,2024-06-05 18:49:41.223983
30.26445302,0.05432688445,0.9210271239,-1.559501171,2024-06-05 18:49:41.264453
30.3049365,0.1158440933,0.7615084648,-1.931400657,2024-06-05 18:49:41.304937
30.34545281,0.1509967744,0.4069190025,-2.074408054,2024-06-05 18:49:41.345453
30.38591484,0.1017297506,0.007323476952,-2.430329084,2024-06-05 18:49:41.385915
30.42638359,-0.08548495173,0.1070559174,-2.53472209,2024-06-05 18:49:41.426384
30.46689229,-0.2231663167,-0.3428718746,-2.089321375,2024-06-05 18:49:41.466892
30.50737651,-0.319303602,-0.5258256793,-1.650711775,2024-06-05 18:49:41.507377
30.54785708,-0.2106498331,-0.3343500197,-0.9343425035,2024-06-05 18:49:41.547857
30.58837791,0.01597849466,-0.1399449855,-0.04314193875,2024-06-05 18:49:41.588378
30.62881572,0.2326202542,-0.05925358832,0.6531209946,2024-06-05 18:49:41.628816
30.66933765,0.2344844192,0.2213021666,0.9794817567,2024-06-05 18:49:41.669338
30.70976723,0.3244965971,0.4793548584,0.9733566642,2024-06-05 18:49:41.709767
30.75025645,0.4563191831,-0.03262276202,1.069760323,2024-06-05 18:49:41.750256
30.7907238,0.1326215118,-0.176429227,1.512497783,2024-06-05 18:49:41.790724
30.8312551,0.2002638131,-0.3796224296,2.228733778,2024-06-05 18:49:41.831255
30.87173359,-0.09347419441,0.0006657706108,2.399437428,2024-06-05 18:49:41.871734
30.91222255,-0.04127778113,-0.06617759913,2.213021517,2024-06-05 18:49:41.912223
30.95265864,0.09693620354,-0.146070078,1.9910537,2024-06-05 18:49:41.952659
30.99313432,0.0458050184,-0.4163729548,1.427678585,2024-06-05 18:49:41.993134
31.03364067,-0.06604444981,-0.4326177537,0.7487256527,2024-06-05 18:49:42.033641
31.07413031,0.04314193875,-0.1306242049,0.1960028708,2024-06-05 18:49:42.074130
31.11463031,-0.09347419441,0.04953333735,-0.2692376375,2024-06-05 18:49:42.114630
31.15510854,0.05725627393,0.1541924775,-0.8829450011,2024-06-05 18:49:42.155109
31.19559005,0.03834838793,0.8632382154,-1.523283243,2024-06-05 18:49:42.195590
31.23610411,0.07296846062,0.8951951861,-1.781202793,2024-06-05 18:49:42.236104
31.27654802,0.2205032408,0.3741630912,-2.02807045,2024-06-05 18:49:42.276548
31.31704692,0.05086487532,0.148067385,-2.411421299,2024-06-05 18:49:42.317047
31.35755026,-0.1235670298,0.1672415882,-2.855490208,2024-06-05 18:49:42.357550
31.39802322,-0.08095771074,-0.5218310356,-2.079468012,2024-06-05 18:49:42.398023
31.43849666,-0.3709673882,-0.4659062922,-1.588395596,2024-06-05 18:49:42.438497
31.47898312,-0.09746882319,-0.1633801162,-0.8483249545,2024-06-05 18:49:42.478983
31.51946947,-0.006924014539,-0.1814890802,-0.0817566365,2024-06-05 18:49:42.519469
31.55994958,0.06551183015,-0.2022611201,0.5916038156,2024-06-05 18:49:42.559950
31.60040083,0.06338136643,-0.2499302924,0.8059819341,2024-06-05 18:49:42.600401
31.64089593,0.06018566713,-0.0845528692,1.155511498,2024-06-05 18:49:42.640896
31.68139687,0.2117150575,0.1869483888,1.399449944,2024-06-05 18:49:42.681397
31.72188057,0.06950645149,0.1288931966,1.521285892,2024-06-05 18:49:42.721881
31.76236447,0.03382114694,-0.08348763734,1.954303145,2024-06-05 18:49:42.762364
31.80284463,-0.1893451661,-0.1098521575,2.344045162,2024-06-05 18:49:42.802845
31.84329869,-0.07163692266,-0.238479048,2.354964018,2024-06-05 18:49:42.843299
31.88379609,-0.07270215452,-0.4959991276,1.794251919,2024-06-05 18:49:42.883796
31.92430072,-0.2242315561,-0.3649754524,1.340862036,2024-06-05 18:49:42.924301
31.96478994,-0.2005301118,-0.2198374718,1.221822262,2024-06-05 18:49:42.964790
32.00526499,-0.0926752761,-0.1926740259,0.343937099,2024-06-05 18:49:43.005265
32.04579015,0.01731003635,-0.02596505545,-0.3139774203,2024-06-05 18:49:43.045790
32.08629781,0.0708379969,0.414375633,-0.9042496681,2024-06-05 18:49:43.086298
32.12670895,0.1139799356,0.9199618697,-1.372286439,2024-06-05 18:49:43.126709
32.16719932,0.2143781483,0.7982590199,-1.861361504,2024-06-05 18:49:43.167199
32.20767848,0.1829537749,0.5256925225,-2.148708105,2024-06-05 18:49:43.207678
32.24815958,0.04394086078,0.2886781394,-2.301702261,2024-06-05 18:49:43.248160
32.2886539,-0.2356828004,0.122501798,-2.590114117,2024-06-05 18:49:43.288654
32.32915723,-0.1328878254,-0.2078536004,-2.124740362,2024-06-05 18:49:43.329157
32.36964791,-0.3520595133,-0.4834826291,-1.637130022,2024-06-05 18:49:43.369648
32.41011041,-0.3374125659,-0.2046578974,-0.9609733224,2024-06-05 18:49:43.410110
32.4505839,-0.1778939217,-0.1439396143,-0.3081186414,2024-06-05 18:49:43.450584
32.49107807,-0.1379476786,-0.03129122034,0.2712349594,2024-06-05 18:49:43.491078
32.53153765,0.09240896255,0.07536523789,0.6664364338,2024-06-05 18:49:43.531538
32.57204374,0.258452177,0.2316881865,0.8817466497,2024-06-05 18:49:43.572044
32.61252713,0.4193023443,0.3278254569,1.319024801,2024-06-05 18:49:43.612527
32.65300239,0.343937099,0.3310211599,1.796914935,2024-06-05 18:49:43.653002
32.69346989,0.3346163332,0.1094526947,2.235657692,2024-06-05 18:49:43.693470
32.73396526,0.1645784974,0.2266283184,2.296642303,2024-06-05 18:49:43.733965
32.77441807,0.1685731262,-0.1868152469,2.085459948,2024-06-05 18:49:43.774418
32.81491817,0.1438064575,-0.159651801,1.76762104,2024-06-05 18:49:43.814918
32.85541499,0.06444659829,-0.3300890923,1.593455434,2024-06-05 18:49:43.855415
32.8959276,-0.03009283356,-0.4856131077,1.186403275,2024-06-05 18:49:43.895928
32.93639708,-0.1981333494,-0.02916075476,0.4283568263,2024-06-05 18:49:43.936397
32.97687328,-0.05352795869,-0.08535179496,-0.1352845877,2024-06-05 18:49:43.976873
33.01734171,-0.005592473317,0.1019960642,-0.7553833723,2024-06-05 18:49:44.017342
33.05783869,0.0713706091,0.5613778234,-1.354710102,2024-06-05 18:49:44.057839
33.09831453,0.2074541301,0.747926712,-1.810230374,2024-06-05 18:49:44.098315
33.13881223,0.2355496585,0.4841484129,-1.964955449,2024-06-05 18:49:44.138812
33.17931567,0.2699034214,0.06897383928,-2.248973131,2024-06-05 18:49:44.179316
33.21978515,0.1083874628,0.07243584841,-2.569075823,2024-06-05 18:49:44.219785
33.26026046,0.1299584359,0.004660394508,-2.391714334,2024-06-05 18:49:44.260260
33.30075557,-0.1459369212,-0.4744281471,-1.915954709,2024-06-05 18:49:44.300756
33.34124593,-0.3579182923,-0.2986647189,-1.113701105,2024-06-05 18:49:44.341246
33.38173031,-0.1209039465,-0.2243647128,-0.4648410678,2024-06-05 18:49:44.381730
33.42218989,0.05086487532,-0.06058513001,0.3223661482,2024-06-05 18:49:44.422190
33.46266124,0.1057243794,-0.09200949967,0.6877411008,2024-06-05 18:49:44.462661
33.50314463,0.2861482203,0.1256974936,0.8400694132,2024-06-05 18:49:44.503145
33.54359999,0.3916063011,0.3648423254,1.044461012,2024-06-05 18:49:44.543600
33.58411734,0.3226324618,0.04607132822,1.336867452,2024-06-05 18:49:44.584117
33.62462786,0.2560553849,0.05778888986,1.64218986,2024-06-05 18:49:44.624628
33.66509604,-0.0260982085,-0.1362166703,2.039521694,2024-06-05 18:49:44.665096
33.70558223,-0.03248960897,0.2615146935,2.419410467,2024-06-05 18:49:44.705582
33.74606171,-0.2109161317,-0.2800231278,2.227668524,2024-06-05 18:49:44.746062
33.78653203,-0.1363498271,-0.3588503897,2.00357008,2024-06-05 18:49:44.786532
33.82711973,-0.2580527067,-0.8071803451,1.890655518,2024-06-05 18:49:44.827120
33.867499,-0.06870753318,-0.406519562,1.080412626,2024-06-05 18:49:44.867499
33.9080088,-0.3259612918,-0.1181077138,-0.03541899845,2024-06-05 18:49:44.908009
33.94846421,-0.1928071827,-0.258452177,-0.8608414531,2024-06-05 18:49:44.948464
33.98895614,-0.009853405878,0.3725652397,-1.149120092,2024-06-05 18:49:44.988956
34.02943765,0.05326165259,0.8496564627,-1.714093089,2024-06-05 18:49:45.029438
34.06990734,0.1041265279,0.9793485999,-2.570673704,2024-06-05 18:49:45.069907
34.11043104,0.1195724085,0.4697677493,-2.836049795,2024-06-05 18:49:45.110431
34.15088953,-0.03728315607,0.03834838793,-3.252289534,2024-06-05 18:49:45.150890
34.19141552,-0.5916038156,-0.1700378209,-3.167070866,2024-06-05 18:49:45.191416
34.23185114,-0.1355509013,0.01797580719,-2.841908455,2024-06-05 18:49:45.231851
34.27234114,-0.2881455421,0.002263620263,-2.307560921,2024-06-05 18:49:45.272341
34.31280057,-1.035939097,0.5595136285,-1.131810069,2024-06-05 18:49:45.312801
34.35329885,0.5465977192,-1.525280595,-0.4736292362,2024-06-05 18:49:45.353299
34.39379468,-0.4933360517,0.1256974936,0.3045234978,2024-06-05 18:49:45.393795
34.43428739,-0.09560466558,-0.09946613014,0.7620410919,2024-06-05 18:49:45.434287
34.47480744,0.002663082443,-0.1948044896,1.133141637,2024-06-05 18:49:45.474807
34.51524192,0.2941374779,-0.497064352,1.625678778,2024-06-05 18:49:45.515242
34.55572499,0.7428668737,-0.7717612982,2.710352182,2024-06-05 18:49:45.555725
34.59622359,1.317160606,0.5954652429,3.191571236,2024-06-05 18:49:45.596224
34.63668864,1.608368754,1.165498137,3.004622936,2024-06-05 18:49:45.636689
34.67724229,0.1989322603,0.6701647043,2.451367378,2024-06-05 18:49:45.677242
34.71772541,-0.2420742065,-0.5053198934,2.341382265,2024-06-05 18:49:45.717725
34.75814604,-0.0599193573,-0.7131735086,2.232462168,2024-06-05 18:49:45.758146
34.79862921,-0.4049217105,-0.8724258542,1.462165475,2024-06-05 18:49:45.798629
34.83912213,-0.530619204,-1.1155653,0.6565830112,2024-06-05 18:49:45.839122
34.87959963,-0.4379439354,-0.6990591884,0.1302247345,2024-06-05 18:49:45.879600
34.92007916,-0.148067385,-0.07416684926,-0.3676385581,2024-06-05 18:49:45.920079
34.96059505,0.2922733128,1.196389794,-0.9455274343,2024-06-05 18:49:45.960595
35.00104989,0.255256474,1.334736943,-1.317160606,2024-06-05 18:49:46.001050
35.04153161,0.09134373069,0.5360785127,-1.367226601,2024-06-05 18:49:46.041532
35.08203562,0.07989247888,0.08308817446,-1.350715518,2024-06-05 18:49:46.082036
35.12247072,-0.01251648832,-0.1529940963,-1.344324112,2024-06-05 18:49:46.122471
35.16296859,0.07456631213,-0.01770949923,-1.076684237,2024-06-05 18:49:46.162969
35.20345156,-0.1696383655,-0.2214353085,-1.281741619,2024-06-05 18:49:46.203452
35.24395052,0.06870753318,0.4308867455,-0.9832100868,2024-06-05 18:49:46.243951
35.28446598,-0.231421873,0.2772268951,-0.7884055972,2024-06-05 18:49:46.284466
35.32494182,0.3090507388,0.9681636691,-0.394269377,2024-06-05 18:49:46.324942
35.36541401,0.2888112962,0.128626883,-0.2079867423,2024-06-05 18:49:46.365414
35.40589895,0.6019898057,-0.005193010904,-0.4784227908,2024-06-05 18:49:46.405899
35.44637244,0.4619116783,0.001464695437,-0.7423342466,2024-06-05 18:49:46.446372
35.48689276,0.3628450036,-0.08242240548,-0.3921388984,2024-06-05 18:49:46.486893
35.52744437,0.186149478,-0.1713693589,0.02157096937,2024-06-05 18:49:46.527444
35.56783807,0.2640446424,-0.2246310115,0.7721607685,2024-06-05 18:49:46.567838
35.60833239,0.05326165259,-0.09147688746,1.599314213,2024-06-05 18:49:46.608332
35.64879203,-0.330222249,0.003328853287,1.854703903,2024-06-05 18:49:46.648792
35.68927442,-0.1872147024,-0.3681711555,1.853638649,2024-06-05 18:49:46.689274
35.7297638,0.02636451647,-0.9280842543,1.866421461,2024-06-05 18:49:46.729764
35.77022708,0.03275591508,-0.3175725937,1.805170536,2024-06-05 18:49:46.770227
35.81072588,-0.2532591522,-0.3255618513,1.208240509,2024-06-05 18:49:46.810726
35.85120328,-0.02263620123,-0.6633738875,0.762573719,2024-06-05 18:49:46.851203
35.89169926,-0.1142462417,-0.4563191831,0.3473991156,2024-06-05 18:49:46.891699
35.93219124,-0.1240996495,-0.03262276202,-0.4022586346,2024-06-05 18:49:46.932191
35.97264546,0.06258244067,0.1105179265,-1.127549171,2024-06-05 18:49:46.972645
36.01313468,0.03115806542,-0.006790860556,-1.654440045,2024-06-05 18:49:47.013135
36.05363166,0.1129147038,0.05912043154,-1.705837488,2024-06-05 18:49:47.053632
36.09412333,-0.009853405878,-0.08641702682,-2.384524107,2024-06-05 18:49:47.094123
36.13462255,-0.2750964165,-0.3812202811,-2.680392504,2024-06-05 18:49:47.134623
36.17509718,-0.4920045137,-0.8955946565,-2.79224205,2024-06-05 18:49:47.175097
36.21558744,-0.2700365782,-0.3447360396,-2.070946217,2024-06-05 18:49:47.215587
36.25606197,-0.3749620318,1.046191931,-1.10890758,2024-06-05 18:49:47.256062
36.29655208,-0.4427374899,0.1834863871,-1.01463449,2024-06-05 18:49:47.296552
36.33705026,-0.5159722567,-0.1529940963,-0.5354127288,2024-06-05 18:49:47.337050
36.37751869,-0.2412752807,-0.3551220596,-0.007722939365,2024-06-05 18:49:47.377519
36.41800953,-0.2053236663,-0.4941349626,0.1970681101,2024-06-05 18:49:47.418010
36.45849182,0.2850829959,-0.1482005417,0.6456643939,2024-06-05 18:49:47.458492
36.49896145,0.145404309,0.09134373069,1.188533783,2024-06-05 18:49:47.498961
36.53944124,0.3143768907,0.452457726,1.743653297,2024-06-05 18:49:47.539441
36.57991281,0.3620460629,-0.06191666797,2.320077419,2024-06-05 18:49:47.579913
36.62039676,0.7101109624,0.5813509226,1.707169056,2024-06-05 18:49:47.620397
36.66087994,0.4709661603,0.4260932207,2.162955761,2024-06-05 18:49:47.660880
36.70137192,0.1360835135,0.2532591522,2.015820265,2024-06-05 18:49:47.701372
36.74185088,-0.06391397864,-0.02063889056,1.771881938,2024-06-05 18:49:47.741851
36.78232713,0.01198387146,-0.4238295853,1.70823431,2024-06-05 18:49:47.782327
36.82285083,-0.0599193573,0.314776361,1.320090055,2024-06-05 18:49:47.822851
36.86328828,-0.2071878165,-0.1484668553,1.179745555,2024-06-05 18:49:47.863288
36.9038151,0.0005326165119,0.07669677585,0.2896102369,2024-06-05 18:49:47.903815
36.94427937,-0.02556559257,0.1443390697,-0.5434020162,2024-06-05 18:49:47.944279
36.98476322,0.05352795869,0.3933372796,-0.6717625856,2024-06-05 18:49:47.984763
37.02524281,0.4507267177,0.5914706588,-1.01756382,2024-06-05 18:49:48.025243
37.06574234,0.2205032408,0.9649679661,-1.626744032,2024-06-05 18:49:48.065742
37.10623479,0.0708379969,-0.028361829,-1.943384528,2024-06-05 18:49:48.106235
37.14672666,0.1350182891,-0.1356840581,-2.445242405,2024-06-05 18:49:48.146727
37.18719786,0.1821548492,0.4031907022,-2.248174191,2024-06-05 18:49:48.187198
37.22767041,-0.2055899799,-0.1122489274,-1.542191148,2024-06-05 18:49:48.227670
37.26818348,-0.146735847,-0.2730991244,-2.107963085,2024-06-05 18:49:48.268183
37.30862114,-0.2101172209,-0.5764242411,-1.668820739,2024-06-05 18:49:48.308621
37.34912729,-0.6749582887,-1.09106493,-1.315829039,2024-06-05 18:49:48.349127
37.38961546,-0.4991948307,-0.8250229955,-0.881613493,2024-06-05 18:49:48.389615
37.43008807,-0.3754946291,-1.079347372,-0.05326165259,2024-06-05 18:49:48.430088
37.47058463,-0.2972000241,-0.9246222377,0.3063876629,2024-06-05 18:49:48.470585
37.5110752,-0.08095771074,-0.8260881901,0.4395417869,2024-06-05 18:49:48.511075
37.55154749,-0.2298240215,-1.332207084,0.3673722446,2024-06-05 18:49:48.551547
37.59202276,-0.07536523789,-0.8756215572,0.3950682878,2024-06-05 18:49:48.592023
37.6325065,0.3045234978,-0.9078448415,0.8291507363,2024-06-05 18:49:48.632506
37.67299031,0.2263620198,-1.333538532,0.5902722478,2024-06-05 18:49:48.672990
37.71346868,-0.0037283157,-1.621684074,0.5463314056,2024-06-05 18:49:48.713469
37.75397618,0.1664426625,-0.6226286888,0.8647028804,2024-06-05 18:49:48.753976
37.79442639,0.656050384,-0.1234338731,1.63100493,2024-06-05 18:49:48.794426
37.83490686,0.5460650921,0.5219641924,1.270290375,2024-06-05 18:49:48.834907
37.87542946,0.8184984326,2.062157869,0.6440665126,2024-06-05 18:49:48.875429
37.91589004,1.540193796,-1.607037187,1.835263371,2024-06-05 18:49:48.915890
37.95641639,2.576798677,0.3097164929,0.2101172209,2024-06-05 18:49:48.956416
37.99688915,1.364829779,0.4998605847,-0.3531247377,2024-06-05 18:49:48.996889
38.03731618,0.04447348043,-0.3881442845,-0.04021254554,2024-06-05 18:49:49.037316
38.07783879,-1.40504241,-0.9488562942,-1.029281378,2024-06-05 18:49:49.077839
38.11832285,-1.327280402,-0.2485987544,-1.323285699,2024-06-05 18:49:49.118323
38.1587879,-0.09933298081,0.7143719196,-0.3387441039,2024-06-05 18:49:49.158788
38.19931207,0.3497959077,0.6928009391,0.4363460839,2024-06-05 18:49:49.199312
38.23975707,-0.4792217016,0.1323551983,-0.5359453559,2024-06-05 18:49:49.239757
38.28027051,-1.278013349,-0.3050560951,-0.4049217105,2024-06-05 18:49:49.280271
38.32075644,-1.538995385,-0.9959928989,0.04127778113,2024-06-05 18:49:49.320756
38.36123827,-1.439396143,-0.7770875096,-0.1296921223,2024-06-05 18:49:49.361238
38.40172238,-0.6416697502,-0.8505885601,-0.3745625615,2024-06-05 18:49:49.401722
38.44219884,0.5111786723,-1.175484657,0.1169093251,2024-06-05 18:49:49.442199
38.48268295,0.9784165621,-0.2403431982,0.02769605815,2024-06-05 18:49:49.482683
38.52312978,1.196256638,-0.8676322699,0.4286231399,2024-06-05 18:49:49.523130
38.56362894,0.932078898,-1.0947932,0.1011971384,2024-06-05 18:49:49.563629
38.60411837,0.2098509073,-0.07469946891,0.3990629315,2024-06-05 18:49:49.604118
38.64461124,0.4991948307,0.08814803511,0.6382077336,2024-06-05 18:49:49.644611
38.68509967,0.7615084648,-0.3892095089,0.4520582557,2024-06-05 18:49:49.685100
38.72558374,-0.09214265645,-0.6580476761,0.1371487528,2024-06-05 18:49:49.725584
38.76604894,-1.473483562,-1.625412464,1.155777812,2024-06-05 18:49:49.766049
38.80652639,-2.463617563,-3.453485489,2.695172787,2024-06-05 18:49:49.806526
38.84702884,-3.479850054,-4.252943039,2.488117933,2024-06-05 18:49:49.847029
38.88751993,-2.492112637,-4.850405216,2.046978474,2024-06-05 18:49:49.887520
38.92802389,-0.930880487,-4.648676872,0.4227643609,2024-06-05 18:49:49.928024
38.96847879,-1.372552752,-4.593284607,0.1970681101,2024-06-05 18:49:49.968479
39.00896223,-0.8872059584,-6.05132246,-0.2005301118,2024-06-05 18:49:50.008962
39.04943384,0.8860075474,-4.791152,-1.503842711,2024-06-05 18:49:50.049434
39.0899404,1.959895611,-4.329106808,-1.952705264,2024-06-05 18:49:50.089940
39.13042936,2.775864124,-3.609542131,-2.642310619,2024-06-05 18:49:50.130429
39.17091306,3.967859745,-2.473870516,-2.944703579,2024-06-05 18:49:50.170913
39.21138577,3.836170435,-2.033796072,-2.198907375,2024-06-05 18:49:50.211386
39.25187894,3.46094203,-0.5500596762,-2.612217665,2024-06-05 18:49:50.251879
39.29234394,3.261077642,0.05059856921,-2.383725166,2024-06-05 18:49:50.292344
39.33282775,2.50276494,0.3499290347,-1.500913382,2024-06-05 18:49:50.332828
39.37330952,2.341914892,0.3320863843,-0.8834776282,2024-06-05 18:49:50.373310
39.41379572,1.880802035,0.6485937834,-0.9266195893,2024-06-05 18:49:50.413796
39.45429889,1.493323565,0.9050486088,-0.625158608,2024-06-05 18:49:50.454299
39.49478124,1.05990684,0.1800243855,-0.618500948,2024-06-05 18:49:50.494781
39.53526004,0.6725615263,0.8736242056,-0.5380758047,2024-06-05 18:49:50.535260
39.57575222,1.217295051,1.34938395,-0.9109073877,2024-06-05 18:49:50.575752
39.6162378,0.9571118951,0.9306141734,-0.4395417869,2024-06-05 18:49:50.616238
39.65671353,0.2291582525,0.05805519968,-0.02529928461,2024-06-05 18:49:50.656714
39.69719858,0.3372794092,-0.7898702621,0.5657718778,2024-06-05 18:49:50.697199
39.73767577,0.1240996495,-1.789724588,1.120358825,2024-06-05 18:49:50.737676
39.77813806,-0.01225017942,-1.426213861,0.551923871,2024-06-05 18:49:50.778138
39.81863228,0.2266283184,-0.259783715,-0.3777582645,2024-06-05 18:49:50.818632
39.85914592,0.07829462737,-0.583747685,-0.1744319052,2024-06-05 18:49:50.859146
39.89963405,0.1230344176,-0.1005313694,-0.3501953483,2024-06-05 18:49:50.899634
39.94011566,0.1874810159,0.2215684652,-0.6959966421,2024-06-05 18:49:50.940116
39.98059837,0.2770937383,0.1536598653,-0.5186353326,2024-06-05 18:49:50.980598
40.02103874,-0.222367391,1.164699197,-0.4920045137,2024-06-05 18:49:51.021039
40.06154785,-0.1302247345,1.345123053,-0.6062507629,2024-06-05 18:49:51.061548
40.10204722,-0.0708379969,3.380916357,-1.820616364,2024-06-05 18:49:51.102047
40.14253233,-0.6073159575,5.397003174,-3.014209986,2024-06-05 18:49:51.142532
40.18298915,-0.7420679331,7.836653233,-2.906621456,2024-06-05 18:49:51.182989
40.22351196,-1.525147438,7.908822536,-2.425003052,2024-06-05 18:49:51.223512
40.26398311,-2.07121253,6.039738178,-1.169625878,2024-06-05 18:49:51.263983
40.30446749,-1.88559556,1.381074667,2.244446039,2024-06-05 18:49:51.304467
40.34493108,-1.5475173,1.435135245,1.932199597,2024-06-05 18:49:51.344931
40.38543988,-0.4328840673,1.79837966,0.8971925378,2024-06-05 18:49:51.385440
40.42592092,-0.6967955232,0.9447285533,1.802773714,2024-06-05 18:49:51.425921
40.46640462,-1.811828256,0.4463326335,2.837647676,2024-06-05 18:49:51.466405
40.50688894,-3.700086832,0.1563229412,2.953225374,2024-06-05 18:49:51.506889
40.54733014,-3.152956486,-1.538063288,1.67627728,2024-06-05 18:49:51.547330
40.58784499,-1.338731647,-3.00568819,1.233273506,2024-06-05 18:49:51.587845
40.62830681,-1.048988223,-2.486387014,2.139520645,2024-06-05 18:49:51.628307
40.66879353,-0.8941299915,-0.04593817517,1.047390342,2024-06-05 18:49:51.668794
40.70928973,-0.009320789017,1.658567786,-1.046591401,2024-06-05 18:49:51.709290
40.74975353,-0.2442046702,1.025153637,-1.572283983,2024-06-05 18:49:51.749754
40.79027431,-0.9806801677,0.6424686909,-1.830203533,2024-06-05 18:49:51.790274
40.8307442,-0.3715000153,1.482005477,-1.920748353,2024-06-05 18:49:51.830744
40.87121545,1.191196799,1.195857167,-1.902905583,2024-06-05 18:49:51.871215
40.91172686,0.3370130956,1.323552012,-1.888525009,2024-06-05 18:49:51.911727
40.95219691,-0.01837527007,0.2817541361,-1.497717619,2024-06-05 18:49:51.952197
40.99266629,-0.4009270668,0.2732322812,-0.7170349956,2024-06-05 18:49:51.992666
41.03313535,-0.7527202964,-0.9627043605,-0.1078548431,2024-06-05 18:49:52.033135
41.07370103,-1.845116735,-2.368279219,0.65871346,2024-06-05 18:49:52.073701
41.11413061,-3.340970278,-2.295843363,0.892665267,2024-06-05 18:49:52.114131
41.15459863,-3.961069107,-2.555360794,1.350182891,2024-06-05 18:49:52.154599
41.19510525,-0.5282224417,-0.7049179673,-0.4312862158,2024-06-05 18:49:52.195105
41.23559228,2.054701328,-0.3633776009,-1.955634713,2024-06-05 18:49:52.235592
41.27605978,1.871747613,-1.588129282,-2.261755943,2024-06-05 18:49:52.276060
41.3165441,0.990933001,-2.60702467,-3.237642527,2024-06-05 18:49:52.316544
41.35711525,0.3093170524,-1.005846262,-2.710751772,2024-06-05 18:49:52.357115
41.39751389,0.3711005449,1.089333892,-0.3294233084,2024-06-05 18:49:52.397514
41.43800972,0.8355421424,1.58240366,-0.5055862069,2024-06-05 18:49:52.438010
41.47847452,0.1699046642,1.138867259,-0.5063851476,2024-06-05 18:49:52.478475
41.51895509,0.383883357,-1.189199567,0.4728302956,2024-06-05 18:49:52.518955
41.55944384,0.4704335332,-1.140331984,0.2039921284,2024-06-05 18:49:52.559444
41.59995999,0.3007951677,-0.1956034154,-0.305721879,2024-06-05 18:49:52.599960
41.64042827,-0.4251611233,0.2524602413,0.3324858546,2024-06-05 18:49:52.640428
41.68090613,-0.09746882319,0.4450010955,0.2501966059,2024-06-05 18:49:52.680906
41.72138493,-0.204258427,0.6149057746,0.347132802,2024-06-05 18:49:52.721385
41.76188535,-0.4555202723,0.9591091871,-0.2942706347,2024-06-05 18:49:52.761885
41.80238316,0.1174419373,1.604240894,-1.25804019,2024-06-05 18:49:52.802383
41.84286806,0.9573782086,1.016099095,-1.552310824,2024-06-05 18:49:52.842868
41.88335077,0.984275341,0.1818885356,-2.61035347,2024-06-05 18:49:52.883351
41.92380134,1.028748751,-0.1031944528,-3.24536562,2024-06-05 18:49:52.923801
41.96430269,0.7420679331,-0.8082455397,-3.363073826,2024-06-05 18:49:52.964303
42.00477993,1.151783228,-2.948698282,-3.32925272,2024-06-05 18:49:53.004780
42.045264,2.199173689,-4.414325714,-3.302888155,2024-06-05 18:49:53.045264
42.08574322,1.787061572,-0.1708367467,-3.254952669,2024-06-05 18:49:53.085743
42.12621983,0.0037283157,2.023543358,-1.90636766,2024-06-05 18:49:53.126220
42.16672358,-0.6935998797,0.760176897,-1.320356369,2024-06-05 18:49:53.166724
42.20723499,-0.7836120725,0.9204944968,-1.352046967,2024-06-05 18:49:53.207235
42.24769222,-0.1057243794,0.01105179265,-1.423950195,2024-06-05 18:49:53.247692
42.28818259,0.7218285203,0.308917582,-1.469222665,2024-06-05 18:49:53.288183
42.32862374,0.7157034278,-0.4163729548,-1.483869553,2024-06-05 18:49:53.328624
42.36912118,0.5625761747,0.1379476786,-1.095592141,2024-06-05 18:49:53.369121
42.40962056,0.7596443295,1.807700396,-0.8113080859,2024-06-05 18:49:53.409621
42.45011644,0.8425993323,2.075206995,-0.6435338855,2024-06-05 18:49:53.450116
42.49061243,0.8394036293,1.192927837,-1.391460657,2024-06-05 18:49:53.490612
42.5310591,1.246056318,0.06045197323,-1.673614264,2024-06-05 18:49:53.531059
42.57157332,1.255909681,1.01050663,-0.970826745,2024-06-05 18:49:53.571573
42.61203196,0.001331541222,1.156976223,-0.2252967805,2024-06-05 18:49:53.612032
42.65250426,-0.04420717061,-0.9435301423,-0.05459319428,2024-06-05 18:49:53.652504
42.69298306,-0.5386084318,-2.789978504,0.2810883522,2024-06-05 18:49:53.692983
42.73347972,0.9818785191,-2.934051275,-0.7058500051,2024-06-05 18:49:53.733480
42.77399212,0.104392834,-1.893185377,0.4334166944,2024-06-05 18:49:53.773992
42.81445775,-0.3728315532,-1.429942131,0.7591117024,2024-06-05 18:49:53.814458
42.85493472,0.2271609455,-0.9848079085,0.4390091598,2024-06-05 18:49:53.854935
42.89541285,0.2693707943,-0.7049179673,1.0109061,2024-06-05 18:49:53.895413
42.93589004,0.3524589837,-1.440860868,0.3130453527,2024-06-05 18:49:53.935890
42.97638405,0.2197043151,-1.213699818,0.2509955168,2024-06-05 18:49:53.976384
43.01686311,0.172567755,-1.374283791,0.3146432042,2024-06-05 18:49:54.016863
43.05736905,0.497064352,-2.360290051,0.2428731322,2024-06-05 18:49:54.057369
43.09785473,0.4965317547,-1.700245023,0.1320888996,2024-06-05 18:49:54.097855
43.13831462,0.1504641622,-1.136603594,-0.2023942769,2024-06-05 18:49:54.138315
43.17881348,-0.5247604251,-0.8239577413,0.3700353205,2024-06-05 18:49:54.178813
43.21930941,-1.248719454,-0.5452661514,1.250583529,2024-06-05 18:49:54.219309
43.25977587,-1.156310439,0.1312899739,0.8939968348,2024-06-05 18:49:54.259776
43.30025915,-0.6027887464,-0.3330184817,0.9757534266,2024-06-05 18:49:54.300259
43.34073311,0.03888100386,-1.10890758,1.008775711,2024-06-05 18:49:54.340733
43.3812115,0.6568493247,-1.428344369,0.68321383,2024-06-05 18:49:54.381211
43.42170311,0.7095783353,-0.4571181238,0.7764217257,2024-06-05 18:49:54.421703
43.46217738,0.2723001838,-0.0352858454,0.8073135018,2024-06-05 18:49:54.462177
43.50264098,-0.0868164897,0.73221457,0.3620460629,2024-06-05 18:49:54.502641
43.54313572,-0.398796618,0.9452611804,0.4267589748,2024-06-05 18:49:54.543136
43.58361311,-0.1259638071,0.5339480639,0.4270252883,2024-06-05 18:49:54.583613
43.62413155,0.4099815488,0.05698996782,0.1762960702,2024-06-05 18:49:54.624132
43.66461499,0.8123733401,-0.1442059278,0.1837527007,2024-06-05 18:49:54.664615
43.70509499,0.6770887375,-0.2946700752,0.0926752761,2024-06-05 18:49:54.705095
43.74557629,0.4430037737,-0.151928857,0.06391397864,2024-06-05 18:49:54.745576
43.78602488,-0.05885412544,0.195203945,0.1003982127,2024-06-05 18:49:54.786025
43.82655176,-0.4917382002,0.5251598954,-0.02796236612,2024-06-05 18:49:54.826552
43.86702311,-0.2671071887,0.6109111309,0.3860138059,2024-06-05 18:49:54.867023
43.90750983,0.3178389072,0.4268921316,0.414242506,2024-06-05 18:49:54.907510
43.94801405,0.3436708152,0.2905423045,0.1707035899,2024-06-05 18:49:54.948014
43.98847561,0.3292901516,0.008921326138,0.1781602204,2024-06-05 18:49:54.988476
44.02898452,0.230756104,-0.08694964647,0.116643019,2024-06-05 18:49:55.028985
44.06945238,-0.1041265279,-0.171901986,0.04979964346,2024-06-05 18:49:55.069452
44.10993764,-0.4344819188,-0.4304873049,0.05272903293,2024-06-05 18:49:55.109938
44.15040863,-0.6017234921,-0.1524614692,-0.8206288815,2024-06-05 18:49:55.150409
44.19089816,-0.3209014535,0.3195699155,-0.7758890986,2024-06-05 18:49:55.190898
44.23141644,0.2205032408,0.4399412274,0.1006645188,2024-06-05 18:49:55.231416
44.27186712,0.333551079,0.3099828064,0.385214895,2024-06-05 18:49:55.271867
44.31235072,0.6882736683,0.3656412363,0.2090519816,2024-06-05 18:49:55.312351
44.35281384,1.097456336,0.2937380075,0.3934704363,2024-06-05 18:49:55.352814
44.39330603,1.32115531,-0.04806863889,0.5026568174,2024-06-05 18:49:55.393306
44.43380124,1.466959,-0.07682993263,0.3340837061,2024-06-05 18:49:55.433801
44.47429327,1.24845314,0.1723014414,0.06418029219,2024-06-05 18:49:55.474293
44.51477249,0.8665670753,0.04260931909,-0.02742975019,2024-06-05 18:49:55.514772
44.55525608,0.1741656065,-0.1908098608,0.02689713426,2024-06-05 18:49:55.555256
44.5957342,-0.2769605815,0.2458025217,-0.1864157766,2024-06-05 18:49:55.595734
44.63621233,-0.3424724042,0.2061225921,-0.02849498391,2024-06-05 18:49:55.636212
44.67670915,0.06524552405,-0.2017285079,0.4214328229,2024-06-05 18:49:55.676709
44.71720202,0.4368786812,-0.4091826379,0.3924052119,2024-06-05 18:49:55.717202
44.7576503,-0.001331541222,-0.1066564545,0.1837527007,2024-06-05 18:49:55.757650
44.79812374,0.1520620137,0.6255580783,0.3921388984,2024-06-05 18:49:55.798124
44.83864655,0.6432675719,0.62049824,0.5812177658,2024-06-05 18:49:55.838647
44.87913514,0.7042521834,0.6103785038,0.634745717,2024-06-05 18:49:55.879135
44.91963134,0.5207657814,0.860308826,0.4656399786,2024-06-05 18:49:55.919631
44.96009848,0.4094489515,1.298519015,0.3370130956,2024-06-05 18:49:55.960098
45.00057014,0.3356815577,1.870948672,0.3900084496,2024-06-05 18:49:56.000570
45.04107514,-0.3280917704,0.4649742246,-0.1802906841,2024-06-05 18:49:56.041075
45.08155931,-0.0005326165119,0.2987978756,-0.1326215118,2024-06-05 18:49:56.081559
45.12206457,-0.3836170435,-0.6212971807,0.008255556226,2024-06-05 18:49:56.122065
45.16251082,-0.5452661514,-0.6710968018,-0.3828181326,2024-06-05 18:49:56.162511
45.20297551,-0.6062507629,-0.2278267145,-0.3969324529,2024-06-05 18:49:56.202976
45.24349249,-0.8406019807,-0.5596467853,-0.2463351339,2024-06-05 18:49:56.243492
45.28397197,-0.8949288726,-0.9669652581,-0.3358147144,2024-06-05 18:49:56.283972
45.3244665,-0.7748238444,-0.6468627453,-0.1901440918,2024-06-05 18:49:56.324466
45.36494217,-0.701322794,-0.2816209793,-0.1070559174,2024-06-05 18:49:56.364942
45.40544082,-0.8195636868,0.1193061024,-0.06045197323,2024-06-05 18:49:56.405441
45.44592072,-0.4278241992,0.5358121991,0.02396774292,2024-06-05 18:49:56.445921
45.48637795,-0.3336842358,0.7694976926,-0.03089175746,2024-06-05 18:49:56.486378
45.52687822,-0.4515256584,0.562443018,-0.0820229426,2024-06-05 18:49:56.526878
45.56733754,-0.2002638131,-0.2517944574,-0.2524602413,2024-06-05 18:49:56.567338
45.60781368,-0.4704335332,-0.7477935553,-0.4797543287,2024-06-05 18:49:56.607814
45.64831374,-0.77748698,-0.7983921766,-0.5825493336,2024-06-05 18:49:56.648314
45.68882061,-0.6959966421,-1.478410244,-0.6917356849,2024-06-05 18:49:56.688821
45.72927863,0.1667089611,-1.21609664,-0.3660407066,2024-06-05 18:49:56.729279
45.76976087,0.6278216839,-0.3079854846,0.1312899739,2024-06-05 18:49:56.769761
45.81023832,0.5340812206,0.4652405083,0.4946675897,2024-06-05 18:49:56.810238
45.85073202,0.5897396207,0.5179695487,0.06657706201,2024-06-05 18:49:56.850732
45.89121514,0.4030575454,-0.1263632625,0.03035914153,2024-06-05 18:49:56.891215
45.93171603,0.6840127707,0.2671071887,0.4206338823,2024-06-05 18:49:56.931716
45.97219499,1.198387146,0.6351451874,0.1922745556,2024-06-05 18:49:56.972195
46.01263889,1.040199995,-0.03075860441,0.1731003672,2024-06-05 18:49:57.012639
46.05314191,0.7641715407,-0.09973244369,0.2335523367,2024-06-05 18:49:57.053142
46.09365217,0.4587159753,0.239144817,0.1416759938,2024-06-05 18:49:57.093652
46.13414848,0.1611164957,0.2298240215,0.05459319428,2024-06-05 18:49:57.134148
46.17461457,-0.05539211631,-0.1969349533,-0.1326215118,2024-06-05 18:49:57.174615
46.21508087,0.1206376404,-0.04593817517,-0.0705716908,2024-06-05 18:49:57.215081
46.25558624,0.03941362351,-0.02356828004,0.007190322969,2024-06-05 18:49:57.255586
46.29608233,0.139012903,0.08947957307,-0.01038602181,2024-06-05 18:49:57.296082
46.33656238,-0.1126483902,0.06151720881,-0.1307573467,2024-06-05 18:49:57.336562
46.37703332,-0.3190372884,0.2183727771,-0.06764229387,2024-06-05 18:49:57.377033
46.41752702,-0.018907886,0.2671071887,0.04793548584,2024-06-05 18:49:57.417527
46.45799467,0.1888125539,0.02197043039,0.00186415785,2024-06-05 18:49:57.457995
46.49847207,0.1904104054,0.05725627393,-0.09533835202,2024-06-05 18:49:57.498472
46.53895837,0.1155777797,0.1731003672,-0.09427312016,2024-06-05 18:49:57.538958
46.57944389,0.09666989744,0.2641777992,-0.01864157803,2024-06-05 18:49:57.579444
46.61994446,0.3157084286,0.5248935819,0.1262301207,2024-06-05 18:49:57.619944
46.66044389,0.2981320918,0.4982627332,0.1736329794,2024-06-05 18:49:57.660444
46.70092301,0.3093170524,0.3778914213,0.3042571843,2024-06-05 18:49:57.700923
46.7413892,0.1893451661,0.05246272683,0.1414096802,2024-06-05 18:49:57.741389
46.78183311,-0.2503297627,-0.3601819277,-0.05832150951,2024-06-05 18:49:57.781833
46.8223166,-0.1826874614,-0.2707023323,0.02636451647,2024-06-05 18:49:57.822317
46.86282186,0.239810586,-0.1055912226,0.1970681101,2024-06-05 18:49:57.862822
46.90329582,0.1696383655,-0.2195711583,0.239144817,2024-06-05 18:49:57.903296
46.94378139,0.1549914032,-0.1367492825,0.1113168523,2024-06-05 18:49:57.943781
46.98429473,0.0490007177,0.1049254537,0.01065232977,2024-06-05 18:49:57.984295
47.02478889,-0.1219691783,0.04793548584,0.04127778113,2024-06-05 18:49:58.024789
47.0652417,0.01384802908,0.1382139921,0.1019960642,2024-06-05 18:49:58.065242
47.10573577,-0.08974587917,0.440207541,0.2154433727,2024-06-05 18:49:58.105736
47.1462154,-0.163513273,0.7228937745,0.2573869228,2024-06-05 18:49:58.146215
47.18669931,-0.02849498391,0.6997249722,0.2079867423,2024-06-05 18:49:58.186699
47.22719134,-0.03089175746,0.4934692085,0.1611164957,2024-06-05 18:49:58.227191
47.26768379,-0.1563229412,0.6837464571,0.0007989247679,2024-06-05 18:49:58.267684
47.30817545,-0.1051917598,1.086138248,0.03754946589,2024-06-05 18:49:58.308175
47.34865087,-0.2047910541,0.8677654266,0.08788172156,2024-06-05 18:49:58.348651
47.38914978,-0.09853405505,0.7508561015,-0.3078523576,2024-06-05 18:49:58.389150
47.42962931,-0.2394111156,0.7423342466,-0.4896077216,2024-06-05 18:49:58.429629
47.47008202,-0.2524602413,-0.4294220507,-0.3597824574,2024-06-05 18:49:58.470082
47.51056358,-0.4177044928,-0.4706998467,-0.4408733249,2024-06-05 18:49:58.510564
47.55107207,-0.8752220869,-0.5218310356,-0.3932041526,2024-06-05 18:49:58.551072
47.59154301,-1.099853039,-0.8583115339,-0.3766930401,2024-06-05 18:49:58.591543
47.63201973,-1.166962743,-1.25551033,-0.3544562757,2024-06-05 18:49:58.632020
47.67248816,-0.885608077,-1.082010388,-0.3651086092,2024-06-05 18:49:58.672488
47.71296676,-0.5543206334,-0.6932004094,-0.1981333494,2024-06-05 18:49:58.712967
47.75347566,-0.4611127377,-0.5085155964,-0.4043890834,2024-06-05 18:49:58.753476
47.79395915,-0.339276731,-0.2573869228,-0.4949339032,2024-06-05 18:49:58.793959
47.83443467,-0.3507279754,0.06737598777,-0.006125089712,2024-06-05 18:49:58.834435
47.87492353,-0.1970681101,-0.06165036187,0.2189053893,2024-06-05 18:49:58.874924
47.91540478,-0.0005326165119,-0.1258306503,0.1462032348,2024-06-05 18:49:58.915405
47.95592655,0.1901440918,-0.02330197208,0.2394111156,2024-06-05 18:49:58.955927
47.9964028,0.3918725848,-0.06990591437,0.2730991244,2024-06-05 18:49:58.996403
48.03692228,0.622495532,-0.02623136342,0.28241992,2024-06-05 18:49:59.036922
48.07733743,0.8360747695,0.09613727778,0.2544575334,2024-06-05 18:49:59.077337
48.11788264,0.4379439354,-0.4565854967,0.252060771,2024-06-05 18:49:59.117883
48.15829962,-0.0221035853,-0.6700315475,0.03595161438,2024-06-05 18:49:59.158300
48.19879915,-0.01198387146,-0.2762948275,0.1462032348,2024-06-05 18:49:59.198799
48.23926702,0.3836170435,-0.1828206182,0.1965354979,2024-06-05 18:49:59.239267
48.27977827,0.5788210034,-0.3447360396,0.2037258148,2024-06-05 18:49:59.279778
48.32026535,0.6738930345,-0.2110492885,0.1696383655,2024-06-05 18:49:59.320265
48.36073144,0.4440690279,-0.1836195439,0.1014634445,2024-06-05 18:49:59.360731
48.40121577,0.0117175635,0.1384802908,0.24234052,2024-06-05 18:49:59.401216
48.44168598,0.1334204376,1.117828846,0.5010589957,2024-06-05 18:49:59.441686
48.48217353,0.143540144,0.3515268862,0.1182408631,2024-06-05 18:49:59.482174
48.52265655,0.104392834,-0.06457975507,-0.05432688445,2024-06-05 18:49:59.522657
48.56313988,0.08468602598,0.3861469626,0.02822867595,2024-06-05 18:49:59.563140
48.6036315,-0.190676704,0.06684337556,-0.367105931,2024-06-05 18:49:59.603631
48.6441279,0.09746882319,0.1696383655,-0.2399437428,2024-06-05 18:49:59.644128
48.68461196,0.1509967744,0.2972000241,-0.1627143472,2024-06-05 18:49:59.684612
48.7250753,0.1584534049,0.2758953571,-0.270835489,2024-06-05 18:49:59.725075
48.7655504,0.03648423031,0.08868064731,-0.2782921195,2024-06-05 18:49:59.765550
48.8060429,-0.3408745527,-0.4438027143,-0.3703016341,2024-06-05 18:49:59.806043
48.84657295,-0.1342193633,-0.05339480564,-0.168040514,2024-06-05 18:49:59.846573
48.88705754,0.3090507388,0.2367480397,0.4307536185,2024-06-05 18:49:59.887058
48.92751665,0.3093170524,-0.3772256374,0.1757634431,2024-06-05 18:49:59.927517
48.9680129,0.600391984,0.03382114694,0.2308892608,2024-06-05 18:49:59.968013
49.00848551,-0.02423405088,-0.1167761683,0.01091863867,2024-06-05 18:50:00.008486
49.04894858,-0.1738992929,0.1624480337,-0.2284924835,2024-06-05 18:50:00.048949
49.08943848,-0.1976007223,-0.004926702939,-0.02583190054,2024-06-05 18:50:00.089438
49.12994545,-0.3833507299,-0.7395380139,-0.2388785034,2024-06-05 18:50:00.129945
49.17042525,0.5633751154,0.4655068219,0.1616491079,2024-06-05 18:50:00.170425
49.21090019,0.9874709845,0.4633763731,0.8153027296,2024-06-05 18:50:00.210900
49.2513854,0.5359453559,-0.3793561161,0.09613727778,2024-06-05 18:50:00.251385
49.29185926,0.8886706233,0.667767942,0.1989322603,2024-06-05 18:50:00.291859
49.33234311,-0.3707011044,-0.2664414048,-0.104392834,2024-06-05 18:50:00.332343
49.37282738,-0.9284837246,0.3597824574,-0.7095783353,2024-06-05 18:50:00.372827
49.41331082,0.9824111462,1.887459755,0.9406007528,2024-06-05 18:50:00.413311
49.45380337,1.318758488,0.3898752928,0.8846760392,2024-06-05 18:50:00.453803
49.49428519,0.489341408,0.3014609516,-0.104392834,2024-06-05 18:50:00.494285
49.53476545,0.1651111245,1.341128349,-0.1283605844,2024-06-05 18:50:00.534765
49.57523764,-0.1493989378,0.93407619,-0.6970618367,2024-06-05 18:50:00.575238
49.61572243,-1.34192729,1.061371565,-1.182142377,2024-06-05 18:50:00.615722
49.65621108,-0.5263582468,1.00384903,-0.6738930345,2024-06-05 18:50:00.656211
49.69669738,-0.3073197305,0.09453943372,-0.4477973282,2024-06-05 18:50:00.696697
49.7371792,-0.05432688445,-0.5127765536,0.08308817446,2024-06-05 18:50:00.737179
49.77763368,-0.1893451661,-0.1410102248,0.1781602204,2024-06-05 18:50:00.777634
49.81813696,-0.3934704363,-0.5713643432,-0.01624480449,2024-06-05 18:50:00.818137
49.85864045,-0.3464670479,-0.6351451874,-0.1978670359,2024-06-05 18:50:00.858640
49.8991316,-0.3326190114,-0.4722976983,-0.3222329915,2024-06-05 18:50:00.899132
49.93961983,-0.2985315621,-0.6029219031,-0.1395455301,2024-06-05 18:50:00.939620
49.98010509,-0.2958684862,-0.8207620382,-0.007190322969,2024-06-05 18:50:00.980105
50.02056889,-0.09853405505,-1.205710649,0.03888100386,2024-06-05 18:50:01.020569
50.06106019,0.1685731262,-0.9432638288,-0.000266308256,2024-06-05 18:50:01.061060
50.10153441,0.1240996495,-0.3924052119,-0.1382139921,2024-06-05 18:50:01.101534
50.1420115,0.1914756298,0.03382114694,-0.01917419396,2024-06-05 18:50:01.142012
50.18249415,0.4011933804,-0.06750914454,0.1925408691,2024-06-05 18:50:01.182494
50.2229766,0.270169735,-0.4105141759,0.2581858635,2024-06-05 18:50:01.222977
50.26345884,0.1999974996,-0.3103822768,0.5575163364,2024-06-05 18:50:01.263459
50.30395587,-0.1448716968,-0.4973306656,0.3396761715,2024-06-05 18:50:01.303956
50.34447144,-0.7415353656,-0.715570271,-0.2764279842,2024-06-05 18:50:01.344471
50.3849192,-0.875754714,-0.5319507122,-0.1826874614,2024-06-05 18:50:01.384919
50.42543249,-0.09880036116,-0.5607120395,0.03541899845,2024-06-05 18:50:01.425432
50.46588598,0.3804213405,-0.2667077184,0.009320789017,2024-06-05 18:50:01.465886
50.50635598,0.5231625438,-0.2677729428,0.3263607621,2024-06-05 18:50:01.506356
50.54683952,0.3918725848,-0.2784252763,0.3734973371,2024-06-05 18:50:01.546840
50.58734285,0.4685693681,-0.01930734888,0.1792254597,2024-06-05 18:50:01.587343
50.62784426,0.5111786723,0.4617785215,0.2563216984,2024-06-05 18:50:01.627844
50.66833103,0.4107804894,0.2801562846,-0.04207670316,2024-06-05 18:50:01.668331
50.70880139,0.3300890923,0.3430050313,-0.1826874614,2024-06-05 18:50:01.708801
50.74924801,0.4975969791,0.5326164961,0.001065233024,2024-06-05 18:50:01.749248
50.78972566,0.4400743842,0.349662751,0.08788172156,2024-06-05 18:50:01.789726
50.83024155,0.09187635034,0.2197043151,-0.09480573982,2024-06-05 18:50:01.830242
50.87072348,-0.04154408723,0.3936035931,-0.1027949899,2024-06-05 18:50:01.870723
50.91120822,0.1219691783,0.2969337106,-0.07030537724,2024-06-05 18:50:01.911208
50.95167931,0.195203945,0.1059906855,-0.1946713328,2024-06-05 18:50:01.951679
50.99216629,0.09666989744,0.2418078929,-0.1515294015,2024-06-05 18:50:01.992166
51.03270238,-0.1478010863,0.1536598653,-0.1262301207,2024-06-05 18:50:02.032702
51.07311431,-0.3398093283,0.08761541545,-0.2015953511,2024-06-05 18:50:02.073114
51.11358728,-0.2700365782,0.09081111848,-0.01731003635,2024-06-05 18:50:02.113587
51.15411077,0.03967992961,-0.07656362653,0.1235670298,2024-06-05 18:50:02.154111
51.19463144,0.1488663107,-0.2272941023,0.139012903,2024-06-05 18:50:02.194631
51.2351003,-0.018907886,-0.1503310055,0.06151720881,2024-06-05 18:50:02.235100
51.27558004,0.2053236663,0.01904104091,0.1264964193,2024-06-05 18:50:02.275580
51.31606374,0.3103822768,-0.1122489274,0.09054480493,2024-06-05 18:50:02.316064
51.35653707,0.1190397888,-0.2073209733,0.04687025398,2024-06-05 18:50:02.356537
51.39702665,-0.04207670316,-0.162847504,0.03568530455,2024-06-05 18:50:02.397027
51.43749322,0.1145125479,-0.220370084,0.1944050342,2024-06-05 18:50:02.437493
51.4780241,0.2274272442,-0.1617822647,0.1893451661,2024-06-05 18:50:02.478024
51.51845884,0.2664414048,-0.162847504,0.1430075318,2024-06-05 18:50:02.518459
51.55894249,0.1264964193,-0.1793586165,-0.08575125784,2024-06-05 18:50:02.558942
51.59944368,-0.05938674137,-0.04487293959,-0.1294258088,2024-06-05 18:50:02.599444
51.63990467,-0.03408745676,0.3240971565,0.008788172156,2024-06-05 18:50:02.639905
51.6804042,-0.008255556226,0.4631100595,0.04047885537,2024-06-05 18:50:02.680404
51.72090072,-0.09826774895,0.4125114977,-0.1395455301,2024-06-05 18:50:02.720901
51.76145577,-0.1318225861,1.018229604,-0.09240896255,2024-06-05 18:50:02.761456
51.80181254,-0.2489982247,1.207574844,-0.0298265256,2024-06-05 18:50:02.801813
51.84233275,-0.08601756394,0.9101084471,0.0822892487,2024-06-05 18:50:02.842333
51.88280608,-0.1371487528,0.4889419675,0.06364767253,2024-06-05 18:50:02.882806
51.92329108,-0.122501798,0.2801562846,-0.4009270668,2024-06-05 18:50:02.923291
51.96378822,-0.5431357026,-0.1311568171,-0.3414071798,2024-06-05 18:50:02.963788
52.00428181,-0.548728168,-0.7011896372,-0.2652430236,2024-06-05 18:50:03.004282
52.044789,-0.4834826291,-0.4981296062,-0.1366161406,2024-06-05 18:50:03.044789
52.08528009,-0.391073674,-0.3505948186,0.1786928326,2024-06-05 18:50:03.085280
52.12575967,-0.4326177537,-0.5308855176,0.4219654202,2024-06-05 18:50:03.125760
52.16621452,-0.7093120217,-0.8090444803,0.6499252915,2024-06-05 18:50:03.166215
52.20670342,-1.108374953,-0.9168993235,0.8729584813,2024-06-05 18:50:03.206703
52.24718207,-1.078015804,-0.6596455574,0.750323534,2024-06-05 18:50:03.247182
52.28768197,-0.6659038067,-0.1316894293,0.7953296304,2024-06-05 18:50:03.287682
52.32815973,-0.3046566546,-0.05366111174,0.6999912262,2024-06-05 18:50:03.328160
52.36862967,-0.1006645188,-0.2989310026,0.4555202723,2024-06-05 18:50:03.368630
52.40912639,0.1326215118,-0.24753353,0.2760285139,2024-06-05 18:50:03.409126
52.44962207,0.116643019,-0.2328865677,0.2114487588,2024-06-05 18:50:03.449622
52.49008759,0.03967992961,-0.3740299344,0.01784265228,2024-06-05 18:50:03.490088
52.53054441,0.1320888996,-0.5295539498,0.052196417,2024-06-05 18:50:03.530544
52.57103879,0.4928034246,-0.3982639909,0.3165073693,2024-06-05 18:50:03.571039
52.61152879,0.6749582887,-0.2832188308,0.4533897936,2024-06-05 18:50:03.611529
52.65199967,0.6659038067,-0.2161091566,0.3540568352,2024-06-05 18:50:03.652000
52.6924867,0.2794905007,-0.4959991276,0.1746982187,2024-06-05 18:50:03.692487
52.73298108,-0.1161103994,-0.7472609878,-0.1142462417,2024-06-05 18:50:03.732981
52.77346514,-0.2916075289,-0.3676385581,-0.3030588031,2024-06-05 18:50:03.773465
52.8139404,0.08575125784,0.3352820873,-0.140877068,2024-06-05 18:50:03.813940
52.85442639,0.4488625526,0.4740287066,0.07935985923,2024-06-05 18:50:03.854426
52.89490056,0.4014596939,0.02489982173,-0.1214365661,2024-06-05 18:50:03.894901
52.93541431,0.02689713426,-0.4837489426,-0.7671009302,2024-06-05 18:50:03.935414
52.97588322,-0.2537917793,-0.4328840673,-1.506505847,2024-06-05 18:50:03.975883
53.01637103,-0.2524602413,-0.1993317306,-1.155511498,2024-06-05 18:50:04.016371
53.05687004,-0.3862801194,0.07829462737,-0.5548532605,2024-06-05 18:50:04.056870
53.09734316,-0.231421873,0.1946713328,-0.5716306567,2024-06-05 18:50:04.097343
53.13781431,-0.1976007223,0.06151720881,-0.5420704484,2024-06-05 18:50:04.137814
53.17829332,0.00798924733,0.1821548492,-0.3624455333,2024-06-05 18:50:04.178293
53.21879337,0.2640446424,0.2796236575,-0.3440702558,2024-06-05 18:50:04.218793
53.25927098,0.1904104054,0.1989322603,-0.4131772518,2024-06-05 18:50:04.259271
53.29974556,0.2085193694,0.2226337045,-0.5375432372,2024-06-05 18:50:04.299746
53.34023499,0.3300890923,0.0929415822,-0.6467295885,2024-06-05 18:50:04.340235
53.3807153,0.1240996495,0.1019960642,-0.5442008972,2024-06-05 18:50:04.380715
53.42120165,-0.01091863867,0.221035853,-0.4256937504,2024-06-05 18:50:04.421202
53.46168306,0.05645735189,0.3094501793,-0.4153077304,2024-06-05 18:50:04.461683
53.50214972,0.1027949899,0.2183727771,-0.2292914093,2024-06-05 18:50:04.502150
53.54262598,0.1078548431,0.1187734827,-0.004793548491,2024-06-05 18:50:04.542626
53.58315176,0.3149095178,-0.02037258074,0.05459319428,2024-06-05 18:50:04.583152
53.62361332,0.4768249393,-0.1580539495,0.1696383655,2024-06-05 18:50:04.623613
53.66411275,0.359382987,-0.3615134656,0.2311555594,2024-06-05 18:50:04.664113
53.70457889,0.3117138147,0.02623136342,0.0330222249,2024-06-05 18:50:04.704579
53.74508691,0.1262301207,-0.1087869257,0.05725627393,2024-06-05 18:50:04.745087
53.78552504,0.1416759938,0.000133154128,0.117974557,2024-06-05 18:50:04.785525
53.82602509,0.2031932026,0.1677742004,0.261115253,2024-06-05 18:50:04.826025
53.86655582,0.03888100386,0.1523283273,0.2770937383,2024-06-05 18:50:04.866556
53.90700379,-0.01651111245,0.3493964374,0.2541912198,2024-06-05 18:50:04.907004
53.94749322,-0.01651111245,0.5581821203,0.1656437367,2024-06-05 18:50:04.947493
53.98796769,-0.08814803511,0.3850817382,-0.006391398143,2024-06-05 18:50:04.987968
54.02844572,0.03994623944,0.2782921195,-0.06151720881,2024-06-05 18:50:05.028446
54.06894639,0.02130465955,0.06604444981,-0.1131810099,2024-06-05 18:50:05.068946
54.10941384,0.2242315561,0.2077204436,0.0705716908,2024-06-05 18:50:05.109414
54.14990394,0.2973331809,0.4013265371,-0.06870753318,2024-06-05 18:50:05.149904
54.19038795,0.03382114694,0.3866795897,-0.2380795777,2024-06-05 18:50:05.190388
54.23087368,-0.05086487532,-0.03288906813,-0.287612915,2024-06-05 18:50:05.230874
54.27134972,-0.3078523576,-0.3279586136,-0.4688356817,2024-06-05 18:50:05.271350
54.31187176,-0.3563204408,-0.2496639937,-0.3153089881,2024-06-05 18:50:05.311872
54.35234478,-0.3352820873,-0.1982664913,-0.1254311949,2024-06-05 18:50:05.352345
54.39283316,-0.06018566713,-0.0621829778,0.09507204592,2024-06-05 18:50:05.392833
54.43330176,0.3982639909,0.2109161317,0.3066539466,2024-06-05 18:50:05.433302
54.47379915,0.4153077304,0.05379426852,0.2295577228,2024-06-05 18:50:05.473799
54.51426644,0.5215647221,0.103061296,0.06950645149,2024-06-05 18:50:05.514266
54.55475056,0.4587159753,0.2330197245,0.071104303,2024-06-05 18:50:05.554751
54.59523405,0.122501798,-0.1612496525,0.1462032348,2024-06-05 18:50:05.595234
54.63571983,-0.851254344,-0.7605763674,-0.4193023443,2024-06-05 18:50:05.635720
54.67619785,-0.80864501,-0.1093195379,-0.3150426745,2024-06-05 18:50:05.676198
54.71670837,0.06844121963,0.0820229426,0.4467321038,2024-06-05 18:50:05.716708
54.75719207,0.3010614812,-0.2797568142,0.4547213614,2024-06-05 18:50:05.757192
54.79762525,0.4536561072,-0.03688369319,0.3375457227,2024-06-05 18:50:05.797625
54.83815806,0.3998618424,-0.3532578945,0.2250304818,2024-06-05 18:50:05.838158
54.87863353,0.05778888986,-0.4826837182,-0.1496652365,2024-06-05 18:50:05.878634
54.91909316,-0.492537111,-0.6330147386,-0.3469996452,2024-06-05 18:50:05.919093
54.95959009,-0.6491263509,-0.7568480372,-0.4360797703,2024-06-05 18:50:05.959590
55.00006582,-0.8030525446,-0.9515193701,-0.4616453648,2024-06-05 18:50:06.000066
55.04054952,-0.7463288903,-0.733679235,-0.2047910541,2024-06-05 18:50:06.040550
55.08105233,-0.4571181238,-0.5842803121,-0.3240971565,2024-06-05 18:50:06.081052
55.12152749,-0.6115769148,0.3709673882,-0.08521863818,2024-06-05 18:50:06.121527
55.16200644,-0.9854736924,1.016631722,0.4571181238,2024-06-05 18:50:06.162006
55.20248999,-0.5154396296,1.397319436,0.2380795777,2024-06-05 18:50:06.202490
55.2429603,0.256588012,1.875742197,-0.01651111245,2024-06-05 18:50:06.242960
55.28345509,-0.02876129188,0.5640408993,0.4185034335,2024-06-05 18:50:06.283455
55.32396322,-0.6320826411,-0.1820216924,0.3378120363,2024-06-05 18:50:06.323963
55.36443858,-0.2591179311,-0.7312824726,-0.1395455301,2024-06-05 18:50:06.364439
55.40491509,0.1579207927,-1.24432528,-0.3355484009,2024-06-05 18:50:06.404915
55.44539301,-0.1866820902,-0.3849485815,0.213312909,2024-06-05 18:50:06.445393
55.48587874,-0.9098421335,0.6298190355,0.3117138147,2024-06-05 18:50:06.485879
55.52636389,-1.324350953,0.5563179255,0.3772256374,2024-06-05 18:50:06.526364
55.56685775,-0.3137111366,-0.2075872868,0.5236951709,2024-06-05 18:50:06.566858
55.60733181,0.4936023653,0.3469996452,0.3513937294,2024-06-05 18:50:06.607332
55.64782374,0.235283345,0.4657731354,0.4206338823,2024-06-05 18:50:06.647824
55.6882966,0.363910228,1.254311919,0.9653674364,2024-06-05 18:50:06.688297
55.72881332,1.078282118,0.2964010835,0.3647091687,2024-06-05 18:50:06.728813
55.76927509,0.8729584813,0.1853505522,0.5505923033,2024-06-05 18:50:06.769275
55.80975931,1.429276466,0.6330147386,1.302247405,2024-06-05 18:50:06.809759
55.8502665,1.507437825,-0.1833532304,1.007444143,2024-06-05 18:50:06.850266
55.89073327,0.6296858788,0.7367417812,0.9712262154,2024-06-05 18:50:06.890733
55.93122613,-1.15790832,2.563216925,0.9794817567,2024-06-05 18:50:06.931226
55.97169285,-1.042596817,2.701164722,0.3748288751,2024-06-05 18:50:06.971693
56.01217217,0.2485987544,0.9985228181,0.8352758288,2024-06-05 18:50:07.012172
56.05265379,0.3801550269,0.2601831555,1.054847002,2024-06-05 18:50:07.052654
56.09315999,-0.1448716968,1.816488624,0.5460650921,2024-06-05 18:50:07.093160
56.13362566,0.01571218669,2.489715815,0.4190360308,2024-06-05 18:50:07.133626
56.17413525,-0.06551183015,1.885861874,0.1320888996,2024-06-05 18:50:07.174135
56.21461926,-0.4613790512,0.8904016614,-0.002663082443,2024-06-05 18:50:07.214619
56.25508936,-0.08974587917,0.6757571697,0.2181064636,2024-06-05 18:50:07.255089
56.29557051,-0.2726996541,1.198253989,0.9643021822,2024-06-05 18:50:07.295571
56.33604368,-0.9846747518,2.20330143,1.934063673,2024-06-05 18:50:07.336044
56.37655931,-1.865888834,1.450048447,2.759619236,2024-06-05 18:50:07.376559
56.41703072,-1.482538104,0.2322207987,3.243501425,2024-06-05 18:50:07.417031
56.45750259,-1.324350953,0.9913324714,2.211689949,2024-06-05 18:50:07.457503
56.49800566,-1.860030055,-0.2432725877,0.5484618545,2024-06-05 18:50:07.498006
56.53849837,-2.069082022,-2.066019535,-0.5343475342,2024-06-05 18:50:07.538498
56.57895405,-2.007032156,-1.512231469,-0.2492645234,2024-06-05 18:50:07.578954
56.61944446,-1.893851161,-1.779871225,0.1440727711,2024-06-05 18:50:07.619444
56.65998936,-1.934862614,-1.908631325,0.394269377,2024-06-05 18:50:07.659989
56.70043764,-1.699179769,-1.806368947,0.7657693624,2024-06-05 18:50:07.700438
56.74088842,-1.501445889,-0.691069901,0.5852124095,2024-06-05 18:50:07.740888
56.78137467,-1.083075643,-1.24805367,1.074553847,2024-06-05 18:50:07.781375
56.82187415,-0.5442008972,0.09347419441,1.116630554,2024-06-05 18:50:07.821874
56.8623666,0.08282186836,1.809830904,0.5697665215,2024-06-05 18:50:07.862367
56.90284129,-0.06577813625,1.557104349,-0.3472659588,2024-06-05 18:50:07.902841
56.94332118,-0.4057206213,1.531805038,-0.6009245515,2024-06-05 18:50:07.943321
56.98379509,-0.1808233112,1.721150279,-0.542336762,2024-06-05 18:50:07.983795
57.0242804,0.08069140464,1.878139019,-0.1070559174,2024-06-05 18:50:08.024280
57.06477384,-0.1041265279,1.945248604,-0.3131785095,2024-06-05 18:50:08.064774
57.10525629,0.2451367527,1.875742197,0.1169093251,2024-06-05 18:50:08.105256
57.14574436,-0.05033225939,1.792520881,0.5484618545,2024-06-05 18:50:08.145744
57.18624639,-0.5916038156,-0.03661738336,0.06790860742,2024-06-05 18:50:08.186246
57.2267503,-0.2647103965,-0.9499215484,-0.08974587917,2024-06-05 18:50:08.226750
57.2672141,-0.5324833393,-0.6260907054,0.1174419373,2024-06-05 18:50:08.267214
57.30769816,-0.9959928989,0.5842803121,0.551923871,2024-06-05 18:50:08.307698
57.34816582,-0.2063889056,-0.4704335332,0.5338149071,2024-06-05 18:50:08.348166
57.38870556,0.06391397864,-1.202514887,0.1874810159,2024-06-05 18:50:08.388706
57.42913629,0.3210346103,-1.6555053,0.5535216928,2024-06-05 18:50:08.429136
57.46961827,0.1094526947,-1.154446244,0.7364754677,2024-06-05 18:50:08.469618
57.51011009,-0.3235645294,-1.614493847,0.4837489426,2024-06-05 18:50:08.510110
57.55059415,-0.3778914213,0.03022598661,-0.0487344116,2024-06-05 18:50:08.550594
57.59108327,0.2244978547,-0.04407401755,-0.4408733249,2024-06-05 18:50:08.591083
57.63155577,0.5415378213,0.6507242322,-0.8062482476,2024-06-05 18:50:08.631556
57.67207186,0.7058500051,0.4979964495,-0.7583127618,2024-06-05 18:50:08.672072
57.71255624,0.3769593239,0.6416697502,-0.6533873081,2024-06-05 18:50:08.712556
57.75304056,-0.4254274368,0.6244928837,-0.7181001902,2024-06-05 18:50:08.753041
57.79347025,0.03834838793,0.6541862488,-1.462564945,2024-06-05 18:50:08.793470
57.83397493,-0.03035914153,1.643121958,-2.517145634,2024-06-05 18:50:08.833975
57.87448457,-0.304390341,0.9702941179,-1.615558982,2024-06-05 18:50:08.874485
57.91497999,0.06737598777,1.03873539,-1.61689055,2024-06-05 18:50:08.914980
57.955454,-0.3185046613,0.4218322635,-0.8525858521,2024-06-05 18:50:08.955454
57.99592592,-0.283085674,0.6901378632,-1.046325088,2024-06-05 18:50:08.995926
58.03642624,-0.2111824453,0.6477948427,-0.5950657725,2024-06-05 18:50:09.036426
58.07687827,-0.9266195893,0.7074478865,-0.3812202811,2024-06-05 18:50:09.076878
58.11740207,-1.307573557,0.1661763489,-0.05752258375,2024-06-05 18:50:09.117402
58.15789353,-0.2740311921,0.4170387387,-0.05725627393,2024-06-05 18:50:09.157894
58.19833665,0.1187734827,1.521419048,-0.05113118514,2024-06-05 18:50:09.198337
58.23884165,-0.9271522164,1.370422244,0.5726959109,2024-06-05 18:50:09.238842
58.27930556,-0.2615146935,0.9412665367,-0.009587096982,2024-06-05 18:50:09.279306
58.31978936,-1.246588945,-0.7946638465,0.1840189993,2024-06-05 18:50:09.319789
58.36027639,-1.127815485,-0.01531272475,-0.5641740561,2024-06-05 18:50:09.360276
58.40076743,0.5407389402,1.083208799,-1.116364241,2024-06-05 18:50:09.400767
58.44125129,1.288133025,1.075485945,-1.859497428,2024-06-05 18:50:09.441251
58.48175431,0.8700290918,0.6063839197,-1.755370855,2024-06-05 18:50:09.481754
58.5222178,-0.1384802908,0.6475285292,-1.760697007,2024-06-05 18:50:09.522218
58.56270165,1.025286794,2.289052725,-1.487864256,2024-06-05 18:50:09.562702
58.60318551,0.08388710022,3.64615941,-1.853372335,2024-06-05 18:50:09.603186
58.64365868,-1.17122376,2.196909904,-0.9911993146,2024-06-05 18:50:09.643659
58.68414738,-1.369090796,2.116218567,-0.8145037889,2024-06-05 18:50:09.684147
58.72463019,-1.02129221,2.355895996,0.2784252763,2024-06-05 18:50:09.724630
58.76511676,-0.3158415854,2.116751194,0.2659088075,2024-06-05 18:50:09.765117
58.80558618,-0.380687654,0.004926702939,1.415694714,2024-06-05 18:50:09.805586
58.84608447,0.5846797824,0.1683068126,1.67334795,2024-06-05 18:50:09.846084
58.88658467,0.7846772671,-0.6567161679,1.995847225,2024-06-05 18:50:09.886585
58.92705514,1.54125905,0.02197043039,2.169879675,2024-06-05 18:50:09.927055
58.96754394,1.297187567,0.9473916292,1.909030676,2024-06-05 18:50:09.967544
59.00805004,0.518369019,0.06098458916,0.7274209857,2024-06-05 18:50:10.008050
59.0485141,0.6163704395,-1.150185347,-0.1118494645,2024-06-05 18:50:10.048514
59.08900311,0.5495271087,-0.3854812086,-0.5655055642,2024-06-05 18:50:10.089003
59.12946697,-0.06098458916,0.239144817,-0.4283568263,2024-06-05 18:50:10.129467
59.16996806,-0.4914718866,0.0599193573,-0.4869446456,2024-06-05 18:50:10.169968
59.21045004,-0.5354127288,0.2513949871,-1.051917553,2024-06-05 18:50:10.210450
59.25093009,-0.003994623665,0.01611164957,-0.7047848105,2024-06-05 18:50:10.250930
59.29144394,0.1968017966,0.46018067,-1.003449559,2024-06-05 18:50:10.291444
59.33191509,0.2021279633,-0.2387453467,-1.183473945,2024-06-05 18:50:10.331915
59.37238587,0.5399399996,-0.1876141727,-2.980655193,2024-06-05 18:50:10.372386
59.41288473,0.6472622156,0.7798837423,-2.504895449,2024-06-05 18:50:10.412885
59.45334972,0.8286181092,0.9689626098,-1.515826583,2024-06-05 18:50:10.453350
59.49384915,0.4877435565,0.6472622156,-0.1709699035,2024-06-05 18:50:10.493849
59.5343029,0.2563216984,0.507317245,0.6424686909,2024-06-05 18:50:10.534303
59.57479874,0.2315550297,0.6531209946,0.4219654202,2024-06-05 18:50:10.574799
59.61530019,1.380808353,0.3137111366,0.5748263597,2024-06-05 18:50:10.615300
59.6557765,1.225018024,0.04473978654,0.1395455301,2024-06-05 18:50:10.655777
59.69626587,0.5412715077,0.1733666807,0.8398030996,2024-06-05 18:50:10.696266
59.73675389,0.950720489,0.03861469775,1.43247211,2024-06-05 18:50:10.736754
59.77718165,1.054048061,0.3318201005,1.764159083,2024-06-05 18:50:10.777182
59.81769733,0.3170399666,0.6541862488,0.8657681346,2024-06-05 18:50:10.817697
59.85819629,-0.3924052119,0.3033251166,0.610245347,2024-06-05 18:50:10.858196
59.89868795,-0.4874772727,-0.1516625583,-0.323830843,2024-06-05 18:50:10.898688
59.9391554,-0.5585815907,0.5717638135,-1.203979611,2024-06-05 18:50:10.939155
59.97963327,-0.2599168718,0.3773587942,-0.9872047305,2024-06-05 18:50:10.979633
60.02013842,0.4267589748,-0.2557890713,-1.055912256,2024-06-05 18:50:11.020138
60.06063488,0.0260982085,0.1738992929,-1.591324925,2024-06-05 18:50:11.060635
60.10112572,-0.9396686554,0.08095771074,-1.563229442,2024-06-05 18:50:11.101126
60.14158186,-1.946313858,0.9473916292,-1.737528205,2024-06-05 18:50:11.141582
60.18205082,-1.765490532,3.171331882,-2.347773552,2024-06-05 18:50:11.182051
60.22254165,-0.2804225981,1.717155576,-2.128468752,2024-06-05 18:50:11.222542
60.26302806,-0.5436683297,1.051251888,-1.480407596,2024-06-05 18:50:11.263028
60.30352191,-0.4094489515,-0.5665708184,-1.16456604,2024-06-05 18:50:11.303522
60.34398066,-0.8627055883,-0.7275541425,-0.6597787142,2024-06-05 18:50:11.343981
60.38450592,-0.6414034367,-0.4517919421,-0.6299521923,2024-06-05 18:50:11.384506
60.42496519,0.1371487528,-0.02942706272,0.08894696087,2024-06-05 18:50:11.424965
60.46546738,0.3644428551,0.007589785382,1.415694714,2024-06-05 18:50:11.465467
60.5059529,0.489341408,0.2998631001,2.699699879,2024-06-05 18:50:11.505953
60.54641197,0.2360822707,0.4979964495,2.183994055,2024-06-05 18:50:11.546412
60.58688947,0.9296821356,0.4742949903,1.695984125,2024-06-05 18:50:11.586889
60.62737785,0.7788184881,0.07722939551,1.403977156,2024-06-05 18:50:11.627378
60.66787655,0.766035676,-0.2949363887,1.219425559,2024-06-05 18:50:11.667877
60.70836082,0.6227618456,-0.2872134447,0.6970618367,2024-06-05 18:50:11.708361
