Time (s),Linear Acceleration x (m/s^2),Linear Acceleration y (m/s^2),Linear Acceleration z (m/s^2),Datetime
0.144627813,0.2590954304,0.04392528534,0.004498958588,2024-06-05 18:49:11.144628
0.185059896,0.1972723007,0.01111745834,0.1683120728,2024-06-05 18:49:11.185060
0.225492917,-0.06410932541,0.07352256775,0.01400184631,2024-06-05 18:49:11.225493
0.266100573,0.1425147057,0.1401281357,-0.4836645126,2024-06-05 18:49:11.266101
0.30612474,-0.6265611649,0.3499660492,-0.1253509521,2024-06-05 18:49:11.306125
0.346955,-0.1849792004,0.3320865631,-0.5781006813,2024-06-05 18:49:11.346955
0.387441406,1.01412487,-0.5178608894,-0.4753055573,2024-06-05 18:49:11.387441
0.427879948,0.7452262044,-0.7629981041,0.09422874451,2024-06-05 18:49:11.427880
0.468489427,1.13537991,-1.625006199,0.8188781738,2024-06-05 18:49:11.468489
0.50876724,0.4067218304,-1.573428154,1.691252708,2024-06-05 18:49:11.508767
0.54946099,-0.1470967531,-0.7221701145,0.7528533936,2024-06-05 18:49:11.549461
0.589883698,-0.2832895517,0.8002176285,-0.7124004364,2024-06-05 18:49:11.589884
0.630354479,-1.145772457,0.4603476524,-0.4500041008,2024-06-05 18:49:11.630354
0.670851979,-0.162001133,-0.1112594604,0.3602170944,2024-06-05 18:49:11.670852
0.711335156,-1.288969517,0.5988020897,-0.4942669868,2024-06-05 18:49:11.711335
0.751835625,-0.1657888889,0.171690464,-0.3243761063,2024-06-05 18:49:11.751836
0.792227292,-0.2882947922,0.3138604164,0.1850090027,2024-06-05 18:49:11.792227
0.832807656,0.5507378578,0.2239222527,1.249336243,2024-06-05 18:49:11.832808
0.873300313,0.8626019955,-0.7622244358,2.415481567,2024-06-05 18:49:11.873300
0.913785625,0.930891037,-1.577830791,8.93006897,2024-06-05 18:49:11.913786
0.954259948,2.960305691,-1.54807353,-0.3864407539,2024-06-05 18:49:11.954260
0.994768854,0.3171730042,-5.253459454,-5.80439043,2024-06-05 18:49:11.994769
1.035188021,3.669589043,-5.120062351,-7.308780193,2024-06-05 18:49:12.035188
1.075698229,-0.5707111359,-6.596262455,1.374400616,2024-06-05 18:49:12.075698
1.116053906,4.579208851,-4.526872635,7.645105839,2024-06-05 18:49:12.116054
1.156425833,3.480162144,1.412079334,6.045855522,2024-06-05 18:49:12.156426
1.197173021,-1.410274506,-0.08165764809,6.717332363,2024-06-05 18:49:12.197173
1.237519948,-2.026150703,2.879970551,2.023280621,2024-06-05 18:49:12.237520
1.278000365,-2.852528572,1.231473684,0.1335186958,2024-06-05 18:49:12.278000
1.318674583,1.183979034,-0.03620815277,-8.02672863,2024-06-05 18:49:12.318675
1.35913151,-1.136672497,1.505887866,-10.25428963,2024-06-05 18:49:12.359132
1.399607969,-3.667285442,1.307122231,-5.637611389,2024-06-05 18:49:12.399608
1.44008526,-5.194523811,0.7619128227,2.687879562,2024-06-05 18:49:12.440085
1.480574479,-6.267988205,1.765375376,4.553469658,2024-06-05 18:49:12.480574
1.52086401,0.6903791428,1.115715027,3.779639244,2024-06-05 18:49:12.520864
1.561578021,-1.412060261,1.59104991,4.06270647,2024-06-05 18:49:12.561578
1.602055573,-2.997200966,1.000572681,-0.005116939545,2024-06-05 18:49:12.602056
1.642536042,-7.869539261,0.5088429451,-1.45416832,2024-06-05 18:49:12.642536
1.683030469,-3.04226923,2.123205662,5.079341888,2024-06-05 18:49:12.683030
1.723466615,3.110031128,0.3739800453,0.6932239532,2024-06-05 18:49:12.723467
1.763778438,-3.770319939,-1.807938099,-3.358749866,2024-06-05 18:49:12.763778
1.804361406,6.24669838,-0.2686207891,-0.1750273705,2024-06-05 18:49:12.804361
1.844963333,6.939109325,0.3927367926,-2.605720282,2024-06-05 18:49:12.844963
1.88546901,1.827799797,-2.846054077,1.972455502,2024-06-05 18:49:12.885469
1.925928906,2.785356522,-4.029340267,-0.9370384216,2024-06-05 18:49:12.925929
1.966425469,3.47030735,-2.409205914,-0.6162276268,2024-06-05 18:49:12.966425
2.006937031,-3.411021233,-0.8226898909,-0.2686953545,2024-06-05 18:49:13.006937
2.047351823,-2.182632446,3.62437892,0.9768691063,2024-06-05 18:49:13.047352
2.087830104,-4.033658981,1.093079925,0.9599165916,2024-06-05 18:49:13.087830
2.128391406,-2.997876167,-0.9249112606,-0.07817935944,2024-06-05 18:49:13.128391
2.168815104,-1.265248775,-5.67966795,-0.4972782135,2024-06-05 18:49:13.168815
2.209340625,3.20071125,-0.9864513874,-0.3581709862,2024-06-05 18:49:13.209341
2.249827604,1.877430439,-0.3098533154,-0.5475974083,2024-06-05 18:49:13.249828
2.29033901,-0.1441144943,-0.3036046028,0.3686842918,2024-06-05 18:49:13.290339
2.330746094,-1.54541111,0.4296860695,-0.1025052071,2024-06-05 18:49:13.330746
2.371258594,-0.1637611389,2.841243744,0.7711782455,2024-06-05 18:49:13.371259
2.411728438,1.626925468,3.892398834,0.2867074013,2024-06-05 18:49:13.411728
2.452222813,-0.09481573105,0.2647492886,-0.2891373634,2024-06-05 18:49:13.452223
2.492731406,-0.1445374489,6.039250374,-0.9772193432,2024-06-05 18:49:13.492731
2.533248958,0.2517104149,-1.50638175,0.9887905121,2024-06-05 18:49:13.533249
2.573704844,-2.271020889,-1.956336021,1.412199497,2024-06-05 18:49:13.573705
2.614158958,0.4866085052,-4.860243797,-0.7424015999,2024-06-05 18:49:13.614159
2.654647083,0.4359617233,-4.980039597,-1.555527925,2024-06-05 18:49:13.654647
2.695135677,-0.7489452362,-0.8902602196,0.3332791328,2024-06-05 18:49:13.695136
2.735636615,0.8606786728,0.7526593208,0.008544206619,2024-06-05 18:49:13.735637
2.776134844,0.6584668159,0.4219722748,0.7052297592,2024-06-05 18:49:13.776135
2.816609583,1.449419498,-2.41534996,0.1357614994,2024-06-05 18:49:13.816610
2.857050677,0.5764541626,-1.923248053,-0.6048349142,2024-06-05 18:49:13.857051
2.897380573,-0.2940263748,0.9886033535,0.250202179,2024-06-05 18:49:13.897381
2.937998385,-0.2809362411,0.4746799469,-0.005440473557,2024-06-05 18:49:13.937998
2.978486771,-0.1918325424,0.3225574493,-0.4434810877,2024-06-05 18:49:13.978487
3.018965625,-0.7551555634,-0.2229690552,0.09597861767,2024-06-05 18:49:14.018966
3.059449271,0.3701677322,-1.104409933,-0.612165451,2024-06-05 18:49:14.059449
3.099969219,0.7250928879,0.2341136932,-0.3839292526,2024-06-05 18:49:14.099969
3.140434635,0.45307827,0.3792560101,0.2473642826,2024-06-05 18:49:14.140435
3.180894688,0.1476411819,-0.580155611,-0.317907691,2024-06-05 18:49:14.180895
3.221400625,-0.5268621445,0.6790921688,-0.5680062771,2024-06-05 18:49:14.221401
3.261904375,-0.4460783005,0.5099101067,-0.2879400253,2024-06-05 18:49:14.261904
3.302379635,0.1427774429,-0.0554599762,-0.3944852352,2024-06-05 18:49:14.302380
3.342865052,0.3708114624,0.1821815968,-0.1482360363,2024-06-05 18:49:14.342865
3.383373438,0.02416801453,-0.1116945744,-0.1831029654,2024-06-05 18:49:14.383373
3.423824844,-0.07521915436,-0.03407812119,-0.1902515888,2024-06-05 18:49:14.423825
3.464318438,-0.01103305817,-0.3511791229,-0.1959923506,2024-06-05 18:49:14.464318
3.504766615,0.625377655,-0.1186382771,-0.06907641888,2024-06-05 18:49:14.504767
3.545301771,0.4163179398,0.03710865974,0.1417973042,2024-06-05 18:49:14.545302
3.58575625,-0.8568534851,-0.1040475368,-0.02502787113,2024-06-05 18:49:14.585756
3.626235,-0.2013273239,-0.4152076244,-0.05100524426,2024-06-05 18:49:14.626235
3.666713594,-0.06635856628,-0.3889825344,0.02053868771,2024-06-05 18:49:14.666714
3.707198594,0.5666131973,-0.06146907806,-0.009600162506,2024-06-05 18:49:14.707199
3.747651823,0.2881669998,-0.2405388355,-0.157178998,2024-06-05 18:49:14.747652
3.788204635,-0.1650514603,-0.2651045322,-0.2283825874,2024-06-05 18:49:14.788205
3.828667865,-0.06790447235,-0.08129310608,-0.7062603235,2024-06-05 18:49:14.828668
3.869152292,0.3902606964,0.04056406021,-0.06234622002,2024-06-05 18:49:14.869152
3.909655313,-0.08729743958,-0.3072342873,0.186414957,2024-06-05 18:49:14.909655
3.950143021,-0.11769104,-0.120445013,0.02978444099,2024-06-05 18:49:14.950143
3.990593646,0.235042572,-0.02989625931,0.1397602558,2024-06-05 18:49:14.990594
4.031077604,-0.009922981262,-0.1058399677,-0.3741333485,2024-06-05 18:49:15.031078
4.071564688,-0.1651859283,0.546225071,-0.6440212727,2024-06-05 18:49:15.071565
4.112041406,-0.1449670792,0.5604703426,-0.5874291658,2024-06-05 18:49:15.112041
4.152525365,-0.1126689911,0.5609247684,-0.2340736389,2024-06-05 18:49:15.152525
4.1930175,-1.260428429,1.222873926,-0.1323709488,2024-06-05 18:49:15.193017
4.23351875,-0.8734397888,0.7877867222,0.1474113464,2024-06-05 18:49:15.233519
4.273970104,0.3631029129,0.2090139389,0.2030756474,2024-06-05 18:49:15.273970
4.314485833,0.6886987686,0.2970926762,0.1678185463,2024-06-05 18:49:15.314486
4.354966979,0.06296825409,-0.05772137642,0.1685979366,2024-06-05 18:49:15.354967
4.395451146,-0.3552522659,-0.03392887115,0.2771165371,2024-06-05 18:49:15.395451
4.435927656,-0.1298732758,0.551419735,0.4169008732,2024-06-05 18:49:15.435928
4.476421875,0.0957403183,-0.06493878365,0.04344034195,2024-06-05 18:49:15.476422
4.516892396,0.08485221863,-0.6411721706,-0.04902935028,2024-06-05 18:49:15.516892
4.557298438,-0.1099529266,-0.3622367382,-0.1003739834,2024-06-05 18:49:15.557298
4.597763177,-0.4866733551,-0.2429478168,0.382478714,2024-06-05 18:49:15.597763
4.638343906,-0.1839990616,-0.2019011974,0.2996058464,2024-06-05 18:49:15.638344
4.678807292,0.4189581871,-0.4992747307,0.05561923981,2024-06-05 18:49:15.678807
4.719314063,0.5862951279,-0.297056675,-0.340416193,2024-06-05 18:49:15.719314
4.759793958,0.2871208191,0.2633318901,-0.302469492,2024-06-05 18:49:15.759794
4.800275052,-0.238899231,0.4583365917,-0.4268810749,2024-06-05 18:49:15.800275
4.840784167,-0.3239879608,0.3781607151,-0.1507451534,2024-06-05 18:49:15.840784
4.881256875,-0.2584457397,0.2288985252,0.02919101715,2024-06-05 18:49:15.881257
4.921732292,0.1068239212,0.1074736118,0.1018023491,2024-06-05 18:49:15.921732
4.962218802,-0.2643246651,0.005122184753,0.07087087631,2024-06-05 18:49:15.962219
5.002714844,0.7294864655,-0.2942199707,-0.1194252968,2024-06-05 18:49:16.002715
5.043213073,0.6982693672,-0.7968854904,0.07157278061,2024-06-05 18:49:16.043213
5.0837,-0.08972072601,-0.1259098053,0.137096405,2024-06-05 18:49:16.083700
5.124181979,0.3617835045,-0.1647372246,0.2031364441,2024-06-05 18:49:16.124182
5.164645573,0.3155303001,-0.7900032997,0.2388553619,2024-06-05 18:49:16.164646
5.205125521,-0.07856321335,-0.13702631,0.06298732758,2024-06-05 18:49:16.205126
5.24561224,1.038380146,0.6196904182,-0.229891777,2024-06-05 18:49:16.245612
5.286094115,0.4661612511,0.215821743,-0.5834131241,2024-06-05 18:49:16.286094
5.326535417,-0.2759447098,-0.1199803352,-0.6820893288,2024-06-05 18:49:16.326535
5.36703526,0.02483892441,-0.3739185333,-0.2752866745,2024-06-05 18:49:16.367035
5.407522292,0.1510062218,-0.4868650436,0.2720770836,2024-06-05 18:49:16.407522
5.448008646,0.2094788551,-0.3140697479,0.35572052,2024-06-05 18:49:16.448009
5.488495677,-0.2689080238,0.01899194717,0.1664881706,2024-06-05 18:49:16.488496
5.52901026,0.7975959778,-0.0288939476,-0.08924484253,2024-06-05 18:49:16.529010
5.569514948,-0.1146502495,-0.1514472961,0.2189397812,2024-06-05 18:49:16.569515
5.609969583,0.125105381,-0.07506227493,0.1781210899,2024-06-05 18:49:16.609970
5.650479271,-0.3826093674,-0.370206356,0.2545838356,2024-06-05 18:49:16.650479
5.690883958,0.2833194733,-0.2093200684,0.1149153709,2024-06-05 18:49:16.690884
5.731415885,0.6830010414,-0.2777957916,-0.2893302441,2024-06-05 18:49:16.731416
5.771877552,0.6625518799,-0.2631821632,0.06275057793,2024-06-05 18:49:16.771878
5.812388125,0.2195391655,-0.1382293701,0.4983747005,2024-06-05 18:49:16.812388
5.852875208,-0.1491127014,-0.3086895943,0.292519331,2024-06-05 18:49:16.852875
5.893346563,-0.1721606255,-0.6224513054,-0.183139801,2024-06-05 18:49:16.893347
5.93383901,-0.3877515793,0.05556178093,-0.1698570251,2024-06-05 18:49:16.933839
5.974359115,-0.2824859619,0.6929109097,0.0735938549,2024-06-05 18:49:16.974359
6.014803802,0.1704597473,0.4147927761,0.1214113235,2024-06-05 18:49:17.014804
6.055374844,-0.2068796158,0.165355444,0.1246187687,2024-06-05 18:49:17.055375
6.095809688,-0.1166267395,0.03777742386,0.2414579391,2024-06-05 18:49:17.095810
6.136254219,0.08677005768,0.2458574772,0.2007091045,2024-06-05 18:49:17.136254
6.176698854,0.4056677818,0.1304030418,0.1710259914,2024-06-05 18:49:17.176699
6.217223281,0.467713356,-0.372895956,0.1291604042,2024-06-05 18:49:17.217223
6.25768625,0.7823781967,-0.5771048069,0.04426717758,2024-06-05 18:49:17.257686
6.298172396,1.413607597,-0.7375032902,-0.2333080769,2024-06-05 18:49:17.298172
6.338645833,0.1550340652,-0.5804202557,0.1663227081,2024-06-05 18:49:17.338646
6.379159375,-1.042918205,-0.9715278149,-0.4157774448,2024-06-05 18:49:17.379159
6.4196625,-0.7782974243,-0.4438939095,-0.3513457775,2024-06-05 18:49:17.419663
6.460121198,-0.5686864853,0.07352852821,-0.1327369213,2024-06-05 18:49:17.460121
6.500615,-0.4557685852,-0.282684803,-0.06249308586,2024-06-05 18:49:17.500615
6.541119896,-0.1117887497,-0.2430205345,-0.06246376038,2024-06-05 18:49:17.541120
6.581577344,-0.2931041718,0.07701325417,0.1354250908,2024-06-05 18:49:17.581577
6.622061771,-0.1970462799,0.2880368233,-0.08443927765,2024-06-05 18:49:17.622062
6.662534323,1.303145885,0.6758019924,0.04810428619,2024-06-05 18:49:17.662534
6.703011146,0.2996969223,-0.2762789726,-0.7123041153,2024-06-05 18:49:17.703011
6.743530833,-1.671485901,-0.2420756817,-1.756239057,2024-06-05 18:49:17.743531
6.783956146,-1.080152512,0.5443871021,-1.433775187,2024-06-05 18:49:17.783956
6.824537344,0.5549697876,0.9594378471,-0.3514134884,2024-06-05 18:49:17.824537
6.864979479,0.7858791351,0.6117591858,-0.7859256268,2024-06-05 18:49:17.864979
6.905470052,-0.7880306244,0.05554628372,-0.09406447411,2024-06-05 18:49:17.905470
6.945941094,-0.9785180092,0.6812703609,-0.3398625851,2024-06-05 18:49:17.945941
6.986452344,-0.8731470108,0.8085277081,0.06764125824,2024-06-05 18:49:17.986452
7.026887135,-0.1496782303,0.8817358017,0.3832325935,2024-06-05 18:49:18.026887
7.06734526,-0.8910942078,1.152071238,0.3191978931,2024-06-05 18:49:18.067345
7.107860417,-0.9224686623,1.003817081,0.5351083279,2024-06-05 18:49:18.107860
7.148342865,-0.8495163918,1.431991339,0.716288805,2024-06-05 18:49:18.148343
7.188825938,-1.263395786,2.510187864,0.7446274757,2024-06-05 18:49:18.188826
7.22933724,-0.8990368843,1.229465008,0.5677368641,2024-06-05 18:49:18.229337
7.269801979,-0.2397789955,1.840069294,0.848867178,2024-06-05 18:49:18.269802
7.310275833,0.1345157623,2.481002092,0.4290561676,2024-06-05 18:49:18.310276
7.350771563,-0.07685184479,1.006418705,0.2234592438,2024-06-05 18:49:18.350772
7.391251719,0.4688258171,0.6530451775,0.7368915081,2024-06-05 18:49:18.391252
7.431729167,0.6501030922,1.136794567,0.6212773323,2024-06-05 18:49:18.431729
7.47222026,0.8215975761,1.088177681,0.4708900452,2024-06-05 18:49:18.472220
7.512744323,1.277750492,1.232935905,0.7034952641,2024-06-05 18:49:18.512744
7.553206042,-0.8370161057,-0.1978297234,0.9162323475,2024-06-05 18:49:18.553206
7.593668958,-1.654788017,-0.07959747314,0.7236423492,2024-06-05 18:49:18.593669
7.63417651,0.7147493362,2.753270149,0.1241829395,2024-06-05 18:49:18.634177
7.674688698,1.827121735,1.264661312,-0.6375844479,2024-06-05 18:49:18.674689
7.715144115,-0.2892260551,0.8572487831,-1.335128427,2024-06-05 18:49:18.715144
7.755593906,-3.238593578,-1.120867252,-1.3600775,2024-06-05 18:49:18.755594
7.796070156,-2.203209877,0.9099321365,-0.9674465656,2024-06-05 18:49:18.796070
7.836594063,-3.455321312,2.209148407,-1.779111624,2024-06-05 18:49:18.836594
7.877129479,-3.161142349,-0.2246408463,-1.7462852,2024-06-05 18:49:18.877129
7.91759375,-2.492663383,-0.9076609612,-0.2843373418,2024-06-05 18:49:18.917594
7.958040208,-1.060580254,-0.3905348778,0.1074427962,2024-06-05 18:49:18.958040
7.998485417,-0.466383934,-0.9626569748,0.01828676462,2024-06-05 18:49:18.998485
8.038990729,-0.3223214149,0.5415229797,-0.8873286843,2024-06-05 18:49:19.038991
8.079481615,0.7762746811,2.179686069,-0.1105644703,2024-06-05 18:49:19.079482
8.119961146,0.9764118195,1.262951851,-0.8259145617,2024-06-05 18:49:19.119961
8.160471146,0.641497612,0.1230716705,-0.2258680463,2024-06-05 18:49:19.160471
8.200960625,-1.291778564,0.4047808647,-0.05171021819,2024-06-05 18:49:19.200961
8.241424427,-0.3318839073,-1.1827631,0.5027469397,2024-06-05 18:49:19.241424
8.281889271,-0.7081656456,-0.7580213547,-1.169196606,2024-06-05 18:49:19.281889
8.32238276,-0.5864801407,-0.3439950943,0.3352900445,2024-06-05 18:49:19.322383
8.362863698,0.4596509933,-2.412404537,-0.396709919,2024-06-05 18:49:19.362864
8.403347031,1.466107368,0.5931777954,-0.4784716964,2024-06-05 18:49:19.403347
8.4438425,1.025479794,0.4115309715,0.7225455642,2024-06-05 18:49:19.443843
8.484317969,1.056770802,-0.5184340477,1.068809986,2024-06-05 18:49:19.484318
8.524785052,-0.3130230904,-0.4250087738,0.4930020571,2024-06-05 18:49:19.524785
8.565301927,-0.3667330742,-2.108799458,-0.5094655156,2024-06-05 18:49:19.565302
8.605783281,-0.7643489838,-2.181566238,-0.1545777917,2024-06-05 18:49:19.605783
8.64628724,1.893249512,-1.013333797,-0.9828709364,2024-06-05 18:49:19.646287
8.686777448,1.752692223,0.2397432327,0.06657040119,2024-06-05 18:49:19.686777
8.727248125,0.7248568535,0.4126148224,-0.5777881145,2024-06-05 18:49:19.727248
8.7676625,-1.650164604,1.746145725,-0.1444443464,2024-06-05 18:49:19.767663
8.808161563,-3.681372166,0.6465058327,0.06246638298,2024-06-05 18:49:19.808162
8.848651667,-1.241643429,0.3136687279,0.0268856883,2024-06-05 18:49:19.848652
8.889168229,1.09677124,-0.2588424683,-0.1153455377,2024-06-05 18:49:19.889168
8.929661406,1.892959595,-0.4445986748,0.2572183609,2024-06-05 18:49:19.929661
8.970141198,-0.5228571892,-1.015804768,0.2179596424,2024-06-05 18:49:19.970141
9.010634167,-1.165440559,-0.5601067543,0.1392453313,2024-06-05 18:49:20.010634
9.051094583,-0.378841877,-0.4529953003,0.6786344647,2024-06-05 18:49:20.051095
9.091575885,-0.9377703667,-0.3026547432,0.3365144134,2024-06-05 18:49:20.091576
9.132108125,-1.276049614,0.3446645737,0.08338057995,2024-06-05 18:49:20.132108
9.172553646,-1.377906799,0.7361497879,-0.03906202316,2024-06-05 18:49:20.172554
9.213037969,-0.6773376465,1.377880096,-0.07492274046,2024-06-05 18:49:20.213038
9.253528385,0.06844043732,1.041840076,0.08453208208,2024-06-05 18:49:20.253528
9.29400224,-0.06788444519,0.5376749039,-0.1586769223,2024-06-05 18:49:20.294002
9.334457656,0.6512289047,0.57721138,-0.3788304627,2024-06-05 18:49:20.334458
9.374953958,-0.4440469742,-0.4525766373,-0.2049612105,2024-06-05 18:49:20.374954
9.415477292,-0.8854236603,-1.236983299,-0.3103384674,2024-06-05 18:49:20.415477
9.455919844,-0.2062549591,-0.5602757931,-0.2485926151,2024-06-05 18:49:20.455920
9.496438906,0.2259521484,-0.2536091805,0.1570046544,2024-06-05 18:49:20.496439
9.536914688,1.192724228,-0.8330607414,0.04328131676,2024-06-05 18:49:20.536915
9.577390521,-0.1566991806,-0.5519349575,-0.3452368379,2024-06-05 18:49:20.577391
9.617866302,0.3839845657,-0.1242628098,-1.785460591,2024-06-05 18:49:20.617866
9.658338177,0.9005641937,-0.3310484886,-1.280860662,2024-06-05 18:49:20.658338
9.698813906,1.245125771,-1.808662176,-0.4802162647,2024-06-05 18:49:20.698814
9.739313385,0.941072464,-1.567713261,-0.6263523102,2024-06-05 18:49:20.739313
9.779758854,2.787350178,-0.5165877342,0.8632359505,2024-06-05 18:49:20.779759
9.820258802,3.723570347,1.475021839,0.9160895348,2024-06-05 18:49:20.820259
9.860780156,2.291831017,2.369727612,-0.1534063816,2024-06-05 18:49:20.860780
9.901252708,-0.5577487946,1.898027182,-0.5966285467,2024-06-05 18:49:20.901253
9.941754167,-2.096957207,0.3598656654,-0.7854070663,2024-06-05 18:49:20.941754
9.982209427,-0.1368665695,-0.08357906342,-0.7420866489,2024-06-05 18:49:20.982209
10.02272505,0.5335988998,0.4281332493,-0.1007478237,2024-06-05 18:49:21.022725
10.06319172,0.1588068008,-0.2462360859,0.01233649254,2024-06-05 18:49:21.063192
10.10365688,1.184200287,-0.005844116211,0.08730328083,2024-06-05 18:49:21.103657
10.14414125,2.253779411,1.37516284,0.3889106512,2024-06-05 18:49:21.144141
10.18462568,0.4377059937,0.8426537514,-0.18085742,2024-06-05 18:49:21.184626
10.22511104,-2.632380009,-0.9895887375,0.05098521709,2024-06-05 18:49:21.225111
10.26559901,-0.3097457886,0.6110668182,-0.1061531305,2024-06-05 18:49:21.265599
10.3060763,-0.1378407478,0.4709367752,0.5437145233,2024-06-05 18:49:21.306076
10.34665922,-0.6543908119,-1.370259762,0.3516506851,2024-06-05 18:49:21.346659
10.38707365,-0.6385989189,0.2481937408,0.458045274,2024-06-05 18:49:21.387074
10.42755094,-0.8750667572,0.2373538017,0.7371721268,2024-06-05 18:49:21.427551
10.46798823,-0.1106476784,0.1246366501,0.4046914577,2024-06-05 18:49:21.467988
10.50848151,-1.050572872,-0.3666234016,0.646823287,2024-06-05 18:49:21.508482
10.54899104,-1.51072073,-0.1558465958,0.6165620685,2024-06-05 18:49:21.548991
10.58953198,-2.209368229,-0.3385267258,0.08157405257,2024-06-05 18:49:21.589532
10.62999063,-1.458422184,-0.252907753,-0.06240099669,2024-06-05 18:49:21.629991
10.67042844,-2.001404762,-0.3194665909,0.2194075435,2024-06-05 18:49:21.670428
10.71091375,-0.3427410126,-0.1024923325,-0.08483824134,2024-06-05 18:49:21.710914
10.7513963,-0.8910527229,0.134829998,-0.2382218242,2024-06-05 18:49:21.751396
10.79187531,-0.8730697632,-0.5511646271,1.162368298,2024-06-05 18:49:21.791875
10.83237943,1.578450203,-0.4524846077,-0.3671169281,2024-06-05 18:49:21.832379
10.87286042,1.436873913,-1.488312721,0.05495001376,2024-06-05 18:49:21.872860
10.913365,1.02157259,-2.291545391,-0.02637068368,2024-06-05 18:49:21.913365
10.95385031,-0.1908974648,-0.9516434669,-0.2230226398,2024-06-05 18:49:21.953850
10.99432703,-0.5746946335,-0.1169390678,0.4976577163,2024-06-05 18:49:21.994327
11.03479912,0.9779210091,-0.247253418,0.1755895913,2024-06-05 18:49:22.034799
11.07527922,1.614161015,0.4207501411,-0.4830624461,2024-06-05 18:49:22.075279
11.11576234,0.5135507584,-0.1691236496,-0.0857064724,2024-06-05 18:49:22.115762
11.15627453,-1.745620728,-2.059261799,-0.5686141253,2024-06-05 18:49:22.156275
11.19679479,-1.34172678,-0.6070895195,-0.7884358168,2024-06-05 18:49:22.196795
11.23722287,0.877661705,1.647380352,-0.08527815342,2024-06-05 18:49:22.237223
11.2777024,-0.5633096695,0.4996800423,-0.0940387547,2024-06-05 18:49:22.277702
11.31816583,-1.135083199,-1.056626797,-0.9088836908,2024-06-05 18:49:22.318166
11.35864943,-0.7744550705,-0.4974269867,-1.098905921,2024-06-05 18:49:22.358649
11.39914057,-0.6747465134,-0.2437806129,-0.8816194534,2024-06-05 18:49:22.399141
11.43962,0.1404695511,0.09794616699,-0.6003308296,2024-06-05 18:49:22.439620
11.48010771,0.7032585144,0.2088286877,-0.328438431,2024-06-05 18:49:22.480108
11.52059172,-1.0129776,-0.8560416698,-0.5611516833,2024-06-05 18:49:22.520592
11.56107844,2.048782825,-1.268913031,-1.91873455,2024-06-05 18:49:22.561078
11.60156667,1.065158844,-0.3047406673,0.2639083266,2024-06-05 18:49:22.601567
11.64205781,1.753160954,-0.7333877087,-0.4775656462,2024-06-05 18:49:22.642058
11.68254224,2.516691208,0.5324385166,0.2858690619,2024-06-05 18:49:22.682542
11.72302958,2.861691475,-0.02324533463,0.1651402116,2024-06-05 18:49:22.723030
11.76349177,3.169028282,-0.1271731853,0.1905723214,2024-06-05 18:49:22.763492
11.8039976,1.281505585,0.2239632607,0.2844254971,2024-06-05 18:49:22.803998
11.8444837,1.069144249,-0.6009495258,0.3169954419,2024-06-05 18:49:22.844484
11.88497063,1.974460602,0.3409535885,0.1329295039,2024-06-05 18:49:22.884971
11.92545406,1.515332222,1.19506216,0.1260998845,2024-06-05 18:49:22.925454
11.96592839,-1.074762344,0.4929220676,0.03301769495,2024-06-05 18:49:22.965928
12.00640667,-2.625641823,-0.8523101807,-0.3393101692,2024-06-05 18:49:23.006407
12.04690958,-0.008524894714,-1.14624548,-0.6227231026,2024-06-05 18:49:23.046910
12.08740151,0.8466591835,-0.08543968201,-0.04918453097,2024-06-05 18:49:23.087402
12.12784927,-0.2988605499,0.3208169937,-0.001855403185,2024-06-05 18:49:23.127849
12.16831156,-1.382005215,0.5820455551,0.4026392996,2024-06-05 18:49:23.168312
12.20880271,-1.443572521,0.9544053078,0.03634913266,2024-06-05 18:49:23.208803
12.24931797,-1.365258694,-0.6858344078,-0.7291548252,2024-06-05 18:49:23.249318
12.28979896,-1.358448505,-0.1390061378,-0.6293808222,2024-06-05 18:49:23.289799
12.33026958,-0.3700270653,1.774838448,-0.04301139712,2024-06-05 18:49:23.330270
12.37075057,-0.810529232,-0.3858332634,-1.309565425,2024-06-05 18:49:23.370751
12.41125844,-2.636431694,-2.304091454,-1.10858798,2024-06-05 18:49:23.411258
12.45174031,-1.826542854,-0.3294296265,-0.1327055693,2024-06-05 18:49:23.451740
12.49219651,-0.6586499214,1.110358715,-0.8117216825,2024-06-05 18:49:23.492197
12.53268219,0.8074879646,-0.7613730431,-0.9920791388,2024-06-05 18:49:23.532682
12.57316786,-0.8259077072,-3.299201965,-0.7099295855,2024-06-05 18:49:23.573168
12.61367787,2.911361933,-0.3627223969,-0.4750800133,2024-06-05 18:49:23.613678
12.65416005,2.244617939,0.5611696243,-0.1721781045,2024-06-05 18:49:23.654160
12.6946413,-1.942091942,0.5656075478,-0.1068226099,2024-06-05 18:49:23.694641
12.73510865,-1.824221611,-0.4731507301,-0.3812346458,2024-06-05 18:49:23.735109
12.77557391,-0.9922056198,-0.8761606216,-0.3077957928,2024-06-05 18:49:23.775574
12.81608964,-0.5565276146,-0.4044780731,-0.6986864805,2024-06-05 18:49:23.816090
12.85657088,0.2802901268,-0.7958841324,-0.2160894871,2024-06-05 18:49:23.856571
12.89707724,-0.4014291763,-1.402656078,-0.8585202098,2024-06-05 18:49:23.897077
12.93750177,-0.346446991,-1.535408497,-0.8683214784,2024-06-05 18:49:23.937502
12.97797307,-0.5785360336,-0.643907547,-0.5116462111,2024-06-05 18:49:23.977973
13.01845432,-0.9788599014,-0.9837026596,-0.1182590872,2024-06-05 18:49:24.018454
13.05893562,-1.044722557,-1.995951891,-0.7265043259,2024-06-05 18:49:24.058936
13.09948427,1.120190144,-2.081967115,-1.013495088,2024-06-05 18:49:24.099484
13.13994932,3.4585886,-0.2358000278,-1.526241779,2024-06-05 18:49:24.139949
13.18045787,2.690751076,0.5959975719,-0.6615872979,2024-06-05 18:49:24.180458
13.22092719,-0.1382246017,-0.3177661896,0.05849871039,2024-06-05 18:49:24.220927
13.26140177,2.694381714,-0.2865412235,0.240604341,2024-06-05 18:49:24.261402
13.30188307,4.049433708,0.2584123611,0.4416955113,2024-06-05 18:49:24.301883
13.34235708,2.800326824,0.2788002491,0.6629849076,2024-06-05 18:49:24.342357
13.38283922,-0.2976694107,0.78061378,0.4979174435,2024-06-05 18:49:24.382839
13.42333729,0.3421764374,-0.1457283497,-0.2534228563,2024-06-05 18:49:24.423337
13.46383323,1.96579361,0.5122613907,-0.2646290064,2024-06-05 18:49:24.463833
13.50433338,1.688629627,1.030190706,0.09460631013,2024-06-05 18:49:24.504333
13.5448163,0.564863205,0.1402833462,0.5192265511,2024-06-05 18:49:24.544816
13.58526891,0.9427204132,-0.5927243233,0.4662930965,2024-06-05 18:49:24.585269
13.62574964,0.9794869423,-0.5584363937,0.0433835201,2024-06-05 18:49:24.625750
13.66622677,1.691894531,0.5606265068,0.4426851273,2024-06-05 18:49:24.666227
13.70670947,-1.222640038,1.064760685,0.3826234639,2024-06-05 18:49:24.706709
13.74720666,-4.788496971,0.07289838791,0.2664753199,2024-06-05 18:49:24.747207
13.78765249,-2.133189678,-1.820334435,0.1833583564,2024-06-05 18:49:24.787652
13.82817411,-1.330555439,-2.457898617,-0.5989857912,2024-06-05 18:49:24.828174
13.86865229,-1.543233395,-1.121786594,0.01168319583,2024-06-05 18:49:24.868652
13.90915098,-0.1793556213,0.6460504532,-0.3177823424,2024-06-05 18:49:24.909151
13.94962677,-0.7281107903,0.1746768951,0.1624557972,2024-06-05 18:49:24.949627
13.99013119,-2.395824909,0.5050096512,0.2436630577,2024-06-05 18:49:24.990131
14.03061411,-1.501322746,0.3953986168,-0.1961073428,2024-06-05 18:49:25.030614
14.07105067,0.5658979416,-1.06902647,0.1219060048,2024-06-05 18:49:25.071051
14.11154151,1.296595573,-1.44879961,0.436521858,2024-06-05 18:49:25.111542
14.15202666,0.9395647049,0.4600095749,0.122046262,2024-06-05 18:49:25.152027
14.19248541,-1.076745033,-0.100186348,0.5890898108,2024-06-05 18:49:25.192485
14.23297807,-1.134467602,-1.210113525,0.2705416679,2024-06-05 18:49:25.232978
14.27346666,0.1106882095,-0.7342085838,-0.163600266,2024-06-05 18:49:25.273467
14.3139752,-1.376450062,-0.7287549973,-0.05696548894,2024-06-05 18:49:25.313975
14.35444145,-0.9761123657,-1.078333378,-0.3576066494,2024-06-05 18:49:25.354441
14.39494046,-0.756439209,-1.419686794,-0.4923812449,2024-06-05 18:49:25.394940
14.43543109,0.5770215988,-0.780579567,-0.2514971197,2024-06-05 18:49:25.435431
14.47590062,0.8427147865,0.210922718,-0.4311898649,2024-06-05 18:49:25.475901
14.51640124,0.8160209656,0.01695346832,-0.3025691211,2024-06-05 18:49:25.516401
14.55686255,0.2762393951,-0.4396033287,-0.02455809712,2024-06-05 18:49:25.556863
14.59733552,-0.9310874939,-0.5374240875,-1.240219831,2024-06-05 18:49:25.597336
14.63783426,0.08988571167,-0.9576134682,0.1140327603,2024-06-05 18:49:25.637834
14.67832692,2.251535416,-1.367226839,0.7752657533,2024-06-05 18:49:25.678327
14.71880958,3.11645937,-0.9342536926,0.3404756188,2024-06-05 18:49:25.718810
14.75926588,1.701192379,-0.07457613945,-0.02768799663,2024-06-05 18:49:25.759266
14.79974869,4.098248959,1.54220295,0.523198247,2024-06-05 18:49:25.799749
14.84035901,4.075616837,1.299212694,0.1902410984,2024-06-05 18:49:25.840359
14.88073968,1.047320366,0.5645637512,0.6230526567,2024-06-05 18:49:25.880740
14.92125583,-0.5408210754,0.3252267838,0.3858154714,2024-06-05 18:49:25.921256
14.96168557,2.552947998,0.3238506317,0.8396481872,2024-06-05 18:49:25.961686
15.00216833,2.221767426,1.010277033,0.64441818,2024-06-05 18:49:26.002168
15.0426415,0.03516769409,-0.1686787605,0.4440261126,2024-06-05 18:49:26.042642
15.08312609,0.01133441925,-0.7124757767,-0.1946347356,2024-06-05 18:49:26.083126
15.1236213,-0.6516466141,-0.6063776016,0.3801220059,2024-06-05 18:49:26.123621
15.1641513,-5.019425869,-1.071437359,0.03997629881,2024-06-05 18:49:26.164151
15.20466838,-4.046024799,-3.39415884,-0.1173371375,2024-06-05 18:49:26.204668
15.24510624,-0.1956152916,-1.76080513,-0.1402453184,2024-06-05 18:49:26.245106
15.28559119,-0.7248854637,-0.1725687981,-0.2728500366,2024-06-05 18:49:26.285591
15.32607281,-1.548166752,-0.6075325012,0.3092439771,2024-06-05 18:49:26.326073
15.36656968,0.1835846901,2.050549507,-0.4354902804,2024-06-05 18:49:26.366570
15.40703395,-0.2915182114,1.424390316,0.8130303621,2024-06-05 18:49:26.407034
15.44752265,-2.634584427,0.06668519974,0.06171156466,2024-06-05 18:49:26.447523
15.48801354,-1.27121067,-0.8868136406,-0.1440326273,2024-06-05 18:49:26.488014
15.52847874,-0.1117982864,-0.6793575287,0.3164545,2024-06-05 18:49:26.528479
15.56896598,-1.601815224,-1.382247925,-0.3236813843,2024-06-05 18:49:26.568966
15.6094551,-1.487819672,-0.07281064987,-0.642166853,2024-06-05 18:49:26.609455
15.64993973,0.8422365189,-0.8786864281,-0.3039412498,2024-06-05 18:49:26.649940
15.69043265,-1.124370575,-2.052871227,-1.204646945,2024-06-05 18:49:26.690433
15.73091026,-1.767098427,-0.6337909698,-0.9204802513,2024-06-05 18:49:26.730910
15.77138161,0.4934873581,0.8041553497,-0.5785800815,2024-06-05 18:49:26.771382
15.8118602,0.8553123474,-0.4047131538,-0.8009446859,2024-06-05 18:49:26.811860
15.85233427,0.308880806,-1.431017876,-0.9396763444,2024-06-05 18:49:26.852334
15.8928201,1.763310432,-1.850977898,-0.3945783079,2024-06-05 18:49:26.892820
15.93329963,-2.711392403,-1.728661776,-1.035107851,2024-06-05 18:49:26.933300
15.97380208,-0.07791519165,-2.630778074,-0.1105818152,2024-06-05 18:49:26.973802
16.01425692,1.181559563,-1.356472969,-0.5155230761,2024-06-05 18:49:27.014257
16.0547588,2.622831821,-1.084212542,-0.1362163126,2024-06-05 18:49:27.054759
16.09524661,4.576552391,0.3762147427,0.5846158862,2024-06-05 18:49:27.095247
16.13573005,4.833833694,1.944197059,0.07070618868,2024-06-05 18:49:27.135730
16.17622484,2.147254467,1.999575257,0.449996084,2024-06-05 18:49:27.176225
16.21670421,3.058506489,0.8917191029,0.1026411355,2024-06-05 18:49:27.216704
16.2571765,2.557678223,0.8095035553,0.3008793592,2024-06-05 18:49:27.257176
16.29772171,-0.2775783539,0.3756375313,-0.1725855768,2024-06-05 18:49:27.297722
16.33818411,-0.09757614136,0.101934433,0.1344296932,2024-06-05 18:49:27.338184
16.37863463,2.406644344,0.9276137352,-0.2242492735,2024-06-05 18:49:27.378635
16.41911812,0.8586564064,1.797446251,0.1632533818,2024-06-05 18:49:27.419118
16.45961661,-1.907683849,-0.7457332611,-0.7373234034,2024-06-05 18:49:27.459617
16.50009223,-2.603428364,-2.139843941,0.5748286843,2024-06-05 18:49:27.500092
16.54056791,-0.394554615,-1.044910431,-0.2357315123,2024-06-05 18:49:27.540568
16.58105093,-1.367198944,-1.281685829,0.247824803,2024-06-05 18:49:27.581051
16.6215276,0.2574710846,-3.03151083,-0.3298559189,2024-06-05 18:49:27.621528
16.6620114,-1.437766552,0.5604171753,0.193731606,2024-06-05 18:49:27.662011
16.70249651,-0.9088859558,1.895792484,0.4192753434,2024-06-05 18:49:27.702497
16.74294317,-2.044843197,-0.9382815361,0.3526645601,2024-06-05 18:49:27.742943
16.78342593,-2.886754036,-0.6441602707,-0.1232715845,2024-06-05 18:49:27.783426
16.82394176,-0.1590843201,-1.240746498,0.6249240637,2024-06-05 18:49:27.823942
16.86446854,0.1718144417,-1.525760651,1.000601888,2024-06-05 18:49:27.864469
16.9049102,-0.1557445526,1.071385384,0.675293684,2024-06-05 18:49:27.904910
16.94539291,0.8079710007,0.9462747574,0.6959292293,2024-06-05 18:49:27.945393
16.98588874,-1.824663639,-0.5734305382,-0.02558320761,2024-06-05 18:49:27.985889
17.02635244,-1.685937881,-1.534556866,-0.281460762,2024-06-05 18:49:28.026352
17.06683953,-1.857907295,-1.153344154,-0.001057803631,2024-06-05 18:49:28.066840
17.10738161,-0.7350931168,-1.518127918,-0.4835935831,2024-06-05 18:49:28.107382
17.14784072,-0.2700157166,-1.974083424,0.07620710135,2024-06-05 18:49:28.147841
17.18831416,0.2619190216,-1.808148384,-0.5806307197,2024-06-05 18:49:28.188314
17.22878463,1.115207672,-0.002084732056,-0.2514535785,2024-06-05 18:49:28.228785
17.26923682,0.1776533127,1.730944276,-0.6649911404,2024-06-05 18:49:28.269237
17.30976984,0.475777626,-1.821882248,-0.1325649917,2024-06-05 18:49:28.309770
17.35024119,3.506869316,-1.272866964,-0.0526188463,2024-06-05 18:49:28.350241
17.39073249,2.725413322,0.3392996788,0.4915781617,2024-06-05 18:49:28.390732
17.4312489,2.110836506,-0.2388379574,1.294312239,2024-06-05 18:49:28.431249
17.47171026,3.149415016,1.068099737,0.5920884609,2024-06-05 18:49:28.471710
17.51219322,5.211494923,0.8949592113,0.002217995934,2024-06-05 18:49:28.512193
17.55264723,2.667167664,0.9556734562,0.454030782,2024-06-05 18:49:28.552647
17.59312151,3.431135654,0.6995959282,0.2903012633,2024-06-05 18:49:28.593122
17.63363031,0.9792928696,0.9403059483,0.5475101471,2024-06-05 18:49:28.633630
17.67415119,-1.372426033,-1.125900269,1.341218948,2024-06-05 18:49:28.674151
17.71463421,-1.387495041,-1.478298664,1.200611353,2024-06-05 18:49:28.714634
17.75507552,-2.215967178,-0.936293602,1.745535135,2024-06-05 18:49:28.755076
17.79555942,-3.813771725,-1.84962368,0.7342188358,2024-06-05 18:49:28.795559
17.83602958,-1.686674595,-1.463890076,0.721816957,2024-06-05 18:49:28.836030
17.87651666,0.2128949165,2.13573885,0.3592165709,2024-06-05 18:49:28.876517
17.91699926,-3.633627892,-1.003201008,0.16428864,2024-06-05 18:49:28.916999
17.95750458,-1.528063297,0.1721053123,1.353108883,2024-06-05 18:49:28.957505
17.99799026,-0.5900101662,0.09482097626,0.7301381826,2024-06-05 18:49:28.997990
18.03842166,-1.189353466,-1.438816547,0.6711058617,2024-06-05 18:49:29.038422
18.07896697,-2.091216564,-1.448657513,0.589530468,2024-06-05 18:49:29.078967
18.11942072,-0.4948620796,-1.489713192,0.390612036,2024-06-05 18:49:29.119421
18.15990307,-2.914329529,-2.415263653,0.358689785,2024-06-05 18:49:29.159903
18.20038765,0.8937168121,0.5556850433,0.6053206921,2024-06-05 18:49:29.200388
18.24088567,0.3271603584,0.7375211716,-0.4512057602,2024-06-05 18:49:29.240886
18.28134322,-1.556765079,-0.5154180527,-0.6459888816,2024-06-05 18:49:29.281343
18.32184911,0.7247056961,-1.091681957,-0.8315545917,2024-06-05 18:49:29.321849
18.36233249,-1.310976982,-1.135753155,-1.084643364,2024-06-05 18:49:29.362332
18.40280109,-1.871418953,-1.958057404,-1.066984415,2024-06-05 18:49:29.402801
18.44327848,-0.2025985718,-1.439496517,-0.5516244769,2024-06-05 18:49:29.443278
18.48375859,-0.260058403,0.07186675072,-2.022958994,2024-06-05 18:49:29.483759
18.52426364,1.129733086,0.3723013401,-2.766576052,2024-06-05 18:49:29.524264
18.56474374,2.478286266,-0.4032826424,-1.2041049,2024-06-05 18:49:29.564744
18.60523911,4.182425499,-0.02889847755,-0.2561812997,2024-06-05 18:49:29.605239
18.64572083,4.751073837,0.6474363804,-0.1993796825,2024-06-05 18:49:29.645721
18.68617609,4.43990612,0.6841150522,-0.2886699438,2024-06-05 18:49:29.686176
18.72666494,3.980599403,0.8368587494,-0.9622850418,2024-06-05 18:49:29.726665
18.76715921,2.032634258,0.9152312279,-1.437042236,2024-06-05 18:49:29.767159
18.8076501,1.029310703,0.4877235889,-1.484422088,2024-06-05 18:49:29.807650
18.84814057,-1.370253563,-0.02963495255,-0.7962962389,2024-06-05 18:49:29.848141
18.88861708,-1.086663246,0.2505912781,-0.6946445107,2024-06-05 18:49:29.888617
18.92911718,0.08949136734,1.984506607,0.5456689,2024-06-05 18:49:29.929117
18.96959161,-0.5219287872,2.078289032,0.9963493347,2024-06-05 18:49:29.969592
19.01001744,-1.423432827,0.8664727211,0.1579038054,2024-06-05 18:49:30.010017
19.05051458,-0.8358697891,0.3349690437,0.556620121,2024-06-05 18:49:30.050515
19.09102322,-3.076071262,-0.3832302094,-0.6179320216,2024-06-05 18:49:30.091023
19.13150291,-3.581539154,-2.299694061,-0.9493111968,2024-06-05 18:49:30.131503
19.17197926,-3.327052116,-0.8065342903,-0.3675402999,2024-06-05 18:49:30.171979
19.21244833,-1.622391701,-1.029340267,-0.8168803453,2024-06-05 18:49:30.212448
19.25292463,0.9471178055,-0.869781971,0.1710138917,2024-06-05 18:49:30.252925
19.29343723,0.3689007759,-2.293530941,0.9622638226,2024-06-05 18:49:30.293437
19.33394635,-0.3117995262,-1.326473236,-0.004139125347,2024-06-05 18:49:30.333946
19.37443609,-0.440682888,-1.087038517,0.2523531914,2024-06-05 18:49:30.374436
19.41492984,-0.2883419991,0.03185939789,0.08894544095,2024-06-05 18:49:30.414930
19.45538338,-0.6660490036,-0.9491114616,-0.8015397787,2024-06-05 18:49:30.455383
19.4958515,-3.737761021,-0.3366513252,-0.781732142,2024-06-05 18:49:30.495852
19.53633562,-0.8475179672,0.5972437859,0.09713962674,2024-06-05 18:49:30.536336
19.57680906,0.9766368866,-1.450180531,-1.49505949,2024-06-05 18:49:30.576809
19.61731494,0.3229522705,-2.149794102,-1.572393179,2024-06-05 18:49:30.617315
19.65780645,-1.299239159,-1.971381903,-0.6600182056,2024-06-05 18:49:30.657806
19.69828671,1.053637505,-1.070341587,-0.6745653152,2024-06-05 18:49:30.698287
19.73875166,5.359095573,0.8015713692,1.058319569,2024-06-05 18:49:30.738752
19.77922572,6.198664665,1.20155859,0.7657350302,2024-06-05 18:49:30.779226
19.81972776,5.447978497,1.04590559,0.1733586192,2024-06-05 18:49:30.819728
19.86023203,4.165003777,1.32869029,-0.2595114708,2024-06-05 18:49:30.860232
19.90070406,2.381825447,0.526966095,0.1566574574,2024-06-05 18:49:30.900704
19.94118437,0.8141765594,-0.2127304077,0.7943273187,2024-06-05 18:49:30.941184
19.98167062,-1.959661484,-0.4463787079,1.236325264,2024-06-05 18:49:30.981671
20.0221351,-2.437963963,-0.0970082283,0.5203355551,2024-06-05 18:49:31.022135
20.06261505,-1.669764996,1.531708241,0.5236806273,2024-06-05 18:49:31.062615
20.10309682,-1.271768093,1.496304989,0.18301332,2024-06-05 18:49:31.103097
20.14357312,-2.437923431,0.07284164429,-0.3072324991,2024-06-05 18:49:31.143573
20.18406755,-3.304067612,-0.4493079185,-0.6300646067,2024-06-05 18:49:31.184068
20.22456656,-3.89261198,-0.3535909653,-0.29371804,2024-06-05 18:49:31.224567
20.26503947,-2.020554543,0.05043935776,-0.8127797246,2024-06-05 18:49:31.265039
20.30555562,-0.6459965706,-1.032942295,-0.2212726474,2024-06-05 18:49:31.305556
20.34603588,-1.153231144,-2.780964375,0.1184787005,2024-06-05 18:49:31.346036
20.3865364,0.6328063011,-1.567592144,0.2585770786,2024-06-05 18:49:31.386536
20.42696661,-0.07401227951,-1.057564735,0.5207461715,2024-06-05 18:49:31.426967
20.46748354,-1.149171829,-0.3608193398,-0.1275779009,2024-06-05 18:49:31.467484
20.50796843,0.234152317,0.05027341843,-1.183837295,2024-06-05 18:49:31.507968
20.54845213,-3.493795395,-0.7482671738,-0.8901920319,2024-06-05 18:49:31.548452
20.58891359,-1.613603592,-2.733998299,0.6668972969,2024-06-05 18:49:31.588914
20.62941932,-0.1741456985,-2.61980772,-2.440097809,2024-06-05 18:49:31.629419
20.66990963,0.1632299423,-0.6485214233,-1.278430939,2024-06-05 18:49:31.669910
20.71039328,1.449904919,-1.601392746,0.03110904992,2024-06-05 18:49:31.710393
20.75086557,5.221815586,-0.9062168598,0.3048462868,2024-06-05 18:49:31.750866
20.79134958,5.76851368,0.3099710941,1.009243965,2024-06-05 18:49:31.791350
20.83180072,5.514727116,1.897086978,0.6639800072,2024-06-05 18:49:31.831801
20.8722713,5.454082489,2.505689383,0.4402342737,2024-06-05 18:49:31.872271
20.9127477,3.39955759,1.42037344,0.4576815963,2024-06-05 18:49:31.912748
20.95326182,1.702195644,-0.509108305,0.4759803414,2024-06-05 18:49:31.953262
20.99375624,0.6662669182,-0.8862543106,0.4753663838,2024-06-05 18:49:31.993756
21.03422291,-1.874455452,0.4939928055,-0.03449624777,2024-06-05 18:49:32.034223
21.07471281,-1.931794643,0.712348938,0.1082416773,2024-06-05 18:49:32.074713
21.11524072,-1.741261482,-0.8987736702,-0.6735667586,2024-06-05 18:49:32.115241
21.15570604,-3.626505852,-3.095791817,-0.04729938507,2024-06-05 18:49:32.155706
21.19618296,-3.091276646,-1.997408867,0.4882932007,2024-06-05 18:49:32.196183
21.23663838,-4.61626339,-1.284740925,0.763891995,2024-06-05 18:49:32.236638
21.27713005,-2.208666325,-0.2346925735,0.5997857451,2024-06-05 18:49:32.277130
21.31761359,-0.7104563713,-0.3774118423,-0.2255313993,2024-06-05 18:49:32.317614
21.35814031,0.2249903679,-0.5061612129,0.730137229,2024-06-05 18:49:32.358140
21.3985864,-0.1315488815,0.08962488174,-0.2699726224,2024-06-05 18:49:32.398586
21.4390538,-1.69910717,0.2841243744,-0.7556422353,2024-06-05 18:49:32.439054
21.47956973,-2.395339966,-1.020608902,-1.06985116,2024-06-05 18:49:32.479570
21.520069,-2.388236046,-2.868237019,-1.34528625,2024-06-05 18:49:32.520069
21.56052968,0.8273901939,-2.7115345,-0.2473460436,2024-06-05 18:49:32.560530
21.60100796,0.6696157455,-1.434968948,-2.044161558,2024-06-05 18:49:32.601008
21.64148031,1.024425507,-1.606984138,-1.041414738,2024-06-05 18:49:32.641480
21.68193468,-1.310799599,-1.906982422,-0.6233902574,2024-06-05 18:49:32.681935
21.72241828,3.422853947,-1.347569227,-0.3079143167,2024-06-05 18:49:32.722418
21.76291526,9.849173546,0.1761434078,1.21784544,2024-06-05 18:49:32.762915
21.80340317,6.63089323,4.400738239,2.01811409,2024-06-05 18:49:32.803403
21.84393145,3.134608269,2.278186083,1.147834778,2024-06-05 18:49:32.843931
21.88445848,-0.5999565125,-0.7081141472,0.2050386071,2024-06-05 18:49:32.884458
21.92488791,2.756149292,-2.38734293,-0.3671826124,2024-06-05 18:49:32.924888
21.96537249,1.083237648,0.5077610016,0.6917665601,2024-06-05 18:49:32.965372
22.00582426,0.718296051,0.8996915817,0.2035806775,2024-06-05 18:49:33.005824
22.04629635,-0.2932434082,-0.6035647392,0.5025593042,2024-06-05 18:49:33.046296
22.0868377,-1.19219923,-1.04369688,0.6517387629,2024-06-05 18:49:33.086838
22.12735213,-3.280171394,-2.809887886,1.253552318,2024-06-05 18:49:33.127352
22.16780604,-5.695963383,-2.451392174,-0.3373777866,2024-06-05 18:49:33.167806
22.20826692,-5.33301878,-1.424209118,0.06113031507,2024-06-05 18:49:33.208267
22.24875109,-0.1057915688,-0.2398843765,0.001220494509,2024-06-05 18:49:33.248751
22.28924312,0.3820710182,-1.710233212,0.3642585278,2024-06-05 18:49:33.289243
22.3297189,0.3315858841,0.9379396439,0.1952479184,2024-06-05 18:49:33.329719
22.37019093,-2.232822895,0.6706457138,0.2801881433,2024-06-05 18:49:33.370191
22.41069536,-2.966721535,-0.6322493553,-0.3966034353,2024-06-05 18:49:33.410695
22.4511938,-2.922249794,-1.719584465,-1.120179176,2024-06-05 18:49:33.451194
22.49163427,-1.572805405,-5.111826897,0.1248632371,2024-06-05 18:49:33.491634
22.53208859,0.2728910446,-2.585681915,-2.774083614,2024-06-05 18:49:33.532089
22.57258213,-0.2315883636,-1.086577415,-1.505900145,2024-06-05 18:49:33.572582
22.61309302,1.412719727,-1.42201066,-0.719442606,2024-06-05 18:49:33.613093
22.65359489,5.666888237,1.156256318,0.1817225367,2024-06-05 18:49:33.653595
22.69408348,8.452805519,0.486230135,0.5588102341,2024-06-05 18:49:33.694083
22.73453328,7.573265076,1.562955022,0.6711495519,2024-06-05 18:49:33.734533
22.77499994,6.291670799,1.344026804,1.265586138,2024-06-05 18:49:33.775000
22.81549906,2.362304688,1.032510281,0.780557096,2024-06-05 18:49:33.815499
22.85599848,-0.3032722473,-0.8499333858,0.4054304063,2024-06-05 18:49:33.855998
22.89647984,-1.999534607,-3.25254488,0.5642570257,2024-06-05 18:49:33.896480
22.93696682,-0.1585378647,-1.783138275,-0.1284487844,2024-06-05 18:49:33.936967
22.97745682,0.003341674805,-0.9166989326,0.09787642956,2024-06-05 18:49:33.977457
23.0178926,-2.270840168,-0.08871603012,-0.0157968998,2024-06-05 18:49:34.017893
23.05838197,-4.079268932,0.1839251518,-0.6133948565,2024-06-05 18:49:34.058382
23.09888859,-3.622562408,-1.092961311,0.3440296352,2024-06-05 18:49:34.098889
23.13938328,-2.704710007,-1.974545956,0.7643485069,2024-06-05 18:49:34.139383
23.17986098,-2.204888821,-1.07781601,0.5534851551,2024-06-05 18:49:34.179861
23.22033984,-1.673071861,-0.4955644608,0.6255431175,2024-06-05 18:49:34.220340
23.26082083,-0.9972529411,-0.3106536865,0.6616325974,2024-06-05 18:49:34.260821
23.30130187,-0.1633672714,0.2689628601,0.01268622279,2024-06-05 18:49:34.301302
23.341784,-2.151995659,-0.04840326309,-1.107387781,2024-06-05 18:49:34.341784
23.38226718,-3.387163162,-0.4300751686,-1.499272227,2024-06-05 18:49:34.382267
23.42275744,-2.582958221,-2.793198586,-2.322296381,2024-06-05 18:49:34.422757
23.46321411,2.030013084,-3.138051033,-2.837135553,2024-06-05 18:49:34.463214
23.50372739,0.0533285141,-1.246379137,-0.7301750183,2024-06-05 18:49:34.503727
23.54419312,1.900575638,-2.744638205,-0.3682899773,2024-06-05 18:49:34.544193
23.58466635,3.340919971,-1.747744799,0.07887886465,2024-06-05 18:49:34.584666
23.62525416,5.521414757,0.5332689285,0.8545224667,2024-06-05 18:49:34.625254
23.66566989,6.94984436,1.679306149,1.017642617,2024-06-05 18:49:34.665670
23.7061414,8.051570892,2.385010481,1.00768137,2024-06-05 18:49:34.706141
23.74659802,4.992873192,1.85343802,-0.04394796491,2024-06-05 18:49:34.746598
23.78712755,1.468831062,-0.2302868366,-0.09020876884,2024-06-05 18:49:34.787128
23.82759244,-2.465828896,-2.078525066,0.2475770712,2024-06-05 18:49:34.827592
23.86808312,-2.117377758,-2.432085991,-1.107266665,2024-06-05 18:49:34.868083
23.90857588,-3.265418053,-2.842909813,-0.5221772194,2024-06-05 18:49:34.908576
23.94906255,-2.478544235,-0.495007515,-0.3555828333,2024-06-05 18:49:34.949063
23.98953802,-2.184691429,0.1275177002,-0.4998027682,2024-06-05 18:49:34.989538
24.03000052,-2.729640007,-0.4779729843,0.8798499107,2024-06-05 18:49:35.030001
24.07050645,-1.385020733,-0.8158445358,0.6853830814,2024-06-05 18:49:35.070506
24.11098489,-1.878325939,-1.550567627,0.1248945594,2024-06-05 18:49:35.110985
24.15146343,-1.406485081,-0.6207208633,0.3005596399,2024-06-05 18:49:35.151463
24.19194208,-1.14646101,-0.3962316513,0.5536292791,2024-06-05 18:49:35.191942
24.23242552,-1.537599564,-0.07218122482,-0.07332333922,2024-06-05 18:49:35.232426
24.27290354,-1.800111294,-0.6190638542,-0.4088953137,2024-06-05 18:49:35.272904
24.31338734,-2.530698776,-1.198951721,-1.637222409,2024-06-05 18:49:35.313387
24.35385979,-1.823511124,-3.132680893,-0.382255435,2024-06-05 18:49:35.353860
24.39438067,0.770108223,-3.51101923,-0.9823138118,2024-06-05 18:49:35.394381
24.43486052,1.868543148,-1.832141876,-1.515320897,2024-06-05 18:49:35.434861
24.47536588,-0.42964077,-0.01513600349,-1.279613137,2024-06-05 18:49:35.475366
24.5158289,4.522073269,-1.586098194,-0.3529972732,2024-06-05 18:49:35.515829
24.55629244,5.812474251,1.609050989,-0.6234536767,2024-06-05 18:49:35.556292
24.59677531,8.244960785,2.49531436,0.444924742,2024-06-05 18:49:35.596775
24.63726171,6.653626919,1.84757781,0.6994504333,2024-06-05 18:49:35.637262
24.67776505,3.920265675,2.085384607,0.510902822,2024-06-05 18:49:35.677765
24.71824744,0.5836591721,0.3297550678,-0.03831580281,2024-06-05 18:49:35.718247
24.75874947,-2.610097885,-1.415647984,-0.4419922829,2024-06-05 18:49:35.758749
24.79920895,0.7099776268,-2.207402229,-1.046297073,2024-06-05 18:49:35.799209
24.83966697,-1.378456593,-3.454522133,-0.4973985553,2024-06-05 18:49:35.839667
24.88016135,-2.546051025,-0.1890497208,-0.8545563221,2024-06-05 18:49:35.880161
24.92064031,-3.67584753,0.7297768593,-0.305947125,2024-06-05 18:49:35.920640
24.96114895,-3.979270458,-1.937250614,0.6720459461,2024-06-05 18:49:35.961149
25.0016326,-4.044898033,-2.351493359,0.3560396433,2024-06-05 18:49:36.001633
25.04207229,-2.331439972,0.4365830421,0.7158063054,2024-06-05 18:49:36.042072
25.08255635,-0.5430698395,-0.04022979736,0.8068234324,2024-06-05 18:49:36.082556
25.12304041,-0.2264680862,-0.4623622894,0.3420165181,2024-06-05 18:49:36.123040
25.16357562,-1.388348579,-0.7818059921,0.1554297805,2024-06-05 18:49:36.163576
25.20402609,-2.122545719,-1.640987396,-1.041201115,2024-06-05 18:49:36.204026
25.24451104,-1.180663109,-2.855594158,-0.5966956019,2024-06-05 18:49:36.244511
25.28500416,-1.824924469,-3.777819157,-0.6082342863,2024-06-05 18:49:36.285004
25.32550166,-0.3633518219,-2.54416275,-0.3200394511,2024-06-05 18:49:36.325502
25.36598807,1.423788071,-1.824840069,-1.018316984,2024-06-05 18:49:36.365988
25.4064614,4.140458584,-0.9086749554,0.2688400149,2024-06-05 18:49:36.406461
25.44692276,6.196278095,0.856590271,0.7047143579,2024-06-05 18:49:36.446923
25.48742411,4.194408894,1.804798365,0.3168878257,2024-06-05 18:49:36.487424
25.5279138,5.086443424,0.2343049049,0.8228048086,2024-06-05 18:49:36.527914
25.56839328,5.805639267,2.204773426,0.6134028435,2024-06-05 18:49:36.568393
25.60885781,5.362431526,1.429600596,0.8431671858,2024-06-05 18:49:36.608858
25.64935479,2.339997292,-0.7798798084,0.382596314,2024-06-05 18:49:36.649355
25.68982999,-0.9006319046,-2.125977039,0.1534622312,2024-06-05 18:49:36.689830
25.73032072,-1.873337269,-2.167755127,-0.3926339746,2024-06-05 18:49:36.730321
25.77081328,-2.501717091,-2.448840618,-0.6141175628,2024-06-05 18:49:36.770813
25.81129676,-2.37953186,-1.154531479,-0.2568683624,2024-06-05 18:49:36.811297
25.85177374,-3.279784679,-0.4407138824,-0.4341851473,2024-06-05 18:49:36.851774
25.89226765,-2.972542286,-0.243906498,1.035449505,2024-06-05 18:49:36.892268
25.93272057,-4.294621468,-0.06912517548,0.7189913392,2024-06-05 18:49:36.932721
25.97319838,-3.524134636,-0.09861898422,0.5502186418,2024-06-05 18:49:36.973198
26.01366057,-1.390019417,-0.3188843727,0.8822923303,2024-06-05 18:49:37.013661
26.05416536,-0.7953438759,-0.7567205429,0.4623882174,2024-06-05 18:49:37.054165
26.09467218,-0.7241821289,-1.762142658,-0.1511422396,2024-06-05 18:49:37.094672
26.13516067,-2.291055679,-2.013256073,-0.8191946149,2024-06-05 18:49:37.135161
26.17564124,-2.736686707,-1.477793217,-1.167570233,2024-06-05 18:49:37.175641
26.21614286,-1.245537758,-3.049419403,-1.534779549,2024-06-05 18:49:37.216143
26.25661661,0.3372297287,-2.285501719,-1.304644227,2024-06-05 18:49:37.256617
26.29711286,1.934679508,-0.9263267517,-0.9818284512,2024-06-05 18:49:37.297113
26.33758458,4.568529606,-1.495810032,-1.14065218,2024-06-05 18:49:37.337585
26.37805505,4.138645172,0.3358354568,0.2486022562,2024-06-05 18:49:37.378055
26.41853942,5.470421791,0.5597457886,0.9693878889,2024-06-05 18:49:37.418539
26.45902359,6.764446735,1.911226869,1.100322723,2024-06-05 18:49:37.459024
26.49952203,6.918913364,2.923231125,0.8272114992,2024-06-05 18:49:37.499522
26.53998979,2.636095047,1.583793044,-0.009559832513,2024-06-05 18:49:37.539990
26.58046697,-0.8595790863,-1.908046246,-0.5889924765,2024-06-05 18:49:37.580467
26.62094906,-1.45499897,-2.834504128,-1.158345222,2024-06-05 18:49:37.620949
26.66144328,-1.231534481,-1.842488289,-0.4691981077,2024-06-05 18:49:37.661443
26.70192244,-2.614066601,-1.849431515,-0.1810091138,2024-06-05 18:49:37.701922
26.74239369,-2.546512604,-0.5882091522,-0.06578424573,2024-06-05 18:49:37.742394
26.7828626,-3.168664455,-1.525771141,-0.3470594585,2024-06-05 18:49:37.782863
26.82334619,-3.605032921,-1.701555729,0.5090484619,2024-06-05 18:49:37.823346
26.86385968,-4.176229477,0.1145920753,0.2627414763,2024-06-05 18:49:37.863860
26.9043276,-2.673923969,1.158725262,0.2151079476,2024-06-05 18:49:37.904328
26.94482588,-0.7822899818,-0.09234952927,0.3544830382,2024-06-05 18:49:37.944826
26.98530885,0.4830803871,-0.8176207542,-0.02671270818,2024-06-05 18:49:37.985309
27.02576947,0.1636881828,-0.5465631485,-0.6952322125,2024-06-05 18:49:38.025769
27.06624166,-0.756029129,0.09867954254,-0.6616333127,2024-06-05 18:49:38.066242
27.10676041,-0.7503528595,0.4391131401,-0.655523777,2024-06-05 18:49:38.106760
27.14724406,-2.409323692,-2.489464283,-1.941485047,2024-06-05 18:49:38.147244
27.18772046,-0.0194606781,-3.819465399,-1.54241991,2024-06-05 18:49:38.187720
27.22821973,-0.1487512589,-2.586845875,-1.092212796,2024-06-05 18:49:38.228220
27.26868531,2.494398594,-1.398263216,0.1789720953,2024-06-05 18:49:38.268685
27.30915776,5.290458679,0.7370744944,0.3517705798,2024-06-05 18:49:38.309158
27.34965598,6.832835197,1.878408909,1.07972312,2024-06-05 18:49:38.349656
27.39013687,7.909851551,1.364149928,0.8825927377,2024-06-05 18:49:38.390137
27.43063333,3.7727952,1.616894245,0.9386867285,2024-06-05 18:49:38.430633
27.4711038,0.99877882,-0.7174139023,0.792965889,2024-06-05 18:49:38.471104
27.5115788,0.005604743958,-1.341663361,0.2746014595,2024-06-05 18:49:38.511579
27.55209328,-1.039740562,-1.659814358,0.1120907068,2024-06-05 18:49:38.552093
27.59257682,-1.159288883,-1.943375587,-0.6516042948,2024-06-05 18:49:38.592577
27.63299557,-2.712919712,-1.964479923,-0.3228774071,2024-06-05 18:49:38.632996
27.6734738,-3.199797153,-0.3759274483,-0.600051403,2024-06-05 18:49:38.673474
27.71396942,-3.222262859,0.003210067749,0.8504149914,2024-06-05 18:49:38.713969
27.75448624,-2.437983513,-0.8704428673,0.665530026,2024-06-05 18:49:38.754486
27.79495812,-2.331843376,-0.9435276985,0.6526200771,2024-06-05 18:49:38.794958
27.83546489,-1.230594635,-0.7979159355,0.6855453849,2024-06-05 18:49:38.835465
27.87600989,-0.4468898773,-0.0105342865,0.6436601281,2024-06-05 18:49:38.876010
27.91642588,-1.685037613,-0.1941518784,0.09655308723,2024-06-05 18:49:38.916426
27.95689473,-3.328094482,-0.5550279617,-0.2439212203,2024-06-05 18:49:38.956895
27.99741197,-2.442871094,-1.044963837,-1.024181724,2024-06-05 18:49:38.997412
28.03783864,-1.064189911,-2.064902306,-1.176617742,2024-06-05 18:49:39.037839
28.07837057,0.0693025589,-2.6769557,-1.494857788,2024-06-05 18:49:39.078371
28.11882494,0.06144237518,-0.9416947365,-1.279811144,2024-06-05 18:49:39.118825
28.15932557,0.3841915131,-2.130567551,-1.770061493,2024-06-05 18:49:39.159326
28.19979416,4.33632803,-1.418212652,-1.109210253,2024-06-05 18:49:39.199794
28.24027692,6.810992241,1.257558107,0.245187968,2024-06-05 18:49:39.240277
28.28081676,6.23323679,1.605980635,0.5973440409,2024-06-05 18:49:39.280817
28.32124109,5.024106979,1.48611927,0.3086031377,2024-06-05 18:49:39.321241
28.36175156,4.758069515,1.622309566,0.6723563075,2024-06-05 18:49:39.361752
28.40222083,4.088491917,0.5843989849,0.614590466,2024-06-05 18:49:39.402221
28.44269885,1.093682766,-1.005457878,0.3439344466,2024-06-05 18:49:39.442699
28.4831826,-1.44753933,-2.545340538,-0.3237748146,2024-06-05 18:49:39.483183
28.52367796,-2.589536667,-2.148908615,-0.6651932001,2024-06-05 18:49:39.523678
28.56415427,-3.036040783,-1.896672726,-0.8473625183,2024-06-05 18:49:39.564154
28.60462348,-3.098211288,-0.4934873581,-0.4303697944,2024-06-05 18:49:39.604623
28.64511926,-4.350747108,-0.8105502129,-0.3275721073,2024-06-05 18:49:39.645119
28.68562744,-3.501773834,-0.7171764374,0.5407091379,2024-06-05 18:49:39.685627
28.72610999,-2.661555767,0.2868227959,0.3691200018,2024-06-05 18:49:39.726110
28.76659176,-0.6473851204,-0.1775941849,0.3302110732,2024-06-05 18:49:39.766592
28.80706067,0.1244606972,-0.1301202774,0.09416379035,2024-06-05 18:49:39.807061
28.84754744,-0.840092659,0.2604393959,0.2907249629,2024-06-05 18:49:39.847547
28.88804968,-2.398999214,-0.993970871,-0.2556591332,2024-06-05 18:49:39.888050
28.9285263,-2.934771061,-1.435706139,-0.7022984028,2024-06-05 18:49:39.928526
28.96899947,-2.968886375,-2.404645443,0.5333431363,2024-06-05 18:49:39.968999
29.00947026,0.4445858002,-4.194343567,-1.839925051,2024-06-05 18:49:40.009470
29.04994229,-0.2715501785,-1.891468525,-0.3077151775,2024-06-05 18:49:40.049942
29.09045859,0.4118909836,-1.202894449,-0.8334672451,2024-06-05 18:49:40.090459
29.13096645,5.548537254,-1.396553993,-0.6300528049,2024-06-05 18:49:40.130966
29.1714339,6.598724365,0.5924803019,-0.1293217987,2024-06-05 18:49:40.171434
29.21190802,4.451758385,1.661181211,0.2058704048,2024-06-05 18:49:40.211908
29.25236067,5.587975502,1.432038069,0.6414871216,2024-06-05 18:49:40.252361
29.29283885,5.978714943,1.776036501,1.037828088,2024-06-05 18:49:40.292839
29.3333102,2.995611191,1.086374283,0.8207011223,2024-06-05 18:49:40.333310
29.37381416,0.1038427353,-1.090400219,0.4414484501,2024-06-05 18:49:40.373814
29.4143027,-1.570261955,-2.3478055,0.05911844969,2024-06-05 18:49:40.414303
29.45480119,-0.8190937042,-1.437046051,-0.5569318533,2024-06-05 18:49:40.454801
29.4952715,-2.41958046,-1.141900539,-0.5753667355,2024-06-05 18:49:40.495272
29.53574406,-3.721553802,0.1601476669,-0.1464657784,2024-06-05 18:49:40.535744
29.57624145,-3.256864071,0.09443759918,-0.2218913436,2024-06-05 18:49:40.576241
29.61675317,-2.633295536,-1.810521126,0.878125906,2024-06-05 18:49:40.616753
29.65723552,-2.79725647,-0.7307786942,0.8994475007,2024-06-05 18:49:40.657236
29.69769999,-2.653266907,0.5641422272,0.5096006989,2024-06-05 18:49:40.697700
29.73819265,0.1070218086,0.2754154205,0.07600320876,2024-06-05 18:49:40.738193
29.7786876,-1.554951668,-0.9228415489,0.1251844168,2024-06-05 18:49:40.778688
29.81915208,-2.232428074,-1.073482513,-1.006598473,2024-06-05 18:49:40.819152
29.85962031,-2.320161819,-0.8686032295,-0.7549360394,2024-06-05 18:49:40.859620
29.90011984,-1.862015724,-1.939285755,-1.260269403,2024-06-05 18:49:40.900120
29.9406052,-1.18522644,-2.811723232,-0.6233989,2024-06-05 18:49:40.940605
29.98108468,-0.07570457458,-2.511674404,-0.268012464,2024-06-05 18:49:40.981085
30.02155104,2.353654861,-2.460173368,-2.233319759,2024-06-05 18:49:41.021551
30.06202999,2.710285187,-0.7427883148,-1.098080993,2024-06-05 18:49:41.062030
30.10251119,4.743243694,-0.07958173752,0.5436865091,2024-06-05 18:49:41.102511
30.14299989,6.21555233,1.686958075,0.2809070051,2024-06-05 18:49:41.143000
30.18347031,6.372119904,1.580873728,0.5139873028,2024-06-05 18:49:41.183470
30.22398276,5.491089821,2.189864635,0.9060581923,2024-06-05 18:49:41.223983
30.26445302,3.128182888,1.628239512,0.8142982721,2024-06-05 18:49:41.264453
30.3049365,1.924354553,-1.046623468,0.1877447665,2024-06-05 18:49:41.304937
30.34545281,-1.673834801,-2.608599186,-0.1877934337,2024-06-05 18:49:41.345453
30.38591484,-2.37968874,-1.640594959,0.0251968503,2024-06-05 18:49:41.385915
30.42638359,-2.137990475,-1.426801205,-0.3029420376,2024-06-05 18:49:41.426384
30.46689229,-2.337094307,-1.381591797,-0.2676176429,2024-06-05 18:49:41.466892
30.50737651,-3.083665848,0.1755084991,-0.3015265465,2024-06-05 18:49:41.507377
30.54785708,-4.057217121,-0.6960568428,1.100947857,2024-06-05 18:49:41.547857
30.58837791,-2.812187672,-0.7080812454,0.6198735237,2024-06-05 18:49:41.588378
30.62881572,-2.421144009,0.1542077065,0.4699236453,2024-06-05 18:49:41.628816
30.66933765,-1.643264294,-0.2226138115,0.4491753578,2024-06-05 18:49:41.669338
30.70976723,1.240299702,-1.459162235,0.1324042678,2024-06-05 18:49:41.709767
30.75025645,-3.08304882,-0.3079571724,-0.1646120846,2024-06-05 18:49:41.750256
30.7907238,-4.564395428,0.04102230072,-0.9077249169,2024-06-05 18:49:41.790724
30.8312551,-1.447536469,-0.4326415062,-0.7913918495,2024-06-05 18:49:41.831255
30.87173359,-0.8926944733,-3.183582783,-1.191216707,2024-06-05 18:49:41.871734
30.91222255,0.5511808395,-3.159654856,-0.3850593567,2024-06-05 18:49:41.912223
30.95265864,1.565961838,-2.514330626,-0.3262806237,2024-06-05 18:49:41.952659
30.99313432,3.082355499,-2.38728404,-0.9451447725,2024-06-05 18:49:41.993134
31.03364067,4.567677975,0.3113391399,-0.3627176881,2024-06-05 18:49:42.033641
31.07413031,6.331848145,1.531714678,0.3764251769,2024-06-05 18:49:42.074130
31.11463031,3.455623627,0.9320055246,0.1139445007,2024-06-05 18:49:42.114630
31.15510854,5.376319885,1.892263055,0.4214560986,2024-06-05 18:49:42.155109
31.19559005,5.599432945,2.448507547,0.6853872538,2024-06-05 18:49:42.195590
31.23610411,2.662761211,0.4997768402,0.3404869437,2024-06-05 18:49:42.236104
31.27654802,-0.3635005951,-1.837638378,-0.3343629837,2024-06-05 18:49:42.276548
31.31704692,-4.103440285,-2.46417284,-0.01680698991,2024-06-05 18:49:42.317047
31.35755026,-2.559515476,-1.671150208,-0.2169293165,2024-06-05 18:49:42.357550
31.39802322,-3.882019997,-0.8612594604,0.0631609261,2024-06-05 18:49:42.398023
31.43849666,-3.485636711,-1.201376915,-0.3337587714,2024-06-05 18:49:42.438497
31.47898312,-2.1812253,-0.6130871773,0.9690734148,2024-06-05 18:49:42.478983
31.51946947,-2.978085041,-0.6062870026,0.3379339278,2024-06-05 18:49:42.519469
31.55994958,-1.922897339,1.192486763,-0.2233594656,2024-06-05 18:49:42.559950
31.60040083,-1.489519119,0.721124649,-0.03075996041,2024-06-05 18:49:42.600401
31.64089593,-1.784689426,-0.7367396355,-0.3657859564,2024-06-05 18:49:42.640896
31.68139687,-0.8261547089,-1.56192255,-0.3320860267,2024-06-05 18:49:42.681397
31.72188057,-2.613329887,-1.315340519,-0.9817234874,2024-06-05 18:49:42.721881
31.76236447,-2.229942322,-1.992296696,-0.5310431719,2024-06-05 18:49:42.762364
31.80284463,-3.151065826,-4.306027412,-2.210120201,2024-06-05 18:49:42.802845
31.84329869,-0.4811410904,-3.866267204,-0.09316007048,2024-06-05 18:49:42.843299
31.88379609,4.781775475,-0.1657922268,-0.9576735497,2024-06-05 18:49:42.883796
31.92430072,5.892459393,-0.6656196117,-1.01461935,2024-06-05 18:49:42.924301
31.96478994,3.0496068,0.04582905769,-0.02268469334,2024-06-05 18:49:42.964790
32.00526499,3.404497147,0.2612655163,0.5788388252,2024-06-05 18:49:43.005265
32.04579015,6.320789337,1.572764754,0.4649476707,2024-06-05 18:49:43.045790
32.08629781,6.616081715,2.075048447,0.6410821676,2024-06-05 18:49:43.086298
32.12670895,3.363500118,1.433609009,0.6501576304,2024-06-05 18:49:43.126709
32.16719932,1.562274933,-0.2052886486,0.3167648315,2024-06-05 18:49:43.167199
32.20767848,-0.2141876221,-1.486755848,0.03765890002,2024-06-05 18:49:43.207678
32.24815958,-2.13231802,-1.747225761,0.08945941925,2024-06-05 18:49:43.248160
32.2886539,-1.95497942,-2.449706554,-0.2132122517,2024-06-05 18:49:43.288654
32.32915723,-3.248971939,-1.008659363,0.6918272972,2024-06-05 18:49:43.329157
32.36964791,-3.63222456,0.8263788223,-0.5022411942,2024-06-05 18:49:43.369648
32.41011041,-2.850800514,-1.713540554,1.27775979,2024-06-05 18:49:43.410110
32.4505839,-2.826608658,-1.01896286,0.7064402699,2024-06-05 18:49:43.450584
32.49107807,-1.705504417,-0.3582859039,0.5230948329,2024-06-05 18:49:43.491078
32.53153765,-0.5709824562,-0.1201910973,1.108187675,2024-06-05 18:49:43.531538
32.57204374,-0.3475699425,0.0014128685,0.5819596052,2024-06-05 18:49:43.572044
32.61252713,-1.989793301,-0.497812748,0.4456130266,2024-06-05 18:49:43.612527
32.65300239,-2.825235844,-0.4427547455,0.457255125,2024-06-05 18:49:43.653002
32.69346989,-2.894691467,-2.325558186,-0.2568615675,2024-06-05 18:49:43.693470
32.73396526,-2.142796516,-5.247484207,-0.2343876362,2024-06-05 18:49:43.733965
32.77441807,-0.9207267761,-1.850766659,-0.06296753883,2024-06-05 18:49:43.774418
32.81491817,2.152738571,-1.319818735,-0.234685272,2024-06-05 18:49:43.814918
32.85541499,4.627337933,-3.076212406,-1.557061434,2024-06-05 18:49:43.855415
32.8959276,4.875294685,1.346540809,-0.2108747214,2024-06-05 18:49:43.895928
32.93639708,4.618885517,2.350446701,0.2492933869,2024-06-05 18:49:43.936397
32.97687328,4.503806114,-0.07912611961,1.270304203,2024-06-05 18:49:43.976873
33.01734171,4.69128418,2.213846922,0.9584174752,2024-06-05 18:49:44.017342
33.05783869,3.868104935,1.784901023,1.401727676,2024-06-05 18:49:44.057839
33.09831453,3.221441269,-0.6030039787,0.8334607482,2024-06-05 18:49:44.098315
33.13881223,1.519968987,-1.312562466,0.06701821089,2024-06-05 18:49:44.138812
33.17931567,-1.530608177,-1.441084385,0.4350056648,2024-06-05 18:49:44.179316
33.21978515,-3.200614452,-2.192681313,-0.08684664965,2024-06-05 18:49:44.219785
33.26026046,-2.095089912,-2.53360796,-0.37185359,2024-06-05 18:49:44.260260
33.30075557,-3.509314537,-0.7836608887,-0.8622488379,2024-06-05 18:49:44.300756
33.34124593,-3.669488907,-0.2308778763,0.9005256891,2024-06-05 18:49:44.341246
33.38173031,-2.702970028,0.09805011749,0.7759696245,2024-06-05 18:49:44.381730
33.42218989,-2.692526817,-0.2194800377,0.2734109163,2024-06-05 18:49:44.422190
33.46266124,-1.140759945,-0.4408011436,0.5944654942,2024-06-05 18:49:44.462661
33.50314463,-1.104706764,-0.1070566177,0.3734453917,2024-06-05 18:49:44.503145
33.54359999,-0.9363389015,-0.6187820435,0.330865562,2024-06-05 18:49:44.543600
33.58411734,-1.744048119,-1.058004379,-0.4323426187,2024-06-05 18:49:44.584117
33.62462786,-2.878835678,-0.9150481224,-0.4311980307,2024-06-05 18:49:44.624628
33.66509604,-1.485383034,-2.188084126,-1.160760522,2024-06-05 18:49:44.665096
33.70558223,-1.522363663,-3.215015411,-0.705368638,2024-06-05 18:49:44.705582
33.74606171,1.48369503,-1.763949871,-0.3485879004,2024-06-05 18:49:44.746062
33.78653203,2.587461948,-1.823734045,-0.9072313309,2024-06-05 18:49:44.786532
33.82711973,2.376988411,-1.103343487,-1.28508234,2024-06-05 18:49:44.827120
33.867499,4.956929207,1.411123753,0.02859412134,2024-06-05 18:49:44.867499
33.9080088,4.240169525,-0.9557330608,-0.2431193888,2024-06-05 18:49:44.908009
33.94846421,5.242403507,0.7864331007,0.4069452584,2024-06-05 18:49:44.948464
33.98895614,5.388449669,2.129365444,0.7899840474,2024-06-05 18:49:44.988956
34.02943765,4.632306099,1.21207571,0.677523911,2024-06-05 18:49:45.029438
34.06990734,1.720515251,-0.2472281456,0.2411884069,2024-06-05 18:49:45.069907
34.11043104,0.4151873589,-0.5583658218,-0.07260268927,2024-06-05 18:49:45.110431
34.15088953,-2.587051868,-1.576135159,-0.49056077,2024-06-05 18:49:45.150890
34.19141552,-2.210438251,-3.615129471,-1.389443159,2024-06-05 18:49:45.191416
34.23185114,-3.306267738,-2.854802132,-0.04642701149,2024-06-05 18:49:45.231851
34.27234114,-3.896446705,0.6404643059,-0.5129305124,2024-06-05 18:49:45.272341
34.31280057,-2.854076385,-0.5586652756,1.84683311,2024-06-05 18:49:45.312801
34.35329885,-1.400862217,-0.9013528824,-1.397675514,2024-06-05 18:49:45.353299
34.39379468,-2.440310478,-1.351131439,1.427178741,2024-06-05 18:49:45.393795
34.43428739,-0.1325817108,0.05607223511,-0.04734051228,2024-06-05 18:49:45.434287
34.47480744,-1.231847286,-0.391866684,0.01079654694,2024-06-05 18:49:45.474807
34.51524192,-1.1543293,-0.4941926003,0.1842961311,2024-06-05 18:49:45.515242
34.55572499,-1.051249504,-1.973874092,0.07529595494,2024-06-05 18:49:45.555725
34.59622359,-2.174054623,-3.055462837,0.249828428,2024-06-05 18:49:45.596224
34.63668864,-0.3724498749,-1.324177265,-2.527160645,2024-06-05 18:49:45.636689
34.67724229,0.07209205627,-2.030344009,0.9194796681,2024-06-05 18:49:45.677242
34.71772541,-0.5188360214,-2.344474554,-1.189088106,2024-06-05 18:49:45.717725
34.75814604,0.770904541,-1.625593901,-1.221820593,2024-06-05 18:49:45.758146
34.79862921,3.080545425,-1.455726862,-0.9730833769,2024-06-05 18:49:45.798629
34.83912213,3.73756218,-0.5313081741,-0.3970600069,2024-06-05 18:49:45.839122
34.87959963,5.381973267,1.109861493,0.2046887875,2024-06-05 18:49:45.879600
34.92007916,6.177638054,1.387119174,-0.1030549407,2024-06-05 18:49:45.920079
34.96059505,5.41914463,2.586563349,1.027487516,2024-06-05 18:49:45.960595
35.00104989,3.21325779,1.25121665,0.4143862426,2024-06-05 18:49:46.001050
35.04153161,1.425893784,-0.8561358452,0.02320440114,2024-06-05 18:49:46.041532
35.08203562,-0.06287670135,-1.343404055,0.4953832924,2024-06-05 18:49:46.082036
35.12247072,-2.143270493,-1.780767441,-0.4157483578,2024-06-05 18:49:46.122471
35.16296859,-1.382795334,-1.194661617,0.1280121207,2024-06-05 18:49:46.162969
35.20345156,-3.215490341,0.2274155617,0.1324543059,2024-06-05 18:49:46.203452
35.24395052,-3.414279461,-0.3301301003,-0.7712426782,2024-06-05 18:49:46.243951
35.28446598,-3.212379932,0.1457285881,0.7933290005,2024-06-05 18:49:46.284466
35.32494182,-2.727140903,-1.584080696,0.4580467343,2024-06-05 18:49:46.324942
35.36541401,-1.403080463,-0.03240394592,0.3419659138,2024-06-05 18:49:46.365414
35.40589895,-0.6343483925,0.6830892563,0.09496510029,2024-06-05 18:49:46.405899
35.44637244,-0.5205101967,1.635128498,0.1444305331,2024-06-05 18:49:46.446372
35.48689276,-0.92882061,0.4589762688,0.03430761397,2024-06-05 18:49:46.486893
35.52744437,-2.957434654,-0.7628321648,-0.5783941746,2024-06-05 18:49:46.527444
35.56783807,-3.321605682,-2.826965332,-0.1732982844,2024-06-05 18:49:46.567838
35.60833239,-0.9751038551,-1.562650681,-0.6533641815,2024-06-05 18:49:46.608332
35.64879203,-0.759344101,-1.369874001,0.3293468952,2024-06-05 18:49:46.648792
35.68927442,1.008897305,-1.847181797,-1.114134431,2024-06-05 18:49:46.689274
35.7297638,1.03182888,-2.833834648,-0.4309603572,2024-06-05 18:49:46.729764
35.77022708,0.6663999557,-1.083106995,-0.7956736088,2024-06-05 18:49:46.770227
35.81072588,2.746869564,-0.3702721596,-0.3664384484,2024-06-05 18:49:46.810726
35.85120328,5.609488487,0.7912333012,-0.81747365,2024-06-05 18:49:46.851203
35.89169926,4.374038696,1.173908949,0.1243515015,2024-06-05 18:49:46.891699
35.93219124,4.768807888,1.384327888,0.6095409393,2024-06-05 18:49:46.932191
35.97264546,5.333349228,1.469408751,0.08893477917,2024-06-05 18:49:46.972645
36.01313468,2.532648563,0.873765707,0.2417156696,2024-06-05 18:49:47.013135
36.05363166,0.8954520226,-0.3992600441,0.09324228764,2024-06-05 18:49:47.053632
36.09412333,-0.3620176315,-1.479344368,-0.3290339708,2024-06-05 18:49:47.094123
36.13462255,-0.58253479,-0.75912714,-0.5329990387,2024-06-05 18:49:47.134623
36.17509718,-1.275806904,-0.4755554199,-0.44138062,2024-06-05 18:49:47.175097
36.21558744,-2.680120468,-0.3269605637,0.3951700926,2024-06-05 18:49:47.215587
36.25606197,-2.229177952,0.4828195572,0.2382050753,2024-06-05 18:49:47.256062
36.29655208,-2.393437862,-1.583725452,-0.8049517274,2024-06-05 18:49:47.296552
36.33705026,-4.357666969,-3.14264679,1.39645803,2024-06-05 18:49:47.337050
36.37751869,-2.315898418,-1.241194725,0.411385119,2024-06-05 18:49:47.377519
36.41800953,-0.7594327927,0.4062461853,0.373100996,2024-06-05 18:49:47.418010
36.45849182,-0.9925265312,-0.2721896172,1.133193254,2024-06-05 18:49:47.458492
36.49896145,-1.193939209,-0.563519001,0.4789838791,2024-06-05 18:49:47.498961
36.53944124,-1.829762936,-1.902021885,0.1785197854,2024-06-05 18:49:47.539441
36.57991281,-1.677066803,-1.814078808,-0.6978930235,2024-06-05 18:49:47.579913
36.62039676,-2.021267414,0.2102456093,0.5893979669,2024-06-05 18:49:47.620397
36.66087994,-1.609713554,-2.699462414,-1.35820961,2024-06-05 18:49:47.660880
36.70137192,0.6023550034,-2.300338268,-1.391385794,2024-06-05 18:49:47.701372
36.74185088,1.131126404,-1.610742331,-0.8335512877,2024-06-05 18:49:47.741851
36.78232713,1.056481361,-1.487797976,-1.91770196,2024-06-05 18:49:47.782327
36.82285083,3.956001282,-1.211288452,0.3669984937,2024-06-05 18:49:47.822851
36.86328828,3.451255798,0.448559165,-0.1901593804,2024-06-05 18:49:47.863288
36.9038151,5.374789238,1.565000772,0.7818502188,2024-06-05 18:49:47.903815
36.94427937,5.052935123,0.2896428108,0.3469551206,2024-06-05 18:49:47.944279
36.98476322,2.946595669,-0.3543715477,-0.3218682408,2024-06-05 18:49:47.984763
37.02524281,3.521362782,1.856378794,1.40602088,2024-06-05 18:49:48.025243
37.06574234,-0.9658603668,0.7094249725,-0.07921844721,2024-06-05 18:49:48.065742
37.10623479,2.832613945,-0.4800972939,-0.3874948621,2024-06-05 18:49:48.106235
37.14672666,0.8013153076,-0.5068387985,0.1290602237,2024-06-05 18:49:48.146727
37.18719786,-4.566577435,0.393550396,0.5827466249,2024-06-05 18:49:48.187198
37.22767041,-3.346844673,-1.213363171,-0.5240189433,2024-06-05 18:49:48.227670
37.26818348,0.06824588776,-1.526378632,0.07942518592,2024-06-05 18:49:48.268183
37.30862114,-4.485014915,-3.087663174,-1.327413321,2024-06-05 18:49:48.308621
37.34912729,-0.7147502899,0.1957068443,-0.3671783805,2024-06-05 18:49:48.349127
37.38961546,-2.786455631,1.35048151,0.6979831457,2024-06-05 18:49:48.389615
37.43008807,-1.267114162,0.9362430573,-0.7619326711,2024-06-05 18:49:48.430088
37.47058463,-0.146982193,-1.387936115,-0.09572476149,2024-06-05 18:49:48.470585
37.5110752,-0.3160142899,-2.619943142,0.2121627331,2024-06-05 18:49:48.511075
37.55154749,-0.1927185059,-2.875460625,0.1343114972,2024-06-05 18:49:48.551547
37.59202276,-2.148809433,-2.496207714,0.6437212229,2024-06-05 18:49:48.592023
37.6325065,-1.614830971,-2.570308685,0.1111416817,2024-06-05 18:49:48.632506
37.67299061,1.755130291,-1.451705456,-1.289548397,2024-06-05 18:49:48.672991
37.71346868,1.825758457,0.1782450676,-0.9435132742,2024-06-05 18:49:48.713469
37.75397618,-1.299726963,0.06127595901,0.3291687965,2024-06-05 18:49:48.753976
37.79442639,3.170230389,-1.407258034,-0.9973717928,2024-06-05 18:49:48.794426
37.83490686,4.886064529,0.9166021347,-2.590287685,2024-06-05 18:49:48.834907
37.87542946,-1.345290184,4.705178261,-0.3828827143,2024-06-05 18:49:48.875429
37.91589004,-1.680967331,4.71476984,4.067147255,2024-06-05 18:49:48.915890
37.95641639,4.634578705,3.679772854,-3.642887115,2024-06-05 18:49:48.956416
37.99688915,0.1131472588,0.4536371231,1.169172525,2024-06-05 18:49:48.996889
38.03731618,2.165570736,0.9907774925,-3.58690834,2024-06-05 18:49:49.037316
38.07783879,6.373856544,2.409837484,-0.43836236,2024-06-05 18:49:49.077839
38.11832285,-0.3552007675,-1.35804081,0.8633692265,2024-06-05 18:49:49.118323
38.1587879,-4.147585869,-2.091986656,3.141591787,2024-06-05 18:49:49.158788
38.19931207,-0.9549174309,-2.838646412,0.597643137,2024-06-05 18:49:49.199312
38.23975707,0.2771477699,-2.666208267,-0.03854870796,2024-06-05 18:49:49.239757
38.28027051,-0.8460001945,-2.945935249,0.7893249989,2024-06-05 18:49:49.280271
38.32075644,-0.9437351227,-3.27633667,1.012134552,2024-06-05 18:49:49.320756
38.36123827,0.7014427185,0.7511291504,0.90558815,2024-06-05 18:49:49.361238
38.40172238,-0.7264018059,1.589031696,1.269278049,2024-06-05 18:49:49.401722
38.44219884,-1.160193443,4.242497921,0.75832057,2024-06-05 18:49:49.442199
38.48268295,-0.0655875206,2.729967833,0.5617110729,2024-06-05 18:49:49.482683
38.52312978,0.8694467545,0.9664812088,0.4848492146,2024-06-05 18:49:49.523130
38.56362894,1.8277812,2.137050152,0.4265980721,2024-06-05 18:49:49.563629
38.60411837,-1.844001293,-1.332896709,1.085416794,2024-06-05 18:49:49.604118
38.64461124,-2.306205273,-2.122469425,1.5991292,2024-06-05 18:49:49.644611
38.68509967,-0.6294674873,-1.302082062,0.7398934364,2024-06-05 18:49:49.685100
38.72558374,-1.094153881,-3.335629463,-0.465013504,2024-06-05 18:49:49.725584
38.76604894,-3.429326534,-5.89079237,0.6106772423,2024-06-05 18:49:49.766049
38.80652639,-0.1843304634,-6.514383793,-3.367877245,2024-06-05 18:49:49.806526
38.84702884,4.083818436,-1.317773342,-2.208301544,2024-06-05 18:49:49.847029
38.88751993,3.558273792,3.12028265,2.38486433,2024-06-05 18:49:49.887520
38.92802389,10.77148438,8.541680336,6.631546974,2024-06-05 18:49:49.928024
38.96847879,2.626280069,5.47776413,0.7507357597,2024-06-05 18:49:49.968479
39.00896223,7.349293232,6.977906704,9.499152184,2024-06-05 18:49:50.008962
39.04943384,0.201806426,5.063672066,13.752285,2024-06-05 18:49:50.049434
39.0899404,-0.6083185673,3.056675673,7.375721455,2024-06-05 18:49:50.089940
39.13042936,-2.931674004,-0.697863102,13.49905968,2024-06-05 18:49:50.130429
39.17091306,-3.800476551,-5.120986938,8.585109711,2024-06-05 18:49:50.170913
39.21138577,-7.70533371,-6.201047421,3.27893734,2024-06-05 18:49:50.211386
39.25187894,-1.367527485,-5.279962063,3.634278297,2024-06-05 18:49:50.251879
39.29234394,-4.473656654,-6.669799805,1.355014324,2024-06-05 18:49:50.292344
39.33282775,-4.29432869,-6.351648331,0.4853014946,2024-06-05 18:49:50.332828
39.37330952,-2.236043215,-5.395749569,-0.5753507614,2024-06-05 18:49:50.373310
39.41379572,0.8111381531,-4.84327507,-1.404205322,2024-06-05 18:49:50.413796
39.45429889,0.004564762115,-4.531181335,-2.450558186,2024-06-05 18:49:50.454299
39.49478124,1.608852386,-2.474248409,-3.23867321,2024-06-05 18:49:50.494781
39.53526004,1.444944859,-1.999900341,0.70135355,2024-06-05 18:49:50.535260
39.57575222,2.806644678,-1.804214001,1.05917263,2024-06-05 18:49:50.575752
39.6162378,-0.797542572,-2.122754574,-1.810855389,2024-06-05 18:49:50.616238
39.65671353,0.09246444702,-0.7820644379,-2.442135572,2024-06-05 18:49:50.656714
39.69719858,-1.624185801,-1.093331814,0.4795694351,2024-06-05 18:49:50.697199
39.73767577,0.2474927902,-0.3581972122,-2.180746794,2024-06-05 18:49:50.737676
39.77813806,3.135984421,0.9197268486,1.836734772,2024-06-05 18:49:50.778138
39.81863228,2.496492386,0.4682970047,0.2923293114,2024-06-05 18:49:50.818632
39.85914592,-0.2682304382,-0.2870736122,-1.057738543,2024-06-05 18:49:50.859146
39.89963405,1.872218609,0.5495386124,0.2507572174,2024-06-05 18:49:50.899634
39.94011566,0.8676114082,-0.1846728325,-0.6790299416,2024-06-05 18:49:50.940116
39.98059837,0.05189180374,-0.1689310074,0.0638885498,2024-06-05 18:49:50.980598
40.02103874,0.2073769569,-0.8199901581,-1.484215736,2024-06-05 18:49:51.021039
40.06154785,1.384391308,0.04800987244,0.6131978035,2024-06-05 18:49:51.061548
40.10204722,4.35391283,0.262693882,0.9043402672,2024-06-05 18:49:51.102047
40.14253233,2.666084528,-1.475525379,-2.193506241,2024-06-05 18:49:51.142532
40.18298915,-0.02160167694,-2.041873932,-0.8726620674,2024-06-05 18:49:51.182989
40.22351196,-2.140717506,-3.135952711,-6.255988598,2024-06-05 18:49:51.223512
40.26398311,-7.826751709,-2.950344801,-2.992565632,2024-06-05 18:49:51.263983
40.30446749,-9.911599159,-3.400355577,-4.902561665,2024-06-05 18:49:51.304467
40.34493108,1.951803446,1.474732876,2.91997242,2024-06-05 18:49:51.344931
40.38543988,-0.5363516808,0.2513098717,1.994961977,2024-06-05 18:49:51.385440
40.42592092,-5.716475964,-1.457267284,-1.929272175,2024-06-05 18:49:51.425921
40.46640462,-2.645153046,-2.52524519,-1.484798908,2024-06-05 18:49:51.466405
40.50688894,10.02732849,1.978739738,-1.933517694,2024-06-05 18:49:51.506889
40.54733014,6.376379967,-3.235900879,10.80990028,2024-06-05 18:49:51.547330
40.58784499,4.728502274,-0.3860301971,7.226334095,2024-06-05 18:49:51.587845
40.62830681,-1.688927174,-1.014968872,-0.3952207565,2024-06-05 18:49:51.628307
40.66879353,4.641739845,1.133685589,1.795684338,2024-06-05 18:49:51.668794
40.70928973,7.288531303,-0.4148902893,0.6870365143,2024-06-05 18:49:51.709290
40.74975353,2.792176247,-4.778836727,-5.469999313,2024-06-05 18:49:51.749754
40.79027431,3.357576609,-3.651067257,-3.35350275,2024-06-05 18:49:51.790274
40.8307442,-1.055973291,-3.949147701,4.590367317,2024-06-05 18:49:51.830744
40.87121545,-0.5651774406,-3.434515238,1.694639683,2024-06-05 18:49:51.871215
40.91172686,-3.052354813,-1.159292221,-2.379834652,2024-06-05 18:49:51.911727
40.95219691,-5.55000639,-1.162235498,-2.219041348,2024-06-05 18:49:51.952197
40.99266629,-5.00393486,0.4476218224,-1.150644779,2024-06-05 18:49:51.992666
41.03313535,-3.109102249,-0.8695654869,-3.812899113,2024-06-05 18:49:52.033135
41.07370103,-1.229032755,-1.497440577,-6.903308868,2024-06-05 18:49:52.073701
41.11413061,-0.01120138168,0.1605017185,-3.149645805,2024-06-05 18:49:52.114131
41.15459863,-1.775010467,2.080187321,2.24875164,2024-06-05 18:49:52.154599
41.19510525,7.698069096,9.216053009,20.94697571,2024-06-05 18:49:52.195105
41.23559228,1.589651346,2.471549511,5.281214714,2024-06-05 18:49:52.235592
41.27605978,1.646155953,1.924823761,-1.470748901,2024-06-05 18:49:52.276060
41.3165441,4.629544258,-0.1057238579,-2.810719013,2024-06-05 18:49:52.316544
41.35711525,-1.631217003,-1.435798883,0.08764839172,2024-06-05 18:49:52.357115
41.39751389,0.3004872203,-3.211035728,1.102788925,2024-06-05 18:49:52.397514
41.43800972,2.323461533,0.5965218544,0.1336402893,2024-06-05 18:49:52.438010
41.47847452,0.2838412523,-0.2531785965,-1.222015381,2024-06-05 18:49:52.478475
41.51895509,0.7544404864,0.1151852608,0.1118841171,2024-06-05 18:49:52.518955
41.55944384,0.9607501626,0.1937530041,2.186043739,2024-06-05 18:49:52.559444
41.59995999,-0.3938810229,-0.2902288437,-1.579098225,2024-06-05 18:49:52.599960
41.64042827,-0.8217996359,-0.7332203388,0.3977584839,2024-06-05 18:49:52.640428
41.68090613,0.7789165378,-0.2921977043,-0.5476093292,2024-06-05 18:49:52.680906
41.72138493,1.279203892,-0.01884007454,-0.4896936417,2024-06-05 18:49:52.721385
41.76188535,4.4534235,1.169530153,0.4288864136,2024-06-05 18:49:52.761885
41.80238316,3.710348368,0.2497522831,3.045466423,2024-06-05 18:49:52.802383
41.84286806,4.12754631,0.03737068176,0.6758365631,2024-06-05 18:49:52.842868
41.88335077,6.42992878,1.745152712,-0.9812731743,2024-06-05 18:49:52.883351
41.92380134,2.034212589,-0.03317189217,0.6250867844,2024-06-05 18:49:52.923801
41.96430269,0.6816840172,-0.3269336224,-0.9905166626,2024-06-05 18:49:52.964303
42.00477993,-1.485280514,-0.8436722755,-0.7828187943,2024-06-05 18:49:53.004780
42.045264,-0.3492670059,-1.831467152,2.636325836,2024-06-05 18:49:53.045264
42.08574322,0.7531664371,-5.509131908,5.221932411,2024-06-05 18:49:53.085743
42.12621983,-2.678538084,-3.918190241,-3.663472176,2024-06-05 18:49:53.126220
42.16672358,-2.365125895,-0.1767451763,-0.5412340164,2024-06-05 18:49:53.166724
42.20723499,1.388635397,-3.735797405,-1.124906063,2024-06-05 18:49:53.207235
42.24769222,-0.3100652695,-0.8284225464,1.397334099,2024-06-05 18:49:53.247692
42.28818259,2.015767097,-1.975304365,-0.1436042786,2024-06-05 18:49:53.288183
42.32862374,0.1297907829,1.169612646,0.3088102341,2024-06-05 18:49:53.328624
42.36912118,-0.02492618561,1.244944334,2.377589226,2024-06-05 18:49:53.369121
42.40962056,1.363845825,-0.2642030716,2.943519592,2024-06-05 18:49:53.409621
42.45011644,2.822559834,2.756494045,-0.1037979126,2024-06-05 18:49:53.450116
42.49061243,1.651958466,1.74767065,-1.037296295,2024-06-05 18:49:53.490612
42.5310591,-0.4920334816,2.032010794,2.408285141,2024-06-05 18:49:53.531059
42.57157332,-4.696863651,-0.7774307728,4.642430305,2024-06-05 18:49:53.571573
42.61203196,-2.903973103,1.465198278,-5.842552185,2024-06-05 18:49:53.612032
42.65250426,-1.395226002,0.7793438435,-2.13942194,2024-06-05 18:49:53.652504
42.69298306,0.5991420746,1.148006678,-5.479469299,2024-06-05 18:49:53.692983
42.73347972,2.16324091,1.80792594,4.565082073,2024-06-05 18:49:53.733480
42.77399212,-4.822395802,-1.348650098,-3.474014282,2024-06-05 18:49:53.773992
42.81445775,1.259688139,2.020642757,0.7401752472,2024-06-05 18:49:53.814458
42.85493472,-0.4225745201,0.1957943439,0.9087524414,2024-06-05 18:49:53.854935
42.89541285,-0.6081571579,-0.4375953674,-1.153335571,2024-06-05 18:49:53.895413
42.93589004,1.71102953,1.286284685,-0.6350126266,2024-06-05 18:49:53.935890
42.97638405,-1.19987464,-1.293486834,0.6523866653,2024-06-05 18:49:53.976384
43.01686311,-0.5410208702,-0.4206619263,0.8884677887,2024-06-05 18:49:54.016863
43.05736905,-0.8153138161,-0.9304533005,-0.2386550903,2024-06-05 18:49:54.057369
43.09785473,0.521009326,-0.565101862,0.4680700302,2024-06-05 18:49:54.097855
43.13831462,0.06005403399,-0.3936493397,-1.925211906,2024-06-05 18:49:54.138315
43.17881348,-1.942981362,-0.9014253616,-2.675113201,2024-06-05 18:49:54.178813
43.21930941,-0.7603091002,-1.476392508,-1.879197598,2024-06-05 18:49:54.219309
43.25977587,1.414485455,0.3744928837,1.070195198,2024-06-05 18:49:54.259776
43.30025915,-1.018718243,-0.7018777132,-0.4425325394,2024-06-05 18:49:54.300259
43.34073311,-1.044574857,-0.01101851463,0.178519249,2024-06-05 18:49:54.340733
43.3812115,0.05380010605,-0.5951246023,1.300636292,2024-06-05 18:49:54.381211
43.42170311,-0.8801016808,-1.603222609,1.043649673,2024-06-05 18:49:54.421703
43.46217738,-0.9250366688,-0.7670273781,-0.3662900925,2024-06-05 18:49:54.462177
43.50264098,0.1799690723,1.146260023,1.490125656,2024-06-05 18:49:54.502641
43.54313572,-0.8134131432,0.4182398319,1.111095428,2024-06-05 18:49:54.543136
43.58361311,0.1772041321,1.102505684,1.405252457,2024-06-05 18:49:54.583613
43.62413155,0.3248289824,0.3907182217,0.9846143723,2024-06-05 18:49:54.624132
43.66461499,-0.04432547092,-0.3075482845,0.2892971039,2024-06-05 18:49:54.664615
43.70509499,0.0129468441,-0.176787138,-0.6792850494,2024-06-05 18:49:54.705095
43.74557629,-0.7960985899,-0.4800877571,-1.053956985,2024-06-05 18:49:54.745576
43.78602488,-0.5424916744,0.08243107796,-0.9447984695,2024-06-05 18:49:54.786025
43.82655176,-0.2927970886,-0.06357836723,0.2980489731,2024-06-05 18:49:54.826552
43.86702311,-0.7592996955,-0.7575089931,0.688785553,2024-06-05 18:49:54.867023
43.90750983,0.5300782919,0.3489730358,0.9776496887,2024-06-05 18:49:54.907510
43.94801405,0.1686121225,0.03934955597,-1.087778091,2024-06-05 18:49:54.948014
43.98847561,-0.335424304,-0.4265694618,-2.014369011,2024-06-05 18:49:54.988476
44.02898452,-0.5938169956,-0.1363356113,-0.7270879745,2024-06-05 18:49:55.028985
44.06945238,-1.398507833,-0.7371330261,-1.570000648,2024-06-05 18:49:55.069452
44.10993764,-0.8457833529,-0.03936028481,0.3354482651,2024-06-05 18:49:55.109938
44.15040863,1.300016403,0.1289708614,1.558760643,2024-06-05 18:49:55.150409
44.19089816,-1.698359489,0.1245195866,2.42964077,2024-06-05 18:49:55.190898
44.23141644,-2.03573823,1.248581886,1.876907349,2024-06-05 18:49:55.231416
44.27186712,-0.2892081141,2.19304347,0.7682476044,2024-06-05 18:49:55.271867
44.31235072,-0.8331754208,1.285098791,2.340198517,2024-06-05 18:49:55.312351
44.35281384,-0.8000505567,0.2674822807,0.7544412613,2024-06-05 18:49:55.352814
44.39330603,-0.4971083403,-0.722640276,0.1584367752,2024-06-05 18:49:55.393306
44.43380124,-0.06744593382,-0.8509581089,-0.3058357239,2024-06-05 18:49:55.433801
44.47429327,-0.2950388193,-1.327865601,-1.533439159,2024-06-05 18:49:55.474293
44.51477249,-0.7884090543,-1.097733021,-1.884278774,2024-06-05 18:49:55.514772
44.55525608,-1.045433521,-1.075975895,-0.8545274734,2024-06-05 18:49:55.555256
44.5957342,-0.8856167793,-0.4469790459,0.6984519958,2024-06-05 18:49:55.595734
44.63621233,-1.520034552,-0.4148507118,-0.05104160309,2024-06-05 18:49:55.636212
44.67670915,-1.251626849,-0.358382225,0.411108017,2024-06-05 18:49:55.676709
44.71720202,-0.09690630436,0.6965260506,0.1805496216,2024-06-05 18:49:55.717202
44.7576503,-0.2566201091,0.09091281891,0.1776580811,2024-06-05 18:49:55.757650
44.79812374,-0.2869434953,0.009572982788,2.232273102,2024-06-05 18:49:55.798124
44.83864655,-0.357802093,-0.2190012932,0.4359407425,2024-06-05 18:49:55.838647
44.87913514,-0.3274212778,-0.2808661461,0.5375442505,2024-06-05 18:49:55.879135
44.91963134,0.5167250633,-0.2716112137,0.003818035126,2024-06-05 18:49:55.919631
44.96009848,0.3092076182,-0.9200930595,1.269238472,2024-06-05 18:49:55.960098
45.00057014,0.1538378,-0.3788189888,-1.484092712,2024-06-05 18:49:56.000570
45.04107514,1.335259795,0.5703215599,-0.6991844177,2024-06-05 18:49:56.041075
45.08155931,-0.06736940145,-0.6145133972,-0.9537901878,2024-06-05 18:49:56.081559
45.12206457,0.5372964144,-0.1034708023,-2.132324219,2024-06-05 18:49:56.122065
45.16251082,1.12981689,-0.1681880951,0.09848022461,2024-06-05 18:49:56.162511
45.20297551,-0.2065043151,-1.016598701,-0.1798439026,2024-06-05 18:49:56.202976
45.24349249,-0.8795633912,0.1062369347,-1.215004921,2024-06-05 18:49:56.243492
45.28397197,-0.5205229521,0.7274708748,0.08395576477,2024-06-05 18:49:56.283972
45.3244665,-1.07725215,0.4734268188,1.649077415,2024-06-05 18:49:56.324466
45.36494217,-0.7550793886,1.03731966,0.8624429703,2024-06-05 18:49:56.364942
45.40544082,-0.5792149901,0.7101774216,1.216249466,2024-06-05 18:49:56.405441
45.44592072,-0.8287956715,0.2168765068,1.767371178,2024-06-05 18:49:56.445921
45.48637795,-0.2424664348,0.0815179348,-0.2436170578,2024-06-05 18:49:56.486378
45.52687822,-0.1655570269,0.0398068428,-0.7350578308,2024-06-05 18:49:56.526878
45.56733754,-0.4531266689,0.2301449776,-1.107448578,2024-06-05 18:49:56.567338
45.60781368,-0.6105651855,0.5229771137,-1.157038689,2024-06-05 18:49:56.607814
45.64831374,-0.6910554171,0.65706563,-0.2705163956,2024-06-05 18:49:56.648314
45.68882061,-0.7663816214,1.343495369,0.9932231903,2024-06-05 18:49:56.688821
45.72927863,-1.010565877,0.2605454922,4.945307732,2024-06-05 18:49:56.729279
45.76976087,-0.5166125298,-0.1883010864,2.072777748,2024-06-05 18:49:56.769761
45.81023832,0.2834719419,0.6833581924,1.945384979,2024-06-05 18:49:56.810238
45.85073202,1.506949067,0.4733695984,-0.6473836899,2024-06-05 18:49:56.850732
45.89121514,-0.3659725487,-0.2414655685,-1.670413494,2024-06-05 18:49:56.891215
45.93171603,0.02864086628,-0.7678656578,0.8296804428,2024-06-05 18:49:56.931716
45.97219499,0.9497469664,-0.8113245964,-0.6125307083,2024-06-05 18:49:56.972195
46.01263889,0.409032166,-1.487950802,-2.218669891,2024-06-05 18:49:57.012639
46.05314191,0.9820976257,-1.099643946,-0.5536174774,2024-06-05 18:49:57.053142
46.09365217,0.6828177571,-1.116600037,-1.107370853,2024-06-05 18:49:57.093652
46.13414848,0.8132560253,-0.6481933594,-1.752174377,2024-06-05 18:49:57.134148
46.17461457,0.3624676466,-0.02490329742,-0.8513631821,2024-06-05 18:49:57.174615
46.21508087,0.003301382065,0.0623588562,0.6575527191,2024-06-05 18:49:57.215081
46.25558624,0.1658399701,0.2136082649,-0.2687330246,2024-06-05 18:49:57.255586
46.29608233,0.1961424947,0.512342453,0.4450044632,2024-06-05 18:49:57.296082
46.33656238,-0.0813511014,0.5638852119,-0.4849720001,2024-06-05 18:49:57.336562
46.37703332,-0.1862592101,0.2418684959,0.6721448898,2024-06-05 18:49:57.377033
46.41752702,-0.05604249239,0.2929735184,0.4197845459,2024-06-05 18:49:57.417527
46.45799467,0.2408778965,0.5373029709,-0.007658958435,2024-06-05 18:49:57.457995
46.49847207,0.1522422135,-0.03912830353,0.1113548279,2024-06-05 18:49:57.498472
46.53895837,-0.1851232797,-0.4883656502,-0.212685585,2024-06-05 18:49:57.538958
46.57944389,-0.4869402051,-0.6237692833,0.435798645,2024-06-05 18:49:57.579444
46.61994446,-0.1185572892,-0.7480945587,0.9458436966,2024-06-05 18:49:57.619944
46.66044389,-0.2203815728,-0.2955851555,-0.2474975586,2024-06-05 18:49:57.660444
46.70092301,-0.2923202813,0.1325030327,-0.2937078476,2024-06-05 18:49:57.700923
46.7413892,0.2931307852,0.7641592026,-1.19391489,2024-06-05 18:49:57.741389
46.78183311,-0.1096550673,0.480556488,-0.9958515167,2024-06-05 18:49:57.781833
46.8223166,-0.2747045457,0.09116220474,1.550515175,2024-06-05 18:49:57.822317
46.86282186,-0.1542945653,0.03940868378,1.216300011,2024-06-05 18:49:57.862822
46.90329582,0.06769299507,0.2158322334,-0.6334452629,2024-06-05 18:49:57.903296
46.94378139,0.7086853385,0.3016228676,0.3275527954,2024-06-05 18:49:57.943781
46.98429473,0.2615919113,0.1116809845,-0.4167442322,2024-06-05 18:49:57.984295
47.02478889,-0.07645693421,0.1782507896,0.08319187164,2024-06-05 18:49:58.024789
47.0652417,0.124275893,-0.2285809517,0.6112804413,2024-06-05 18:49:58.065242
47.10573577,0.1638804674,-0.107108593,0.2663183212,2024-06-05 18:49:58.105736
47.1462154,0.1885880232,-0.21804142,-0.0339012146,2024-06-05 18:49:58.146215
47.18669931,0.5680732131,-0.2726383209,-0.08465003967,2024-06-05 18:49:58.186699
47.22719134,0.2681271136,-0.274081707,-0.9443664551,2024-06-05 18:49:58.227191
47.26768379,0.5033841133,-0.3560838699,0.4750299454,2024-06-05 18:49:58.267684
47.30817545,0.2322728634,0.01996278763,0.9505243301,2024-06-05 18:49:58.308175
47.34865087,0.1564429998,0.5901851654,-1.823272705,2024-06-05 18:49:58.348651
47.38914978,2.143126965,1.153741837,2.022901535,2024-06-05 18:49:58.389150
47.42962931,0.4070248604,0.02587938309,-2.704452515,2024-06-05 18:49:58.429629
47.47008202,0.4188331366,0.1458697319,-1.625395775,2024-06-05 18:49:58.470082
47.51056358,0.4603358507,-0.6394658089,-1.383603096,2024-06-05 18:49:58.510564
47.55107207,-0.3050121069,-0.9351408482,-1.855561733,2024-06-05 18:49:58.551072
47.59154301,-0.3969451189,-0.467502594,-1.05646801,2024-06-05 18:49:58.591543
47.63201973,-0.3580254316,0.4188644886,-0.1077737808,2024-06-05 18:49:58.632020
47.67248816,-0.4839499593,0.7669985294,1.895030975,2024-06-05 18:49:58.672488
47.71296676,-0.1481856704,0.728618145,2.003715515,2024-06-05 18:49:58.712967
47.75347566,0.08315654844,1.330105305,2.2081604,2024-06-05 18:49:58.753476
47.79395915,-0.3922042251,0.3286952972,1.885084152,2024-06-05 18:49:58.793959
47.83443467,-1.045493722,0.1296715736,1.307670593,2024-06-05 18:49:58.834435
47.87492353,-0.113492474,1.117838144,0.4854183197,2024-06-05 18:49:58.874924
47.91540478,0.2766543627,1.060744286,0.6479129791,2024-06-05 18:49:58.915405
47.95592655,0.2919309139,0.6677222252,0.9984741211,2024-06-05 18:49:58.955927
47.9964028,0.5583271384,0.4443540573,0.3137512207,2024-06-05 18:49:58.996403
48.03692228,0.2821016014,0.1415145397,0.5182170868,2024-06-05 18:49:59.036922
48.07733743,0.4848985672,-0.2766680717,-0.9367818832,2024-06-05 18:49:59.077337
48.11788264,0.3443067074,-0.03136324883,-2.647415161,2024-06-05 18:49:59.117883
48.15829962,0.5642667413,0.09603953362,-0.03060913086,2024-06-05 18:49:59.158300
48.19879915,0.3695381284,-0.5755004883,1.104468346,2024-06-05 18:49:59.198799
48.23926702,0.6176398396,-0.5445044041,0.1193628311,2024-06-05 18:49:59.239267
48.27977827,0.3529153466,-0.6560516357,-0.9194431305,2024-06-05 18:49:59.279778
48.32026535,0.5531557798,-0.4228854179,-0.2452831268,2024-06-05 18:49:59.320265
48.36073144,0.3652726412,-0.2387852669,-0.9642944336,2024-06-05 18:49:59.360731
48.40121577,0.0184854269,-0.3357625008,0.7501888275,2024-06-05 18:49:59.401216
48.44168598,0.5011073351,-0.2885727882,1.649744987,2024-06-05 18:49:59.441686
48.48217353,0.924765408,1.027283192,-2.065937519,2024-06-05 18:49:59.482174
48.52265655,0.4474258423,0.1724963188,0.7621145248,2024-06-05 18:49:59.522657
48.56313988,0.9261376858,0.4573945999,-0.7128582001,2024-06-05 18:49:59.563140
48.6036315,0.911431253,0.8591833115,-0.5001792908,2024-06-05 18:49:59.603631
48.6441279,0.1668633223,-0.2624540329,0.522061348,2024-06-05 18:49:59.644128
48.68461196,0.5983029604,0.03442287445,-0.2246751785,2024-06-05 18:49:59.684612
48.7250753,0.1736538112,0.1246943474,-1.012003422,2024-06-05 18:49:59.725075
48.7655504,-0.8236529231,0.03130912781,-1.318818569,2024-06-05 18:49:59.765550
48.8060429,-0.5763874054,-0.1009554863,-0.8287734985,2024-06-05 18:49:59.806043
48.84657295,-1.231678367,-1.142892122,3.027103424,2024-06-05 18:49:59.846573
48.88705754,-0.962456286,-0.7197377682,-0.9486112595,2024-06-05 18:49:59.887058
48.92751665,0.2817451358,0.5617690086,0.3424348831,2024-06-05 18:49:59.927517
48.9680129,0.2589847445,-0.5352225304,0.922088623,2024-06-05 18:49:59.968013
49.00848551,0.8493295908,0.910964489,-0.3404750824,2024-06-05 18:50:00.008486
49.04894858,0.4176417589,0.6657519341,2.007612228,2024-06-05 18:50:00.048949
49.08943848,-0.4939043522,0.6409726143,-1.198847294,2024-06-05 18:50:00.089438
49.12994545,1.179860473,0.9550457001,0.7856941223,2024-06-05 18:50:00.129945
49.17042525,-0.124373883,-1.757835865,3.119767189,2024-06-05 18:50:00.170425
49.21090019,-0.08282521367,-0.6540589333,-3.904762745,2024-06-05 18:50:00.210900
49.2513854,0.9672955871,1.436408997,-0.7296924591,2024-06-05 18:50:00.251385
49.29185926,-0.3755722642,-0.8116350174,0.471953392,2024-06-05 18:50:00.291859
49.33234311,0.8473632336,0.8792953491,-5.032112598,2024-06-05 18:50:00.332343
49.37282738,1.598521233,-0.7200737,6.861863136,2024-06-05 18:50:00.372827
49.41331082,-1.958609581,-3.526520967,2.064829826,2024-06-05 18:50:00.413311
49.45380337,1.589358568,0.4960727692,-5.219963551,2024-06-05 18:50:00.453803
49.49428519,1.490129113,-0.2840824127,-1.671499252,2024-06-05 18:50:00.494285
49.53476545,-0.4085652828,-1.337372303,0.4687561989,2024-06-05 18:50:00.534765
49.57523764,2.102148294,0.3797535896,-0.2748813629,2024-06-05 18:50:00.575238
49.61572243,-0.8900552988,-0.4104762077,-1.990097523,2024-06-05 18:50:00.615722
49.65621108,-0.03026890755,0.5007662773,4.977677822,2024-06-05 18:50:00.656211
49.69669738,-0.3631091118,0.2851691246,-2.529352188,2024-06-05 18:50:00.696697
49.7371792,-0.6396667957,0.1844172478,-0.2721481323,2024-06-05 18:50:00.737179
49.77763368,-0.1181631088,0.367079258,-1.780792236,2024-06-05 18:50:00.777634
49.81813696,-0.5061249733,0.9314842224,-1.24555397,2024-06-05 18:50:00.818137
49.85864045,0.03908383846,0.5992674828,0.5476827621,2024-06-05 18:50:00.858640
49.8991316,-0.1625165939,0.596704483,0.4561405182,2024-06-05 18:50:00.899132
49.93961983,-1.266303658,0.4962105751,-0.1676311493,2024-06-05 18:50:00.939620
49.98010509,-0.8805978298,0.7217149734,-0.514342308,2024-06-05 18:50:00.980105
50.02056889,-0.7069205642,0.749932766,0.7897014618,2024-06-05 18:50:01.020569
50.06106019,-0.3681994379,0.8700246811,1.602192879,2024-06-05 18:50:01.061060
50.10153441,-0.09899947047,0.5239977837,1.203806877,2024-06-05 18:50:01.101534
50.1420115,-0.5902159214,0.03113555908,1.223833084,2024-06-05 18:50:01.142012
50.18249415,-0.5352699757,-0.1939249039,-0.3100337982,2024-06-05 18:50:01.182494
50.2229766,-0.4666723609,-0.6533846855,-1.161900043,2024-06-05 18:50:01.222977
50.26345884,-0.636125803,-1.1126647,-1.654788971,2024-06-05 18:50:01.263459
50.30395587,1.05343771,0.567928791,-2.254077911,2024-06-05 18:50:01.303956
50.34447144,0.4492733479,0.8092889786,-1.57542944,2024-06-05 18:50:01.344471
50.3849192,-0.9106084108,-0.07755279541,2.608514786,2024-06-05 18:50:01.384919
50.42543249,-0.3172687888,-0.2513384819,1.500421524,2024-06-05 18:50:01.425432
50.46588598,0.2828677893,-0.1554236412,1.076761246,2024-06-05 18:50:01.465886
50.50635598,-0.7888669968,-0.5755820274,-0.7472219467,2024-06-05 18:50:01.506356
50.54683952,0.7295554876,0.4505877495,0.5337438583,2024-06-05 18:50:01.546840
50.58734285,0.5244988203,0.0075507164,1.201572418,2024-06-05 18:50:01.587343
50.62784426,0.8756113052,-0.3855433464,1.059315681,2024-06-05 18:50:01.627844
50.66833103,1.227541924,0.2332925797,-0.7576012611,2024-06-05 18:50:01.668331
50.70880139,0.5119795799,-0.6095452309,-0.1651248932,2024-06-05 18:50:01.708801
50.74924801,-0.2113110423,-0.8643870354,-0.4564914703,2024-06-05 18:50:01.749248
50.78972566,-0.2062181234,-0.2214798927,-1.360684395,2024-06-05 18:50:01.789726
50.83024155,0.1767331958,0.1317968369,-1.610095978,2024-06-05 18:50:01.830242
50.87072348,-0.5679428577,-0.1253328323,-0.01028251648,2024-06-05 18:50:01.870723
50.91120822,-0.2009636313,-0.2330069542,0.03838348389,2024-06-05 18:50:01.911208
50.95167931,-0.1473134309,-0.1973772049,0.08540582657,2024-06-05 18:50:01.951679
50.99216629,-0.3551098704,-0.5754384995,-0.4327220917,2024-06-05 18:50:01.992166
51.03270238,-0.1179388762,0.1258468628,-0.6006269455,2024-06-05 18:50:02.032702
51.07311431,-0.4320496321,0.1803388596,0.09611034393,2024-06-05 18:50:02.073114
51.11358728,-0.7662374973,0.150434494,0.8220710754,2024-06-05 18:50:02.113587
51.15411077,-0.6415957212,0.375541687,0.8506097794,2024-06-05 18:50:02.154111
51.19463144,-0.44484815,0.4307231903,-0.005254745483,2024-06-05 18:50:02.194631
51.2351003,-0.2893621027,0.3800802231,0.6423368454,2024-06-05 18:50:02.235100
51.27558004,-0.1800315529,0.08886480331,1.223397255,2024-06-05 18:50:02.275580
51.31606374,0.03408685327,0.06834983826,-0.1915240288,2024-06-05 18:50:02.316064
51.35653707,-0.05370822549,-0.02710151672,-0.3893327713,2024-06-05 18:50:02.356537
51.39702665,-0.204477787,-0.03254938126,0.1559886932,2024-06-05 18:50:02.397027
51.43749322,-0.1655654311,-0.2108302116,0.3269615173,2024-06-05 18:50:02.437493
51.4780241,0.4337426424,-0.0444149971,0.1850523949,2024-06-05 18:50:02.478024
51.51845884,0.5588845015,-0.1465797424,-0.5258665085,2024-06-05 18:50:02.518459
51.55894249,0.7960346341,-0.2466845512,-0.442085743,2024-06-05 18:50:02.558942
51.59944368,0.01064491272,-0.6790246964,-0.05001068115,2024-06-05 18:50:02.599444
51.63990467,0.06498634815,-0.4877638817,0.5662107468,2024-06-05 18:50:02.639905
51.6804042,0.243027389,0.1567339897,-0.6623311043,2024-06-05 18:50:02.680404
51.72090072,0.329849124,0.4492287636,0.1409068108,2024-06-05 18:50:02.720901
51.76145577,0.1990575492,-0.5320096016,0.6785306931,2024-06-05 18:50:02.761456
51.80181254,-0.2794259489,-0.06297779083,-0.2893090248,2024-06-05 18:50:02.801813
51.84233275,-0.2412184477,-0.4722681046,-0.2196145058,2024-06-05 18:50:02.842333
51.88280608,0.5131741762,0.3048605919,-2.039423466,2024-06-05 18:50:02.882806
51.92329108,1.09808135,0.4330768585,0.3252558708,2024-06-05 18:50:02.923291
51.96378822,-0.6242724657,-0.2880601883,-2.122820377,2024-06-05 18:50:02.963788
52.00428181,-0.2326990366,-0.2423992157,-0.02754878998,2024-06-05 18:50:03.004282
52.044789,-0.6397815943,-1.144070625,0.5280199051,2024-06-05 18:50:03.044789
52.08528009,-1.209765196,-1.474469423,-0.343380928,2024-06-05 18:50:03.085280
52.12575967,-1.281489134,-1.594285965,-1.911547184,2024-06-05 18:50:03.125760
52.16621452,-1.572730184,-1.452066422,-2.084640026,2024-06-05 18:50:03.166215
52.20670342,-1.390448332,-0.8462333679,-0.9238848686,2024-06-05 18:50:03.206703
52.24718207,0.3530572653,0.6808884144,2.419127464,2024-06-05 18:50:03.247182
52.28768197,-0.09669733047,0.9050629139,2.578684807,2024-06-05 18:50:03.287682
52.32815973,0.9366904497,2.096540213,1.505015373,2024-06-05 18:50:03.328160
52.36862967,1.285124302,2.156344175,1.190642357,2024-06-05 18:50:03.368630
52.40912639,1.027160406,1.890447378,1.30360508,2024-06-05 18:50:03.409126
52.44962207,0.9143790007,1.559432745,0.3377943039,2024-06-05 18:50:03.449622
52.49008759,0.8127456903,1.425029516,0.3238735199,2024-06-05 18:50:03.490088
52.53054441,-0.1196638346,0.4249477386,1.027162552,2024-06-05 18:50:03.530544
52.57103879,-0.2492347956,-0.2435288429,1.035779953,2024-06-05 18:50:03.571039
52.61152879,0.2061150074,-0.3436682224,-0.1974525452,2024-06-05 18:50:03.611529
52.65199967,0.6346487999,-0.6118006706,-1.672982693,2024-06-05 18:50:03.652000
52.6924867,0.4057648182,-0.4165384769,-2.398962975,2024-06-05 18:50:03.692487
52.73298108,0.8399474621,0.04314661026,0.05017471313,2024-06-05 18:50:03.732981
52.77346514,0.9713118076,0.0647187233,2.940469742,2024-06-05 18:50:03.773465
52.8139404,0.2373785973,-0.6695628166,2.392697334,2024-06-05 18:50:03.813940
52.85442639,0.3682115078,-0.4964165688,-0.9418177605,2024-06-05 18:50:03.854426
52.89490056,0.8669764996,-0.09504318237,-3.117081642,2024-06-05 18:50:03.894901
52.93541431,2.169205427,0.8343801498,-1.666118622,2024-06-05 18:50:03.935414
52.97588322,0.9584681988,0.3207612038,0.405995369,2024-06-05 18:50:03.975883
53.01637103,-1.379544258,-1.282235622,0.8572940826,2024-06-05 18:50:04.016371
53.05687004,-0.9456933737,-0.2799425125,0.8301391602,2024-06-05 18:50:04.056870
53.09734316,0.3684799671,0.594417572,0.8754205704,2024-06-05 18:50:04.097343
53.13781431,-0.3864138126,0.3676085472,0.345249176,2024-06-05 18:50:04.137814
53.17829332,-0.1704268456,0.3101334572,0.9361381531,2024-06-05 18:50:04.178293
53.21879337,0.2299414873,0.04910802841,-0.09680938721,2024-06-05 18:50:04.218793
53.25927098,0.3895515203,0.1132645607,-0.5751447678,2024-06-05 18:50:04.259271
53.29974556,0.7399953604,0.4114794731,0.3582305908,2024-06-05 18:50:04.299746
53.34023499,0.1168017387,0.2835121155,0.3204984665,2024-06-05 18:50:04.340235
53.3807153,-0.5133848786,-0.0584731102,0.1805963516,2024-06-05 18:50:04.380715
53.42120165,0.05332475901,0.1666560173,1.065779686,2024-06-05 18:50:04.421202
53.46168306,-0.1020815969,0.02513074875,0.8778810501,2024-06-05 18:50:04.461683
53.50214972,-0.8637026548,-0.1276021004,0.1516590118,2024-06-05 18:50:04.502150
53.54262598,-0.5175651908,0.0547580719,-0.1846561432,2024-06-05 18:50:04.542626
53.58315176,-0.3114466071,0.004832267761,0.3540992737,2024-06-05 18:50:04.583152
53.62361332,-0.4901252985,-0.5927033424,-0.4727220535,2024-06-05 18:50:04.623613
53.66411275,0.3337459564,-0.6971282959,-1.032794476,2024-06-05 18:50:04.664113
53.70457889,1.071313143,-0.5250177383,-0.1364064217,2024-06-05 18:50:04.704579
53.74508691,-0.002591133118,-1.107441425,-1.460595131,2024-06-05 18:50:04.745087
53.78552504,0.2578733563,-0.9849500656,0.229449749,2024-06-05 18:50:04.785525
53.82602509,0.06740069389,-1.226307869,-0.3771209717,2024-06-05 18:50:04.826025
53.86655582,0.5789085627,-0.4516420364,-0.566930294,2024-06-05 18:50:04.866556
53.90700379,0.3476322889,-0.2247829437,0.2826523781,2024-06-05 18:50:04.907004
53.94749322,1.184538126,0.45362854,-0.2355861664,2024-06-05 18:50:04.947493
53.98796769,0.3764438629,0.4498848915,-0.1734256744,2024-06-05 18:50:04.987968
54.02844572,0.3514852524,0.308989048,0.3186473846,2024-06-05 18:50:05.028446
54.06894639,0.06746333838,0.02513360977,0.203327179,2024-06-05 18:50:05.068946
54.10941384,0.3057788014,-0.285425663,1.126897812,2024-06-05 18:50:05.109414
54.14990394,1.297761679,0.1395616531,-0.8511595726,2024-06-05 18:50:05.149904
54.19038795,0.672678411,0.04283475876,-1.36372757,2024-06-05 18:50:05.190388
54.23087368,0.2883301973,0.321492672,-1.263124943,2024-06-05 18:50:05.230874
54.27134972,0.3701289296,0.04806089401,-0.4011693001,2024-06-05 18:50:05.271350
54.31187176,-0.4671640694,-0.3206419945,0.7110671997,2024-06-05 18:50:05.311872
54.35234478,-0.6058178544,-0.04437446594,0.4697818756,2024-06-05 18:50:05.352345
54.39283316,-1.016014934,-0.3427319527,1.369110107,2024-06-05 18:50:05.392833
54.43330176,-0.2588232756,-0.3671889305,-0.04442882538,2024-06-05 18:50:05.433302
54.47379915,-0.2565643787,-0.212097168,-1.506694794,2024-06-05 18:50:05.473799
54.51426644,0.2061211467,-0.3470368385,0.1843252182,2024-06-05 18:50:05.514266
54.55475056,-0.8390132785,-0.6426477432,-0.8626422882,2024-06-05 18:50:05.554751
54.59523405,-0.160346821,0.106107235,-2.27997303,2024-06-05 18:50:05.595234
54.63571983,1.594742537,1.465552807,-0.4680891037,2024-06-05 18:50:05.635720
54.67619785,-0.4713578522,0.08915948868,4.021161079,2024-06-05 18:50:05.676198
54.71670837,-0.4783512354,0.8135662079,2.173456192,2024-06-05 18:50:05.716708
54.75719207,0.3574260473,1.209877491,-0.753162384,2024-06-05 18:50:05.757192
54.79762525,0.9006316662,0.6415486336,0.3438463211,2024-06-05 18:50:05.797625
54.83815806,0.3952524066,0.001272201538,-1.96634388,2024-06-05 18:50:05.838158
54.87863353,0.7641761899,0.1194286346,-0.9804711342,2024-06-05 18:50:05.878634
54.91909316,-0.3085574508,-0.4067983627,-0.8008050919,2024-06-05 18:50:05.919093
54.95959009,0.4240463972,-0.04442214966,-0.06612968445,2024-06-05 18:50:05.959590
55.00006582,-0.2709902525,-0.4789404869,-0.5271019936,2024-06-05 18:50:06.000066
55.04054952,-0.8273022175,-0.5142498016,0.03314304352,2024-06-05 18:50:06.040550
55.08105233,0.7841181755,0.3132324219,1.371360779,2024-06-05 18:50:06.081052
55.12152749,-0.5872961283,-0.2514948845,0.3554754257,2024-06-05 18:50:06.121527
55.16200644,-0.4062616825,-0.5086302757,0.9772787094,2024-06-05 18:50:06.162006
55.20248999,1.638441563,-0.1252169609,1.680375099,2024-06-05 18:50:06.202490
55.2429603,0.5841853619,-0.6816842556,0.4455604553,2024-06-05 18:50:06.242960
55.28345509,-0.8309450746,0.2306432724,-3.714003563,2024-06-05 18:50:06.283455
55.32396322,-0.7250273824,1.360721588,-0.5525007248,2024-06-05 18:50:06.323963
55.36443858,0.1685232222,0.6648435593,-0.4995536804,2024-06-05 18:50:06.364439
55.40491509,-0.669528842,0.2249798775,0.57371521,2024-06-05 18:50:06.404915
55.44539301,-2.086402893,-0.2859566212,1.210469246,2024-06-05 18:50:06.445393
55.48587874,0.1999771595,-1.01846385,-0.8515100479,2024-06-05 18:50:06.485879
55.52636389,-0.6343393326,-0.2897706032,-0.4231300354,2024-06-05 18:50:06.526364
55.56685775,-0.7750915289,-0.6622211933,1.829739571,2024-06-05 18:50:06.566858
55.60733181,0.6515315175,-0.2324099541,1.712228775,2024-06-05 18:50:06.607332
55.64782374,-0.3746151626,0.2504172325,-0.4393033981,2024-06-05 18:50:06.647824
55.6882966,0.7507059574,-0.1444706917,2.38124752,2024-06-05 18:50:06.688297
55.72881332,0.5253327489,0.7160739899,-1.080240726,2024-06-05 18:50:06.728813
55.76927509,-1.41643095,-1.690177679,1.897926331,2024-06-05 18:50:06.769275
55.80975931,-1.038550258,-1.61199069,1.560855865,2024-06-05 18:50:06.809759
55.8502665,-0.2573441267,-0.2842998505,-1.410950661,2024-06-05 18:50:06.850266
55.89073327,-0.4188076258,-0.3717489243,-2.478423119,2024-06-05 18:50:06.890733
55.93122613,0.6293576956,0.6748456955,-2.937608719,2024-06-05 18:50:06.931226
55.97169285,1.375562906,-0.5634374619,2.738071442,2024-06-05 18:50:06.971693
56.01217217,-1.813845754,-1.533143282,0.9312915802,2024-06-05 18:50:07.012172
56.05265379,0.4792823195,-0.2896175385,-1.053506851,2024-06-05 18:50:07.052654
56.09315999,1.977096677,-0.1435618401,0.7278642654,2024-06-05 18:50:07.093160
56.13362566,1.209388971,-0.1558051109,0.113951683,2024-06-05 18:50:07.133626
56.17413525,1.40063405,0.491920948,-1.733156204,2024-06-05 18:50:07.174135
56.21461926,0.03814816475,0.08194160461,-1.739100456,2024-06-05 18:50:07.214619
56.25508936,-0.5453617573,-0.5894551277,2.112087727,2024-06-05 18:50:07.255089
56.29557051,-2.66245532,-1.923241615,-0.0761423111,2024-06-05 18:50:07.295571
56.33604368,-1.633588076,-2.451238155,-0.2743086815,2024-06-05 18:50:07.336044
56.37655931,-0.9929423332,-3.607370615,-3.344233513,2024-06-05 18:50:07.376559
56.41703072,2.082848072,-3.497885704,1.717721939,2024-06-05 18:50:07.417031
56.45750259,6.27488327,-1.177810669,-0.7006340027,2024-06-05 18:50:07.457503
56.49800566,6.687425137,0.9554572105,-4.597013474,2024-06-05 18:50:07.498006
56.53849837,2.604992151,-0.7327389717,-1.544486046,2024-06-05 18:50:07.538498
56.57895405,-1.355189323,-1.562580705,0.4580421448,2024-06-05 18:50:07.578954
56.61944446,-3.207537889,1.414994955,-0.8631534576,2024-06-05 18:50:07.619444
56.65998936,-4.31680584,2.483316898,-1.022589684,2024-06-05 18:50:07.659989
56.70043764,-4.278465271,3.478205442,1.751322746,2024-06-05 18:50:07.700438
56.74088842,-2.67201376,3.31966114,3.336813927,2024-06-05 18:50:07.740888
56.78137467,-1.218863606,1.736236334,3.611747742,2024-06-05 18:50:07.781375
56.82187415,0.9251481891,1.524840117,6.776814461,2024-06-05 18:50:07.821874
56.8623666,3.729536295,1.715869188,4.571300507,2024-06-05 18:50:07.862367
56.90284129,4.185640335,-0.405818224,-1.474869728,2024-06-05 18:50:07.902841
56.94332118,2.228235722,0.4601145983,0.5877838135,2024-06-05 18:50:07.943321
56.98379509,-0.01570749283,-0.7081069946,0.4691410065,2024-06-05 18:50:07.983795
57.0242804,0.6840629578,-0.54586339,-0.5807390213,2024-06-05 18:50:08.024280
57.06477384,0.7448754311,0.1853808165,0.3973665237,2024-06-05 18:50:08.064774
57.10525629,-0.9181668758,-0.637537837,1.330859184,2024-06-05 18:50:08.105256
57.14574436,-0.6578035355,-0.4062269926,-2.087927818,2024-06-05 18:50:08.145744
57.18624639,1.593681335,1.942263842,-0.3289060593,2024-06-05 18:50:08.186246
57.2267503,0.6606836319,0.01937520504,-0.9294929504,2024-06-05 18:50:08.226750
57.2672141,0.8772573471,-0.4724416733,-0.02123451233,2024-06-05 18:50:08.267214
57.30769816,-0.1057829857,1.211553097,2.013645172,2024-06-05 18:50:08.307698
57.34816582,-0.05872249603,0.7159764767,0.7593011856,2024-06-05 18:50:08.348166
57.38870556,-0.6323237419,0.04500687122,0.3627815247,2024-06-05 18:50:08.388706
57.42913629,-0.9725327492,0.04279947281,0.5370855331,2024-06-05 18:50:08.429136
57.46961827,0.05038666725,0.07261717319,-0.9054965973,2024-06-05 18:50:08.469618
57.51011009,1.774811387,1.074229956,-0.3225727081,2024-06-05 18:50:08.510110
57.55059415,-1.335093975,-1.044297934,1.309409142,2024-06-05 18:50:08.550594
57.59108327,3.582144737,0.8784053326,-0.5117473602,2024-06-05 18:50:08.591083
57.63155577,-1.484300375,-0.9808397293,-0.7500743866,2024-06-05 18:50:08.631556
57.67207186,1.300118685,0.4584515691,-1.659187317,2024-06-05 18:50:08.672072
57.71255624,-2.649534464,-0.0662715435,-1.446259499,2024-06-05 18:50:08.712556
57.75304056,2.452468157,1.853923798,-1.387462139,2024-06-05 18:50:08.753041
57.79347025,4.685416222,1.258544922,1.708284378,2024-06-05 18:50:08.793470
57.83397493,2.672572851,-0.1270930767,-2.079624653,2024-06-05 18:50:08.833975
57.87448457,-1.855418444,0.2951109409,-1.391853809,2024-06-05 18:50:08.874485
57.91497999,1.017547131,0.5138992071,0.1828012466,2024-06-05 18:50:08.914980
57.955454,-3.046246052,0.5638735294,-3.73762989,2024-06-05 18:50:08.955454
57.99592592,-0.2913827896,2.480383158,1.602471352,2024-06-05 18:50:08.995926
58.03642624,-4.793668747,-0.2821605206,0.1849069595,2024-06-05 18:50:09.036426
58.07687827,-1.44013834,-0.06346440315,-0.776611805,2024-06-05 18:50:09.076878
58.11740207,-1.910691261,-1.032957554,0.7792773247,2024-06-05 18:50:09.117402
58.15789353,0.03347396851,-0.01688814163,4.413827419,2024-06-05 18:50:09.157894
58.19833665,-1.655017376,-2.78888917,-2.207552433,2024-06-05 18:50:09.198337
58.23884165,-1.453033447,-3.572070599,-3.659185886,2024-06-05 18:50:09.238842
58.27930556,5.711700916,-4.533247948,1.647511482,2024-06-05 18:50:09.279306
58.31978936,1.946338177,-6.923904419,-2.334795952,2024-06-05 18:50:09.319789
58.36027639,5.116878986,-4.531055927,6.095149517,2024-06-05 18:50:09.360276
58.40076743,1.022105694,-2.562944889,7.956113338,2024-06-05 18:50:09.400767
58.44125129,3.736596107,-3.014335155,-3.374796391,2024-06-05 18:50:09.441251
58.48175431,0.6268215179,-2.247169018,-4.451824188,2024-06-05 18:50:09.481754
58.5222178,-0.9434742928,-0.1549844742,-6.83023262,2024-06-05 18:50:09.522218
58.56270165,-1.594639301,3.039778948,1.911429882,2024-06-05 18:50:09.562702
58.60318551,-1.820933342,0.7704706192,-8.368171692,2024-06-05 18:50:09.603186
58.64365868,-5.356871128,1.541285038,-4.583714008,2024-06-05 18:50:09.643659
58.68414738,-5.42312479,1.992425442,0.8021080494,2024-06-05 18:50:09.684147
58.72463019,-5.965074539,1.571677685,4.025177002,2024-06-05 18:50:09.724630
58.76511676,-1.15221405,3.478321075,3.092606306,2024-06-05 18:50:09.765117
58.80558618,-3.892421722,2.446271896,0.7728915215,2024-06-05 18:50:09.805586
58.84608447,-0.5986943245,3.717140675,3.575321674,2024-06-05 18:50:09.846084
58.88658467,-0.5095977783,2.472557545,1.561906099,2024-06-05 18:50:09.886585
58.92705514,-2.251356125,0.6659698486,2.376303911,2024-06-05 18:50:09.927055
58.96754394,3.23603487,-1.092682362,-0.579587698,2024-06-05 18:50:09.967544
59.00805004,9.187447548,-0.7503688335,-4.921895027,2024-06-05 18:50:10.008050
59.0485141,3.089854717,-1.044903278,2.388787031,2024-06-05 18:50:10.048514
59.08900311,-0.6299209595,-2.917339802,-0.4408433437,2024-06-05 18:50:10.089003
59.12946697,-2.198219299,-4.521611214,-0.3101732731,2024-06-05 18:50:10.129467
59.16996806,0.2645702362,-0.3387346268,0.6077487469,2024-06-05 18:50:10.169968
59.21045004,-0.2209186554,-0.3384714127,-0.7285096645,2024-06-05 18:50:10.210450
59.25093009,-1.136025429,1.182881117,0.6474332809,2024-06-05 18:50:10.250930
59.29144394,1.691372871,2.103889704,0.2239382267,2024-06-05 18:50:10.291444
59.33191509,1.721405983,1.836265326,-0.1364347935,2024-06-05 18:50:10.331915
59.37238587,3.243913412,2.872563839,0.6621530056,2024-06-05 18:50:10.372386
59.41288473,-2.404432774,-3.474116325,0.3362901211,2024-06-05 18:50:10.412885
59.45334972,-4.546542645,-4.201716423,0.266272068,2024-06-05 18:50:10.453350
59.49384915,-3.730461597,-3.075733185,0.4660601616,2024-06-05 18:50:10.493849
59.5343029,-0.9390668869,-1.327087879,-0.2544255257,2024-06-05 18:50:10.534303
59.57479874,-0.9157838821,1.111563683,0.2197680473,2024-06-05 18:50:10.574799
59.61530019,-2.763246059,-1.068653107,-0.5997619629,2024-06-05 18:50:10.615300
59.6557765,1.108932972,-2.33383894,-0.3070459366,2024-06-05 18:50:10.655777
59.69626587,0.1886601448,-1.402462482,-2.794103384,2024-06-05 18:50:10.696266
59.73675389,0.7829899788,0.3286232948,-0.5162782669,2024-06-05 18:50:10.736754
59.77718165,1.14241457,-0.109723568,-1.438641787,2024-06-05 18:50:10.777182
59.81769733,0.4890737534,-1.233512163,-1.020230055,2024-06-05 18:50:10.817697
59.85819629,2.234555721,-0.7832117081,-0.845541954,2024-06-05 18:50:10.858196
59.89868795,4.215376377,2.55616045,-0.8502042294,2024-06-05 18:50:10.898688
59.9391554,4.500382423,1.998340607,-0.572147131,2024-06-05 18:50:10.939155
59.97963327,2.823802948,1.929626465,-0.3494763374,2024-06-05 18:50:10.979633
60.02013842,2.27163887,1.421288013,0.1787750721,2024-06-05 18:50:11.020138
60.06063488,-1.155669212,2.175790071,-0.4805514812,2024-06-05 18:50:11.060635
60.10112572,0.6943683624,7.43989706,-1.956066728,2024-06-05 18:50:11.101126
60.14158186,3.765905142,0.8313055038,-0.7987781763,2024-06-05 18:50:11.141582
60.18205082,1.348594189,-3.080636024,1.013346434,2024-06-05 18:50:11.182051
60.22254165,-2.375236511,-4.413332462,0.6658799648,2024-06-05 18:50:11.222542
60.26302806,-2.518717289,-4.69485569,-0.6211346388,2024-06-05 18:50:11.263028
60.30352191,-1.083188057,-4.025745392,-0.277195394,2024-06-05 18:50:11.303522
60.34398066,-1.828702927,-1.252301216,-0.1236547902,2024-06-05 18:50:11.343981
60.38450592,-1.789797306,-2.143652916,0.8678747416,2024-06-05 18:50:11.384506
60.42496519,-0.8595914841,-0.07692050934,0.296407342,2024-06-05 18:50:11.424965
60.46546738,-0.9780230522,-0.9268951416,0.2360915542,2024-06-05 18:50:11.465467
60.5059529,0.6410331726,-2.603141785,-0.0216638688,2024-06-05 18:50:11.505953
60.54641197,-2.542176247,0.5343494415,0.6090322137,2024-06-05 18:50:11.546412
60.58688947,-1.021047115,-1.926234245,-0.09508290887,2024-06-05 18:50:11.586889
60.62737785,-1.939667702,0.4476447105,-1.4432199,2024-06-05 18:50:11.627378
60.66787655,-2.789521217,-0.3050546646,-1.087090373,2024-06-05 18:50:11.667877
60.70836082,-1.716439247,-0.732170105,-2.601933956,2024-06-05 18:50:11.708361
60.74884848,-0.2076225281,-3.696799755,-2.320440769,2024-06-05 18:50:11.748848
60.78929999,2.257431984,-1.493916988,-1.495079756,2024-06-05 18:50:11.789300
60.82980702,2.210092545,-0.8199419975,-1.659973383,2024-06-05 18:50:11.829807
60.87030066,1.978709221,-4.228677273,-2.617789745,2024-06-05 18:50:11.870301
60.91076827,3.731635571,1.77671814,-1.087528229,2024-06-05 18:50:11.910768
60.95124879,4.560690403,2.137377501,-0.9855168462,2024-06-05 18:50:11.951249
60.99174535,4.347084522,-0.4123103619,-0.8906653523,2024-06-05 18:50:11.991745
61.03222618,4.12329483,0.6679286957,-0.3954728842,2024-06-05 18:50:12.032226
61.07267827,3.71758461,0.3494136333,-0.1838909388,2024-06-05 18:50:12.072678
61.1131841,2.945671082,0.7325918674,-0.07040405273,2024-06-05 18:50:12.113184
61.15366868,2.722249031,0.5982885361,-0.3546046615,2024-06-05 18:50:12.153669
61.19414254,-0.4361543655,0.1582865715,-0.3917506635,2024-06-05 18:50:12.194143
61.23463243,-2.300287724,-1.059539795,-1.102568746,2024-06-05 18:50:12.234632
61.2751167,-1.277648926,-0.9279155731,-0.8127368093,2024-06-05 18:50:12.275117
61.31563072,-1.667894363,-1.373681545,-1.4762218,2024-06-05 18:50:12.315631
61.35610795,-2.320702553,-1.292937279,-0.8148471117,2024-06-05 18:50:12.356108
61.39661144,-3.873456478,-4.150056362,-0.8669961691,2024-06-05 18:50:12.396611
61.43707358,-2.693161488,-1.60073185,-0.234644115,2024-06-05 18:50:12.437074
61.47756629,-2.581681728,2.740345955,-0.5408933759,2024-06-05 18:50:12.477566
61.51809196,-2.376859665,1.412384033,-0.6625660062,2024-06-05 18:50:12.518092
61.55847556,-0.1144890785,-0.3729109764,-0.9499684572,2024-06-05 18:50:12.558476
61.59895993,-1.246442318,-0.6492981911,-1.785462976,2024-06-05 18:50:12.598960
61.63948295,-1.475392818,0.3277463913,-1.821208239,2024-06-05 18:50:12.639483
61.67996806,-2.215666771,0.4095401764,-1.805345774,2024-06-05 18:50:12.679968
61.72044972,-3.071577072,-0.7649278641,-1.943843961,2024-06-05 18:50:12.720450
61.76091926,-1.963013649,-0.4718565941,-3.764189959,2024-06-05 18:50:12.760919
61.80139332,0.8927278519,-4.304817677,-2.061906815,2024-06-05 18:50:12.801393
61.84190051,0.1337594986,-3.354298592,-2.389629602,2024-06-05 18:50:12.841901
61.88238446,0.9889879227,-0.9934771061,-1.06200695,2024-06-05 18:50:12.882384
61.92286733,0.6387968063,-0.7235116959,-1.802253842,2024-06-05 18:50:12.922867
61.96333493,2.390573502,-2.613875389,-2.031921625,2024-06-05 18:50:12.963335
62.00384363,1.911702633,-0.4362722635,-1.411750793,2024-06-05 18:50:13.003844
62.04436202,3.348579407,0.632499218,-0.7732115984,2024-06-05 18:50:13.044362
62.08482905,4.848470211,0.7390348911,-0.5649325252,2024-06-05 18:50:13.084829
62.1252929,5.762914658,0.8659260273,-0.4512280226,2024-06-05 18:50:13.125293
