Time (s),Acceleration x (m/s^2),Acceleration y (m/s^2),Acceleration z (m/s^2),Datetime
0.0,3.605086327,6.455835342,5.837889194,2024-06-05 15:39:52.000000
0.010624488,3.087937593,6.168397903,6.412764549,2024-06-05 15:39:52.010624
0.050624488,2.675773859,6.259325027,7.227221489,2024-06-05 15:39:52.050624
0.090624488,3.119044304,6.695416927,6.781558514,2024-06-05 15:39:52.090624
0.130624488,3.090330362,6.403193474,7.500302792,2024-06-05 15:39:52.130624
0.170624488,3.286541939,6.570990086,7.126723289,2024-06-05 15:39:52.170624
0.210624488,3.286541939,6.570990086,7.126723289,2024-06-05 15:39:52.210624
0.250624488,2.817249537,6.427121639,7.165008068,2024-06-05 15:39:52.250624
0.290624488,1.579861164,6.574579239,6.721737862,2024-06-05 15:39:52.290624
0.330624488,1.428814173,7.208079338,6.945765972,2024-06-05 15:39:52.330624
0.370624488,1.620539188,5.652146339,7.902894974,2024-06-05 15:39:52.370624
0.410624488,2.314158678,5.955137253,5.054538727,2024-06-05 15:39:52.410624
0.450624488,3.166900873,6.021239281,4.478466511,2024-06-05 15:39:52.450624
0.490624488,-1.528415442,3.466302633,15.17079449,2024-06-05 15:39:52.490624
0.530624488,-2.27078867,3.405285835,9.243174553,2024-06-05 15:39:52.530624
0.570624488,-1.229013562,4.540679932,8.761619568,2024-06-05 15:39:52.570624
0.610624488,2.478066921,6.441478729,8.502895355,2024-06-05 15:39:52.610624
0.650624488,0.195314154,5.676074505,8.51844883,2024-06-05 15:39:52.650624
0.690624488,0.195314154,5.676074505,8.51844883,2024-06-05 15:39:52.690624
0.730624488,1.905584097,6.091827393,7.984251022,2024-06-05 15:39:52.730624
0.770624488,0.4516452849,5.630610943,7.372286797,2024-06-05 15:39:52.770624
0.810624488,0.4516452849,5.630610943,7.372286797,2024-06-05 15:39:52.810624
0.850624488,0.4516452849,5.630610943,7.372286797,2024-06-05 15:39:52.850624
0.890624488,0.4516452849,5.630610943,7.372286797,2024-06-05 15:39:52.890624
0.930624488,1.936690807,5.499005318,8.260921478,2024-06-05 15:39:52.930624
0.970624488,1.936690807,5.499005318,8.260921478,2024-06-05 15:39:52.970624
1.010624488,1.936690807,5.499005318,8.260921478,2024-06-05 15:39:53.010624
1.050624488,1.936690807,5.499005318,8.260921478,2024-06-05 15:39:53.050624
1.090624488,1.936690807,5.499005318,8.260921478,2024-06-05 15:39:53.090624
1.130624488,1.936690807,5.499005318,8.260921478,2024-06-05 15:39:53.130624
1.170624488,1.936690807,5.499005318,8.260921478,2024-06-05 15:39:53.170624
1.210624488,1.936690807,5.499005318,8.260921478,2024-06-05 15:39:53.210624
1.250624488,1.936690807,5.499005318,8.260921478,2024-06-05 15:39:53.250624
1.290624488,1.469492197,5.146662235,10.66361427,2024-06-05 15:39:53.290624
1.330624488,-0.3963112533,5.280959606,8.864510536,2024-06-05 15:39:53.330624
1.370624488,0.5078766346,5.897709846,7.556533813,2024-06-05 15:39:53.370624
1.410624488,-0.5820540786,4.764708042,6.769594193,2024-06-05 15:39:53.410624
1.450624488,-0.5820540786,4.764708042,6.769594193,2024-06-05 15:39:53.450624
1.490624488,-0.5820540786,4.764708042,6.769594193,2024-06-05 15:39:53.490624
1.530624488,-0.5820540786,4.764708042,6.769594193,2024-06-05 15:39:53.530624
1.570624488,-0.5820540786,4.764708042,6.769594193,2024-06-05 15:39:53.570624
1.610624488,-0.5820540786,4.764708042,6.769594193,2024-06-05 15:39:53.610624
1.650624488,-0.5820540786,4.764708042,6.769594193,2024-06-05 15:39:53.650624
1.690624488,0.171385929,6.909873486,7.445267677,2024-06-05 15:39:53.690624
1.730624488,0.171385929,6.909873486,7.445267677,2024-06-05 15:39:53.730624
1.770624488,0.171385929,6.909873486,7.445267677,2024-06-05 15:39:53.770624
1.810624488,0.171385929,6.909873486,7.445267677,2024-06-05 15:39:53.810624
1.850624488,0.171385929,6.909873486,7.445267677,2024-06-05 15:39:53.850624
1.890624488,0.171385929,6.909873486,7.445267677,2024-06-05 15:39:53.890624
1.930624488,0.7498508096,5.761318684,7.066603661,2024-06-05 15:39:53.930624
1.970624488,0.7498508096,5.761318684,7.066603661,2024-06-05 15:39:53.970624
2.010624488,0.7498508096,5.761318684,7.066603661,2024-06-05 15:39:54.010624
2.050624488,0.7498508096,5.761318684,7.066603661,2024-06-05 15:39:54.050624
2.090624488,0.7498508096,5.761318684,7.066603661,2024-06-05 15:39:54.090624
2.130624488,0.7498508096,5.761318684,7.066603661,2024-06-05 15:39:54.130624
2.170624488,3.495016575,6.731309414,7.870292664,2024-06-05 15:39:54.170624
2.210624488,3.495016575,6.731309414,7.870292664,2024-06-05 15:39:54.210624
2.250624488,3.495016575,6.731309414,7.870292664,2024-06-05 15:39:54.250624
2.290624488,3.495016575,6.731309414,7.870292664,2024-06-05 15:39:54.290624
2.330624488,3.495016575,6.731309414,7.870292664,2024-06-05 15:39:54.330624
2.370624488,3.495016575,6.731309414,7.870292664,2024-06-05 15:39:54.370624
2.410624488,3.495016575,6.731309414,7.870292664,2024-06-05 15:39:54.410624
2.450624488,3.495016575,6.731309414,7.870292664,2024-06-05 15:39:54.450624
2.490624488,3.495016575,6.731309414,7.870292664,2024-06-05 15:39:54.490624
2.530624488,3.495016575,6.731309414,7.870292664,2024-06-05 15:39:54.530624
2.570624488,3.495016575,6.731309414,7.870292664,2024-06-05 15:39:54.570624
2.610624488,3.495016575,6.731309414,7.870292664,2024-06-05 15:39:54.610624
2.650624488,3.495016575,6.731309414,7.870292664,2024-06-05 15:39:54.650624
2.690624488,3.495016575,6.731309414,7.870292664,2024-06-05 15:39:54.690624
2.730624488,3.495016575,6.731309414,7.870292664,2024-06-05 15:39:54.730624
2.770624488,3.495016575,6.731309414,7.870292664,2024-06-05 15:39:54.770624
2.810624488,3.495016575,6.731309414,7.870292664,2024-06-05 15:39:54.810624
2.850624488,3.495016575,6.731309414,7.870292664,2024-06-05 15:39:54.850624
2.890624488,3.495016575,6.731309414,7.870292664,2024-06-05 15:39:54.890624
2.930624488,3.495016575,6.731309414,7.870292664,2024-06-05 15:39:54.930624
2.970624488,-1.800299883,2.427817583,9.729216576,2024-06-05 15:39:54.970624
3.010624488,-5.786443233,1.398903966,9.168698311,2024-06-05 15:39:55.010624
3.050624488,-4.194618225,2.242074728,9.728020668,2024-06-05 15:39:55.050624
3.090624488,-4.69411993,0.8096713424,6.700202465,2024-06-05 15:39:55.090624
3.130624488,-4.69411993,0.8096713424,6.700202465,2024-06-05 15:39:55.130624
3.170624488,-4.69411993,0.8096713424,6.700202465,2024-06-05 15:39:55.170624
3.210624488,-4.69411993,0.8096713424,6.700202465,2024-06-05 15:39:55.210624
3.250624488,-4.69411993,0.8096713424,6.700202465,2024-06-05 15:39:55.250624
3.290624488,-4.69411993,0.8096713424,6.700202465,2024-06-05 15:39:55.290624
3.330624488,-4.69411993,0.8096713424,6.700202465,2024-06-05 15:39:55.330624
3.370624488,-4.69411993,0.8096713424,6.700202465,2024-06-05 15:39:55.370624
3.410624488,-4.69411993,0.8096713424,6.700202465,2024-06-05 15:39:55.410624
3.450624488,-4.69411993,0.8096713424,6.700202465,2024-06-05 15:39:55.450624
3.490624488,-4.69411993,0.8096713424,6.700202465,2024-06-05 15:39:55.490624
3.530624488,-4.69411993,0.8096713424,6.700202465,2024-06-05 15:39:55.530624
3.570624488,-4.69411993,0.8096713424,6.700202465,2024-06-05 15:39:55.570624
3.610624488,-4.69411993,0.8096713424,6.700202465,2024-06-05 15:39:55.610624
3.650624488,-4.69411993,0.8096713424,6.700202465,2024-06-05 15:39:55.650624
3.690624488,-4.69411993,0.8096713424,6.700202465,2024-06-05 15:39:55.690624
3.730624488,-4.69411993,0.8096713424,6.700202465,2024-06-05 15:39:55.730624
3.770624488,-4.69411993,0.8096713424,6.700202465,2024-06-05 15:39:55.770624
3.810624488,-4.69411993,0.8096713424,6.700202465,2024-06-05 15:39:55.810624
3.850624488,-4.69411993,0.8096713424,6.700202465,2024-06-05 15:39:55.850624
3.890624488,-4.69411993,0.8096713424,6.700202465,2024-06-05 15:39:55.890624
3.930624488,-9.147162437,-1.589432478,4.262813568,2024-06-05 15:39:55.930624
3.970624488,-9.147162437,-1.589432478,4.262813568,2024-06-05 15:39:55.970624
4.010624488,-9.147162437,-1.589432478,4.262813568,2024-06-05 15:39:56.010624
4.050624488,-9.147162437,-1.589432478,4.262813568,2024-06-05 15:39:56.050624
4.090624488,-9.147162437,-1.589432478,4.262813568,2024-06-05 15:39:56.090624
4.130624488,-9.147162437,-1.589432478,4.262813568,2024-06-05 15:39:56.130624
4.170624488,-9.147162437,-1.589432478,4.262813568,2024-06-05 15:39:56.170624
4.210624488,-9.147162437,-1.589432478,4.262813568,2024-06-05 15:39:56.210624
4.250624488,-9.147162437,-1.589432478,4.262813568,2024-06-05 15:39:56.250624
4.290624488,-9.147162437,-1.589432478,4.262813568,2024-06-05 15:39:56.290624
4.330624488,-9.147162437,-1.589432478,4.262813568,2024-06-05 15:39:56.330624
4.370624488,-9.147162437,-1.589432478,4.262813568,2024-06-05 15:39:56.370624
4.410624488,-9.147162437,-1.589432478,4.262813568,2024-06-05 15:39:56.410624
4.450624488,-9.147162437,-1.589432478,4.262813568,2024-06-05 15:39:56.450624
4.490624488,-9.147162437,-1.589432478,4.262813568,2024-06-05 15:39:56.490624
4.530624488,-9.147162437,-1.589432478,4.262813568,2024-06-05 15:39:56.530624
4.570624488,-9.147162437,-1.589432478,4.262813568,2024-06-05 15:39:56.570624
4.610624488,-4.994718075,-4.608875751,7.230811119,2024-06-05 15:39:56.610624
4.650624488,-5.606682777,-4.599304199,6.720541477,2024-06-05 15:39:56.650624
4.690624488,-5.300102234,-3.511766434,7.349255562,2024-06-05 15:39:56.690624
4.730624488,-3.78484726,0.5186443329,6.709774017,2024-06-05 15:39:56.730624
4.770624488,-4.679463863,-0.2443670183,4.588536739,2024-06-05 15:39:56.770624
4.810624488,-4.679463863,-0.2443670183,4.588536739,2024-06-05 15:39:56.810624
4.850624488,-4.679463863,-0.2443670183,4.588536739,2024-06-05 15:39:56.850624
4.890624488,-4.679463863,-0.2443670183,4.588536739,2024-06-05 15:39:56.890624
4.930624488,-4.100998878,-5.027021408,4.946562767,2024-06-05 15:39:56.930624
4.970624488,-4.100998878,-5.027021408,4.946562767,2024-06-05 15:39:56.970624
5.010624488,-4.100998878,-5.027021408,4.946562767,2024-06-05 15:39:57.010624
5.050624488,-4.100998878,-5.027021408,4.946562767,2024-06-05 15:39:57.050624
5.090624488,-4.100998878,-5.027021408,4.946562767,2024-06-05 15:39:57.090624
5.130624488,-4.100998878,-5.027021408,4.946562767,2024-06-05 15:39:57.130624
5.170624488,-4.100998878,-5.027021408,4.946562767,2024-06-05 15:39:57.170624
5.210624488,-4.100998878,-5.027021408,4.946562767,2024-06-05 15:39:57.210624
5.250624488,-4.100998878,-5.027021408,4.946562767,2024-06-05 15:39:57.250624
5.290624488,-4.100998878,-5.027021408,4.946562767,2024-06-05 15:39:57.290624
5.330624488,-4.100998878,-5.027021408,4.946562767,2024-06-05 15:39:57.330624
5.370624488,-4.100998878,-5.027021408,4.946562767,2024-06-05 15:39:57.370624
5.410624488,-4.100998878,-5.027021408,4.946562767,2024-06-05 15:39:57.410624
5.450624488,-4.100998878,-5.027021408,4.946562767,2024-06-05 15:39:57.450624
5.490624488,-4.100998878,-5.027021408,4.946562767,2024-06-05 15:39:57.490624
5.530624488,-4.100998878,-5.027021408,4.946562767,2024-06-05 15:39:57.530624
5.570624488,-4.100998878,-5.027021408,4.946562767,2024-06-05 15:39:57.570624
5.610624488,-4.100998878,-5.027021408,4.946562767,2024-06-05 15:39:57.610624
5.650624488,-4.100998878,-5.027021408,4.946562767,2024-06-05 15:39:57.650624
5.690624488,-4.100998878,-5.027021408,4.946562767,2024-06-05 15:39:57.690624
5.730624488,-4.100998878,-5.027021408,4.946562767,2024-06-05 15:39:57.730624
5.770624488,-4.100998878,-5.027021408,4.946562767,2024-06-05 15:39:57.770624
5.810624488,-4.100998878,-5.027021408,4.946562767,2024-06-05 15:39:57.810624
5.850624488,-4.100998878,-5.027021408,4.946562767,2024-06-05 15:39:57.850624
5.890624488,-4.100998878,-5.027021408,4.946562767,2024-06-05 15:39:57.890624
5.930624488,-7.549355507,-5.623432159,2.86032033,2024-06-05 15:39:57.930624
5.970624488,-7.549355507,-5.623432159,2.86032033,2024-06-05 15:39:57.970624
6.010624488,-6.829713821,-5.012664318,2.990729094,2024-06-05 15:39:58.010624
6.050624488,-6.829713821,-5.012664318,2.990729094,2024-06-05 15:39:58.050624
6.090624488,-6.829713821,-5.012664318,2.990729094,2024-06-05 15:39:58.090624
6.130624488,-6.829713821,-5.012664318,2.990729094,2024-06-05 15:39:58.130624
6.170624488,-6.829713821,-5.012664318,2.990729094,2024-06-05 15:39:58.170624
6.210624488,-6.473781586,-5.77208662,3.444767237,2024-06-05 15:39:58.210624
6.250624488,-5.971887112,-4.781457901,3.418446302,2024-06-05 15:39:58.250624
6.290624488,-5.950351715,-5.110770226,3.49382019,2024-06-05 15:39:58.290624
6.330624488,-6.90030241,-5.556433201,3.396910906,2024-06-05 15:39:58.330624
6.370624488,-8.247760773,-6.083452702,2.636292458,2024-06-05 15:39:58.370624
6.410624488,-8.313563347,-5.370690346,3.172882795,2024-06-05 15:39:58.410624
6.450624488,-7.483552933,-5.622235775,3.183650494,2024-06-05 15:39:58.450624
6.490624488,-7.408178806,-5.546862125,3.029014349,2024-06-05 15:39:58.490624
6.530624488,-7.444071293,-5.524130344,3.133401155,2024-06-05 15:39:58.530624
6.570624488,-7.133901596,-5.474778175,3.005086184,2024-06-05 15:39:58.570624
6.610624488,-7.785347462,-6.039185047,3.26979208,2024-06-05 15:39:58.610624
6.650624488,-7.600800991,-6.007779598,3.324826956,2024-06-05 15:39:58.650624
6.690624488,-7.438089371,-5.236692429,2.473281384,2024-06-05 15:39:58.690624
6.730624488,-7.961519241,-4.919044971,2.74396944,2024-06-05 15:39:58.730624
6.770624488,-6.805486679,-5.773283005,3.370589733,2024-06-05 15:39:58.770624
6.810624488,-7.367500782,-4.657928467,3.290131092,2024-06-05 15:39:58.810624
6.850624488,-6.845267296,-4.096213341,4.090231419,2024-06-05 15:39:58.850624
6.890624488,-6.431907177,-4.752744198,4.356133461,2024-06-05 15:39:58.890624
6.930624488,-8.244171143,-5.053342342,3.81595397,2024-06-05 15:39:58.930624
6.970624488,-8.568697929,-5.638985634,2.847159863,2024-06-05 15:39:58.970624
7.010624488,-8.324331284,-6.16121912,3.038585663,2024-06-05 15:39:59.010624
7.050624488,-7.893024445,-5.588736534,3.357429266,2024-06-05 15:39:59.050624
7.090624488,-7.215257645,-5.473581791,3.321237803,2024-06-05 15:39:59.090624
7.130624488,-7.304988384,-5.661717415,3.534498215,2024-06-05 15:39:59.130624
7.170624488,-6.913462639,-5.353940487,3.775275946,2024-06-05 15:39:59.170624
7.210624488,-6.610471725,-5.369493961,4.103391647,2024-06-05 15:39:59.210624
7.250624488,-6.693024158,-5.444868088,4.111766815,2024-06-05 15:39:59.250624
7.290624488,-6.237789631,-5.350351334,4.250849247,2024-06-05 15:39:59.290624
7.330624488,-5.803193092,-6.048756599,4.24367094,2024-06-05 15:39:59.330624
7.370624488,-5.803193092,-6.048756599,4.24367094,2024-06-05 15:39:59.370624
7.410624488,-5.803193092,-6.048756599,4.24367094,2024-06-05 15:39:59.410624
7.450624488,-6.566204548,-6.405586243,3.835096598,2024-06-05 15:39:59.450624
7.490624488,-6.282056808,-6.027221203,3.623331785,2024-06-05 15:39:59.490624
7.530624488,-6.863213539,-6.301498413,3.562015533,2024-06-05 15:39:59.530624
7.570624488,-6.73848772,-6.101398468,3.61615324,2024-06-05 15:39:59.570624
7.610624488,-6.97567606,-6.113362789,3.708276987,2024-06-05 15:39:59.610624
7.650624488,-7.448856831,-5.570790291,3.578765392,2024-06-05 15:39:59.650624
7.690624488,-7.092027187,-5.358726501,3.732205153,2024-06-05 15:39:59.690624
7.730624488,-7.092027187,-5.358726501,3.732205153,2024-06-05 15:39:59.730624
7.770624488,-7.092027187,-5.358726501,3.732205153,2024-06-05 15:39:59.770624
7.810624488,-7.092027187,-5.358726501,3.732205153,2024-06-05 15:39:59.810624
7.850624488,-7.092027187,-5.358726501,3.732205153,2024-06-05 15:39:59.850624
7.890624488,-7.092027187,-5.358726501,3.732205153,2024-06-05 15:39:59.890624
7.930624488,-7.092027187,-5.358726501,3.732205153,2024-06-05 15:39:59.930624
7.970624488,-7.625925541,-5.211268425,3.614956856,2024-06-05 15:39:59.970624
8.010624488,-7.281060219,-5.050949574,3.512962818,2024-06-05 15:40:00.010624
8.050624488,-7.633403301,-5.042574406,3.668795347,2024-06-05 15:40:00.050624
8.090624488,-7.068996429,-4.911866665,3.687937975,2024-06-05 15:40:00.090624
8.130624488,-7.013961315,-5.064109802,4.061517239,2024-06-05 15:40:00.130624
8.170624488,-6.520441532,-5.539683342,4.194618225,2024-06-05 15:40:00.170624
8.210624488,-7.398607731,-5.12273407,4.214957237,2024-06-05 15:40:00.210624
8.250624488,-7.0151577,-4.69411993,3.619742393,2024-06-05 15:40:00.250624
8.290624488,-7.193722248,-4.901099205,3.687937975,2024-06-05 15:40:00.290624
8.330624488,-7.530212879,-5.356333256,3.798007727,2024-06-05 15:40:00.330624
8.370624488,-7.470392227,-5.566004753,4.118945122,2024-06-05 15:40:00.370624
8.410624488,-6.795915604,-5.322834015,4.097409725,2024-06-05 15:40:00.410624
8.450624488,-7.247560501,-4.846064091,3.99451828,2024-06-05 15:40:00.450624
8.490624488,-7.423732281,-4.829314232,3.964607954,2024-06-05 15:40:00.490624
8.530624488,-7.520641804,-4.875974178,3.868596077,2024-06-05 15:40:00.530624
8.570624488,-7.397411346,-4.866403103,3.949054718,2024-06-05 15:40:00.570624
8.610624488,-7.334898949,-5.022235394,3.980161428,2024-06-05 15:40:00.610624
8.650624488,-7.2535429,-4.850849628,4.014857292,2024-06-05 15:40:00.650624
8.690624488,-7.37587595,-4.926223755,3.964607954,2024-06-05 15:40:00.690624
8.730624488,-7.193722248,-5.12273407,4.056731701,2024-06-05 15:40:00.730624
8.770624488,-7.246364117,-5.233103275,3.87218523,2024-06-05 15:40:00.770624
8.810624488,-7.217650414,-5.32163763,4.031607151,2024-06-05 15:40:00.810624
8.850624488,-7.17457962,-5.274977684,4.41984272,2024-06-05 15:40:00.850624
8.890624488,-6.923034191,-5.08325243,4.357329845,2024-06-05 15:40:00.890624
8.930624488,-6.757630348,-5.235496044,4.515555382,2024-06-05 15:40:00.930624
8.970624488,-6.969694138,-5.104787827,4.244867325,2024-06-05 15:40:00.970624
9.010624488,-7.38664341,-5.212464809,4.141676903,2024-06-05 15:40:01.010624
9.050624488,-7.494320393,-5.161019325,4.096213341,2024-06-05 15:40:01.050624
9.090624488,-7.350451946,-4.934598446,4.123730659,2024-06-05 15:40:01.090624
9.130624488,-7.105187893,-4.651946545,4.077070713,2024-06-05 15:40:01.130624
9.170624488,-7.215257645,-4.714458942,4.208974838,2024-06-05 15:40:01.170624
9.210624488,-7.037889481,-4.715655327,4.340580463,2024-06-05 15:40:01.210624
9.250624488,-6.963712215,-4.771886349,4.39800787,2024-06-05 15:40:01.250624
9.290624488,-6.968497753,-5.01864624,4.507180691,2024-06-05 15:40:01.290624
9.330624488,-6.968497753,-5.01864624,4.507180691,2024-06-05 15:40:01.330624
9.370624488,-6.968497753,-5.01864624,4.507180691,2024-06-05 15:40:01.370624
9.410624488,-6.968497753,-5.01864624,4.507180691,2024-06-05 15:40:01.410624
9.450624488,-7.320541859,-4.916652203,4.256831646,2024-06-05 15:40:01.450624
9.490624488,-7.237989426,-4.916652203,4.169493675,2024-06-05 15:40:01.490624
9.530624488,-7.233203888,-4.928616524,4.210171223,2024-06-05 15:40:01.530624
9.570624488,-7.26431036,-4.859224796,4.193421841,2024-06-05 15:40:01.570624
9.610624488,-7.26431036,-4.859224796,4.193421841,2024-06-05 15:40:01.610624
9.650624488,-7.24995327,-4.860421181,4.232903481,2024-06-05 15:40:01.650624
9.690624488,-7.181757927,-4.858027935,4.274777889,2024-06-05 15:40:01.690624
9.730624488,-7.18534708,-4.854438782,4.275974274,2024-06-05 15:40:01.730624
9.770624488,-7.240382195,-4.854438782,4.254438877,2024-06-05 15:40:01.770624
9.810624488,-7.265506744,-4.84845686,4.223331928,2024-06-05 15:40:01.810624
9.850624488,-7.277471066,-4.86281395,4.191029072,2024-06-05 15:40:01.850624
9.890624488,-7.257132053,-4.831707001,4.201796532,2024-06-05 15:40:01.890624
9.930624488,-7.269095898,-4.847260475,4.189832687,2024-06-05 15:40:01.930624
9.970624488,-7.269095898,-4.847260475,4.189832687,2024-06-05 15:40:01.970624
10.01062449,-7.283452988,-4.864010334,4.210171223,2024-06-05 15:40:02.010624
10.05062449,-7.259524822,-4.855635166,4.206582069,2024-06-05 15:40:02.050624
10.09062449,-7.254739285,-4.850849628,4.214957237,2024-06-05 15:40:02.090624
10.13062449,-7.338488102,-5.064109802,4.303491592,2024-06-05 15:40:02.130624
10.17062449,-7.374679565,-5.150251865,4.307080746,2024-06-05 15:40:02.170624
10.21062449,-7.061817646,-4.76949358,4.26879549,2024-06-05 15:40:02.210624
10.21062449,-7.061817646,-4.76949358,4.26879549,2024-06-05 15:40:02.210624
10.29062449,-7.167401314,-5.000699997,4.346562386,2024-06-05 15:40:02.290624
10.33062449,-7.167401314,-5.000699997,4.346562386,2024-06-05 15:40:02.330624
10.37062449,-7.242774963,-4.818546772,4.287938118,2024-06-05 15:40:02.370624
10.41062449,-7.276274681,-4.820939541,4.363312244,2024-06-05 15:40:02.410624
10.45062449,-7.275078297,-5.08684206,4.448556423,2024-06-05 15:40:02.450624
10.49062449,-7.310970306,-5.071288586,4.492823601,2024-06-05 15:40:02.490624
10.53062449,-7.034300327,-4.683053017,4.223331928,2024-06-05 15:40:02.530624
10.57062449,-7.611568928,-5.174180031,3.903591156,2024-06-05 15:40:02.570624
10.61062449,-7.491927624,-4.938187599,3.829114437,2024-06-05 15:40:02.610624
10.65062449,-7.315756321,-4.706083775,3.849453449,2024-06-05 15:40:02.650624
10.69062449,-7.55294466,-4.866403103,3.805186272,2024-06-05 15:40:02.690624
10.73062449,-7.769794464,-4.92143774,3.806382656,2024-06-05 15:40:02.730624
10.77062449,-7.769794464,-4.92143774,3.806382656,2024-06-05 15:40:02.770624
10.81062449,-7.769794464,-4.92143774,3.806382656,2024-06-05 15:40:02.810624
10.85062449,-7.79372263,-4.663910389,4.011268139,2024-06-05 15:40:02.850624
10.89062449,-7.549355507,-4.105784416,3.781257868,2024-06-05 15:40:02.890624
10.93062449,-7.404589653,-3.932304859,3.42323184,2024-06-05 15:40:02.930624
10.97062449,-7.511070251,-3.579961777,3.364607811,2024-06-05 15:40:02.970624
11.01062449,-8.027321815,-4.050749779,3.818346739,2024-06-05 15:40:03.010624
11.05062449,-7.612765312,-4.038785458,3.786043644,2024-06-05 15:40:03.050624
11.09062449,-7.930412292,-4.284348965,3.945465326,2024-06-05 15:40:03.090624
11.13062449,-7.580461979,-4.062713623,3.850649834,2024-06-05 15:40:03.130624
11.17062449,-7.543373585,-4.595715046,4.280759811,2024-06-05 15:40:03.170624
11.21062449,-7.066603661,-4.625625134,4.761118889,2024-06-05 15:40:03.210624
11.25062449,-8.053643227,-4.741976261,4.095016956,2024-06-05 15:40:03.250624
11.29062449,-7.692027569,-4.225724697,3.762115479,2024-06-05 15:40:03.290624
11.33062449,-7.692027569,-4.225724697,3.762115479,2024-06-05 15:40:03.330624
11.37062449,-7.692027569,-4.225724697,3.762115479,2024-06-05 15:40:03.370624
11.41062449,-8.142177582,-4.274777889,3.471088409,2024-06-05 15:40:03.410624
11.45062449,-7.741080284,-4.673481941,4.19581461,2024-06-05 15:40:03.450624
11.49062449,-7.36151886,-4.780261517,4.73001194,2024-06-05 15:40:03.490624
11.53062449,-7.167401314,-4.610072136,4.674678326,2024-06-05 15:40:03.530624
11.57062449,-7.18534708,-4.345366001,4.650749683,2024-06-05 15:40:03.570624
11.61062449,-7.18534708,-4.345366001,4.650749683,2024-06-05 15:40:03.610624
11.65062449,-7.18534708,-4.345366001,4.650749683,2024-06-05 15:40:03.650624
11.69062449,-7.120740891,-4.909473896,4.727619171,2024-06-05 15:40:03.690624
11.73062449,-7.172186852,-4.869992256,4.656732082,2024-06-05 15:40:03.730624
11.77062449,-7.126723289,-4.92502737,4.73001194,2024-06-05 15:40:03.770624
11.81062449,-7.119544506,-4.710869789,4.643571377,2024-06-05 15:40:03.810624
11.85062449,-7.119544506,-4.710869789,4.643571377,2024-06-05 15:40:03.850624
11.89062449,-7.119544506,-4.710869789,4.643571377,2024-06-05 15:40:03.890624
11.93062449,-7.041478634,-4.666303158,4.731208801,2024-06-05 15:40:03.930624
11.97062449,-7.076174736,-4.513162613,4.667499542,2024-06-05 15:40:03.970624
12.01062449,-7.23918581,-4.721637249,4.761118889,2024-06-05 15:40:04.010624
12.05062449,-7.23918581,-4.721637249,4.761118889,2024-06-05 15:40:04.050624
12.09062449,-6.903891563,-4.595715046,4.922634602,2024-06-05 15:40:04.090624
12.13062449,-6.920641422,-4.605286121,5.094020367,2024-06-05 15:40:04.130624
12.17062449,-6.920641422,-4.605286121,5.094020367,2024-06-05 15:40:04.170624
12.21062449,-6.838088989,-4.473680973,5.098805904,2024-06-05 15:40:04.210624
12.25062449,-6.755237579,-4.278367043,5.027021408,2024-06-05 15:40:04.250624
12.29062449,-7.131508827,-4.428217411,4.934598446,2024-06-05 15:40:04.290624
12.33062449,-7.131508827,-4.428217411,4.934598446,2024-06-05 15:40:04.330624
12.37062449,-7.184150696,-4.281956196,4.643571377,2024-06-05 15:40:04.370624
12.41062449,-7.184150696,-4.281956196,4.643571377,2024-06-05 15:40:04.410624
12.45062449,-7.226025105,-4.271188259,4.565804482,2024-06-05 15:40:04.450624
12.49062449,-7.218846798,-4.374079704,4.589733124,2024-06-05 15:40:04.490624
12.53062449,-7.203293324,-4.440181732,4.681856632,2024-06-05 15:40:04.530624
12.57062449,-7.192525864,-4.473680973,4.728815556,2024-06-05 15:40:04.570624
12.61062449,-7.192525864,-4.473680973,4.728815556,2024-06-05 15:40:04.610624
12.65062449,-7.173383236,-4.356133461,4.60767889,2024-06-05 15:40:04.650624
12.69062449,-7.236793041,-4.192225456,4.435395718,2024-06-05 15:40:04.690624
12.73062449,-7.267899513,-4.063910007,4.41984272,2024-06-05 15:40:04.730624
12.77062449,-7.420143127,-4.34775877,4.637589455,2024-06-05 15:40:04.770624
12.81062449,-7.507481098,-4.605286121,4.804189682,2024-06-05 15:40:04.810624
12.85062449,-7.529016495,-4.637589455,4.740779877,2024-06-05 15:40:04.850624
12.89062449,-7.493124008,-4.535894394,4.594518661,2024-06-05 15:40:04.890624
12.93062449,-7.493124008,-4.535894394,4.594518661,2024-06-05 15:40:04.930624
12.97062449,-7.10159874,-4.261617184,4.576572418,2024-06-05 15:40:04.970624
13.01062449,-7.059424877,-4.36211586,4.639982224,2024-06-05 15:40:05.010624
13.05062449,-7.084549427,-4.478466511,4.702494621,2024-06-05 15:40:05.050624
13.09062449,-7.303792,-4.606482506,4.63639307,2024-06-05 15:40:05.090624
13.13062449,-7.459624767,-4.592125893,4.544269085,2024-06-05 15:40:05.130624
13.17062449,-7.459624767,-4.592125893,4.544269085,2024-06-05 15:40:05.170624
13.21062449,-7.459624767,-4.592125893,4.544269085,2024-06-05 15:40:05.210624
13.25062449,-7.459624767,-4.592125893,4.544269085,2024-06-05 15:40:05.250624
13.29062449,-7.277471066,-4.459323883,4.618446827,2024-06-05 15:40:05.290624
13.33062449,-7.277471066,-4.459323883,4.618446827,2024-06-05 15:40:05.330624
13.37062449,-7.187740326,-4.562215328,4.70488739,2024-06-05 15:40:05.370624
13.41062449,-7.206882477,-4.525126934,4.710869789,2024-06-05 15:40:05.410624
13.45062449,-7.206882477,-4.525126934,4.710869789,2024-06-05 15:40:05.450624
13.49062449,-7.117151737,-4.454538345,4.745565414,2024-06-05 15:40:05.490624
13.53062449,-7.099205494,-4.549055099,4.768297195,2024-06-05 15:40:05.530624
13.57062449,-7.123134136,-4.649553299,4.795814991,2024-06-05 15:40:05.570624
13.61062449,-7.105187893,-4.637589455,4.712066174,2024-06-05 15:40:05.610624
13.65062449,-7.133901596,-4.594518661,4.720440865,2024-06-05 15:40:05.650624
13.69062449,-7.133901596,-4.594518661,4.720440865,2024-06-05 15:40:05.690624
13.73062449,-7.133901596,-4.594518661,4.720440865,2024-06-05 15:40:05.730624
13.77062449,-7.206882477,-4.533501625,4.686941147,2024-06-05 15:40:05.770624
13.81062449,-7.191329479,-4.503591537,4.691727161,2024-06-05 15:40:05.810624
13.85062449,-7.120740891,-4.485645294,4.714458942,2024-06-05 15:40:05.850624
13.89062449,-7.175776005,-4.507180691,4.731208801,2024-06-05 15:40:05.890624
13.93062449,-7.154240608,-4.526323318,4.739583492,2024-06-05 15:40:05.930624
13.97062449,-7.154240608,-4.526323318,4.739583492,2024-06-05 15:40:05.970624
14.01062449,-7.154240608,-4.526323318,4.739583492,2024-06-05 15:40:06.010624
14.05062449,-7.154240608,-4.526323318,4.739583492,2024-06-05 15:40:06.050624
14.09062449,-7.053442955,-4.563411713,4.777868748,2024-06-05 15:40:06.090624
14.13062449,-7.120740891,-4.700101852,4.782654285,2024-06-05 15:40:06.130624
14.17062449,-7.090531826,-4.604089737,4.841278553,2024-06-05 15:40:06.170624
14.21062449,-7.065407276,-4.474877357,4.80897522,2024-06-05 15:40:06.210624
14.25062449,-7.098009109,-4.473680973,4.776672363,2024-06-05 15:40:06.250624
14.29062449,-7.090531826,-4.411168575,4.764708042,2024-06-05 15:40:06.290624
14.33062449,-7.126723289,-4.587339878,4.787439823,2024-06-05 15:40:06.330624
14.37062449,-7.058228493,-4.702494621,4.835296154,2024-06-05 15:40:06.370624
14.41062449,-7.053442955,-4.738387108,4.812564373,2024-06-05 15:40:06.410624
14.45062449,-7.009175777,-4.70488739,4.802993298,2024-06-05 15:40:06.450624
14.49062449,-7.071389198,-4.599304199,4.847260475,2024-06-05 15:40:06.490624
14.53062449,-7.078567505,-4.510769844,4.835296154,2024-06-05 15:40:06.530624
14.57062449,-7.052246571,-4.429413795,4.842474937,2024-06-05 15:40:06.570624
14.61062449,-7.065407276,-4.448556423,4.836492538,2024-06-05 15:40:06.610624
14.65062449,-7.066603661,-4.433002949,4.816154003,2024-06-05 15:40:06.650624
14.69062449,-7.047461033,-4.465306282,4.853242397,2024-06-05 15:40:06.690624
14.73062449,-7.093223572,-4.57178688,4.828117847,2024-06-05 15:40:06.730624
14.77062449,-7.076174736,-4.574179649,4.800600529,2024-06-05 15:40:06.770624
14.81062449,-7.092027187,-4.558626175,4.775475979,2024-06-05 15:40:06.810624
14.85062449,-7.06301403,-4.567001343,4.814957142,2024-06-05 15:40:06.850624
14.89062449,-7.082156658,-4.532305241,4.814957142,2024-06-05 15:40:06.890624
14.93062449,-7.088139057,-4.485645294,4.791028976,2024-06-05 15:40:06.930624
14.97062449,-7.113562584,-4.485645294,4.782654285,2024-06-05 15:40:06.970624
15.01062449,-7.151847839,-4.492823601,4.795814991,2024-06-05 15:40:07.010624
15.05062449,-7.145865917,-4.514358997,4.804189682,2024-06-05 15:40:07.050624
15.09062449,-7.125526905,-4.492823601,4.80897522,2024-06-05 15:40:07.090624
15.13062449,-7.100401878,-4.489234447,4.825725079,2024-06-05 15:40:07.130624
15.17062449,-7.073781967,-4.541876316,4.891527653,2024-06-05 15:40:07.170624
15.21062449,-7.078567505,-4.570590496,4.908277512,2024-06-05 15:40:07.210624
15.25062449,-7.065407276,-4.528716087,4.895116806,2024-06-05 15:40:07.250624
15.29062449,-7.082156658,-4.490430832,4.84845686,2024-06-05 15:40:07.290624
15.33062449,-7.114758968,-4.37288332,4.747958183,2024-06-05 15:40:07.330624
15.37062449,-7.127919674,-4.30827713,4.721637249,2024-06-05 15:40:07.370624
15.41062449,-7.227221489,-4.587339878,4.786243439,2024-06-05 15:40:07.410624
15.45062449,-7.351648331,-4.771886349,4.826921463,2024-06-05 15:40:07.450624
15.49062449,-7.181757927,-4.574179649,4.746761799,2024-06-05 15:40:07.490624
15.53062449,-7.0151577,-4.351347923,4.616054058,2024-06-05 15:40:07.530624
15.57062449,-7.047461033,-4.363312244,4.686941147,2024-06-05 15:40:07.570624
15.61062449,-7.078567505,-4.431806564,4.738387108,2024-06-05 15:40:07.610624
15.65062449,-7.287042141,-4.486841679,4.764708042,2024-06-05 15:40:07.650624
15.69062449,-7.287042141,-4.486841679,4.764708042,2024-06-05 15:40:07.690624
15.73062449,-7.287042141,-4.486841679,4.764708042,2024-06-05 15:40:07.730624
15.77062449,-7.287042141,-4.486841679,4.764708042,2024-06-05 15:40:07.770624
15.81062449,-7.287042141,-4.486841679,4.764708042,2024-06-05 15:40:07.810624
15.85062449,-7.287042141,-4.486841679,4.764708042,2024-06-05 15:40:07.850624
15.89062449,-7.235596657,-4.485645294,4.751547337,2024-06-05 15:40:07.890624
15.93062449,-7.173383236,-4.563411713,4.750350952,2024-06-05 15:40:07.930624
15.97062449,-7.074978352,-4.479662895,4.782654285,2024-06-05 15:40:07.970624
16.01062449,-7.168597698,-4.488038063,4.776672363,2024-06-05 15:40:08.010624
16.05062449,-7.14945507,-4.440181732,4.780261517,2024-06-05 15:40:08.050624
16.09062449,-7.165008068,-4.431806564,4.759922504,2024-06-05 15:40:08.090624
16.13062449,-7.206882477,-4.465306282,4.732405186,2024-06-05 15:40:08.130624
16.17062449,-7.168597698,-4.433002949,4.718048096,2024-06-05 15:40:08.170624
16.21062449,-7.218846798,-4.501198292,4.74436903,2024-06-05 15:40:08.210624
16.25062449,-7.176972389,-4.498805523,4.735994339,2024-06-05 15:40:08.250624
16.29062449,-7.170990467,-4.500001907,4.731208801,2024-06-05 15:40:08.290624
16.33062449,-7.172186852,-4.50957346,4.739583492,2024-06-05 15:40:08.330624
16.37062449,-7.142276287,-4.501198292,4.757529736,2024-06-05 15:40:08.370624
16.41062449,-7.162615299,-4.489234447,4.762315273,2024-06-05 15:40:08.410624
16.45062449,-7.181757927,-4.434199333,4.779065132,2024-06-05 15:40:08.450624
16.49062449,-7.123134136,-4.377668858,4.767100811,2024-06-05 15:40:08.490624
16.53062449,-7.168597698,-4.431806564,4.757529736,2024-06-05 15:40:08.530624
16.57062449,-7.179365158,-4.468895435,4.74436903,2024-06-05 15:40:08.570624
16.61062449,-7.161418915,-4.510769844,4.732405186,2024-06-05 15:40:08.610624
16.65062449,-7.192525864,-4.533501625,4.747958183,2024-06-05 15:40:08.650624
16.69062449,-7.169794083,-4.545465946,4.752744198,2024-06-05 15:40:08.690624
16.73062449,-7.192525864,-4.540679932,4.756333351,2024-06-05 15:40:08.730624
16.77062449,-7.168597698,-4.514358997,4.737190723,2024-06-05 15:40:08.770624
16.81062449,-7.215257645,-4.461717129,4.732405186,2024-06-05 15:40:08.810624
16.85062449,-7.215257645,-4.461717129,4.732405186,2024-06-05 15:40:08.850624
16.89062449,-7.139883518,-4.405186653,4.747958183,2024-06-05 15:40:08.890624
16.93062449,-7.179365158,-4.365705013,4.727619171,2024-06-05 15:40:08.930624
16.97062449,-7.182954311,-4.421039104,4.726422787,2024-06-05 15:40:08.970624
17.01062449,-7.18893671,-4.501198292,4.749154568,2024-06-05 15:40:09.010624
17.05062449,-7.202096939,-4.519144535,4.737190723,2024-06-05 15:40:09.050624
17.09062449,-7.139883518,-4.521537304,4.746761799,2024-06-05 15:40:09.090624
17.13062449,-7.139883518,-4.521537304,4.746761799,2024-06-05 15:40:09.130624
17.17062449,-7.161418915,-4.438984871,4.773082733,2024-06-05 15:40:09.170624
17.21062449,-7.151847839,-4.41625309,4.732405186,2024-06-05 15:40:09.210624
17.25062449,-7.206882477,-4.441378117,4.725226402,2024-06-05 15:40:09.250624
17.29062449,-7.228417873,-4.456931114,4.750350952,2024-06-05 15:40:09.290624
17.33062449,-7.161418915,-4.500001907,4.720440865,2024-06-05 15:40:09.330624
17.37062449,-7.161418915,-4.500001907,4.720440865,2024-06-05 15:40:09.370624
17.41062449,-7.161418915,-4.500001907,4.720440865,2024-06-05 15:40:09.410624
17.45062449,-7.129116058,-4.492823601,4.751547337,2024-06-05 15:40:09.450624
17.49062449,-7.173383236,-4.459323883,4.739583492,2024-06-05 15:40:09.490624
17.53062449,-7.154240608,-4.473680973,4.74436903,2024-06-05 15:40:09.530624
17.57062449,-7.197311401,-4.502394676,4.731208801,2024-06-05 15:40:09.570624
17.61062449,-7.203293324,-4.589733124,4.767100811,2024-06-05 15:40:09.610624
17.65062449,-7.203293324,-4.589733124,4.767100811,2024-06-05 15:40:09.650624
17.69062449,-7.203293324,-4.589733124,4.767100811,2024-06-05 15:40:09.690624
17.73062449,-7.203293324,-4.589733124,4.767100811,2024-06-05 15:40:09.730624
17.77062449,-7.203293324,-4.589733124,4.767100811,2024-06-05 15:40:09.770624
17.81062449,-7.203293324,-4.589733124,4.767100811,2024-06-05 15:40:09.810624
17.85062449,-7.203293324,-4.589733124,4.767100811,2024-06-05 15:40:09.850624
17.89062449,-7.203293324,-4.589733124,4.767100811,2024-06-05 15:40:09.890624
17.93062449,-7.204489708,-4.406383038,4.715655327,2024-06-05 15:40:09.930624
17.97062449,-7.260721207,-4.411168575,4.739583492,2024-06-05 15:40:09.970624
18.01062449,-7.211668491,-4.38724041,4.714458942,2024-06-05 15:40:10.010624
18.05062449,-7.165008068,-4.36211586,4.668695927,2024-06-05 15:40:10.050624
18.09062449,-7.21406126,-4.418646336,4.679463863,2024-06-05 15:40:10.090624
18.13062449,-7.245167732,-4.405186653,4.657928467,2024-06-05 15:40:10.130624
18.17062449,-7.243971348,-4.364508629,4.638785839,2024-06-05 15:40:10.170624
18.21062449,-7.314559937,-4.425824642,4.659124851,2024-06-05 15:40:10.210624
18.25062449,-7.374679565,-4.532305241,4.691727161,2024-06-05 15:40:10.250624
18.29062449,-7.275078297,-4.414757729,4.662714005,2024-06-05 15:40:10.290624
18.33062449,-7.184150696,-4.307080746,4.620839596,2024-06-05 15:40:10.330624
18.37062449,-7.276274681,-4.259224415,4.624428749,2024-06-05 15:40:10.370624
18.41062449,-7.270292282,-4.332205296,4.592125893,2024-06-05 15:40:10.410624
18.45062449,-7.259524822,-4.307080746,4.575376034,2024-06-05 15:40:10.450624
18.49062449,-7.309773922,-4.309473515,4.514358997,2024-06-05 15:40:10.490624
18.53062449,-7.358827114,-4.371686935,4.519144535,2024-06-05 15:40:10.530624
18.57062449,-7.4010005,-4.466502666,4.638785839,2024-06-05 15:40:10.570624
18.61062449,-7.391428947,-4.441378117,4.577768803,2024-06-05 15:40:10.610624
18.65062449,-7.313363075,-4.482056141,4.569394112,2024-06-05 15:40:10.650624
18.69062449,-7.226025105,-4.626821518,4.605286121,2024-06-05 15:40:10.690624
18.73062449,-7.204489708,-4.57178688,4.663910389,2024-06-05 15:40:10.730624
18.77062449,-7.184150696,-4.561018944,4.709673405,2024-06-05 15:40:10.770624
18.81062449,-7.137490749,-4.595715046,4.771886349,2024-06-05 15:40:10.810624
18.85062449,-7.143472672,-4.626821518,4.727619171,2024-06-05 15:40:10.850624
18.89062449,-7.111169815,-4.558626175,4.750350952,2024-06-05 15:40:10.890624
18.93062449,-7.141079903,-4.577768803,4.728815556,2024-06-05 15:40:10.930624
18.97062449,-7.102795124,-4.550251484,4.761118889,2024-06-05 15:40:10.970624
19.01062449,-7.132705212,-4.540679932,4.731208801,2024-06-05 15:40:11.010624
19.05062449,-7.133901596,-4.555037022,4.689334393,2024-06-05 15:40:11.050624
19.09062449,-7.197311401,-4.568197727,4.696512699,2024-06-05 15:40:11.090624
19.13062449,-7.205686092,-4.613661289,4.678267479,2024-06-05 15:40:11.130624
19.17062449,-7.131508827,-4.626821518,4.779065132,2024-06-05 15:40:11.170624
19.21062449,-7.106384277,-4.642374992,4.788636208,2024-06-05 15:40:11.210624
19.25062449,-6.992425919,-4.588536739,4.799404144,2024-06-05 15:40:11.250624
19.29062449,-7.021139622,-4.586143494,4.828117847,2024-06-05 15:40:11.290624
19.33062449,-7.010372162,-4.589733124,4.84845686,2024-06-05 15:40:11.330624
19.37062449,-7.006783009,-4.537090778,4.84845686,2024-06-05 15:40:11.370624
19.41062449,-7.006783009,-4.537090778,4.84845686,2024-06-05 15:40:11.410624
19.45062449,-7.006783009,-4.537090778,4.84845686,2024-06-05 15:40:11.450624
19.49062449,-7.006783009,-4.537090778,4.84845686,2024-06-05 15:40:11.490624
19.53062449,-7.006783009,-4.537090778,4.84845686,2024-06-05 15:40:11.530624
19.57062449,-7.006783009,-4.537090778,4.84845686,2024-06-05 15:40:11.570624
19.61062449,-7.073781967,-4.561018944,4.825725079,2024-06-05 15:40:11.610624
19.65062449,-7.082156658,-4.588536739,4.82333231,2024-06-05 15:40:11.650624
19.69062449,-7.129116058,-4.58255434,4.775475979,2024-06-05 15:40:11.690624
19.73062449,-7.136294365,-4.526323318,4.767100811,2024-06-05 15:40:11.730624
19.77062449,-7.16022253,-4.561018944,4.762315273,2024-06-05 15:40:11.770624
19.81062449,-7.148258686,-4.521537304,4.712066174,2024-06-05 15:40:11.810624
19.85062449,-7.16022253,-4.47009182,4.727619171,2024-06-05 15:40:11.850624
19.89062449,-7.147062302,-4.489234447,4.737190723,2024-06-05 15:40:11.890624
19.93062449,-7.098009109,-4.516751766,4.785047054,2024-06-05 15:40:11.930624
19.97062449,-7.080960274,-4.543072701,4.807778835,2024-06-05 15:40:11.970624
20.01062449,-7.092027187,-4.528716087,4.800600529,2024-06-05 15:40:12.010624
20.05062449,-7.080960274,-4.508377075,4.776672363,2024-06-05 15:40:12.050624
20.09062449,-7.100401878,-4.502394676,4.793421745,2024-06-05 15:40:12.090624
20.13062449,-7.145865917,-4.525126934,4.776672363,2024-06-05 15:40:12.130624
20.17062449,-7.129116058,-4.529912472,4.752744198,2024-06-05 15:40:12.170624
20.21062449,-7.176972389,-4.568197727,4.739583492,2024-06-05 15:40:12.210624
20.25062449,-7.141079903,-4.547858715,4.703691006,2024-06-05 15:40:12.250624
20.29062449,-7.165008068,-4.538287163,4.738387108,2024-06-05 15:40:12.290624
20.33062449,-7.113562584,-4.531108856,4.75872612,2024-06-05 15:40:12.330624
20.37062449,-7.095616341,-4.488038063,4.775475979,2024-06-05 15:40:12.370624
20.41062449,-7.083353043,-4.508377075,4.788636208,2024-06-05 15:40:12.410624
20.45062449,-7.090531826,-4.529912472,4.824528694,2024-06-05 15:40:12.450624
20.49062449,-7.068996429,-4.514358997,4.792225361,2024-06-05 15:40:12.490624
20.53062449,-7.068996429,-4.514358997,4.792225361,2024-06-05 15:40:12.530624
20.57062449,-7.136294365,-4.550251484,4.753940582,2024-06-05 15:40:12.570624
20.61062449,-7.18534708,-4.552644253,4.702494621,2024-06-05 15:40:12.610624
20.65062449,-7.18893671,-4.553840637,4.690530777,2024-06-05 15:40:12.650624
20.69062449,-7.165008068,-4.523930073,4.728815556,2024-06-05 15:40:12.690624
20.73062449,-7.131508827,-4.521537304,4.751547337,2024-06-05 15:40:12.730624
20.77062449,-7.099205494,-4.525126934,4.765904427,2024-06-05 15:40:12.770624
20.81062449,-7.120740891,-4.537090778,4.786243439,2024-06-05 15:40:12.810624
20.85062449,-7.109973431,-4.514358997,4.793421745,2024-06-05 15:40:12.850624
20.89062449,-7.141079903,-4.526323318,4.777868748,2024-06-05 15:40:12.890624
20.93062449,-7.123134136,-4.526323318,4.755136967,2024-06-05 15:40:12.930624
20.97062449,-7.145865917,-4.537090778,4.750350952,2024-06-05 15:40:12.970624
21.01062449,-7.132705212,-4.541876316,4.735994339,2024-06-05 15:40:13.010624
21.05062449,-7.132705212,-4.541876316,4.735994339,2024-06-05 15:40:13.050624
21.09062449,-7.132705212,-4.541876316,4.735994339,2024-06-05 15:40:13.090624
21.13062449,-7.132705212,-4.541876316,4.735994339,2024-06-05 15:40:13.130624
21.17062449,-7.132705212,-4.541876316,4.735994339,2024-06-05 15:40:13.170624
21.21062449,-7.132705212,-4.541876316,4.735994339,2024-06-05 15:40:13.210624
21.25062449,-7.052246571,-4.485645294,4.804189682,2024-06-05 15:40:13.250624
21.29062449,-6.979265213,-4.433002949,4.802993298,2024-06-05 15:40:13.290624
21.33062449,-7.123134136,-4.511966228,4.789832592,2024-06-05 15:40:13.330624
21.37062449,-7.114758968,-4.494019985,4.746761799,2024-06-05 15:40:13.370624
21.41062449,-7.218846798,-4.467699051,4.669892311,2024-06-05 15:40:13.410624
21.45062449,-7.301399231,-4.551447868,4.696512699,2024-06-05 15:40:13.450624
21.49062449,-7.187740326,-4.556233406,4.659124851,2024-06-05 15:40:13.490624
21.53062449,-7.227221489,-4.601696968,4.690530777,2024-06-05 15:40:13.530624
21.57062449,-7.084549427,-4.651946545,4.601696968,2024-06-05 15:40:13.570624
21.61062449,-7.236793041,-4.69411993,4.739583492,2024-06-05 15:40:13.610624
21.65062449,-7.145865917,-4.510769844,4.67228508,2024-06-05 15:40:13.650624
21.69062449,-7.192525864,-4.522733688,4.710869789,2024-06-05 15:40:13.690624
21.73062449,-7.036693096,-4.507180691,4.724030018,2024-06-05 15:40:13.730624
21.77062449,-7.155436993,-4.477270126,4.727619171,2024-06-05 15:40:13.770624
21.81062449,-7.127919674,-4.490430832,4.752744198,2024-06-05 15:40:13.810624
21.85062449,-7.178168774,-4.588536739,4.70488739,2024-06-05 15:40:13.850624
21.89062449,-7.119544506,-4.59691143,4.726422787,2024-06-05 15:40:13.890624
21.93062449,-7.209275723,-4.643571377,4.716851711,2024-06-05 15:40:13.930624
21.97062449,-7.405786037,-5.138287544,5.029414177,2024-06-05 15:40:13.970624
22.01062449,-7.282256603,-5.07248497,5.011467934,2024-06-05 15:40:14.010624
22.05062449,-6.833303452,-4.129712582,4.745565414,2024-06-05 15:40:14.050624
22.09062449,-6.839285374,-4.051946163,4.79820776,2024-06-05 15:40:14.090624
22.13062449,-7.000801086,-4.304687977,4.747958183,2024-06-05 15:40:14.130624
22.17062449,-7.276274681,-4.30827713,4.556233406,2024-06-05 15:40:14.170624
22.21062449,-7.444071293,-4.353740692,4.274777889,2024-06-05 15:40:14.210624
22.25062449,-7.628617764,-4.461717129,4.171886444,2024-06-05 15:40:14.250624
22.29062449,-7.586444378,-4.357329845,4.371686935,2024-06-05 15:40:14.290624
22.33062449,-7.374679565,-4.277170658,4.594518661,2024-06-05 15:40:14.330624
22.37062449,-7.313363075,-4.241278172,4.668695927,2024-06-05 15:40:14.370624
22.41062449,-7.072585583,-4.226921082,4.691727161,2024-06-05 15:40:14.410624
22.45062449,-7.24995327,-4.345366001,4.724030018,2024-06-05 15:40:14.450624
22.49062449,-7.269095898,-4.352544308,4.650749683,2024-06-05 15:40:14.490624
22.53062449,-7.371089935,-4.278367043,4.544269085,2024-06-05 15:40:14.530624
22.57062449,-7.452445984,-4.261617184,4.510769844,2024-06-05 15:40:14.570624
22.61062449,-7.459624767,-4.307080746,4.429413795,2024-06-05 15:40:14.610624
22.65062449,-7.459624767,-4.307080746,4.429413795,2024-06-05 15:40:14.650624
22.69062449,-7.465606689,-4.431806564,4.389633179,2024-06-05 15:40:14.690624
22.73062449,-7.465606689,-4.431806564,4.389633179,2024-06-05 15:40:14.730624
22.77062449,-7.465606689,-4.431806564,4.389633179,2024-06-05 15:40:14.770624
22.81062449,-7.465606689,-4.431806564,4.389633179,2024-06-05 15:40:14.810624
22.85062449,-7.465606689,-4.431806564,4.389633179,2024-06-05 15:40:14.850624
22.89062449,-7.465606689,-4.431806564,4.389633179,2024-06-05 15:40:14.890624
22.93062449,-7.432106972,-4.35852623,4.61126852,2024-06-05 15:40:14.930624
22.97062449,-7.315756321,-4.224528313,4.479662895,2024-06-05 15:40:14.970624
23.01062449,-7.330112934,-4.311866283,4.485645294,2024-06-05 15:40:15.010624
23.05062449,-7.351648331,-4.286741734,4.466502666,2024-06-05 15:40:15.050624
23.09062449,-7.47398138,-4.278367043,4.396811485,2024-06-05 15:40:15.090624
23.13062449,-7.534998417,-4.33340168,4.334598064,2024-06-05 15:40:15.130624
23.17062449,-7.66092062,-4.466502666,4.427021027,2024-06-05 15:40:15.170624
23.21062449,-7.48833847,-4.601696968,4.468895435,2024-06-05 15:40:15.210624
23.25062449,-7.369893551,-4.559822559,4.576572418,2024-06-05 15:40:15.250624
23.29062449,-7.277471066,-4.356133461,4.60767889,2024-06-05 15:40:15.290624
23.33062449,-7.235596657,-4.393222332,4.74436903,2024-06-05 15:40:15.330624
23.37062449,-7.260721207,-4.402793884,4.641178608,2024-06-05 15:40:15.370624
23.41062449,-7.271489143,-4.449752808,4.628017902,2024-06-05 15:40:15.410624
23.45062449,-7.299006462,-4.39800787,4.574179649,2024-06-05 15:40:15.450624
23.49062449,-7.348059177,-4.41236496,4.528716087,2024-06-05 15:40:15.490624
23.53062449,-7.362715244,-4.49521637,4.57178688,2024-06-05 15:40:15.530624
23.57062449,-7.345666409,-4.550251484,4.534698009,2024-06-05 15:40:15.570624
23.61062449,-7.282256603,-4.623232365,4.559822559,2024-06-05 15:40:15.610624
23.65062449,-7.237989426,-4.666303158,4.653142929,2024-06-05 15:40:15.650624
23.69062449,-7.194918633,-4.635196686,4.690530777,2024-06-05 15:40:15.690624
23.73062449,-7.096812725,-4.558626175,4.737190723,2024-06-05 15:40:15.730624
23.77062449,-7.047461033,-4.538287163,4.816154003,2024-06-05 15:40:15.770624
23.81062449,-7.072585583,-4.538287163,4.794618607,2024-06-05 15:40:15.810624
23.85062449,-7.061817646,-4.526323318,4.79820776,2024-06-05 15:40:15.850624
23.89062449,-7.078567505,-4.575376034,4.810171604,2024-06-05 15:40:15.890624
23.93062449,-7.030711174,-4.547858715,4.840082169,2024-06-05 15:40:15.930624
23.97062449,-7.035496712,-4.489234447,4.846064091,2024-06-05 15:40:15.970624
24.01062449,-7.058228493,-4.462913513,4.853242397,2024-06-05 15:40:16.010624
24.05062449,-7.065407276,-4.478466511,4.850849628,2024-06-05 15:40:16.050624
24.09062449,-7.046264648,-4.447360039,4.879563808,2024-06-05 15:40:16.090624
24.13062449,-7.120740891,-4.492823601,4.889134884,2024-06-05 15:40:16.130624
24.17062449,-6.793522358,-4.880760193,5.177769184,2024-06-05 15:40:16.170624
24.21062449,-7.003193855,-4.539483547,5.066503048,2024-06-05 15:40:16.210624
24.25062449,-6.872784615,-4.599304199,5.141876698,2024-06-05 15:40:16.250624
24.29062449,-6.878767014,-4.393222332,5.133502007,2024-06-05 15:40:16.290624
24.33062449,-6.774380207,-4.482056141,5.175376415,2024-06-05 15:40:16.330624
24.37062449,-7.0151577,-4.452145576,5.060520649,2024-06-05 15:40:16.370624
24.41062449,-7.0151577,-4.452145576,5.060520649,2024-06-05 15:40:16.410624
24.45062449,-7.0151577,-4.452145576,5.060520649,2024-06-05 15:40:16.450624
24.49062449,-7.0151577,-4.452145576,5.060520649,2024-06-05 15:40:16.490624
24.53062449,-7.0151577,-4.452145576,5.060520649,2024-06-05 15:40:16.530624
24.57062449,-7.0151577,-4.452145576,5.060520649,2024-06-05 15:40:16.570624
24.61062449,-7.302595615,-4.326223373,4.728815556,2024-06-05 15:40:16.610624
24.65062449,-7.300202847,-4.250849247,4.759922504,2024-06-05 15:40:16.650624
24.69062449,-7.27866745,-4.238885403,4.78385067,2024-06-05 15:40:16.690624
24.73062449,-7.240382195,-4.319045067,4.789832592,2024-06-05 15:40:16.730624
24.77062449,-7.221239567,-4.37288332,4.750350952,2024-06-05 15:40:16.770624
24.81062449,-7.281060219,-4.427021027,4.756333351,2024-06-05 15:40:16.810624
24.85062449,-7.254739285,-4.41984272,4.738387108,2024-06-05 15:40:16.850624
24.89062449,-7.23918581,-4.427021027,4.731208801,2024-06-05 15:40:16.890624
24.93062449,-7.272685528,-4.400400639,4.725226402,2024-06-05 15:40:16.930624
24.97062449,-7.28943491,-4.332205296,4.724030018,2024-06-05 15:40:16.970624
25.01062449,-7.269095898,-4.295116425,4.727619171,2024-06-05 15:40:17.010624
25.05062449,-7.24995327,-4.305884361,4.75872612,2024-06-05 15:40:17.050624
25.09062449,-7.234400272,-4.319045067,4.771886349,2024-06-05 15:40:17.090624
25.13062449,-7.23918581,-4.301098824,4.800600529,2024-06-05 15:40:17.130624
25.17062449,-7.265506744,-4.352544308,4.774279594,2024-06-05 15:40:17.170624
25.21062449,-7.178168774,-4.375276089,4.786243439,2024-06-05 15:40:17.210624
25.25062449,-7.156633377,-4.408775806,4.802993298,2024-06-05 15:40:17.250624
25.29062449,-7.13509798,-4.433002949,4.799404144,2024-06-05 15:40:17.290624
25.33062449,-7.156633377,-4.464109898,4.820939541,2024-06-05 15:40:17.330624
25.37062449,-7.203293324,-4.44496727,4.78385067,2024-06-05 15:40:17.370624
25.41062449,-7.169794083,-4.405186653,4.759922504,2024-06-05 15:40:17.410624
25.45062449,-7.270292282,-4.377668858,4.764708042,2024-06-05 15:40:17.450624
25.49062449,-7.258328438,-4.328616142,4.740779877,2024-06-05 15:40:17.490624
25.53062449,-7.218846798,-4.346562386,4.745565414,2024-06-05 15:40:17.530624
25.57062449,-7.217650414,-4.302295208,4.782654285,2024-06-05 15:40:17.570624
25.61062449,-7.203293324,-4.301098824,4.818546772,2024-06-05 15:40:17.610624
25.65062449,-7.226025105,-4.41625309,4.871188641,2024-06-05 15:40:17.650624
25.69062449,-7.373483181,-4.551447868,4.846064091,2024-06-05 15:40:17.690624
25.73062449,-7.121937275,-4.380061626,4.759922504,2024-06-05 15:40:17.730624
25.77062449,-7.123134136,-4.319045067,4.759922504,2024-06-05 15:40:17.770624
25.81062449,-7.194918633,-4.35852623,4.746761799,2024-06-05 15:40:17.810624
25.85062449,-7.246364117,-4.43061018,4.767100811,2024-06-05 15:40:17.850624
25.89062449,-7.308577538,-4.462913513,4.734797955,2024-06-05 15:40:17.890624
25.93062449,-7.28943491,-4.32263422,4.707280159,2024-06-05 15:40:17.930624
25.97062449,-7.209275723,-4.259224415,4.73360157,2024-06-05 15:40:17.970624
26.01062449,-7.227221489,-4.240081787,4.811367989,2024-06-05 15:40:18.010624
26.05062449,-7.227221489,-4.240081787,4.811367989,2024-06-05 15:40:18.050624
26.09062449,-7.227221489,-4.240081787,4.811367989,2024-06-05 15:40:18.090624
26.13062449,-7.227221489,-4.240081787,4.811367989,2024-06-05 15:40:18.130624
26.17062449,-7.227221489,-4.240081787,4.811367989,2024-06-05 15:40:18.170624
26.21062449,-7.227221489,-4.240081787,4.811367989,2024-06-05 15:40:18.210624
26.25062449,-7.187740326,-4.409972191,4.794618607,2024-06-05 15:40:18.250624
26.29062449,-7.241578579,-4.394418716,4.746761799,2024-06-05 15:40:18.290624
26.33062449,-7.282256603,-4.310669899,4.671088696,2024-06-05 15:40:18.330624
26.37062449,-7.263113976,-4.265206337,4.728815556,2024-06-05 15:40:18.370624
26.41062449,-7.297810078,-4.202992916,4.706083775,2024-06-05 15:40:18.410624
26.45062449,-7.267899513,-4.183850288,4.702494621,2024-06-05 15:40:18.450624
26.49062449,-7.27866745,-4.22931385,4.69411993,2024-06-05 15:40:18.490624
26.53062449,-7.288238525,-4.281956196,4.722833633,2024-06-05 15:40:18.530624
26.57062449,-7.331309319,-4.371686935,4.738387108,2024-06-05 15:40:18.570624
26.61062449,-7.330112934,-4.240081787,4.70488739,2024-06-05 15:40:18.610624
26.65062449,-7.352844715,-4.168296814,4.683351994,2024-06-05 15:40:18.650624
26.69062449,-7.313363075,-4.228117466,4.651946545,2024-06-05 15:40:18.690624
26.73062449,-7.334898949,-4.255635262,4.639982224,2024-06-05 15:40:18.730624
26.77062449,-7.302595615,-4.309473515,4.639982224,2024-06-05 15:40:18.770624
26.81062449,-7.380661488,-4.421039104,4.648356915,2024-06-05 15:40:18.810624
26.85062449,-7.352844715,-4.466502666,4.685744762,2024-06-05 15:40:18.850624
26.89062449,-7.355237484,-4.478466511,4.716851711,2024-06-05 15:40:18.890624
26.93062449,-7.304988384,-4.41625309,4.737190723,2024-06-05 15:40:18.930624
26.97062449,-7.226025105,-4.350151539,4.698905468,2024-06-05 15:40:18.970624
27.01062449,-7.21406126,-4.334598064,4.706083775,2024-06-05 15:40:19.010624
27.05062449,-7.241578579,-4.413561344,4.745565414,2024-06-05 15:40:19.050624
27.09062449,-7.265506744,-4.37288332,4.777868748,2024-06-05 15:40:19.090624
27.13062449,-7.208079338,-4.334598064,4.775475979,2024-06-05 15:40:19.130624
27.17062449,-7.200900555,-4.35852623,4.752744198,2024-06-05 15:40:19.170624
27.21062449,-7.216454029,-4.39800787,4.759922504,2024-06-05 15:40:19.210624
27.25062449,-7.212864876,-4.386044025,4.752744198,2024-06-05 15:40:19.250624
27.29062449,-7.251150131,-4.390829563,4.720440865,2024-06-05 15:40:19.290624
27.33062449,-7.23918581,-4.392025948,4.718048096,2024-06-05 15:40:19.330624
27.37062449,-7.269095898,-4.395615101,4.731208801,2024-06-05 15:40:19.370624
27.41062449,-7.230811119,-4.374079704,4.739583492,2024-06-05 15:40:19.410624
27.45062449,-7.198507786,-4.381258488,4.764708042,2024-06-05 15:40:19.450624
27.49062449,-7.165008068,-4.368097782,4.771886349,2024-06-05 15:40:19.490624
27.53062449,-7.194918633,-4.406383038,4.779065132,2024-06-05 15:40:19.530624
27.57062449,-7.233203888,-4.390829563,4.745565414,2024-06-05 15:40:19.570624
27.61062449,-7.290631294,-4.384847641,4.691727161,2024-06-05 15:40:19.610624
27.65062449,-7.307381153,-4.383651257,4.663910389,2024-06-05 15:40:19.650624
27.69062449,-7.307381153,-4.383651257,4.663910389,2024-06-05 15:40:19.690624
27.73062449,-7.307381153,-4.383651257,4.663910389,2024-06-05 15:40:19.730624
27.77062449,-7.307381153,-4.383651257,4.663910389,2024-06-05 15:40:19.770624
27.81062449,-7.307381153,-4.383651257,4.663910389,2024-06-05 15:40:19.810624
27.85062449,-7.307381153,-4.383651257,4.663910389,2024-06-05 15:40:19.850624
27.89062449,-7.307381153,-4.383651257,4.663910389,2024-06-05 15:40:19.890624
27.93062449,-7.206882477,-4.376472473,4.755136967,2024-06-05 15:40:19.930624
27.97062449,-7.198507786,-4.352544308,4.763511658,2024-06-05 15:40:19.970624
28.01062449,-7.198507786,-4.352544308,4.763511658,2024-06-05 15:40:20.010624
28.05062449,-7.254739285,-4.389633179,4.740779877,2024-06-05 15:40:20.050624
28.09062449,-7.222435951,-4.390829563,4.74436903,2024-06-05 15:40:20.090624
28.13062449,-7.21406126,-4.396811485,4.776672363,2024-06-05 15:40:20.130624
28.17062449,-7.182954311,-4.409972191,4.791028976,2024-06-05 15:40:20.170624
28.21062449,-7.167401314,-4.380061626,4.78385067,2024-06-05 15:40:20.210624
28.25062449,-7.236793041,-4.377668858,4.793421745,2024-06-05 15:40:20.250624
28.29062449,-7.211668491,-4.396811485,4.779065132,2024-06-05 15:40:20.290624
28.33062449,-7.197311401,-4.427021027,4.75872612,2024-06-05 15:40:20.330624
28.37062449,-7.198507786,-4.392025948,4.771886349,2024-06-05 15:40:20.370624
28.41062449,-7.186543941,-4.388436794,4.786243439,2024-06-05 15:40:20.410624
28.45062449,-7.181757927,-4.370490551,4.779065132,2024-06-05 15:40:20.450624
28.49062449,-7.190133095,-4.382454872,4.76949358,2024-06-05 15:40:20.490624
28.53062449,-7.235596657,-4.413561344,4.749154568,2024-06-05 15:40:20.530624
28.57062449,-7.206882477,-4.399204254,4.738387108,2024-06-05 15:40:20.570624
28.61062449,-7.229614735,-4.405186653,4.718048096,2024-06-05 15:40:20.610624
28.65062449,-7.24995327,-4.409972191,4.73001194,2024-06-05 15:40:20.650624
28.69062449,-7.220043182,-4.364508629,4.76949358,2024-06-05 15:40:20.690624
28.73062449,-7.237989426,-4.363312244,4.792225361,2024-06-05 15:40:20.730624
28.77062449,-7.176972389,-4.368097782,4.757529736,2024-06-05 15:40:20.770624
28.81062449,-7.223632336,-4.437788486,4.774279594,2024-06-05 15:40:20.810624
28.85062449,-7.18534708,-4.450949192,4.745565414,2024-06-05 15:40:20.850624
28.89062449,-7.176972389,-4.441378117,4.777868748,2024-06-05 15:40:20.890624
28.93062449,-7.24995327,-4.417449474,4.747958183,2024-06-05 15:40:20.930624
28.97062449,-7.215257645,-4.394418716,4.700101852,2024-06-05 15:40:20.970624
29.01062449,-7.279863834,-4.396811485,4.684548378,2024-06-05 15:40:21.010624
29.05062449,-7.295417309,-4.38724041,4.681856632,2024-06-05 15:40:21.050624
29.09062449,-7.281060219,-4.365705013,4.680660248,2024-06-05 15:40:21.090624
29.13062449,-7.270292282,-4.414757729,4.734797955,2024-06-05 15:40:21.130624
29.17062449,-7.290631294,-4.601696968,4.971986294,2024-06-05 15:40:21.170624
29.21062449,-7.245167732,-4.813760757,5.229514122,2024-06-05 15:40:21.210624
29.25062449,-7.245167732,-4.874777794,5.391029358,2024-06-05 15:40:21.250624
29.29062449,-7.533802032,-5.060520649,5.478367329,2024-06-05 15:40:21.290624
29.33062449,-7.033103943,-3.880859137,4.262813568,2024-06-05 15:40:21.330624
29.37062449,-6.658328056,-3.136990547,4.056731701,2024-06-05 15:40:21.370624
29.41062449,-6.658328056,-3.136990547,4.056731701,2024-06-05 15:40:21.410624
29.45062449,-6.658328056,-3.136990547,4.056731701,2024-06-05 15:40:21.450624
29.49062449,-6.658328056,-3.136990547,4.056731701,2024-06-05 15:40:21.490624
29.53062449,-6.658328056,-3.136990547,4.056731701,2024-06-05 15:40:21.530624
29.57062449,-7.885846138,-4.442574501,4.133302212,2024-06-05 15:40:21.570624
29.61062449,-7.778169155,-4.228117466,4.079463482,2024-06-05 15:40:21.610624
29.65062449,-7.485945702,-4.147658825,4.213760853,2024-06-05 15:40:21.650624
29.69062449,-7.371089935,-4.15633297,4.275974274,2024-06-05 15:40:21.690624
29.73062449,-7.489534855,-4.246063709,4.275974274,2024-06-05 15:40:21.730624
29.77062449,-7.517052174,-4.259224415,4.271188259,2024-06-05 15:40:21.770624
29.81062449,-7.560122967,-4.198207378,4.128516197,2024-06-05 15:40:21.810624
29.85062449,-7.634599686,-4.314259052,4.07348156,2024-06-05 15:40:21.850624
29.89062449,-7.600800991,-4.29392004,4.007678986,2024-06-05 15:40:21.890624
29.93062449,-7.748258591,-4.374079704,4.017250061,2024-06-05 15:40:21.930624
29.97062449,-7.854739666,-4.422235489,3.910769463,2024-06-05 15:40:21.970624
30.01062449,-7.776972771,-4.262813568,3.821935892,2024-06-05 15:40:22.010624
30.05062449,-7.885846138,-4.252045631,3.759722471,2024-06-05 15:40:22.050624
30.09062449,-7.914859295,-4.321437836,3.829114437,2024-06-05 15:40:22.090624
30.13062449,-7.768597603,-4.360919476,3.919144392,2024-06-05 15:40:22.130624
30.17062449,-8.08953476,-4.620839596,3.903591156,2024-06-05 15:40:22.170624
30.21062449,-7.962715626,-4.446163654,4.013660908,2024-06-05 15:40:22.210624
30.25062449,-7.588837147,-4.246063709,4.007678986,2024-06-05 15:40:22.250624
30.29062449,-7.57806921,-4.264009953,4.126123428,2024-06-05 15:40:22.290624
30.33062449,-7.55294466,-4.301098824,4.248456478,2024-06-05 15:40:22.330624
30.37062449,-7.665706635,-4.462913513,4.117748737,2024-06-05 15:40:22.370624
30.41062449,-7.568498135,-4.62203598,4.133302212,2024-06-05 15:40:22.410624
30.45062449,-7.741080284,-4.641178608,3.983750582,2024-06-05 15:40:22.450624
30.49062449,-7.89930582,-4.486841679,4.000500202,2024-06-05 15:40:22.490624
30.53062449,-7.861917973,-4.374079704,3.932304859,2024-06-05 15:40:22.530624
30.57062449,-7.788936615,-4.325026989,4.03399992,2024-06-05 15:40:22.570624
30.61062449,-7.587640762,-4.158725739,3.956233025,2024-06-05 15:40:22.610624
30.65062449,-7.477570534,-4.305884361,4.26879549,2024-06-05 15:40:22.650624
30.69062449,-7.432106972,-4.344169617,4.279563427,2024-06-05 15:40:22.690624
30.73062449,-7.44048214,-4.433002949,4.29750967,2024-06-05 15:40:22.730624
30.77062449,-7.618747234,-4.519144535,4.234099865,2024-06-05 15:40:22.770624
30.81062449,-7.51346302,-4.477270126,4.271188259,2024-06-05 15:40:22.810624
30.85062449,-7.539783955,-4.409972191,4.168296814,2024-06-05 15:40:22.850624
30.89062449,-7.395018578,-4.327419758,4.135694981,2024-06-05 15:40:22.890624
30.93062449,-7.514659405,-4.396811485,4.161118507,2024-06-05 15:40:22.930624
30.97062449,-7.557730198,-4.41625309,4.175475597,2024-06-05 15:40:22.970624
31.01062449,-7.485945702,-4.549055099,4.24367094,2024-06-05 15:40:23.010624
31.05062449,-7.485945702,-4.549055099,4.24367094,2024-06-05 15:40:23.050624
31.09062449,-7.485945702,-4.549055099,4.24367094,2024-06-05 15:40:23.090624
31.13062449,-7.485945702,-4.549055099,4.24367094,2024-06-05 15:40:23.130624
31.17062449,-7.258328438,-4.378865242,4.63639307,2024-06-05 15:40:23.170624
31.21062449,-7.258328438,-4.378865242,4.63639307,2024-06-05 15:40:23.210624
31.25062449,-7.324131012,-4.489234447,4.84845686,2024-06-05 15:40:23.250624
31.29062449,-7.295417309,-4.393222332,4.669892311,2024-06-05 15:40:23.290624
31.33062449,-7.198507786,-4.514358997,4.788636208,2024-06-05 15:40:23.330624
31.37062449,-7.300202847,-4.458127499,4.793421745,2024-06-05 15:40:23.370624
31.41062449,-7.170990467,-4.405186653,4.743172646,2024-06-05 15:40:23.410624
31.45062449,-7.133901596,-4.29392004,4.842474937,2024-06-05 15:40:23.450624
31.49062449,-7.180561543,-4.246063709,4.813760757,2024-06-05 15:40:23.490624
31.53062449,-7.115955353,-4.405186653,4.774279594,2024-06-05 15:40:23.530624
31.57062449,-7.137490749,-4.618446827,4.873581409,2024-06-05 15:40:23.570624
31.61062449,-7.168597698,-4.443770885,4.800600529,2024-06-05 15:40:23.610624
31.65062449,-7.138687134,-4.449752808,4.78385067,2024-06-05 15:40:23.650624
31.69062449,-7.198507786,-4.371686935,4.866403103,2024-06-05 15:40:23.690624
31.73062449,-7.02951479,-4.471288204,4.812564373,2024-06-05 15:40:23.730624
31.77062449,-7.246364117,-4.29392004,4.806582451,2024-06-05 15:40:23.770624
31.81062449,-7.258328438,-4.187439442,4.751547337,2024-06-05 15:40:23.810624
31.85062449,-7.258328438,-4.187439442,4.751547337,2024-06-05 15:40:23.850624
31.89062449,-7.402196884,-4.187439442,4.556233406,2024-06-05 15:40:23.890624
31.93062449,-7.530212879,-4.235296249,4.535894394,2024-06-05 15:40:23.930624
31.97062449,-7.580461979,-4.265206337,4.490430832,2024-06-05 15:40:23.970624
32.01062449,-7.49910593,-4.273581028,4.394418716,2024-06-05 15:40:24.010624
32.05062449,-7.584051132,-4.389633179,4.428217411,2024-06-05 15:40:24.050624
32.09062449,-7.524230957,-4.331008911,4.428217411,2024-06-05 15:40:24.090624
32.13062449,-7.512266636,-4.307080746,4.491627216,2024-06-05 15:40:24.130624
32.17062449,-7.422535896,-4.284348965,4.551447868,2024-06-05 15:40:24.170624
32.21062449,-7.35763073,-4.206582069,4.598107815,2024-06-05 15:40:24.210624
32.25062449,-7.32891655,-4.19581461,4.696512699,2024-06-05 15:40:24.250624
32.29062449,-7.281060219,-4.206582069,4.732405186,2024-06-05 15:40:24.290624
32.33062449,-7.295417309,-4.236492634,4.740779877,2024-06-05 15:40:24.330624
32.37062449,-7.265506744,-4.213760853,4.70488739,2024-06-05 15:40:24.370624
32.41062449,-7.3540411,-4.252045631,4.685744762,2024-06-05 15:40:24.410624
32.45062449,-7.351648331,-4.246063709,4.657928467,2024-06-05 15:40:24.450624
32.49062449,-7.445267677,-4.284348965,4.641178608,2024-06-05 15:40:24.490624
32.53062449,-7.49910593,-4.344169617,4.623232365,2024-06-05 15:40:24.530624
32.57062449,-7.548159122,-4.446163654,4.677071095,2024-06-05 15:40:24.570624
32.61062449,-7.371089935,-4.309473515,4.720440865,2024-06-05 15:40:24.610624
32.65062449,-7.209275723,-4.133302212,4.684548378,2024-06-05 15:40:24.650624
32.69062449,-7.209275723,-4.133302212,4.684548378,2024-06-05 15:40:24.690624
32.73062449,-7.209275723,-4.133302212,4.684548378,2024-06-05 15:40:24.730624
32.77062449,-7.209275723,-4.133302212,4.684548378,2024-06-05 15:40:24.770624
32.81062449,-7.209275723,-4.133302212,4.684548378,2024-06-05 15:40:24.810624
32.85062449,-7.209275723,-4.133302212,4.684548378,2024-06-05 15:40:24.850624
32.89062449,-7.209275723,-4.133302212,4.684548378,2024-06-05 15:40:24.890624
32.93062449,-7.481160164,-4.158725739,4.551447868,2024-06-05 15:40:24.930624
32.97062449,-7.434499741,-4.141676903,4.614857674,2024-06-05 15:40:24.970624
33.01062449,-7.445267677,-4.191029072,4.630411148,2024-06-05 15:40:25.010624
33.05062449,-7.439285755,-4.179064751,4.620839596,2024-06-05 15:40:25.050624
33.09062449,-7.453642368,-4.142873287,4.605286121,2024-06-05 15:40:25.090624
33.13062449,-7.438089371,-4.150351048,4.606482506,2024-06-05 15:40:25.130624
33.17062449,-7.433303356,-4.145266056,4.608875751,2024-06-05 15:40:25.170624
33.21062449,-7.454838753,-4.175475597,4.589733124,2024-06-05 15:40:25.210624
33.25062449,-7.470392227,-4.168296814,4.599304199,2024-06-05 15:40:25.250624
33.29062449,-7.451249599,-4.14646244,4.594518661,2024-06-05 15:40:25.290624
33.33062449,-7.478767395,-4.186243057,4.58255434,2024-06-05 15:40:25.330624
33.37062449,-7.444071293,-4.168296814,4.60767889,2024-06-05 15:40:25.370624
33.41062449,-7.467999458,-4.182653904,4.598107815,2024-06-05 15:40:25.410624
33.45062449,-7.445267677,-4.169493675,4.587339878,2024-06-05 15:40:25.450624
33.49062449,-7.457231998,-4.162314892,4.613661289,2024-06-05 15:40:25.490624
33.53062449,-7.435696602,-4.150351048,4.604089737,2024-06-05 15:40:25.530624
33.57062449,-7.433303356,-4.144069672,4.605286121,2024-06-05 15:40:25.570624
33.61062449,-7.442874908,-4.171886444,4.60767889,2024-06-05 15:40:25.610624
33.65062449,-7.438089371,-4.176671982,4.604089737,2024-06-05 15:40:25.650624
33.69062449,-7.466803074,-4.18145752,4.612464905,2024-06-05 15:40:25.690624
33.73062449,-7.441678524,-4.173082829,4.592125893,2024-06-05 15:40:25.730624
33.77062449,-7.460821152,-4.150351048,4.586143494,2024-06-05 15:40:25.770624
33.77062449,-7.460821152,-4.150351048,4.586143494,2024-06-05 15:40:25.770624
33.85062449,-7.584051132,-4.331008911,4.692923546,2024-06-05 15:40:25.850624
33.89062449,-7.434499741,-4.212564468,4.665106773,2024-06-05 15:40:25.890624
33.93062449,-7.283452988,-4.053142548,4.602893353,2024-06-05 15:40:25.930624
33.97062449,-7.368697166,-4.053142548,4.581357956,2024-06-05 15:40:25.970624
34.01062449,-7.445267677,-4.028017998,4.532305241,2024-06-05 15:40:26.010624
34.05062449,-7.490731239,-4.150351048,4.544269085,2024-06-05 15:40:26.050624
34.09062449,-7.544569969,-4.17069006,4.539483547,2024-06-05 15:40:26.090624
34.13062449,-7.482356548,-4.139284134,4.543072701,2024-06-05 15:40:26.130624
34.17062449,-7.442874908,-4.128516197,4.576572418,2024-06-05 15:40:26.170624
34.21062449,-7.451249599,-4.171886444,4.576572418,2024-06-05 15:40:26.210624
34.25062449,-7.470392227,-4.212564468,4.634000301,2024-06-05 15:40:26.250624
34.29062449,-7.496713161,-4.206582069,4.626821518,2024-06-05 15:40:26.290624
34.33062449,-7.432106972,-4.134498596,4.614857674,2024-06-05 15:40:26.330624
34.37062449,-7.432106972,-4.134498596,4.614857674,2024-06-05 15:40:26.370624
34.41062449,-7.432106972,-4.134498596,4.614857674,2024-06-05 15:40:26.410624
34.45062449,-7.432106972,-4.134498596,4.614857674,2024-06-05 15:40:26.450624
34.49062449,-7.432106972,-4.134498596,4.614857674,2024-06-05 15:40:26.490624
34.53062449,-7.432106972,-4.134498596,4.614857674,2024-06-05 15:40:26.530624
34.57062449,-7.489534855,-4.134498596,4.574179649,2024-06-05 15:40:26.570624
34.61062449,-7.445267677,-4.138087749,4.575376034,2024-06-05 15:40:26.610624
34.65062449,-7.452445984,-4.155136585,4.587339878,2024-06-05 15:40:26.650624
34.69062449,-7.500302792,-4.18145752,4.576572418,2024-06-05 15:40:26.690624
34.73062449,-7.445267677,-4.144069672,4.584947109,2024-06-05 15:40:26.730624
34.77062449,-7.452445984,-4.142873287,4.586143494,2024-06-05 15:40:26.770624
34.81062449,-7.435696602,-4.161118507,4.608875751,2024-06-05 15:40:26.810624
34.85062449,-7.434499741,-4.168296814,4.61126852,2024-06-05 15:40:26.850624
34.89062449,-7.434499741,-4.180261135,4.619643211,2024-06-05 15:40:26.890624
34.93062449,-7.484749317,-4.161118507,4.598107815,2024-06-05 15:40:26.930624
34.97062449,-7.393822193,-3.983750582,4.374079704,2024-06-05 15:40:26.970624
35.01062449,-7.505088329,-3.962215185,4.414757729,2024-06-05 15:40:27.010624
35.05062449,-7.584051132,-4.223331928,4.561018944,2024-06-05 15:40:27.050624
35.09062449,-7.403393269,-4.356133461,4.818546772,2024-06-05 15:40:27.090624
35.13062449,-7.248756886,-4.477270126,5.103591442,2024-06-05 15:40:27.130624
35.17062449,-7.206882477,-4.371686935,4.985146999,2024-06-05 15:40:27.170624
35.21062449,-7.159026146,-4.188635826,4.886742115,2024-06-05 15:40:27.210624
35.25062449,-7.397411346,-3.921537161,4.504787922,2024-06-05 15:40:27.250624
35.29062449,-7.580461979,-3.967000723,4.388436794,2024-06-05 15:40:27.290624
35.33062449,-7.582854748,-4.224528313,4.577768803,2024-06-05 15:40:27.330624
35.37062449,-7.464410305,-4.231706619,4.73001194,2024-06-05 15:40:27.370624
35.41062449,-7.350451946,-4.138087749,4.767100811,2024-06-05 15:40:27.410624
35.45062449,-7.321738243,-4.03399992,4.73001194,2024-06-05 15:40:27.450624
35.49062449,-7.303792,-4.109373569,4.75872612,2024-06-05 15:40:27.490624
35.53062449,-7.28943491,-4.226921082,4.807778835,2024-06-05 15:40:27.530624
35.57062449,-7.321738243,-4.254438877,4.782654285,2024-06-05 15:40:27.570624
35.61062449,-7.393822193,-4.198207378,4.696512699,2024-06-05 15:40:27.610624
35.65062449,-7.38664341,-4.161118507,4.673481941,2024-06-05 15:40:27.650624
35.69062449,-7.441678524,-4.187439442,4.691727161,2024-06-05 15:40:27.690624
35.73062449,-7.421339512,-4.175475597,4.654339314,2024-06-05 15:40:27.730624
35.77062449,-7.44048214,-4.155136585,4.639982224,2024-06-05 15:40:27.770624
35.81062449,-7.444071293,-4.158725739,4.692923546,2024-06-05 15:40:27.810624
35.85062449,-7.444071293,-4.158725739,4.692923546,2024-06-05 15:40:27.850624
35.89062449,-7.351648331,-4.150351048,4.710869789,2024-06-05 15:40:27.890624
35.93062449,-7.352844715,-4.151547432,4.732405186,2024-06-05 15:40:27.930624
35.97062449,-7.348059177,-4.153940201,4.73360157,2024-06-05 15:40:27.970624
36.01062449,-7.374679565,-4.173082829,4.725226402,2024-06-05 15:40:28.010624
36.05062449,-7.374679565,-4.173082829,4.725226402,2024-06-05 15:40:28.050624
36.09062449,-7.374679565,-4.173082829,4.725226402,2024-06-05 15:40:28.090624
36.13062449,-7.374679565,-4.173082829,4.725226402,2024-06-05 15:40:28.130624
36.17062449,-7.374679565,-4.173082829,4.725226402,2024-06-05 15:40:28.170624
36.21062449,-7.374679565,-4.173082829,4.725226402,2024-06-05 15:40:28.210624
36.25062449,-7.393822193,-4.171886444,4.697709084,2024-06-05 15:40:28.250624
36.29062449,-7.374679565,-4.171886444,4.712066174,2024-06-05 15:40:28.290624
36.33062449,-7.373483181,-4.168296814,4.713262558,2024-06-05 15:40:28.330624
36.37062449,-7.367500782,-4.161118507,4.712066174,2024-06-05 15:40:28.370624
36.41062449,-7.378268719,-4.169493675,4.698905468,2024-06-05 15:40:28.410624
36.45062449,-7.380661488,-4.153940201,4.689334393,2024-06-05 15:40:28.450624
36.49062449,-7.409375191,-4.158725739,4.683351994,2024-06-05 15:40:28.490624
36.53062449,-7.397411346,-4.162314892,4.692923546,2024-06-05 15:40:28.530624
36.57062449,-7.395018578,-4.18145752,4.701298237,2024-06-05 15:40:28.570624
36.61062449,-7.383054256,-4.16710043,4.70488739,2024-06-05 15:40:28.610624
36.65062449,-7.383054256,-4.16710043,4.70488739,2024-06-05 15:40:28.650624
36.69062449,-7.385447025,-4.17069006,4.690530777,2024-06-05 15:40:28.690624
36.73062449,-7.392625332,-4.168296814,4.69411993,2024-06-05 15:40:28.730624
36.77062449,-7.397411346,-4.155136585,4.688137531,2024-06-05 15:40:28.770624
36.81062449,-7.391428947,-4.174279213,4.690530777,2024-06-05 15:40:28.810624
36.85062449,-7.392625332,-4.161118507,4.680660248,2024-06-05 15:40:28.850624
36.89062449,-7.396214962,-4.180261135,4.710869789,2024-06-05 15:40:28.890624
36.93062449,-7.4010005,-4.155136585,4.695316315,2024-06-05 15:40:28.930624
36.97062449,-7.395018578,-4.163511276,4.691727161,2024-06-05 15:40:28.970624
37.01062449,-7.372286797,-4.140480518,4.695316315,2024-06-05 15:40:29.010624
37.05062449,-7.371089935,-4.153940201,4.707280159,2024-06-05 15:40:29.050624
37.09062449,-7.381857872,-4.186243057,4.700101852,2024-06-05 15:40:29.090624
37.13062449,-7.385447025,-4.165904045,4.700101852,2024-06-05 15:40:29.130624
37.17062449,-7.408178806,-4.176671982,4.714458942,2024-06-05 15:40:29.170624
37.21062449,-7.377072334,-4.159922123,4.692923546,2024-06-05 15:40:29.210624
37.25062449,-7.397411346,-4.150351048,4.698905468,2024-06-05 15:40:29.250624
37.29062449,-7.380661488,-4.163511276,4.689334393,2024-06-05 15:40:29.290624
37.33062449,-7.387839794,-4.173082829,4.701298237,2024-06-05 15:40:29.330624
37.37062449,-7.397411346,-4.179064751,4.695316315,2024-06-05 15:40:29.370624
37.41062449,-7.384250641,-4.171886444,4.684548378,2024-06-05 15:40:29.410624
37.45062449,-7.393822193,-4.173082829,4.69411993,2024-06-05 15:40:29.450624
37.49062449,-7.41176796,-4.175475597,4.689334393,2024-06-05 15:40:29.490624
37.53062449,-7.403393269,-4.16710043,4.684548378,2024-06-05 15:40:29.530624
37.57062449,-7.387839794,-4.169493675,4.706083775,2024-06-05 15:40:29.570624
37.61062449,-7.377072334,-4.163511276,4.695316315,2024-06-05 15:40:29.610624
37.65062449,-7.377072334,-4.16710043,4.707280159,2024-06-05 15:40:29.650624
37.69062449,-7.377072334,-4.16710043,4.707280159,2024-06-05 15:40:29.690624
37.73062449,-7.377072334,-4.16710043,4.707280159,2024-06-05 15:40:29.730624
37.77062449,-7.377072334,-4.16710043,4.707280159,2024-06-05 15:40:29.770624
37.81062449,-7.377072334,-4.16710043,4.707280159,2024-06-05 15:40:29.810624
37.85062449,-7.377072334,-4.16710043,4.707280159,2024-06-05 15:40:29.850624
37.89062449,-7.391428947,-4.169493675,4.690530777,2024-06-05 15:40:29.890624
37.93062449,-7.384250641,-4.186243057,4.707280159,2024-06-05 15:40:29.930624
37.97062449,-7.374679565,-4.182653904,4.685744762,2024-06-05 15:40:29.970624
38.01062449,-7.368697166,-4.174279213,4.695316315,2024-06-05 15:40:30.010624
38.05062449,-7.383054256,-4.168296814,4.695316315,2024-06-05 15:40:30.050624
38.09062449,-7.402196884,-4.168296814,4.678267479,2024-06-05 15:40:30.090624
38.13062449,-7.417750359,-4.163511276,4.708476543,2024-06-05 15:40:30.130624
38.17062449,-7.384250641,-4.15633297,4.707280159,2024-06-05 15:40:30.170624
38.21062449,-7.374679565,-4.150351048,4.697709084,2024-06-05 15:40:30.210624
38.25062449,-7.381857872,-4.152743816,4.696512699,2024-06-05 15:40:30.250624
38.29062449,-7.389036179,-4.163511276,4.715655327,2024-06-05 15:40:30.290624
38.33062449,-7.397411346,-4.163511276,4.712066174,2024-06-05 15:40:30.330624
38.37062449,-7.383054256,-4.185046673,4.692923546,2024-06-05 15:40:30.370624
38.41062449,-7.403393269,-4.18145752,4.67587471,2024-06-05 15:40:30.410624
38.45062449,-7.381857872,-4.152743816,4.655535698,2024-06-05 15:40:30.450624
38.49062449,-7.414160728,-4.180261135,4.69411993,2024-06-05 15:40:30.490624
38.53062449,-7.420143127,-4.208974838,4.690530777,2024-06-05 15:40:30.530624
38.57062449,-7.368697166,-4.147658825,4.660321236,2024-06-05 15:40:30.570624
38.61062449,-7.373483181,-4.151547432,4.689334393,2024-06-05 15:40:30.610624
38.65062449,-7.366304398,-4.159922123,4.716851711,2024-06-05 15:40:30.650624
38.69062449,-7.381857872,-4.180261135,4.714458942,2024-06-05 15:40:30.690624
38.73062449,-7.37587595,-4.192225456,4.706083775,2024-06-05 15:40:30.730624
38.77062449,-7.358827114,-4.16710043,4.677071095,2024-06-05 15:40:30.770624
38.81062449,-7.402196884,-4.182653904,4.688137531,2024-06-05 15:40:30.810624
38.85062449,-7.396214962,-4.171886444,4.679463863,2024-06-05 15:40:30.850624
38.89062449,-7.398607731,-4.171886444,4.698905468,2024-06-05 15:40:30.890624
38.93062449,-7.390232563,-4.164707661,4.674678326,2024-06-05 15:40:30.930624
38.97062449,-7.366304398,-4.15633297,4.67587471,2024-06-05 15:40:30.970624
39.01062449,-7.374679565,-4.19581461,4.710869789,2024-06-05 15:40:31.010624
39.05062449,-7.377072334,-4.177868366,4.720440865,2024-06-05 15:40:31.050624
39.09062449,-7.36151886,-4.202992916,4.724030018,2024-06-05 15:40:31.090624
39.13062449,-7.363911629,-4.234099865,4.715655327,2024-06-05 15:40:31.130624
39.17062449,-7.350451946,-4.247260094,4.726422787,2024-06-05 15:40:31.170624
39.21062449,-7.384250641,-4.254438877,4.732405186,2024-06-05 15:40:31.210624
39.25062449,-7.3540411,-4.200600147,4.702494621,2024-06-05 15:40:31.250624
39.29062449,-7.391428947,-4.225724697,4.745565414,2024-06-05 15:40:31.290624
39.33062449,-7.373483181,-4.230510235,4.75872612,2024-06-05 15:40:31.330624
39.37062449,-7.373483181,-4.230510235,4.75872612,2024-06-05 15:40:31.370624
39.41062449,-7.373483181,-4.230510235,4.75872612,2024-06-05 15:40:31.410624
39.45062449,-7.373483181,-4.230510235,4.75872612,2024-06-05 15:40:31.450624
39.49062449,-7.373483181,-4.230510235,4.75872612,2024-06-05 15:40:31.490624
39.53062449,-7.373483181,-4.230510235,4.75872612,2024-06-05 15:40:31.530624
39.57062449,-7.481160164,-4.18145752,4.650749683,2024-06-05 15:40:31.570624
39.61062449,-7.42612505,-4.142873287,4.618446827,2024-06-05 15:40:31.610624
39.65062449,-7.377072334,-4.147658825,4.674678326,2024-06-05 15:40:31.650624
39.69062449,-7.406982422,-4.189832687,4.710869789,2024-06-05 15:40:31.690624
39.73062449,-7.362715244,-4.175475597,4.720440865,2024-06-05 15:40:31.730624
39.77062449,-7.339684486,-4.165904045,4.724030018,2024-06-05 15:40:31.770624
39.81062449,-7.338488102,-4.163511276,4.709673405,2024-06-05 15:40:31.810624
39.85062449,-7.396214962,-4.171886444,4.690530777,2024-06-05 15:40:31.850624
39.89062449,-7.441678524,-4.159922123,4.689334393,2024-06-05 15:40:31.890624
39.93062449,-7.416553974,-4.165904045,4.660321236,2024-06-05 15:40:31.930624
39.97062449,-7.414160728,-4.186243057,4.66151762,2024-06-05 15:40:31.970624
40.01062449,-7.37587595,-4.197010994,4.677071095,2024-06-05 15:40:32.010624
40.05062449,-7.396214962,-4.185046673,4.701298237,2024-06-05 15:40:32.050624
40.09062449,-7.351648331,-4.151547432,4.698905468,2024-06-05 15:40:32.090624
40.13062449,-7.397411346,-4.14646244,4.71924448,2024-06-05 15:40:32.130624
40.17062449,-7.373483181,-4.171886444,4.707280159,2024-06-05 15:40:32.170624
40.21062449,-7.356434345,-4.123730659,4.692923546,2024-06-05 15:40:32.210624
40.25062449,-7.4010005,-4.176671982,4.703691006,2024-06-05 15:40:32.250624
40.29062449,-7.366304398,-4.180261135,4.691727161,2024-06-05 15:40:32.290624
40.33062449,-7.387839794,-4.180261135,4.690530777,2024-06-05 15:40:32.330624
40.37062449,-7.371089935,-4.163511276,4.689334393,2024-06-05 15:40:32.370624
40.41062449,-7.385447025,-4.17069006,4.681856632,2024-06-05 15:40:32.410624
40.45062449,-7.417750359,-4.18145752,4.683351994,2024-06-05 15:40:32.450624
40.49062449,-7.414160728,-4.185046673,4.674678326,2024-06-05 15:40:32.490624
40.53062449,-7.38664341,-4.151547432,4.685744762,2024-06-05 15:40:32.530624
40.57062449,-7.385447025,-4.159922123,4.697709084,2024-06-05 15:40:32.570624
40.61062449,-7.374679565,-4.175475597,4.696512699,2024-06-05 15:40:32.610624
40.65062449,-7.381857872,-4.176671982,4.697709084,2024-06-05 15:40:32.650624
40.69062449,-7.380661488,-4.162314892,4.709673405,2024-06-05 15:40:32.690624
40.73062449,-7.398607731,-4.14646244,4.700101852,2024-06-05 15:40:32.730624
40.77062449,-7.41176796,-4.157529354,4.673481941,2024-06-05 15:40:32.770624
40.81062449,-7.383054256,-4.173082829,4.696512699,2024-06-05 15:40:32.810624
40.85062449,-7.396214962,-4.188635826,4.712066174,2024-06-05 15:40:32.850624
40.89062449,-7.366304398,-4.169493675,4.688137531,2024-06-05 15:40:32.890624
40.93062449,-7.38664341,-4.180261135,4.706083775,2024-06-05 15:40:32.930624
40.97062449,-7.396214962,-4.187439442,4.684548378,2024-06-05 15:40:32.970624
41.01062449,-7.38664341,-4.141676903,4.686941147,2024-06-05 15:40:33.010624
41.05062449,-7.38664341,-4.141676903,4.686941147,2024-06-05 15:40:33.050624
41.09062449,-7.38664341,-4.141676903,4.686941147,2024-06-05 15:40:33.090624
41.13062449,-7.38664341,-4.141676903,4.686941147,2024-06-05 15:40:33.130624
41.17062449,-7.38664341,-4.141676903,4.686941147,2024-06-05 15:40:33.170624
41.21062449,-7.38664341,-4.141676903,4.686941147,2024-06-05 15:40:33.210624
41.25062449,-7.396214962,-4.165904045,4.686941147,2024-06-05 15:40:33.250624
41.29062449,-7.362715244,-4.150351048,4.688137531,2024-06-05 15:40:33.290624
41.33062449,-7.41535759,-4.163511276,4.681856632,2024-06-05 15:40:33.330624
41.37062449,-7.366304398,-4.171886444,4.697709084,2024-06-05 15:40:33.370624
41.41062449,-7.395018578,-4.18145752,4.713262558,2024-06-05 15:40:33.410624
41.45062449,-7.367500782,-4.176671982,4.696512699,2024-06-05 15:40:33.450624
41.49062449,-7.362715244,-4.176671982,4.695316315,2024-06-05 15:40:33.490624
41.53062449,-7.377072334,-4.168296814,4.700101852,2024-06-05 15:40:33.530624
41.57062449,-7.392625332,-4.174279213,4.695316315,2024-06-05 15:40:33.570624
41.61062449,-7.418946743,-4.174279213,4.689334393,2024-06-05 15:40:33.610624
41.65062449,-7.410571575,-4.180261135,4.706083775,2024-06-05 15:40:33.650624
41.69062449,-7.478767395,-4.240081787,4.756333351,2024-06-05 15:40:33.690624
41.73062449,-7.514659405,-4.269991875,4.822135925,2024-06-05 15:40:33.730624
41.77062449,-7.799704552,-4.241278172,4.610072136,2024-06-05 15:40:33.770624
41.81062449,-7.221239567,-3.860221148,4.188635826,2024-06-05 15:40:33.810624
41.85062449,-7.67527771,-3.884448528,4.486841679,2024-06-05 15:40:33.850624
41.89062449,-7.44048214,-4.267599106,4.452145576,2024-06-05 15:40:33.890624
41.93062449,-7.828418255,-4.589733124,4.459323883,2024-06-05 15:40:33.930624
41.97062449,-7.385447025,-4.574179649,4.846064091,2024-06-05 15:40:33.970624
42.01062449,-7.615158081,-4.417449474,4.468895435,2024-06-05 15:40:34.010624
42.05062449,-8.263314247,-4.272384644,4.201796532,2024-06-05 15:40:34.050624
42.09062449,-7.670492172,-3.536890984,4.054338932,2024-06-05 15:40:34.090624
42.13062449,-7.352844715,-3.731008768,4.041178226,2024-06-05 15:40:34.130624
42.17062449,-7.339684486,-3.95503664,4.513162613,2024-06-05 15:40:34.170624
42.21062449,-7.669295788,-3.517748356,3.882055521,2024-06-05 15:40:34.210624
42.25062449,-8.343473434,-3.330809116,3.667598963,2024-06-05 15:40:34.250624
42.29062449,-9.128020287,-4.120141506,4.393222332,2024-06-05 15:40:34.290624
42.33062449,-7.227221489,-3.888037682,4.788636208,2024-06-05 15:40:34.330624
42.37062449,-7.392625332,-3.122633457,3.698705673,2024-06-05 15:40:34.370624
42.41062449,-7.170990467,-3.901198149,4.220939159,2024-06-05 15:40:34.410624
42.45062449,-7.363911629,-3.608675718,4.188635826,2024-06-05 15:40:34.450624
42.49062449,-8.278866768,-4.012464523,5.131109238,2024-06-05 15:40:34.490624
42.53062449,-9.578469276,-5.193322659,4.15633297,2024-06-05 15:40:34.530624
42.57062449,-8.187939644,-3.454338551,4.746761799,2024-06-05 15:40:34.570624
42.61062449,-7.190133095,-2.853141785,4.01964283,2024-06-05 15:40:34.610624
42.65062449,-8.525627136,-3.58355093,4.123730659,2024-06-05 15:40:34.650624
42.69062449,-8.525627136,-3.58355093,4.123730659,2024-06-05 15:40:34.690624
42.73062449,-8.525627136,-3.58355093,4.123730659,2024-06-05 15:40:34.730624
42.77062449,-8.525627136,-3.58355093,4.123730659,2024-06-05 15:40:34.770624
42.81062449,-8.525627136,-3.58355093,4.123730659,2024-06-05 15:40:34.810624
42.85062449,-8.525627136,-3.58355093,4.123730659,2024-06-05 15:40:34.850624
42.89062449,-8.04287529,-2.285444736,3.766901016,2024-06-05 15:40:34.890624
42.93062449,-7.818847179,-2.21216464,3.673580885,2024-06-05 15:40:34.930624
42.97062449,-8.25254631,-2.396710873,3.824328899,2024-06-05 15:40:34.970624
43.01062449,-8.747262001,-2.615953445,4.109373569,2024-06-05 15:40:35.010624
43.05062449,-8.456234932,-2.300997972,4.002892971,2024-06-05 15:40:35.050624
43.09062449,-8.292027473,-2.348854542,4.186243057,2024-06-05 15:40:35.090624
43.13062449,-8.409276009,-2.32851553,4.161118507,2024-06-05 15:40:35.130624
43.17062449,-8.241778374,-2.249253273,4.042374611,2024-06-05 15:40:35.170624
43.21062449,-8.519644737,-2.292623281,3.928715706,2024-06-05 15:40:35.210624
43.25062449,-8.586644173,-2.209771633,4.042374611,2024-06-05 15:40:35.250624
43.29062449,-8.207082748,-2.032702923,4.139284134,2024-06-05 15:40:35.290624
43.33062449,-7.778169155,-1.913959026,4.175475597,2024-06-05 15:40:35.330624
43.37062449,-7.041478634,-1.572682738,3.941876173,2024-06-05 15:40:35.370624
43.41062449,-6.893123627,-1.645663738,4.151547432,2024-06-05 15:40:35.410624
43.45062449,-8.392526627,-2.822035313,4.513162613,2024-06-05 15:40:35.450624
43.49062449,-9.354440689,-3.970590115,5.117948532,2024-06-05 15:40:35.490624
43.53062449,-9.423832893,-4.488038063,5.892923832,2024-06-05 15:40:35.530624
43.57062449,-9.705288887,-4.688137531,5.382654667,2024-06-05 15:40:35.570624
43.61062449,-8.33150959,-3.260220766,4.201796532,2024-06-05 15:40:35.610624
43.65062449,-6.513263226,-1.910369754,3.727419376,2024-06-05 15:40:35.650624
43.69062449,-6.787540436,-2.157129526,4.311866283,2024-06-05 15:40:35.690624
43.73062449,-9.56770134,-3.827918053,5.389832973,2024-06-05 15:40:35.730624
43.77062449,-9.104091644,-3.086741209,4.413561344,2024-06-05 15:40:35.770624
43.81062449,-6.710970402,-1.737787485,4.235296249,2024-06-05 15:40:35.810624
43.85062449,-7.181757927,-1.968993902,3.987339735,2024-06-05 15:40:35.850624
43.89062449,-7.414160728,-2.133201361,4.120141506,2024-06-05 15:40:35.890624
43.93062449,-7.787740231,-2.533101797,4.983950615,2024-06-05 15:40:35.930624
43.97062449,-12.4109726,-6.130112648,6.321837425,2024-06-05 15:40:35.970624
44.01062449,-7.769794464,-3.05174613,4.102195263,2024-06-05 15:40:36.010624
44.05062449,-5.115555763,-1.080359459,3.919144392,2024-06-05 15:40:36.050624
44.09062449,-6.700202465,-1.83619225,3.873381615,2024-06-05 15:40:36.090624
44.13062449,-7.518248558,-2.445763826,4.280759811,2024-06-05 15:40:36.130624
44.17062449,-9.865906715,-4.007678986,5.949155331,2024-06-05 15:40:36.170624
44.21062449,-11.67458153,-4.852046013,4.832903385,2024-06-05 15:40:36.210624
44.25062449,-11.67458153,-4.852046013,4.832903385,2024-06-05 15:40:36.250624
44.29062449,-5.257031441,-1.533201098,3.817150354,2024-06-05 15:40:36.290624
44.33062449,-6.657131672,-2.255235434,4.226921082,2024-06-05 15:40:36.330624
44.37062449,-6.657131672,-2.255235434,4.226921082,2024-06-05 15:40:36.370624
44.41062449,-6.657131672,-2.255235434,4.226921082,2024-06-05 15:40:36.410624
44.45062449,-6.657131672,-2.255235434,4.226921082,2024-06-05 15:40:36.450624
44.49062449,-6.657131672,-2.255235434,4.226921082,2024-06-05 15:40:36.490624
44.53062449,-6.657131672,-2.255235434,4.226921082,2024-06-05 15:40:36.530624
44.57062449,-6.727719784,-1.985743642,4.16710043,2024-06-05 15:40:36.570624
44.61062449,-8.397312164,-3.031407118,4.973182678,2024-06-05 15:40:36.610624
44.65062449,-12.68166065,-5.933601856,6.002993584,2024-06-05 15:40:36.650624
44.69062449,-8.516056061,-3.504587889,4.458127499,2024-06-05 15:40:36.690624
44.73062449,-4.920241356,-1.392921925,3.914358854,2024-06-05 15:40:36.730624
44.77062449,-5.944369793,-1.676770449,3.972982883,2024-06-05 15:40:36.770624
44.81062449,-7.202096939,-2.403889418,4.606482506,2024-06-05 15:40:36.810624
44.85062449,-10.96540928,-4.643571377,5.683252811,2024-06-05 15:40:36.850624
44.89062449,-11.01924706,-4.336990833,4.659124851,2024-06-05 15:40:36.890624
44.93062449,-6.289534092,-2.185843468,4.547858715,2024-06-05 15:40:36.930624
44.97062449,-5.447260857,-1.624128342,3.935894251,2024-06-05 15:40:36.970624
45.01062449,-6.703791618,-2.209771633,4.346562386,2024-06-05 15:40:37.010624
45.05062449,-8.626125336,-2.972783089,4.939383984,2024-06-05 15:40:37.050624
45.09062449,-12.51894855,-5.678467274,5.745466232,2024-06-05 15:40:37.090624
45.13062449,-8.41047287,-3.587140322,4.417449474,2024-06-05 15:40:37.130624
45.17062449,-4.994718075,-1.335494161,4.04476738,2024-06-05 15:40:37.170624
45.21062449,-5.956333637,-1.77996099,4.111766815,2024-06-05 15:40:37.210624
45.25062449,-7.459624767,-2.478066921,4.575376034,2024-06-05 15:40:37.250624
45.29062449,-10.32114124,-3.83270359,5.466403484,2024-06-05 15:40:37.290624
45.33062449,-11.46850014,-4.708476543,4.905884743,2024-06-05 15:40:37.330624
45.37062449,-6.472585201,-2.036292076,4.466502666,2024-06-05 15:40:37.370624
45.41062449,-5.120341301,-1.444367528,4.055535316,2024-06-05 15:40:37.410624
45.45062449,-6.479763508,-2.088934183,4.314259052,2024-06-05 15:40:37.450624
45.49062449,-7.984251022,-2.847159863,4.816154003,2024-06-05 15:40:37.490624
45.53062449,-12.25185013,-5.843871117,5.934798241,2024-06-05 15:40:37.530624
45.57062449,-9.165108681,-4.110570431,4.683351994,2024-06-05 15:40:37.570624
45.61062449,-5.095216751,-1.520040631,4.438984871,2024-06-05 15:40:37.610624
45.65062449,-5.733502388,-1.870888233,4.060320854,2024-06-05 15:40:37.650624
45.69062449,-6.848856449,-2.360818624,4.521537304,2024-06-05 15:40:37.690624
45.73062449,-10.05165005,-3.84107852,5.152644634,2024-06-05 15:40:37.730624
45.77062449,-11.65543938,-5.126323223,5.355136871,2024-06-05 15:40:37.770624
45.81062449,-6.734898567,-2.948854923,5.284548759,2024-06-05 15:40:37.810624
45.85062449,-5.328815937,-1.677966833,4.020839214,2024-06-05 15:40:37.850624
45.89062449,-6.530013084,-2.249253273,4.374079704,2024-06-05 15:40:37.890624
45.93062449,-7.598408222,-2.741576433,4.677071095,2024-06-05 15:40:37.930624
45.97062449,-10.33789158,-4.569394112,5.549254894,2024-06-05 15:40:37.970624
46.01062449,-10.33789158,-4.569394112,5.549254894,2024-06-05 15:40:38.010624
46.05062449,-10.33789158,-4.569394112,5.549254894,2024-06-05 15:40:38.050624
46.09062449,-10.33789158,-4.569394112,5.549254894,2024-06-05 15:40:38.090624
46.13062449,-10.33789158,-4.569394112,5.549254894,2024-06-05 15:40:38.130624
46.17062449,-10.33789158,-4.569394112,5.549254894,2024-06-05 15:40:38.170624
46.21062449,-11.06710339,-4.998307228,5.630610943,2024-06-05 15:40:38.210624
46.25062449,-7.966304779,-3.125026464,4.654339314,2024-06-05 15:40:38.250624
46.29062449,-5.786443233,-1.819442511,4.30827713,2024-06-05 15:40:38.290624
46.33062449,-6.639185429,-1.906780601,3.984946966,2024-06-05 15:40:38.330624
46.37062449,-7.894220829,-2.625524759,4.578965187,2024-06-05 15:40:38.370624
46.41062449,-10.1270237,-4.447360039,5.625824928,2024-06-05 15:40:38.410624
46.45062449,-9.11725235,-3.653241873,4.657928467,2024-06-05 15:40:38.450624
46.49062449,-5.928816319,-2.04586339,4.988736153,2024-06-05 15:40:38.490624
46.53062449,-6.713363171,-2.348854542,4.180261135,2024-06-05 15:40:38.530624
46.57062449,-7.175776005,-2.432603359,4.390829563,2024-06-05 15:40:38.570624
46.61062449,-8.221439362,-2.975175858,5.050949574,2024-06-05 15:40:38.610624
46.65062449,-12.10917854,-5.540879726,5.562415123,2024-06-05 15:40:38.650624
46.69062449,-7.399804115,-2.806182861,4.559822559,2024-06-05 15:40:38.690624
46.73062449,-5.407779217,-1.388136268,3.96939373,2024-06-05 15:40:38.730624
46.77062449,-6.73848772,-2.11046958,4.108177185,2024-06-05 15:40:38.770624
46.81062449,-7.248756886,-2.45533514,4.575376034,2024-06-05 15:40:38.810624
46.85062449,-9.808479309,-4.247260094,5.77208662,2024-06-05 15:40:38.850624
46.89062449,-10.9869442,-4.698905468,5.159822941,2024-06-05 15:40:38.890624
46.93062449,-6.992425919,-2.363211393,4.519144535,2024-06-05 15:40:38.930624
46.97062449,-5.855835438,-1.622931957,3.646063566,2024-06-05 15:40:38.970624
47.01062449,-7.051050186,-2.103291035,4.22931385,2024-06-05 15:40:39.010624
47.05062449,-7.948358536,-2.67338109,4.76949358,2024-06-05 15:40:39.050624
47.09062449,-11.03121185,-4.880760193,5.564808369,2024-06-05 15:40:39.090624
47.13062449,-8.884849548,-3.650849104,4.787439823,2024-06-05 15:40:39.130624
47.17062449,-6.140880108,-1.919941068,4.102195263,2024-06-05 15:40:39.170624
47.21062449,-6.477370739,-2.024327993,4.177868366,2024-06-05 15:40:39.210624
47.25062449,-7.137490749,-2.448156595,4.588536739,2024-06-05 15:40:39.250624
47.29062449,-9.19980526,-3.554837227,5.343173027,2024-06-05 15:40:39.290624
47.33062449,-10.58465099,-4.478466511,5.222335339,2024-06-05 15:40:39.330624
47.37062449,-7.31814909,-2.854338408,4.806582451,2024-06-05 15:40:39.370624
47.41062449,-6.034399509,-1.896012783,4.134498596,2024-06-05 15:40:39.410624
47.45062449,-6.781558514,-2.390728951,4.504787922,2024-06-05 15:40:39.450624
47.49062449,-7.665706635,-2.825624466,4.712066174,2024-06-05 15:40:39.490624
47.53062449,-10.0899353,-4.547858715,5.589932919,2024-06-05 15:40:39.530624
47.57062449,-9.039485931,-3.894019842,4.971986294,2024-06-05 15:40:39.570624
47.61062449,-6.406782627,-2.335694075,4.654339314,2024-06-05 15:40:39.610624
47.65062449,-6.544369698,-2.389532566,4.292723656,2024-06-05 15:40:39.650624
47.69062449,-6.544369698,-2.389532566,4.292723656,2024-06-05 15:40:39.690624
47.73062449,-6.544369698,-2.389532566,4.292723656,2024-06-05 15:40:39.730624
47.77062449,-6.544369698,-2.389532566,4.292723656,2024-06-05 15:40:39.770624
47.81062449,-6.544369698,-2.389532566,4.292723656,2024-06-05 15:40:39.810624
47.85062449,-6.544369698,-2.389532566,4.292723656,2024-06-05 15:40:39.850624
47.89062449,-6.502495766,-2.317747831,4.341776848,2024-06-05 15:40:39.890624
47.93062449,-7.186543941,-2.536691189,4.570590496,2024-06-05 15:40:39.930624
47.97062449,-9.503094673,-3.693919897,5.277370453,2024-06-05 15:40:39.970624
48.01062449,-9.914959908,-4.106980801,4.933402061,2024-06-05 15:40:40.010624
48.05062449,-6.732505798,-2.693720102,4.708476543,2024-06-05 15:40:40.050624
48.09062449,-6.138487339,-2.009970903,4.260420799,2024-06-05 15:40:40.090624
48.13062449,-7.143472672,-2.509173632,4.543072701,2024-06-05 15:40:40.130624
48.17062449,-9.270691872,-3.556033611,5.302495003,2024-06-05 15:40:40.170624
48.21062449,-10.26580715,-4.219742775,5.012664318,2024-06-05 15:40:40.210624
48.25062449,-7.082156658,-2.975175858,4.844867706,2024-06-05 15:40:40.250624
48.29062449,-6.156433582,-2.031506538,4.213760853,2024-06-05 15:40:40.290624
48.33062449,-7.064210415,-2.370389938,4.43061018,2024-06-05 15:40:40.330624
48.37062449,-7.904091358,-2.772683144,4.791028976,2024-06-05 15:40:40.370624
48.41062449,-10.28255749,-4.500001907,5.424529076,2024-06-05 15:40:40.410624
48.45062449,-10.28255749,-4.500001907,5.424529076,2024-06-05 15:40:40.450624
48.49062449,-6.31226635,-2.369193554,4.313062668,2024-06-05 15:40:40.490624
48.53062449,-6.794719219,-2.317747831,4.36211586,2024-06-05 15:40:40.530624
48.57062449,-7.304988384,-2.554936409,4.570590496,2024-06-05 15:40:40.570624
48.61062449,-9.312566757,-3.630510092,5.303691387,2024-06-05 15:40:40.610624
48.65062449,-10.20479012,-4.326223373,5.125126839,2024-06-05 15:40:40.650624
48.69062449,-6.917052269,-2.833999395,4.747958183,2024-06-05 15:40:40.690624
48.73062449,-6.192326069,-1.980958104,4.159922123,2024-06-05 15:40:40.730624
48.77062449,-7.088139057,-2.38474679,4.369294167,2024-06-05 15:40:40.770624
48.81062449,-8.054839134,-2.935694218,4.885545731,2024-06-05 15:40:40.810624
48.85062449,-10.72941685,-4.720440865,5.399404526,2024-06-05 15:40:40.850624
48.89062449,-8.235795975,-3.286541939,4.785047054,2024-06-05 15:40:40.890624
48.93062449,-6.183950901,-2.060220242,4.171886444,2024-06-05 15:40:40.930624
48.97062449,-6.720541477,-2.221735716,4.326223373,2024-06-05 15:40:40.970624
49.01062449,-7.367500782,-2.595614433,4.641178608,2024-06-05 15:40:41.010624
49.05062449,-10.1844511,-4.434199333,5.524130344,2024-06-05 15:40:41.050624
49.09062449,-9.421440125,-3.78484726,4.826921463,2024-06-05 15:40:41.090624
49.13062449,-6.515655994,-2.33449769,4.33340168,2024-06-05 15:40:41.130624
49.17062449,-6.455835342,-1.976172447,4.135694981,2024-06-05 15:40:41.170624
49.21062449,-7.206882477,-2.385943174,4.492823601,2024-06-05 15:40:41.210624
49.25062449,-9.833603859,-4.004089355,5.466403484,2024-06-05 15:40:41.250624
49.29062449,-10.16411209,-4.089034557,4.78385067,2024-06-05 15:40:41.290624
49.33062449,-6.530013084,-2.506780863,4.578965187,2024-06-05 15:40:41.330624
49.37062449,-6.530013084,-2.506780863,4.578965187,2024-06-05 15:40:41.370624
49.41062449,-6.530013084,-2.506780863,4.578965187,2024-06-05 15:40:41.410624
49.45062449,-6.530013084,-2.506780863,4.578965187,2024-06-05 15:40:41.450624
49.49062449,-6.530013084,-2.506780863,4.578965187,2024-06-05 15:40:41.490624
49.53062449,-8.569893837,-3.455534935,4.83409977,2024-06-05 15:40:41.530624
49.57062449,-6.491727829,-2.290230274,4.327419758,2024-06-05 15:40:41.570624
49.61062449,-6.852446079,-2.21216464,4.260420799,2024-06-05 15:40:41.610624
49.65062449,-8.227421761,-2.836392164,4.923830986,2024-06-05 15:40:41.650624
49.69062449,-10.77966595,-4.441378117,5.288137913,2024-06-05 15:40:41.690624
49.73062449,-7.695616722,-2.867498875,4.496412754,2024-06-05 15:40:41.730624
49.77062449,-5.892923832,-1.766800404,4.244867325,2024-06-05 15:40:41.770624
49.81062449,-6.993622303,-2.120040894,4.183850288,2024-06-05 15:40:41.810624
49.85062449,-7.705187798,-2.613560438,4.721637249,2024-06-05 15:40:41.850624
49.89062449,-10.51974583,-4.406383038,5.42572546,2024-06-05 15:40:41.890624
49.93062449,-9.022735596,-3.534498215,4.547858715,2024-06-05 15:40:41.930624
49.97062449,-6.268896103,-2.139183521,4.252045631,2024-06-05 15:40:41.970624
50.01062449,-6.712166786,-2.104487419,4.255635262,2024-06-05 15:40:42.010624
50.05062449,-7.304988384,-2.426621199,4.57178688,2024-06-05 15:40:42.050624
50.09062449,-10.44197845,-4.332205296,5.551647663,2024-06-05 15:40:42.090624
50.13062449,-9.688538551,-3.86620307,4.668695927,2024-06-05 15:40:42.130624
50.17062449,-6.157629967,-2.201396942,4.425824642,2024-06-05 15:40:42.170624
50.21062449,-6.350551128,-1.918744683,4.186243057,2024-06-05 15:40:42.210624
50.25062449,-7.080960274,-2.299801588,4.486841679,2024-06-05 15:40:42.250624
50.29062449,-9.53898716,-3.491427422,5.373083115,2024-06-05 15:40:42.290624
50.33062449,-10.87926769,-4.388436794,4.907081127,2024-06-05 15:40:42.330624
50.37062449,-6.737291336,-2.71286273,4.71924448,2024-06-05 15:40:42.370624
50.41062449,-6.008975983,-1.811067581,4.091427803,2024-06-05 15:40:42.410624
50.45062449,-6.887141705,-2.219342947,4.327419758,2024-06-05 15:40:42.450624
50.49062449,-8.996415138,-3.147758245,5.152644634,2024-06-05 15:40:42.490624
50.53062449,-11.20618629,-4.59691143,5.096413136,2024-06-05 15:40:42.530624
50.57062449,-7.275078297,-3.015853882,4.858027935,2024-06-05 15:40:42.570624
50.61062449,-5.839085579,-1.826620936,4.114159584,2024-06-05 15:40:42.610624
50.65062449,-6.780362129,-2.137987137,4.261617184,2024-06-05 15:40:42.650624
50.69062449,-8.004590034,-2.694916487,4.875974178,2024-06-05 15:40:42.690624
50.73062449,-11.26361465,-4.904688358,5.437689304,2024-06-05 15:40:42.730624
50.77062449,-8.360222816,-3.530908823,4.890331268,2024-06-05 15:40:42.770624
50.81062449,-5.80797863,-1.960619092,4.213760853,2024-06-05 15:40:42.810624
50.85062449,-6.51445961,-2.02073884,4.211368084,2024-06-05 15:40:42.850624
50.89062449,-7.672884941,-2.562114954,4.718048096,2024-06-05 15:40:42.890624
50.93062449,-10.81675434,-4.66151762,5.383851051,2024-06-05 15:40:42.930624
50.97062449,-8.69551754,-3.579961777,4.860421181,2024-06-05 15:40:42.970624
51.01062449,-8.69551754,-3.579961777,4.860421181,2024-06-05 15:40:43.010624
51.05062449,-8.69551754,-3.579961777,4.860421181,2024-06-05 15:40:43.050624
51.09062449,-8.69551754,-3.579961777,4.860421181,2024-06-05 15:40:43.090624
51.13062449,-8.69551754,-3.579961777,4.860421181,2024-06-05 15:40:43.130624
51.17062449,-8.69551754,-3.579961777,4.860421181,2024-06-05 15:40:43.170624
51.21062449,-7.820043564,-3.276970625,4.889134884,2024-06-05 15:40:43.210624
51.25062449,-5.921638012,-1.942672849,4.173082829,2024-06-05 15:40:43.250624
51.29062449,-6.700202465,-2.130808592,4.287938118,2024-06-05 15:40:43.290624
51.33062449,-7.586444378,-2.613560438,4.70488739,2024-06-05 15:40:43.330624
51.37062449,-10.36301613,-4.357329845,5.455635548,2024-06-05 15:40:43.370624
51.41062449,-9.373583794,-3.974179268,4.927420139,2024-06-05 15:40:43.410624
51.45062449,-6.364908218,-2.522334099,4.423431873,2024-06-05 15:40:43.450624
51.49062449,-6.51445961,-2.063809633,4.220939159,2024-06-05 15:40:43.490624
51.53062449,-7.150651455,-2.417049885,4.494019985,2024-06-05 15:40:43.530624
51.57062449,-9.374779701,-3.591925859,5.252245903,2024-06-05 15:40:43.570624
51.61062449,-10.02383327,-4.065106392,4.95015192,2024-06-05 15:40:43.610624
51.65062449,-7.093223572,-2.905783892,4.718048096,2024-06-05 15:40:43.650624
51.69062449,-6.446264267,-2.109273195,4.220939159,2024-06-05 15:40:43.690624
51.73062449,-7.031907558,-2.395514488,4.438984871,2024-06-05 15:40:43.730624
51.77062449,-8.100302696,-2.89142704,4.944169998,2024-06-05 15:40:43.770624
51.81062449,-10.55563831,-4.617250443,5.338387489,2024-06-05 15:40:43.810624
51.85062449,-8.052446365,-3.430410385,4.86281395,2024-06-05 15:40:43.850624
51.89062449,-6.2401824,-2.201396942,4.253242016,2024-06-05 15:40:43.890624
51.93062449,-6.804290295,-2.267199516,4.338187218,2024-06-05 15:40:43.930624
51.97062449,-7.447660446,-2.534298182,4.634000301,2024-06-05 15:40:43.970624
52.01062449,-9.692128181,-3.874577999,5.302495003,2024-06-05 15:40:44.010624
52.05062449,-9.686145782,-4.045963764,4.908277512,2024-06-05 15:40:44.050624
52.09062449,-6.818647385,-2.806182861,4.593322277,2024-06-05 15:40:44.090624
52.13062449,-6.509674072,-2.172683001,4.285545349,2024-06-05 15:40:44.130624
52.17062449,-7.088139057,-2.475674152,4.517948151,2024-06-05 15:40:44.170624
52.21062449,-8.40329361,-3.049353361,4.998307228,2024-06-05 15:40:44.210624
52.25062449,-10.38096237,-4.490430832,5.324030399,2024-06-05 15:40:44.250624
52.29062449,-7.742276669,-3.304488182,4.849653244,2024-06-05 15:40:44.290624
52.33062449,-6.340980053,-2.218146563,4.230510235,2024-06-05 15:40:44.330624
52.37062449,-6.917052269,-2.327319145,4.328616142,2024-06-05 15:40:44.370624
52.41062449,-7.536194801,-2.61714983,4.657928467,2024-06-05 15:40:44.410624
52.45062449,-9.751948357,-3.961018801,5.359922886,2024-06-05 15:40:44.450624
52.49062449,-9.604789734,-4.043570995,4.933402061,2024-06-05 15:40:44.490624
52.53062449,-6.646364212,-2.675773859,4.549055099,2024-06-05 15:40:44.530624
52.57062449,-6.482156754,-2.073380709,4.252045631,2024-06-05 15:40:44.570624
52.61062449,-7.127919674,-2.403889418,4.47009182,2024-06-05 15:40:44.610624
52.65062449,-8.414061546,-3.015853882,4.947759151,2024-06-05 15:40:44.650624
52.69062449,-8.414061546,-3.015853882,4.947759151,2024-06-05 15:40:44.690624
52.73062449,-8.414061546,-3.015853882,4.947759151,2024-06-05 15:40:44.730624
52.77062449,-8.414061546,-3.015853882,4.947759151,2024-06-05 15:40:44.770624
52.81062449,-8.414061546,-3.015853882,4.947759151,2024-06-05 15:40:44.810624
52.85062449,-7.123134136,-2.474477768,4.49521637,2024-06-05 15:40:44.850624
52.89062449,-7.96391201,-2.863909483,4.838885784,2024-06-05 15:40:44.890624
52.93062449,-10.22154045,-4.395615101,5.46161747,2024-06-05 15:40:44.930624
52.97062449,-8.924330711,-3.880859137,4.807778835,2024-06-05 15:40:44.970624
53.01062449,-6.286842346,-2.379961252,4.400400639,2024-06-05 15:40:45.010624
53.05062449,-6.480959892,-2.151147604,4.348955154,2024-06-05 15:40:45.050624
53.09062449,-7.265506744,-2.478066921,4.605286121,2024-06-05 15:40:45.090624
53.13062449,-8.961420059,-3.299702406,5.188536644,2024-06-05 15:40:45.130624
53.17062449,-10.2347002,-4.302295208,5.070092201,2024-06-05 15:40:45.170624
53.21062449,-7.344470024,-3.122633457,4.775475979,2024-06-05 15:40:45.210624
53.25062449,-6.34815836,-2.126022816,4.228117466,2024-06-05 15:40:45.250624
53.29062449,-6.978068829,-2.370389938,4.434199333,2024-06-05 15:40:45.290624
53.33062449,-7.718348503,-2.688934565,4.752744198,2024-06-05 15:40:45.330624
53.37062449,-10.04447079,-4.217350006,5.387440205,2024-06-05 15:40:45.370624
53.41062449,-9.149555206,-3.919144392,4.859224796,2024-06-05 15:40:45.410624
53.45062449,-6.300302029,-2.486441851,4.381258488,2024-06-05 15:40:45.450624
53.49062449,-6.288038731,-2.0769701,4.360919476,2024-06-05 15:40:45.490624
53.53062449,-7.584051132,-2.682952404,4.61126852,2024-06-05 15:40:45.530624
53.57062449,-9.173483849,-3.53330183,5.164608479,2024-06-05 15:40:45.570624
53.61062449,-9.898209572,-4.275974274,5.242674351,2024-06-05 15:40:45.610624
53.65062449,-7.377072334,-3.254238844,4.757529736,2024-06-05 15:40:45.650624
53.69062449,-6.357729912,-2.209771633,4.260420799,2024-06-05 15:40:45.690624
53.73062449,-6.932605267,-2.407478571,4.523930073,2024-06-05 15:40:45.730624
53.77062449,-7.805686474,-2.775076151,4.817350388,2024-06-05 15:40:45.770624
53.81062449,-9.938887596,-4.29392004,5.334797859,2024-06-05 15:40:45.810624
53.85062449,-8.555537224,-3.636492252,4.891527653,2024-06-05 15:40:45.850624
53.89062449,-6.623631954,-2.531905413,4.375276089,2024-06-05 15:40:45.890624
53.93062449,-6.847660065,-2.357229471,4.403990269,2024-06-05 15:40:45.930624
53.97062449,-7.342077255,-2.57766819,4.616054058,2024-06-05 15:40:45.970624
54.01062449,-8.445467949,-3.21954298,5.019842625,2024-06-05 15:40:46.010624
54.05062449,-9.56770134,-4.069892406,5.055735111,2024-06-05 15:40:46.050624
54.09062449,-7.669295788,-3.285345554,4.781457901,2024-06-05 15:40:46.090624
54.13062449,-6.745666027,-2.655434847,4.538287163,2024-06-05 15:40:46.130624
54.17062449,-7.572087288,-2.93090868,4.762315273,2024-06-05 15:40:46.170624
54.21062449,-8.646464348,-3.429214001,5.001896858,2024-06-05 15:40:46.210624
54.25062449,-8.646464348,-3.429214001,5.001896858,2024-06-05 15:40:46.250624
54.29062449,-8.646464348,-3.429214001,5.001896858,2024-06-05 15:40:46.290624
54.33062449,-8.646464348,-3.429214001,5.001896858,2024-06-05 15:40:46.330624
54.37062449,-8.646464348,-3.429214001,5.001896858,2024-06-05 15:40:46.370624
54.41062449,-8.646464348,-3.429214001,5.001896858,2024-06-05 15:40:46.410624
54.45062449,-8.646464348,-3.429214001,5.001896858,2024-06-05 15:40:46.450624
54.49062449,-8.646464348,-3.429214001,5.001896858,2024-06-05 15:40:46.490624
54.53062449,-7.7398839,-3.209971666,4.807778835,2024-06-05 15:40:46.530624
54.57062449,-7.591229916,-3.308077335,4.913063049,2024-06-05 15:40:46.570624
54.61062449,-7.763812065,-3.461517096,5.017449856,2024-06-05 15:40:46.610624
54.65062449,-7.761419296,-3.466302633,4.999503613,2024-06-05 15:40:46.650624
54.69062449,-7.665706635,-3.448356628,4.931009293,2024-06-05 15:40:46.690624
54.73062449,-7.642974854,-3.395714521,4.807778835,2024-06-05 15:40:46.730624
54.77062449,-7.75424099,-3.528516054,4.929812908,2024-06-05 15:40:46.770624
54.81062449,-7.662117004,-3.52731967,4.95015192,2024-06-05 15:40:46.810624
54.85062449,-7.531409264,-3.49382019,4.985146999,2024-06-05 15:40:46.850624
54.89062449,-7.605587006,-3.517748356,5.003093243,2024-06-05 15:40:46.890624
54.93062449,-7.678866863,-3.571586847,5.03300333,2024-06-05 15:40:46.930624
54.97062449,-7.384250641,-3.416053534,4.973182678,2024-06-05 15:40:46.970624
55.01062449,-7.421339512,-3.371786118,4.938187599,2024-06-05 15:40:47.010624
55.05062449,-7.698009491,-3.542873144,4.973182678,2024-06-05 15:40:47.050624
55.09062449,-7.560122967,-3.517748356,5.006682396,2024-06-05 15:40:47.090624
55.13062449,-7.544569969,-3.517748356,4.987539768,2024-06-05 15:40:47.130624
55.17062449,-7.836793423,-3.608675718,4.98275423,2024-06-05 15:40:47.170624
55.21062449,-8.219046593,-3.917948008,5.272584915,2024-06-05 15:40:47.210624
55.25062449,-8.475378036,-4.08424902,5.104787827,2024-06-05 15:40:47.250624
55.29062449,-6.878767014,-2.966800928,4.76949358,2024-06-05 15:40:47.290624
55.33062449,-6.681059837,-2.565704107,4.657928467,2024-06-05 15:40:47.330624
55.37062449,-7.125526905,-2.649452925,4.655535698,2024-06-05 15:40:47.370624
55.41062449,-7.931608677,-3.06610322,4.818546772,2024-06-05 15:40:47.410624
55.45062449,-8.387741089,-3.469892025,5.00787878,2024-06-05 15:40:47.450624
55.49062449,-8.06441021,-3.413660526,4.898705959,2024-06-05 15:40:47.490624
55.53062449,-7.599604607,-3.142972469,4.674678326,2024-06-05 15:40:47.530624
55.57062449,-7.546962738,-3.074477911,4.666303158,2024-06-05 15:40:47.570624
55.61062449,-7.774580002,-3.209971666,4.805386066,2024-06-05 15:40:47.610624
55.65062449,-7.956733704,-3.299702406,4.934598446,2024-06-05 15:40:47.650624
55.69062449,-7.89182806,-3.239881754,4.884349346,2024-06-05 15:40:47.690624
55.73062449,-7.731509209,-3.1405797,4.797011375,2024-06-05 15:40:47.730624
55.77062449,-7.692027569,-3.131008387,4.770689964,2024-06-05 15:40:47.770624
55.81062449,-7.784151077,-3.192025423,4.847260475,2024-06-05 15:40:47.810624
55.85062449,-7.803293705,-3.243471146,4.891527653,2024-06-05 15:40:47.850624
55.89062449,-7.735098362,-3.227917671,4.858027935,2024-06-05 15:40:47.890624
55.93062449,-7.718348503,-3.196810961,4.831707001,2024-06-05 15:40:47.930624
55.97062449,-7.772187233,-3.229114056,4.83409977,2024-06-05 15:40:47.970624
56.01062449,-7.772187233,-3.229114056,4.83409977,2024-06-05 15:40:48.010624
56.05062449,-7.772187233,-3.229114056,4.83409977,2024-06-05 15:40:48.050624
56.09062449,-7.772187233,-3.229114056,4.83409977,2024-06-05 15:40:48.090624
56.13062449,-7.772187233,-3.229114056,4.83409977,2024-06-05 15:40:48.130624
56.17062449,-7.772187233,-3.229114056,4.83409977,2024-06-05 15:40:48.170624
56.21062449,-7.772187233,-3.225524902,4.855635166,2024-06-05 15:40:48.210624
56.25062449,-7.749455452,-3.203989506,4.828117847,2024-06-05 15:40:48.250624
56.29062449,-7.780561924,-3.193221807,4.824528694,2024-06-05 15:40:48.290624
56.33062449,-7.79372263,-3.217149973,4.830510616,2024-06-05 15:40:48.330624
56.37062449,-7.788936615,-3.187239647,4.826921463,2024-06-05 15:40:48.370624
56.41062449,-7.774580002,-3.18843627,4.828117847,2024-06-05 15:40:48.410624
56.45062449,-7.780561924,-3.209971666,4.831707001,2024-06-05 15:40:48.450624
56.49062449,-7.768597603,-3.206382275,4.838885784,2024-06-05 15:40:48.490624
56.53062449,-7.774580002,-3.221935749,4.836492538,2024-06-05 15:40:48.530624
56.57062449,-7.768597603,-3.207578659,4.842474937,2024-06-05 15:40:48.570624
56.61062449,-7.769794464,-3.183650494,4.856831551,2024-06-05 15:40:48.610624
56.65062449,-7.778169155,-3.202793121,4.840082169,2024-06-05 15:40:48.650624
56.69062449,-7.77936554,-3.21954298,4.819743156,2024-06-05 15:40:48.690624
56.73062449,-7.77936554,-3.21954298,4.819743156,2024-06-05 15:40:48.730624
56.77062449,-7.785347462,-3.214757204,4.842474937,2024-06-05 15:40:48.770624
56.81062449,-7.794919014,-3.206382275,4.822135925,2024-06-05 15:40:48.810624
56.85062449,-7.778169155,-3.206382275,4.82333231,2024-06-05 15:40:48.850624
56.89062449,-7.749455452,-3.193221807,4.818546772,2024-06-05 15:40:48.890624
56.93062449,-7.803293705,-3.209971666,4.841278553,2024-06-05 15:40:48.930624
56.97062449,-7.77936554,-3.193221807,4.828117847,2024-06-05 15:40:48.970624
57.01062449,-7.784151077,-3.195614576,4.822135925,2024-06-05 15:40:49.010624
57.05062449,-7.761419296,-3.187239647,4.826921463,2024-06-05 15:40:49.050624
57.09062449,-7.749455452,-3.199203968,4.841278553,2024-06-05 15:40:49.090624
57.13062449,-8.154141426,-3.411267757,4.991128922,2024-06-05 15:40:49.130624
57.17062449,-8.633303642,-3.699902058,5.048556805,2024-06-05 15:40:49.170624
57.21062449,-7.566105366,-3.096312523,4.712066174,2024-06-05 15:40:49.210624
57.25062449,-7.566105366,-3.096312523,4.712066174,2024-06-05 15:40:49.250624
57.29062449,-7.566105366,-3.096312523,4.712066174,2024-06-05 15:40:49.290624
57.33062449,-8.034500122,-2.877070189,4.67228508,2024-06-05 15:40:49.330624
57.37062449,-7.936394691,-2.844767094,4.668695927,2024-06-05 15:40:49.370624
57.41062449,-7.792526245,-2.878266573,4.681856632,2024-06-05 15:40:49.410624
57.45062449,-7.894220829,-2.933301449,4.668695927,2024-06-05 15:40:49.450624
57.49062449,-7.76500845,-2.908176899,4.67228508,2024-06-05 15:40:49.490624
57.53062449,-7.877471447,-3.043371201,4.686941147,2024-06-05 15:40:49.530624
57.57062449,-7.907680511,-3.002693415,4.547858715,2024-06-05 15:40:49.570624
57.61062449,-8.168797493,-3.265006542,4.785047054,2024-06-05 15:40:49.610624
57.65062449,-8.168797493,-3.265006542,4.785047054,2024-06-05 15:40:49.650624
57.69062449,-8.168797493,-3.265006542,4.785047054,2024-06-05 15:40:49.690624
57.73062449,-8.168797493,-3.265006542,4.785047054,2024-06-05 15:40:49.730624
57.77062449,-8.168797493,-3.265006542,4.785047054,2024-06-05 15:40:49.770624
57.81062449,-8.168797493,-3.265006542,4.785047054,2024-06-05 15:40:49.810624
57.85062449,-8.016553879,-3.223132133,4.838885784,2024-06-05 15:40:49.850624
57.89062449,-7.696813107,-2.935694218,4.632803917,2024-06-05 15:40:49.890624
57.93062449,-7.470392227,-2.736790895,4.577768803,2024-06-05 15:40:49.930624
57.97062449,-7.690831184,-2.833999395,4.697709084,2024-06-05 15:40:49.970624
58.01062449,-7.821239948,-2.928515911,4.787439823,2024-06-05 15:40:50.010624
58.05062449,-7.896913052,-3.039782047,4.773082733,2024-06-05 15:40:50.050624
58.09062449,-7.898109436,-3.120240688,4.805386066,2024-06-05 15:40:50.090624
58.13062449,-7.896913052,-3.151347399,4.757529736,2024-06-05 15:40:50.130624
58.17062449,-7.991429329,-3.198007345,4.776672363,2024-06-05 15:40:50.170624
58.21062449,-8.144570351,-3.339184046,4.782654285,2024-06-05 15:40:50.210624
58.25062449,-8.506484032,-3.503391504,4.791028976,2024-06-05 15:40:50.250624
58.29062449,-7.873881817,-3.178864956,4.763511658,2024-06-05 15:40:50.290624
58.33062449,-7.423732281,-2.824428082,4.638785839,2024-06-05 15:40:50.330624
58.37062449,-7.517052174,-2.703291416,4.641178608,2024-06-05 15:40:50.370624
58.41062449,-7.785347462,-2.804986238,4.685744762,2024-06-05 15:40:50.410624
58.45062449,-7.824829102,-2.89980197,4.78385067,2024-06-05 15:40:50.450624
58.49062449,-7.882256985,-3.046960592,4.789832592,2024-06-05 15:40:50.490624
58.53062449,-7.828418255,-3.073281527,4.76949358,2024-06-05 15:40:50.530624
58.57062449,-7.928019524,-3.164507866,4.746761799,2024-06-05 15:40:50.570624
58.61062449,-7.999804497,-3.239881754,4.787439823,2024-06-05 15:40:50.610624
58.65062449,-7.951947689,-3.233899832,4.787439823,2024-06-05 15:40:50.650624
58.69062449,-7.931608677,-3.195614576,4.788636208,2024-06-05 15:40:50.690624
58.73062449,-8.150551796,-3.303291559,4.872385025,2024-06-05 15:40:50.730624
58.77062449,-8.234600067,-3.368196964,4.854438782,2024-06-05 15:40:50.770624
58.81062449,-7.447660446,-2.958425999,4.746761799,2024-06-05 15:40:50.810624
58.85062449,-7.447660446,-2.793022156,4.700101852,2024-06-05 15:40:50.850624
58.89062449,-7.788936615,-2.868695259,4.667499542,2024-06-05 15:40:50.890624
58.93062449,-7.820043564,-2.861516714,4.686941147,2024-06-05 15:40:50.930624
58.97062449,-7.884649754,-3.02063942,4.755136967,2024-06-05 15:40:50.970624
59.01062449,-7.867899895,-3.096312523,4.751547337,2024-06-05 15:40:51.010624
59.05062449,-7.91366291,-3.184846878,4.792225361,2024-06-05 15:40:51.050624
59.09062449,-7.941180229,-3.245863914,4.822135925,2024-06-05 15:40:51.090624
59.13062449,-7.894220829,-3.194418192,4.824528694,2024-06-05 15:40:51.130624
59.17062449,-7.876275063,-3.189632654,4.822135925,2024-06-05 15:40:51.170624
59.21062449,-8.351848602,-3.402892828,4.913063049,2024-06-05 15:40:51.210624
59.25062449,-8.392526627,-3.461517096,4.846064091,2024-06-05 15:40:51.250624
59.29062449,-7.351648331,-2.842374086,4.680660248,2024-06-05 15:40:51.290624
59.33062449,-7.351648331,-2.842374086,4.680660248,2024-06-05 15:40:51.330624
59.37062449,-7.351648331,-2.842374086,4.680660248,2024-06-05 15:40:51.370624
59.41062449,-7.351648331,-2.842374086,4.680660248,2024-06-05 15:40:51.410624
59.45062449,-7.351648331,-2.842374086,4.680660248,2024-06-05 15:40:51.450624
59.49062449,-7.351648331,-2.842374086,4.680660248,2024-06-05 15:40:51.490624
59.53062449,-7.708777428,-2.940479994,4.724030018,2024-06-05 15:40:51.530624
59.57062449,-7.792526245,-3.073281527,4.786243439,2024-06-05 15:40:51.570624
59.61062449,-7.990232944,-3.227917671,4.860421181,2024-06-05 15:40:51.610624
59.65062449,-8.105088234,-3.328416348,4.877170563,2024-06-05 15:40:51.650624
59.69062449,-8.387741089,-3.479463339,4.881956577,2024-06-05 15:40:51.690624
59.73062449,-8.532805443,-3.551247835,4.868795872,2024-06-05 15:40:51.730624
59.77062449,-7.863114357,-3.108276606,4.624428749,2024-06-05 15:40:51.770624
59.81062449,-7.226025105,-2.541476727,4.436592102,2024-06-05 15:40:51.810624
59.85062449,-7.372286797,-2.521137714,4.540679932,2024-06-05 15:40:51.850624
59.89062449,-7.815258026,-2.758326292,4.683351994,2024-06-05 15:40:51.890624
59.93062449,-7.792526245,-2.822035313,4.746761799,2024-06-05 15:40:51.930624
59.97062449,-7.676474094,-2.87467742,4.749154568,2024-06-05 15:40:51.970624
60.01062449,-7.676474094,-2.87467742,4.749154568,2024-06-05 15:40:52.010624
60.05062449,-7.676474094,-2.87467742,4.749154568,2024-06-05 15:40:52.050624
60.09062449,-8.221439362,-3.478266716,4.952843666,2024-06-05 15:40:52.090624
60.13062449,-8.024929047,-3.386143208,4.86281395,2024-06-05 15:40:52.130624
60.17062449,-8.056035995,-3.276970625,4.787439823,2024-06-05 15:40:52.170624
60.21062449,-8.341080666,-3.305684566,4.765904427,2024-06-05 15:40:52.210624
60.25062449,-7.998608112,-3.126222849,4.73001194,2024-06-05 15:40:52.250624
60.29062449,-7.466803074,-2.767897606,4.662714005,2024-06-05 15:40:52.290624
60.33062449,-7.467999458,-2.603989124,4.57178688,2024-06-05 15:40:52.330624
60.37062449,-7.726723194,-2.709273338,4.604089737,2024-06-05 15:40:52.370624
60.41062449,-7.736294746,-2.782254457,4.709673405,2024-06-05 15:40:52.410624
60.45062449,-7.676474094,-2.878266573,4.722833633,2024-06-05 15:40:52.450624
60.49062449,-7.7398839,-3.038585663,4.850849628,2024-06-05 15:40:52.490624
60.53062449,-8.131409645,-3.352643728,4.944169998,2024-06-05 15:40:52.530624
60.57062449,-8.240582466,-3.425624609,4.913063049,2024-06-05 15:40:52.570624
60.61062449,-8.083553314,-3.323630571,4.781457901,2024-06-05 15:40:52.610624
60.65062449,-7.720741272,-3.08434844,4.651946545,2024-06-05 15:40:52.650624
60.69062449,-7.66451025,-3.013461113,4.669892311,2024-06-05 15:40:52.690624
60.73062449,-7.980661869,-3.189632654,4.822135925,2024-06-05 15:40:52.730624
60.77062449,-8.462217331,-3.441178083,4.933402061,2024-06-05 15:40:52.770624
60.81062449,-7.930412292,-3.241078377,4.841278553,2024-06-05 15:40:52.810624
60.85062449,-7.525427341,-2.959622622,4.762315273,2024-06-05 15:40:52.850624
60.89062449,-7.525427341,-2.959622622,4.762315273,2024-06-05 15:40:52.890624
60.93062449,-7.742276669,-2.784647465,4.616054058,2024-06-05 15:40:52.930624
60.97062449,-7.742276669,-2.784647465,4.616054058,2024-06-05 15:40:52.970624
61.01062449,-7.742276669,-2.784647465,4.616054058,2024-06-05 15:40:53.010624
61.05062449,-7.742276669,-2.784647465,4.616054058,2024-06-05 15:40:53.050624
61.09062449,-7.742276669,-2.784647465,4.616054058,2024-06-05 15:40:53.090624
61.13062449,-7.742276669,-2.784647465,4.616054058,2024-06-05 15:40:53.130624
61.17062449,-8.057231903,-3.249453068,4.817350388,2024-06-05 15:40:53.170624
61.21062449,-8.054839134,-3.28414917,4.831707001,2024-06-05 15:40:53.210624
61.25062449,-7.996214867,-3.273381472,4.794618607,2024-06-05 15:40:53.250624
61.29062449,-8.126624107,-3.303291559,4.813760757,2024-06-05 15:40:53.290624
61.33062449,-8.069195747,-3.278167009,4.813760757,2024-06-05 15:40:53.330624
61.37062449,-7.759026527,-3.050549746,4.764708042,2024-06-05 15:40:53.370624
61.41062449,-7.623532772,-2.865106106,4.684548378,2024-06-05 15:40:53.410624
61.45062449,-7.756633759,-2.837588549,4.678267479,2024-06-05 15:40:53.450624
61.49062449,-7.885846138,-2.868695259,4.655535698,2024-06-05 15:40:53.490624
61.53062449,-7.745865822,-2.859123945,4.69411993,2024-06-05 15:40:53.530624
61.57062449,-7.788936615,-2.914158821,4.71924448,2024-06-05 15:40:53.570624
61.61062449,-7.770990849,-2.926122904,4.716851711,2024-06-05 15:40:53.610624
61.65062449,-7.747062206,-2.948854923,4.735994339,2024-06-05 15:40:53.650624
61.69062449,-7.968697548,-3.120240688,4.789832592,2024-06-05 15:40:53.690624
61.73062449,-8.087141991,-3.274577856,4.841278553,2024-06-05 15:40:53.730624
61.77062449,-8.06799984,-3.30089879,4.855635166,2024-06-05 15:40:53.770624
61.81062449,-7.89182806,-3.233899832,4.786243439,2024-06-05 15:40:53.810624
61.85062449,-7.684848785,-3.081955671,4.73360157,2024-06-05 15:40:53.850624
61.89062449,-7.780561924,-3.102294445,4.789832592,2024-06-05 15:40:53.890624
61.93062449,-7.900502205,-3.183650494,4.869992256,2024-06-05 15:40:53.930624
61.97062449,-8.284849167,-3.393321514,4.933402061,2024-06-05 15:40:53.970624
62.01062449,-8.041678429,-3.304488182,4.838885784,2024-06-05 15:40:54.010624
62.05062449,-7.402196884,-2.869891644,4.698905468,2024-06-05 15:40:54.050624
62.09062449,-7.508677483,-2.721237659,4.541876316,2024-06-05 15:40:54.090624
62.13062449,-7.814061642,-2.844767094,4.598107815,2024-06-05 15:40:54.130624
62.17062449,-7.820043564,-2.951247692,4.777868748,2024-06-05 15:40:54.170624
62.21062449,-7.930412292,-3.087937593,4.781457901,2024-06-05 15:40:54.210624
62.25062449,-7.990232944,-3.153740168,4.756333351,2024-06-05 15:40:54.250624
62.29062449,-7.972286701,-3.203989506,4.768297195,2024-06-05 15:40:54.290624
62.33062449,-7.873881817,-3.241078377,4.842474937,2024-06-05 15:40:54.330624
62.37062449,-7.727920055,-3.209971666,4.887938499,2024-06-05 15:40:54.370624
62.41062449,-7.701598644,-3.201596737,4.975575447,2024-06-05 15:40:54.410624
62.45062449,-7.727920055,-3.223132133,5.009075165,2024-06-05 15:40:54.450624
62.49062449,-7.935198307,-3.242274761,4.913063049,2024-06-05 15:40:54.490624
62.53062449,-8.232207298,-3.27577424,4.777868748,2024-06-05 15:40:54.530624
