Time (s),Gyroscope x (rad/s),Gyroscope y (rad/s),Gyroscope z (rad/s),Datetime
0.04102803,-0.2866808474,0.1593854874,0.04274247587,2024-06-05 15:39:52.041028
0.081513603,-0.1982664913,0.07523208112,0.02942706272,2024-06-05 15:39:52.081514
0.121999175,-0.2616478503,0.3062545061,-0.003062544856,2024-06-05 15:39:52.121999
0.162484696,0.01318225823,0.2418078929,-0.220370084,2024-06-05 15:39:52.162485
0.238044748,0.03049229458,0.5142412186,-0.3978645205,2024-06-05 15:39:52.238045
0.27849329,-0.06644391268,0.6495258212,-0.2683055699,2024-06-05 15:39:52.278493
0.318979488,-0.2579195499,0.9101084471,0.079493016,2024-06-05 15:39:52.318979
0.359486728,-0.3455349505,2.132197142,0.3173062801,2024-06-05 15:39:52.359487
0.399972248,-0.3513937294,1.679606199,0.3375457227,2024-06-05 15:39:52.399972
0.440479384,-0.72142905,-0.654053092,-0.3243634701,2024-06-05 15:39:52.440479
0.480939123,-1.116497397,-0.2496639937,-0.5816172361,2024-06-05 15:39:52.480939
0.521424696,-0.005193010904,-0.1588528752,-0.05632419512,2024-06-05 15:39:52.521425
0.561919436,0.3288906813,0.3222329915,0.5629756451,2024-06-05 15:39:52.561919
0.602465946,0.08881380409,0.3901416063,0.2579195499,2024-06-05 15:39:52.602466
0.64292605,0.1874810159,-0.3386109471,-0.1463363916,2024-06-05 15:39:52.642926
0.683428707,0.3672390878,-0.7211627364,0.1191729456,2024-06-05 15:39:52.683429
0.72385928,0.2215684652,-0.1916087866,0.213978678,2024-06-05 15:39:52.723859
0.764344644,0.06937330216,0.1106510833,0.1511299312,2024-06-05 15:39:52.764345
0.804878082,0.1250317246,0.1221023351,0.3944025338,2024-06-05 15:39:52.804878
0.845292561,0.02143781446,0.1756303012,0.3778914213,2024-06-05 15:39:52.845293
0.88579579,-0.1599181145,0.04833494872,0.28241992,2024-06-05 15:39:52.885796
0.926274853,-0.2496639937,0.08801487833,0.2075872868,2024-06-05 15:39:52.926275
0.966812405,-0.1511299312,0.2244978547,0.1870815456,2024-06-05 15:39:52.966812
1.00724954,-0.01850842312,0.04726971686,0.1484668553,2024-06-05 15:39:53.007250
1.0477923,-0.0685743764,0.2099840641,0.2009295821,2024-06-05 15:39:53.047792
1.088279957,-0.3953346014,0.5461982489,0.3411408663,2024-06-05 15:39:53.088280
1.128762092,-0.4742949903,0.7893376946,0.2440715134,2024-06-05 15:39:53.128762
1.16925204,-0.1031944528,0.8117075562,0.3422061205,2024-06-05 15:39:53.169252
1.209752405,-0.3718994856,0.8619066477,0.6908035874,2024-06-05 15:39:53.209752
1.25019954,-0.01611164957,1.076817393,0.7259563208,2024-06-05 15:39:53.250200
1.290676728,0.6535204649,0.9098421335,0.5645735264,2024-06-05 15:39:53.290677
1.331144748,1.095991611,0.3097164929,0.5904054046,2024-06-05 15:39:53.331145
1.371642665,1.031811357,0.1002650559,0.3643096983,2024-06-05 15:39:53.371643
1.41210928,0.2913412452,-0.4665720761,0.1886793971,2024-06-05 15:39:53.412109
1.45258204,-0.5563179255,-0.009187635034,0.02569874749,2024-06-05 15:39:53.452582
1.493111259,-0.2078536004,0.5416709781,-0.2078536004,2024-06-05 15:39:53.493111
1.533640321,0.4013265371,0.4276910722,0.01451379992,2024-06-05 15:39:53.533640
1.574124748,0.5786878467,0.04007939249,0.06271559745,2024-06-05 15:39:53.574125
1.614600998,0.07842778414,0.3749620318,0.01744319126,2024-06-05 15:39:53.614601
1.655083082,-0.2288919389,0.9686962962,0.006524552125,2024-06-05 15:39:53.655083
1.695565478,0.1768286824,0.4101147056,-0.1090532318,2024-06-05 15:39:53.695565
1.736046936,0.6892057657,-0.8939968348,0.3661738634,2024-06-05 15:39:53.736047
1.776530009,0.2918738425,-0.2842840552,0.0512643382,2024-06-05 15:39:53.776530
1.8170248,0.09014534205,-0.4146419466,0.4519250989,2024-06-05 15:39:53.817025
1.857510217,0.3384777904,-0.593334794,0.8734911084,2024-06-05 15:39:53.857510
1.897996728,0.1520620137,-0.4548544884,0.8191642165,2024-06-05 15:39:53.897997
1.938483186,-0.01424749196,-0.6338136196,0.788538754,2024-06-05 15:39:53.938483
1.978963394,-0.270169735,-0.6479279995,0.5145075321,2024-06-05 15:39:53.978963
2.019438342,-0.2765611112,-0.7062494755,0.5805519819,2024-06-05 15:39:54.019438
2.059922353,-0.2637783289,-0.8239577413,0.4069190025,2024-06-05 15:39:54.059922
2.100390009,-0.08508548886,-0.9800143838,0.2765611112,2024-06-05 15:39:54.100390
2.140851675,-0.03688369319,-0.7888050675,-0.1183740199,2024-06-05 15:39:54.140852
2.181356467,-0.09467258304,-0.6916025281,-0.270835489,2024-06-05 15:39:54.181356
2.221875894,-0.1234338731,-0.6351451874,-0.1420754492,2024-06-05 15:39:54.221876
2.262361467,-0.1149120107,0.01371487509,-0.1197055578,2024-06-05 15:39:54.262361
2.302859436,0.2532591522,0.0243672058,-0.03475322574,2024-06-05 15:39:54.302859
2.343333186,0.08109086752,-0.218505919,-0.06058513001,2024-06-05 15:39:54.343333
2.383823238,-0.01424749196,-0.1436733007,-0.06191666797,2024-06-05 15:39:54.383823
2.424312925,-0.1375482082,-0.2187722325,0.1990654171,2024-06-05 15:39:54.424313
2.464777873,-0.4419385493,-0.2435389012,0.1801575422,2024-06-05 15:39:54.464778
2.505277925,-0.2571206093,-0.5773562789,0.3002625704,2024-06-05 15:39:54.505278
2.545772873,0.2079867423,-0.6726946831,0.2914743721,2024-06-05 15:39:54.545773
2.586257613,0.2503297627,-0.168706283,0.02037258074,2024-06-05 15:39:54.586258
2.626742717,0.2926727831,0.5174369216,0.1769618392,2024-06-05 15:39:54.626743
2.66721428,0.109585844,0.7531197667,0.1340862066,2024-06-05 15:39:54.667214
2.707693238,-0.167374745,0.8864070177,0.07230269164,2024-06-05 15:39:54.707693
2.748182717,-0.3178389072,1.333538532,-0.1953371018,2024-06-05 15:39:54.748183
2.788684175,-0.7528534532,0.8890700936,-0.2022611201,2024-06-05 15:39:54.788684
2.829173498,-0.818897903,0.1663095057,0.3382114768,2024-06-05 15:39:54.829173
2.869659696,-0.7517881989,1.966952801,-0.8077129126,2024-06-05 15:39:54.869660
2.910131519,-1.285603046,3.158416033,-2.061492205,2024-06-05 15:39:54.910132
2.950609905,-1.221689105,3.61047411,-2.294911385,2024-06-05 15:39:54.950610
2.991084384,-0.975487113,2.788779974,-2.026339531,2024-06-05 15:39:54.991084
3.031586675,-0.7981258631,2.047511101,-1.606105089,2024-06-05 15:39:55.031587
3.072060165,-0.5123770833,1.890256047,-1.698780417,2024-06-05 15:39:55.072060
3.112520894,-0.9959928989,0.6287537813,-1.555506468,2024-06-05 15:39:55.112521
3.1530673,-1.699046731,0.8395367861,-1.462165475,2024-06-05 15:39:55.153067
3.19355303,-1.261635303,0.6183677912,-1.270689845,2024-06-05 15:39:55.193553
3.23399428,-1.312766552,0.4985290468,-0.6790860295,2024-06-05 15:39:55.233994
3.274526155,-0.06564498693,1.731802583,-1.475480914,2024-06-05 15:39:55.274526
3.31501105,-0.06351451576,1.694253087,-1.778939128,2024-06-05 15:39:55.315011
3.355496936,-0.9238233566,1.025153637,-1.145258665,2024-06-05 15:39:55.355497
3.395979019,-1.848445654,0.2998631001,-0.3123795986,2024-06-05 15:39:55.395979
3.436466363,-1.405974388,0.9404675961,-0.2884118557,2024-06-05 15:39:55.436466
3.476951415,-1.209172606,1.06616509,0.2358159572,2024-06-05 15:39:55.476951
3.51743428,-0.7749570012,0.2644441128,0.850055933,2024-06-05 15:39:55.517434
3.55792178,0.555785358,0.6987928748,0.6647053957,2024-06-05 15:39:55.557922
3.598409071,0.1930734813,0.6902710199,0.2821536064,2024-06-05 15:39:55.598409
3.638894436,0.3904078901,0.3209014535,0.3159747422,2024-06-05 15:39:55.638894
3.679359853,0.0904116556,0.1439396143,0.09893351793,2024-06-05 15:39:55.679360
3.719819488,-0.2816209793,0.3083849549,0.150597319,2024-06-05 15:39:55.719819
3.760314905,-0.3966661394,-0.6431344151,0.2099840641,2024-06-05 15:39:55.760315
3.800800998,-0.1170424819,0.3097164929,-0.008388710208,2024-06-05 15:39:55.800801
3.841292509,-0.07869409025,0.1074553803,-0.1886793971,2024-06-05 15:39:55.841293
3.881817405,0.2748301327,0.004394086078,-0.443403244,2024-06-05 15:39:55.881817
3.92230329,0.3520595133,-0.3311543167,-0.05046541616,2024-06-05 15:39:55.922303
3.96271928,0.02037258074,-0.7331466079,-0.02889444493,2024-06-05 15:39:55.962719
4.003280113,-0.1362166703,-0.3508611321,0.2885449827,2024-06-05 15:39:56.003280
4.043742925,-0.08375394344,0.2567211688,-0.01824211515,2024-06-05 15:39:56.043743
4.084238603,0.07975932211,0.5664376616,0.03635107726,2024-06-05 15:39:56.084239
4.124730686,0.1733666807,0.1521951705,0.09334104508,2024-06-05 15:39:56.124731
4.165181728,0.4591154456,-0.4050548673,-0.176429227,2024-06-05 15:39:56.165182
4.205717665,0.937271893,-1.012903452,-1.063502073,2024-06-05 15:39:56.205718
4.246165321,0.8600425124,0.3107817471,-2.342580557,2024-06-05 15:39:56.246165
4.286670165,0.3989297748,0.657248795,-1.351647496,2024-06-05 15:39:56.286670
4.327155894,0.1941387206,-0.9192960858,-0.8766867518,2024-06-05 15:39:56.327156
4.367644384,0.2258294076,-1.109839678,-0.5760247707,2024-06-05 15:39:56.367644
4.408129123,-0.03075860441,-0.8790835738,0.2198374718,2024-06-05 15:39:56.408129
4.448542092,-0.1945381761,-0.7528534532,-0.3137111366,2024-06-05 15:39:56.448542
4.489102769,-0.2664414048,-0.7573806643,-0.7930659652,2024-06-05 15:39:56.489103
4.529589019,0.826753974,-1.017696977,-1.522484303,2024-06-05 15:39:56.529589
4.570051884,0.5850792527,0.6995918155,-2.036725521,2024-06-05 15:39:56.570052
4.61054079,0.51956743,0.6825480461,-0.8780183196,2024-06-05 15:39:56.610541
4.651024436,0.2415415943,0.3627118468,-0.565638721,2024-06-05 15:39:56.651024
4.691481259,0.590139091,0.4037233293,-0.4697677493,2024-06-05 15:39:56.691481
4.731966988,0.7758890986,0.3872122169,-0.6625749469,2024-06-05 15:39:56.731967
4.772452717,-0.2912080884,0.1463363916,-0.7030537724,2024-06-05 15:39:56.772453
4.812980842,-0.3399424851,1.116763711,-0.1237001866,2024-06-05 15:39:56.812981
4.853478967,-0.03981308267,1.091997027,-2.369477749,2024-06-05 15:39:56.853479
4.893958238,-0.07736254483,0.4125114977,-1.360435724,2024-06-05 15:39:56.893958
4.934439644,-0.3822855055,0.3017272651,-1.181742907,2024-06-05 15:39:56.934440
4.974930217,-0.9406007528,2.207029581,-0.9175651073,2024-06-05 15:39:56.974930
5.015423707,-0.9698946476,0.5515244007,-1.868685007,2024-06-05 15:39:57.015424
5.055906936,-0.981079638,0.7717612982,-1.023289442,2024-06-05 15:39:57.055907
5.096394228,-0.4022586346,0.3182383776,0.3213009238,2024-06-05 15:39:57.096394
5.136878915,0.441539079,0.2121145278,-0.2296908647,2024-06-05 15:39:57.136879
5.17737553,0.3217003644,0.1742987484,-0.3033251166,2024-06-05 15:39:57.177376
5.217859332,0.2039921284,0.7962616682,-0.1809564531,2024-06-05 15:39:57.217859
5.258328915,0.03501953557,1.175085187,-0.008388710208,2024-06-05 15:39:57.258329
5.298823134,0.2050573528,1.354576945,0.256588012,2024-06-05 15:39:57.298823
5.339311363,0.3081186414,1.567224145,0.6396724582,2024-06-05 15:39:57.339311
5.379791311,0.3454017937,1.545386791,0.6700315475,2024-06-05 15:39:57.379791
5.420230842,0.5014584661,1.563762069,0.7927996516,2024-06-05 15:39:57.420231
5.460700373,0.4109136462,1.137802005,0.5664376616,2024-06-05 15:39:57.460700
5.501212353,0.3475322723,0.7283530831,0.6226286888,2024-06-05 15:39:57.501212
5.541699175,0.2250304818,0.2460688353,0.3978645205,2024-06-05 15:39:57.541699
5.582194123,0.06457975507,0.0126496423,0.2525933683,2024-06-05 15:39:57.582194
5.622713134,-0.04940018058,-0.1319557428,0.2629793882,2024-06-05 15:39:57.622713
5.663187978,-0.05392742157,-0.1109173894,0.1681736708,2024-06-05 15:39:57.663188
5.703668446,-0.08348763734,-0.2147776037,0.1197055578,2024-06-05 15:39:57.703668
5.744156675,-0.01957365684,-0.09413997084,-0.000932078925,2024-06-05 15:39:57.744157
5.784655217,0.009187635034,-0.06191666797,-0.03315537795,2024-06-05 15:39:57.784655
5.825098134,-0.02995967865,0.01930734888,-0.01797580719,2024-06-05 15:39:57.825098
5.865606363,-0.01584534161,-0.01478010789,-0.09999874979,2024-06-05 15:39:57.865606
5.906115894,0.01744319126,-0.03635107726,-0.1207707971,2024-06-05 15:39:57.906116
5.946601988,-0.05206326395,-0.04700340703,-0.03874785081,2024-06-05 15:39:57.946602
5.987079384,-0.001997311832,-0.04141093418,-0.1343525201,2024-06-05 15:39:57.987079
6.027549644,-0.02170412242,-0.1657768935,-0.1500647068,2024-06-05 15:39:58.027550
6.068035738,-0.06724283099,-0.2014621943,-0.08774857223,2024-06-05 15:39:58.068036
6.108521832,-0.09600412846,-0.2272941023,-0.1782933772,2024-06-05 15:39:58.108522
6.149007978,-0.08588441461,-0.07177007198,-0.1703041345,2024-06-05 15:39:58.149008
6.189544488,0.03741630912,-0.05232957378,-0.2323539555,2024-06-05 15:39:58.189544
6.229986832,0.1029281393,-0.07070484012,-0.05925358832,2024-06-05 15:39:58.229987
6.270471728,0.1781602204,0.01051917579,-0.09280842543,2024-06-05 15:39:58.270472
6.310938863,0.1106510833,0.2097177505,-0.1215697154,2024-06-05 15:39:58.310939
6.351464228,0.08215609938,0.1953371018,-0.03448691964,2024-06-05 15:39:58.351464
6.391923394,0.1741656065,-0.02703028731,-0.05366111174,2024-06-05 15:39:58.391923
6.432405634,0.04860125855,0.03182383627,0.01211702544,2024-06-05 15:39:58.432406
6.472911884,0.0275629051,0.02995967865,-0.05073172227,2024-06-05 15:39:58.472912
6.51341704,-0.003595161485,0.02516612969,-0.06671021879,2024-06-05 15:39:58.513417
6.553883446,-0.03288906813,-0.01744319126,-0.04540555924,2024-06-05 15:39:58.553883
6.594385686,0.003328853287,-0.04061200842,-0.01504641678,2024-06-05 15:39:58.594386
6.634873394,0.08481918275,0.04274247587,0.06990591437,2024-06-05 15:39:58.634873
6.675285842,0.03475322574,-0.02969337068,0.08109086752,2024-06-05 15:39:58.675286
6.715864384,-0.03475322574,-0.3074528873,0.1252980381,2024-06-05 15:39:58.715864
6.756350738,-0.04966649041,-0.3860138059,0.1098521575,2024-06-05 15:39:58.756351
6.796812092,-0.1111836955,-0.4548544884,0.05179695413,2024-06-05 15:39:58.796812
6.837298394,-0.1697715074,-0.3274259865,-0.06431344151,2024-06-05 15:39:58.837298
6.877784696,-0.2198374718,-0.1175750941,-0.284417212,2024-06-05 15:39:58.877785
6.91827105,-0.2310224175,0.2218347788,-0.3837502003,2024-06-05 15:39:58.918271
6.958717405,-0.2243647128,0.2099840641,-0.2211690098,2024-06-05 15:39:58.958717
6.999243446,-0.1463363916,-0.06244928762,0.001731003635,2024-06-05 15:39:58.999243
7.039733342,0.008388710208,-0.2214353085,0.1703041345,2024-06-05 15:39:59.039733
7.080194592,0.1109173894,-0.3143768907,0.268838197,2024-06-05 15:39:59.080195
7.120699228,0.1343525201,-0.3497959077,0.2406095117,2024-06-05 15:39:59.120699
7.161183655,0.1472684592,-0.37296471,0.2254299372,2024-06-05 15:39:59.161184
7.201618603,0.1018629074,-0.2720338702,0.1937392503,2024-06-05 15:39:59.201619
7.242127248,-0.003595161485,-0.1665758193,0.218505919,2024-06-05 15:39:59.242127
7.282613394,-0.02197043039,-0.1165098622,0.176429227,2024-06-05 15:39:59.282613
7.32309954,-0.1015966013,0.08934641629,0.0576557368,2024-06-05 15:39:59.323100
7.363607665,-0.1311568171,0.1431406885,0.06431344151,2024-06-05 15:39:59.363608
7.404111832,-0.1335535944,0.084020257,0.1018629074,2024-06-05 15:39:59.404112
7.44452553,-0.1026618332,0.06271559745,0.09467258304,2024-06-05 15:39:59.444526
7.48508105,-0.07070484012,0.06111774594,0.05206326395,2024-06-05 15:39:59.485081
7.52556329,-0.03262276202,0.09147688746,-0.0355521515,2024-06-05 15:39:59.525563
7.566050425,0.02569874749,0.09147688746,-0.03794892505,2024-06-05 15:39:59.566050
7.606536207,0.03501953557,0.07922670245,-0.02197043039,2024-06-05 15:39:59.606536
7.647024748,0.09334104508,0.03022598661,0.02303566411,2024-06-05 15:39:59.647025
7.687485165,0.151263088,-0.03075860441,0.01797580719,2024-06-05 15:39:59.687485
7.727971623,0.1359503716,0.005725627299,-0.02250304818,2024-06-05 15:39:59.727972
7.768458134,0.09280842543,0.05312849581,-0.03794892505,2024-06-05 15:39:59.768458
7.8089473,0.0685743764,0.07603100687,-0.04007939249,2024-06-05 15:39:59.808947
7.8494598,0.0541937314,0.06644391268,-0.02463351376,2024-06-05 15:39:59.849460
7.889946259,0.01185071748,0.00599193573,0.02143781446,2024-06-05 15:39:59.889946
7.930413811,-0.02010627277,-0.06404713541,0.05019910634,2024-06-05 15:39:59.930414
7.970900269,-0.004127778113,-0.1213034093,0.09200949967,2024-06-05 15:39:59.970900
8.011354175,-0.01691057347,-0.159651801,0.09840089828,2024-06-05 15:40:00.011354
8.051840686,0.03608476743,-0.1942718774,0.06005251035,2024-06-05 15:40:00.051841
8.092327144,0.03928046674,-0.1932066381,0.04567186534,2024-06-05 15:40:00.092327
8.132805321,-0.004926702939,-0.1343525201,0.03981308267,2024-06-05 15:40:00.132805
8.173347561,-0.04753602296,-0.07390054315,0.02170412242,2024-06-05 15:40:00.173348
8.213833134,-0.08508548886,-0.0003994623839,0.03049229458,2024-06-05 15:40:00.213833
8.254318707,-0.1458037645,0.0464707911,0.003861469682,2024-06-05 15:40:00.254319
8.29480428,-0.01957365684,-0.07603100687,-0.008921326138,2024-06-05 15:40:00.294804
8.335289853,-0.004127778113,-0.1716356725,0.0621829778,2024-06-05 15:40:00.335290
8.375761259,-0.03209014609,-0.1692388952,0.1308905035,2024-06-05 15:40:00.375761
8.416228967,-0.07150376588,-0.141542837,0.08268871158,2024-06-05 15:40:00.416229
8.456671571,-0.133819893,-0.09760197252,0.0949388966,2024-06-05 15:40:00.456672
8.497235582,-0.1758965999,-0.1133141592,0.129292652,2024-06-05 15:40:00.497236
8.53772178,-0.1921414137,-0.1287600398,0.1633801162,2024-06-05 15:40:00.537722
8.578209332,-0.2118482143,-0.1559234858,0.1553908736,2024-06-05 15:40:00.578209
8.618693603,-0.2462019771,-0.1639127284,0.1599181145,2024-06-05 15:40:00.618694
8.65918303,-0.3045234978,-0.1316894293,0.1556571722,2024-06-05 15:40:00.659183
8.699642196,-0.3628450036,-0.1268958896,0.1772281379,2024-06-05 15:40:00.699642
8.740132457,-0.3665733039,-0.1612496525,0.1926740259,2024-06-05 15:40:00.740132
8.780618707,-0.3396761715,-0.2419410497,0.2121145278,2024-06-05 15:40:00.780619
8.821092665,-0.2746969759,-0.2680392563,0.2264951766,2024-06-05 15:40:00.821093
8.861584384,-0.2067883611,-0.2270277888,0.2113156021,2024-06-05 15:40:00.861584
8.902015113,-0.2065220475,-0.1884130985,0.1966686398,2024-06-05 15:40:00.902015
8.942545009,-0.2054568231,-0.07017222792,0.1450048387,2024-06-05 15:40:00.942545
8.983065061,-0.1529940963,-0.05818835273,0.1002650559,2024-06-05 15:40:00.983065
9.023491311,-0.05659050494,-0.1146457046,0.08987903595,2024-06-05 15:40:01.023491
9.064041311,0.001464695437,-0.1466026902,0.09360735118,2024-06-05 15:40:01.064041
9.104460686,0.009187635034,-0.1463363916,0.1005313694,2024-06-05 15:40:01.104461
9.145017717,-0.03182383627,-0.1423417628,0.08588441461,2024-06-05 15:40:01.145018
9.185498759,-0.0736342296,-0.1476679295,0.09014534205,2024-06-05 15:40:01.185499
9.2259773,-0.1013302878,-0.1175750941,0.07629731297,2024-06-05 15:40:01.225977
9.266463655,-0.1103847697,-0.07283531129,0.05978620425,2024-06-05 15:40:01.266464
9.306950061,-0.09387365729,-0.03262276202,0.04407401755,2024-06-05 15:40:01.306950
9.347436415,-0.05286218971,0.00599193573,0.01770949923,2024-06-05 15:40:01.347436
9.387922821,-0.0243672058,0.05312849581,-0.007589785382,2024-06-05 15:40:01.387923
9.428357092,0.02090519853,0.0685743764,-0.0352858454,2024-06-05 15:40:01.428357
9.468895269,0.06138405204,0.06165036187,-0.04620448127,2024-06-05 15:40:01.468895
9.509381675,0.08082455397,0.04034570232,-0.05685681105,2024-06-05 15:40:01.509382
9.549868342,0.0842865631,0.02223674022,-0.06138405204,2024-06-05 15:40:01.549868
9.590342925,0.07469946891,0.02063889056,-0.05339480564,2024-06-05 15:40:01.590343
9.630809175,0.06750914454,0.01557903271,-0.04753602296,2024-06-05 15:40:01.630809
9.671299957,0.06378082931,0.01797580719,-0.04460663348,2024-06-05 15:40:01.671300
9.711786311,0.0576557368,0.02995967865,-0.04434032366,2024-06-05 15:40:01.711786
9.752229592,0.05046541616,0.04434032366,-0.04434032366,2024-06-05 15:40:01.752230
9.7927698,0.0467370972,0.0464707911,-0.04087831825,2024-06-05 15:40:01.792770
9.833271155,0.04407401755,0.04061200842,-0.03768261895,2024-06-05 15:40:01.833271
9.873759436,0.03608476743,0.03022598661,-0.0323564522,2024-06-05 15:40:01.873759
9.914212509,0.02596505545,0.02250304818,-0.02596505545,2024-06-05 15:40:01.914213
9.954691884,0.01797580719,0.01504641678,-0.01930734888,2024-06-05 15:40:01.954692
9.995179228,0.01131810062,0.01238333434,-0.01478010789,2024-06-05 15:40:01.995179
10.03571251,0.003062544856,0.01158440951,-0.01078548469,2024-06-05 15:40:02.035713
10.07620001,-0.002263620263,0.01078548469,-0.009187635034,2024-06-05 15:40:02.076200
10.11668657,0.0003994623839,0.01557903271,-0.0003994623839,2024-06-05 15:40:02.116687
10.1571736,0.028361829,0.0275629051,0.04380770773,2024-06-05 15:40:02.157174
10.19765709,0.04620448127,0.03075860441,0.03395430371,2024-06-05 15:40:02.197657
10.23809162,0.04593817517,0.02543243766,0.01238333434,2024-06-05 15:40:02.238092
10.27862121,0.05339480564,0.0512643382,0.001198387123,2024-06-05 15:40:02.278621
10.31911735,0.06564498693,0.08322133124,0.006524552125,2024-06-05 15:40:02.319117
10.35960491,0.06804175675,0.09174319357,-0.007057168987,2024-06-05 15:40:02.359605
10.40007662,0.07896039635,0.1340862066,-0.0166442655,2024-06-05 15:40:02.400077
10.44054954,0.09200949967,0.2399437428,-0.02303566411,2024-06-05 15:40:02.440550
10.48103058,0.07576470077,0.3310211599,-0.0243672058,2024-06-05 15:40:02.481031
10.52151938,0.1501978636,0.408516854,-0.05818835273,2024-06-05 15:40:02.521519
10.56203063,0.248199299,0.4516588151,-0.1002650559,2024-06-05 15:40:02.562031
10.60251209,0.2961347699,0.3994623721,-0.04061200842,2024-06-05 15:40:02.602512
10.64298834,0.340608269,0.3294233084,-0.05153064802,2024-06-05 15:40:02.642988
10.68348011,0.3858806491,0.2276935577,-0.07416684926,2024-06-05 15:40:02.683480
10.72393683,0.4138430357,0.1210371032,-0.06298190355,2024-06-05 15:40:02.723937
10.76441912,0.4332835376,0.1482005417,-0.06351451576,2024-06-05 15:40:02.764419
10.80490475,0.441539079,0.1836195439,-0.04886756465,2024-06-05 15:40:02.804905
10.84540621,0.4884093404,0.1484668553,-0.003595161485,2024-06-05 15:40:02.845406
10.88591866,0.5102466345,0.1042596847,0.007856093347,2024-06-05 15:40:02.885919
10.92639725,0.4450010955,0.1103847697,-0.05872096866,2024-06-05 15:40:02.926397
10.96688975,0.3062545061,0.1106510833,-0.1378145218,2024-06-05 15:40:02.966890
11.00738392,0.1667089611,0.08535179496,-0.1772281379,2024-06-05 15:40:03.007384
11.04787256,0.1565892547,-0.007057168987,-0.2065220475,2024-06-05 15:40:03.047873
11.08836261,0.1372819096,-0.07896039635,-0.2485987544,2024-06-05 15:40:03.088363
11.1288485,0.137015596,-0.1221023351,-0.2693707943,2024-06-05 15:40:03.128849
11.16933121,0.158986032,-0.1782933772,-0.3017272651,2024-06-05 15:40:03.169331
11.20980725,0.1619154215,-0.1516625583,-0.2645772398,2024-06-05 15:40:03.209807
11.25028292,0.00998655986,-0.03635107726,-0.1822880059,2024-06-05 15:40:03.250283
11.29076673,-0.1226349548,-0.06537867337,-0.06750914454,2024-06-05 15:40:03.290767
11.33122996,-0.1940055639,-0.2499302924,0.0003994623839,2024-06-05 15:40:03.331230
11.37177272,-0.2893439233,-0.3756277859,0.1340862066,2024-06-05 15:40:03.371773
11.41224709,-0.4230306745,-0.5161054134,0.2555227578,2024-06-05 15:40:03.412247
11.45271074,-0.4501941204,-0.4921376705,0.3130453527,2024-06-05 15:40:03.452711
11.49319475,-0.415574044,-0.4010602236,0.3087844253,2024-06-05 15:40:03.493195
11.53370126,-0.4230306745,-0.3284912407,0.3306216896,2024-06-05 15:40:03.533701
11.57419855,-0.4557865858,-0.2760285139,0.3130453527,2024-06-05 15:40:03.574199
11.614651,-0.5067846179,-0.3117138147,0.3295564651,2024-06-05 15:40:03.614651
11.65512058,-0.5334154367,-0.2640446424,0.3414071798,2024-06-05 15:40:03.655121
11.69567084,-0.5232957006,-0.1841521561,0.3300890923,2024-06-05 15:40:03.695671
11.73613011,-0.4673709869,-0.1580539495,0.3183715343,2024-06-05 15:40:03.736130
11.77662569,-0.3950682878,-0.1721682847,0.2898765504,2024-06-05 15:40:03.776626
11.81711501,-0.3226324618,-0.2115819156,0.2547238469,2024-06-05 15:40:03.817115
11.8575974,-0.227560401,-0.2075872868,0.1761629134,2024-06-05 15:40:03.857597
11.89804938,-0.1343525201,-0.2254299372,0.1322220564,2024-06-05 15:40:03.898049
11.93850642,-0.08109086752,-0.2286256403,0.08268871158,2024-06-05 15:40:03.938506
11.97906116,-0.05179695413,-0.1892120093,0.04513924941,2024-06-05 15:40:03.979061
12.01951079,-0.01584534161,-0.1516625583,0.04407401755,2024-06-05 15:40:04.019511
12.0600072,0.04007939249,-0.1266295761,0.03954677656,2024-06-05 15:40:04.060007
12.10050418,0.08774857223,-0.09094426781,0.0171768833,2024-06-05 15:40:04.100504
12.14096162,0.1146457046,-0.02037258074,0.01850842312,2024-06-05 15:40:04.140962
12.18145376,0.1378145218,0.0323564522,0.05392742157,2024-06-05 15:40:04.181454
12.22195678,0.0952052027,0.1018629074,0.07603100687,2024-06-05 15:40:04.221957
12.26244011,0.1002650559,0.1649779677,0.04487293959,2024-06-05 15:40:04.262440
12.30293574,0.1167761683,0.2354165018,0.04940018058,2024-06-05 15:40:04.302936
12.34342808,0.09121058136,0.2703028917,0.01398118306,2024-06-05 15:40:04.343428
12.38385522,0.1061238423,0.2386122048,-0.0275629051,2024-06-05 15:40:04.383855
12.42434147,0.1399449855,0.2067883611,-0.06085143611,2024-06-05 15:40:04.424341
12.46483006,0.1866820902,0.1527277827,-0.1303578913,2024-06-05 15:40:04.464830
12.50531626,0.234617576,0.112781547,-0.1876141727,2024-06-05 15:40:04.505316
12.5458549,0.2609820962,0.1050586104,-0.2129134536,2024-06-05 15:40:04.545855
12.58631803,0.2724333405,0.1125152409,-0.2174406946,2024-06-05 15:40:04.586318
12.62683798,0.2737648785,0.117308788,-0.224897325,2024-06-05 15:40:04.626838
12.66725829,0.2750964165,0.1013302878,-0.2411421239,2024-06-05 15:40:04.667258
12.70784954,0.2484655976,0.05099803209,-0.264310956,2024-06-05 15:40:04.707850
12.74828923,0.2045247406,0.001997311832,-0.2998631001,2024-06-05 15:40:04.748289
12.78874918,0.1728340536,0.01957365684,-0.294803232,2024-06-05 15:40:04.788749
12.82926688,0.1600512564,0.09786828607,-0.2267614752,2024-06-05 15:40:04.829267
12.86975756,0.1707035899,0.1426080763,-0.1545919478,2024-06-05 15:40:04.869758
12.91023438,0.1882799417,0.1375482082,-0.1138467789,2024-06-05 15:40:04.910234
12.95065678,0.1818885356,0.1031944528,-0.1191729456,2024-06-05 15:40:04.950657
12.99117829,0.1478010863,0.09866721183,-0.15512456,2024-06-05 15:40:04.991178
13.03165558,0.1159772426,0.09760197252,-0.1657768935,2024-06-05 15:40:05.031656
13.07214397,0.08854749799,0.09254211932,-0.1434070021,2024-06-05 15:40:05.072144
13.11265303,0.07576470077,0.07230269164,-0.0949388966,2024-06-05 15:40:05.112653
13.15315022,0.0731016174,0.04247616604,-0.04726971686,2024-06-05 15:40:05.153150
13.19364813,0.04913387448,-0.003062544856,-0.02037258074,2024-06-05 15:40:05.193648
13.23413438,0.02596505545,-0.007589785382,-0.006524552125,2024-06-05 15:40:05.234134
13.27459782,-0.001731003635,-0.02330197208,0.000133154128,2024-06-05 15:40:05.274598
13.31506147,-0.01584534161,-0.03075860441,0.01291595027,2024-06-05 15:40:05.315061
13.35556032,-0.03129122034,-0.03075860441,0.03022598661,2024-06-05 15:40:05.355560
13.39606892,-0.03608476743,-0.03475322574,0.02969337068,2024-06-05 15:40:05.396069
13.43656449,-0.03395430371,-0.04300878197,0.01850842312,2024-06-05 15:40:05.436564
13.47700569,-0.04061200842,-0.0432750918,0.007856093347,2024-06-05 15:40:05.477006
13.51753298,-0.05499265343,-0.03182383627,0.00998655986,2024-06-05 15:40:05.517533
13.55802657,-0.06271559745,-0.02170412242,0.02143781446,2024-06-05 15:40:05.558027
13.59851058,-0.06191666797,-0.03395430371,0.03661738336,2024-06-05 15:40:05.598511
13.63897272,-0.06111774594,-0.04780233279,0.04780233279,2024-06-05 15:40:05.638973
13.67951574,-0.06884068251,-0.0544600375,0.05685681105,2024-06-05 15:40:05.679516
13.7199798,-0.08162347972,-0.05659050494,0.06564498693,2024-06-05 15:40:05.719980
13.76041386,-0.0842865631,-0.06324820966,0.07203638554,2024-06-05 15:40:05.760414
13.800891,-0.08908011019,-0.07390054315,0.07656362653,2024-06-05 15:40:05.800891
13.84138293,-0.09786828607,-0.08242240548,0.084020257,2024-06-05 15:40:05.841383
13.88186511,-0.112781547,-0.08215609938,0.08774857223,2024-06-05 15:40:05.881865
13.92235475,-0.1263632625,-0.07523208112,0.09360735118,2024-06-05 15:40:05.922355
13.9628436,-0.1351514459,-0.08242240548,0.1010639817,2024-06-05 15:40:05.962844
14.00335954,-0.1431406885,-0.08481918275,0.1018629074,2024-06-05 15:40:06.003360
14.04385438,-0.1556571722,-0.07842778414,0.1002650559,2024-06-05 15:40:06.043854
14.08432808,-0.1601844132,-0.08641702682,0.1146457046,2024-06-05 15:40:06.084328
14.12478933,-0.1521951705,-0.0904116556,0.1181077138,2024-06-05 15:40:06.124789
14.16526402,-0.137015596,-0.09680305421,0.118640326,2024-06-05 15:40:06.165264
14.20573725,-0.1271621883,-0.08748225868,0.1045259908,2024-06-05 15:40:06.205737
14.24626631,-0.123167567,-0.07177007198,0.08535179496,2024-06-05 15:40:06.246266
14.28677746,-0.1191729456,-0.06031882018,0.06005251035,2024-06-05 15:40:06.286777
14.32726584,-0.1119826213,-0.05206326395,0.04860125855,2024-06-05 15:40:06.327266
14.36775334,-0.09946613014,-0.04300878197,0.05951989442,2024-06-05 15:40:06.367753
14.40824032,-0.08295502514,-0.04780233279,0.06484606117,2024-06-05 15:40:06.408240
14.44872647,-0.06484606117,-0.0576557368,0.0683080703,2024-06-05 15:40:06.448726
14.48919491,-0.03954677656,-0.07523208112,0.06724283099,2024-06-05 15:40:06.489195
14.52967548,-0.02809552103,-0.06564498693,0.05579157919,2024-06-05 15:40:06.529675
14.57018334,-0.02410089783,-0.04620448127,0.03768261895,2024-06-05 15:40:06.570183
14.61064813,-0.02143781446,-0.02569874749,0.01877473295,2024-06-05 15:40:06.610648
14.65111501,-0.01744319126,-0.01238333434,0.002263620263,2024-06-05 15:40:06.651115
14.69159095,-0.01424749196,0.000133154128,-0.008388710208,2024-06-05 15:40:06.691591
14.73210933,-0.006790860556,0.01051917579,-0.02143781446,2024-06-05 15:40:06.732109
14.77256735,0.00599193573,0.004127778113,-0.02170412242,2024-06-05 15:40:06.772567
14.81311787,0.01211702544,-0.007057168987,-0.01637795754,2024-06-05 15:40:06.813118
14.85360381,0.008655018173,-0.01051917579,-0.0003994623839,2024-06-05 15:40:06.853604
14.8940898,-0.004394086078,-0.006258244161,0.01131810062,2024-06-05 15:40:06.894090
14.93451267,-0.01025286783,-0.005193010904,0.01451379992,2024-06-05 15:40:06.934513
14.9750548,-0.008655018173,-0.01025286783,0.01291595027,2024-06-05 15:40:06.975055
15.01554043,-0.005193010904,-0.01025286783,0.006790860556,2024-06-05 15:40:07.015540
15.0560235,0.000133154128,-0.01078548469,0.002529928461,2024-06-05 15:40:07.056024
15.09651126,0.007856093347,-0.008655018173,-0.003861469682,2024-06-05 15:40:07.096511
15.13699621,0.01025286783,-0.002796236658,-0.002263620263,2024-06-05 15:40:07.136996
15.17747944,0.01025286783,0.01611164957,0.004127778113,2024-06-05 15:40:07.177479
15.21796027,0.01797580719,0.03155753016,0.008388710208,2024-06-05 15:40:07.217960
15.25844673,0.03315537795,0.03661738336,0.001731003635,2024-06-05 15:40:07.258447
15.29893319,0.04194355011,0.04540555924,-0.01291595027,2024-06-05 15:40:07.298933
15.3394197,0.03581846133,0.04833494872,-0.03155753016,2024-06-05 15:40:07.339420
15.37990616,0.01344856713,0.06165036187,-0.03448691964,2024-06-05 15:40:07.379906
15.42035329,0.01291595027,0.07656362653,-0.01797580719,2024-06-05 15:40:07.420353
15.46086011,0.04007939249,0.08348763734,0.02489982173,2024-06-05 15:40:07.460860
15.50134657,0.05472634733,0.06910699606,0.04194355011,2024-06-05 15:40:07.501347
15.54183168,0.04966649041,0.02995967865,0.009720250964,2024-06-05 15:40:07.541832
15.58231761,0.03475322574,0.006790860556,-0.01797580719,2024-06-05 15:40:07.582318
15.6228035,0.02649767138,0.007057168987,-0.03022598661,2024-06-05 15:40:07.622803
15.66329621,0.01691057347,0.008388710208,-0.01957365684,2024-06-05 15:40:07.663296
15.70380366,0.003328853287,0.0006657706108,-0.006790860556,2024-06-05 15:40:07.703804
15.74428954,-0.000133154128,-0.02330197208,-0.01504641678,2024-06-05 15:40:07.744290
15.78477923,0.000133154128,-0.02063889056,-0.02942706272,2024-06-05 15:40:07.784779
15.82526506,-0.004394086078,-0.008921326138,-0.03422060981,2024-06-05 15:40:07.825265
15.86575095,-0.009453942999,0.002796236658,-0.02543243766,2024-06-05 15:40:07.865751
15.90623688,-0.009453942999,0.003595161485,-0.009187635034,2024-06-05 15:40:07.906237
15.94664709,-0.001198387123,-0.005725627299,0.000932078925,2024-06-05 15:40:07.946647
15.98721355,0.0003994623839,-0.007323476952,0.004660394508,2024-06-05 15:40:07.987214
16.02769923,-0.003062544856,-0.005193010904,0.000133154128,2024-06-05 15:40:08.027699
16.06818834,-0.006790860556,0.003595161485,-0.001997311832,2024-06-05 15:40:08.068188
16.10867152,-0.005459319334,0.01158440951,-0.007856093347,2024-06-05 15:40:08.108672
16.14915803,-0.005459319334,0.01451379992,-0.01398118306,2024-06-05 15:40:08.149158
16.18964339,-0.003328853287,0.006524552125,-0.01478010789,2024-06-05 15:40:08.189643
16.23010699,0.000133154128,0.004127778113,-0.01211702544,2024-06-05 15:40:08.230107
16.27060616,-0.0003994623839,-0.001997311832,-0.002796236658,2024-06-05 15:40:08.270606
16.31108032,-0.002529928461,-0.01051917579,0.002529928461,2024-06-05 15:40:08.311080
16.35154162,-0.001997311832,-0.01371487509,0.006524552125,2024-06-05 15:40:08.351542
16.39202808,0.002529928461,-0.01584534161,0.008921326138,2024-06-05 15:40:08.392028
16.43248183,0.002263620263,-0.008921326138,0.005725627299,2024-06-05 15:40:08.432482
16.47304543,-0.001731003635,0.0006657706108,-0.0003994623839,2024-06-05 15:40:08.473045
16.51354579,-0.00599193573,0.009187635034,-0.008388710208,2024-06-05 15:40:08.513546
16.55402136,-0.01105179265,0.01611164957,-0.01158440951,2024-06-05 15:40:08.554021
16.5945123,-0.00998655986,0.01478010789,-0.008122402243,2024-06-05 15:40:08.594512
16.63496089,-0.007323476952,0.007589785382,-0.001997311832,2024-06-05 15:40:08.634961
16.67547964,-0.006524552125,0.003328853287,0.003062544856,2024-06-05 15:40:08.675480
16.71596621,-0.001997311832,0.001464695437,0.003861469682,2024-06-05 15:40:08.715966
16.75645282,0.00599193573,0.001997311832,0.0006657706108,2024-06-05 15:40:08.756453
16.79694329,0.01611164957,-0.009187635034,-0.004926702939,2024-06-05 15:40:08.796943
16.83742985,0.0171768833,-0.01318225823,-0.005459319334,2024-06-05 15:40:08.837430
16.87790985,0.01371487509,-0.01051917579,-0.006790860556,2024-06-05 15:40:08.877910
16.91839642,0.004926702939,-0.001198387123,-0.004926702939,2024-06-05 15:40:08.918396
16.95887475,-0.01051917579,0.008388710208,-0.0003994623839,2024-06-05 15:40:08.958875
16.9993723,-0.01904104091,0.008921326138,0.006258244161,2024-06-05 15:40:08.999372
17.03984944,-0.01770949923,0.00599193573,0.007057168987,2024-06-05 15:40:09.039849
17.08032266,-0.006790860556,-0.003328853287,0.002796236658,2024-06-05 15:40:09.080323
17.12078996,0.004394086078,-0.01238333434,0.0003994623839,2024-06-05 15:40:09.120790
17.16128584,0.003861469682,-0.004926702939,0.0006657706108,2024-06-05 15:40:09.161286
17.20175147,0.000133154128,0.004660394508,-0.004660394508,2024-06-05 15:40:09.201751
17.24227438,-0.001198387123,0.005193010904,-0.007856093347,2024-06-05 15:40:09.242274
17.28276095,-0.008655018173,0.007589785382,-0.00998655986,2024-06-05 15:40:09.282761
17.32324751,-0.009453942999,0.006258244161,-0.008122402243,2024-06-05 15:40:09.323248
17.36374256,-0.002796236658,-0.001731003635,-0.004660394508,2024-06-05 15:40:09.363743
17.40424194,-0.006524552125,0.003062544856,-0.004127778113,2024-06-05 15:40:09.404242
17.4446673,-0.003861469682,0.009187635034,-0.01025286783,2024-06-05 15:40:09.444667
17.48517912,-0.002796236658,0.0126496423,-0.01131810062,2024-06-05 15:40:09.485179
17.52569678,-0.01025286783,0.01930734888,-0.007589785382,2024-06-05 15:40:09.525697
17.56617876,-0.008655018173,0.01983996481,-0.006258244161,2024-06-05 15:40:09.566179
17.60666839,-0.005193010904,0.02223674022,0.000932078925,2024-06-05 15:40:09.606668
17.64716074,0.02676397935,0.03022598661,0.03315537795,2024-06-05 15:40:09.647161
17.68762657,0.04487293959,0.04460663348,0.0541937314,2024-06-05 15:40:09.687627
17.72811303,0.05339480564,0.04061200842,0.03022598661,2024-06-05 15:40:09.728113
17.76859954,0.05472634733,0.0432750918,0.007856093347,2024-06-05 15:40:09.768600
17.80907938,0.0621829778,0.04487293959,-0.006258244161,2024-06-05 15:40:09.809079
17.84955657,0.06378082931,0.07816147059,-0.004926702939,2024-06-05 15:40:09.849557
17.89004298,0.06537867337,0.07869409025,-0.01611164957,2024-06-05 15:40:09.890043
17.93055839,0.07816147059,0.08508548886,-0.02410089783,2024-06-05 15:40:09.930558
17.97105517,0.09627043456,0.07150376588,-0.05259587988,2024-06-05 15:40:09.971055
18.01146433,0.1135804728,0.07975932211,-0.07390054315,2024-06-05 15:40:10.011464
18.05202558,0.1221023351,0.07523208112,-0.08987903595,2024-06-05 15:40:10.052026
18.09250954,0.1221023351,0.06884068251,-0.09840089828,2024-06-05 15:40:10.092510
18.1329935,0.1221023351,0.06591129303,-0.09973244369,2024-06-05 15:40:10.132994
18.17348506,0.1175750941,0.05845466256,-0.1079879999,2024-06-05 15:40:10.173485
18.21395584,0.1226349548,0.0621829778,-0.1119826213,2024-06-05 15:40:10.213956
18.2544422,0.1388797611,0.06457975507,-0.1015966013,2024-06-05 15:40:10.254442
18.29494459,0.1472684592,0.06511236727,-0.09706936032,2024-06-05 15:40:10.294945
18.33542782,0.138347134,0.05366111174,-0.1071890742,2024-06-05 15:40:10.335428
18.37588371,0.1258306503,0.05099803209,-0.1239664927,2024-06-05 15:40:10.375884
18.41638199,0.1085206121,0.0355521515,-0.1284937263,2024-06-05 15:40:10.416382
18.45688355,0.07682993263,0.02170412242,-0.1268958896,2024-06-05 15:40:10.456884
18.49735589,0.04061200842,-0.005459319334,-0.1154446304,2024-06-05 15:40:10.497356
18.53782016,-0.000932078925,-0.02250304818,-0.08162347972,2024-06-05 15:40:10.537820
18.57832824,-0.03635107726,-0.01238333434,-0.04061200842,2024-06-05 15:40:10.578328
18.61878652,-0.06271559745,-0.01451379992,-0.01078548469,2024-06-05 15:40:10.618787
18.65925235,-0.07842778414,-0.02303566411,0.007856093347,2024-06-05 15:40:10.659252
18.69981142,-0.08029194176,-0.05366111174,0.01770949923,2024-06-05 15:40:10.699811
18.7402972,-0.0733679235,-0.07390054315,0.01478010789,2024-06-05 15:40:10.740297
18.7807823,-0.07150376588,-0.07390054315,0.01371487509,2024-06-05 15:40:10.780782
18.82127303,-0.0733679235,-0.0621829778,0.02703028731,2024-06-05 15:40:10.821273
18.86175506,-0.0733679235,-0.06111774594,0.0512643382,2024-06-05 15:40:10.861755
18.90224084,-0.07123745978,-0.05605788901,0.0544600375,2024-06-05 15:40:10.902241
18.94272579,-0.06990591437,-0.05712312087,0.0573894307,2024-06-05 15:40:10.942726
18.9832148,-0.07576470077,-0.05019910634,0.05898727849,2024-06-05 15:40:10.983215
19.02369235,-0.09227581322,-0.04087831825,0.06085143611,2024-06-05 15:40:11.023692
19.06418876,-0.1058575287,-0.04913387448,0.07123745978,2024-06-05 15:40:11.064189
19.1046723,-0.103727065,-0.05552527308,0.07603100687,2024-06-05 15:40:11.104672
19.14516397,-0.09440627694,-0.06750914454,0.07523208112,2024-06-05 15:40:11.145164
19.18564876,-0.08242240548,-0.06804175675,0.07443315536,2024-06-05 15:40:11.185649
19.2261148,-0.06697652489,-0.06111774594,0.0731016174,2024-06-05 15:40:11.226115
19.2665861,-0.0541937314,-0.07017222792,0.06271559745,2024-06-05 15:40:11.266586
19.30707303,-0.04886756465,-0.06324820966,0.05179695413,2024-06-05 15:40:11.307073
19.34759938,-0.04487293959,-0.05259587988,0.04726971686,2024-06-05 15:40:11.347599
19.38804798,-0.04141093418,-0.03928046674,0.04540555924,2024-06-05 15:40:11.388048
19.4285535,-0.04220985994,-0.0275629051,0.03821523488,2024-06-05 15:40:11.428553
19.46902152,-0.03741630912,-0.0171768833,0.02596505545,2024-06-05 15:40:11.469022
19.50952063,-0.03635107726,-0.01105179265,0.01691057347,2024-06-05 15:40:11.509521
19.55001824,-0.03395430371,-0.005459319334,0.01744319126,2024-06-05 15:40:11.550018
19.59050866,-0.03315537795,0.001464695437,0.01744319126,2024-06-05 15:40:11.590509
19.63095313,-0.02969337068,0.0126496423,0.01398118306,2024-06-05 15:40:11.630953
19.67147433,-0.01025286783,0.01158440951,0.004394086078,2024-06-05 15:40:11.671474
19.71197194,0.005193010904,0.004926702939,-0.0126496423,2024-06-05 15:40:11.711972
19.7524449,0.01637795754,0.002529928461,-0.01983996481,2024-06-05 15:40:11.752445
19.79294496,0.02063889056,-0.001464695437,-0.01744319126,2024-06-05 15:40:11.792945
19.83343464,0.01904104091,-0.01025286783,-0.007589785382,2024-06-05 15:40:11.833435
19.87391787,0.009453942999,-0.01531272475,0.001198387123,2024-06-05 15:40:11.873918
19.91440532,-0.007589785382,-0.01238333434,0.005725627299,2024-06-05 15:40:11.914405
19.95487933,-0.01957365684,-0.007323476952,0.01531272475,2024-06-05 15:40:11.954879
19.99535647,-0.0243672058,-0.002529928461,0.01637795754,2024-06-05 15:40:11.995356
20.03586516,-0.0166442655,0.004660394508,0.008122402243,2024-06-05 15:40:12.035865
20.07634324,-0.008388710208,0.01105179265,-0.005193010904,2024-06-05 15:40:12.076343
20.11680824,0.000932078925,0.0171768833,-0.01478010789,2024-06-05 15:40:12.116808
20.15730089,0.005193010904,0.01531272475,-0.01983996481,2024-06-05 15:40:12.157301
20.19782277,0.003062544856,0.008388710208,-0.01557903271,2024-06-05 15:40:12.197823
20.23830298,0.003328853287,-0.003861469682,-0.004926702939,2024-06-05 15:40:12.238303
20.27876902,-0.001997311832,-0.01424749196,0.006790860556,2024-06-05 15:40:12.278769
20.31924782,-0.006258244161,-0.01850842312,0.01318225823,2024-06-05 15:40:12.319248
20.35974334,-0.005459319334,-0.01557903271,0.01025286783,2024-06-05 15:40:12.359743
20.40023454,-0.008122402243,-0.008388710208,0.007589785382,2024-06-05 15:40:12.400235
20.44072188,-0.005725627299,0.001997311832,0.0003994623839,2024-06-05 15:40:12.440722
20.48120225,-0.00998655986,0.01424749196,-0.004926702939,2024-06-05 15:40:12.481202
20.52168261,-0.01078548469,0.02197043039,-0.004660394508,2024-06-05 15:40:12.521683
20.56217006,-0.009187635034,0.02330197208,-0.00599193573,2024-06-05 15:40:12.562170
20.60266886,-0.004926702939,0.0126496423,-0.003062544856,2024-06-05 15:40:12.602669
20.64311553,0.001464695437,-0.000932078925,0.001464695437,2024-06-05 15:40:12.643116
20.68367001,0.001731003635,-0.01344856713,0.005725627299,2024-06-05 15:40:12.683670
20.72412923,-0.003861469682,-0.01451379992,0.01025286783,2024-06-05 15:40:12.724129
20.76461657,-0.008122402243,-0.01398118306,0.01051917579,2024-06-05 15:40:12.764617
20.80510991,-0.005193010904,-0.01158440951,0.008388710208,2024-06-05 15:40:12.805110
20.84555636,-0.003328853287,-0.005459319334,0.003328853287,2024-06-05 15:40:12.845556
20.88606183,-0.000932078925,0.003861469682,-0.006524552125,2024-06-05 15:40:12.886062
20.92655532,0.0006657706108,0.007856093347,-0.01078548469,2024-06-05 15:40:12.926555
20.96706027,0.001997311832,0.004394086078,-0.008921326138,2024-06-05 15:40:12.967060
21.00755225,0.0006657706108,0.001731003635,-0.00599193573,2024-06-05 15:40:13.007552
21.04804069,0.0003994623839,-0.005725627299,-0.000932078925,2024-06-05 15:40:13.048041
21.08843876,-0.000932078925,-0.01051917579,0.003062544856,2024-06-05 15:40:13.088439
21.1289922,-0.002263620263,-0.01185071748,0.005193010904,2024-06-05 15:40:13.128992
21.16947355,-0.001464695437,-0.01238333434,0.00599193573,2024-06-05 15:40:13.169474
21.20996584,-0.004660394508,-0.00599193573,0.004127778113,2024-06-05 15:40:13.209966
21.25044975,-0.01424749196,0.001997311832,0.005193010904,2024-06-05 15:40:13.250450
21.29095006,-0.02676397935,0.01291595027,0.01371487509,2024-06-05 15:40:13.290950
21.33143699,-0.04167724028,0.03368799388,0.0126496423,2024-06-05 15:40:13.331437
21.37192017,-0.03422060981,0.03768261895,0.01238333434,2024-06-05 15:40:13.371920
21.41240423,-0.0355521515,0.03928046674,0.007323476952,2024-06-05 15:40:13.412404
21.45287339,-0.02063889056,0.05019910634,-0.02117150649,2024-06-05 15:40:13.452873
21.49336532,0.001731003635,0.02942706272,-0.03129122034,2024-06-05 15:40:13.493365
21.53386501,0.0126496423,0.005725627299,-0.01930734888,2024-06-05 15:40:13.533865
21.57435246,-0.003062544856,0.008921326138,-0.01504641678,2024-06-05 15:40:13.574352
21.61484256,0.02703028731,-0.03661738336,0.006258244161,2024-06-05 15:40:13.614843
21.65526162,-0.0126496423,-0.02596505545,0.01344856713,2024-06-05 15:40:13.655262
21.69583694,-0.004394086078,-0.01983996481,0.01131810062,2024-06-05 15:40:13.695837
21.73626392,-0.008122402243,-0.02250304818,0.01850842312,2024-06-05 15:40:13.736264
21.77678589,-0.02543243766,0.005193010904,0.0171768833,2024-06-05 15:40:13.776786
21.81725616,-0.02276935615,0.01344856713,0.004660394508,2024-06-05 15:40:13.817256
21.85773704,-0.02010627277,0.01584534161,0.0006657706108,2024-06-05 15:40:13.857737
21.89824881,-0.02090519853,0.01584534161,0.004926702939,2024-06-05 15:40:13.898249
21.93868402,-0.003595161485,0.01877473295,0.01504641678,2024-06-05 15:40:13.938684
21.97921105,0.06644391268,0.05286218971,0.09307473898,2024-06-05 15:40:13.979211
22.01970001,0.1375482082,0.09254211932,0.1695052087,2024-06-05 15:40:14.019700
22.06020605,0.1565892547,0.1378145218,0.108254306,2024-06-05 15:40:14.060206
22.10066767,0.132488355,0.2242315561,0.02649767138,2024-06-05 15:40:14.100668
22.14113464,0.123167567,0.2836183012,-0.01691057347,2024-06-05 15:40:14.141135
22.18163178,0.117308788,0.2868140042,-0.03155753016,2024-06-05 15:40:14.181632
22.22214371,0.1013302878,0.1900109351,-0.04247616604,2024-06-05 15:40:14.222144
22.26261704,0.1026618332,0.04620448127,-0.03155753016,2024-06-05 15:40:14.262617
22.30311683,0.138347134,-0.03874785081,-0.02916075476,2024-06-05 15:40:14.303117
22.34360204,0.1613828093,-0.0006657706108,-0.0683080703,2024-06-05 15:40:14.343602
22.38408886,0.2013290375,0.03262276202,-0.1181077138,2024-06-05 15:40:14.384089
22.42457292,0.2026605755,0.06431344151,-0.153793022,2024-06-05 15:40:14.424573
22.46506339,0.1845516264,0.1077216864,-0.1676410437,2024-06-05 15:40:14.465063
22.50553392,0.1973344237,0.1327546686,-0.1737661362,2024-06-05 15:40:14.505534
22.54603423,0.1933397949,0.1442059278,-0.1894783229,2024-06-05 15:40:14.546034
22.5865011,0.1954702586,0.1404775977,-0.2038589716,2024-06-05 15:40:14.586501
22.62699772,0.1890788674,0.1199718714,-0.2158428431,2024-06-05 15:40:14.626998
22.6674923,0.1925408691,0.08295502514,-0.2075872868,2024-06-05 15:40:14.667492
22.70801954,0.1965354979,0.04141093418,-0.1932066381,2024-06-05 15:40:14.708020
22.7484635,0.2055899799,0.02862813696,-0.1806901544,2024-06-05 15:40:14.748463
22.78891126,0.2127802968,0.03262276202,-0.1727008969,2024-06-05 15:40:14.788911
22.82940402,0.2061225921,0.06138405204,-0.1561897993,2024-06-05 15:40:14.829404
22.86991037,0.1824211627,0.07549838722,-0.1330209672,2024-06-05 15:40:14.869910
22.91042798,0.141542837,0.06564498693,-0.1135804728,2024-06-05 15:40:14.910428
22.95090548,0.1194392517,0.06244928762,-0.1031944528,2024-06-05 15:40:14.950905
22.99136527,0.0949388966,0.04940018058,-0.1090532318,2024-06-05 15:40:14.991365
23.03186183,0.06085143611,0.04780233279,-0.09919982404,2024-06-05 15:40:15.031862
23.07236397,0.02516612969,0.01371487509,-0.08881380409,2024-06-05 15:40:15.072364
23.1128472,-0.02223674022,-0.03368799388,-0.05978620425,2024-06-05 15:40:15.112847
23.15333694,-0.07256899774,-0.08215609938,-0.01318225823,2024-06-05 15:40:15.153337
23.19382595,-0.1039933711,-0.1026618332,0.04540555924,2024-06-05 15:40:15.193826
23.23429522,-0.1260969639,-0.1247654185,0.08029194176,2024-06-05 15:40:15.234295
23.2747847,-0.1455374658,-0.1452711523,0.1042596847,2024-06-05 15:40:15.274785
23.3152799,-0.1543256342,-0.1434070021,0.1087869257,2024-06-05 15:40:15.315280
23.35575662,-0.1727008969,-0.141542837,0.1114500016,2024-06-05 15:40:15.355757
23.39622501,-0.2097177505,-0.133819893,0.1282274276,2024-06-05 15:40:15.396225
23.43671652,-0.2459356785,-0.1404775977,0.1500647068,2024-06-05 15:40:15.436717
23.47721636,-0.2770937383,-0.1489994675,0.1727008969,2024-06-05 15:40:15.477216
23.51770063,-0.3055887222,-0.1585865617,0.1905435622,2024-06-05 15:40:15.517701
23.55818261,-0.3220998347,-0.1769618392,0.2099840641,2024-06-05 15:40:15.558183
23.59864813,-0.3255618513,-0.2027937323,0.2334191799,2024-06-05 15:40:15.598648
23.63913251,-0.3186378181,-0.224897325,0.2549901605,2024-06-05 15:40:15.639133
23.67968741,-0.3111811876,-0.2416747361,0.2661750913,2024-06-05 15:40:15.679687
23.72017136,-0.3055887222,-0.2432725877,0.2661750913,2024-06-05 15:40:15.720171
23.76059558,-0.3119801283,-0.2291582525,0.2664414048,2024-06-05 15:40:15.760596
23.80109855,-0.3111811876,-0.2089188248,0.2605826259,2024-06-05 15:40:15.801099
23.84161105,-0.3053224087,-0.1982664913,0.248865068,2024-06-05 15:40:15.841611
23.88209668,-0.2904091477,-0.1961360276,0.239810586,2024-06-05 15:40:15.882097
23.92257991,-0.2781589627,-0.1857500076,0.2299571782,2024-06-05 15:40:15.922580
23.96306569,-0.2616478503,-0.1772281379,0.220370084,2024-06-05 15:40:15.963066
24.00354714,-0.2509955168,-0.1615159512,0.1990654171,2024-06-05 15:40:16.003547
24.04403985,-0.2382127345,-0.1479342431,0.1801575422,2024-06-05 15:40:16.044040
24.08452683,-0.2225005478,-0.133819893,0.1612496525,2024-06-05 15:40:16.084527
24.12501235,-0.2083862126,-0.1125152409,0.1407439113,2024-06-05 15:40:16.125012
24.16549975,-0.1284937263,-0.1359503716,0.109585844,2024-06-05 15:40:16.165500
24.20598824,-0.09760197252,-0.1308905035,0.09307473898,2024-06-05 15:40:16.205988
24.24647392,-0.04061200842,-0.09786828607,0.05312849581,2024-06-05 15:40:16.246474
24.28693188,0.0275629051,-0.04886756465,0.006790860556,2024-06-05 15:40:16.286932
24.32744553,0.02596505545,0.007323476952,-0.006258244161,2024-06-05 15:40:16.327446
24.36791902,0.03475322574,0.05552527308,-0.02463351376,2024-06-05 15:40:16.367919
24.40841147,0.05046541616,0.08908011019,-0.03794892505,2024-06-05 15:40:16.408411
24.44885636,0.06324820966,0.1039933711,-0.04434032366,2024-06-05 15:40:16.448856
24.48940063,0.05632419512,0.1103847697,-0.04700340703,2024-06-05 15:40:16.489401
24.52986964,0.06564498693,0.07203638554,-0.05179695413,2024-06-05 15:40:16.529870
24.57031803,0.07256899774,0.03741630912,-0.05312849581,2024-06-05 15:40:16.570318
24.61084006,0.07443315536,0.02596505545,-0.05872096866,2024-06-05 15:40:16.610840
24.65127866,0.07469946891,0.02010627277,-0.05712312087,2024-06-05 15:40:16.651279
24.69183688,0.04487293959,0.04780233279,-0.05366111174,2024-06-05 15:40:16.691837
24.73229918,0.03448691964,0.05499265343,-0.0512643382,2024-06-05 15:40:16.732299
24.77280464,0.03475322574,0.05046541616,-0.04833494872,2024-06-05 15:40:16.772805
24.81329042,0.03501953557,0.04087831825,-0.03928046674,2024-06-05 15:40:16.813290
24.85377423,0.02729659714,0.02596505545,-0.02516612969,2024-06-05 15:40:16.853774
24.89425761,0.02276935615,0.01318225823,-0.009453942999,2024-06-05 15:40:16.894258
24.93474652,0.01877473295,-0.003861469682,0.003328853287,2024-06-05 15:40:16.934747
24.97520089,0.008921326138,-0.007323476952,0.01078548469,2024-06-05 15:40:16.975201
25.0157199,-0.0003994623839,-0.009720250964,0.01371487509,2024-06-05 15:40:17.015720
25.05620678,-0.004127778113,-0.007589785382,0.009720250964,2024-06-05 15:40:17.056207
25.09667532,-0.007589785382,-0.003328853287,0.000932078925,2024-06-05 15:40:17.096675
25.13719584,-0.007856093347,0.001997311832,-0.00998655986,2024-06-05 15:40:17.137196
25.1776711,0.002263620263,0.004394086078,-0.02516612969,2024-06-05 15:40:17.177671
25.21816152,0.007589785382,0.005193010904,-0.03129122034,2024-06-05 15:40:17.218162
25.25863662,0.01105179265,0.003861469682,-0.02543243766,2024-06-05 15:40:17.258637
25.29911464,0.007856093347,0.005193010904,-0.01398118306,2024-06-05 15:40:17.299115
25.33961136,0.000133154128,0.005459319334,-0.000133154128,2024-06-05 15:40:17.339611
25.38008803,-0.003595161485,0.004127778113,0.01025286783,2024-06-05 15:40:17.380088
25.42056975,-0.009187635034,-0.004127778113,0.02037258074,2024-06-05 15:40:17.420570
25.46106803,-0.007856093347,-0.005459319334,0.02063889056,2024-06-05 15:40:17.461068
25.50155267,-0.009187635034,-0.003595161485,0.01451379992,2024-06-05 15:40:17.501553
25.5420497,0.0003994623839,-0.01105179265,0.01051917579,2024-06-05 15:40:17.542050
25.5825335,-0.004926702939,-0.004660394508,0.0003994623839,2024-06-05 15:40:17.582534
25.62301824,-0.0126496423,0.01344856713,-0.01025286783,2024-06-05 15:40:17.623018
25.66343892,-0.004660394508,0.0352858454,0.0003994623839,2024-06-05 15:40:17.663439
25.7040048,0.01025286783,0.05525896326,0.02489982173,2024-06-05 15:40:17.704005
25.74448277,0.03155753016,0.04220985994,0.0006657706108,2024-06-05 15:40:17.744483
25.78497152,0.03182383627,0.02516612969,-0.01637795754,2024-06-05 15:40:17.784972
25.82545334,0.02010627277,0.01158440951,-0.0171768833,2024-06-05 15:40:17.825453
25.86590063,0.01478010789,0.01131810062,0.004660394508,2024-06-05 15:40:17.865901
25.90640548,0.01211702544,0.007057168987,0.03928046674,2024-06-05 15:40:17.906405
25.94691173,0.0166442655,-0.004660394508,0.04407401755,2024-06-05 15:40:17.946912
25.98739751,0.02010627277,-0.00998655986,0.01904104091,2024-06-05 15:40:17.987398
26.02786772,0.01611164957,0.002529928461,-0.01025286783,2024-06-05 15:40:18.027868
26.06837136,0.01877473295,0.02729659714,-0.02276935615,2024-06-05 15:40:18.068371
26.10885834,0.028361829,0.03608476743,-0.02037258074,2024-06-05 15:40:18.108858
26.14935308,0.04087831825,0.0432750918,-0.02649767138,2024-06-05 15:40:18.149353
26.18985501,0.04886756465,0.04700340703,-0.03075860441,2024-06-05 15:40:18.189855
26.23032105,0.05685681105,0.05046541616,-0.02383458801,2024-06-05 15:40:18.230321
26.27078897,0.06537867337,0.04860125855,-0.01850842312,2024-06-05 15:40:18.270789
26.31126548,0.0683080703,0.0573894307,-0.01957365684,2024-06-05 15:40:18.311265
26.35176553,0.07629731297,0.04487293959,-0.0275629051,2024-06-05 15:40:18.351766
26.39227074,0.07816147059,0.04833494872,-0.0323564522,2024-06-05 15:40:18.392271
26.43275652,0.07496577501,0.04620448127,-0.04780233279,2024-06-05 15:40:18.432757
26.47321303,0.06963960826,0.04300878197,-0.06271559745,2024-06-05 15:40:18.473213
26.51372142,0.06484606117,0.03661738336,-0.07549838722,2024-06-05 15:40:18.513721
26.55422011,0.06617759913,0.03501953557,-0.06990591437,2024-06-05 15:40:18.554220
26.59470787,0.06165036187,0.03448691964,-0.05712312087,2024-06-05 15:40:18.594708
26.63517011,0.04913387448,0.0432750918,-0.06644391268,2024-06-05 15:40:18.635170
26.67565839,0.04087831825,0.04833494872,-0.08162347972,2024-06-05 15:40:18.675658
26.71617089,0.03342168778,0.03928046674,-0.09254211932,2024-06-05 15:40:18.716171
26.75662287,0.02010627277,0.02703028731,-0.0949388966,2024-06-05 15:40:18.756623
26.79713647,0.01318225823,0.006524552125,-0.07762885839,2024-06-05 15:40:18.797136
26.83762058,0.00998655986,-0.007589785382,-0.04886756465,2024-06-05 15:40:18.837621
26.87808938,0.009187635034,-0.01424749196,-0.0171768833,2024-06-05 15:40:18.878089
26.91856792,0.007589785382,-0.01238333434,0.003328853287,2024-06-05 15:40:18.918568
26.9590511,0.004660394508,-0.01344856713,0.008655018173,2024-06-05 15:40:18.959051
26.99954819,0.002263620263,-0.02010627277,0.005459319334,2024-06-05 15:40:18.999548
27.04004074,-0.002529928461,-0.02117150649,0.01051917579,2024-06-05 15:40:19.040041
27.0805322,-0.009187635034,-0.01211702544,0.01504641678,2024-06-05 15:40:19.080532
27.12100756,-0.01531272475,0.0006657706108,0.01105179265,2024-06-05 15:40:19.121008
27.16146079,-0.008921326138,0.003328853287,0.000133154128,2024-06-05 15:40:19.161461
27.20196735,-0.0003994623839,0.0003994623839,-0.007323476952,2024-06-05 15:40:19.201967
27.24248168,0.002529928461,0.003062544856,-0.005725627299,2024-06-05 15:40:19.242482
27.28297605,-0.0003994623839,0.001731003635,-0.003861469682,2024-06-05 15:40:19.282976
27.32346579,-0.003328853287,-0.002796236658,0.004127778113,2024-06-05 15:40:19.323466
27.36395084,-0.006790860556,-0.009720250964,0.007589785382,2024-06-05 15:40:19.363951
27.40443584,-0.008122402243,-0.007856093347,0.005459319334,2024-06-05 15:40:19.404436
27.44492194,-0.004660394508,-0.003328853287,0.001464695437,2024-06-05 15:40:19.444922
27.48540386,-0.001997311832,0.003062544856,-0.004660394508,2024-06-05 15:40:19.485404
27.52589266,-0.0006657706108,0.01424749196,-0.009453942999,2024-06-05 15:40:19.525893
27.5663711,-0.002529928461,0.01957365684,-0.008921326138,2024-06-05 15:40:19.566371
27.60682256,-0.001997311832,0.0126496423,-0.005459319334,2024-06-05 15:40:19.606823
27.64733688,-0.0006657706108,-0.001731003635,0.001198387123,2024-06-05 15:40:19.647337
27.68787433,0.001198387123,-0.01824211515,0.00599193573,2024-06-05 15:40:19.687874
27.72829032,-0.0006657706108,-0.02356828004,0.007323476952,2024-06-05 15:40:19.728290
27.76878855,-0.003328853287,-0.02117150649,0.007057168987,2024-06-05 15:40:19.768789
27.80925709,-0.006524552125,-0.01158440951,0.003861469682,2024-06-05 15:40:19.809257
27.84976235,-0.0003994623839,-0.006790860556,-0.000932078925,2024-06-05 15:40:19.849762
27.89027402,0.006790860556,-0.002529928461,-0.009187635034,2024-06-05 15:40:19.890274
27.93069558,0.01131810062,-0.001731003635,-0.01371487509,2024-06-05 15:40:19.930696
27.97121496,0.007856093347,-0.000133154128,-0.0166442655,2024-06-05 15:40:19.971215
28.01169725,0.003328853287,0.0006657706108,-0.01371487509,2024-06-05 15:40:20.011697
28.05221501,-0.000932078925,-0.003328853287,-0.007323476952,2024-06-05 15:40:20.052215
28.09271662,-0.001997311832,-0.00599193573,-0.004127778113,2024-06-05 15:40:20.092717
28.13316772,-0.003595161485,-0.00599193573,-0.003595161485,2024-06-05 15:40:20.133168
28.17368996,-0.003328853287,-0.002263620263,-0.004926702939,2024-06-05 15:40:20.173690
28.21416511,-0.002263620263,-0.002263620263,-0.003062544856,2024-06-05 15:40:20.214165
28.25465032,-0.001198387123,0.003595161485,-0.006790860556,2024-06-05 15:40:20.254650
28.29514902,0.001731003635,0.003328853287,-0.009453942999,2024-06-05 15:40:20.295149
28.33564016,0.005193010904,-0.001731003635,-0.005725627299,2024-06-05 15:40:20.335640
28.37612563,0.002263620263,-0.002263620263,-0.003595161485,2024-06-05 15:40:20.376126
28.41659011,-0.003328853287,0.003595161485,-0.003062544856,2024-06-05 15:40:20.416590
28.45705444,-0.009453942999,0.0126496423,-0.003595161485,2024-06-05 15:40:20.457054
28.49755662,-0.01051917579,0.01451379992,-0.002529928461,2024-06-05 15:40:20.497557
28.53802907,-0.00599193573,0.009720250964,-0.002529928461,2024-06-05 15:40:20.538029
28.5785648,-0.005193010904,0.006258244161,-0.0003994623839,2024-06-05 15:40:20.578565
28.61898897,-0.003595161485,-0.002796236658,0.005725627299,2024-06-05 15:40:20.618989
28.65945912,-0.003861469682,-0.008921326138,0.008921326138,2024-06-05 15:40:20.659459
28.70004261,-0.01398118306,-0.006524552125,0.0126496423,2024-06-05 15:40:20.700043
28.74050303,-0.02143781446,0.006790860556,0.003595161485,2024-06-05 15:40:20.740503
28.78096116,-0.01797580719,0.01051917579,-0.000932078925,2024-06-05 15:40:20.780961
28.82147964,-0.007057168987,0.01211702544,-0.004660394508,2024-06-05 15:40:20.821480
28.86196178,0.005459319334,0.01105179265,-0.009187635034,2024-06-05 15:40:20.861962
28.90245095,0.01051917579,0.009187635034,-0.01185071748,2024-06-05 15:40:20.902451
28.9429386,0.000133154128,0.01904104091,-0.01105179265,2024-06-05 15:40:20.942939
28.9834235,-0.000932078925,0.01211702544,-0.003595161485,2024-06-05 15:40:20.983424
29.02389787,-0.001464695437,0.003062544856,0.004127778113,2024-06-05 15:40:21.023898
29.06439631,-0.001198387123,-0.007856093347,0.008655018173,2024-06-05 15:40:21.064396
29.10488142,-0.001198387123,-0.0166442655,0.008921326138,2024-06-05 15:40:21.104881
29.14536938,0.004926702939,-0.01904104091,0.01824211515,2024-06-05 15:40:21.145369
29.18586022,0.03288906813,0.02596505545,0.04966649041,2024-06-05 15:40:21.185860
29.22634626,0.1258306503,0.1569887102,0.08375394344,2024-06-05 15:40:21.226346
29.26679485,0.213312909,0.3901416063,0.09014534205,2024-06-05 15:40:21.266795
29.30728938,0.281221509,0.675357759,0.1468690038,2024-06-05 15:40:21.307289
29.34773116,0.2370143533,0.6897383928,0.1191729456,2024-06-05 15:40:21.347731
29.38829042,0.2796236575,0.5832150578,-0.04780233279,2024-06-05 15:40:21.388290
29.42878235,0.2892107666,0.4133104086,-0.1987991184,2024-06-05 15:40:21.428782
29.46926772,0.2660419345,0.2932053804,-0.1945381761,2024-06-05 15:40:21.469268
29.50975308,0.2793573737,0.1521951705,-0.1756303012,2024-06-05 15:40:21.509753
29.55023397,0.2977326214,0.1508636326,-0.1455374658,2024-06-05 15:40:21.550234
29.59073485,0.3209014535,0.1489994675,-0.1266295761,2024-06-05 15:40:21.590735
29.63119069,0.3549889028,0.1511299312,-0.1633801162,2024-06-05 15:40:21.631191
29.67168662,0.3917394578,0.1633801162,-0.2272941023,2024-06-05 15:40:21.671687
29.71220714,0.429821521,0.2009295821,-0.2897433937,2024-06-05 15:40:21.712207
29.75266225,0.4633763731,0.2500634491,-0.3376788795,2024-06-05 15:40:21.752662
29.79314704,0.4838820994,0.267639786,-0.3725652397,2024-06-05 15:40:21.793147
29.83362428,0.5003932118,0.2556559145,-0.3944025338,2024-06-05 15:40:21.833624
29.87413537,0.5123770833,0.2508623898,-0.4135767221,2024-06-05 15:40:21.874135
29.91462116,0.516371727,0.2396774292,-0.4290226102,2024-06-05 15:40:21.914621
29.95510787,0.5118444562,0.2244978547,-0.4205007255,2024-06-05 15:40:21.955108
29.99559522,0.4742949903,0.1982664913,-0.3952014446,2024-06-05 15:40:21.995595
30.0360761,0.4050548673,0.1524614692,-0.3640433848,2024-06-05 15:40:22.036076
30.07654699,0.3275591433,0.1058575287,-0.3400756419,2024-06-05 15:40:22.076547
30.11704079,0.284417212,0.08348763734,-0.307053417,2024-06-05 15:40:22.117041
30.15751589,0.2703028917,0.05712312087,-0.297998935,2024-06-05 15:40:22.157516
30.19798345,0.2862813771,0.0275629051,-0.2675066292,2024-06-05 15:40:22.197983
30.23852277,0.2655093372,-0.01105179265,-0.2174406946,2024-06-05 15:40:22.238523
30.27899964,0.1848179251,-0.01344856713,-0.1466026902,2024-06-05 15:40:22.279000
30.31947235,0.06111774594,0.03262276202,-0.07283531129,2024-06-05 15:40:22.319472
30.359966,-0.03794892505,0.05712312087,-0.008655018173,2024-06-05 15:40:22.359966
30.4004723,-0.07256899774,0.01983996481,0.05685681105,2024-06-05 15:40:22.400472
30.440966,-0.08268871158,-0.03821523488,0.09121058136,2024-06-05 15:40:22.440966
30.48142991,-0.0845528692,-0.08668334037,0.1087869257,2024-06-05 15:40:22.481430
30.52192194,-0.1170424819,-0.1106510833,0.1527277827,2024-06-05 15:40:22.521922
30.56241142,-0.1910761744,-0.1652442664,0.208119899,2024-06-05 15:40:22.562411
30.60289574,-0.255256474,-0.2067883611,0.2206363827,2024-06-05 15:40:22.602896
30.6433597,-0.3111811876,-0.2360822707,0.2419410497,2024-06-05 15:40:22.643360
30.68389491,-0.3766930401,-0.2406095117,0.2669740319,2024-06-05 15:40:22.683895
30.72435595,-0.4374113083,-0.2256962508,0.2928059399,2024-06-05 15:40:22.724356
30.76483928,-0.4695014656,-0.2270277888,0.3194367588,2024-06-05 15:40:22.764839
30.80532876,-0.4655068219,-0.233951807,0.3419398069,2024-06-05 15:40:22.805329
30.84581292,-0.4676373005,-0.2531259954,0.3512606025,2024-06-05 15:40:22.845813
30.8862861,-0.5054530501,-0.3031919599,0.3565867543,2024-06-05 15:40:22.886286
30.92675173,-0.5709648728,-0.3599156141,0.3699021637,2024-06-05 15:40:22.926752
30.96726511,-0.6332810521,-0.3986634612,0.4045222402,2024-06-05 15:40:22.967265
31.00772678,-0.6556509137,-0.4367455542,0.4231638312,2024-06-05 15:40:23.007727
31.0482461,-0.6268896461,-0.4631100595,0.4314193726,2024-06-05 15:40:23.048246
31.08873319,-0.5850792527,-0.4617785215,0.4109136462,2024-06-05 15:40:23.088733
31.12917938,-0.5461982489,-0.4631100595,0.3768261969,2024-06-05 15:40:23.129179
31.16969043,-0.5027899742,-0.3946688473,0.3378120363,2024-06-05 15:40:23.169690
31.21019423,-0.4886756539,-0.3782908916,0.3157084286,2024-06-05 15:40:23.210194
31.25067892,-0.4587159753,-0.3087844253,0.2808220685,2024-06-05 15:40:23.250679
31.29113938,-0.4209001958,-0.2789579034,0.2858819067,2024-06-05 15:40:23.291139
31.33158881,-0.3854812086,-0.2491313666,0.2757622004,2024-06-05 15:40:23.331589
31.3721472,-0.3391435742,-0.2177069932,0.2536586225,2024-06-05 15:40:23.372147
31.41263355,-0.2877460718,-0.2150439173,0.2222342342,2024-06-05 15:40:23.412634
31.45310058,-0.2762948275,-0.1756303012,0.1913424879,2024-06-05 15:40:23.453101
31.49358725,-0.2789579034,-0.117308788,0.1740324497,2024-06-05 15:40:23.493587
31.53409438,-0.2371474952,-0.07762885839,0.1471353173,2024-06-05 15:40:23.534094
31.57457928,-0.1948044896,-0.08801487833,0.132488355,2024-06-05 15:40:23.574579
31.61506303,-0.1521951705,-0.08268871158,0.09706936032,2024-06-05 15:40:23.615063
31.65548412,-0.07177007198,-0.04513924941,0.04540555924,2024-06-05 15:40:23.655484
31.69608079,-0.03129122034,-0.04034570232,0.03422060981,2024-06-05 15:40:23.696081
31.73649095,-0.01051917579,-0.02197043039,0.01185071748,2024-06-05 15:40:23.736491
31.77694011,0.0006657706108,0.01318225823,-0.01344856713,2024-06-05 15:40:23.776940
31.81751095,0.008921326138,0.04913387448,-0.03209014609,2024-06-05 15:40:23.817511
31.85795751,0.004926702939,0.07017222792,-0.05206326395,2024-06-05 15:40:23.857958
31.89841225,0.009187635034,0.07203638554,-0.05153064802,2024-06-05 15:40:23.898412
31.93893313,0.01478010789,0.06271559745,-0.04726971686,2024-06-05 15:40:23.938933
31.97943563,0.008388710208,0.06884068251,-0.04780233279,2024-06-05 15:40:23.979436
32.01988563,0.01584534161,0.0323564522,-0.04460663348,2024-06-05 15:40:24.019886
32.06043204,0.02623136342,-0.01051917579,-0.03049229458,2024-06-05 15:40:24.060432
32.10091298,0.0355521515,-0.05179695413,-0.01211702544,2024-06-05 15:40:24.100913
32.14136089,0.03129122034,-0.07070484012,0.008655018173,2024-06-05 15:40:24.141361
32.18187996,0.02596505545,-0.07709623873,0.02223674022,2024-06-05 15:40:24.181880
32.22234907,0.01983996481,-0.07283531129,0.02010627277,2024-06-05 15:40:24.222349
32.26284292,0.008122402243,-0.04940018058,0.01797580719,2024-06-05 15:40:24.262843
32.30334048,-0.001464695437,-0.02489982173,0.01424749196,2024-06-05 15:40:24.303340
32.34382751,-0.000133154128,-0.002529928461,0.003861469682,2024-06-05 15:40:24.343828
32.3843185,-0.003328853287,0.01051917579,-0.003861469682,2024-06-05 15:40:24.384318
32.42480444,-0.005193010904,0.0243672058,-0.00599193573,2024-06-05 15:40:24.424804
32.46528845,-0.003062544856,0.03049229458,-0.009453942999,2024-06-05 15:40:24.465288
32.50576282,0.002796236658,0.02942706272,-0.003595161485,2024-06-05 15:40:24.505763
32.54626251,0.01238333434,0.028361829,0.02303566411,2024-06-05 15:40:24.546263
32.5867386,0.0355521515,0.02356828004,0.05472634733,2024-06-05 15:40:24.586739
32.62723688,0.06298190355,0.0352858454,0.04753602296,2024-06-05 15:40:24.627237
32.66772975,0.07017222792,0.04194355011,0.01451379992,2024-06-05 15:40:24.667730
32.70824501,0.05206326395,0.0576557368,-0.01770949923,2024-06-05 15:40:24.708245
32.74871975,0.02969337068,0.05845466256,-0.04061200842,2024-06-05 15:40:24.748720
32.78916756,0.01531272475,0.03635107726,-0.03661738336,2024-06-05 15:40:24.789168
32.82963105,0.01238333434,0.02383458801,-0.01318225823,2024-06-05 15:40:24.829631
32.87014371,0.01611164957,0.0006657706108,0.003328853287,2024-06-05 15:40:24.870144
32.91065704,0.01744319126,-0.01185071748,-0.0003994623839,2024-06-05 15:40:24.910657
32.95112496,0.01371487509,-0.01318225823,-0.007589785382,2024-06-05 15:40:24.951125
32.99158485,0.009453942999,-0.00599193573,-0.008122402243,2024-06-05 15:40:24.991585
33.0320797,0.01105179265,0.003328853287,-0.002796236658,2024-06-05 15:40:25.032080
33.07259506,0.01078548469,0.006258244161,-0.002796236658,2024-06-05 15:40:25.072595
33.11308069,0.007057168987,0.004660394508,-0.005725627299,2024-06-05 15:40:25.113081
33.15356813,0.003595161485,0.00599193573,-0.005193010904,2024-06-05 15:40:25.153568
33.19405194,-0.001731003635,0.005459319334,-0.002529928461,2024-06-05 15:40:25.194052
33.23454225,-0.003062544856,0.004394086078,-0.0006657706108,2024-06-05 15:40:25.234542
33.27501918,-0.001731003635,0.003062544856,-0.001464695437,2024-06-05 15:40:25.275019
33.31551277,-0.0006657706108,0.003062544856,-0.003328853287,2024-06-05 15:40:25.315513
33.35599319,-0.001198387123,0.002263620263,-0.002263620263,2024-06-05 15:40:25.355993
33.3964622,0.001464695437,-0.000133154128,-0.003062544856,2024-06-05 15:40:25.396462
33.43695022,0.003062544856,-0.001731003635,-0.003328853287,2024-06-05 15:40:25.436950
33.47740918,0.001198387123,-0.006258244161,-0.001997311832,2024-06-05 15:40:25.477409
33.51794079,0.002529928461,-0.000133154128,-0.003328853287,2024-06-05 15:40:25.517941
33.55844371,-0.000932078925,0.0006657706108,-0.003595161485,2024-06-05 15:40:25.558444
33.59892303,-0.002263620263,0.001997311832,0.0003994623839,2024-06-05 15:40:25.598923
33.63936287,-0.003062544856,0.001997311832,0.000932078925,2024-06-05 15:40:25.639363
33.67993699,-0.003062544856,-0.0006657706108,0.000932078925,2024-06-05 15:40:25.679937
33.7203922,-0.002263620263,0.001731003635,0.001198387123,2024-06-05 15:40:25.720392
33.76084918,-0.002529928461,0.000932078925,0.001464695437,2024-06-05 15:40:25.760849
33.80134381,-0.001997311832,-0.000133154128,0.000932078925,2024-06-05 15:40:25.801344
33.84183694,0.01025286783,0.009453942999,0.01318225823,2024-06-05 15:40:25.841837
33.88232767,0.02703028731,0.028361829,0.03901416063,2024-06-05 15:40:25.882328
33.92281798,0.03315537795,0.03928046674,0.02037258074,2024-06-05 15:40:25.922818
33.96330584,0.02969337068,0.0352858454,-0.006790860556,2024-06-05 15:40:25.963306
34.00378803,0.0243672058,0.0352858454,-0.03022598661,2024-06-05 15:40:26.003788
34.0442798,0.01451379992,0.02090519853,-0.03209014609,2024-06-05 15:40:26.044280
34.08476616,0.01185071748,0.01211702544,-0.02303566411,2024-06-05 15:40:26.084766
34.12525293,0.01291595027,0.003062544856,-0.0166442655,2024-06-05 15:40:26.125253
34.16573616,0.01637795754,-0.007057168987,-0.02276935615,2024-06-05 15:40:26.165736
34.20622496,0.02117150649,-0.01131810062,-0.03022598661,2024-06-05 15:40:26.206225
34.2466972,0.02569874749,-0.01478010789,-0.03022598661,2024-06-05 15:40:26.246697
34.28720136,0.03049229458,-0.01025286783,-0.02356828004,2024-06-05 15:40:26.287201
34.32765433,0.03049229458,-0.001997311832,-0.009720250964,2024-06-05 15:40:26.327654
34.36816636,0.02916075476,0.003595161485,-0.01344856713,2024-06-05 15:40:26.368166
34.4086111,0.0275629051,0.01078548469,-0.02197043039,2024-06-05 15:40:26.408611
34.4490722,0.02090519853,0.01531272475,-0.02623136342,2024-06-05 15:40:26.449072
34.4896498,0.01744319126,0.0171768833,-0.02489982173,2024-06-05 15:40:26.489650
34.5301174,0.01451379992,0.01371487509,-0.02037258074,2024-06-05 15:40:26.530117
34.57060449,0.01131810062,0.01051917579,-0.01957365684,2024-06-05 15:40:26.570604
34.61109792,0.006524552125,0.008122402243,-0.01691057347,2024-06-05 15:40:26.611098
34.65151475,0.004660394508,0.003595161485,-0.01291595027,2024-06-05 15:40:26.651515
34.69209819,0.004926702939,-0.000932078925,-0.008122402243,2024-06-05 15:40:26.692098
34.73253985,0.003595161485,-0.001997311832,-0.006790860556,2024-06-05 15:40:26.732540
34.77304241,0.001198387123,-0.001464695437,-0.005725627299,2024-06-05 15:40:26.773042
34.81352839,-0.0003994623839,-0.003062544856,-0.005459319334,2024-06-05 15:40:26.813528
34.8540147,-0.001198387123,-0.002263620263,-0.004660394508,2024-06-05 15:40:26.854015
34.89447402,-0.001731003635,-0.002796236658,0.0006657706108,2024-06-05 15:40:26.894474
34.93498016,-0.01557903271,-0.01957365684,0.007057168987,2024-06-05 15:40:26.934980
34.97547907,-0.0467370972,-0.07070484012,0.006790860556,2024-06-05 15:40:26.975479
35.01596298,-0.07097115368,-0.1159772426,0.01637795754,2024-06-05 15:40:27.015963
35.05642892,-0.0904116556,-0.129292652,0.03475322574,2024-06-05 15:40:27.056429
35.09690402,-0.07097115368,-0.09600412846,0.04487293959,2024-06-05 15:40:27.096904
35.13740048,-0.01051917579,-0.02463351376,0.04567186534,2024-06-05 15:40:27.137400
35.17785923,0.05472634733,0.03688369319,0.02410089783,2024-06-05 15:40:27.177859
35.21837881,0.09334104508,0.05552527308,-0.02330197208,2024-06-05 15:40:27.218379
35.25885761,0.0683080703,0.04300878197,-0.04620448127,2024-06-05 15:40:27.258858
35.29937735,0.01371487509,0.000932078925,-0.03954677656,2024-06-05 15:40:27.299377
35.3398523,-0.004660394508,-0.04300878197,-0.008122402243,2024-06-05 15:40:27.339852
35.38035319,-0.001464695437,-0.04434032366,0.01611164957,2024-06-05 15:40:27.380353
35.42084907,-0.008921326138,-0.02942706272,0.02063889056,2024-06-05 15:40:27.420849
35.46133386,-0.02596505545,-0.008921326138,0.01557903271,2024-06-05 15:40:27.461334
35.5017886,-0.03688369319,0.004127778113,0.008122402243,2024-06-05 15:40:27.501789
35.54229782,-0.02063889056,0.0171768833,-0.004660394508,2024-06-05 15:40:27.542298
35.58278433,-0.002796236658,0.02463351376,-0.01051917579,2024-06-05 15:40:27.582784
35.6232661,0.001731003635,0.02383458801,-0.00998655986,2024-06-05 15:40:27.623266
35.66368621,0.003595161485,0.01478010789,-0.01158440951,2024-06-05 15:40:27.663686
35.70421782,0.0003994623839,0.00998655986,-0.008388710208,2024-06-05 15:40:27.704218
35.74467912,-0.003595161485,0.002529928461,0.001997311832,2024-06-05 15:40:27.744679
35.78517725,-0.007323476952,-0.01078548469,0.01025286783,2024-06-05 15:40:27.785177
35.82569839,-0.004660394508,-0.01744319126,0.01078548469,2024-06-05 15:40:27.825698
35.86618741,-0.002796236658,-0.01504641678,0.007856093347,2024-06-05 15:40:27.866187
35.90670616,-0.001997311832,-0.01078548469,0.006524552125,2024-06-05 15:40:27.906706
35.94709907,-0.0006657706108,-0.003328853287,0.000133154128,2024-06-05 15:40:27.947099
35.98770558,-0.001198387123,0.004660394508,-0.004394086078,2024-06-05 15:40:27.987706
36.02807714,0.0006657706108,0.0126496423,-0.005725627299,2024-06-05 15:40:28.028077
36.0685697,-0.002796236658,0.01344856713,-0.008122402243,2024-06-05 15:40:28.068570
36.10906275,-0.001997311832,0.00599193573,-0.004926702939,2024-06-05 15:40:28.109063
36.1495441,-0.002263620263,0.002529928461,-0.002529928461,2024-06-05 15:40:28.149544
36.1900427,-0.004127778113,-0.004127778113,0.0006657706108,2024-06-05 15:40:28.190043
36.23052499,-0.005725627299,-0.004394086078,0.003062544856,2024-06-05 15:40:28.230525
36.27100504,-0.003595161485,-0.006258244161,0.002263620263,2024-06-05 15:40:28.271005
36.31149712,-0.0003994623839,-0.005193010904,0.000932078925,2024-06-05 15:40:28.311497
36.35199686,0.000133154128,-0.003062544856,-0.003062544856,2024-06-05 15:40:28.351997
36.39250202,0.001198387123,0.003595161485,-0.004394086078,2024-06-05 15:40:28.392502
36.43300426,0.001464695437,0.004660394508,-0.003062544856,2024-06-05 15:40:28.433004
36.47344134,-0.000932078925,0.002796236658,-0.004926702939,2024-06-05 15:40:28.473441
36.51398129,-0.002529928461,-0.000133154128,-0.003062544856,2024-06-05 15:40:28.513981
36.5544402,-0.003595161485,-0.0006657706108,-0.001464695437,2024-06-05 15:40:28.554440
36.5949453,-0.003328853287,-0.001464695437,0.0006657706108,2024-06-05 15:40:28.594945
36.63541717,-0.003861469682,-0.001464695437,0.000932078925,2024-06-05 15:40:28.635417
36.67588624,-0.000932078925,0.000133154128,-0.000133154128,2024-06-05 15:40:28.675886
36.71637363,-0.000932078925,0.0003994623839,-0.002263620263,2024-06-05 15:40:28.716374
36.75685462,-0.001198387123,0.002529928461,-0.001464695437,2024-06-05 15:40:28.756855
36.79736009,0.0006657706108,0.002263620263,-0.003861469682,2024-06-05 15:40:28.797360
36.83787931,-0.001464695437,0.002796236658,-0.002529928461,2024-06-05 15:40:28.837879
36.87833118,-0.001464695437,0.0006657706108,0.000133154128,2024-06-05 15:40:28.878331
36.91881686,-0.000932078925,-0.0006657706108,-0.001464695437,2024-06-05 15:40:28.918817
36.95928342,0.000133154128,-0.002529928461,-0.000133154128,2024-06-05 15:40:28.959283
36.99980572,0.0003994623839,-0.001198387123,-0.002263620263,2024-06-05 15:40:28.999806
37.04028587,-0.0003994623839,0.000932078925,-0.004660394508,2024-06-05 15:40:29.040286
37.08075228,-0.001464695437,0.001198387123,-0.003595161485,2024-06-05 15:40:29.080752
37.12125504,-0.0003994623839,-0.000133154128,-0.002263620263,2024-06-05 15:40:29.121255
37.16175618,0.0003994623839,-0.001997311832,-0.002263620263,2024-06-05 15:40:29.161756
37.20224504,0.000133154128,-0.0003994623839,-0.002529928461,2024-06-05 15:40:29.202245
37.2427029,-0.0006657706108,0.000133154128,-0.002796236658,2024-06-05 15:40:29.242703
37.28318931,-0.001198387123,0.001198387123,-0.0006657706108,2024-06-05 15:40:29.283189
37.32368457,-0.002263620263,0.001997311832,-0.002529928461,2024-06-05 15:40:29.323685
37.36417467,-0.002263620263,0.003062544856,-0.003062544856,2024-06-05 15:40:29.364175
37.40467004,-0.0003994623839,0.001997311832,-0.002796236658,2024-06-05 15:40:29.404670
37.44507592,-0.001198387123,0.0006657706108,-0.000932078925,2024-06-05 15:40:29.445076
37.48560181,-0.001464695437,0.0003994623839,-0.001198387123,2024-06-05 15:40:29.485602
37.52614087,-0.001198387123,-0.001198387123,-0.001198387123,2024-06-05 15:40:29.526141
37.5666016,-0.001731003635,-0.000932078925,-0.001198387123,2024-06-05 15:40:29.566602
37.60706546,-0.0003994623839,-0.002796236658,-0.002263620263,2024-06-05 15:40:29.607065
37.64756931,-0.001997311832,-0.001198387123,-0.000932078925,2024-06-05 15:40:29.647569
37.68803462,-0.003328853287,0.0006657706108,0.0006657706108,2024-06-05 15:40:29.688035
37.72859431,-0.0003994623839,0.003595161485,-0.003062544856,2024-06-05 15:40:29.728594
37.76905931,-0.0003994623839,0.002796236658,-0.003861469682,2024-06-05 15:40:29.769059
37.80951405,0.000133154128,0.001997311832,-0.004394086078,2024-06-05 15:40:29.809514
37.84999452,-0.0003994623839,-0.0003994623839,-0.003595161485,2024-06-05 15:40:29.849995
37.89051118,-0.003861469682,-0.001198387123,-0.002263620263,2024-06-05 15:40:29.890511
37.93096744,-0.004926702939,0.000932078925,-0.001464695437,2024-06-05 15:40:29.930967
37.97154577,-0.000932078925,-0.001731003635,-0.001464695437,2024-06-05 15:40:29.971546
38.01196863,-0.000133154128,-0.001198387123,0.000932078925,2024-06-05 15:40:30.011969
38.05245009,-0.0006657706108,-0.003328853287,0.004127778113,2024-06-05 15:40:30.052450
38.09292613,-0.000133154128,-0.005193010904,0.005193010904,2024-06-05 15:40:30.092926
38.13342103,-0.002529928461,-0.005459319334,0.006258244161,2024-06-05 15:40:30.133421
38.17389535,-0.004926702939,-0.003861469682,0.004660394508,2024-06-05 15:40:30.173895
38.21438176,-0.00599193573,-0.002263620263,0.003595161485,2024-06-05 15:40:30.214382
38.25485566,-0.004660394508,-0.0006657706108,0.001198387123,2024-06-05 15:40:30.254856
38.29536822,-0.003062544856,0.001464695437,-0.004926702939,2024-06-05 15:40:30.295368
38.33584634,-0.001997311832,0.006524552125,-0.006258244161,2024-06-05 15:40:30.335846
38.3763867,-0.001198387123,0.00599193573,-0.007589785382,2024-06-05 15:40:30.376387
38.41687613,0.000932078925,0.001464695437,-0.006258244161,2024-06-05 15:40:30.416876
38.45728874,-0.003328853287,-0.00599193573,-0.004127778113,2024-06-05 15:40:30.457289
38.49779431,-0.005725627299,-0.004127778113,-0.001198387123,2024-06-05 15:40:30.497794
38.53828744,-0.004127778113,-0.003595161485,0.004127778113,2024-06-05 15:40:30.538287
38.57878171,-0.003062544856,-0.008388710208,0.002796236658,2024-06-05 15:40:30.578782
38.6192853,-0.003595161485,-0.008388710208,-0.002529928461,2024-06-05 15:40:30.619285
38.65976431,-0.004394086078,-0.002529928461,-0.004127778113,2024-06-05 15:40:30.659764
38.70024634,-0.007323476952,0.001731003635,-0.0006657706108,2024-06-05 15:40:30.700246
38.74074681,-0.004394086078,0.002796236658,-0.0006657706108,2024-06-05 15:40:30.740747
38.78119999,-0.004926702939,-0.002796236658,-0.004127778113,2024-06-05 15:40:30.781200
38.8216829,-0.005725627299,-0.003328853287,-0.003861469682,2024-06-05 15:40:30.821683
38.8621642,-0.006524552125,-0.009453942999,-0.003595161485,2024-06-05 15:40:30.862164
38.90266936,-0.01078548469,-0.01131810062,-0.002796236658,2024-06-05 15:40:30.902669
38.94316155,-0.01504641678,-0.01211702544,-0.002796236658,2024-06-05 15:40:30.943162
38.98364723,-0.01797580719,-0.01557903271,-0.006524552125,2024-06-05 15:40:30.983647
39.02416978,-0.01611164957,-0.01211702544,-0.004127778113,2024-06-05 15:40:31.024170
39.06461947,-0.01504641678,-0.008122402243,-0.004660394508,2024-06-05 15:40:31.064619
39.10510384,-0.01451379992,-0.005193010904,-0.006258244161,2024-06-05 15:40:31.105104
39.14560691,-0.01291595027,-0.002796236658,-0.003861469682,2024-06-05 15:40:31.145607
39.18607129,-0.004394086078,-0.006258244161,0.001198387123,2024-06-05 15:40:31.186071
39.2265404,0.00599193573,-0.004127778113,0.00599193573,2024-06-05 15:40:31.226540
39.2670278,0.007323476952,-0.001198387123,0.008122402243,2024-06-05 15:40:31.267028
39.3075504,0.01105179265,0.006258244161,0.01158440951,2024-06-05 15:40:31.307550
39.3479865,0.01770949923,0.01797580719,0.01824211515,2024-06-05 15:40:31.347986
39.38849629,0.01850842312,0.02330197208,0.01451379992,2024-06-05 15:40:31.388496
39.42898405,0.01371487509,0.02356828004,0.001731003635,2024-06-05 15:40:31.428984
39.46945139,0.005459319334,0.01930734888,-0.01211702544,2024-06-05 15:40:31.469451
39.50998728,-0.0003994623839,0.01451379992,-0.01584534161,2024-06-05 15:40:31.509987
39.55046619,-0.005459319334,0.007856093347,-0.002529928461,2024-06-05 15:40:31.550466
39.59094801,-0.007589785382,0.001731003635,0.008921326138,2024-06-05 15:40:31.590948
39.63143728,-0.003861469682,-0.01238333434,0.006524552125,2024-06-05 15:40:31.631437
39.67194342,-0.0006657706108,-0.01424749196,0.0003994623839,2024-06-05 15:40:31.671943
39.7124091,0.001731003635,-0.009720250964,-0.000133154128,2024-06-05 15:40:31.712409
39.75290025,0.001731003635,-0.0006657706108,-0.002796236658,2024-06-05 15:40:31.752900
39.79340197,0.001464695437,0.005725627299,-0.007323476952,2024-06-05 15:40:31.793402
39.8338902,0.001464695437,0.007057168987,-0.007856093347,2024-06-05 15:40:31.833890
39.87435686,-0.0006657706108,0.006790860556,-0.005193010904,2024-06-05 15:40:31.874357
39.91484525,-0.003861469682,0.005193010904,-0.004394086078,2024-06-05 15:40:31.914845
39.95533863,-0.003861469682,-0.001464695437,-0.002263620263,2024-06-05 15:40:31.955339
39.99583837,-0.000932078925,-0.01025286783,0.004127778113,2024-06-05 15:40:31.995838
40.0363515,0.000133154128,-0.01185071748,0.007589785382,2024-06-05 15:40:32.036352
40.07681691,0.000133154128,-0.009453942999,0.004926702939,2024-06-05 15:40:32.076817
40.11728014,-0.000932078925,-0.007323476952,0.003062544856,2024-06-05 15:40:32.117280
40.15778202,-0.002263620263,0.002263620263,-0.0006657706108,2024-06-05 15:40:32.157782
40.198224,-0.001464695437,0.003062544856,-0.003595161485,2024-06-05 15:40:32.198224
40.23871264,0.0003994623839,0.003861469682,-0.005725627299,2024-06-05 15:40:32.238713
40.27923061,0.000932078925,0.004127778113,-0.006790860556,2024-06-05 15:40:32.279231
40.31974858,-0.003328853287,0.004660394508,-0.004660394508,2024-06-05 15:40:32.319749
40.36024285,-0.00599193573,0.005725627299,-0.001731003635,2024-06-05 15:40:32.360243
40.40070671,-0.006258244161,0.002796236658,0.0003994623839,2024-06-05 15:40:32.400707
40.44118165,-0.004394086078,0.001997311832,-0.000133154128,2024-06-05 15:40:32.441182
40.48164894,0.001464695437,-0.003861469682,-0.0003994623839,2024-06-05 15:40:32.481649
40.52219207,0.002796236658,-0.006790860556,-0.0003994623839,2024-06-05 15:40:32.522192
40.56270681,0.001198387123,-0.007589785382,-0.0003994623839,2024-06-05 15:40:32.562707
40.60316494,-0.001198387123,-0.003328853287,-0.001198387123,2024-06-05 15:40:32.603165
40.64363264,-0.001731003635,-0.001464695437,0.001997311832,2024-06-05 15:40:32.643633
40.68413447,-0.002263620263,-0.001464695437,0.000133154128,2024-06-05 15:40:32.684134
40.72460811,-0.003861469682,-0.001464695437,-0.001997311832,2024-06-05 15:40:32.724608
40.76506452,-0.001997311832,0.000932078925,-0.003328853287,2024-06-05 15:40:32.765065
40.80556827,-0.001731003635,0.001731003635,-0.002796236658,2024-06-05 15:40:32.805568
40.84609879,0.0003994623839,0.0006657706108,-0.004660394508,2024-06-05 15:40:32.846099
40.88659697,0.001997311832,-0.000133154128,-0.004127778113,2024-06-05 15:40:32.886597
40.92703603,-0.001997311832,0.000133154128,0.000133154128,2024-06-05 15:40:32.927036
40.96749488,-0.001997311832,0.002796236658,-0.000133154128,2024-06-05 15:40:32.967495
41.00798629,-0.002529928461,0.000133154128,-0.000133154128,2024-06-05 15:40:33.007986
41.04847655,-0.001997311832,-0.000133154128,-0.000133154128,2024-06-05 15:40:33.048477
41.08895525,-0.003328853287,0.002796236658,-0.002796236658,2024-06-05 15:40:33.088955
41.12946546,-0.003328853287,0.000932078925,-0.002529928461,2024-06-05 15:40:33.129465
41.1699453,-0.0006657706108,0.000932078925,-0.002529928461,2024-06-05 15:40:33.169945
41.21043186,0.002263620263,-0.002529928461,-0.001198387123,2024-06-05 15:40:33.210432
41.25088889,0.0006657706108,-0.0006657706108,-0.002263620263,2024-06-05 15:40:33.250889
41.29140941,-0.000932078925,-0.003062544856,-0.000932078925,2024-06-05 15:40:33.291409
41.33188108,-0.001997311832,-0.0003994623839,-0.002263620263,2024-06-05 15:40:33.331881
41.37237504,-0.000932078925,-0.002263620263,-0.002263620263,2024-06-05 15:40:33.372375
41.41291285,-0.000133154128,-0.0006657706108,-0.004127778113,2024-06-05 15:40:33.412913
41.45332061,0.001731003635,-0.0003994623839,-0.004926702939,2024-06-05 15:40:33.453321
41.49383066,-0.0006657706108,0.000932078925,-0.005193010904,2024-06-05 15:40:33.493831
41.53432978,-0.001997311832,0.002529928461,-0.003062544856,2024-06-05 15:40:33.534330
41.57484983,-0.001198387123,0.002796236658,-0.003062544856,2024-06-05 15:40:33.574850
41.61535108,-0.001198387123,0.003595161485,-0.005193010904,2024-06-05 15:40:33.615351
41.65579749,0.005459319334,0.01451379992,-0.003861469682,2024-06-05 15:40:33.655797
41.69627598,0.01904104091,0.06617759913,-0.003595161485,2024-06-05 15:40:33.696276
41.73682082,0.02649767138,0.1708367467,0.01877473295,2024-06-05 15:40:33.736821
41.77730639,-0.02197043039,0.2527265251,0.05845466256,2024-06-05 15:40:33.777306
41.81772884,-0.1005313694,0.1197055578,0.04540555924,2024-06-05 15:40:33.817729
41.8582528,-0.1042596847,0.1146457046,0.03422060981,2024-06-05 15:40:33.858253
41.89876197,-0.06271559745,0.06750914454,0.02356828004,2024-06-05 15:40:33.898762
41.93916978,-0.07496577501,0.06244928762,0.1079879999,2024-06-05 15:40:33.939170
41.97965535,-0.006524552125,0.1242327988,0.1487331539,2024-06-05 15:40:33.979655
42.02019384,-0.000932078925,0.1495320797,0.2038589716,2024-06-05 15:40:34.020194
42.06067004,-0.04460663348,0.1793586165,0.3061213493,2024-06-05 15:40:34.060670
42.10114035,-0.08615072072,0.1367492825,0.2901428342,2024-06-05 15:40:34.101140
42.14162337,-0.08801487833,0.04167724028,0.2376801223,2024-06-05 15:40:34.141623
42.1821202,0.03501953557,0.06777545065,0.1316894293,2024-06-05 15:40:34.182120
42.22260577,0.1832200736,0.05073172227,0.000932078925,2024-06-05 15:40:34.222606
42.2630678,0.1629806459,0.006524552125,-0.008388710208,2024-06-05 15:40:34.263068
42.3035552,0.1466026902,0.09999874979,0.05872096866,2024-06-05 15:40:34.303555
42.34407988,0.1541924775,0.1902772486,-0.02063889056,2024-06-05 15:40:34.344080
42.3845427,0.1619154215,0.08774857223,-0.07017222792,2024-06-05 15:40:34.384543
42.425064,0.2077204436,-0.1242327988,-0.2150439173,2024-06-05 15:40:34.425064
42.46550082,0.2551233172,-0.1644453406,-0.3139774203,2024-06-05 15:40:34.465501
42.5060042,0.311580658,-0.02969337068,-0.1258306503,2024-06-05 15:40:34.506004
42.54651686,0.2474003732,0.1644453406,0.2062557489,2024-06-05 15:40:34.546517
42.58700681,0.3174394369,0.4050548673,0.2147776037,2024-06-05 15:40:34.587007
42.62745478,0.2356828004,0.3190372884,0.1617822647,2024-06-05 15:40:34.627455
42.66791941,0.284417212,0.1940055639,0.141542837,2024-06-05 15:40:34.667919
42.70846014,0.405321151,0.1790923029,0.07256899774,2024-06-05 15:40:34.708460
42.7489666,0.5211652517,0.1572550237,0.1404775977,2024-06-05 15:40:34.748967
42.78943233,0.5208989382,0.1026618332,0.1671084315,2024-06-05 15:40:34.789432
42.8299192,0.513974905,0.04993279651,0.1649779677,2024-06-05 15:40:34.829919
42.87039707,0.3999949992,0.1015966013,0.1676410437,2024-06-05 15:40:34.870397
42.91088728,0.2484655976,0.04540555924,0.07816147059,2024-06-05 15:40:34.910887
42.95136936,0.1319557428,0.05472634733,0.02889444493,2024-06-05 15:40:34.951369
42.99186014,0.06031882018,0.05366111174,0.04434032366,2024-06-05 15:40:34.991860
43.0323603,0.0352858454,0.06591129303,0.09813459218,2024-06-05 15:40:35.032360
43.07285176,0.05872096866,0.03155753016,0.04886756465,2024-06-05 15:40:35.072852
43.11333061,0.04993279651,0.03661738336,0.06564498693,2024-06-05 15:40:35.113331
43.15381816,0.06005251035,0.005193010904,0.06031882018,2024-06-05 15:40:35.153818
43.19430129,0.02356828004,-0.0352858454,0.05978620425,2024-06-05 15:40:35.194301
43.23478738,-0.03209014609,-0.07629731297,0.04540555924,2024-06-05 15:40:35.234787
43.27526827,-0.08828118443,-0.08135717362,0.04274247587,2024-06-05 15:40:35.275268
43.31574723,-0.09999874979,-0.1143793985,-0.03182383627,2024-06-05 15:40:35.315747
43.35625723,-0.1135804728,-0.1817553788,-0.2296908647,2024-06-05 15:40:35.356257
43.39676311,-0.1607170254,-0.3681711555,-0.5256925225,2024-06-05 15:40:35.396763
43.43721926,-0.1647116542,-0.5792204738,-0.7030537724,2024-06-05 15:40:35.437219
43.47768223,-0.1300915778,-0.479621172,-0.5928021669,2024-06-05 15:40:35.477682
43.51816853,0.01744319126,-0.1601844132,-0.3291569948,2024-06-05 15:40:35.518169
43.55867353,0.1380808353,0.2354165018,0.1194392517,2024-06-05 15:40:35.558674
43.59916572,0.07789516449,0.4378107786,0.4790885448,2024-06-05 15:40:35.599166
43.63966853,-0.07682993263,0.167374745,0.3685706258,2024-06-05 15:40:35.639669
43.68015874,-0.1356840581,-0.1071890742,0.0731016174,2024-06-05 15:40:35.680159
43.72064874,-0.03395430371,-0.1229012609,0.04860125855,2024-06-05 15:40:35.720649
43.76114082,-0.001997311832,0.1221023351,0.3231650591,2024-06-05 15:40:35.761141
43.80164494,-0.07443315536,0.1093195379,0.2115819156,2024-06-05 15:40:35.801645
43.84209488,-0.09094426781,-0.07443315536,-0.02649767138,2024-06-05 15:40:35.842095
43.88258296,-0.1617822647,-0.265642494,-0.2046578974,2024-06-05 15:40:35.882583
43.92308608,-0.1942718774,-0.376160413,-0.3818860352,2024-06-05 15:40:35.923086
43.96357514,-0.01371487509,0.04513924941,0.07603100687,2024-06-05 15:40:35.963575
44.00407587,-0.06564498693,0.4500609636,0.6495258212,2024-06-05 15:40:36.004076
44.04453467,-0.1420754492,0.1500647068,0.2922733128,2024-06-05 15:40:36.044535
44.08501994,-0.1814890802,-0.1756303012,-0.103727065,2024-06-05 15:40:36.085020
44.12549249,-0.2403431982,-0.4426043332,-0.3477985859,2024-06-05 15:40:36.125492
44.16600457,-0.2043915838,-0.3687037826,-0.3126458824,2024-06-05 15:40:36.166005
44.20650962,0.01824211515,0.268971324,0.3925383687,2024-06-05 15:40:36.206510
44.24696566,-0.06750914454,0.3371462524,0.4631100595,2024-06-05 15:40:36.246966
44.2874879,-0.03182383627,0.02623136342,-0.01637795754,2024-06-05 15:40:36.287488
44.32795212,-0.07922670245,-0.3468665183,-0.4125114977,2024-06-05 15:40:36.327952
44.36841494,-0.04434032366,-0.4748276174,-0.6226286888,2024-06-05 15:40:36.368415
44.40896733,0.07922670245,0.06910699606,0.03155753016,2024-06-05 15:40:36.408967
44.44935644,0.003595161485,0.5208989382,0.675357759,2024-06-05 15:40:36.449356
44.48990108,0.005725627299,0.27536273,0.3364804685,2024-06-05 15:40:36.489901
44.5303817,0.002263620263,-0.1135804728,-0.1679073572,2024-06-05 15:40:36.530382
44.57091618,0.003328853287,-0.4194355011,-0.5419372916,2024-06-05 15:40:36.570916
44.61135681,0.06271559745,-0.2730991244,-0.4665720761,2024-06-05 15:40:36.611357
44.65186139,0.07736254483,0.3557878435,0.4029243886,2024-06-05 15:40:36.651861
44.69233405,-0.02862813696,0.4231638312,0.5416709781,2024-06-05 15:40:36.692334
44.73282441,0.02489982173,0.04460663348,0.07123745978,2024-06-05 15:40:36.732824
44.77331046,0.02356828004,-0.3141105771,-0.3818860352,2024-06-05 15:40:36.773310
44.81382915,0.04487293959,-0.455653429,-0.6170362234,2024-06-05 15:40:36.813829
44.85426483,0.06617759913,0.02729659714,-0.02463351376,2024-06-05 15:40:36.854265
44.89475181,-0.07842778414,0.4210333526,0.5635082722,2024-06-05 15:40:36.894752
44.93525879,-0.05046541616,0.2199706137,0.3162410557,2024-06-05 15:40:36.935259
44.97574577,-0.01584534161,-0.1378145218,-0.1497983932,2024-06-05 15:40:36.975746
45.01626244,-0.01318225823,-0.3860138059,-0.4862788618,2024-06-05 15:40:37.016262
45.0567617,-0.01478010789,-0.2041252851,-0.3536573648,2024-06-05 15:40:37.056762
45.09717733,-0.02170412242,0.3432713449,0.4971975088,2024-06-05 15:40:37.097177
45.1376715,-0.1039933711,0.3619129062,0.62049824,2024-06-05 15:40:37.137672
45.17812978,-0.02276935615,-0.01797580719,0.1178414002,2024-06-05 15:40:37.178130
45.21861681,0.01291595027,-0.3553883731,-0.314776361,2024-06-05 15:40:37.218617
45.25913233,-0.01744319126,-0.4764254689,-0.5025236607,2024-06-05 15:40:37.259132
45.29963186,-0.03129122034,-0.02543243766,-0.03315537795,2024-06-05 15:40:37.299632
45.34009363,-0.1226349548,0.4005276263,0.6162372828,2024-06-05 15:40:37.340094
45.38059124,-0.1362166703,0.2118482143,0.3810871243,2024-06-05 15:40:37.380591
45.4211092,-0.08029194176,-0.132488355,-0.1133141592,2024-06-05 15:40:37.421109
45.46154967,-0.09706936032,-0.4202344418,-0.4718982279,2024-06-05 15:40:37.461550
45.50212535,-0.1146457046,-0.3543231487,-0.4641752839,2024-06-05 15:40:37.502125
45.54255285,-0.08828118443,0.2161091566,0.3667064607,2024-06-05 15:40:37.542553
45.58307217,-0.1343525201,0.3786903322,0.6322157979,2024-06-05 15:40:37.583072
45.62354837,-0.05046541616,0.08188978583,0.1908098608,2024-06-05 15:40:37.623548
45.66402238,-0.06644391268,-0.2717675865,-0.2677729428,2024-06-05 15:40:37.664022
45.70454869,-0.08801487833,-0.4790885448,-0.5509917736,2024-06-05 15:40:37.704549
45.74498822,-0.09893351793,-0.1380808353,-0.142874375,2024-06-05 15:40:37.744988
45.78548009,-0.1026618332,0.2841508985,0.5432688594,2024-06-05 15:40:37.785480
45.82598212,-0.006258244161,0.2388785034,0.3991960883,2024-06-05 15:40:37.825982
45.86649223,0.004127778113,-0.05312849581,-0.03395430371,2024-06-05 15:40:37.866492
45.90698546,-0.04993279651,-0.3087844253,-0.3462007344,2024-06-05 15:40:37.906985
45.94747197,-0.09174319357,-0.3521926701,-0.4212996662,2024-06-05 15:40:37.947472
45.98789785,-0.04460663348,0.05286218971,0.07283531129,2024-06-05 15:40:37.987898
46.02839889,0.02489982173,0.3339505494,0.4276910722,2024-06-05 15:40:38.028399
46.06890587,0.0683080703,0.2174406946,0.2038589716,2024-06-05 15:40:38.068906
46.10937613,0.001198387123,-0.08375394344,-0.1170424819,2024-06-05 15:40:38.109376
46.14986556,-0.0275629051,-0.221701622,-0.2828193605,2024-06-05 15:40:38.149866
46.19035551,0.03928046674,0.05525896326,0.09600412846,2024-06-05 15:40:38.190356
46.2308402,0.007057168987,0.3573856652,0.491871357,2024-06-05 15:40:38.230840
46.27132171,0.01051917579,0.1905435622,0.2573869228,2024-06-05 15:40:38.271322
46.31181483,0.000932078925,-0.09254211932,-0.09946613014,2024-06-05 15:40:38.311815
46.35230895,-0.04380770773,-0.2872134447,-0.3118469715,2024-06-05 15:40:38.352309
46.39278728,-0.01398118306,-0.1561897993,-0.1303578913,2024-06-05 15:40:38.392787
46.43325994,0.02410089783,0.1937392503,0.2842840552,2024-06-05 15:40:38.433260
46.47372869,0.07816147059,0.2105166763,0.159651801,2024-06-05 15:40:38.473729
46.51424884,0.1202381775,0.02223674022,-0.1276948154,2024-06-05 15:40:38.514249
46.5547428,0.0352858454,-0.1500647068,-0.3206351399,2024-06-05 15:40:38.554743
46.59525926,0.0464707911,-0.2379464209,-0.472430855,2024-06-05 15:40:38.595259
46.63572238,0.1404775977,0.1511299312,0.06644391268,2024-06-05 15:40:38.635722
46.67617217,0.07629731297,0.4300878346,0.4985290468,2024-06-05 15:40:38.676172
46.71666394,0.08721595258,0.1876141727,0.1444722265,2024-06-05 15:40:38.716664
46.75714978,0.04141093418,-0.118640326,-0.2137123793,2024-06-05 15:40:38.757150
46.79761926,-0.004926702939,-0.3532578945,-0.4756265581,2024-06-05 15:40:38.797619
46.83809275,0.06884068251,-0.2659088075,-0.4559197426,2024-06-05 15:40:38.838093
46.87857994,0.1463363916,0.2442046702,0.1868152469,2024-06-05 15:40:38.878580
46.91909155,0.09467258304,0.4231638312,0.405321151,2024-06-05 15:40:38.919092
46.95959098,0.08774857223,0.09467258304,0.07762885839,2024-06-05 15:40:38.959591
47.00010941,0.009720250964,-0.2174406946,-0.2414084375,2024-06-05 15:40:39.000109
47.04060405,-0.02090519853,-0.3489969671,-0.4146419466,2024-06-05 15:40:39.040604
47.08107155,0.006790860556,-0.06244928762,-0.08082455397,2024-06-05 15:40:39.081072
47.12154863,-0.06085143611,0.304390341,0.4375444651,2024-06-05 15:40:39.121549
47.16203811,-0.06990591437,0.2046578974,0.3403419554,2024-06-05 15:40:39.162038
47.20252728,-0.08375394344,-0.114113085,-0.01185071748,2024-06-05 15:40:39.202527
47.242989,-0.09254211932,-0.3388772607,-0.2969337106,2024-06-05 15:40:39.242989
47.2834804,-0.09014534205,-0.3071865737,-0.3118469715,2024-06-05 15:40:39.283480
47.3239927,-0.06910699606,0.1061238423,0.1932066381,2024-06-05 15:40:39.323993
47.36447124,-0.08987903595,0.2804225981,0.432484597,2024-06-05 15:40:39.364471
47.40498316,-0.05552527308,0.07922670245,0.1703041345,2024-06-05 15:40:39.404983
47.44539197,-0.08854749799,-0.1756303012,-0.1420754492,2024-06-05 15:40:39.445392
47.48595697,-0.1226349548,-0.3093170524,-0.3235645294,2024-06-05 15:40:39.485957
47.5264679,-0.1047922969,-0.1194392517,-0.09946613014,2024-06-05 15:40:39.526468
47.56690618,-0.05925358832,0.2129134536,0.3398093283,2024-06-05 15:40:39.566906
47.60734775,-0.01105179265,0.2137123793,0.2877460718,2024-06-05 15:40:39.607348
47.64782275,-0.003062544856,-0.01584534161,-0.01185071748,2024-06-05 15:40:39.647823
47.6883577,-0.03715000302,-0.2078536004,-0.2358159572,2024-06-05 15:40:39.688358
47.72886181,-0.05339480564,-0.2280930281,-0.2833519876,2024-06-05 15:40:39.728862
47.76935905,-0.01824211515,0.0842865631,0.1244991124,2024-06-05 15:40:39.769359
47.80980717,-0.02143781446,0.2505960763,0.3571193814,2024-06-05 15:40:39.809807
47.85034139,0.003595161485,0.1023955271,0.1404775977,2024-06-05 15:40:39.850341
47.89081176,-0.001731003635,-0.1290263534,-0.1442059278,2024-06-05 15:40:39.890812
47.93130655,-0.0166442655,-0.2446041405,-0.313444823,2024-06-05 15:40:39.931307
47.97178592,0.01078548469,-0.005193010904,-0.02276935615,2024-06-05 15:40:39.971786
48.01225238,-0.01797580719,0.2508623898,0.3364804685,2024-06-05 15:40:40.012252
48.05276837,0.00599193573,0.1356840581,0.1817553788,2024-06-05 15:40:40.052768
48.09324358,0.008388710208,-0.1191729456,-0.1431406885,2024-06-05 15:40:40.093244
48.1337228,0.004926702939,-0.2544575334,-0.3400756419,2024-06-05 15:40:40.133723
48.17422697,0.02410089783,-0.02543243766,-0.08774857223,2024-06-05 15:40:40.174227
48.21471405,-0.03315537795,0.2785584331,0.3507279754,2024-06-05 15:40:40.214714
48.2551728,0.01185071748,0.2022611201,0.2592510879,2024-06-05 15:40:40.255173
48.29567264,0.03262276202,-0.06138405204,-0.05392742157,2024-06-05 15:40:40.295673
48.33620134,0.009720250964,-0.2209026963,-0.2862813771,2024-06-05 15:40:40.336201
48.37669176,0.005193010904,-0.1782933772,-0.2860150635,2024-06-05 15:40:40.376692
48.41711869,0.01051917579,0.159651801,0.156456098,2024-06-05 15:40:40.417119
48.45758744,-0.008655018173,0.2639114857,0.2994636297,2024-06-05 15:40:40.457587
48.49805301,0.02623136342,0.02916075476,0.06058513001,2024-06-05 15:40:40.498053
48.53854004,-0.008921326138,-0.1585865617,-0.1854836941,2024-06-05 15:40:40.538540
48.57910655,-0.03475322574,-0.2576532364,-0.3272928596,2024-06-05 15:40:40.579107
48.61958233,-0.01451379992,0.005193010904,-0.04194355011,2024-06-05 15:40:40.619582
48.66006665,-0.0166442655,0.3094501793,0.3659075499,2024-06-05 15:40:40.660067
48.70056217,0.04780233279,0.2118482143,0.2379464209,2024-06-05 15:40:40.700562
48.74104296,0.04141093418,-0.05818835273,-0.07629731297,2024-06-05 15:40:40.741043
48.7815166,0.01584534161,-0.2358159572,-0.3073197305,2024-06-05 15:40:40.781517
48.82204785,0.03928046674,-0.168706283,-0.2675066292,2024-06-05 15:40:40.822048
48.8625003,0.03635107726,0.2086525112,0.2448704392,2024-06-05 15:40:40.862500
48.90296238,0.01691057347,0.287612915,0.3308880031,2024-06-05 15:40:40.902962
48.94353546,0.04380770773,0.01983996481,0.03794892505,2024-06-05 15:40:40.943535
48.98402259,0.008921326138,-0.1889457107,-0.2470009029,2024-06-05 15:40:40.984023
49.02445223,0.01930734888,-0.2472672164,-0.3579182923,2024-06-05 15:40:41.024452
49.06491994,0.0541937314,0.09227581322,0.06804175675,2024-06-05 15:40:41.064920
49.10542686,0.001198387123,0.3145100474,0.3464670479,2024-06-05 15:40:41.105427
49.14591462,0.03581846133,0.1093195379,0.127961114,2024-06-05 15:40:41.145915
49.18642384,-0.005725627299,-0.1420754492,-0.1761629134,2024-06-05 15:40:41.186424
49.22691082,-0.01850842312,-0.255256474,-0.3475322723,2024-06-05 15:40:41.226911
49.26734436,0.03715000302,0.02916075476,0.000133154128,2024-06-05 15:40:41.267344
49.30783129,-0.01983996481,0.3073197305,0.3848154247,2024-06-05 15:40:41.307831
49.34831827,0.02703028731,0.1442059278,0.1825543046,2024-06-05 15:40:41.348318
49.3888216,0.01584534161,-0.1298252791,-0.1561897993,2024-06-05 15:40:41.388822
49.42930358,-0.00599193573,-0.2595174015,-0.3065207899,2024-06-05 15:40:41.429304
49.46977337,0.01158440951,-0.06111774594,-0.08029194176,2024-06-05 15:40:41.469773
49.51029994,-0.02489982173,0.2177069932,0.268838197,2024-06-05 15:40:41.510300
49.55080087,0.001464695437,0.151928857,0.1881467849,2024-06-05 15:40:41.550801
49.59129775,0.00599193573,-0.08668334037,-0.08109086752,2024-06-05 15:40:41.591298
49.63174259,0.01691057347,-0.1916087866,-0.2485987544,2024-06-05 15:40:41.631743
49.67224759,0.0576557368,0.079493016,0.084020257,2024-06-05 15:40:41.672248
49.71275749,-0.02862813696,0.2964010835,0.3967992961,2024-06-05 15:40:41.712757
49.75324957,-0.01611164957,0.1159772426,0.1561897993,2024-06-05 15:40:41.753250
49.793709,0.0006657706108,-0.1258306503,-0.1647116542,2024-06-05 15:40:41.793709
49.83420592,0.003595161485,-0.2619141638,-0.3568530679,2024-06-05 15:40:41.834206
49.87468275,0.04434032366,-0.05286218971,-0.1585865617,2024-06-05 15:40:41.874683
49.91517717,-0.03209014609,0.2468677461,0.2944037914,2024-06-05 15:40:41.915177
49.95565217,-0.03155753016,0.1388797611,0.2118482143,2024-06-05 15:40:41.955652
49.99614051,0.000932078925,-0.1109173894,-0.09786828607,2024-06-05 15:40:41.996141
50.03662822,0.0003994623839,-0.2789579034,-0.33474949,2024-06-05 15:40:42.036628
50.0771102,0.02276935615,-0.1290263534,-0.2105166763,2024-06-05 15:40:42.077110
50.11759712,-0.02010627277,0.2537917793,0.3356815577,2024-06-05 15:40:42.117597
50.15808447,-0.02489982173,0.2182396203,0.3055887222,2024-06-05 15:40:42.158084
50.1985715,0.008921326138,-0.05685681105,-0.03954677656,2024-06-05 15:40:42.198571
50.23905858,-0.006258244161,-0.2571206093,-0.3259612918,2024-06-05 15:40:42.239059
50.27955665,-0.005459319334,-0.2267614752,-0.3597824574,2024-06-05 15:40:42.279557
50.32004244,-0.007323476952,0.2001306564,0.2142449915,2024-06-05 15:40:42.320042
50.36053561,-0.04407401755,0.3041240275,0.3853480518,2024-06-05 15:40:42.360536
50.40103415,0.02223674022,0.03395430371,0.05525896326,2024-06-05 15:40:42.401034
50.44152457,0.008122402243,-0.2163754553,-0.2726996541,2024-06-05 15:40:42.441525
50.48195796,0.005193010904,-0.2864145339,-0.3997286856,2024-06-05 15:40:42.481958
50.52246822,0.01637795754,0.09946613014,0.1223686412,2024-06-05 15:40:42.522468
50.56298749,-0.04593817517,0.304390341,0.4055874646,2024-06-05 15:40:42.562987
50.60348009,0.02303566411,0.08082455397,0.1314231306,2024-06-05 15:40:42.603480
50.64395467,0.01158440951,-0.1825543046,-0.2091851383,2024-06-05 15:40:42.643955
50.68441754,-0.005459319334,-0.3274259865,-0.4274247587,2024-06-05 15:40:42.684418
50.72489296,0.01238333434,-0.009187635034,-0.04593817517,2024-06-05 15:40:42.724893
50.76539598,-0.05845466256,0.3139774203,0.4263595045,2024-06-05 15:40:42.765396
50.80589962,0.001731003635,0.173233524,0.2406095117,2024-06-05 15:40:42.805900
50.84638556,0.01185071748,-0.117308788,-0.1343525201,2024-06-05 15:40:42.846386
50.8868704,-0.001464695437,-0.2946700752,-0.3933372796,2024-06-05 15:40:42.886870
50.92735816,0.01637795754,-0.06085143611,-0.1314231306,2024-06-05 15:40:42.927358
50.96784592,-0.03901416063,0.2636451721,0.3268933892,2024-06-05 15:40:42.967846
51.00833369,0.004127778113,0.1966686398,0.2280930281,2024-06-05 15:40:43.008334
51.04882144,0.01637795754,-0.0842865631,-0.08774857223,2024-06-05 15:40:43.048821
51.08929197,0.0003994623839,-0.2794905007,-0.3419398069,2024-06-05 15:40:43.089292
51.12976754,0.009187635034,-0.1540593207,-0.2360822707,2024-06-05 15:40:43.129768
51.17027566,-0.02090519853,0.226894632,0.3053224087,2024-06-05 15:40:43.170276
51.21076264,-0.01637795754,0.2572537661,0.3316869438,2024-06-05 15:40:43.210763
51.25122025,0.009720250964,-0.02676397935,0.001464695437,2024-06-05 15:40:43.251220
51.29172624,-0.000932078925,-0.2496639937,-0.3027924895,2024-06-05 15:40:43.291726
51.33222681,-0.00998655986,-0.2749632597,-0.3896089792,2024-06-05 15:40:43.332227
51.37272478,-0.003861469682,0.1039933711,0.08135717362,2024-06-05 15:40:43.372725
51.4132092,-0.02543243766,0.3214340508,0.3816197217,2024-06-05 15:40:43.413209
51.45365233,0.028361829,0.1021292135,0.1580539495,2024-06-05 15:40:43.453652
51.49416822,0.00998655986,-0.1410102248,-0.1548582464,2024-06-05 15:40:43.494168
51.53464863,-0.01025286783,-0.2691044807,-0.3384777904,2024-06-05 15:40:43.534649
51.57511749,0.000133154128,-0.02596505545,-0.07070484012,2024-06-05 15:40:43.575117
51.615649,-0.02942706272,0.2479329854,0.3071865737,2024-06-05 15:40:43.615649
51.65610275,0.01824211515,0.1553908736,0.208119899,2024-06-05 15:40:43.656103
51.69658863,0.01797580719,-0.08668334037,-0.079493016,2024-06-05 15:40:43.696589
51.73710749,-0.002796236658,-0.2451367527,-0.2950695455,2024-06-05 15:40:43.737107
51.7775354,-0.01318225823,-0.1375482082,-0.2334191799,2024-06-05 15:40:43.777535
51.81802176,-0.02250304818,0.2051905096,0.2504629195,2024-06-05 15:40:43.818022
51.85850905,-0.005459319334,0.2442046702,0.3162410557,2024-06-05 15:40:43.858509
51.89904426,0.02410089783,-0.002796236658,0.03315537795,2024-06-05 15:40:43.899044
51.93953587,0.007057168987,-0.1980001926,-0.2302234918,2024-06-05 15:40:43.939536
51.97998363,-0.01637795754,-0.2504629195,-0.3477985859,2024-06-05 15:40:43.979984
52.02055066,-0.01478010789,0.04513924941,-0.001198387123,2024-06-05 15:40:44.020551
52.06097848,-0.02889444493,0.2697702646,0.3300890923,2024-06-05 15:40:44.060978
52.10146759,0.02729659714,0.1229012609,0.1830869317,2024-06-05 15:40:44.101468
52.14194051,0.01824211515,-0.1071890742,-0.09999874979,2024-06-05 15:40:44.141941
52.18245478,-0.006524552125,-0.2456693649,-0.2961347699,2024-06-05 15:40:44.182455
52.22294145,-0.01983996481,-0.09973244369,-0.1769618392,2024-06-05 15:40:44.222941
52.26341165,-0.01584534161,0.2247641683,0.2664414048,2024-06-05 15:40:44.263412
52.30391061,0.01824211515,0.2372806519,0.2842840552,2024-06-05 15:40:44.303911
52.34439868,0.02543243766,-0.009187635034,0.01078548469,2024-06-05 15:40:44.344399
52.38487587,0.0006657706108,-0.1956034154,-0.2310224175,2024-06-05 15:40:44.384876
52.42540483,-0.01584534161,-0.2392779738,-0.3251623809,2024-06-05 15:40:44.425405
52.46578926,0.002263620263,0.06431344151,0.03794892505,2024-06-05 15:40:44.465789
52.50640874,-0.01051917579,0.2852161527,0.3560541272,2024-06-05 15:40:44.506409
52.54687947,0.0384815447,0.1165098622,0.1828206182,2024-06-05 15:40:44.546879
52.58726087,0.01424749196,-0.1087869257,-0.1114500016,2024-06-05 15:40:44.587261
52.6277477,-0.01078548469,-0.2536586225,-0.3145100474,2024-06-05 15:40:44.627748
52.66830134,-0.02063889056,-0.1149120107,-0.2150439173,2024-06-05 15:40:44.668301
52.70877061,-0.02676397935,0.2009295821,0.2288919389,2024-06-05 15:40:44.708771
52.7492679,0.005459319334,0.2306229472,0.2965342402,2024-06-05 15:40:44.749268
52.78975764,0.02037258074,-0.005725627299,0.04007939249,2024-06-05 15:40:44.789758
52.83026103,0.004394086078,-0.1857500076,-0.2030600458,2024-06-05 15:40:44.830261
52.87073749,-0.02037258074,-0.2446041405,-0.3217003644,2024-06-05 15:40:44.870737
52.91121124,-0.01691057347,-0.002796236658,-0.08588441461,2024-06-05 15:40:44.911211
52.95168915,-0.02063889056,0.287612915,0.3776251078,2024-06-05 15:40:44.951689
52.9921941,0.01637795754,0.1881467849,0.2936048508,2024-06-05 15:40:44.992194
53.032709,0.02916075476,-0.06910699606,-0.02862813696,2024-06-05 15:40:45.032709
53.07318066,0.004926702939,-0.2315550297,-0.270169735,2024-06-05 15:40:45.073181
53.11366389,-0.01983996481,-0.1841521561,-0.2950695455,2024-06-05 15:40:45.113664
53.15414368,-0.01904104091,0.1468690038,0.1314231306,2024-06-05 15:40:45.154144
53.19463108,-0.01211702544,0.2705691755,0.3322195411,2024-06-05 15:40:45.194631
53.23511879,0.03368799388,0.04966649041,0.1023955271,2024-06-05 15:40:45.235119
53.27560822,0.01930734888,-0.1572550237,-0.171901986,2024-06-05 15:40:45.275608
53.31610202,-0.0126496423,-0.2659088075,-0.3384777904,2024-06-05 15:40:45.316102
53.35660957,-0.02330197208,-0.0576557368,-0.1463363916,2024-06-05 15:40:45.356610
53.39709285,-0.03315537795,0.2503297627,0.3114475012,2024-06-05 15:40:45.397093
53.43752301,0.01131810062,0.1857500076,0.2659088075,2024-06-05 15:40:45.437523
53.47800155,0.02276935615,-0.09174319357,-0.08535179496,2024-06-05 15:40:45.478002
53.51850598,0.007856093347,-0.2616478503,-0.3259612918,2024-06-05 15:40:45.518506
53.55901863,-0.02516612969,-0.1737661362,-0.2664414048,2024-06-05 15:40:45.559019
53.59949025,-0.03262276202,0.1535267085,0.156456098,2024-06-05 15:40:45.599490
53.63999447,-0.01238333434,0.2764279842,0.3603150845,2024-06-05 15:40:45.639994
53.68047488,0.02995967865,0.05499265343,0.1332872808,2024-06-05 15:40:45.680475
53.7209802,0.02170412242,-0.1468690038,-0.1458037645,2024-06-05 15:40:45.720980
53.76147384,-0.008122402243,-0.2278267145,-0.2985315621,2024-06-05 15:40:45.761474
53.80195827,-0.01185071748,-0.01158440951,-0.07816147059,2024-06-05 15:40:45.801958
53.84243582,-0.02489982173,0.2370143533,0.2800231278,2024-06-05 15:40:45.842436
53.88289822,0.01611164957,0.1601844132,0.2163754553,2024-06-05 15:40:45.882898
53.92337561,0.02090519853,-0.06644391268,-0.0432750918,2024-06-05 15:40:45.923376
53.96386264,0.0006657706108,-0.2033263594,-0.2451367527,2024-06-05 15:40:45.963863
54.00439275,-0.02410089783,-0.1804238409,-0.2825530469,2024-06-05 15:40:46.004393
54.04488994,-0.04167724028,0.04806863889,0.000932078925,2024-06-05 15:40:46.044890
54.08534728,-0.0243672058,0.1487331539,0.1956034154,2024-06-05 15:40:46.085347
54.12581947,0.02197043039,0.01398118306,0.04540555924,2024-06-05 15:40:46.125819
54.16634837,0.02463351376,-0.09733566642,-0.112781547,2024-06-05 15:40:46.166348
54.20685712,0.01637795754,-0.04940018058,-0.05898727849,2024-06-05 15:40:46.206857
54.24727254,0.009453942999,0.08615072072,0.07789516449,2024-06-05 15:40:46.247273
54.28774436,0.01025286783,0.1255643368,0.1029281393,2024-06-05 15:40:46.287744
54.32824165,0.008655018173,0.02489982173,0.03315537795,2024-06-05 15:40:46.328242
54.36872061,-0.009720250964,-0.06537867337,-0.06750914454,2024-06-05 15:40:46.368721
54.40923061,-0.03928046674,-0.1276948154,-0.1556571722,2024-06-05 15:40:46.409231
54.44968134,-0.04220985994,-0.138347134,-0.1908098608,2024-06-05 15:40:46.449681
54.49021686,-0.0432750918,-0.08801487833,-0.1178414002,2024-06-05 15:40:46.490217
54.53072811,-0.04061200842,-0.08295502514,-0.1205044836,2024-06-05 15:40:46.530728
54.57120134,-0.02117150649,-0.0949388966,-0.141542837,2024-06-05 15:40:46.571201
54.61171853,-0.01691057347,-0.07070484012,-0.121836029,2024-06-05 15:40:46.611719
54.65217431,-0.02942706272,-0.01904104091,-0.08721595258,2024-06-05 15:40:46.652174
54.69264884,-0.02942706272,-0.004394086078,-0.07097115368,2024-06-05 15:40:46.692649
54.73313874,-0.008122402243,-0.04114462435,-0.07896039635,2024-06-05 15:40:46.733139
54.77362066,0.007323476952,-0.05073172227,-0.06031882018,2024-06-05 15:40:46.773621
54.8141427,0.002796236658,-0.04513924941,-0.0352858454,2024-06-05 15:40:46.814143
54.85462296,-0.005193010904,-0.03315537795,-0.01904104091,2024-06-05 15:40:46.854623
54.89510952,-0.01105179265,-0.01557903271,0.01105179265,2024-06-05 15:40:46.895110
54.93557436,-0.006790860556,0.002796236658,0.03368799388,2024-06-05 15:40:46.935574
54.97606113,-0.01051917579,-0.005459319334,0.002796236658,2024-06-05 15:40:46.976061
55.01659499,-0.01398118306,-0.01957365684,-0.0275629051,2024-06-05 15:40:47.016595
55.05701592,-0.007589785382,-0.01131810062,-0.0171768833,2024-06-05 15:40:47.057016
55.09750223,-0.005459319334,0.004926702939,-0.008388710208,2024-06-05 15:40:47.097502
55.13798868,-0.002529928461,0.008655018173,0.006258244161,2024-06-05 15:40:47.137989
55.17847504,0.003861469682,0.03182383627,0.05552527308,2024-06-05 15:40:47.178475
55.21896145,0.0464707911,0.129292652,0.2206363827,2024-06-05 15:40:47.218961
55.25945806,0.06404713541,0.2244978547,0.3917394578,2024-06-05 15:40:47.259458
55.29996874,0.05366111174,0.1394123733,0.2587184608,2024-06-05 15:40:47.299969
55.3404365,0.0275629051,0.01584534161,0.04354140162,2024-06-05 15:40:47.340437
55.38094744,0.004926702939,-0.07230269164,-0.1178414002,2024-06-05 15:40:47.380947
55.4214428,-0.003595161485,-0.04487293959,-0.1239664927,2024-06-05 15:40:47.421443
55.4618766,0.001997311832,0.04993279651,-0.01584534161,2024-06-05 15:40:47.461877
55.50240504,0.01398118306,0.09227581322,0.05579157919,2024-06-05 15:40:47.502405
55.54287827,0.01371487509,0.03794892505,0.0275629051,2024-06-05 15:40:47.542878
55.58342983,0.001198387123,-0.02809552103,-0.02782921307,2024-06-05 15:40:47.583430
55.62388363,-0.004926702939,-0.04593817517,-0.03022598661,2024-06-05 15:40:47.623884
55.66435332,-0.002796236658,-0.01078548469,0.002529928461,2024-06-05 15:40:47.664353
55.7048202,0.004127778113,0.01504641678,0.02276935615,2024-06-05 15:40:47.704820
55.74530915,0.006790860556,0.001997311832,0.004394086078,2024-06-05 15:40:47.745309
55.78580421,0.003595161485,-0.01957365684,-0.01983996481,2024-06-05 15:40:47.785804
55.82632165,-0.001198387123,-0.01185071748,-0.0166442655,2024-06-05 15:40:47.826322
55.86682697,-0.006790860556,0.008122402243,0.003062544856,2024-06-05 15:40:47.866827
55.90731478,-0.007856093347,0.00998655986,0.005459319334,2024-06-05 15:40:47.907315
55.94780259,-0.001997311832,0.001464695437,-0.006258244161,2024-06-05 15:40:47.947803
55.98820577,-0.001997311832,-0.001198387123,-0.004926702939,2024-06-05 15:40:47.988206
56.02870337,-0.001464695437,0.006790860556,0.003595161485,2024-06-05 15:40:48.028703
56.06921994,-0.005725627299,0.006524552125,0.004127778113,2024-06-05 15:40:48.069220
56.10972077,-0.003861469682,-0.002529928461,-0.001464695437,2024-06-05 15:40:48.109721
56.15019259,-0.0006657706108,-0.003328853287,-0.003861469682,2024-06-05 15:40:48.150193
56.19067025,0.0003994623839,0.0003994623839,-0.0006657706108,2024-06-05 15:40:48.190670
56.23115723,0.001198387123,-0.000133154128,0.000932078925,2024-06-05 15:40:48.231157
56.2716491,0.000133154128,-0.002529928461,-0.000133154128,2024-06-05 15:40:48.271649
56.31214108,0.000133154128,-0.001997311832,-0.000133154128,2024-06-05 15:40:48.312141
56.35262613,-0.002796236658,-0.001198387123,0.000932078925,2024-06-05 15:40:48.352626
56.39313837,-0.004127778113,-0.0003994623839,-0.001464695437,2024-06-05 15:40:48.393138
56.43359306,-0.003328853287,-0.001731003635,-0.004127778113,2024-06-05 15:40:48.433593
56.47405717,-0.001731003635,-0.000932078925,-0.002529928461,2024-06-05 15:40:48.474057
56.51459009,-0.000133154128,-0.001464695437,-0.001464695437,2024-06-05 15:40:48.514590
56.55508644,-0.0006657706108,-0.000932078925,-0.0003994623839,2024-06-05 15:40:48.555086
56.59560592,-0.002796236658,0.000932078925,-0.001997311832,2024-06-05 15:40:48.595606
56.63606822,-0.003861469682,0.001198387123,-0.001731003635,2024-06-05 15:40:48.636068
56.67653879,-0.003595161485,0.001731003635,-0.001997311832,2024-06-05 15:40:48.676539
56.71697858,-0.003328853287,-0.0003994623839,-0.001198387123,2024-06-05 15:40:48.716979
56.75746561,-0.002529928461,0.0006657706108,-0.0006657706108,2024-06-05 15:40:48.757466
56.79794863,-0.002529928461,0.0006657706108,-0.000133154128,2024-06-05 15:40:48.797949
56.83842764,0.0003994623839,-0.001198387123,-0.001198387123,2024-06-05 15:40:48.838428
56.87895816,-0.001198387123,-0.001198387123,0.000133154128,2024-06-05 15:40:48.878958
56.91945967,-0.002796236658,-0.001731003635,0.0003994623839,2024-06-05 15:40:48.919460
56.95994301,-0.004127778113,-0.000133154128,0.0003994623839,2024-06-05 15:40:48.959943
57.00046259,-0.001464695437,-0.002263620263,0.0003994623839,2024-06-05 15:40:49.000463
57.04093879,0.0006657706108,-0.002263620263,-0.001731003635,2024-06-05 15:40:49.040939
57.08140025,-0.003062544856,-0.0003994623839,-0.001997311832,2024-06-05 15:40:49.081400
57.12189936,0.004926702939,0.02330197208,0.02623136342,2024-06-05 15:40:49.121899
57.16237853,0.02729659714,0.1303578913,0.1892120093,2024-06-05 15:40:49.162379
57.20285728,0.03262276202,0.1825543046,0.2549901605,2024-06-05 15:40:49.202857
57.24334514,0.03102491237,0.1002650559,0.1527277827,2024-06-05 15:40:49.243345
57.2838328,0.02090519853,0.01078548469,0.03741630912,2024-06-05 15:40:49.283833
57.32431181,0.008655018173,-0.01158440951,0.005193010904,2024-06-05 15:40:49.324312
57.36480379,-0.01078548469,-0.000932078925,0.003062544856,2024-06-05 15:40:49.364804
57.40531587,-0.01185071748,-0.01051917579,-0.02623136342,2024-06-05 15:40:49.405316
57.44581358,-0.0126496423,-0.03422060981,-0.04886756465,2024-06-05 15:40:49.445814
57.48629098,-0.02995967865,-0.04780233279,-0.07629731297,2024-06-05 15:40:49.486291
57.52677936,-0.08162347972,-0.01957365684,-0.08535179496,2024-06-05 15:40:49.526779
57.56721848,-0.1058575287,-0.04274247587,-0.06378082931,2024-06-05 15:40:49.567218
57.60768837,-0.09014534205,-0.08535179496,-0.05579157919,2024-06-05 15:40:49.607688
57.64817592,-0.01291595027,-0.06537867337,-0.02942706272,2024-06-05 15:40:49.648176
57.68871853,-0.005193010904,-0.03901416063,0.007057168987,2024-06-05 15:40:49.688719
57.72920129,0.001997311832,-0.01131810062,0.01531272475,2024-06-05 15:40:49.729201
57.76968624,0.01557903271,0.01105179265,0.03475322574,2024-06-05 15:40:49.769686
57.8101903,0.02543243766,0.06005251035,0.08801487833,2024-06-05 15:40:49.810190
57.85068337,0.02463351376,0.08828118443,0.132488355,2024-06-05 15:40:49.850683
57.89114577,0.003062544856,0.06138405204,0.09653674066,2024-06-05 15:40:49.891146
57.93161608,0.001731003635,-0.001731003635,0.01318225823,2024-06-05 15:40:49.931616
57.97210384,0.0171768833,-0.04540555924,-0.05712312087,2024-06-05 15:40:49.972104
58.01262681,0.0171768833,-0.04087831825,-0.09467258304,2024-06-05 15:40:50.012627
58.05311426,0.008122402243,-0.02676397935,-0.09680305421,2024-06-05 15:40:50.053114
58.09360494,-0.007589785382,-0.01211702544,-0.08961272985,2024-06-05 15:40:50.093605
58.13408353,-0.009453942999,-0.004660394508,-0.08188978583,2024-06-05 15:40:50.134084
58.17457238,0.01691057347,-0.005459319334,-0.06511236727,2024-06-05 15:40:50.174572
58.21506014,0.0323564522,0.01051917579,0.004660394508,2024-06-05 15:40:50.215060
58.25552014,0.03315537795,0.06431344151,0.1316894293,2024-06-05 15:40:50.255520
58.2960242,0.03342168778,0.0731016174,0.15512456,2024-06-05 15:40:50.296024
58.33655066,0.01797580719,0.01983996481,0.08268871158,2024-06-05 15:40:50.336551
58.37699556,-0.000133154128,-0.02463351376,0.002796236658,2024-06-05 15:40:50.376996
58.41745499,-0.01584534161,-0.04220985994,-0.04061200842,2024-06-05 15:40:50.417455
58.45794275,-0.02223674022,-0.02489982173,-0.06511236727,2024-06-05 15:40:50.457943
58.49843051,-0.01904104091,-0.01131810062,-0.07203638554,2024-06-05 15:40:50.498431
