Time (s),Linear Acceleration x (m/s^2),Linear Acceleration y (m/s^2),Linear Acceleration z (m/s^2),Datetime
0.04102803,0.0,0.0,0.0,2024-06-05 15:39:52.041028
0.081513603,0.1204411983,0.03338766098,-0.2189388275,2024-06-05 15:39:52.081514
0.121999175,0.295799017,0.124522686,0.3100543022,2024-06-05 15:39:52.121999
0.162484696,0.3832373619,0.01877498627,0.09680652618,2024-06-05 15:39:52.162485
0.238044748,0.6531569958,-0.06081962585,0.00382232666,2024-06-05 15:39:52.238045
0.27849329,-0.4264657497,0.006672382355,-0.6545081139,2024-06-05 15:39:52.278493
0.318979488,-0.597645402,0.5712985992,-0.9577713013,2024-06-05 15:39:52.318979
0.359486728,0.272757411,-0.3558411598,0.5955142975,2024-06-05 15:39:52.359487
0.399972248,0.8887258768,-0.4330844879,-1.748136044,2024-06-05 15:39:52.399972
0.440479384,1.664426208,0.1609249115,-2.689463139,2024-06-05 15:39:52.440479
0.480939123,-0.8044311404,-1.513848782,2.378886223,2024-06-05 15:39:52.480939
0.521424696,-3.575898409,-1.695836306,1.723405838,2024-06-05 15:39:52.521425
0.561919436,-2.349311352,-1.429050922,1.623867035,2024-06-05 15:39:52.561919
0.602465946,0.926974833,0.7251806259,-0.03452682495,2024-06-05 15:39:52.602466
0.64292605,0.006385087967,0.5296769142,0.3865194321,2024-06-05 15:39:52.642926
0.683428707,-0.7632629871,-0.4369320869,0.3617248535,2024-06-05 15:39:52.683429
0.72385928,0.5113003254,0.1466207504,0.08957862854,2024-06-05 15:39:52.723859
0.764344644,-0.220618248,0.1915173531,-0.666765213,2024-06-05 15:39:52.764345
0.804878082,-0.6723376513,-0.24751091,-0.4304451942,2024-06-05 15:39:52.804878
0.845292561,0.2282813787,0.1850657463,-0.5278286934,2024-06-05 15:39:52.845293
0.88579579,-0.009655356407,-0.3800077438,-0.5053911209,2024-06-05 15:39:52.885796
0.926274853,0.5695750713,-0.1847376823,0.1000804901,2024-06-05 15:39:52.926275
0.966812405,0.1020718813,0.008657932281,0.2571630478,2024-06-05 15:39:52.966812
1.00724954,-0.15508461,-0.04229736328,0.2642087936,2024-06-05 15:39:53.007250
1.0477923,-0.04184901714,0.1592321396,-0.2022423744,2024-06-05 15:39:53.047792
1.088279957,0.1057226658,-0.02754354477,-0.2286968231,2024-06-05 15:39:53.088280
1.128762092,0.6092101336,-0.1354393959,0.173664093,2024-06-05 15:39:53.128762
1.16925204,-0.007208049297,-0.3350596428,1.152115822,2024-06-05 15:39:53.169252
1.209752405,-0.4747410417,0.2851066589,0.4281024933,2024-06-05 15:39:53.209752
1.25019954,-0.2755474448,0.1939792633,1.2105093,2024-06-05 15:39:53.250200
1.290676728,0.7407267094,-0.07258796692,1.673827171,2024-06-05 15:39:53.290677
1.331144748,-0.5137214065,0.1197104454,0.08909225464,2024-06-05 15:39:53.331145
1.371642665,-0.09288750589,-0.300909996,-0.9282913208,2024-06-05 15:39:53.371643
1.41210928,-1.132733345,-1.130354404,-0.9219722748,2024-06-05 15:39:53.412109
1.45258204,-1.02207768,-0.8026380539,0.9617958069,2024-06-05 15:39:53.452582
1.493111259,-0.7547310591,-1.417615891,1.534545898,2024-06-05 15:39:53.493111
1.533640321,-0.5555214286,-1.236097813,0.7717485428,2024-06-05 15:39:53.533640
1.574124748,0.01990872994,-0.7716526985,-1.110978603,2024-06-05 15:39:53.574125
1.614600998,0.7072656751,-0.4442725182,-0.8084478378,2024-06-05 15:39:53.614601
1.655083082,0.5740858316,0.1019940376,-0.6952400208,2024-06-05 15:39:53.655083
1.695565478,-0.06546908617,0.8299765587,-0.7767505646,2024-06-05 15:39:53.695565
1.736046936,-0.3526471257,0.08563423157,-0.4930901527,2024-06-05 15:39:53.736047
1.776530009,0.4544978738,0.8324971199,-1.101013184,2024-06-05 15:39:53.776530
1.8170248,-1.473320127,0.5878343582,-0.7216348648,2024-06-05 15:39:53.817025
1.857510217,-1.197104931,0.7864375114,0.4596157074,2024-06-05 15:39:53.857510
1.897996728,-0.5583596826,0.6701622009,-0.6606998444,2024-06-05 15:39:53.897997
1.938483186,0.1419271231,-0.5922641754,-0.6416316032,2024-06-05 15:39:53.938483
1.978963394,0.3347103596,0.5378689766,-0.5585289001,2024-06-05 15:39:53.978963
2.019438342,-0.03029346466,-0.004867076874,-0.6056671143,2024-06-05 15:39:54.019438
2.059922353,0.73178339,0.5240807533,0.3232831955,2024-06-05 15:39:54.059922
2.100390009,0.6699943542,0.6487956047,0.3866028786,2024-06-05 15:39:54.100390
2.140851675,1.427791357,0.8141832352,0.3643989563,2024-06-05 15:39:54.140852
2.181356467,0.1669301987,0.6148686409,0.02520418167,2024-06-05 15:39:54.181356
2.221875894,0.2096393108,0.0827703476,-0.4897713661,2024-06-05 15:39:54.221876
2.262361467,0.8465270996,-0.00999546051,0.00403213501,2024-06-05 15:39:54.262361
2.302859436,0.1002147198,-0.4212651253,0.316573143,2024-06-05 15:39:54.302859
2.343333186,0.9656245708,-0.03399848938,-1.541969776,2024-06-05 15:39:54.343333
2.383823238,-0.3765451908,0.2125864029,-0.5705747604,2024-06-05 15:39:54.383823
2.424312925,0.130292654,0.4395165443,-1.121527672,2024-06-05 15:39:54.424313
2.464777873,-0.03851985931,0.2334728241,-0.6106448174,2024-06-05 15:39:54.464778
2.505277925,-0.2760558128,-0.3549842834,1.000588894,2024-06-05 15:39:54.505278
2.545772873,0.3043699265,-0.3734922409,1.344225883,2024-06-05 15:39:54.545773
2.586257613,0.2563972473,-0.2500352859,-0.520524025,2024-06-05 15:39:54.586258
2.626742717,-0.819893837,-1.159012794,-0.6265230179,2024-06-05 15:39:54.626743
2.66721428,-0.1094307899,-0.5478854179,-0.9535207748,2024-06-05 15:39:54.667214
2.707693238,-0.11926651,7.629394531e-06,-0.1745662689,2024-06-05 15:39:54.707693
2.748182717,1.721688509,-0.7368555069,-0.047498703,2024-06-05 15:39:54.748183
2.788684175,-0.8151839972,-1.034920692,-1.435078621,2024-06-05 15:39:54.788684
2.829173498,0.4328062534,-0.9959211349,1.383280754,2024-06-05 15:39:54.829173
2.869659696,3.891082764,-0.4964184761,0.3831281662,2024-06-05 15:39:54.869660
2.910131519,2.913275719,-0.9471592903,-1.476567745,2024-06-05 15:39:54.910132
2.950609905,0.1220682859,-1.941830397,0.7900848389,2024-06-05 15:39:54.950610
2.991084384,-1.833390951,-1.95981884,0.4623374939,2024-06-05 15:39:54.991084
3.031586675,-1.537185431,-1.348179221,0.9749250412,2024-06-05 15:39:55.031587
3.072060165,-0.4947462082,-1.77172637,-0.6698570251,2024-06-05 15:39:55.072060
3.112520894,-0.9873685837,-1.069465876,-4.354338169,2024-06-05 15:39:55.112521
3.1530673,-1.553479671,0.1975854635,-1.5163064,2024-06-05 15:39:55.153067
3.19355303,-2.999042034,-0.1278420985,0.5185003281,2024-06-05 15:39:55.193553
3.23399428,-2.82591486,1.653000355,-1.271514893,2024-06-05 15:39:55.233994
3.274526155,3.246358395,3.698489666,8.656076431,2024-06-05 15:39:55.274526
3.31501105,1.279157162,2.97966814,-2.225017071,2024-06-05 15:39:55.315011
3.355496936,-1.525516987,2.386545181,-1.947570324,2024-06-05 15:39:55.355497
3.395979019,-2.281142235,0.9478647709,-2.297341824,2024-06-05 15:39:55.395979
3.436466363,-1.257428646,0.8694043159,1.461465359,2024-06-05 15:39:55.436466
3.476951415,-3.395881176,1.048502684,-0.9554553032,2024-06-05 15:39:55.476951
3.51743428,-0.3895573616,0.3929841518,4.307561398,2024-06-05 15:39:55.517434
3.55792178,1.394686222,1.204553604,2.450154781,2024-06-05 15:39:55.557922
3.598409071,0.9863495827,0.05618476868,0.09446573257,2024-06-05 15:39:55.598409
3.638894436,0.6338281631,-0.06283092499,-1.010802269,2024-06-05 15:39:55.638894
3.679359853,0.03544807434,-0.4510821104,-0.1133756638,2024-06-05 15:39:55.679360
3.719819488,-0.3973293304,-1.103147507,-1.94212842,2024-06-05 15:39:55.719819
3.760314905,1.22941494,-0.05443656445,1.021859646,2024-06-05 15:39:55.760315
3.800800998,-0.152094841,0.1686000824,1.099096298,2024-06-05 15:39:55.800801
3.841292509,1.136043549,0.9811156988,-0.3027029037,2024-06-05 15:39:55.841293
3.881817405,0.936041832,0.7720378637,0.05952882767,2024-06-05 15:39:55.881817
3.92230329,-0.9298629761,0.357832551,-1.286211014,2024-06-05 15:39:55.922303
3.96271928,0.007128715515,0.7341393232,-0.4947695732,2024-06-05 15:39:55.962719
4.003280113,-3.124027729,-1.49538362,-0.1478600502,2024-06-05 15:39:56.003280
4.043742925,1.796813011,0.07360780239,1.582271576,2024-06-05 15:39:56.043743
4.084238603,-0.0999622345,-0.7627060413,0.0343952179,2024-06-05 15:39:56.084239
4.124730686,0.7234444618,0.4463191032,-0.3493261337,2024-06-05 15:39:56.124731
4.165181728,2.290208817,0.2714360952,-0.2239117622,2024-06-05 15:39:56.165182
4.205717665,4.292147636,1.800012231,1.685083866,2024-06-05 15:39:56.205718
4.246165321,3.426845312,0.1883978844,-0.09897756577,2024-06-05 15:39:56.246165
4.286670165,-6.002625465,-1.11834693,-2.066673994,2024-06-05 15:39:56.286670
4.327155894,-1.669595718,2.034808159,-1.173661709,2024-06-05 15:39:56.327156
4.367644384,-1.407996178,3.85374403,0.3869347572,2024-06-05 15:39:56.367644
4.408129123,-2.693553448,0.7671003342,0.5225915909,2024-06-05 15:39:56.408129
4.448542092,0.1887993813,-3.32739234,-1.37001133,2024-06-05 15:39:56.448542
4.489102769,2.31833744,-5.449337006,-0.4233765602,2024-06-05 15:39:56.489103
4.529589019,1.105032444,1.456695914,-0.617515564,2024-06-05 15:39:56.529589
4.570051884,1.066782475,0.1563355923,2.603610992,2024-06-05 15:39:56.570052
4.61054079,0.383626461,-1.152689695,-1.487226486,2024-06-05 15:39:56.610541
4.651024436,-0.07647705078,-0.4173593521,0.303545475,2024-06-05 15:39:56.651024
4.691481259,-0.06980609894,0.5859951973,0.3315515518,2024-06-05 15:39:56.691481
4.731966988,1.003341675,3.909903526,-0.4853610992,2024-06-05 15:39:56.731967
4.772452717,0.3134851456,3.088181496,-1.687223434,2024-06-05 15:39:56.772453
4.812980842,2.770336866,0.8408050537,2.017594337,2024-06-05 15:39:56.812981
4.853478967,2.602347374,0.7817015648,-1.814382553,2024-06-05 15:39:56.853479
4.893958238,-0.2690768242,2.081660271,-0.3263010979,2024-06-05 15:39:56.893958
4.934439644,-0.2717137337,-0.2917780876,-0.5818052292,2024-06-05 15:39:56.934440
4.974930217,1.465856075,-1.355791092,-1.03536272,2024-06-05 15:39:56.974930
5.015423707,2.479924202,-1.328267097,-0.5809831619,2024-06-05 15:39:57.015424
5.055906936,-2.864441395,-4.027780533,-0.3529987335,2024-06-05 15:39:57.055907
5.096394228,-2.041050911,-7.023833275,2.083674431,2024-06-05 15:39:57.096394
5.136878915,0.316286087,-0.5586032867,0.3690752983,2024-06-05 15:39:57.136879
5.17737553,0.9896831512,0.7929034233,0.3209633827,2024-06-05 15:39:57.177376
5.217859332,1.9664011,0.8064522743,0.3629050255,2024-06-05 15:39:57.217859
5.258328915,-0.9074921608,-1.809213638,0.3560171127,2024-06-05 15:39:57.258329
5.298823134,-1.240893364,-0.7310013771,0.921090126,2024-06-05 15:39:57.298823
5.339311363,0.865940094,0.5545516014,0.4958751202,2024-06-05 15:39:57.339311
5.379791311,0.8637785912,-1.153515816,-0.02185988426,2024-06-05 15:39:57.379791
5.420230842,-0.114320755,-1.370780468,0.07156515121,2024-06-05 15:39:57.420231
5.460700373,1.319590569,-0.0156493187,-1.150714159,2024-06-05 15:39:57.460700
5.501212353,0.07920455933,-0.5049343109,-0.5938339233,2024-06-05 15:39:57.501212
5.541699175,0.3399386406,0.6376647949,-1.208506465,2024-06-05 15:39:57.541699
5.582194123,0.3101563454,0.4038643837,-0.4379990101,2024-06-05 15:39:57.582194
5.622713134,0.4226870537,0.5592522621,-0.09513139725,2024-06-05 15:39:57.622713
5.663187978,0.009613513947,0.3577742577,-0.1550824642,2024-06-05 15:39:57.663188
5.703668446,-0.6186523438,-0.1894688606,-0.3086640835,2024-06-05 15:39:57.703668
5.744156675,0.5039377213,0.4624466896,0.1111955643,2024-06-05 15:39:57.744157
5.784655217,0.2392749786,-0.02379894257,0.1344583035,2024-06-05 15:39:57.784655
5.825098134,0.08903121948,-0.05944681168,-0.01832723618,2024-06-05 15:39:57.825098
5.865606363,0.1054058075,0.1438193321,-0.2530758381,2024-06-05 15:39:57.865606
5.906115894,0.1205163002,-0.1410861015,0.1139557362,2024-06-05 15:39:57.906116
5.946601988,0.03859472275,-0.3283615112,-0.2744417191,2024-06-05 15:39:57.946602
5.987079384,-0.09643030167,-0.20921278,0.1825191975,2024-06-05 15:39:57.987079
6.027549644,0.4573664665,0.07936811447,-0.3808355331,2024-06-05 15:39:58.027550
6.068035738,-0.813226223,-0.695081234,-0.09089660645,2024-06-05 15:39:58.068036
6.108521832,0.3629841805,0.250038147,0.1084804535,2024-06-05 15:39:58.108522
6.149007978,0.004719734192,-1.022053719,0.09570479393,2024-06-05 15:39:58.149008
6.189544488,1.109632492,0.1764755249,0.2302260399,2024-06-05 15:39:58.189544
6.229986832,1.019379616,0.05229139328,0.2901091576,2024-06-05 15:39:58.229987
6.270471728,1.38881588,0.629450798,0.2095386982,2024-06-05 15:39:58.270472
6.310938863,0.7339611053,0.1655459404,0.1792070866,2024-06-05 15:39:58.310939
6.351464228,-0.4703454971,-0.316110611,-0.1919398308,2024-06-05 15:39:58.351464
6.391923394,-0.9613890648,0.04998254776,-0.3004674911,2024-06-05 15:39:58.391923
6.432405634,-0.4759888649,-0.1251792908,-0.08136796951,2024-06-05 15:39:58.432406
6.472911884,0.1349024773,0.2456102371,-0.1424994469,2024-06-05 15:39:58.472912
6.51341704,-0.1094193459,-0.05390357971,-0.1014182568,2024-06-05 15:39:58.513417
6.553883446,0.1377153397,0.1568980217,-0.2250013351,2024-06-05 15:39:58.553883
6.594385686,-0.2540912628,-0.2343502045,-0.007769346237,2024-06-05 15:39:58.594386
6.634873394,-0.2872214317,-0.4087505341,0.0711607933,2024-06-05 15:39:58.634873
6.675285842,0.01039218903,0.1663851738,-0.4529943466,2024-06-05 15:39:58.675286
6.715864384,-0.5416560173,0.5140552521,-0.7812533379,2024-06-05 15:39:58.715864
6.756350738,0.2318124771,0.02672243118,-0.06505608559,2024-06-05 15:39:58.756351
6.796812092,0.09065723419,0.5520243645,-0.2589833736,2024-06-05 15:39:58.796812
6.837298394,0.1350841522,1.288922787,0.3518829346,2024-06-05 15:39:58.837298
6.877784696,0.9263806343,1.142074108,0.6910245419,2024-06-05 15:39:58.877785
6.91827105,-0.7498898506,0.9106841087,0.6340191364,2024-06-05 15:39:58.918271
6.958717405,-1.540233612,0.411260128,-0.1885011196,2024-06-05 15:39:58.958717
6.999243446,-1.226797104,-0.1909999847,-0.3547663689,2024-06-05 15:39:58.999243
7.039733342,-0.8337087631,0.1355633736,-0.06734609604,2024-06-05 15:39:59.039733
7.080194592,-0.3504743576,0.204887867,-0.1764268875,2024-06-05 15:39:59.080195
7.120699228,-0.1582570076,-0.0142827034,-0.1640360355,2024-06-05 15:39:59.120699
7.161183655,0.01830053329,0.1398077011,0.008770704269,2024-06-05 15:39:59.161184
7.201618603,0.5167756081,0.08010673523,0.3065052032,2024-06-05 15:39:59.201619
7.242127248,0.4782209396,0.02639484406,0.2003324032,2024-06-05 15:39:59.242127
7.282613394,0.7031235695,0.06451320648,0.2379395962,2024-06-05 15:39:59.282613
7.32309954,1.445310593,-0.5330648422,0.3465192318,2024-06-05 15:39:59.323100
7.363607665,0.5231199265,-0.4778060913,0.2358579636,2024-06-05 15:39:59.363608
7.404111832,0.8343749046,-0.7084898949,-0.06438684464,2024-06-05 15:39:59.404112
7.44452553,0.7153615952,-0.9711942673,0.02985668182,2024-06-05 15:39:59.444526
7.48508105,0.7896852493,-0.8136487007,0.009258270264,2024-06-05 15:39:59.485081
7.52556329,0.5350837708,-0.8929066658,-0.02478885651,2024-06-05 15:39:59.525563
7.566050425,0.4418644905,-0.6769223213,-0.07824611664,2024-06-05 15:39:59.566050
7.606536207,0.355919838,-0.7204723358,0.01027321815,2024-06-05 15:39:59.606536
7.647024748,-0.1243805885,-0.2563428879,-0.03039550781,2024-06-05 15:39:59.647025
7.687485165,0.05586385727,-0.006789207458,-0.007186174393,2024-06-05 15:39:59.687485
7.727971623,0.3133621216,0.00449848175,0.0179874897,2024-06-05 15:39:59.727972
7.768458134,0.2696790695,0.1705842018,0.03104639053,2024-06-05 15:39:59.768458
7.8089473,-0.1239652634,0.3291754723,-0.002841472626,2024-06-05 15:39:59.808947
7.8494598,-0.1874871254,0.2419662476,-0.1060171127,2024-06-05 15:39:59.849460
7.889946259,-0.1392049789,0.2386584282,-0.1490418911,2024-06-05 15:39:59.889946
7.930413811,-0.2622942924,0.03730392456,-0.01663303375,2024-06-05 15:39:59.930414
7.970900269,-0.2125673294,0.1725912094,-0.1120049953,2024-06-05 15:39:59.970900
8.011354175,-0.1615633965,0.226585865,-0.1869997978,2024-06-05 15:40:00.011354
8.051840686,-0.3000016212,0.3043398857,-0.02433228493,2024-06-05 15:40:00.051841
8.092327144,0.1745524406,0.2103867531,-0.07905864716,2024-06-05 15:40:00.092327
8.132805321,0.289888382,0.1146736145,0.1911609173,2024-06-05 15:40:00.132805
8.173347561,0.6158165932,-0.3534083366,0.2581496239,2024-06-05 15:40:00.173348
8.213833134,-0.259953022,0.1347827911,0.2235159874,2024-06-05 15:40:00.213833
8.254318707,0.1111187935,0.6167817116,-0.1669707298,2024-06-05 15:40:00.254319
8.29480428,0.006191730499,0.1914148331,-0.2346613407,2024-06-05 15:40:00.294804
8.335289853,-0.5069909096,-0.2936549187,-0.1120612621,2024-06-05 15:40:00.335290
8.375761259,-0.07309007645,-0.2851896286,0.1122698784,2024-06-05 15:40:00.375761
8.416228967,0.2917795181,-0.07869672775,0.0182299614,2024-06-05 15:40:00.416229
8.456671571,-0.09643745422,0.3182816505,-0.09008407593,2024-06-05 15:40:00.456672
8.497235582,-0.2214899063,0.2481498718,-0.133253336,2024-06-05 15:40:00.497236
8.53772178,-0.2133674622,0.2282352448,-0.154255867,2024-06-05 15:40:00.537722
8.578209332,-0.1685585976,0.1072831154,-0.06383061409,2024-06-05 15:40:00.578209
8.618693603,-0.04891109467,0.08154010773,-0.03454399109,2024-06-05 15:40:00.618694
8.65918303,-0.02031517029,0.1852798462,-0.0192360878,2024-06-05 15:40:00.659183
8.699642196,-0.08314943314,0.07992219925,-0.06704449654,2024-06-05 15:40:00.699642
8.740132457,0.1010308266,-0.1558060646,0.1444160938,2024-06-05 15:40:00.740132
8.780618707,0.08805942535,-0.2388205528,0.04953598976,2024-06-05 15:40:00.780619
8.821092665,0.0992398262,-0.1877827644,0.02137351036,2024-06-05 15:40:00.821093
8.861584384,0.1696043015,-0.1861515045,0.2974243164,2024-06-05 15:40:00.861584
8.902015113,0.4391174316,-0.06173706055,0.3487296104,2024-06-05 15:40:00.902015
8.942545009,0.4707064629,-0.1369924545,0.3087792397,2024-06-05 15:40:00.942545
8.983065061,0.1682572365,-0.1307854652,0.1324319839,2024-06-05 15:40:00.983065
9.023491311,-0.1453881264,-0.1765408516,0.01351976395,2024-06-05 15:40:01.023491
9.064041311,-0.1983065605,-0.1163725853,-0.03741884232,2024-06-05 15:40:01.064041
9.104460686,0.01997041702,0.1100096703,-0.07508277893,2024-06-05 15:40:01.104461
9.145017717,0.1027464867,0.2478928566,-0.07081317902,2024-06-05 15:40:01.145018
9.185498759,0.06176519394,0.1591558456,0.03571510315,2024-06-05 15:40:01.185499
9.2259773,0.2284598351,0.1740837097,0.1289248466,2024-06-05 15:40:01.225977
9.266463655,0.2298822403,0.04708242416,0.1571540833,2024-06-05 15:40:01.266464
9.306950061,0.2302889824,-0.1832385063,0.280310154,2024-06-05 15:40:01.306950
9.347436415,0.2381772995,-0.2461228371,0.2909140587,2024-06-05 15:40:01.347436
9.387922821,0.1260471344,-0.006289482117,0.1613368988,2024-06-05 15:40:01.387923
9.428357092,-0.05675411224,-0.01532316208,0.06632661819,2024-06-05 15:40:01.428357
9.468895269,-0.1220955849,0.01632261276,-0.02222728729,2024-06-05 15:40:01.468895
9.509381675,-0.0286397934,0.01154708862,-0.07068109512,2024-06-05 15:40:01.509382
9.549868342,-0.06925678253,0.03513240814,-0.04602003098,2024-06-05 15:40:01.549868
9.590342925,-0.08412694931,0.08555698395,-0.06525039673,2024-06-05 15:40:01.590343
9.630809175,-0.07591962814,0.07739877701,-0.04297494888,2024-06-05 15:40:01.630809
9.671299957,-0.02036952972,0.05783987045,-0.0001559257507,2024-06-05 15:40:01.671300
9.711786311,-0.0006241798401,0.07010746002,0.001719474792,2024-06-05 15:40:01.711786
9.752229592,-0.04638290405,0.07153177261,-0.01589012146,2024-06-05 15:40:01.752230
9.7927698,-0.08196306229,0.07310533524,-0.03942394257,2024-06-05 15:40:01.792770
9.833271155,-0.09093618393,0.05459070206,-0.0568857193,2024-06-05 15:40:01.833271
9.873759436,-0.0664639473,0.07573461533,-0.05271053314,2024-06-05 15:40:01.873759
9.914212509,-0.0660367012,0.07356882095,-0.05573272705,2024-06-05 15:40:01.914213
9.954691884,-0.08795928955,0.05705595016,-0.05126476288,2024-06-05 15:40:01.954692
9.995179228,-0.07950258255,0.05602025986,-0.02981042862,2024-06-05 15:40:01.995179
10.03571251,-0.05087375641,0.05306053162,-0.02914571762,2024-06-05 15:40:02.035713
10.07620001,-0.04410982132,0.05686283112,-0.02216672897,2024-06-05 15:40:02.076200
10.11668657,-0.08458948135,-0.06705379486,0.03770208359,2024-06-05 15:40:02.116687
10.1571736,-0.1782188416,-0.2741475105,0.08329248428,2024-06-05 15:40:02.157174
10.19765709,0.150062561,0.09299373627,0.02450323105,2024-06-05 15:40:02.197657
10.23809162,0.1480817795,0.07494974136,0.02136087418,2024-06-05 15:40:02.238092
10.27862121,0.0812458992,-0.05407047272,0.1230916977,2024-06-05 15:40:02.278621
10.31911735,-0.04323768616,-0.1248064041,0.0937795639,2024-06-05 15:40:02.319117
10.35960491,0.06412172318,0.04282474518,0.04491043091,2024-06-05 15:40:02.359605
10.40007662,-0.01408100128,0.009064674377,0.1185741425,2024-06-05 15:40:02.400077
10.44054954,0.01948070526,-0.1802630424,0.3155665398,2024-06-05 15:40:02.440550
10.48103058,0.09681129456,-0.1895399094,0.2804675102,2024-06-05 15:40:02.481031
10.52151938,0.2761240005,0.05941772461,0.2110228539,2024-06-05 15:40:02.521519
10.56203063,0.0689291954,-0.1438646317,0.104184866,2024-06-05 15:40:02.562031
10.60251209,-0.1001224518,-0.2639813423,-0.1059343815,2024-06-05 15:40:02.602512
10.64298834,0.2533421516,0.05332374573,-0.05401396751,2024-06-05 15:40:02.642988
10.68348011,0.04941940308,-0.03662252426,-0.1186192036,2024-06-05 15:40:02.683480
10.72393683,-0.1028666496,-0.2219190598,-0.05503344536,2024-06-05 15:40:02.723937
10.76441912,-0.05859422684,0.02662277222,0.03433942795,2024-06-05 15:40:02.764419
10.80490475,0.06355333328,0.0564455986,-0.01785993576,2024-06-05 15:40:02.804905
10.84540621,-0.1750411987,-0.1626973152,0.04334282875,2024-06-05 15:40:02.845406
10.88591866,0.06287193298,0.1667094231,-0.2152729034,2024-06-05 15:40:02.885919
10.92639725,0.1267733574,0.4776022434,-0.5126950741,2024-06-05 15:40:02.926397
10.96688975,0.04182004929,0.7877495289,-0.6770653725,2024-06-05 15:40:02.966890
11.00738392,-0.224044323,0.4713935852,-0.3892641068,2024-06-05 15:40:03.007384
11.04787256,-0.102742672,0.3416833878,-0.3492443562,2024-06-05 15:40:03.047873
11.08836261,-0.3011498451,0.2250676155,-0.2861461639,2024-06-05 15:40:03.088363
11.1288485,-0.2028198242,0.3465390205,-0.3746507168,2024-06-05 15:40:03.128849
11.16933121,-0.1020784378,0.09630393982,-0.1078252792,2024-06-05 15:40:03.169331
11.20980725,0.1725020409,-0.01617193222,0.2972383499,2024-06-05 15:40:03.209807
11.25028292,-0.5540475845,-0.1196665764,-0.05379152298,2024-06-05 15:40:03.250283
11.29076673,-0.2333536148,0.4686083794,-0.5444338322,2024-06-05 15:40:03.290767
11.33122996,-0.5797643661,0.1204924583,-0.5572752953,2024-06-05 15:40:03.331230
11.37177272,-0.9994268417,0.1888976097,-0.875392437,2024-06-05 15:40:03.371773
11.41224709,-0.8537712097,0.3505482674,-0.7856957912,2024-06-05 15:40:03.412247
11.45271074,-0.4874820709,0.07689476013,-0.1751122475,2024-06-05 15:40:03.452711
11.49319475,-0.2370243073,-0.1210074425,0.2112393379,2024-06-05 15:40:03.493195
11.53370126,-0.09026622772,0.1956977844,0.04480075836,2024-06-05 15:40:03.533701
11.57419855,-0.04623126984,0.3204550743,-0.06653928757,2024-06-05 15:40:03.574199
11.614651,0.0994720459,0.2218470573,-0.01814222336,2024-06-05 15:40:03.614651
11.65512058,0.1444973946,-0.11130476,0.1069598198,2024-06-05 15:40:03.655121
11.69567084,0.06780481339,-0.2242584229,0.2375535965,2024-06-05 15:40:03.695671
11.73613011,0.1007361412,-0.1703071594,0.1756148338,2024-06-05 15:40:03.736130
11.77662569,0.0995349884,-0.2481837273,0.2374563217,2024-06-05 15:40:03.776626
11.81711501,0.3082261086,-0.04487037659,0.2793326378,2024-06-05 15:40:03.817115
11.8575974,0.2321176529,-0.07170581818,0.3485832214,2024-06-05 15:40:03.857597
11.89804938,0.1334309578,-0.1815423965,0.3201599121,2024-06-05 15:40:03.898049
11.93850642,0.1466779709,0.007534980774,0.1456613541,2024-06-05 15:40:03.938506
11.97906116,0.02237129211,0.04908323288,0.0573143959,2024-06-05 15:40:03.979061
12.01951079,-0.05790138245,-0.1265072823,0.09918355942,2024-06-05 15:40:04.019511
12.0600072,0.05721616745,-0.121884346,0.145380497,2024-06-05 15:40:04.060007
12.10050418,0.1596531868,-0.01453638077,0.1737217903,2024-06-05 15:40:04.100504
12.14096162,0.1965785027,-0.1505489349,0.304049015,2024-06-05 15:40:04.140962
12.18145376,0.309885025,-0.5418357849,0.3599004745,2024-06-05 15:40:04.181454
12.22195678,0.3014745712,0.1550536156,0.1551499367,2024-06-05 15:40:04.221957
12.26244011,0.2237358093,0.1192755699,0.168738842,2024-06-05 15:40:04.262440
12.30293574,0.02711820602,0.03528356552,0.1030268669,2024-06-05 15:40:04.302936
12.34342808,0.142572403,0.2116036415,-0.01772356033,2024-06-05 15:40:04.343428
12.38385522,0.04705619812,0.0228638649,-0.02151489258,2024-06-05 15:40:04.383855
12.42434147,0.008451461792,-0.05996322632,-0.02447462082,2024-06-05 15:40:04.424341
12.46483006,0.03896284103,0.09399318695,-0.07207012177,2024-06-05 15:40:04.464830
12.50531626,0.05202722549,0.01079654694,-0.07394361496,2024-06-05 15:40:04.505316
12.5458549,0.03568124771,-0.05301952362,0.01878643036,2024-06-05 15:40:04.545855
12.58631803,0.01704645157,-0.08131027222,0.0404086113,2024-06-05 15:40:04.586318
12.62683798,0.03661155701,-0.01457548141,-0.02413415909,2024-06-05 15:40:04.626838
12.66725829,-0.01276302338,0.1163334846,-0.1450619698,2024-06-05 15:40:04.667258
12.70784954,-0.09485864639,0.3012042046,-0.3026380539,2024-06-05 15:40:04.707850
12.74828923,-0.1421117783,0.3715405464,-0.3186426163,2024-06-05 15:40:04.748289
12.78874918,-0.3814730644,0.05921554565,-0.04816484451,2024-06-05 15:40:04.788749
12.82926688,-0.4286904335,-0.07505607605,0.05324649811,2024-06-05 15:40:04.829267
12.86975756,-0.4435811043,-0.1057662964,0.007027626038,2024-06-05 15:40:04.869758
12.91023438,-0.2636537552,0.08478975296,-0.1449127197,2024-06-05 15:40:04.910234
12.95065678,-0.01113605499,0.2626023293,-0.1644721031,2024-06-05 15:40:04.950657
12.99117829,0.06049871445,0.2129955292,-0.08636236191,2024-06-05 15:40:04.991178
13.03165558,0.04701757431,0.114841938,-0.02343511581,2024-06-05 15:40:05.031656
13.07214397,-0.1198148727,0.01200723648,-0.05032396317,2024-06-05 15:40:05.072144
13.11265303,-0.3127760887,-0.01082038879,-0.1239681244,2024-06-05 15:40:05.112653
13.15315022,-0.2797651291,0.01820468903,-0.1622371674,2024-06-05 15:40:05.153150
13.19364813,-0.2199225426,0.1552262306,-0.2228226662,2024-06-05 15:40:05.193648
13.23413438,-0.2054963112,0.1353549957,-0.09098625183,2024-06-05 15:40:05.234134
13.27459782,-0.1064553261,0.137784481,-0.07975149155,2024-06-05 15:40:05.274598
13.31506147,-0.06287956238,0.02673101425,-0.04370737076,2024-06-05 15:40:05.315061
13.35556032,-0.006937980652,-0.01796150208,0.03338623047,2024-06-05 15:40:05.355560
13.39606892,-0.01981163025,0.02013635635,0.02291440964,2024-06-05 15:40:05.396069
13.43656449,0.01787757874,0.0918970108,-0.02076625824,2024-06-05 15:40:05.436564
13.47700569,0.05676317215,0.108725071,0.01780414581,2024-06-05 15:40:05.477006
13.51753298,0.05072069168,0.02190494537,0.0532336235,2024-06-05 15:40:05.517533
13.55802657,0.03375959396,-0.06476736069,0.08423423767,2024-06-05 15:40:05.558027
13.59851058,0.03794050217,-0.0772356987,0.01136541367,2024-06-05 15:40:05.598511
13.63897272,0.02566766739,-0.0350151062,0.0205411911,2024-06-05 15:40:05.638973
13.67951574,0.01737785339,-0.005615711212,0.01857566833,2024-06-05 15:40:05.679516
13.7199798,-0.0132727623,0.008326053619,-0.001194953918,2024-06-05 15:40:05.719980
13.76041386,-0.04812765121,0.0167350769,-0.01876878738,2024-06-05 15:40:05.760414
13.800891,-0.04826164246,0.03314828873,-0.02384233475,2024-06-05 15:40:05.800891
13.84138293,0.02065181732,0.05137300491,-0.02214288712,2024-06-05 15:40:05.841383
13.88186511,0.001219749451,0.03651380539,0.00999212265,2024-06-05 15:40:05.881865
13.92235475,-0.009114742279,0.002245426178,0.01452732086,2024-06-05 15:40:05.922355
13.9628436,0.01308250427,-0.003932952881,-0.004624843597,2024-06-05 15:40:05.962844
14.00335954,0.001645565033,0.02391290665,-2.384185791e-06,2024-06-05 15:40:06.003360
14.04385438,0.04549455643,-0.004477500916,0.04001760483,2024-06-05 15:40:06.043854
14.08432808,0.08634233475,-0.05084609985,0.02734661102,2024-06-05 15:40:06.084328
14.12478933,0.06006908417,-0.149579525,0.07120800018,2024-06-05 15:40:06.124789
14.16526402,0.0590929985,-0.09698438644,0.09051990509,2024-06-05 15:40:06.165264
14.20573725,0.07975530624,0.02408742905,0.08199501038,2024-06-05 15:40:06.205737
14.24626631,0.06779336929,0.03483963013,0.05691146851,2024-06-05 15:40:06.246266
14.28677746,0.05602788925,0.1002078056,0.02194738388,2024-06-05 15:40:06.286777
14.32726584,0.03004264832,-0.02646541595,0.05125045776,2024-06-05 15:40:06.327266
14.36775334,0.07133340836,-0.1353507042,0.09850215912,2024-06-05 15:40:06.367753
14.40824032,0.08534955978,-0.1865715981,0.07871007919,2024-06-05 15:40:06.408240
14.44872647,0.1179499626,-0.156914711,0.0628900528,2024-06-05 15:40:06.448726
14.48919491,0.06787776947,-0.0881562233,0.0636677742,2024-06-05 15:40:06.489195
14.52967548,0.03760910034,-0.005589962006,0.05831193924,2024-06-05 15:40:06.529675
14.57018334,0.06225824356,0.07955551147,0.05282402039,2024-06-05 15:40:06.570183
14.61064813,0.0393280983,0.07197809219,0.03376293182,2024-06-05 15:40:06.610648
14.65111501,0.04546499252,0.07309246063,0.013276577,2024-06-05 15:40:06.651115
14.69159095,0.04549694061,0.02554750443,0.04671812057,2024-06-05 15:40:06.691591
14.73210933,0.002139091492,-0.05412483215,0.03081941605,2024-06-05 15:40:06.732109
14.77256735,0.01579809189,-0.04242944717,0.004253387451,2024-06-05 15:40:06.772567
14.81311787,-0.00444316864,-0.03069591522,-0.02180194855,2024-06-05 15:40:06.813118
14.85360381,0.02237844467,-0.01557731628,0.005533695221,2024-06-05 15:40:06.853604
14.8940898,-0.006818294525,0.01732969284,0.002566814423,2024-06-05 15:40:06.894090
14.93451267,-0.007061004639,0.04769515991,-0.02294921875,2024-06-05 15:40:06.934513
14.9750548,-0.03475046158,0.03759908676,-0.02603912354,2024-06-05 15:40:06.975055
15.01554043,-0.05549526215,0.02471876144,-0.002685070038,2024-06-05 15:40:07.015540
15.0560235,-0.05444335938,0.003927230835,-0.005978107452,2024-06-05 15:40:07.056024
15.09651126,-0.02063083649,0.02675247192,-0.004210472107,2024-06-05 15:40:07.096511
15.13699621,0.003322601318,0.02483177185,0.02263641357,2024-06-05 15:40:07.136996
15.17747944,0.02014970779,-0.0446305275,0.06785583496,2024-06-05 15:40:07.177479
15.21796027,0.03436374664,-0.04493761063,0.08270740509,2024-06-05 15:40:07.217960
15.25844673,0.04015111923,-0.005400180817,0.04784011841,2024-06-05 15:40:07.258447
15.29893319,0.0222992897,0.01818847656,0.01673269272,2024-06-05 15:40:07.298933
15.3394197,-0.00483417511,0.1614823341,-0.05741167068,2024-06-05 15:40:07.339420
15.37990616,-0.02323198318,0.141348362,-0.04710912704,2024-06-05 15:40:07.379906
15.42035329,-0.1344566345,-0.1198849678,0.05213975906,2024-06-05 15:40:07.420353
15.46086011,-0.1285977364,-0.228126049,0.03536987305,2024-06-05 15:40:07.460860
15.50134657,0.0442609787,-0.02395772934,-0.02402877808,2024-06-05 15:40:07.501347
15.54183168,0.1668190956,0.1198124886,-0.1020469666,2024-06-05 15:40:07.541832
15.58231761,0.1119618416,0.08198165894,-0.02323532104,2024-06-05 15:40:07.582318
15.6228035,0.04813146591,0.008982658386,0.01098251343,2024-06-05 15:40:07.622803
15.66329621,-0.1133780479,0.006187915802,-0.02162599564,2024-06-05 15:40:07.663296
15.70380366,-0.1180262566,0.08695459366,-0.1027293205,2024-06-05 15:40:07.703804
15.74428954,-0.07773828506,0.1478705406,-0.1016201973,2024-06-05 15:40:07.744290
15.78477923,-0.06499147415,0.08896064758,-0.0222120285,2024-06-05 15:40:07.784779
15.82526506,-0.06913566589,0.04782152176,0.01392221451,2024-06-05 15:40:07.825265
15.86575095,-0.09961605072,0.004034996033,0.004725456238,2024-06-05 15:40:07.865751
15.90623688,-0.03966522217,-0.03564357758,0.01704263687,2024-06-05 15:40:07.906237
15.94664709,0.04204130173,-0.06907463074,0.02014875412,2024-06-05 15:40:07.946647
15.98721355,0.06330490112,-0.009907722473,0.03295850754,2024-06-05 15:40:07.987214
16.02769923,4.33921814e-05,0.0007719993591,0.03490400314,2024-06-05 15:40:08.027699
16.06818834,0.01990842819,0.04496431351,0.02072715759,2024-06-05 15:40:08.068188
16.10867152,-0.01924037933,0.03669309616,0.01334571838,2024-06-05 15:40:08.108672
16.14915803,-0.01996135712,0.03286886215,-0.008957862854,2024-06-05 15:40:08.149158
16.18964339,-0.01270055771,0.03136968613,-0.01720666885,2024-06-05 15:40:08.189643
16.23010699,-0.04335308075,-0.02223730087,-0.002666950226,2024-06-05 15:40:08.230107
16.27060616,-0.0004930496216,-0.01041841507,-0.001285076141,2024-06-05 15:40:08.270606
16.31108032,0.009822845459,-0.01945495605,0.0008521080017,2024-06-05 15:40:08.311080
16.35154162,0.01508426666,-0.01900339127,0.00860118866,2024-06-05 15:40:08.351542
16.39202808,0.01442623138,0.001756191254,0.00778055191,2024-06-05 15:40:08.392028
16.43248183,-0.02070474625,0.03602027893,0.02570581436,2024-06-05 15:40:08.432482
16.47304543,0.03158903122,0.0837893486,0.00713968277,2024-06-05 15:40:08.473045
16.51354579,0.007353305817,0.05919694901,0.008489608765,2024-06-05 15:40:08.513546
16.55402136,-0.009537696838,0.02459716797,0.0007386207581,2024-06-05 15:40:08.554021
16.5945123,0.004104614258,-0.008823394775,0.004706382751,2024-06-05 15:40:08.594512
16.63496089,-0.01415681839,-0.03544712067,0.007127761841,2024-06-05 15:40:08.634961
16.67547964,-0.002597332001,-0.05062961578,0.01481151581,2024-06-05 15:40:08.675480
16.71596621,-0.008775234222,-0.03396511078,0.02518033981,2024-06-05 15:40:08.715966
16.75645282,-0.009957790375,-0.03238964081,0.009052753448,2024-06-05 15:40:08.756453
16.79694329,-0.03357648849,0.02747392654,-0.01242589951,2024-06-05 15:40:08.796943
16.83742985,-0.009475708008,0.04696512222,-0.001873016357,2024-06-05 15:40:08.837430
16.87790985,0.02892017365,0.06222105026,-0.002448558807,2024-06-05 15:40:08.877910
16.91839642,-0.01542234421,0.1043601036,-0.01070976257,2024-06-05 15:40:08.918396
16.95887475,-0.01128149033,0.07648515701,-0.02383232117,2024-06-05 15:40:08.958875
16.9993723,-0.003402709961,-0.01464700699,0.005749702454,2024-06-05 15:40:08.999372
17.03984944,-0.03500890732,-0.03867959976,0.01333713531,2024-06-05 15:40:09.039849
17.08032266,0.01694726944,-0.04458332062,0.01437282562,2024-06-05 15:40:09.080323
17.12078996,0.02596378326,-0.002816200256,0.01993751526,2024-06-05 15:40:09.120790
17.16128584,0.005573749542,0.03283500671,0.02500486374,2024-06-05 15:40:09.161286
17.20175147,0.01418972015,0.05704021454,-0.007841587067,2024-06-05 15:40:09.201751
17.24227438,-0.02181148529,0.03043317795,-0.01521015167,2024-06-05 15:40:09.242274
17.28276095,-0.05758094788,0.02483797073,0.008887767792,2024-06-05 15:40:09.282761
17.32324751,0.006366729736,-0.00757598877,-0.008529663086,2024-06-05 15:40:09.323248
17.36374256,0.005400180817,-0.0159239769,-0.0051612854,2024-06-05 15:40:09.363743
17.40424194,0.009356975555,0.004195690155,0.03289318085,2024-06-05 15:40:09.404242
17.4446673,0.03993558884,0.001234054565,0.02042484283,2024-06-05 15:40:09.444667
17.48517912,-0.001516819,0.0164604187,0.01737594604,2024-06-05 15:40:09.485179
17.52569678,0.01751089096,0.02316808701,0.01984024048,2024-06-05 15:40:09.525697
17.56617876,-0.01807498932,-0.0002865791321,0.01977300644,2024-06-05 15:40:09.566179
17.60666839,-0.01554775238,-0.04598426819,0.03039693832,2024-06-05 15:40:09.606668
17.64716074,-0.1186432838,-0.2657241821,0.1209001541,2024-06-05 15:40:09.647161
17.68762657,0.06403160095,-0.0616941452,0.05755281448,2024-06-05 15:40:09.687627
17.72811303,0.1671333313,0.04372501373,0.01830720901,2024-06-05 15:40:09.728113
17.76859954,0.1460165977,0.07979011536,0.03028726578,2024-06-05 15:40:09.768600
17.80907938,0.04540491104,-0.05059480667,0.0725440979,2024-06-05 15:40:09.809079
17.84955657,0.03198814392,0.007050991058,0.05095529556,2024-06-05 15:40:09.849557
17.89004298,0.007609844208,0.03905296326,0.003355503082,2024-06-05 15:40:09.890043
17.93055839,0.03885698318,0.02639007568,-0.01791143417,2024-06-05 15:40:09.930558
17.97105517,0.03345298767,-0.03277254105,0.04664564133,2024-06-05 15:40:09.971055
18.01146433,0.05090856552,-0.05112266541,0.04478168488,2024-06-05 15:40:10.011464
18.05202558,0.07546138763,0.04751443863,-0.01889562607,2024-06-05 15:40:10.052026
18.09250954,0.003035068512,-0.005129337311,-0.01470851898,2024-06-05 15:40:10.092510
18.1329935,-0.02060747147,0.02880001068,-0.03512048721,2024-06-05 15:40:10.132994
18.17348506,-0.02974510193,0.06350183487,-0.0426325798,2024-06-05 15:40:10.173485
18.21395584,-0.09866380692,-0.01406431198,-0.01373672485,2024-06-05 15:40:10.213956
18.2544422,-0.1502275467,-0.07877349854,-0.008441448212,2024-06-05 15:40:10.254442
18.29494459,-0.01082372665,0.05873298645,-0.05176496506,2024-06-05 15:40:10.294945
18.33542782,0.01999330521,0.1086702347,-0.09044837952,2024-06-05 15:40:10.335428
18.37588371,-0.06240367889,0.1474695206,-0.07601118088,2024-06-05 15:40:10.375884
18.41638199,-0.08080053329,0.118077755,-0.1091475487,2024-06-05 15:40:10.416382
18.45688355,-0.07338953018,0.1645436287,-0.1407885551,2024-06-05 15:40:10.456884
18.49735589,-0.1454319954,0.1474475861,-0.1894855499,2024-06-05 15:40:10.497356
18.53782016,-0.2116985321,0.09726047516,-0.1352643967,2024-06-05 15:40:10.537820
18.57832824,-0.2363214493,0.05624341965,-0.04571390152,2024-06-05 15:40:10.578328
18.61878652,-0.2143535614,0.09334182739,-0.09403038025,2024-06-05 15:40:10.618787
18.65925235,-0.07478523254,0.01889562607,-0.07837677002,2024-06-05 15:40:10.659252
18.69981142,-0.04828214645,-0.06691455841,-0.04489898682,2024-06-05 15:40:10.699811
18.7402972,-0.01865291595,0.00291967392,0.02443981171,2024-06-05 15:40:10.740297
18.7807823,-0.006856441498,-0.0001010894775,0.06876707077,2024-06-05 15:40:10.780782
18.82127303,0.01464319229,-0.02180433273,0.07175588608,2024-06-05 15:40:10.821273
18.86175506,0.0278878212,-0.02734041214,0.04523420334,2024-06-05 15:40:10.861755
18.90224084,0.02156066895,-0.01080751419,0.05055236816,2024-06-05 15:40:10.902241
18.94272579,0.02936887741,0.003617286682,0.03319835663,2024-06-05 15:40:10.942726
18.9832148,0.03087902069,0.007088661194,0.04111671448,2024-06-05 15:40:10.983215
19.02369235,0.02923345566,0.02115106583,0.01585292816,2024-06-05 15:40:11.023692
19.06418876,7.677078247e-05,-0.003582954407,-0.01209211349,2024-06-05 15:40:11.064189
19.1046723,-0.04476833344,-0.02390050888,-0.00562620163,2024-06-05 15:40:11.104672
19.14516397,-0.02405309677,-0.03482341766,-0.002777099609,2024-06-05 15:40:11.145164
19.18564876,0.03136539459,-0.06872463226,0.07647275925,2024-06-05 15:40:11.185649
19.2261148,0.08014822006,-0.08594989777,0.06357526779,2024-06-05 15:40:11.226115
19.2665861,0.1524252892,-0.03382635117,0.07931804657,2024-06-05 15:40:11.266586
19.30707303,0.1113190651,-0.0418138504,0.07989549637,2024-06-05 15:40:11.307073
19.34759938,0.1154141426,-0.04090118408,0.07927799225,2024-06-05 15:40:11.347599
19.38804798,0.110669136,0.005146503448,0.06718158722,2024-06-05 15:40:11.388048
19.4285535,0.06742048264,0.02562427521,0.05582475662,2024-06-05 15:40:11.428553
19.46902152,0.05476903915,0.01307821274,0.04495573044,2024-06-05 15:40:11.469022
19.50952063,0.07325792313,0.0008172988892,0.03460025787,2024-06-05 15:40:11.509521
19.55001824,0.05025482178,-0.02573442459,0.05118322372,2024-06-05 15:40:11.550018
19.59050866,0.03171348572,-0.02942228317,0.05105876923,2024-06-05 15:40:11.590509
19.63095313,0.02700662613,-0.03089094162,0.05334711075,2024-06-05 15:40:11.630953
19.67147433,-0.012196064,-0.04045677185,0.0222492218,2024-06-05 15:40:11.671474
19.71197194,-0.01826381683,0.01725006104,0.003311634064,2024-06-05 15:40:11.711972
19.7524449,-0.05354213715,0.005627632141,-0.004076004028,2024-06-05 15:40:11.752445
19.79294496,-0.02808856964,0.01796102524,-0.04408216476,2024-06-05 15:40:11.792945
19.83343464,-0.04614114761,0.0746216774,-0.05443811417,2024-06-05 15:40:11.833435
19.87391787,-0.04115247726,0.05532693863,-0.04368925095,2024-06-05 15:40:11.873918
19.91440532,0.003375530243,0.03805971146,-0.004232883453,2024-06-05 15:40:11.914405
19.95487933,0.02066135406,-0.007534503937,0.02538633347,2024-06-05 15:40:11.954879
19.99535647,0.02666330338,0.001352787018,0.02495670319,2024-06-05 15:40:11.995356
20.03586516,0.01985216141,0.02053165436,0.01957702637,2024-06-05 15:40:12.035865
20.07634324,0.03080511093,0.04275465012,0.01932573318,2024-06-05 15:40:12.076343
20.11680824,-0.02546977997,0.0202331543,0.02081298828,2024-06-05 15:40:12.116808
20.15730089,-0.01547956467,0.01434230804,-0.004179477692,2024-06-05 15:40:12.157301
20.19782277,-0.05139017105,-0.01650810242,-0.01558542252,2024-06-05 15:40:12.197823
20.23830298,-0.0422410965,-0.00349855423,-0.05192756653,2024-06-05 15:40:12.238303
20.27876902,-0.04249763489,0.01092386246,-0.02567958832,2024-06-05 15:40:12.278769
20.31924782,-0.01669645309,0.008340358734,-0.007186412811,2024-06-05 15:40:12.319248
20.35974334,0.0118765831,0.04569911957,0.005691051483,2024-06-05 15:40:12.359743
20.40023454,0.02875995636,0.02475166321,0.02401304245,2024-06-05 15:40:12.400235
20.44072188,0.0227971077,0.002789974213,0.04740762711,2024-06-05 15:40:12.440722
20.48120225,0.04088258743,0.02529430389,0.03190231323,2024-06-05 15:40:12.481202
20.52168261,0.003299713135,0.01674413681,0.01796674728,2024-06-05 15:40:12.521683
20.56217006,-0.009413719177,0.002125263214,-0.0005402565002,2024-06-05 15:40:12.562170
20.60266886,-0.05679035187,-0.009159564972,-0.03090810776,2024-06-05 15:40:12.602669
20.64311553,-0.06633663177,-0.006405830383,-0.04835319519,2024-06-05 15:40:12.643116
20.68367001,-0.04210615158,0.009496688843,-0.02334260941,2024-06-05 15:40:12.683670
20.72412923,-0.01275444031,0.01686096191,0.0006814002991,2024-06-05 15:40:12.724129
20.76461657,0.02372121811,0.007098674774,0.009442806244,2024-06-05 15:40:12.764617
20.80510991,0.01143455505,0.005861282349,0.01999902725,2024-06-05 15:40:12.805110
20.84555636,0.0136141777,0.02082777023,0.02838850021,2024-06-05 15:40:12.845556
20.88606183,-0.003370285034,0.02025032043,0.03440380096,2024-06-05 15:40:12.886062
20.92655532,0.003122806549,0.0127453804,0.002810955048,2024-06-05 15:40:12.926555
20.96706027,-0.01906871796,0.008912563324,-0.004919528961,2024-06-05 15:40:12.967060
21.00755225,-0.006779193878,-0.001362800598,-0.008152008057,2024-06-05 15:40:13.007552
21.04804069,-0.03434801102,0.01344394684,-0.01760149002,2024-06-05 15:40:13.048041
21.08843876,-0.03062772751,0.0001583099365,-0.01238536835,2024-06-05 15:40:13.088439
21.1289922,0.009855270386,0.0148100853,-0.0154838562,2024-06-05 15:40:13.128992
21.16947355,-0.001506328583,0.02477455139,0.001471996307,2024-06-05 15:40:13.169474
21.20996584,0.03511095047,0.03459215164,0.0195646286,2024-06-05 15:40:13.209966
21.25044975,0.08655834198,0.06196403503,0.006146430969,2024-06-05 15:40:13.250450
21.29095006,0.07036399841,0.07013940811,0.02944421768,2024-06-05 15:40:13.290950
21.33143699,-0.003258228302,0.01085138321,0.03864240646,2024-06-05 15:40:13.331437
21.37192017,-0.02884197235,0.03750896454,0.02356624603,2024-06-05 15:40:13.371920
21.41240423,-0.08630084991,0.05670022964,-0.0160984993,2024-06-05 15:40:13.412404
21.45287339,-0.1272525787,-0.02097606659,0.005425930023,2024-06-05 15:40:13.452873
21.49336532,-0.005470752716,-0.03432273865,-0.02862644196,2024-06-05 15:40:13.493365
21.53386501,-0.07225656509,-0.03965806961,0.005634307861,2024-06-05 15:40:13.533865
21.57435246,0.03774356842,-0.08773040771,-0.04489660263,2024-06-05 15:40:13.574352
21.61484256,-0.02718496323,-0.05257940292,-0.02126169205,2024-06-05 15:40:13.614843
21.65526162,0.01035499573,0.0227599144,0.00438785553,2024-06-05 15:40:13.655262
21.69583694,-0.001411437988,0.04411315918,0.005068302155,2024-06-05 15:40:13.695837
21.73626392,0.07221126556,0.06724500656,0.02296876907,2024-06-05 15:40:13.736264
21.77678589,0.01314258575,0.05202293396,0.02609920502,2024-06-05 15:40:13.776786
21.81725616,0.005387783051,0.03680610657,0.04084777832,2024-06-05 15:40:13.817256
21.85773704,0.005154132843,-0.02933454514,0.02126979828,2024-06-05 15:40:13.857737
21.89824881,0.01125764847,-0.05910301208,0.03780126572,2024-06-05 15:40:13.898249
21.93868402,-0.04954910278,-0.1519360542,0.1058149338,2024-06-05 15:40:13.938684
21.97921105,-0.2450256348,-0.6304955482,0.3532342911,2024-06-05 15:40:13.979211
22.01970001,0.1113553047,-0.3049168587,0.2425789833,2024-06-05 15:40:14.019700
22.06020605,0.459871769,0.3530225754,0.02649974823,2024-06-05 15:40:14.060206
22.10066767,0.4202756882,0.2730150223,0.1276388168,2024-06-05 15:40:14.100668
22.14113464,0.2374882698,0.01037836075,0.0810546875,2024-06-05 15:40:14.141135
22.18163178,0.05439138412,0.02437639236,-0.09426689148,2024-06-05 15:40:14.181632
22.22214371,-0.1025285721,-0.06490707397,-0.2533779144,2024-06-05 15:40:14.222144
22.26261704,-0.2310900688,-0.1205911636,-0.2677760124,2024-06-05 15:40:14.262617
22.30311683,-0.09569978714,-0.005464553833,-0.08445453644,2024-06-05 15:40:14.303117
22.34360204,0.04251003265,0.03784227371,0.07069253922,2024-06-05 15:40:14.343602
22.38408886,0.1210680008,0.06996870041,0.1048660278,2024-06-05 15:40:14.384089
22.42457292,0.2472076416,0.05399990082,0.1045513153,2024-06-05 15:40:14.424573
22.46506339,0.07620286942,-0.01122808456,0.1034603119,2024-06-05 15:40:14.465063
22.50553392,0.03780317307,0.01220750809,0.02047014236,2024-06-05 15:40:14.505534
22.54603423,-0.07478380203,0.08327102661,-0.06226444244,2024-06-05 15:40:14.546034
22.5865011,-0.1271672249,0.1096601486,-0.08678770065,2024-06-05 15:40:14.586501
22.62699772,-0.1516160965,0.07617282867,-0.1379084587,2024-06-05 15:40:14.626998
22.6674923,-0.1813364029,0.04593276978,-0.1871070862,2024-06-05 15:40:14.667492
22.70801954,-0.140794754,0.0001058578491,-0.1559071541,2024-06-05 15:40:14.708020
22.7484635,-0.1053557396,-0.05018615723,-0.04921007156,2024-06-05 15:40:14.748463
22.78891126,-0.09994840622,-0.06623649597,0.03836727142,2024-06-05 15:40:14.788911
22.82940402,-0.06422805786,0.01182842255,0.01603507996,2024-06-05 15:40:14.829404
22.86991037,-0.03509807587,0.0857052803,-0.07021951675,2024-06-05 15:40:14.869910
22.91042798,-0.1147770882,0.1458978653,-0.1302704811,2024-06-05 15:40:14.910428
22.95090548,-0.09180021286,0.2232718468,-0.166659832,2024-06-05 15:40:14.950905
22.99136527,-0.1021375656,0.1527338028,-0.1077961922,2024-06-05 15:40:14.991365
23.03186183,-0.1383881569,0.1707000732,-0.1179790497,2024-06-05 15:40:15.031862
23.07236397,-0.2144808769,0.1869864464,-0.202858448,2024-06-05 15:40:15.072364
23.1128472,-0.2771320343,0.1650910378,-0.2852935791,2024-06-05 15:40:15.112847
23.15333694,-0.351770401,0.09765386581,-0.2293963432,2024-06-05 15:40:15.153337
23.19382595,-0.3076901436,-0.02783107758,-0.1652040482,2024-06-05 15:40:15.193826
23.23429522,-0.139790535,-0.08919525146,-0.0444393158,2024-06-05 15:40:15.234295
23.2747847,-0.03962612152,0.1047263145,-0.02401018143,2024-06-05 15:40:15.274785
23.3152799,-0.002733707428,0.1558747292,0.0562748909,2024-06-05 15:40:15.315280
23.35575662,-0.02131891251,0.08270025253,-0.001024723053,2024-06-05 15:40:15.355757
23.39622501,-0.02836942673,0.04543447495,-0.008688926697,2024-06-05 15:40:15.396225
23.43671652,-0.06035995483,0.07082271576,-0.064640522,2024-06-05 15:40:15.436717
23.47721636,-0.09902095795,0.06458902359,-0.07988357544,2024-06-05 15:40:15.477216
23.51770063,-0.0912270546,-0.001165390015,-0.04953670502,2024-06-05 15:40:15.517701
23.55818261,-0.08491182327,-0.05515146255,-0.06713008881,2024-06-05 15:40:15.558183
23.59864813,-0.02527999878,-0.127207756,-0.03480815887,2024-06-05 15:40:15.598648
23.63913251,0.04075860977,-0.1854228973,0.03386068344,2024-06-05 15:40:15.639133
23.67968741,0.06765413284,-0.1763701439,0.04000329971,2024-06-05 15:40:15.679687
23.72017136,0.1469926834,-0.1110501289,0.07168722153,2024-06-05 15:40:15.720171
23.76059558,0.2076072693,-0.0895113945,0.1167683601,2024-06-05 15:40:15.760596
23.80109855,0.1821122169,-0.1062583923,0.1099596024,2024-06-05 15:40:15.801099
23.84161105,0.1820960045,-0.08709812164,0.0887169838,2024-06-05 15:40:15.841611
23.88209668,0.1656880379,-0.1552662849,0.09320545197,2024-06-05 15:40:15.882097
23.92257991,0.1918168068,-0.1343383789,0.1099381447,2024-06-05 15:40:15.922580
23.96306569,0.1936378479,-0.105424881,0.1094889641,2024-06-05 15:40:15.963066
24.00354714,0.1665301323,-0.06371212006,0.1127133369,2024-06-05 15:40:16.003547
24.04403985,0.1527290344,-0.06592273712,0.1089277267,2024-06-05 15:40:16.044040
24.08452683,0.14812994,-0.04540681839,0.1100172997,2024-06-05 15:40:16.084527
24.12501235,0.102868557,-0.06839513779,0.1257090569,2024-06-05 15:40:16.125012
24.16549975,0.4128117561,-0.500872612,0.2772459984,2024-06-05 15:40:16.165500
24.20598824,0.2272868156,-0.1591153145,0.2167787552,2024-06-05 15:40:16.205988
24.24647392,0.2388906479,-0.1403007507,0.2324986458,2024-06-05 15:40:16.246474
24.28693188,0.1798815727,-0.005380630493,0.2244205475,2024-06-05 15:40:16.286932
24.32744553,0.2922859192,-0.01654529572,0.2411689758,2024-06-05 15:40:16.327446
24.36791902,0.1303191185,-0.06618452072,0.1748609543,2024-06-05 15:40:16.367919
24.40841147,-0.01293134689,0.09102201462,0.03657960892,2024-06-05 15:40:16.408411
24.44885636,-0.03376054764,0.06889152527,-0.03861379623,2024-06-05 15:40:16.448856
24.48940063,-0.05531454086,0.05869626999,-0.1063637733,2024-06-05 15:40:16.489401
24.52986964,-0.04706048965,0.003554821014,-0.124982357,2024-06-05 15:40:16.529870
24.57031803,-0.1147055626,-0.01077222824,-0.09356641769,2024-06-05 15:40:16.570318
24.61084006,-0.1635594368,0.1190085411,-0.1319255829,2024-06-05 15:40:16.610840
24.65127866,-0.1383934021,0.1642160416,-0.08882474899,2024-06-05 15:40:16.651279
24.69183688,-0.1209950447,0.1539545059,-0.05457258224,2024-06-05 15:40:16.691837
24.73229918,-0.08685207367,0.08416557312,-0.04631185532,2024-06-05 15:40:16.732299
24.77280464,-0.07379436493,0.03332042694,-0.05885219574,2024-06-05 15:40:16.772805
24.81329042,-0.1065797806,0.009102344513,-0.06648302078,2024-06-05 15:40:16.813290
24.85377423,-0.07046890259,-0.006957530975,-0.05901765823,2024-06-05 15:40:16.853774
24.89425761,-0.06888008118,-0.005251407623,-0.05643033981,2024-06-05 15:40:16.894258
24.93474652,-0.09126281738,0.02769374847,-0.0646739006,2024-06-05 15:40:16.934747
24.97520089,-0.0858259201,0.08838796616,-0.06215667725,2024-06-05 15:40:16.975201
25.0157199,-0.0616979599,0.09393310547,-0.04605674744,2024-06-05 15:40:17.015720
25.05620678,-0.04169559479,0.06789207458,-0.02256584167,2024-06-05 15:40:17.056207
25.09667532,-0.03936481476,0.05889797211,-0.009530544281,2024-06-05 15:40:17.096675
25.13719584,-0.05145215988,0.06805896759,0.003012657166,2024-06-05 15:40:17.137196
25.1776711,-0.04301404953,0.02860164642,-0.006986618042,2024-06-05 15:40:17.177671
25.21816152,0.02435016632,0.01372146606,0.003695011139,2024-06-05 15:40:17.218162
25.25863662,0.03820371628,-0.02698755264,0.02446317673,2024-06-05 15:40:17.258637
25.29911464,0.05606842041,-0.03901529312,0.0290851593,2024-06-05 15:40:17.299115
25.33961136,0.01528406143,-0.06043291092,0.03363800049,2024-06-05 15:40:17.339611
25.38008803,0.006095409393,-0.0194067955,-0.007688045502,2024-06-05 15:40:17.380088
25.42056975,-0.006759166718,0.007641792297,-0.02744817734,2024-06-05 15:40:17.420570
25.46106803,-0.06590652466,0.04430818558,-0.01852846146,2024-06-05 15:40:17.461068
25.50155267,-0.04633903503,0.06086874008,-0.03407287598,2024-06-05 15:40:17.501553
25.5420497,-0.01220273972,0.04046487808,-0.01978397369,2024-06-05 15:40:17.542050
25.5825335,-0.005458831787,0.08829879761,0.01909160614,2024-06-05 15:40:17.582534
25.62301824,0.006252288818,0.05842447281,0.04816770554,2024-06-05 15:40:17.623018
25.66343892,-0.07326889038,-0.1062731743,0.1073021889,2024-06-05 15:40:17.663439
25.7040048,-0.046459198,-0.0944275856,0.04928016663,2024-06-05 15:40:17.704005
25.74448277,0.1074261665,0.0373711586,-0.01475858688,2024-06-05 15:40:17.744483
25.78497152,0.1110186577,0.02134895325,-0.01942014694,2024-06-05 15:40:17.784972
25.82545334,0.03857755661,-0.01084852219,-0.003190994263,2024-06-05 15:40:17.825453
25.86590063,-0.04559850693,-0.06043720245,0.02226400375,2024-06-05 15:40:17.865901
25.90640548,-0.08287668228,-0.07044315338,-0.02121210098,2024-06-05 15:40:17.906405
25.94691173,-0.01671266556,0.05501317978,-0.04338026047,2024-06-05 15:40:17.946912
25.98739751,0.05559778214,0.07773160934,-0.007954597473,2024-06-05 15:40:17.987398
26.02786772,0.004274368286,0.08979177475,0.03758573532,2024-06-05 15:40:18.027868
26.06837136,-0.02836084366,0.04810380936,0.04731655121,2024-06-05 15:40:18.068371
26.10885834,-0.0110168457,0.0006699562073,0.0270614624,2024-06-05 15:40:18.108858
26.14935308,0.0401134491,-0.007832050323,0.03939151764,2024-06-05 15:40:18.149353
26.18985501,0.0995426178,-0.05291843414,0.04223489761,2024-06-05 15:40:18.189855
26.23032105,0.08408927917,-0.08491420746,0.06184625626,2024-06-05 15:40:18.230321
26.27078897,0.0198969841,-0.08814287186,0.04694509506,2024-06-05 15:40:18.270789
26.31126548,0.005547046661,-0.01425123215,-0.008615493774,2024-06-05 15:40:18.311265
26.35176553,-0.00412940979,0.04039287567,-0.01879167557,2024-06-05 15:40:18.351766
26.39227074,-0.0267291069,0.08399915695,-0.03599405289,2024-06-05 15:40:18.392271
26.43275652,0.003508090973,0.1110887527,-0.02916383743,2024-06-05 15:40:18.432757
26.47321303,-0.007588386536,0.07491207123,-0.04179382324,2024-06-05 15:40:18.473213
26.51372142,-0.004971027374,0.03937625885,-0.01376819611,2024-06-05 15:40:18.513721
26.55422011,-0.05558013916,-0.03638601303,-2.765655518e-05,2024-06-05 15:40:18.554220
26.59470787,-0.06787061691,0.03161287308,-0.01849460602,2024-06-05 15:40:18.594708
26.63517011,-0.06812286377,0.140683651,-0.03687572479,2024-06-05 15:40:18.635170
26.67565839,-0.05821943283,0.112883091,-0.05912065506,2024-06-05 15:40:18.675658
26.71617089,-0.06305551529,0.0896062851,-0.06327819824,2024-06-05 15:40:18.716171
26.75662287,-0.05175018311,0.07086658478,-0.05998182297,2024-06-05 15:40:18.756623
26.79713647,-0.1197657585,-0.0188794136,-0.05860471725,2024-06-05 15:40:18.797136
26.83762058,-0.1100459099,-0.06637430191,-0.02042007446,2024-06-05 15:40:18.837621
26.87808938,-0.0997095108,-0.07731962204,-0.0004487037659,2024-06-05 15:40:18.878089
26.91856792,-0.07179641724,-0.01517391205,0.0133728981,2024-06-05 15:40:18.918568
26.9590511,0.006931304932,0.0485959053,-0.01769018173,2024-06-05 15:40:18.959051
26.99954819,0.04067993164,0.05463933945,-0.02183818817,2024-06-05 15:40:18.999548
27.04004074,0.01413297653,0.01112222672,0.001069068909,2024-06-05 15:40:19.040041
27.0805322,-0.005486011505,0.007347106934,0.03833007812,2024-06-05 15:40:19.080532
27.12100756,0.03036308289,0.02892875671,0.03849220276,2024-06-05 15:40:19.121008
27.16146079,0.0496339798,0.02017641068,0.02210330963,2024-06-05 15:40:19.161461
27.20196735,0.02617692947,-0.009271621704,0.02136516571,2024-06-05 15:40:19.201967
27.24248168,0.02570486069,-0.003622055054,0.01812410355,2024-06-05 15:40:19.242482
27.28297605,-0.007083415985,-0.002249240875,0.0001287460327,2024-06-05 15:40:19.282976
27.32346579,-0.002515792847,-0.003747463226,-0.007917404175,2024-06-05 15:40:19.323466
27.36395084,-0.02686452866,-0.01162147522,0.002257347107,2024-06-05 15:40:19.363951
27.40443584,-0.008248329163,0.00979757309,0.005776405334,2024-06-05 15:40:19.404436
27.44492194,0.03554487228,0.00902223587,0.02649307251,2024-06-05 15:40:19.444922
27.48540386,0.05251216888,0.01173257828,0.04378223419,2024-06-05 15:40:19.485404
27.52589266,0.04775524139,-0.008141517639,0.05213403702,2024-06-05 15:40:19.525893
27.5663711,0.004108905792,-0.003028392792,0.01865291595,2024-06-05 15:40:19.566371
27.60682256,-0.03170537949,0.005173206329,-0.02743387222,2024-06-05 15:40:19.606823
27.64733688,-0.06715297699,0.00741815567,-0.05056095123,2024-06-05 15:40:19.647337
27.68787433,-0.05376434326,0.01345729828,-0.0395283699,2024-06-05 15:40:19.687874
27.72829032,-0.02690172195,0.02577447891,-0.002974033356,2024-06-05 15:40:19.728290
27.76878855,0.02201843262,0.02887392044,0.02552127838,2024-06-05 15:40:19.768789
27.80925709,0.03588247299,0.0170044899,0.03123807907,2024-06-05 15:40:19.809257
27.84976235,0.01925992966,-0.0246014595,0.03463172913,2024-06-05 15:40:19.849762
27.89027402,0.01879167557,-0.01216411591,0.02491664886,2024-06-05 15:40:19.890274
27.93069558,0.01551532745,0.01495409012,0.008615016937,2024-06-05 15:40:19.930696
27.97121496,0.01336860657,0.03386068344,-0.001124858856,2024-06-05 15:40:19.971215
28.01169725,-0.01091957092,0.02468729019,-0.01148080826,2024-06-05 15:40:20.011697
28.05221501,-0.02598237991,0.006206989288,-0.01482200623,2024-06-05 15:40:20.052215
28.09271662,0.007521629333,0.01063585281,0.0005149841309,2024-06-05 15:40:20.092717
28.13316772,0.00143289566,-0.0147151947,0.0206861496,2024-06-05 15:40:20.133168
28.17368996,0.03979444504,-0.001166820526,0.02539253235,2024-06-05 15:40:20.173690
28.21416511,0.01721954346,0.01245307922,0.0307264328,2024-06-05 15:40:20.214165
28.25465032,-0.02577495575,0.01369094849,0.02929735184,2024-06-05 15:40:20.254650
28.29514902,-0.00546836853,0.001071453094,0.008400440216,2024-06-05 15:40:20.295149
28.33564016,0.0109577179,-0.008991718292,-0.008586406708,2024-06-05 15:40:20.335640
28.37612563,0.005307197571,0.0156583786,0.01055765152,2024-06-05 15:40:20.376126
28.41659011,0.01962137222,0.01660919189,0.01473903656,2024-06-05 15:40:20.416590
28.45705444,0.01663541794,0.02768754959,0.01485681534,2024-06-05 15:40:20.457054
28.49755662,0.006535053253,0.00830411911,0.007273197174,2024-06-05 15:40:20.497557
28.53802907,-0.02891016006,0.001693725586,-0.006896495819,2024-06-05 15:40:20.538029
28.5785648,-0.0007743835449,0.01324748993,-0.01560163498,2024-06-05 15:40:20.578565
28.61898897,-0.02933979034,-0.001400470734,-0.01863622665,2024-06-05 15:40:20.618989
28.65945912,-0.02470588684,0.00702047348,-0.01247310638,2024-06-05 15:40:20.659459
28.70004261,-0.01597595215,0.03971099854,0.02021026611,2024-06-05 15:40:20.700043
28.74050303,0.01261377335,0.03545808792,0.03154373169,2024-06-05 15:40:20.740503
28.78096116,0.02803087234,0.01421308517,0.0157327652,2024-06-05 15:40:20.780961
28.82147964,-0.002628803253,-0.03449964523,0.03034543991,2024-06-05 15:40:20.821480
28.86196178,0.03935289383,-0.03905153275,0.01868867874,2024-06-05 15:40:20.861962
28.90245095,0.01236009598,-0.01832675934,0.03552103043,2024-06-05 15:40:20.902451
28.9429386,-0.007585048676,0.008804321289,0.0131688118,2024-06-05 15:40:20.942939
28.9834235,-0.01725387573,0.02278375626,-0.03120040894,2024-06-05 15:40:20.983424
29.02389787,-0.057908535,0.02264070511,-0.04033756256,2024-06-05 15:40:21.023898
29.06439631,-0.06071615219,0.03184175491,-0.03903341293,2024-06-05 15:40:21.064396
29.10488142,-0.05368375778,0.03141260147,-0.04301214218,2024-06-05 15:40:21.104881
29.14536938,-0.03314590454,-0.04417419434,0.03599977493,2024-06-05 15:40:21.145369
29.18586022,-0.07003116608,-0.3138985634,0.262178421,2024-06-05 15:40:21.185860
29.22634626,0.0990190506,-0.4190020561,0.536438942,2024-06-05 15:40:21.226346
29.26679485,0.06674909592,-0.5781917572,0.7268323898,2024-06-05 15:40:21.266795
29.30728938,0.0733294487,-0.5774989128,0.5483212471,2024-06-05 15:40:21.307289
29.34773116,0.6171770096,0.7204110622,-0.1776242256,2024-06-05 15:40:21.347731
29.38829042,1.096732616,0.6908037663,-0.1962361336,2024-06-05 15:40:21.388290
29.42878235,0.4030718803,0.07126712799,-0.2071433067,2024-06-05 15:40:21.428782
29.46926772,-0.0363740921,0.008614063263,-0.3680677414,2024-06-05 15:40:21.469268
29.50975308,-0.1466326714,-0.276368618,-0.1520137787,2024-06-05 15:40:21.509753
29.55023397,-0.1134529114,-0.2988433838,0.002002716064,2024-06-05 15:40:21.550234
29.59073485,-0.08717727661,-0.08662652969,-0.08702039719,2024-06-05 15:40:21.590735
29.63119069,0.2094802856,0.025349617,-0.005074977875,2024-06-05 15:40:21.631191
29.67168662,0.3512268066,0.01684093475,0.04823637009,2024-06-05 15:40:21.671687
29.71220714,0.2496852875,-0.06489706039,0.07934904099,2024-06-05 15:40:21.712207
29.75266225,0.2275099754,-0.04982995987,0.07003927231,2024-06-05 15:40:21.752662
29.79314704,0.170191288,0.03443002701,-0.05831813812,2024-06-05 15:40:21.793147
29.83362428,0.0669631958,-0.001799106598,-0.1426544189,2024-06-05 15:40:21.833624
29.87413537,0.02146911621,0.002259731293,-0.1743249893,2024-06-05 15:40:21.874135
29.91462116,-0.07847261429,0.02214670181,-0.2144715786,2024-06-05 15:40:21.914621
29.95510787,-0.247189045,-0.03590869904,-0.2935242653,2024-06-05 15:40:21.955108
29.99559522,-0.218626976,0.1184902191,-0.3600792885,2024-06-05 15:40:21.995595
30.0360761,-0.312458992,0.2012648582,-0.4288344383,2024-06-05 15:40:22.036076
30.07654699,-0.3132843971,0.236322403,-0.407640934,2024-06-05 15:40:22.076547
30.11704079,-0.3481822014,0.1400055885,-0.3057332039,2024-06-05 15:40:22.117041
30.15751589,-0.4882907867,0.01483249664,-0.2842667103,2024-06-05 15:40:22.157516
30.19798345,-0.5205001831,0.08491754532,-0.3137590885,2024-06-05 15:40:22.197983
30.23852277,-0.1878113747,0.3035645485,-0.3203730583,2024-06-05 15:40:22.238523
30.27899964,-0.1235303879,0.3080387115,-0.1576914787,2024-06-05 15:40:22.279000
30.31947235,-0.09856319427,0.287422657,-0.07480430603,2024-06-05 15:40:22.319472
30.359966,-0.148522377,0.1449213028,-0.1097855568,2024-06-05 15:40:22.359966
30.4004723,-0.125064373,-0.02899217606,-0.1139702797,2024-06-05 15:40:22.400472
30.440966,-0.1563210487,-0.06816244125,-0.1845598221,2024-06-05 15:40:22.440966
30.48142991,-0.3282976151,-0.01447343826,-0.2270421982,2024-06-05 15:40:22.481430
30.52192194,-0.3147125244,0.117023468,-0.246901989,2024-06-05 15:40:22.521922
30.56241142,-0.2171392441,0.1270599365,-0.2408642769,2024-06-05 15:40:22.562411
30.60289574,-0.04535388947,0.2418103218,-0.2406868935,2024-06-05 15:40:22.602896
30.6433597,0.08893537521,0.1314268112,-0.02093601227,2024-06-05 15:40:22.643360
30.68389491,0.1603207588,0.0457701683,0.002767086029,2024-06-05 15:40:22.683895
30.72435595,0.1467323303,-0.06370449066,0.07748699188,2024-06-05 15:40:22.724356
30.76483928,0.03752756119,-0.1534571648,0.03955698013,2024-06-05 15:40:22.764839
30.80532876,0.08628416061,-0.1418890953,0.04869222641,2024-06-05 15:40:22.805329
30.84581292,0.07081222534,-0.1375832558,-0.00932264328,2024-06-05 15:40:22.845813
30.8862861,0.2038731575,-0.04872274399,-0.04702663422,2024-06-05 15:40:22.886286
30.92675173,0.1392302513,-0.0774731636,-0.04404735565,2024-06-05 15:40:22.926752
30.96726511,0.0606713295,-0.1247038841,-0.07383728027,2024-06-05 15:40:22.967265
31.00772678,0.1113972664,-0.2562904358,-0.0252737999,2024-06-05 15:40:23.007727
31.0482461,0.1475286484,-0.3087434769,0.05823278427,2024-06-05 15:40:23.048246
31.08873319,0.2153906822,-0.2768125534,0.1066155434,2024-06-05 15:40:23.088733
31.12917938,0.269862175,-0.1325097084,0.08022546768,2024-06-05 15:40:23.129179
31.16969043,0.1990842819,-0.148955822,0.2384138107,2024-06-05 15:40:23.169690
31.21019423,0.2796463966,-0.01381731033,0.1094026566,2024-06-05 15:40:23.210194
31.25067892,0.1408576965,-0.2072873116,0.2730269432,2024-06-05 15:40:23.250679
31.29113938,0.2265725136,-0.1993951797,0.232231617,2024-06-05 15:40:23.291139
31.33158881,0.1918730736,-0.2181363106,0.2104701996,2024-06-05 15:40:23.331589
31.3721472,0.1460747719,-0.1917300224,0.1921954155,2024-06-05 15:40:23.372147
31.41263355,0.2500023842,-0.09522724152,0.1548342705,2024-06-05 15:40:23.412634
31.45310058,0.2279510498,-0.02828788757,0.2147812843,2024-06-05 15:40:23.453101
31.49358725,0.1928834915,0.02516841888,0.1857876778,2024-06-05 15:40:23.493587
31.53409438,0.3354792595,-0.2768769264,0.2469272614,2024-06-05 15:40:23.534094
31.57457928,0.2207751274,-0.2344446182,0.1854605675,2024-06-05 15:40:23.574579
31.61506303,0.1391320229,-0.1431412697,0.1865286827,2024-06-05 15:40:23.615063
31.65548412,0.1522302628,-0.09447813034,0.1368985176,2024-06-05 15:40:23.655484
31.69608079,0.158428669,-0.07819032669,0.1825914383,2024-06-05 15:40:23.696081
31.73649095,0.2096352577,-0.121901989,0.1252579689,2024-06-05 15:40:23.736491
31.77694011,0.05214643478,0.1005454063,0.09695911407,2024-06-05 15:40:23.776940
31.81751095,0.05102109909,0.1084055901,0.06405830383,2024-06-05 15:40:23.817511
31.85795751,-0.08990955353,0.1174640656,-0.04742908478,2024-06-05 15:40:23.857958
31.89841225,-0.08471822739,0.1244921684,-0.0728225708,2024-06-05 15:40:23.898412
31.93893313,-0.2178125381,0.08758068085,-0.1066727638,2024-06-05 15:40:23.938933
31.97943563,-0.2064185143,0.07511234283,-0.1198306084,2024-06-05 15:40:23.979436
32.01988563,-0.1474251747,0.0266661644,-0.1591057777,2024-06-05 15:40:24.019886
32.06043204,-0.199213028,-0.04436349869,-0.1529512405,2024-06-05 15:40:24.060432
32.10091298,-0.1331572533,0.004459857941,-0.1238980293,2024-06-05 15:40:24.100913
32.14136089,-0.116666317,0.02987670898,-0.08510494232,2024-06-05 15:40:24.141361
32.18187996,-0.02310752869,0.05294179916,-0.04871034622,2024-06-05 15:40:24.181880
32.22234907,0.00976896286,0.1051955223,-0.02646112442,2024-06-05 15:40:24.222349
32.26284292,0.0285077095,0.08449983597,0.0306892395,2024-06-05 15:40:24.262843
32.30334048,0.06029844284,0.07349777222,0.06333255768,2024-06-05 15:40:24.303340
32.34382751,0.04974746704,0.05358171463,0.05060529709,2024-06-05 15:40:24.343828
32.3843185,0.04878044128,0.05782079697,0.02441644669,2024-06-05 15:40:24.384318
32.42480444,-0.01262569427,0.03810167313,0.005228042603,2024-06-05 15:40:24.424804
32.46528845,-0.0353307724,0.02307605743,-0.004615783691,2024-06-05 15:40:24.465288
32.50576282,-0.1032848358,-0.01596021652,-0.01671648026,2024-06-05 15:40:24.505763
32.54626251,-0.136885643,-0.09613895416,-0.01083135605,2024-06-05 15:40:24.546263
32.5867386,-0.1181631088,-0.1548175812,0.03936100006,2024-06-05 15:40:24.586739
32.62723688,0.1092433929,-0.03470182419,0.06834888458,2024-06-05 15:40:24.627237
32.66772975,0.1910214424,0.1373548508,0.01791954041,2024-06-05 15:40:24.667730
32.70824501,0.1397590637,0.1866164207,-0.02908325195,2024-06-05 15:40:24.708245
32.74871975,0.01740550995,0.1467986107,-0.0730843544,2024-06-05 15:40:24.748720
32.78916756,-0.1033973694,0.04117250443,-0.08283853531,2024-06-05 15:40:24.789168
32.82963105,-0.1738238335,-0.04108047485,-0.06590223312,2024-06-05 15:40:24.829631
32.87014371,-0.08557653427,0.03450298309,-0.08623933792,2024-06-05 15:40:24.870144
32.91065704,-0.05628442764,0.03990697861,-0.04969596863,2024-06-05 15:40:24.910657
32.95112496,-0.01242780685,0.04929447174,-0.00306558609,2024-06-05 15:40:24.951125
32.99158485,-0.01225042343,0.01199197769,0.0168800354,2024-06-05 15:40:24.991585
33.0320797,-0.01129865646,0.0005540847778,0.00935125351,2024-06-05 15:40:25.032080
33.07259506,-0.02219581604,0.03184604645,-0.001841068268,2024-06-05 15:40:25.072595
33.11308069,-0.001806735992,0.03681278229,-0.01270341873,2024-06-05 15:40:25.113081
33.15356813,-0.004819869995,0.0296049118,-0.004593372345,2024-06-05 15:40:25.153568
33.19405194,-0.02127695084,0.0135550499,-0.006393432617,2024-06-05 15:40:25.194052
33.23454225,-0.03261613846,0.01337480545,0.0002226829529,2024-06-05 15:40:25.234542
33.27501918,-0.01393318176,0.02549648285,-0.007600784302,2024-06-05 15:40:25.275019
33.31551277,-0.02920913696,0.003612518311,-0.008922576904,2024-06-05 15:40:25.315513
33.35599319,-0.009900569916,0.01428127289,0.003676891327,2024-06-05 15:40:25.355993
33.3964622,-0.02204561234,-0.000593662262,-0.002426147461,2024-06-05 15:40:25.396462
33.43695022,-0.01078462601,0.008238315582,-0.01497268677,2024-06-05 15:40:25.436950
33.47740918,-0.007557868958,0.02034282684,-0.001389503479,2024-06-05 15:40:25.477409
33.51794079,-0.001456737518,0.01948785782,0.001619338989,2024-06-05 15:40:25.517941
33.55844371,0.01271867752,0.02495527267,-0.0009484291077,2024-06-05 15:40:25.558444
33.59892303,-0.001135826111,0.005130767822,0.006181716919,2024-06-05 15:40:25.598923
33.63936287,0.00837469101,-0.003321170807,0.008490085602,2024-06-05 15:40:25.639363
33.67993699,-0.01059913635,0.007235527039,0.009897708893,2024-06-05 15:40:25.679937
33.7203922,-0.01331806183,0.004577636719,-0.008923053741,2024-06-05 15:40:25.720392
33.76084918,-0.00589132309,0.02498531342,-0.008226394653,2024-06-05 15:40:25.760849
33.80134381,-0.01152515411,0.007757663727,0.004337787628,2024-06-05 15:40:25.801344
33.84183694,-0.07914352417,-0.0999751091,0.07048988342,2024-06-05 15:40:25.841837
33.88232767,-0.04379224777,-0.1073231697,0.07064580917,2024-06-05 15:40:25.882328
33.92281798,0.1782021523,0.06942033768,0.01983690262,2024-06-05 15:40:25.922818
33.96330584,0.1188397408,0.07553243637,0.001462459564,2024-06-05 15:40:25.963306
34.00378803,0.05361032486,0.07200717926,-0.02435684204,2024-06-05 15:40:26.003788
34.0442798,-0.02459335327,0.02120399475,-0.0291724205,2024-06-05 15:40:26.044280
34.08476616,-0.08148479462,-0.0243897438,-0.01728487015,2024-06-05 15:40:26.084766
34.12525293,-0.03342103958,0.004855155945,-0.03015136719,2024-06-05 15:40:26.125253
34.16573616,0.008166790009,0.03886651993,-0.01369905472,2024-06-05 15:40:26.165736
34.20622496,-0.0002059936523,0.003122329712,-0.01427078247,2024-06-05 15:40:26.206225
34.2466972,-0.007507801056,-0.02824401855,0.01984405518,2024-06-05 15:40:26.246697
34.28720136,-0.05051279068,-0.04347133636,0.02201128006,2024-06-05 15:40:26.287201
34.32765433,-0.01045751572,-0.004572868347,0.01741790771,2024-06-05 15:40:26.327654
34.36816636,0.003837108612,0.06430387497,-0.005213737488,2024-06-05 15:40:26.368166
34.4086111,-0.007497310638,0.09548521042,-0.009522914886,2024-06-05 15:40:26.408611
34.4490722,-0.02130794525,0.04645633698,-0.01290082932,2024-06-05 15:40:26.449072
34.4896498,-0.03031539917,0.01882457733,-0.0160984993,2024-06-05 15:40:26.489650
34.5301174,-0.03749704361,0.007915496826,-0.01065921783,2024-06-05 15:40:26.530117
34.57060449,-0.03904485703,0.03272438049,-0.02274608612,2024-06-05 15:40:26.570604
34.61109792,-0.002480506897,0.02690124512,-0.03003358841,2024-06-05 15:40:26.611098
34.65151475,-0.03334856033,0.00780582428,-0.01042747498,2024-06-05 15:40:26.651515
34.69209819,-0.0376033783,0.004807949066,-0.02306985855,2024-06-05 15:40:26.692098
34.73253985,-0.006890773773,0.02030706406,-0.006449699402,2024-06-05 15:40:26.732540
34.77304241,-0.000883102417,0.01980066299,-0.005503177643,2024-06-05 15:40:26.773042
34.81352839,0.008959293365,-0.0005917549133,0.01027584076,2024-06-05 15:40:26.813528
34.8540147,0.003878116608,-0.005178928375,0.01585102081,2024-06-05 15:40:26.854015
34.89447402,-0.004030227661,-0.00248003006,0.01931238174,2024-06-05 15:40:26.894474
34.93498016,-0.02897453308,0.01965713501,-0.05488777161,2024-06-05 15:40:26.934980
34.97547907,0.0226316452,0.2185428143,-0.211271286,2024-06-05 15:40:26.975479
35.01596298,-0.1278681755,0.1161794662,-0.170984745,2024-06-05 15:40:27.015963
35.05642892,-0.1509871483,-0.07609081268,-0.01661729813,2024-06-05 15:40:27.056429
35.09690402,0.05389499664,-0.1951961517,0.2086405754,2024-06-05 15:40:27.096904
35.13740048,0.1359043121,-0.2886648178,0.4108605385,2024-06-05 15:40:27.137400
35.17785923,0.2182526588,-0.1120233536,0.2487220764,2024-06-05 15:40:27.177859
35.21837881,0.1724700928,0.04628515244,0.0540137291,2024-06-05 15:40:27.218379
35.25885761,-0.06614303589,0.25238657,-0.2390322685,2024-06-05 15:40:27.258858
35.29937735,-0.1879706383,0.1390781403,-0.2674732208,2024-06-05 15:40:27.299377
35.3398523,-0.1692481041,-0.06720161438,-0.08092069626,2024-06-05 15:40:27.339852
35.38035319,-0.04145336151,-0.0513048172,0.03137969971,2024-06-05 15:40:27.380353
35.42084907,0.05042505264,0.04632091522,0.0437169075,2024-06-05 15:40:27.420849
35.46133386,0.06189203262,0.1061215401,0.02003526688,2024-06-05 15:40:27.461334
35.5017886,0.07989311218,0.02174520493,0.06308269501,2024-06-05 15:40:27.501789
35.54229782,0.07689094543,-0.07310056686,0.08926868439,2024-06-05 15:40:27.542298
35.58278433,0.02753639221,-0.06423568726,0.05596542358,2024-06-05 15:40:27.582784
35.6232661,-0.01356172562,-0.003255844116,-0.00791311264,2024-06-05 15:40:27.623266
35.66368621,-0.01577806473,0.01240730286,-0.0239610672,2024-06-05 15:40:27.663686
35.70421782,-0.05061244965,-0.002913951874,-0.008460044861,2024-06-05 15:40:27.704218
35.74467912,-0.04144620895,0.01077890396,-0.03792476654,2024-06-05 15:40:27.744679
35.78517725,-0.04903841019,0.01912021637,-0.04172182083,2024-06-05 15:40:27.785177
35.82569839,-0.03933620453,0.01174926758,0.006667613983,2024-06-05 15:40:27.825698
35.86618741,0.01327848434,0.01094865799,0.01252365112,2024-06-05 15:40:27.866187
35.90670616,0.04280424118,0.01769781113,0.01625776291,2024-06-05 15:40:27.906706
35.94709907,0.03602600098,0.02107477188,0.03503274918,2024-06-05 15:40:27.947099
35.98770558,0.02984619141,0.007701396942,0.02412939072,2024-06-05 15:40:27.987706
36.02807714,0.00124835968,-0.001394748688,0.01922655106,2024-06-05 15:40:28.028077
36.06856978,-0.004436016083,0.0132021904,-0.0186662674,2024-06-05 15:40:28.068570
36.1090627,-0.0206246376,0.01405525208,-0.01543521881,2024-06-05 15:40:28.109063
36.1495441,-0.02423286438,0.0153465271,-0.02172756195,2024-06-05 15:40:28.149544
36.1900427,-0.02045106888,0.01040267944,-0.004570484161,2024-06-05 15:40:28.190043
36.23052499,-0.00820684433,-0.006896495819,0.004912853241,2024-06-05 15:40:28.230525
36.27100504,0.0100312233,-0.000837802887,0.01290798187,2024-06-05 15:40:28.271005
36.31149712,0.009145259857,-0.002644062042,0.01625061035,2024-06-05 15:40:28.311497
36.35199686,0.01197767258,0.01401805878,0.01373291016,2024-06-05 15:40:28.351997
36.39250202,-5.626678467e-05,0.00962972641,0.009718894958,2024-06-05 15:40:28.392502
36.43300426,-0.003623008728,0.01461648941,-0.000479221344,2024-06-05 15:40:28.433004
36.47344134,-0.01931428909,0.02133226395,-0.01014137268,2024-06-05 15:40:28.473441
36.51398129,-0.01350593567,0.0122756958,-0.006308078766,2024-06-05 15:40:28.513981
36.5544402,-0.01128005981,-0.0009078979492,0.003436565399,2024-06-05 15:40:28.554440
36.5949453,0.001612186432,0.0012383461,0.01170778275,2024-06-05 15:40:28.594945
36.63541717,0.01256847382,0.003261089325,0.00498008728,2024-06-05 15:40:28.635417
36.67588624,-0.0005655288696,0.002691268921,0.002037525177,2024-06-05 15:40:28.675886
36.71637363,-0.001375198364,0.01505041122,-7.581710815e-05,2024-06-05 15:40:28.716374
36.75685462,-0.001068115234,0.02305603027,-0.001970291138,2024-06-05 15:40:28.756855
36.79736009,-0.01406240463,0.009068012238,-0.0001945495605,2024-06-05 15:40:28.797360
36.83787931,0.002060413361,0.01390552521,-0.005317687988,2024-06-05 15:40:28.837879
36.87833118,-0.009119510651,-0.003004550934,0.01278066635,2024-06-05 15:40:28.878331
36.91881686,-0.009981155396,0.01174736023,0.006300449371,2024-06-05 15:40:28.918817
36.95928342,-0.01370000839,0.01601266861,0.000123500824,2024-06-05 15:40:28.959283
36.99980572,0.00564622879,0.02668905258,0.01145601273,2024-06-05 15:40:28.999806
37.04028587,0.008610248566,0.02349042892,0.006543636322,2024-06-05 15:40:29.040286
37.08075228,0.008798122406,-0.00922870636,0.01002645493,2024-06-05 15:40:29.080752
37.12125504,-0.001114368439,-0.002317428589,0.0009999275208,2024-06-05 15:40:29.121255
37.16175618,-0.01461029053,-0.001039028168,0.009256362915,2024-06-05 15:40:29.161756
37.20224504,0.00489616394,0.01089525223,-0.002672195435,2024-06-05 15:40:29.202245
37.2427029,-0.005910396576,0.01945543289,-0.0006747245789,2024-06-05 15:40:29.242703
37.28318931,-0.007647037506,0.009617328644,-0.001782894135,2024-06-05 15:40:29.283189
37.32368457,-0.002712249756,0.01064586639,0.008193492889,2024-06-05 15:40:29.323685
37.36417467,-0.00582742691,1.71661377e-05,0.01165390015,2024-06-05 15:40:29.364175
37.40467004,-0.00385093689,0.001988887787,-0.00862455368,2024-06-05 15:40:29.404670
37.44507592,-0.003066539764,0.008480072021,-0.0009679794312,2024-06-05 15:40:29.445076
37.48560181,-0.02254581451,0.001247406006,-1.430511475e-06,2024-06-05 15:40:29.485602
37.52614087,-0.009150505066,0.01513051987,-0.009648799896,2024-06-05 15:40:29.526141
37.5666016,-0.01504421234,0.008618354797,0.004981517792,2024-06-05 15:40:29.566602
37.60706546,0.009696960449,0.01154470444,-0.007805347443,2024-06-05 15:40:29.607065
37.64756931,-0.001931190491,0.01195287704,0.01114177704,2024-06-05 15:40:29.647569
37.68803462,9.58442688e-05,-0.0001740455627,0.01893520355,2024-06-05 15:40:29.688035
37.72859431,-0.02323484421,-0.0009083747864,0.01371002197,2024-06-05 15:40:29.728594
37.76905931,0.002233028412,0.01930856705,-0.005364894867,2024-06-05 15:40:29.769059
37.80951405,-0.009996414185,0.02146291733,-0.008942127228,2024-06-05 15:40:29.809514
37.84999452,-0.0004682540894,0.009930610657,-0.002804756165,2024-06-05 15:40:29.849995
37.89051118,-0.006598949432,0.01003026962,0.002688407898,2024-06-05 15:40:29.890511
37.93096744,0.005510807037,-0.002768039703,0.009136199951,2024-06-05 15:40:29.930967
37.97154577,0.01130914688,0.004703044891,-0.001870632172,2024-06-05 15:40:29.971546
38.01196863,0.009929656982,0.005834579468,0.001854419708,2024-06-05 15:40:30.011969
38.05245009,-0.005205154419,0.01168298721,0.00314283371,2024-06-05 15:40:30.052450
38.09292613,-0.0139040947,0.01395559311,-0.002406597137,2024-06-05 15:40:30.092926
38.13342103,-0.02805137634,0.01061344147,0.009486198425,2024-06-05 15:40:30.133421
38.17389535,0.004608631134,0.01786708832,0.009111881256,2024-06-05 15:40:30.173895
38.21438176,0.006140708923,0.02232885361,0.002110958099,2024-06-05 15:40:30.214382
38.25485566,0.004682064056,0.02524900436,-0.001952648163,2024-06-05 15:40:30.254856
38.29536822,-0.005092144012,0.005366802216,0.01695585251,2024-06-05 15:40:30.295368
38.33584634,0.002682685852,0.007112979889,0.01348876953,2024-06-05 15:40:30.335846
38.3763867,-0.0004281997681,-0.005557060242,-0.007345199585,2024-06-05 15:40:30.376387
38.41687613,-0.007837295532,0.003664493561,-0.02168607712,2024-06-05 15:40:30.416876
38.45728874,-0.002879142761,0.03199243546,-0.02306127548,2024-06-05 15:40:30.457289
38.49779431,-0.03770589828,-0.0274772644,0.01959085464,2024-06-05 15:40:30.497794
38.53828744,-0.01505708694,-0.009851932526,-0.001629829407,2024-06-05 15:40:30.538287
38.57878171,0.0201125145,0.03472900391,-0.02573633194,2024-06-05 15:40:30.578782
38.6192853,0.0174407959,0.02817201614,0.003831386566,2024-06-05 15:40:30.619285
38.65976431,0.00846862793,0.01145887375,0.02033281326,2024-06-05 15:40:30.659764
38.70024634,-0.007546901703,-0.01073408127,0.02341079712,2024-06-05 15:40:30.700246
38.74074681,0.01290750504,0.01107263565,0.0004076957703,2024-06-05 15:40:30.740747
38.78119999,0.001395702362,0.02298116684,-0.01359415054,2024-06-05 15:40:30.781200
38.8216829,-0.007724761963,0.02801561356,-0.01774120331,2024-06-05 15:40:30.821683
38.8621642,-0.03013706207,0.008745670319,-0.01089429855,2024-06-05 15:40:30.862164
38.90266936,-0.01716566086,0.01868534088,-0.003232479095,2024-06-05 15:40:30.902669
38.94316155,-0.01023054123,0.03654193878,-0.01407337189,2024-06-05 15:40:30.943162
38.98364723,-0.004402637482,0.01955127716,-0.01295137405,2024-06-05 15:40:30.983647
39.02416978,-0.009712219238,0.004375934601,0.01839208603,2024-06-05 15:40:31.024170
39.06461947,-0.001741886139,0.007493019104,0.02120399475,2024-06-05 15:40:31.064619
39.10510384,0.008754253387,0.01243162155,0.0206489563,2024-06-05 15:40:31.105104
39.14560691,0.004263401031,-0.02359294891,0.01551628113,2024-06-05 15:40:31.145607
39.18607129,-0.001972675323,-0.04895877838,0.02685546875,2024-06-05 15:40:31.186071
39.2265404,-0.02118682861,-0.02326726913,0.01346349716,2024-06-05 15:40:31.226540
39.2670278,-0.002488613129,0.007145881653,0.008274555206,2024-06-05 15:40:31.267028
39.3075504,-0.03011226654,-0.02982091904,0.04460048676,2024-06-05 15:40:31.307550
39.3479865,0.01766204834,-0.01313257217,0.04270362854,2024-06-05 15:40:31.347986
39.38849629,0.03410863876,0.0390958786,0.004856109619,2024-06-05 15:40:31.388496
39.42898405,0.05697536469,0.07158136368,-0.03018903732,2024-06-05 15:40:31.428984
39.46945139,0.05357122421,0.06419086456,-0.02086210251,2024-06-05 15:40:31.469451
39.50998728,-0.03768444061,-0.005461215973,-0.02765464783,2024-06-05 15:40:31.509987
39.55046619,-0.08951950073,-0.007334709167,-0.03281974792,2024-06-05 15:40:31.550466
39.59094801,-0.06283426285,0.01828145981,-0.04627752304,2024-06-05 15:40:31.590948
39.63143728,0.01006269455,0.03045892715,-0.02536058426,2024-06-05 15:40:31.631437
39.67194342,-0.0165438652,-0.004539489746,0.01717185974,2024-06-05 15:40:31.671943
39.7124091,0.01747131348,-0.005060195923,0.02589845657,2024-06-05 15:40:31.712409
39.75290025,0.03810358047,0.008610725403,0.03321504593,2024-06-05 15:40:31.752900
39.79340197,0.04492235184,0.02156209946,0.02062940598,2024-06-05 15:40:31.793402
39.8338902,0.002250671387,0.001937389374,0.001986503601,2024-06-05 15:40:31.833890
39.87435686,-0.04838275909,0.007848739624,-6.055831909e-05,2024-06-05 15:40:31.874357
39.91484525,-0.03431367874,0.01594638824,-0.02370929718,2024-06-05 15:40:31.914845
39.95533863,-0.02817392349,0.00278711319,-0.01969146729,2024-06-05 15:40:31.955339
39.99583837,0.007194519043,-0.01347351074,-0.01215076447,2024-06-05 15:40:31.995838
40.0363515,-0.01263380051,-0.009683132172,0.01718997955,2024-06-05 15:40:32.036352
40.07681691,0.01972866058,0.01528024673,0.009474277496,2024-06-05 15:40:32.076817
40.11728014,0.0008282661438,0.02755117416,0.01309728622,2024-06-05 15:40:32.117280
40.15778202,-0.008993625641,0.009537220001,0.01377153397,2024-06-05 15:40:32.157782
40.198224,0.02511692047,0.04649877548,-3.623962402e-05,2024-06-05 15:40:32.198224
40.23871264,-0.007520198822,0.00244808197,0.00545167923,2024-06-05 15:40:32.238713
40.27923061,0.008289813995,-0.003807067871,0.00329875946,2024-06-05 15:40:32.279231
40.31974858,0.006148338318,0.001136302948,0.008259296417,2024-06-05 15:40:32.319749
40.36024285,-0.005259990692,0.007639884949,0.004102706909,2024-06-05 15:40:32.360243
40.40070671,0.008502006531,0.0120434761,-0.008935928345,2024-06-05 15:40:32.400707
40.44118165,-0.03365564346,-0.006385803223,-0.006530761719,2024-06-05 15:40:32.441182
40.48164894,-0.0276889801,-0.002190589905,-0.009080410004,2024-06-05 15:40:32.481649
40.52219207,-0.01034355164,0.01657915115,-0.006901264191,2024-06-05 15:40:32.522192
40.56270681,0.0006732940674,0.01537752151,0.004106521606,2024-06-05 15:40:32.562707
40.60316494,-0.001270294189,0.01210689545,0.01203727722,2024-06-05 15:40:32.603165
40.64363264,0.00669336319,0.002110481262,0.00606918335,2024-06-05 15:40:32.643633
40.68413447,-0.006290435791,0.01072263718,0.01567459106,2024-06-05 15:40:32.684134
40.72460811,-0.005330085754,0.02466869354,0.003651618958,2024-06-05 15:40:32.724608
40.76506452,-0.02322292328,0.01983785629,-0.00887298584,2024-06-05 15:40:32.765065
40.80556827,0.001105308533,0.0117816925,0.00365447998,2024-06-05 15:40:32.805568
40.84609879,-0.01579809189,-0.008450508118,0.01471281052,2024-06-05 15:40:32.846099
40.88659697,0.01420259476,-0.002055168152,-0.006742477417,2024-06-05 15:40:32.886597
40.92703603,-0.00738286972,0.006227970123,0.006915092468,2024-06-05 15:40:32.927036
40.96749488,-0.007536411285,-0.001058578491,-0.003630161285,2024-06-05 15:40:32.967495
41.00798629,-0.005356788635,0.03080320358,-0.004628181458,2024-06-05 15:40:33.007986
41.04847655,-0.002251625061,0.01684761047,0.008814811707,2024-06-05 15:40:33.048477
41.08895525,0.005775928497,0.0198931694,0.001707077026,2024-06-05 15:40:33.088955
41.12946546,0.003477573395,-0.001372337341,0.007968425751,2024-06-05 15:40:33.129465
41.1699453,-0.0126414299,-0.01442718506,0.008361339569,2024-06-05 15:40:33.169945
41.21043186,-0.005172252655,0.001004695892,-0.001084804535,2024-06-05 15:40:33.210432
41.25088889,-0.0036277771,0.01207494736,-0.0040974617,2024-06-05 15:40:33.250889
41.29140941,-0.002960681915,0.02343702316,-0.003973007202,2024-06-05 15:40:33.291409
41.33188108,-0.01269578934,0.0128030777,-0.009093284607,2024-06-05 15:40:33.331881
41.37237504,0.01086521149,0.007160186768,0.006679058075,2024-06-05 15:40:33.372375
41.41291285,-0.007400512695,0.0005974769592,0.0155711174,2024-06-05 15:40:33.412913
41.45332061,0.003982067108,0.007774353027,0.0001759529114,2024-06-05 15:40:33.453321
41.49383066,0.01311969757,0.01609373093,0.00332403183,2024-06-05 15:40:33.493831
41.53432978,-0.01126813889,0.006731033325,0.00580072403,2024-06-05 15:40:33.534330
41.57484983,-0.01553821564,0.01573753357,-0.001441478729,2024-06-05 15:40:33.574850
41.61535108,-0.03033828735,0.006291866302,0.003200531006,2024-06-05 15:40:33.615351
41.65579749,-0.03306722641,-0.002956390381,0.0307636261,2024-06-05 15:40:33.655797
41.69627598,-0.08736801147,-0.05374622345,0.08610534668,2024-06-05 15:40:33.696276
41.73682082,-0.1412773132,-0.09363746643,0.1822805405,2024-06-05 15:40:33.736821
41.77730639,-0.07977485657,0.02510547638,-0.03276252747,2024-06-05 15:40:33.777306
41.81772884,0.2030162811,0.3049528599,-0.3407502174,2024-06-05 15:40:33.817729
41.8582528,-0.00381231308,0.1940655708,0.1452174187,2024-06-05 15:40:33.858253
41.89876197,0.04943704605,-0.1806678772,-0.01922988892,2024-06-05 15:40:33.898762
41.93916978,-0.1613712311,-0.4425201416,0.2016835213,2024-06-05 15:40:33.939170
41.97965535,0.3102006912,-0.3435788155,0.3927774429,2024-06-05 15:40:33.979655
42.02019384,-0.1515250206,-0.2896232605,0.08812952042,2024-06-05 15:40:34.020194
42.06067004,-0.2675733566,-0.0055103302,-0.1647439003,2024-06-05 15:40:34.060670
42.10114035,0.2579112053,0.2513823509,-0.02710819244,2024-06-05 15:40:34.101140
42.14162337,0.4499845505,0.123021841,-0.07262086868,2024-06-05 15:40:34.141623
42.1821202,0.5671114922,-0.3066482544,0.3732886314,2024-06-05 15:40:34.182120
42.22260577,-0.1383914948,0.4325554371,-0.3219065666,2024-06-05 15:40:34.222606
42.2630678,-0.7425222397,0.3287200928,-0.5980601311,2024-06-05 15:40:34.263068
42.3035552,-0.6116094589,-0.521212101,0.4011273384,2024-06-05 15:40:34.303555
42.34407988,0.7289128304,0.166631937,0.3658266068,2024-06-05 15:40:34.344080
42.3845427,0.4845461845,0.3072812557,-0.3614506721,2024-06-05 15:40:34.384543
42.425064,0.7729706764,-0.06689333916,0.1232151985,2024-06-05 15:40:34.425064
42.46550082,0.4544129372,0.2843737602,-0.07589006424,2024-06-05 15:40:34.465501
42.5060042,-1.062535763,-0.7321026325,0.3491501808,2024-06-05 15:40:34.506004
42.54651686,-1.503939152,-1.016062737,0.1561107635,2024-06-05 15:40:34.546517
42.58700681,0.1778049469,0.3104681969,0.2623720169,2024-06-05 15:40:34.587007
42.62745478,0.5928468704,0.4116640091,-0.1230163574,2024-06-05 15:40:34.627455
42.66791941,-0.4229383469,-0.1318583488,-0.07968235016,2024-06-05 15:40:34.667919
42.70846014,-0.03681659698,-0.1007761955,0.1845293045,2024-06-05 15:40:34.708460
42.7489666,-0.5445203781,-0.1664197445,0.1575856209,2024-06-05 15:40:34.748967
42.78943233,0.03535270691,0.1576735973,-0.4422647953,2024-06-05 15:40:34.789432
42.8299192,-0.04213619232,0.09286665916,-0.2277674675,2024-06-05 15:40:34.829919
42.87039707,-0.03582286835,0.2019667625,-0.457669735,2024-06-05 15:40:34.870397
42.91088728,0.4959702492,0.4401550293,-0.685303688,2024-06-05 15:40:34.910887
42.95136936,0.2218370438,0.2813436985,-0.5034105778,2024-06-05 15:40:34.951369
42.99186014,-0.323890686,0.0394077301,-0.2555780411,2024-06-05 15:40:34.991860
43.0323603,-0.3265962601,0.07079815865,-0.215690136,2024-06-05 15:40:35.032360
43.07285176,0.07058906555,0.2038490772,-0.1188144684,2024-06-05 15:40:35.072852
43.11333061,-0.1165418625,0.04330182076,-0.09258794785,2024-06-05 15:40:35.113331
43.15381816,0.07111358643,0.1345977783,-0.1877617836,2024-06-05 15:40:35.153818
43.19430129,-0.07145404816,0.2099943161,-0.26820755,2024-06-05 15:40:35.194301
43.23478738,-0.1407699585,0.2946887016,-0.2485938072,2024-06-05 15:40:35.234787
43.27526827,-0.007025718689,0.2662467957,-0.1664662361,2024-06-05 15:40:35.275268
43.31574723,0.426533699,0.3976351023,-0.1259732246,2024-06-05 15:40:35.315747
43.35625723,0.9299054146,0.7281019688,-0.2714080811,2024-06-05 15:40:35.356257
43.39676311,1.215724945,1.052468657,-0.3404407501,2024-06-05 15:40:35.396763
43.43721926,0.01069307327,0.3917148113,-0.2998151779,2024-06-05 15:40:35.437219
43.47768223,-1.525829315,-0.6658132076,0.2199063301,2024-06-05 15:40:35.477682
43.51816853,-1.664746284,-1.095834017,0.8893899918,2024-06-05 15:40:35.518169
43.55867353,-1.86149168,-1.567849398,0.9018602371,2024-06-05 15:40:35.558674
43.59916572,-0.9072051048,-0.6783018112,-0.05144834518,2024-06-05 15:40:35.599166
43.63966853,1.090845585,0.7428891659,-0.8501996994,2024-06-05 15:40:35.639669
43.68015874,1.354031563,0.7960312366,-0.3729848862,2024-06-05 15:40:35.680159
43.72064874,-0.8309345245,-0.4466831684,0.5370745659,2024-06-05 15:40:35.720649
43.76114082,-1.681107521,-0.7150905132,0.1541180611,2024-06-05 15:40:35.761141
43.80164494,0.9773440361,0.7463377714,-0.244603157,2024-06-05 15:40:35.801645
43.84209488,1.040782452,0.862790823,-0.4756121635,2024-06-05 15:40:35.842095
43.88258296,0.489180088,0.6626665592,-0.5183181763,2024-06-05 15:40:35.882583
43.92308608,0.3615279198,0.6401536465,-0.01308870316,2024-06-05 15:40:35.923086
43.96357514,-3.383570194,-2.322893143,1.515892982,2024-06-05 15:40:35.963575
44.00407587,-1.538186073,-1.123301506,0.0302233696,2024-06-05 15:40:36.004076
44.04453467,2.721362114,1.375954628,-0.4930090904,2024-06-05 15:40:36.044535
44.08501994,1.766801357,1.075296879,-0.6483688354,2024-06-05 15:40:36.085020
44.12549249,0.4619512558,0.578720808,-0.418492794,2024-06-05 15:40:36.125492
44.16600457,-1.176828384,-0.293368578,0.6555805206,2024-06-05 15:40:36.166005
44.20650962,-3.994009018,-2.594915152,1.233173847,2024-06-05 15:40:36.206510
44.24696566,1.022312164,0.2067363262,0.0220746994,2024-06-05 15:40:36.246966
44.2874879,2.948367119,1.419840932,-0.5524857044,2024-06-05 15:40:36.287488
44.32795212,1.508338928,0.8531146049,-0.5268783569,2024-06-05 15:40:36.327952
44.36841494,-0.220708847,0.2458701134,0.2435898781,2024-06-05 15:40:36.368415
44.40896733,-4.238440037,-2.578672647,1.386798859,2024-06-05 15:40:36.408967
44.44935644,-1.637714863,-1.238363981,0.2285189629,2024-06-05 15:40:36.449356
44.48990108,2.824603081,1.180252314,-0.2151503563,2024-06-05 15:40:36.489901
44.5303817,2.421253204,1.324582815,-0.7068703175,2024-06-05 15:40:36.530382
44.57091618,0.8427724838,0.8287191391,-0.2842593193,2024-06-05 15:40:36.570916
44.61135681,-1.909229279,-0.7050983906,0.677025795,2024-06-05 15:40:36.611357
44.65186139,-4.179970264,-2.300656319,0.7338657379,2024-06-05 15:40:36.651861
44.69233405,0.718061924,0.09216713905,-0.02675485611,2024-06-05 15:40:36.692334
44.73282441,2.993078709,1.410267591,-0.6339259148,2024-06-05 15:40:36.732824
44.77331046,1.628694534,1.091707706,-0.4756345749,2024-06-05 15:40:36.773310
44.81382915,-0.1383728981,0.3825078011,0.06553506851,2024-06-05 15:40:36.813829
44.85426483,-3.883726597,-1.931406975,0.9579153061,2024-06-05 15:40:36.854265
44.89475181,-1.786327839,-0.8950273991,0.01256990433,2024-06-05 15:40:36.894752
44.93525879,2.229082108,0.9926422834,-0.2105717659,2024-06-05 15:40:36.935259
44.97574577,2.126957417,1.138433695,-0.5228552818,2024-06-05 15:40:36.975746
45.01626244,0.8226809502,0.750639677,-0.2312064171,2024-06-05 15:40:37.016262
45.0567617,-2.061398506,-0.6316409111,0.5051236153,2024-06-05 15:40:37.056762
45.09717733,-4.027024746,-2.240262032,0.6152586937,2024-06-05 15:40:37.097177
45.1376715,0.8187289238,0.0294573307,-0.1462726593,2024-06-05 15:40:37.137672
45.17812978,2.942709446,1.434810877,-0.4948587418,2024-06-05 15:40:37.178130
45.21861681,1.523099422,0.9257156849,-0.3683209419,2024-06-05 15:40:37.218617
45.25913233,-0.1398010254,0.4312181473,-0.06859970093,2024-06-05 15:40:37.259132
45.29963186,-3.402301311,-1.50917697,0.9223361015,2024-06-05 15:40:37.299632
45.34009363,-2.188399792,-1.191627026,0.07627058029,2024-06-05 15:40:37.340094
45.38059124,2.171860695,1.159993291,-0.2238883972,2024-06-05 15:40:37.380591
45.4211092,2.450808525,1.243836164,-0.4607014656,2024-06-05 15:40:37.421109
45.46154967,1.07276535,0.8012764454,-0.2784399986,2024-06-05 15:40:37.461550
45.50212535,-1.425113678,-0.2352256775,0.2878503799,2024-06-05 15:40:37.502125
45.54255285,-4.27950716,-2.460932255,0.8599324226,2024-06-05 15:40:37.542553
45.58307217,0.1260643005,-0.3899216652,0.1748566628,2024-06-05 15:40:37.583072
45.62354837,2.95827198,1.375784993,-0.3337082863,2024-06-05 15:40:37.623548
45.66402238,1.826142788,0.9975037575,-0.4736166,2024-06-05 15:40:37.664022
45.70454869,0.3801403046,0.5776679516,-0.1164288521,2024-06-05 15:40:37.704549
45.74498822,-3.255342484,-1.389838934,0.5907058716,2024-06-05 15:40:37.744988
45.78548009,-2.557125568,-1.588216543,0.3780608177,2024-06-05 15:40:37.785480
45.82598212,1.81944418,0.5660784245,0.4199357033,2024-06-05 15:40:37.825982
45.86649223,2.227219582,1.098689437,-0.571595192,2024-06-05 15:40:37.866492
45.90698546,1.034003258,0.7304270267,-0.2821316719,2024-06-05 15:40:37.906985
45.94747197,-0.6049609184,0.1833159924,-0.00427532196,2024-06-05 15:40:37.947472
45.98789785,-2.867842674,-1.58955574,0.8863592148,2024-06-05 15:40:37.987898
46.02839889,-0.7603034973,-0.8976464272,0.5195398331,2024-06-05 15:40:38.028399
46.06890587,1.749457359,0.8116481304,-0.1765804291,2024-06-05 15:40:38.068906
46.10937613,1.394922733,0.7613770962,-0.5476064682,2024-06-05 15:40:38.109376
46.14986556,0.1170048714,0.4769239426,-0.08749341965,2024-06-05 15:40:38.149866
46.19035551,-2.738350391,-1.476691484,0.7456440926,2024-06-05 15:40:38.190356
46.2308402,-1.129609585,-0.7470479012,0.1908960342,2024-06-05 15:40:38.230840
46.27132171,1.939257622,0.8029983044,-0.1348600388,2024-06-05 15:40:38.271322
46.31181483,1.614464283,1.037110806,-0.5675911903,2024-06-05 15:40:38.311815
46.35230895,0.2968020439,0.5711522102,-0.2736825943,2024-06-05 15:40:38.352309
46.39278728,-1.757684708,-0.8133130074,0.5811038017,2024-06-05 15:40:38.392787
46.43325994,-1.85086298,-1.100309134,0.4152941704,2024-06-05 15:40:38.433260
46.47372869,1.562356472,0.5196259022,0.4394102097,2024-06-05 15:40:38.473729
46.51424884,1.546084404,0.7244343758,-0.3342876434,2024-06-05 15:40:38.514249
46.5547428,0.6512541771,0.5336425304,-0.3820362091,2024-06-05 15:40:38.554743
46.59525926,0.1343359947,0.407938242,0.0632443428,2024-06-05 15:40:38.595259
46.63572238,-3.562874317,-2.096964836,0.9695925713,2024-06-05 15:40:38.635722
46.67617217,-0.9764385223,-0.6438379288,0.02253389359,2024-06-05 15:40:38.676172
46.71666394,2.451629639,1.330867052,-0.4326944351,2024-06-05 15:40:38.716664
46.75714978,1.532775402,0.9307979345,-0.5665717125,2024-06-05 15:40:38.757150
46.79761926,0.6986646652,0.7330629826,-0.2812099457,2024-06-05 15:40:38.797619
46.83809275,-1.205891609,-0.4220128059,0.5835738182,2024-06-05 15:40:38.838093
46.87857994,-3.356387615,-1.944070578,0.8147783279,2024-06-05 15:40:38.878580
46.91909155,-0.03001260757,-0.02120637894,0.02482509613,2024-06-05 15:40:38.919092
46.95959098,2.086935997,1.277326465,-0.8003997803,2024-06-05 15:40:38.959591
47.00010941,1.088691711,0.9476537704,-0.5448918343,2024-06-05 15:40:39.000109
47.04060405,0.1416158676,0.6210474968,-0.1785521507,2024-06-05 15:40:39.040604
47.08107155,-2.526762009,-1.137057543,0.6774873734,2024-06-05 15:40:39.081072
47.12154863,-1.912725925,-0.9388661385,0.1956496239,2024-06-05 15:40:39.121549
47.16203811,1.367992401,0.6180996895,-0.2462654114,2024-06-05 15:40:39.162038
47.20252728,1.638242722,1.052740812,-0.5999946594,2024-06-05 15:40:39.202527
47.242989,0.8235359192,0.6902236938,-0.2196640968,2024-06-05 15:40:39.242989
47.2834804,-0.7936143875,-0.01512789726,0.2642989159,2024-06-05 15:40:39.283480
47.3239927,-2.762060642,-1.445460796,0.6371841431,2024-06-05 15:40:39.323993
47.36447124,-0.2919983864,-0.2955322266,0.1402583122,2024-06-05 15:40:39.364471
47.40498316,1.778007984,0.9786838293,-0.3783226013,2024-06-05 15:40:39.404983
47.44539197,1.271653652,0.706622839,-0.283138752,2024-06-05 15:40:39.445392
47.48595697,0.3810663223,0.4580430984,-0.1203446388,2024-06-05 15:40:39.485957
47.5264679,-1.767175674,-0.8437302113,0.5726943016,2024-06-05 15:40:39.526468
47.56690618,-1.845071793,-1.142727852,0.4807620049,2024-06-05 15:40:39.566906
47.60734775,1.037269115,0.3321530819,0.1623730659,2024-06-05 15:40:39.607348
47.64782275,1.530004978,0.7612259388,-0.3875818253,2024-06-05 15:40:39.647823
47.6883577,0.7416481972,0.5183725357,-0.2158341408,2024-06-05 15:40:39.688358
47.72886181,-0.4489731789,0.211568594,0.06877422333,2024-06-05 15:40:39.728862
47.76935905,-2.411122799,-1.255790472,0.5667862892,2024-06-05 15:40:39.769359
47.80980717,-0.2679376602,-0.4673690796,0.250638485,2024-06-05 15:40:39.809807
47.85034139,1.611397266,0.7240653038,-0.1994447708,2024-06-05 15:40:39.850341
47.89081176,1.177105427,0.6720325947,-0.3091826439,2024-06-05 15:40:39.890812
47.93130655,0.1858944893,0.4981427193,-0.09074020386,2024-06-05 15:40:39.931307
47.97178592,-2.188414097,-1.023158789,0.5818872452,2024-06-05 15:40:39.971786
48.01225238,-1.150309086,-0.7149186134,0.2088499069,2024-06-05 15:40:40.012252
48.05276837,1.526958466,0.6065404415,-0.1386384964,2024-06-05 15:40:40.052768
48.09324358,1.491605759,0.8968083858,-0.3692879677,2024-06-05 15:40:40.093244
48.1337228,0.296631813,0.4777476788,-0.0860915184,2024-06-05 15:40:40.133723
48.17422697,-2.074267387,-0.8768610954,0.5518159866,2024-06-05 15:40:40.174227
48.21471405,-1.590358257,-0.8580543995,0.2435951233,2024-06-05 15:40:40.214714
48.2551728,1.291437149,0.3086974621,-0.00315952301,2024-06-05 15:40:40.255173
48.29567264,1.533949852,0.8763990402,-0.3923859596,2024-06-05 15:40:40.295673
48.33620134,0.6139655113,0.6142435074,-0.2057032585,2024-06-05 15:40:40.336201
48.37669176,-0.7792420387,0.04615044594,0.2314763069,2024-06-05 15:40:40.376692
48.41711869,-2.358998299,-1.196835518,0.4566898346,2024-06-05 15:40:40.417119
48.45758744,0.1048612595,-0.1164176464,0.07298660278,2024-06-05 15:40:40.457587
48.49805301,1.604111671,0.7274050713,-0.353849411,2024-06-05 15:40:40.498053
48.53854004,0.9204959869,0.662560463,-0.2779078484,2024-06-05 15:40:40.538540
48.57910655,0.1652226448,0.430980444,-0.04104042053,2024-06-05 15:40:40.579107
48.61958233,-2.088982105,-0.9697535038,0.6321921349,2024-06-05 15:40:40.619582
48.66006665,-1.44611454,-0.9006206989,0.3553028107,2024-06-05 15:40:40.660067
48.70056217,1.441655636,0.4247264862,-0.09171199799,2024-06-05 15:40:40.700562
48.74104296,1.476079941,0.8966374397,-0.4113378525,2024-06-05 15:40:40.741043
48.7815166,0.642780304,0.6160857677,-0.2654967308,2024-06-05 15:40:40.781517
48.82204785,-1.105887413,-0.2570230961,0.403878212,2024-06-05 15:40:40.822048
48.8625003,-2.500950336,-1.281933308,0.4256362915,2024-06-05 15:40:40.862500
48.90296238,0.4485044479,0.1072189808,0.04469537735,2024-06-05 15:40:40.902962
48.94353546,1.743537426,0.944971323,-0.4609394073,2024-06-05 15:40:40.943535
48.98402259,1.009744644,0.710007906,-0.264875412,2024-06-05 15:40:40.984023
49.02445223,-0.1962323189,0.2395017147,0.1415810585,2024-06-05 15:40:41.024452
49.06491994,-2.584271431,-1.328891039,0.6270699501,2024-06-05 15:40:41.064920
49.10542686,-0.5892243385,-0.3626208305,0.1547050476,2024-06-05 15:40:41.105427
49.14591462,1.673755169,0.7940683365,-0.4066748619,2024-06-05 15:40:41.145915
49.18642384,1.214171886,0.9044537544,-0.4128479958,2024-06-05 15:40:41.186424
49.22691082,0.1996893883,0.5152938366,-0.05655384064,2024-06-05 15:40:41.226911
49.26734436,-2.555487156,-1.297527552,0.7364597321,2024-06-05 15:40:41.267344
49.30783129,-1.154675961,-0.6742091179,0.1477270126,2024-06-05 15:40:41.307831
49.34831827,1.833463669,0.7026460171,-0.1866207123,2024-06-05 15:40:41.348318
49.3888216,1.467344761,0.9490146637,-0.4676985741,2024-06-05 15:40:41.388822
49.42930358,0.1042819023,0.4015986919,-0.1181921959,2024-06-05 15:40:41.429304
49.46977337,-1.814830303,-0.7544631958,0.5340833664,2024-06-05 15:40:41.469773
49.51029994,-1.275760651,-0.695728302,0.2710728645,2024-06-05 15:40:41.510300
49.55080087,1.121355057,0.3678581715,-0.07576608658,2024-06-05 15:40:41.550801
49.59129775,1.275343895,0.836014986,-0.4212031364,2024-06-05 15:40:41.591298
49.63174259,0.1522006989,0.4063901901,0.02483129501,2024-06-05 15:40:41.631743
49.67224759,-2.428753853,-1.173635006,0.649831295,2024-06-05 15:40:41.672248
49.71275749,-0.7044992447,-0.4766573906,0.02771854401,2024-06-05 15:40:41.712757
49.75324957,1.976549625,0.8952538967,-0.1947207451,2024-06-05 15:40:41.753250
49.793709,1.318414688,0.9012373686,-0.4201040268,2024-06-05 15:40:41.793709
49.83420592,0.3744535446,0.5002527237,-0.0889749527,2024-06-05 15:40:41.834206
49.87468275,-1.888804436,-0.7963471413,0.6546411514,2024-06-05 15:40:41.874683
49.91517717,-1.838843346,-0.9140131474,0.08544445038,2024-06-05 15:40:41.915177
49.95565217,1.282149315,0.4533977509,-0.1641159058,2024-06-05 15:40:41.955652
49.99614051,1.524497509,0.9034540653,-0.3695755005,2024-06-05 15:40:41.996141
50.03662822,0.7036385536,0.6463558674,-0.1861186028,2024-06-05 15:40:42.036628
50.0771102,-1.63786459,-0.5520544052,0.5958180428,2024-06-05 15:40:42.077110
50.11759712,-2.466691494,-1.246032715,0.2600102425,2024-06-05 15:40:42.117597
50.15808447,1.18764019,0.2998716831,0.006056785583,2024-06-05 15:40:42.158084
50.1985715,1.898848534,1.049650311,-0.4194569588,2024-06-05 15:40:42.198571
50.23905858,0.945669651,0.7754874229,-0.2694067955,2024-06-05 15:40:42.239059
50.27955665,-0.8250131607,0.06807923317,0.3318953514,2024-06-05 15:40:42.279557
50.32004244,-3.111000061,-1.546681643,0.5217103958,2024-06-05 15:40:42.320042
50.36053561,0.2975926399,-0.227991581,0.1511950493,2024-06-05 15:40:42.360536
50.40103415,2.078314304,1.006986737,-0.3833112717,2024-06-05 15:40:42.401034
50.44152457,1.20138979,0.8466498852,-0.4045300484,2024-06-05 15:40:42.441525
50.48195796,-0.3433375359,0.3323824406,0.1441955566,2024-06-05 15:40:42.481958
50.52246822,-3.12921524,-1.535056114,0.5935277939,2024-06-05 15:40:42.522468
50.56298749,-0.325501442,-0.4374477863,0.2016592026,2024-06-05 15:40:42.562987
50.60348009,2.063729286,0.876989603,-0.2917256355,2024-06-05 15:40:42.603480
50.64395467,1.365653038,0.9311993122,-0.4446005821,2024-06-05 15:40:42.643955
50.68441754,0.2933168411,0.6132154465,-0.06201410294,2024-06-05 15:40:42.684418
50.72489296,-2.758601665,-1.254410028,0.6806154251,2024-06-05 15:40:42.724893
50.76539598,-1.46503973,-0.8684732914,0.2355875969,2024-06-05 15:40:42.765396
50.80589962,1.811977863,0.6155080795,-0.1187162399,2024-06-05 15:40:42.805900
50.84638556,1.705907822,1.077080131,-0.4659924507,2024-06-05 15:40:42.846386
50.8868704,0.5632853508,0.6807537079,-0.156671524,2024-06-05 15:40:42.886870
50.92735816,-2.284041405,-0.9254627228,0.5678157806,2024-06-05 15:40:42.927358
50.96784592,-1.644705772,-0.8675372601,0.2673215866,2024-06-05 15:40:42.967846
51.00833369,1.373986244,0.3593256474,-0.005536079407,2024-06-05 15:40:43.008334
51.04882144,1.491927147,0.9090633392,-0.479074955,2024-06-05 15:40:43.048821
51.08929197,0.7227687836,0.6751167774,-0.2403802872,2024-06-05 15:40:43.089292
51.12976754,-1.453221321,-0.4107344151,0.4649267197,2024-06-05 15:40:43.129768
51.17027566,-2.45979166,-1.24288249,0.38022089,2024-06-05 15:40:43.170276
51.21076264,0.8782429695,0.08374619484,0.1095614433,2024-06-05 15:40:43.210763
51.25122025,1.892165184,1.043493032,-0.4330825806,2024-06-05 15:40:43.251220
51.29172624,1.020586967,0.8159513474,-0.3218884468,2024-06-05 15:40:43.291726
51.33222681,-0.43445158,0.2175974846,0.1761016846,2024-06-05 15:40:43.332227
51.37272478,-2.710448265,-1.305726051,0.620575428,2024-06-05 15:40:43.372725
51.4132092,-0.5121517181,-0.5798296928,0.2698655128,2024-06-05 15:40:43.413209
51.45365233,1.725879192,0.7030715942,-0.3398165703,2024-06-05 15:40:43.453652
51.49416822,1.227353573,0.8586075306,-0.382601738,2024-06-05 15:40:43.494168
51.53464863,0.2795629501,0.5496733189,-0.08472537994,2024-06-05 15:40:43.534649
51.57511749,-2.047541142,-0.8601999283,0.54591465,2024-06-05 15:40:43.575117
51.615649,-1.313941479,-0.7130208015,0.2454032898,2024-06-05 15:40:43.615649
51.65610275,1.224008083,0.3686928749,-0.112326622,2024-06-05 15:40:43.656103
51.69658863,1.302268028,0.831687212,-0.3805437088,2024-06-05 15:40:43.696589
51.73710749,0.6744856834,0.6357021332,-0.1954722404,2024-06-05 15:40:43.737107
51.7775354,-1.06678009,-0.1767878532,0.3870615959,2024-06-05 15:40:43.777535
51.81802176,-2.298258305,-1.236519337,0.4059677124,2024-06-05 15:40:43.818022
51.85850905,0.5846147537,-0.03948807716,0.1020121574,2024-06-05 15:40:43.858509
51.89904426,1.623956203,0.8570945263,-0.3711919785,2024-06-05 15:40:43.899044
51.93953587,0.9439444542,0.7276501656,-0.2806358337,2024-06-05 15:40:43.939536
51.97998363,-0.08123397827,0.4158473015,0.03574705124,2024-06-05 15:40:43.979984
52.02055066,-2.233612061,-1.004482031,0.5470523834,2024-06-05 15:40:44.020551
52.06097848,-0.9385595322,-0.6595430374,0.2317800522,2024-06-05 15:40:44.060978
52.10146759,1.363809586,0.4551930428,-0.205473423,2024-06-05 15:40:44.101468
52.14194051,1.233852863,0.7879555225,-0.3197770119,2024-06-05 15:40:44.141941
52.18245478,0.5378665924,0.5890557766,-0.1555657387,2024-06-05 15:40:44.182455
52.22294145,-1.306571484,-0.3158247471,0.4066462517,2024-06-05 15:40:44.222941
52.26341165,-1.993844032,-1.092278481,0.4223875999,2024-06-05 15:40:44.263412
52.30391061,0.7646808624,0.05864143372,0.0467505455,2024-06-05 15:40:44.303911
52.34439868,1.483512878,0.8384349346,-0.4002432823,2024-06-05 15:40:44.344399
52.38487587,0.8477668762,0.6909556389,-0.2947249413,2024-06-05 15:40:44.384876
52.42540483,-0.1671538353,0.3226573467,0.057762146,2024-06-05 15:40:44.425405
52.46578926,-2.289941311,-1.093822718,0.5880069733,2024-06-05 15:40:44.465789
52.50640874,-0.8099808693,-0.6370298862,0.2274055481,2024-06-05 15:40:44.506409
52.54687947,1.522922993,0.5513217449,-0.2309327126,2024-06-05 15:40:44.546879
52.58726087,1.245180607,0.8607976437,-0.3568072319,2024-06-05 15:40:44.587261
52.6277477,0.4891924858,0.6387267113,-0.1758503914,2024-06-05 15:40:44.627748
52.66830134,-1.249305725,-0.2449829578,0.3290891647,2024-06-05 15:40:44.668301
52.70877061,-2.05361557,-1.045558453,0.3892102242,2024-06-05 15:40:44.708771
52.7492679,0.5038709641,-0.1081266403,0.08201742172,2024-06-05 15:40:44.749268
52.78975764,1.457785606,0.7485203743,-0.3493947983,2024-06-05 15:40:44.789758
52.83026103,0.8801913261,0.6724317074,-0.2583417892,2024-06-05 15:40:44.830261
52.87073749,0.05177021027,0.4462499619,-0.03054380417,2024-06-05 15:40:44.870737
52.91121124,-1.766213894,-0.6849315166,0.547334671,2024-06-05 15:40:44.911211
52.95168915,-1.748150826,-1.089951992,0.2934160233,2024-06-05 15:40:44.951689
52.9921941,1.22671032,0.2911062241,-0.08673048019,2024-06-05 15:40:44.992194
53.032709,1.612549782,0.9079246521,-0.3480248451,2024-06-05 15:40:45.032709
53.07318066,0.781791687,0.6905679703,-0.1753664017,2024-06-05 15:40:45.073181
53.11366389,-0.6060671806,0.1799366474,0.2099089622,2024-06-05 15:40:45.113664
53.15414368,-2.345291138,-1.137634039,0.4613304138,2024-06-05 15:40:45.154144
53.19463108,-0.1539273262,-0.3985893726,0.168680191,2024-06-05 15:40:45.194631
53.23511879,1.553108215,0.7036108971,-0.3376502991,2024-06-05 15:40:45.235119
53.27560822,1.074056149,0.7476322651,-0.300057888,2024-06-05 15:40:45.275608
53.31610202,0.3156294823,0.5686750412,-0.1040520668,2024-06-05 15:40:45.316102
53.35660957,-1.593125343,-0.5115776062,0.4659528732,2024-06-05 15:40:45.356610
53.39709285,-1.888478279,-1.065675735,0.3294730186,2024-06-05 15:40:45.397093
53.43752301,1.075303555,0.1919064522,-0.07220840454,2024-06-05 15:40:45.437523
53.47800155,1.786375523,1.044108152,-0.3933672905,2024-06-05 15:40:45.478002
53.51850598,0.5916628838,0.607871294,-0.1930189133,2024-06-05 15:40:45.518506
53.55901863,-1.032116413,-0.03541135788,0.1925520897,2024-06-05 15:40:45.559019
53.59949025,-2.095716953,-1.039195538,0.5319900513,2024-06-05 15:40:45.599490
53.63999447,-0.1425080299,-0.4655053616,0.1637377739,2024-06-05 15:40:45.639994
53.68047488,1.476342678,0.6591527462,-0.3310184479,2024-06-05 15:40:45.680475
53.7209802,1.117266655,0.7486891747,-0.2465257645,2024-06-05 15:40:45.720980
53.76147384,0.2670559883,0.5098788738,-0.05135774612,2024-06-05 15:40:45.761474
53.80195827,-1.652157307,-0.6383292675,0.4824256897,2024-06-05 15:40:45.801958
53.84243582,-1.313187122,-0.7536902428,0.257004261,2024-06-05 15:40:45.842436
53.88289822,0.9783220291,0.2689545155,-0.09753084183,2024-06-05 15:40:45.882898
53.92337561,1.201597691,0.7397453785,-0.3407812119,2024-06-05 15:40:45.923376
53.96386264,0.6168527603,0.6044466496,-0.1810660362,2024-06-05 15:40:45.963863
54.00439275,-0.3355131149,0.2272188663,0.1088709831,2024-06-05 15:40:46.004393
54.04488994,-1.663923264,-0.6969897747,0.3184595108,2024-06-05 15:40:46.044890
54.08534728,-0.4039473534,-0.3327906132,0.1058850288,2024-06-05 15:40:46.085347
54.12581947,1.03854847,0.3961670399,-0.1443533897,2024-06-05 15:40:46.125819
54.16634837,0.5067481995,0.3624811172,-0.07227563858,2024-06-05 15:40:46.166348
54.20685712,-0.6406145096,-0.1143581867,0.1492371559,2024-06-05 15:40:46.206857
54.24727254,-0.524848938,-0.1939053535,0.2345266342,2024-06-05 15:40:46.247273
54.28774436,0.1688261032,0.0672056675,0.02016878128,2024-06-05 15:40:46.287744
54.32824165,0.3520927429,0.3022680283,-0.2044916153,2024-06-05 15:40:46.328242
54.36872061,0.325946331,0.3638529778,-0.1755747795,2024-06-05 15:40:46.368721
54.40923061,0.2685065269,0.4082314968,-0.1329984665,2024-06-05 15:40:46.409231
54.44968134,-0.09898424149,0.1698441505,0.04890775681,2024-06-05 15:40:46.449681
54.49021686,-0.4773607254,-0.07922649384,0.0232629776,2024-06-05 15:40:46.490217
54.53072811,0.05847549438,0.1516492367,-0.002510070801,2024-06-05 15:40:46.530728
54.57120134,0.0196723938,0.05663394928,0.05243206024,2024-06-05 15:40:46.571201
54.61171853,-0.1438894272,-0.02782154083,0.1428546906,2024-06-05 15:40:46.611719
54.65217431,-0.1167874336,0.02242088318,0.08027887344,2024-06-05 15:40:46.652174
54.69264884,-0.06718540192,0.05514812469,0.009348869324,2024-06-05 15:40:46.692649
54.73313874,-0.07409572601,0.09297347069,-0.0702009201,2024-06-05 15:40:46.733139
54.77362066,-0.148086071,0.01103448868,0.008959770203,2024-06-05 15:40:46.773621
54.8141427,-0.0557641983,0.02380681038,0.02579641342,2024-06-05 15:40:46.814143
54.85462296,0.006847381592,0.0347867012,0.03876590729,2024-06-05 15:40:46.854623
54.89510952,-0.06826543808,0.02131915092,0.0622754097,2024-06-05 15:40:46.895110
54.93557436,-0.03186130524,0.01433682442,0.05703544617,2024-06-05 15:40:46.935574
54.97606113,0.1954278946,0.1453487873,-0.008410453796,2024-06-05 15:40:46.976061
55.01659499,0.04760408401,0.1154215336,-0.001517772675,2024-06-05 15:40:47.016595
55.05701592,-0.1271038055,-0.01507616043,0.04667711258,2024-06-05 15:40:47.057016
55.09750223,0.02649736404,0.03127264977,0.01998853683,2024-06-05 15:40:47.097502
55.13798868,-0.0773358345,-0.005656480789,0.0248169899,2024-06-05 15:40:47.137989
55.17847504,-0.2779288292,-0.1079518795,0.07758045197,2024-06-05 15:40:47.178475
55.21896145,-0.7349514961,-0.5659143925,0.3349280357,2024-06-05 15:40:47.218961
55.25945806,-0.2369179726,-0.4263062477,0.1074266434,2024-06-05 15:40:47.259458
55.29996874,1.056855679,0.4349081516,-0.1200065613,2024-06-05 15:40:47.299969
55.3404365,1.012345791,0.6422202587,-0.2277116776,2024-06-05 15:40:47.340437
55.38094744,0.4486541748,0.5151357651,-0.1460933685,2024-06-05 15:40:47.380947
55.4214428,-0.3291521072,0.1312580109,-0.01700973511,2024-06-05 15:40:47.421443
55.4618766,-0.5856113434,-0.185685873,0.1341567039,2024-06-05 15:40:47.461877
55.50240504,-0.1346383095,-0.04387354851,-0.01100635529,2024-06-05 15:40:47.502405
55.54287827,0.2387523651,0.16467309,-0.1650805473,2024-06-05 15:40:47.542878
55.58342983,0.2064938545,0.1898846626,-0.1462907791,2024-06-05 15:40:47.583430
55.62388363,-0.07229852676,0.04836297035,-0.013235569,2024-06-05 15:40:47.623884
55.66435332,-0.1682024002,0.01384520531,0.06157445908,2024-06-05 15:40:47.664353
55.7048202,-0.06929397583,0.07696175575,0.000476360321,2024-06-05 15:40:47.704820
55.74530915,0.07643413544,0.1476166248,-0.06620359421,2024-06-05 15:40:47.745309
55.78580421,0.06213378906,0.1480743885,-0.06796836853,2024-06-05 15:40:47.785804
55.82632165,-0.02618551254,0.06953692436,0.0008611679077,2024-06-05 15:40:47.826322
55.86682697,-0.01250982285,0.04345273972,0.03253889084,2024-06-05 15:40:47.866827
55.90731478,0.05007886887,0.06219649315,-0.001496315002,2024-06-05 15:40:47.907315
55.94780259,0.03896474838,0.07758593559,-0.0214009285,2024-06-05 15:40:47.947803
55.98820577,-0.0181221962,0.0418074131,-0.01225423813,2024-06-05 15:40:47.988206
56.02870337,-0.04876470566,0.04103136063,-0.009821891785,2024-06-05 15:40:48.028703
56.06921994,0.009848594666,0.07111334801,-0.0350484848,2024-06-05 15:40:48.069220
56.10972077,0.01134061813,0.08260536194,-0.0424823761,2024-06-05 15:40:48.109721
56.15019259,-0.01733160019,0.03643703461,-0.01204013824,2024-06-05 15:40:48.150193
56.19067025,-0.01003885269,0.02463245392,0.01789474487,2024-06-05 15:40:48.190670
56.23115723,0.01642990112,0.0454185009,-0.004725933075,2024-06-05 15:40:48.231157
56.2716491,0.008145809174,0.0491168499,-0.01691007614,2024-06-05 15:40:48.271649
56.31214108,-0.0129032135,0.04474329948,-0.01135635376,2024-06-05 15:40:48.312141
56.35262613,-0.01047372818,0.05262207985,-0.01340436935,2024-06-05 15:40:48.352626
56.39313837,-0.003322601318,0.05757021904,-0.009328842163,2024-06-05 15:40:48.393138
56.43359306,-0.0005712509155,0.03543376923,-0.008250236511,2024-06-05 15:40:48.433593
56.47405717,0.00289773941,0.03189873695,0.003416061401,2024-06-05 15:40:48.474057
56.51459009,0.001136779785,0.01122689247,0.0005369186401,2024-06-05 15:40:48.514590
56.55508644,0.00586938858,0.03419756889,0.0008664131165,2024-06-05 15:40:48.555086
56.59560592,-0.00465965271,0.04308152199,0.005336284637,2024-06-05 15:40:48.595606
56.63606822,-0.000431060791,0.03248357773,-0.008171081543,2024-06-05 15:40:48.636068
56.67653879,-0.005363464355,0.02262187004,-0.01226997375,2024-06-05 15:40:48.676539
56.71697858,-0.008581638336,0.01704621315,-0.0005445480347,2024-06-05 15:40:48.716979
56.75746561,-0.006853103638,0.01433587074,0.01061534882,2024-06-05 15:40:48.757466
56.79794863,-0.007969856262,0.01835680008,-0.00691652298,2024-06-05 15:40:48.797949
56.83842764,-0.002776145935,0.01965212822,-0.006857395172,2024-06-05 15:40:48.838428
56.87895816,0.01453113556,0.02635097504,-0.01051998138,2024-06-05 15:40:48.878958
56.91945967,-0.01130056381,0.02163815498,-0.003280162811,2024-06-05 15:40:48.919460
56.95994301,-0.01052570343,0.02474856377,0.001313686371,2024-06-05 15:40:48.959943
57.00046259,-0.002924442291,0.02269411087,-0.007646560669,2024-06-05 15:40:49.000463
57.04093879,0.006145954132,0.02548503876,-0.001735210419,2024-06-05 15:40:49.040939
57.08140025,0.01883172989,0.0316426754,0.0008702278137,2024-06-05 15:40:49.081400
57.12189936,-0.1812348366,-0.1059522629,0.09872817993,2024-06-05 15:40:49.121899
57.16237853,-0.7285580635,-0.4833590984,0.2369074821,2024-06-05 15:40:49.162379
57.20285728,0.1116275787,-0.1505179405,0.02261829376,2024-06-05 15:40:49.202857
57.24334514,0.7151255608,0.3020579815,-0.1138358116,2024-06-05 15:40:49.243345
57.2838328,0.3902668953,0.3200633526,-0.1355843544,2024-06-05 15:40:49.283833
57.32431181,-0.03464221954,0.1419234276,-0.05777025223,2024-06-05 15:40:49.324312
57.36480379,-0.07184076309,0.1178193092,-0.04459857941,2024-06-05 15:40:49.364804
57.40531587,0.1125693321,0.1182601452,-0.02723360062,2024-06-05 15:40:49.405316
57.44581358,0.03308057785,0.06687021255,-0.05657577515,2024-06-05 15:40:49.445814
57.48629098,0.07349157333,0.08658313751,-0.053586483,2024-06-05 15:40:49.486291
57.52677936,0.01338243484,0.05367326736,0.008871078491,2024-06-05 15:40:49.526779
57.56721848,-0.01705598831,0.1096491814,-0.1256866455,2024-06-05 15:40:49.567218
57.60768837,-0.3132333755,-0.07134485245,-0.07665061951,2024-06-05 15:40:49.607688
57.64817592,-0.2326211929,-0.1807727814,0.1034669876,2024-06-05 15:40:49.648176
57.68871853,-0.1355347633,-0.1380159855,0.1208276749,2024-06-05 15:40:49.688719
57.72920129,0.1337571144,-0.01241779327,0.122592926,2024-06-05 15:40:49.729201
57.76968624,-0.06801748276,-0.1118900776,0.1292538643,2024-06-05 15:40:49.769686
57.8101903,-0.1869769096,-0.141320467,0.09969234467,2024-06-05 15:40:49.810190
57.85068337,-0.01898574829,-0.05683851242,0.02428770065,2024-06-05 15:40:49.850683
57.89114577,0.3275361061,0.1611926556,-0.08450937271,2024-06-05 15:40:49.891146
57.93161608,0.3868317604,0.2702839375,-0.121515274,2024-06-05 15:40:49.931616
57.97210384,0.1395840645,0.1449275017,-0.02438497543,2024-06-05 15:40:49.972104
58.01262681,0.006432533264,0.07983374596,0.03745889664,2024-06-05 15:40:50.012627
58.05311426,-0.06645011902,0.01565098763,0.00541305542,2024-06-05 15:40:50.053114
58.09360494,-0.0668296814,-0.02849674225,0.03085851669,2024-06-05 15:40:50.093605
58.13408353,-0.08180141449,-0.01299095154,-0.01841545105,2024-06-05 15:40:50.134084
58.17457238,-0.1912636757,-0.08145546913,-0.001806259155,2024-06-05 15:40:50.174572
58.21506014,-0.410823822,-0.21626544,0.0271935463,2024-06-05 15:40:50.215060
58.25552014,-0.4741940498,-0.3034145832,0.02044153214,2024-06-05 15:40:50.255520
58.2960242,0.2337956429,0.005787849426,-0.003719806671,2024-06-05 15:40:50.296024
58.33655066,0.5018773079,0.2618415356,-0.09014606476,2024-06-05 15:40:50.336551
58.37699556,0.3111820221,0.2894108295,-0.08868741989,2024-06-05 15:40:50.376996
58.41745499,0.06753253937,0.1782836914,-0.03484630585,2024-06-05 15:40:50.417455
58.45794275,0.01702642441,0.08912682533,0.05316638947,2024-06-05 15:40:50.457943
58.49843051,-0.0184636116,-0.001015901566,0.02441692352,2024-06-05 15:40:50.498431
58.53891827,-0.01668357849,-0.012768507,0.001724243164,2024-06-05 15:40:50.538918
58.57944665,-0.1049194336,-0.05415058136,-0.02011060715,2024-06-05 15:40:50.579447
58.61992926,-0.1540465355,-0.0877494812,0.008296489716,2024-06-05 15:40:50.619929
58.66043004,-0.1111474037,-0.07492518425,0.00630235672,2024-06-05 15:40:50.660430
58.70088931,-0.1127605438,-0.05603885651,0.01801872253,2024-06-05 15:40:50.700889
58.74139191,-0.3736987114,-0.2292358875,0.1032252312,2024-06-05 15:40:50.741392
58.78186395,-0.1080169678,-0.1471803188,0.0555524826,2024-06-05 15:40:50.781864
58.82239796,0.5061621666,0.1668865681,-0.01297855377,2024-06-05 15:40:50.822398
58.86284665,0.3478870392,0.2341060638,-0.0586771965,2024-06-05 15:40:50.862847
58.90334634,0.0562582016,0.168002367,-0.08531522751,2024-06-05 15:40:50.903346
58.94381561,0.0272974968,0.1489958763,-0.04077911377,2024-06-05 15:40:50.943816
58.98430301,-0.03182411194,0.0238275528,0.003892421722,2024-06-05 15:40:50.984303
59.02482863,-0.03243207932,-0.013058424,-0.003386974335,2024-06-05 15:40:51.024829
59.06526952,-0.1095032692,-0.08298182487,0.03581476212,2024-06-05 15:40:51.065270
59.10577941,-0.1015458107,-0.08757185936,0.0404009819,2024-06-05 15:40:51.105779
59.14629124,-0.06783819199,-0.03875231743,0.02937889099,2024-06-05 15:40:51.146291
59.18679806,-0.1056032181,-0.05650568008,0.04487895966,2024-06-05 15:40:51.186798
59.22728671,-0.5769934654,-0.3256037235,0.1382808685,2024-06-05 15:40:51.227287
59.26777509,-0.1405630112,-0.2100799084,0.05695390701,2024-06-05 15:40:51.267775
59.30815535,0.6462979317,0.2686862946,-0.0912232399,2024-06-05 15:40:51.308155
59.34868103,0.3996114731,0.2952969074,-0.162560463,2024-06-05 15:40:51.348681
59.38916296,0.05067586899,0.1715533733,-0.07667016983,2024-06-05 15:40:51.389163
59.42966494,0.03315973282,0.128554821,-0.01003074646,2024-06-05 15:40:51.429665
