Time (s),Acceleration x (m/s^2),Acceleration y (m/s^2),Acceleration z (m/s^2),Datetime
0.0,-1.60977149,5.169394016,6.223432541,2024-06-05 20:47:27.000000
0.014154376,-1.451546073,4.92502737,6.1899333,2024-06-05 20:47:27.014154
0.054154376,0.0,0.0,0.0,2024-06-05 20:47:27.054154
0.094154376,0.0,0.0,0.0,2024-06-05 20:47:27.094154
0.134154376,0.0,0.0,0.0,2024-06-05 20:47:27.134154
0.174154376,0.0,0.0,0.0,2024-06-05 20:47:27.174154
0.214154376,0.0,0.0,0.0,2024-06-05 20:47:27.214154
0.254154376,0.0,0.0,0.0,2024-06-05 20:47:27.254154
0.294154376,0.0,0.0,0.0,2024-06-05 20:47:27.294154
0.334154376,-0.6598208547,3.003889799,8.38175869,2024-06-05 20:47:27.334154
0.374154376,-0.6598208547,3.003889799,8.38175869,2024-06-05 20:47:27.374154
0.414154376,-0.6598208547,3.003889799,8.38175869,2024-06-05 20:47:27.414154
0.454154376,-0.6598208547,3.003889799,8.38175869,2024-06-05 20:47:27.454154
0.494154376,-0.6598208547,3.003889799,8.38175869,2024-06-05 20:47:27.494154
0.534154376,-0.6598208547,3.003889799,8.38175869,2024-06-05 20:47:27.534154
0.574154376,-0.6598208547,3.003889799,8.38175869,2024-06-05 20:47:27.574154
0.614154376,-0.6598208547,3.003889799,8.38175869,2024-06-05 20:47:27.614154
0.654154376,-0.6598208547,3.003889799,8.38175869,2024-06-05 20:47:27.654154
0.694154376,-0.6598208547,3.003889799,8.38175869,2024-06-05 20:47:27.694154
0.734154376,-0.6598208547,3.003889799,8.38175869,2024-06-05 20:47:27.734154
0.774154376,-0.6598208547,3.003889799,8.38175869,2024-06-05 20:47:27.774154
0.814154376,-0.6598208547,3.003889799,8.38175869,2024-06-05 20:47:27.814154
0.854154376,-0.6598208547,3.003889799,8.38175869,2024-06-05 20:47:27.854154
0.894154376,-0.6598208547,3.003889799,8.38175869,2024-06-05 20:47:27.894154
0.934154376,-0.6598208547,3.003889799,8.38175869,2024-06-05 20:47:27.934154
0.974154376,-0.6598208547,3.003889799,8.38175869,2024-06-05 20:47:27.974154
1.014154376,-0.6598208547,3.003889799,8.38175869,2024-06-05 20:47:28.014154
1.054154376,-0.6598208547,3.003889799,8.38175869,2024-06-05 20:47:28.054154
1.094154376,-3.298506021,-0.4241278172,3.675973892,2024-06-05 20:47:28.094154
1.134154376,-3.298506021,-0.4241278172,3.675973892,2024-06-05 20:47:28.134154
1.174154376,-3.298506021,-0.4241278172,3.675973892,2024-06-05 20:47:28.174154
1.214154376,-3.298506021,-0.4241278172,3.675973892,2024-06-05 20:47:28.214154
1.254154376,-3.298506021,-0.4241278172,3.675973892,2024-06-05 20:47:28.254154
1.294154376,-11.25284672,-15.19472313,1.092323542,2024-06-05 20:47:28.294154
1.334154376,-11.25643635,-9.421440125,3.534498215,2024-06-05 20:47:28.334154
1.374154376,0.936490953,-7.367500782,5.184947491,2024-06-05 20:47:28.374154
1.414154376,0.936490953,-7.367500782,5.184947491,2024-06-05 20:47:28.414154
1.454154376,0.936490953,-7.367500782,5.184947491,2024-06-05 20:47:28.454154
1.494154376,0.936490953,-7.367500782,5.184947491,2024-06-05 20:47:28.494154
1.534154376,0.936490953,-7.367500782,5.184947491,2024-06-05 20:47:28.534154
1.574154376,0.936490953,-7.367500782,5.184947491,2024-06-05 20:47:28.574154
1.614154376,0.8730811477,-7.774580002,5.761318684,2024-06-05 20:47:28.614154
1.654154376,0.8730811477,-7.774580002,5.761318684,2024-06-05 20:47:28.654154
1.694154376,0.8730811477,-7.774580002,5.761318684,2024-06-05 20:47:28.694154
1.734154376,0.8730811477,-7.774580002,5.761318684,2024-06-05 20:47:28.734154
1.774154376,0.8730811477,-7.774580002,5.761318684,2024-06-05 20:47:28.774154
1.814154376,0.8730811477,-7.774580002,5.761318684,2024-06-05 20:47:28.814154
1.854154376,1.207478166,-7.701598644,3.77049017,2024-06-05 20:47:28.854154
1.894154376,1.207478166,-7.701598644,3.77049017,2024-06-05 20:47:28.894154
1.934154376,1.207478166,-7.701598644,3.77049017,2024-06-05 20:47:28.934154
1.974154376,1.207478166,-7.701598644,3.77049017,2024-06-05 20:47:28.974154
2.014154376,1.207478166,-7.701598644,3.77049017,2024-06-05 20:47:29.014154
2.054154376,1.207478166,-7.701598644,3.77049017,2024-06-05 20:47:29.054154
2.094154376,1.207478166,-7.701598644,3.77049017,2024-06-05 20:47:29.094154
2.134154376,1.207478166,-7.701598644,3.77049017,2024-06-05 20:47:29.134154
2.174154376,1.207478166,-7.701598644,3.77049017,2024-06-05 20:47:29.174154
2.214154376,1.207478166,-7.701598644,3.77049017,2024-06-05 20:47:29.214154
2.254154376,1.207478166,-7.701598644,3.77049017,2024-06-05 20:47:29.254154
2.294154376,1.207478166,-7.701598644,3.77049017,2024-06-05 20:47:29.294154
2.334154376,1.207478166,-7.701598644,3.77049017,2024-06-05 20:47:29.334154
2.374154376,1.207478166,-7.701598644,3.77049017,2024-06-05 20:47:29.374154
2.414154376,1.207478166,-7.701598644,3.77049017,2024-06-05 20:47:29.414154
2.454154376,1.207478166,-7.701598644,3.77049017,2024-06-05 20:47:29.454154
2.494154376,1.207478166,-7.701598644,3.77049017,2024-06-05 20:47:29.494154
2.534154376,1.207478166,-7.701598644,3.77049017,2024-06-05 20:47:29.534154
2.574154376,1.207478166,-7.701598644,3.77049017,2024-06-05 20:47:29.574154
2.614154376,1.207478166,-7.701598644,3.77049017,2024-06-05 20:47:29.614154
2.654154376,1.207478166,-7.701598644,3.77049017,2024-06-05 20:47:29.654154
2.694154376,1.207478166,-7.701598644,3.77049017,2024-06-05 20:47:29.694154
2.734154376,1.207478166,-7.701598644,3.77049017,2024-06-05 20:47:29.734154
2.774154376,1.207478166,-7.701598644,3.77049017,2024-06-05 20:47:29.774154
2.814154376,1.207478166,-7.701598644,3.77049017,2024-06-05 20:47:29.814154
2.854154376,1.207478166,-7.701598644,3.77049017,2024-06-05 20:47:29.854154
2.894154376,1.207478166,-7.701598644,3.77049017,2024-06-05 20:47:29.894154
2.934154376,1.207478166,-7.701598644,3.77049017,2024-06-05 20:47:29.934154
2.974154376,-1.122233868,-3.728615999,7.35763073,2024-06-05 20:47:29.974154
3.014154376,-2.779861689,-5.738287926,8.544769287,2024-06-05 20:47:30.014154
3.054154376,-2.081755638,-3.178864956,7.736294746,2024-06-05 20:47:30.054154
3.094154376,-2.081755638,-3.178864956,7.736294746,2024-06-05 20:47:30.094154
3.134154376,-2.081755638,-3.178864956,7.736294746,2024-06-05 20:47:30.134154
3.174154376,-2.081755638,-3.178864956,7.736294746,2024-06-05 20:47:30.174154
3.214154376,-2.081755638,-3.178864956,7.736294746,2024-06-05 20:47:30.214154
3.254154376,-2.081755638,-3.178864956,7.736294746,2024-06-05 20:47:30.254154
3.294154376,-2.081755638,-3.178864956,7.736294746,2024-06-05 20:47:30.294154
3.334154376,-2.081755638,-3.178864956,7.736294746,2024-06-05 20:47:30.334154
3.374154376,-2.081755638,-3.178864956,7.736294746,2024-06-05 20:47:30.374154
3.414154376,-2.081755638,-3.178864956,7.736294746,2024-06-05 20:47:30.414154
3.454154376,-2.081755638,-3.178864956,7.736294746,2024-06-05 20:47:30.454154
3.494154376,-2.081755638,-3.178864956,7.736294746,2024-06-05 20:47:30.494154
3.534154376,-2.081755638,-3.178864956,7.736294746,2024-06-05 20:47:30.534154
3.574154376,-2.081755638,-3.178864956,7.736294746,2024-06-05 20:47:30.574154
3.614154376,-2.081755638,-3.178864956,7.736294746,2024-06-05 20:47:30.614154
3.654154376,-2.081755638,-3.178864956,7.736294746,2024-06-05 20:47:30.654154
3.694154376,-2.081755638,-3.178864956,7.736294746,2024-06-05 20:47:30.694154
3.734154376,-2.081755638,-3.178864956,7.736294746,2024-06-05 20:47:30.734154
3.774154376,-2.081755638,-3.178864956,7.736294746,2024-06-05 20:47:30.774154
3.814154376,-2.081755638,-3.178864956,7.736294746,2024-06-05 20:47:30.814154
3.854154376,-4.038785458,-4.92143774,7.895716667,2024-06-05 20:47:30.854154
3.894154376,-4.038785458,-4.92143774,7.895716667,2024-06-05 20:47:30.894154
3.934154376,-4.038785458,-4.92143774,7.895716667,2024-06-05 20:47:30.934154
3.974154376,-4.038785458,-4.92143774,7.895716667,2024-06-05 20:47:30.974154
4.014154376,-4.038785458,-4.92143774,7.895716667,2024-06-05 20:47:31.014154
4.054154376,-4.038785458,-4.92143774,7.895716667,2024-06-05 20:47:31.054154
4.094154376,-3.345465183,-4.838885784,7.080960274,2024-06-05 20:47:31.094154
4.134154376,-3.345465183,-4.838885784,7.080960274,2024-06-05 20:47:31.134154
4.174154376,-3.345465183,-4.838885784,7.080960274,2024-06-05 20:47:31.174154
4.214154376,-3.345465183,-4.838885784,7.080960274,2024-06-05 20:47:31.214154
4.254154376,-3.345465183,-4.838885784,7.080960274,2024-06-05 20:47:31.254154
4.294154376,-3.345465183,-4.838885784,7.080960274,2024-06-05 20:47:31.294154
4.334154376,-3.345465183,-4.838885784,7.080960274,2024-06-05 20:47:31.334154
4.374154376,-3.345465183,-4.838885784,7.080960274,2024-06-05 20:47:31.374154
4.414154376,-3.345465183,-4.838885784,7.080960274,2024-06-05 20:47:31.414154
4.454154376,-3.345465183,-4.838885784,7.080960274,2024-06-05 20:47:31.454154
4.494154376,-3.345465183,-4.838885784,7.080960274,2024-06-05 20:47:31.494154
4.534154376,-3.345465183,-4.838885784,7.080960274,2024-06-05 20:47:31.534154
4.574154376,-3.345465183,-4.838885784,7.080960274,2024-06-05 20:47:31.574154
4.614154376,-3.345465183,-4.838885784,7.080960274,2024-06-05 20:47:31.614154
4.654154376,-1.631306887,-4.948955536,5.21994257,2024-06-05 20:47:31.654154
4.694154376,-0.5198407173,-5.876173973,4.99352169,2024-06-05 20:47:31.694154
4.734154376,-0.5198407173,-5.876173973,4.99352169,2024-06-05 20:47:31.734154
4.774154376,-0.5198407173,-5.876173973,4.99352169,2024-06-05 20:47:31.774154
4.814154376,-0.5198407173,-5.876173973,4.99352169,2024-06-05 20:47:31.814154
4.854154376,-0.6346961856,-4.86281395,5.100002289,2024-06-05 20:47:31.854154
4.894154376,-0.6346961856,-4.86281395,5.100002289,2024-06-05 20:47:31.894154
4.934154376,-0.6346961856,-4.86281395,5.100002289,2024-06-05 20:47:31.934154
4.974154376,-0.6346961856,-4.86281395,5.100002289,2024-06-05 20:47:31.974154
5.014154376,-0.6346961856,-4.86281395,5.100002289,2024-06-05 20:47:32.014154
5.054154376,-0.6346961856,-4.86281395,5.100002289,2024-06-05 20:47:32.054154
5.094154376,-0.6346961856,-4.86281395,5.100002289,2024-06-05 20:47:32.094154
5.134154376,-0.6346961856,-4.86281395,5.100002289,2024-06-05 20:47:32.134154
5.174154376,-0.6346961856,-4.86281395,5.100002289,2024-06-05 20:47:32.174154
5.214154376,-0.6346961856,-4.86281395,5.100002289,2024-06-05 20:47:32.214154
5.254154376,-0.6346961856,-4.86281395,5.100002289,2024-06-05 20:47:32.254154
5.294154376,-0.6346961856,-4.86281395,5.100002289,2024-06-05 20:47:32.294154
5.334154376,-0.6346961856,-4.86281395,5.100002289,2024-06-05 20:47:32.334154
5.374154376,-0.6346961856,-4.86281395,5.100002289,2024-06-05 20:47:32.374154
5.414154376,-0.6346961856,-4.86281395,5.100002289,2024-06-05 20:47:32.414154
5.454154376,-0.6346961856,-4.86281395,5.100002289,2024-06-05 20:47:32.454154
5.494154376,-0.6346961856,-4.86281395,5.100002289,2024-06-05 20:47:32.494154
5.534154376,-0.6346961856,-4.86281395,5.100002289,2024-06-05 20:47:32.534154
5.574154376,-0.6346961856,-4.86281395,5.100002289,2024-06-05 20:47:32.574154
5.614154376,-0.6346961856,-4.86281395,5.100002289,2024-06-05 20:47:32.614154
5.654154376,-0.6346961856,-4.86281395,5.100002289,2024-06-05 20:47:32.654154
5.694154376,-0.6346961856,-4.86281395,5.100002289,2024-06-05 20:47:32.694154
5.734154376,-0.6346961856,-4.86281395,5.100002289,2024-06-05 20:47:32.734154
5.774154376,-0.6346961856,-4.86281395,5.100002289,2024-06-05 20:47:32.774154
5.814154376,-0.6346961856,-4.86281395,5.100002289,2024-06-05 20:47:32.814154
5.854154376,-0.6346961856,-4.86281395,5.100002289,2024-06-05 20:47:32.854154
5.894154376,-0.6346961856,-4.86281395,5.100002289,2024-06-05 20:47:32.894154
5.934154376,-0.6346961856,-4.86281395,5.100002289,2024-06-05 20:47:32.934154
5.974154376,-0.6346961856,-4.86281395,5.100002289,2024-06-05 20:47:32.974154
6.014154376,-0.6346961856,-4.86281395,5.100002289,2024-06-05 20:47:33.014154
6.054154376,-0.6346961856,-4.86281395,5.100002289,2024-06-05 20:47:33.054154
6.094154376,-1.030110121,-9.263513565,1.758425593,2024-06-05 20:47:33.094154
6.134154376,-1.030110121,-9.263513565,1.758425593,2024-06-05 20:47:33.134154
6.174154376,-1.030110121,-9.263513565,1.758425593,2024-06-05 20:47:33.174154
6.214154376,-1.030110121,-9.263513565,1.758425593,2024-06-05 20:47:33.214154
6.254154376,-1.030110121,-9.263513565,1.758425593,2024-06-05 20:47:33.254154
6.294154376,-1.030110121,-9.263513565,1.758425593,2024-06-05 20:47:33.294154
6.334154376,-6.181558132,-10.1210413,3.067299604,2024-06-05 20:47:33.334154
6.374154376,-4.067499161,-9.774979591,1.176072359,2024-06-05 20:47:33.374154
6.414154376,-4.067499161,-9.774979591,1.176072359,2024-06-05 20:47:33.414154
6.454154376,-4.067499161,-9.774979591,1.176072359,2024-06-05 20:47:33.454154
6.494154376,-4.067499161,-9.774979591,1.176072359,2024-06-05 20:47:33.494154
6.534154376,-4.067499161,-9.774979591,1.176072359,2024-06-05 20:47:33.534154
6.574154376,-4.067499161,-9.774979591,1.176072359,2024-06-05 20:47:33.574154
6.614154376,-4.767100811,-9.386744499,2.529512644,2024-06-05 20:47:33.614154
6.654154376,-4.767100811,-9.386744499,2.529512644,2024-06-05 20:47:33.654154
6.694154376,-4.767100811,-9.386744499,2.529512644,2024-06-05 20:47:33.694154
6.734154376,-4.767100811,-9.386744499,2.529512644,2024-06-05 20:47:33.734154
6.774154376,-4.767100811,-9.386744499,2.529512644,2024-06-05 20:47:33.774154
6.814154376,-4.767100811,-9.386744499,2.529512644,2024-06-05 20:47:33.814154
6.854154376,-6.400800705,-7.600800991,2.158325911,2024-06-05 20:47:33.854154
6.894154376,-6.400800705,-7.600800991,2.158325911,2024-06-05 20:47:33.894154
6.934154376,-6.400800705,-7.600800991,2.158325911,2024-06-05 20:47:33.934154
6.974154376,-6.400800705,-7.600800991,2.158325911,2024-06-05 20:47:33.974154
7.014154376,-6.400800705,-7.600800991,2.158325911,2024-06-05 20:47:34.014154
7.054154376,-6.400800705,-7.600800991,2.158325911,2024-06-05 20:47:34.054154
7.094154376,-6.354140759,-6.028417587,1.583450437,2024-06-05 20:47:34.094154
7.134154376,-6.354140759,-6.028417587,1.583450437,2024-06-05 20:47:34.134154
7.174154376,-6.354140759,-6.028417587,1.583450437,2024-06-05 20:47:34.174154
7.214154376,-6.354140759,-6.028417587,1.583450437,2024-06-05 20:47:34.214154
7.254154376,-6.354140759,-6.028417587,1.583450437,2024-06-05 20:47:34.254154
7.294154376,-6.354140759,-6.028417587,1.583450437,2024-06-05 20:47:34.294154
7.334154376,-6.354140759,-6.028417587,1.583450437,2024-06-05 20:47:34.334154
7.374154376,-6.354140759,-6.028417587,1.583450437,2024-06-05 20:47:34.374154
7.414154376,-6.354140759,-6.028417587,1.583450437,2024-06-05 20:47:34.414154
7.454154376,-6.354140759,-6.028417587,1.583450437,2024-06-05 20:47:34.454154
7.494154376,-6.354140759,-6.028417587,1.583450437,2024-06-05 20:47:34.494154
7.534154376,-6.354140759,-6.028417587,1.583450437,2024-06-05 20:47:34.534154
7.574154376,-6.354140759,-6.028417587,1.583450437,2024-06-05 20:47:34.574154
7.614154376,-6.354140759,-6.028417587,1.583450437,2024-06-05 20:47:34.614154
7.654154376,-6.354140759,-6.028417587,1.583450437,2024-06-05 20:47:34.654154
7.694154376,-6.354140759,-6.028417587,1.583450437,2024-06-05 20:47:34.694154
7.734154376,-6.354140759,-6.028417587,1.583450437,2024-06-05 20:47:34.734154
7.774154376,-6.354140759,-6.028417587,1.583450437,2024-06-05 20:47:34.774154
7.814154376,-6.354140759,-6.028417587,1.583450437,2024-06-05 20:47:34.814154
7.854154376,-6.354140759,-6.028417587,1.583450437,2024-06-05 20:47:34.854154
7.894154376,-6.354140759,-6.028417587,1.583450437,2024-06-05 20:47:34.894154
7.934154376,-6.354140759,-6.028417587,1.583450437,2024-06-05 20:47:34.934154
7.974154376,-2.603989124,-10.4718895,-0.3879363835,2024-06-05 20:47:34.974154
8.014154376,-5.623432159,-11.68175983,3.268595695,2024-06-05 20:47:35.014154
8.054154376,-1.632503271,-11.63839054,0.7630113363,2024-06-05 20:47:35.054154
8.094154376,0.6972087026,-9.399904251,1.407278776,2024-06-05 20:47:35.094154
8.134154376,0.6972087026,-9.399904251,1.407278776,2024-06-05 20:47:35.134154
8.174154376,0.6972087026,-9.399904251,1.407278776,2024-06-05 20:47:35.174154
8.214154376,0.6972087026,-9.399904251,1.407278776,2024-06-05 20:47:35.214154
8.254154376,0.6972087026,-9.399904251,1.407278776,2024-06-05 20:47:35.254154
8.294154376,0.6972087026,-9.399904251,1.407278776,2024-06-05 20:47:35.294154
8.334154376,0.6972087026,-9.399904251,1.407278776,2024-06-05 20:47:35.334154
8.374154376,0.6972087026,-9.399904251,1.407278776,2024-06-05 20:47:35.374154
8.414154376,0.6972087026,-9.399904251,1.407278776,2024-06-05 20:47:35.414154
8.454154376,0.6972087026,-9.399904251,1.407278776,2024-06-05 20:47:35.454154
8.494154376,0.6972087026,-9.399904251,1.407278776,2024-06-05 20:47:35.494154
8.534154376,0.6972087026,-9.399904251,1.407278776,2024-06-05 20:47:35.534154
8.574154376,0.6972087026,-9.399904251,1.407278776,2024-06-05 20:47:35.574154
8.614154376,0.6972087026,-9.399904251,1.407278776,2024-06-05 20:47:35.614154
8.654154376,0.6972087026,-9.399904251,1.407278776,2024-06-05 20:47:35.654154
8.694154376,0.6972087026,-9.399904251,1.407278776,2024-06-05 20:47:35.694154
8.734154376,0.6972087026,-9.399904251,1.407278776,2024-06-05 20:47:35.734154
8.774154376,0.6972087026,-9.399904251,1.407278776,2024-06-05 20:47:35.774154
8.814154376,0.6972087026,-9.399904251,1.407278776,2024-06-05 20:47:35.814154
8.854154376,-3.925126553,-5.240281582,1.955833435,2024-06-05 20:47:35.854154
8.894154376,-3.925126553,-5.240281582,1.955833435,2024-06-05 20:47:35.894154
8.934154376,-3.925126553,-5.240281582,1.955833435,2024-06-05 20:47:35.934154
8.974154376,-3.925126553,-5.240281582,1.955833435,2024-06-05 20:47:35.974154
9.014154376,-3.925126553,-5.240281582,1.955833435,2024-06-05 20:47:36.014154
9.054154376,-3.925126553,-5.240281582,1.955833435,2024-06-05 20:47:36.054154
9.094154376,-5.239085197,-7.263113976,0.6466603279,2024-06-05 20:47:36.094154
9.134154376,-5.239085197,-7.263113976,0.6466603279,2024-06-05 20:47:36.134154
9.174154376,-5.239085197,-7.263113976,0.6466603279,2024-06-05 20:47:36.174154
9.214154376,-5.239085197,-7.263113976,0.6466603279,2024-06-05 20:47:36.214154
9.254154376,-5.239085197,-7.263113976,0.6466603279,2024-06-05 20:47:36.254154
9.294154376,-5.239085197,-7.263113976,0.6466603279,2024-06-05 20:47:36.294154
9.334154376,-5.239085197,-7.263113976,0.6466603279,2024-06-05 20:47:36.334154
9.374154376,-5.239085197,-7.263113976,0.6466603279,2024-06-05 20:47:36.374154
9.414154376,-5.239085197,-7.263113976,0.6466603279,2024-06-05 20:47:36.414154
9.454154376,-5.239085197,-7.263113976,0.6466603279,2024-06-05 20:47:36.454154
9.494154376,-5.239085197,-7.263113976,0.6466603279,2024-06-05 20:47:36.494154
9.534154376,-5.239085197,-7.263113976,0.6466603279,2024-06-05 20:47:36.534154
9.574154376,-5.239085197,-7.263113976,0.6466603279,2024-06-05 20:47:36.574154
9.614154376,-5.239085197,-7.263113976,0.6466603279,2024-06-05 20:47:36.614154
9.654154376,-4.908277512,-10.31037331,1.849352837,2024-06-05 20:47:36.654154
9.694154376,-5.648557186,-9.279067039,1.174875975,2024-06-05 20:47:36.694154
9.734154376,-4.962415218,-8.950652122,-0.04067798331,2024-06-05 20:47:36.734154
9.774154376,-4.962415218,-8.950652122,-0.04067798331,2024-06-05 20:47:36.774154
9.814154376,-4.962415218,-8.950652122,-0.04067798331,2024-06-05 20:47:36.814154
9.854154376,-6.940980434,-8.859724998,0.4444667995,2024-06-05 20:47:36.854154
9.894154376,-6.940980434,-8.859724998,0.4444667995,2024-06-05 20:47:36.894154
9.934154376,-6.940980434,-8.859724998,0.4444667995,2024-06-05 20:47:36.934154
9.974154376,-6.940980434,-8.859724998,0.4444667995,2024-06-05 20:47:36.974154
10.01415438,-6.940980434,-8.859724998,0.4444667995,2024-06-05 20:47:37.014154
10.05415438,-6.940980434,-8.859724998,0.4444667995,2024-06-05 20:47:37.054154
10.09415438,-4.19581461,-4.847260475,0.7067800164,2024-06-05 20:47:37.094154
10.13415438,-4.19581461,-4.847260475,0.7067800164,2024-06-05 20:47:37.134154
10.17415438,-4.19581461,-4.847260475,0.7067800164,2024-06-05 20:47:37.174154
10.21415438,-4.19581461,-4.847260475,0.7067800164,2024-06-05 20:47:37.214154
10.25415438,-4.19581461,-4.847260475,0.7067800164,2024-06-05 20:47:37.254154
10.29415438,-4.19581461,-4.847260475,0.7067800164,2024-06-05 20:47:37.294154
10.33415438,-4.19581461,-4.847260475,0.7067800164,2024-06-05 20:47:37.334154
10.37415438,-4.19581461,-4.847260475,0.7067800164,2024-06-05 20:47:37.374154
10.41415438,-4.19581461,-4.847260475,0.7067800164,2024-06-05 20:47:37.414154
10.45415438,-4.19581461,-4.847260475,0.7067800164,2024-06-05 20:47:37.454154
10.49415438,-4.19581461,-4.847260475,0.7067800164,2024-06-05 20:47:37.494154
10.53415438,-4.19581461,-4.847260475,0.7067800164,2024-06-05 20:47:37.534154
10.57415438,-4.19581461,-4.847260475,0.7067800164,2024-06-05 20:47:37.574154
10.61415438,-4.19581461,-4.847260475,0.7067800164,2024-06-05 20:47:37.614154
10.65415438,-4.19581461,-4.847260475,0.7067800164,2024-06-05 20:47:37.654154
10.69415438,-4.19581461,-4.847260475,0.7067800164,2024-06-05 20:47:37.694154
10.73415438,-4.19581461,-4.847260475,0.7067800164,2024-06-05 20:47:37.734154
10.77415438,-4.19581461,-4.847260475,0.7067800164,2024-06-05 20:47:37.774154
10.81415438,-4.19581461,-4.847260475,0.7067800164,2024-06-05 20:47:37.814154
10.85415438,-4.19581461,-4.847260475,0.7067800164,2024-06-05 20:47:37.854154
10.89415438,-4.19581461,-4.847260475,0.7067800164,2024-06-05 20:47:37.894154
10.93415438,-4.19581461,-4.847260475,0.7067800164,2024-06-05 20:47:37.934154
10.97415438,-4.19581461,-4.847260475,0.7067800164,2024-06-05 20:47:37.974154
11.01415438,-4.19581461,-4.847260475,0.7067800164,2024-06-05 20:47:38.014154
11.05415438,-4.19581461,-4.847260475,0.7067800164,2024-06-05 20:47:38.054154
11.09415438,-6.236593246,-8.761619568,0.8240283132,2024-06-05 20:47:38.094154
11.13415438,-6.236593246,-8.761619568,0.8240283132,2024-06-05 20:47:38.134154
11.17415438,-6.236593246,-8.761619568,0.8240283132,2024-06-05 20:47:38.174154
11.21415438,-6.236593246,-8.761619568,0.8240283132,2024-06-05 20:47:38.214154
11.25415438,-6.236593246,-8.761619568,0.8240283132,2024-06-05 20:47:38.254154
11.29415438,-6.236593246,-8.761619568,0.8240283132,2024-06-05 20:47:38.294154
11.33415438,-1.499701619,-3.355036497,0.9786644578,2024-06-05 20:47:38.334154
11.37415438,-3.863810301,-3.390928745,1.355833173,2024-06-05 20:47:38.374154
11.41415438,-4.350151539,-3.024228811,1.190429211,2024-06-05 20:47:38.414154
11.45415438,-3.669991732,-3.491427422,0.6852445602,2024-06-05 20:47:38.454154
11.49415438,-3.669991732,-3.491427422,0.6852445602,2024-06-05 20:47:38.494154
11.53415438,-3.669991732,-3.491427422,0.6852445602,2024-06-05 20:47:38.534154
11.57415438,-3.669991732,-3.491427422,0.6852445602,2024-06-05 20:47:38.574154
11.61415438,-6.979265213,-7.462017536,1.386939883,2024-06-05 20:47:38.614154
11.65415438,-6.979265213,-7.462017536,1.386939883,2024-06-05 20:47:38.654154
11.69415438,-6.979265213,-7.462017536,1.386939883,2024-06-05 20:47:38.694154
11.73415438,-6.979265213,-7.462017536,1.386939883,2024-06-05 20:47:38.734154
11.77415438,-6.979265213,-7.462017536,1.386939883,2024-06-05 20:47:38.774154
11.81415438,-6.979265213,-7.462017536,1.386939883,2024-06-05 20:47:38.814154
11.85415438,-5.150251865,-10.22273636,0.6191428304,2024-06-05 20:47:38.854154
11.89415438,-5.150251865,-10.22273636,0.6191428304,2024-06-05 20:47:38.894154
11.93415438,-5.150251865,-10.22273636,0.6191428304,2024-06-05 20:47:38.934154
11.97415438,-5.150251865,-10.22273636,0.6191428304,2024-06-05 20:47:38.974154
12.01415438,-5.150251865,-10.22273636,0.6191428304,2024-06-05 20:47:39.014154
12.05415438,-5.150251865,-10.22273636,0.6191428304,2024-06-05 20:47:39.054154
12.09415438,-6.671488762,-9.863513947,-0.4683950245,2024-06-05 20:47:39.094154
12.13415438,-6.671488762,-9.863513947,-0.4683950245,2024-06-05 20:47:39.134154
12.17415438,-6.671488762,-9.863513947,-0.4683950245,2024-06-05 20:47:39.174154
12.21415438,-6.671488762,-9.863513947,-0.4683950245,2024-06-05 20:47:39.214154
12.25415438,-6.671488762,-9.863513947,-0.4683950245,2024-06-05 20:47:39.254154
12.29415438,-6.671488762,-9.863513947,-0.4683950245,2024-06-05 20:47:39.294154
12.33415438,-6.671488762,-9.863513947,-0.4683950245,2024-06-05 20:47:39.334154
12.37415438,-6.671488762,-9.863513947,-0.4683950245,2024-06-05 20:47:39.374154
12.41415438,-6.671488762,-9.863513947,-0.4683950245,2024-06-05 20:47:39.414154
12.45415438,-6.671488762,-9.863513947,-0.4683950245,2024-06-05 20:47:39.454154
12.49415438,-6.671488762,-9.863513947,-0.4683950245,2024-06-05 20:47:39.494154
12.53415438,-6.671488762,-9.863513947,-0.4683950245,2024-06-05 20:47:39.534154
12.57415438,-6.671488762,-9.863513947,-0.4683950245,2024-06-05 20:47:39.574154
12.61415438,-6.671488762,-9.863513947,-0.4683950245,2024-06-05 20:47:39.614154
12.65415438,-6.671488762,-9.863513947,-0.4683950245,2024-06-05 20:47:39.654154
12.69415438,-6.671488762,-9.863513947,-0.4683950245,2024-06-05 20:47:39.694154
12.73415438,-6.671488762,-9.863513947,-0.4683950245,2024-06-05 20:47:39.734154
12.77415438,-6.671488762,-9.863513947,-0.4683950245,2024-06-05 20:47:39.774154
12.81415438,-6.671488762,-9.863513947,-0.4683950245,2024-06-05 20:47:39.814154
12.85415438,-6.671488762,-9.863513947,-0.4683950245,2024-06-05 20:47:39.854154
12.89415438,-6.671488762,-9.863513947,-0.4683950245,2024-06-05 20:47:39.894154
12.93415438,-6.671488762,-9.863513947,-0.4683950245,2024-06-05 20:47:39.934154
12.97415438,-6.671488762,-9.863513947,-0.4683950245,2024-06-05 20:47:39.974154
13.01415438,-2.236092806,-8.69192791,2.350050926,2024-06-05 20:47:40.014154
13.05415438,-2.530709028,-8.184350967,0.7833502889,2024-06-05 20:47:40.054154
13.09415438,-6.274878502,-9.620343208,0.5772684813,2024-06-05 20:47:40.094154
13.13415438,-6.274878502,-9.620343208,0.5772684813,2024-06-05 20:47:40.134154
13.17415438,-6.274878502,-9.620343208,0.5772684813,2024-06-05 20:47:40.174154
13.21415438,-6.274878502,-9.620343208,0.5772684813,2024-06-05 20:47:40.214154
13.25415438,-6.274878502,-9.620343208,0.5772684813,2024-06-05 20:47:40.254154
13.29415438,-6.274878502,-9.620343208,0.5772684813,2024-06-05 20:47:40.294154
13.33415438,-6.274878502,-9.620343208,0.5772684813,2024-06-05 20:47:40.334154
13.37415438,-6.274878502,-9.620343208,0.5772684813,2024-06-05 20:47:40.374154
13.41415438,-6.274878502,-9.620343208,0.5772684813,2024-06-05 20:47:40.414154
13.45415438,-6.274878502,-9.620343208,0.5772684813,2024-06-05 20:47:40.454154
13.49415438,-6.274878502,-9.620343208,0.5772684813,2024-06-05 20:47:40.494154
13.53415438,-6.274878502,-9.620343208,0.5772684813,2024-06-05 20:47:40.534154
13.57415438,-6.274878502,-9.620343208,0.5772684813,2024-06-05 20:47:40.574154
13.61415438,-6.274878502,-9.620343208,0.5772684813,2024-06-05 20:47:40.614154
13.65415438,-6.274878502,-9.620343208,0.5772684813,2024-06-05 20:47:40.654154
13.69415438,-6.274878502,-9.620343208,0.5772684813,2024-06-05 20:47:40.694154
13.73415438,-6.274878502,-9.620343208,0.5772684813,2024-06-05 20:47:40.734154
13.77415438,-6.274878502,-9.620343208,0.5772684813,2024-06-05 20:47:40.774154
13.81415438,-6.274878502,-9.620343208,0.5772684813,2024-06-05 20:47:40.814154
13.85415438,-5.970690727,-9.486045837,0.8156534433,2024-06-05 20:47:40.854154
13.89415438,-5.970690727,-9.486045837,0.8156534433,2024-06-05 20:47:40.894154
13.93415438,-5.970690727,-9.486045837,0.8156534433,2024-06-05 20:47:40.934154
13.97415438,-5.970690727,-9.486045837,0.8156534433,2024-06-05 20:47:40.974154
14.01415438,-5.970690727,-9.486045837,0.8156534433,2024-06-05 20:47:41.014154
14.05415438,-5.970690727,-9.486045837,0.8156534433,2024-06-05 20:47:41.054154
14.09415438,-9.695717812,-10.57747269,0.01794617064,2024-06-05 20:47:41.094154
14.13415438,-9.695717812,-10.57747269,0.01794617064,2024-06-05 20:47:41.134154
14.17415438,-9.695717812,-10.57747269,0.01794617064,2024-06-05 20:47:41.174154
14.21415438,-9.695717812,-10.57747269,0.01794617064,2024-06-05 20:47:41.214154
14.25415438,-9.695717812,-10.57747269,0.01794617064,2024-06-05 20:47:41.254154
14.29415438,-9.695717812,-10.57747269,0.01794617064,2024-06-05 20:47:41.294154
14.33415438,-9.695717812,-10.57747269,0.01794617064,2024-06-05 20:47:41.334154
14.37415438,-9.695717812,-10.57747269,0.01794617064,2024-06-05 20:47:41.374154
14.41415438,-9.695717812,-10.57747269,0.01794617064,2024-06-05 20:47:41.414154
14.45415438,-9.695717812,-10.57747269,0.01794617064,2024-06-05 20:47:41.454154
14.49415438,-9.695717812,-10.57747269,0.01794617064,2024-06-05 20:47:41.494154
14.53415438,-9.695717812,-10.57747269,0.01794617064,2024-06-05 20:47:41.534154
14.57415438,-9.695717812,-10.57747269,0.01794617064,2024-06-05 20:47:41.574154
14.61415438,-9.695717812,-10.57747269,0.01794617064,2024-06-05 20:47:41.614154
14.65415438,-9.695717812,-10.57747269,0.01794617064,2024-06-05 20:47:41.654154
14.69415438,-12.18604755,-12.25902843,-1.426421404,2024-06-05 20:47:41.694154
14.73415438,-6.531209469,-6.546762943,-2.879462957,2024-06-05 20:47:41.734154
14.77415438,-2.806182861,-9.683753014,-1.685145378,2024-06-05 20:47:41.774154
14.81415438,-2.806182861,-9.683753014,-1.685145378,2024-06-05 20:47:41.814154
14.85415438,-8.685946465,-6.028417587,-0.9918249846,2024-06-05 20:47:41.854154
14.89415438,-8.685946465,-6.028417587,-0.9918249846,2024-06-05 20:47:41.894154
14.93415438,-8.685946465,-6.028417587,-0.9918249846,2024-06-05 20:47:41.934154
14.97415438,-8.685946465,-6.028417587,-0.9918249846,2024-06-05 20:47:41.974154
15.01415438,-8.685946465,-6.028417587,-0.9918249846,2024-06-05 20:47:42.014154
15.05415438,-8.685946465,-6.028417587,-0.9918249846,2024-06-05 20:47:42.054154
15.09415438,-15.97687721,-15.73968792,1.294816136,2024-06-05 20:47:42.094154
15.13415438,-15.97687721,-15.73968792,1.294816136,2024-06-05 20:47:42.134154
15.17415438,-15.97687721,-15.73968792,1.294816136,2024-06-05 20:47:42.174154
15.21415438,-15.97687721,-15.73968792,1.294816136,2024-06-05 20:47:42.214154
15.25415438,-15.97687721,-15.73968792,1.294816136,2024-06-05 20:47:42.254154
15.29415438,-15.97687721,-15.73968792,1.294816136,2024-06-05 20:47:42.294154
15.33415438,-15.97687721,-15.73968792,1.294816136,2024-06-05 20:47:42.334154
15.37415438,-15.97687721,-15.73968792,1.294816136,2024-06-05 20:47:42.374154
15.41415438,-15.97687721,-15.73968792,1.294816136,2024-06-05 20:47:42.414154
15.45415438,-15.97687721,-15.73968792,1.294816136,2024-06-05 20:47:42.454154
15.49415438,-15.97687721,-15.73968792,1.294816136,2024-06-05 20:47:42.494154
15.53415438,-15.97687721,-15.73968792,1.294816136,2024-06-05 20:47:42.534154
15.57415438,-15.97687721,-15.73968792,1.294816136,2024-06-05 20:47:42.574154
15.61415438,-15.97687721,-15.73968792,1.294816136,2024-06-05 20:47:42.614154
15.65415438,-15.97687721,-15.73968792,1.294816136,2024-06-05 20:47:42.654154
15.69415438,-15.97687721,-15.73968792,1.294816136,2024-06-05 20:47:42.694154
15.73415438,-15.97687721,-15.73968792,1.294816136,2024-06-05 20:47:42.734154
15.77415438,-15.97687721,-15.73968792,1.294816136,2024-06-05 20:47:42.774154
15.81415438,-15.97687721,-15.73968792,1.294816136,2024-06-05 20:47:42.814154
15.85415438,-12.69362545,-10.09830952,-0.03589234129,2024-06-05 20:47:42.854154
15.89415438,-12.69362545,-10.09830952,-0.03589234129,2024-06-05 20:47:42.894154
15.93415438,-12.69362545,-10.09830952,-0.03589234129,2024-06-05 20:47:42.934154
15.97415438,-12.69362545,-10.09830952,-0.03589234129,2024-06-05 20:47:42.974154
16.01415438,-12.69362545,-10.09830952,-0.03589234129,2024-06-05 20:47:43.014154
16.05415438,-12.69362545,-10.09830952,-0.03589234129,2024-06-05 20:47:43.054154
16.09415438,-12.69362545,-10.09830952,-0.03589234129,2024-06-05 20:47:43.094154
16.13415438,-12.69362545,-10.09830952,-0.03589234129,2024-06-05 20:47:43.134154
16.17415438,-12.69362545,-10.09830952,-0.03589234129,2024-06-05 20:47:43.174154
16.21415438,-12.69362545,-10.09830952,-0.03589234129,2024-06-05 20:47:43.214154
16.25415438,-12.69362545,-10.09830952,-0.03589234129,2024-06-05 20:47:43.254154
16.29415438,-12.69362545,-10.09830952,-0.03589234129,2024-06-05 20:47:43.294154
16.33415438,-12.69362545,-10.09830952,-0.03589234129,2024-06-05 20:47:43.334154
16.37415438,-12.01705456,-10.22632599,-2.239681959,2024-06-05 20:47:43.374154
16.41415438,-9.374779701,-9.221340179,-1.268495083,2024-06-05 20:47:43.414154
16.45415438,-7.243971348,-9.726823807,0.1292124242,2024-06-05 20:47:43.454154
16.49415438,-7.243971348,-9.726823807,0.1292124242,2024-06-05 20:47:43.494154
16.53415438,-7.243971348,-9.726823807,0.1292124242,2024-06-05 20:47:43.534154
16.57415438,-7.243971348,-9.726823807,0.1292124242,2024-06-05 20:47:43.574154
16.61415438,-7.9782691,-8.078767776,-1.840977907,2024-06-05 20:47:43.614154
16.65415438,-7.9782691,-8.078767776,-1.840977907,2024-06-05 20:47:43.654154
16.69415438,-7.9782691,-8.078767776,-1.840977907,2024-06-05 20:47:43.694154
16.73415438,-7.9782691,-8.078767776,-1.840977907,2024-06-05 20:47:43.734154
16.77415438,-7.9782691,-8.078767776,-1.840977907,2024-06-05 20:47:43.774154
16.81415438,-7.9782691,-8.078767776,-1.840977907,2024-06-05 20:47:43.814154
16.85415438,-1.73898387,-1.315155149,1.039681435,2024-06-05 20:47:43.854154
16.89415438,-1.73898387,-1.315155149,1.039681435,2024-06-05 20:47:43.894154
16.93415438,-1.73898387,-1.315155149,1.039681435,2024-06-05 20:47:43.934154
16.97415438,-1.73898387,-1.315155149,1.039681435,2024-06-05 20:47:43.974154
17.01415438,-1.73898387,-1.315155149,1.039681435,2024-06-05 20:47:44.014154
17.05415438,-1.73898387,-1.315155149,1.039681435,2024-06-05 20:47:44.054154
17.09415438,-9.862318039,-14.84477234,-3.850649834,2024-06-05 20:47:44.094154
17.13415438,-9.862318039,-14.84477234,-3.850649834,2024-06-05 20:47:44.134154
17.17415438,-9.862318039,-14.84477234,-3.850649834,2024-06-05 20:47:44.174154
17.21415438,-9.862318039,-14.84477234,-3.850649834,2024-06-05 20:47:44.214154
17.25415438,-9.862318039,-14.84477234,-3.850649834,2024-06-05 20:47:44.254154
17.29415438,-9.862318039,-14.84477234,-3.850649834,2024-06-05 20:47:44.294154
17.33415438,-9.862318039,-14.84477234,-3.850649834,2024-06-05 20:47:44.334154
17.37415438,-9.862318039,-14.84477234,-3.850649834,2024-06-05 20:47:44.374154
17.41415438,-9.862318039,-14.84477234,-3.850649834,2024-06-05 20:47:44.414154
17.45415438,-9.862318039,-14.84477234,-3.850649834,2024-06-05 20:47:44.454154
17.49415438,-9.862318039,-14.84477234,-3.850649834,2024-06-05 20:47:44.494154
17.53415438,-9.862318039,-14.84477234,-3.850649834,2024-06-05 20:47:44.534154
17.57415438,-9.862318039,-14.84477234,-3.850649834,2024-06-05 20:47:44.574154
17.61415438,-9.862318039,-14.84477234,-3.850649834,2024-06-05 20:47:44.614154
17.65415438,-9.862318039,-14.84477234,-3.850649834,2024-06-05 20:47:44.654154
17.69415438,-9.862318039,-14.84477234,-3.850649834,2024-06-05 20:47:44.694154
17.73415438,-9.862318039,-14.84477234,-3.850649834,2024-06-05 20:47:44.734154
17.77415438,-9.862318039,-14.84477234,-3.850649834,2024-06-05 20:47:44.774154
17.81415438,-9.862318039,-14.84477234,-3.850649834,2024-06-05 20:47:44.814154
17.85415438,-9.862318039,-14.84477234,-3.850649834,2024-06-05 20:47:44.854154
17.89415438,-9.862318039,-14.84477234,-3.850649834,2024-06-05 20:47:44.894154
17.93415438,-9.862318039,-14.84477234,-3.850649834,2024-06-05 20:47:44.934154
17.97415438,-9.862318039,-14.84477234,-3.850649834,2024-06-05 20:47:44.974154
18.01415438,-9.862318039,-14.84477234,-3.850649834,2024-06-05 20:47:45.014154
18.05415438,-10.05882835,-10.3028965,-0.861117065,2024-06-05 20:47:45.054154
18.09415438,-9.320941925,-9.017950058,-0.9245268703,2024-06-05 20:47:45.094154
18.13415438,-8.825029373,-8.850153923,0.3568296731,2024-06-05 20:47:45.134154
18.17415438,-8.825029373,-8.850153923,0.3568296731,2024-06-05 20:47:45.174154
18.21415438,-8.825029373,-8.850153923,0.3568296731,2024-06-05 20:47:45.214154
18.25415438,-8.825029373,-8.850153923,0.3568296731,2024-06-05 20:47:45.254154
18.29415438,-8.825029373,-8.850153923,0.3568296731,2024-06-05 20:47:45.294154
18.33415438,-8.825029373,-8.850153923,0.3568296731,2024-06-05 20:47:45.334154
18.37415438,-8.825029373,-8.850153923,0.3568296731,2024-06-05 20:47:45.374154
18.41415438,-8.825029373,-8.850153923,0.3568296731,2024-06-05 20:47:45.414154
18.45415438,-8.825029373,-8.850153923,0.3568296731,2024-06-05 20:47:45.454154
18.49415438,-8.825029373,-8.850153923,0.3568296731,2024-06-05 20:47:45.494154
18.53415438,-8.825029373,-8.850153923,0.3568296731,2024-06-05 20:47:45.534154
18.57415438,-8.825029373,-8.850153923,0.3568296731,2024-06-05 20:47:45.574154
18.61415438,-8.825029373,-8.850153923,0.3568296731,2024-06-05 20:47:45.614154
18.65415438,-8.825029373,-8.850153923,0.3568296731,2024-06-05 20:47:45.654154
18.69415438,-8.825029373,-8.850153923,0.3568296731,2024-06-05 20:47:45.694154
18.73415438,-8.825029373,-8.850153923,0.3568296731,2024-06-05 20:47:45.734154
18.77415438,-8.825029373,-8.850153923,0.3568296731,2024-06-05 20:47:45.774154
18.81415438,-8.825029373,-8.850153923,0.3568296731,2024-06-05 20:47:45.814154
18.85415438,-9.499206543,-9.914959908,-1.759621978,2024-06-05 20:47:45.854154
18.89415438,-9.499206543,-9.914959908,-1.759621978,2024-06-05 20:47:45.894154
18.93415438,-9.499206543,-9.914959908,-1.759621978,2024-06-05 20:47:45.934154
18.97415438,-9.499206543,-9.914959908,-1.759621978,2024-06-05 20:47:45.974154
19.01415438,-9.499206543,-9.914959908,-1.759621978,2024-06-05 20:47:46.014154
19.05415438,-9.499206543,-9.914959908,-1.759621978,2024-06-05 20:47:46.054154
19.09415438,-10.60618591,-9.928120613,-4.673481941,2024-06-05 20:47:46.094154
19.13415438,-10.60618591,-9.928120613,-4.673481941,2024-06-05 20:47:46.134154
19.17415438,-10.60618591,-9.928120613,-4.673481941,2024-06-05 20:47:46.174154
19.21415438,-10.60618591,-9.928120613,-4.673481941,2024-06-05 20:47:46.214154
19.25415438,-10.60618591,-9.928120613,-4.673481941,2024-06-05 20:47:46.254154
19.29415438,-10.60618591,-9.928120613,-4.673481941,2024-06-05 20:47:46.294154
19.33415438,-10.60618591,-9.928120613,-4.673481941,2024-06-05 20:47:46.334154
19.37415438,-10.60618591,-9.928120613,-4.673481941,2024-06-05 20:47:46.374154
19.41415438,-10.60618591,-9.928120613,-4.673481941,2024-06-05 20:47:46.414154
19.45415438,-10.60618591,-9.928120613,-4.673481941,2024-06-05 20:47:46.454154
19.49415438,-10.60618591,-9.928120613,-4.673481941,2024-06-05 20:47:46.494154
19.53415438,-10.60618591,-9.928120613,-4.673481941,2024-06-05 20:47:46.534154
19.57415438,-10.60618591,-9.928120613,-4.673481941,2024-06-05 20:47:46.574154
19.61415438,-10.60618591,-9.928120613,-4.673481941,2024-06-05 20:47:46.614154
19.65415438,-10.60618591,-9.928120613,-4.673481941,2024-06-05 20:47:46.654154
19.69415438,-10.60618591,-9.928120613,-4.673481941,2024-06-05 20:47:46.694154
19.73415438,-7.340880871,-8.023732185,-0.3448655605,2024-06-05 20:47:46.734154
19.77415438,-4.947759151,-9.888638496,-1.156929731,2024-06-05 20:47:46.774154
19.81415438,-6.477370739,-9.447761536,-2.261217356,2024-06-05 20:47:46.814154
19.85415438,-11.14636612,-9.904191971,-1.746461391,2024-06-05 20:47:46.854154
19.89415438,-11.14636612,-9.904191971,-1.746461391,2024-06-05 20:47:46.894154
19.93415438,-11.14636612,-9.904191971,-1.746461391,2024-06-05 20:47:46.934154
19.97415438,-11.14636612,-9.904191971,-1.746461391,2024-06-05 20:47:46.974154
20.01415438,-11.14636612,-9.904191971,-1.746461391,2024-06-05 20:47:47.014154
20.05415438,-11.14636612,-9.904191971,-1.746461391,2024-06-05 20:47:47.054154
20.09415438,-11.14636612,-9.904191971,-1.746461391,2024-06-05 20:47:47.094154
20.13415438,-11.14636612,-9.904191971,-1.746461391,2024-06-05 20:47:47.134154
20.17415438,-11.14636612,-9.904191971,-1.746461391,2024-06-05 20:47:47.174154
20.21415438,-11.14636612,-9.904191971,-1.746461391,2024-06-05 20:47:47.214154
20.25415438,-11.14636612,-9.904191971,-1.746461391,2024-06-05 20:47:47.254154
20.29415438,-11.14636612,-9.904191971,-1.746461391,2024-06-05 20:47:47.294154
20.33415438,-11.14636612,-9.904191971,-1.746461391,2024-06-05 20:47:47.334154
20.37415438,-11.14636612,-9.904191971,-1.746461391,2024-06-05 20:47:47.374154
20.41415438,-11.14636612,-9.904191971,-1.746461391,2024-06-05 20:47:47.414154
20.45415438,-11.14636612,-9.904191971,-1.746461391,2024-06-05 20:47:47.454154
20.49415438,-11.14636612,-9.904191971,-1.746461391,2024-06-05 20:47:47.494154
20.53415438,-11.14636612,-9.904191971,-1.746461391,2024-06-05 20:47:47.534154
20.57415438,-11.14636612,-9.904191971,-1.746461391,2024-06-05 20:47:47.574154
20.61415438,-11.14636612,-9.904191971,-1.746461391,2024-06-05 20:47:47.614154
20.65415438,-11.14636612,-9.904191971,-1.746461391,2024-06-05 20:47:47.654154
20.69415438,-11.14636612,-9.904191971,-1.746461391,2024-06-05 20:47:47.694154
20.73415438,-11.14636612,-9.904191971,-1.746461391,2024-06-05 20:47:47.734154
20.77415438,-11.14636612,-9.904191971,-1.746461391,2024-06-05 20:47:47.774154
20.81415438,-11.14636612,-9.904191971,-1.746461391,2024-06-05 20:47:47.814154
20.85415438,-0.6526423693,-0.2455634177,-0.6311069727,2024-06-05 20:47:47.854154
20.89415438,-0.6526423693,-0.2455634177,-0.6311069727,2024-06-05 20:47:47.894154
20.93415438,-0.6526423693,-0.2455634177,-0.6311069727,2024-06-05 20:47:47.934154
20.97415438,-0.6526423693,-0.2455634177,-0.6311069727,2024-06-05 20:47:47.974154
21.01415438,-0.6526423693,-0.2455634177,-0.6311069727,2024-06-05 20:47:48.014154
21.05415438,-0.6526423693,-0.2455634177,-0.6311069727,2024-06-05 20:47:48.054154
21.09415438,-10.03460121,-16.02951813,-2.350050926,2024-06-05 20:47:48.094154
21.13415438,-10.03460121,-16.02951813,-2.350050926,2024-06-05 20:47:48.134154
21.17415438,-10.03460121,-16.02951813,-2.350050926,2024-06-05 20:47:48.174154
21.21415438,-10.03460121,-16.02951813,-2.350050926,2024-06-05 20:47:48.214154
21.25415438,-10.03460121,-16.02951813,-2.350050926,2024-06-05 20:47:48.254154
21.29415438,-10.03460121,-16.02951813,-2.350050926,2024-06-05 20:47:48.294154
21.33415438,-10.03460121,-16.02951813,-2.350050926,2024-06-05 20:47:48.334154
21.37415438,-10.03460121,-16.02951813,-2.350050926,2024-06-05 20:47:48.374154
21.41415438,-7.829614639,-9.69093132,-2.277069807,2024-06-05 20:47:48.414154
21.45415438,-10.46471119,-9.398708344,-2.017149448,2024-06-05 20:47:48.454154
21.49415438,-9.87787056,-8.404490471,-3.166900873,2024-06-05 20:47:48.494154
21.53415438,-9.87787056,-8.404490471,-3.166900873,2024-06-05 20:47:48.534154
21.57415438,-9.87787056,-8.404490471,-3.166900873,2024-06-05 20:47:48.574154
21.61415438,-1.826620936,-4.359723091,-0.385543555,2024-06-05 20:47:48.614154
21.65415438,-1.826620936,-4.359723091,-0.385543555,2024-06-05 20:47:48.654154
21.69415438,-1.826620936,-4.359723091,-0.385543555,2024-06-05 20:47:48.694154
21.73415438,-1.826620936,-4.359723091,-0.385543555,2024-06-05 20:47:48.734154
21.77415438,-1.826620936,-4.359723091,-0.385543555,2024-06-05 20:47:48.774154
21.81415438,-1.826620936,-4.359723091,-0.385543555,2024-06-05 20:47:48.814154
21.85415438,-9.061020851,-11.33779144,-0.8934201598,2024-06-05 20:47:48.854154
21.89415438,-9.061020851,-11.33779144,-0.8934201598,2024-06-05 20:47:48.894154
21.93415438,-9.061020851,-11.33779144,-0.8934201598,2024-06-05 20:47:48.934154
21.97415438,-9.061020851,-11.33779144,-0.8934201598,2024-06-05 20:47:48.974154
22.01415438,-9.061020851,-11.33779144,-0.8934201598,2024-06-05 20:47:49.014154
22.05415438,-9.061020851,-11.33779144,-0.8934201598,2024-06-05 20:47:49.054154
22.09415438,-8.821439743,-8.14696312,-1.379761338,2024-06-05 20:47:49.094154
22.13415438,-8.821439743,-8.14696312,-1.379761338,2024-06-05 20:47:49.134154
22.17415438,-8.821439743,-8.14696312,-1.379761338,2024-06-05 20:47:49.174154
22.21415438,-8.821439743,-8.14696312,-1.379761338,2024-06-05 20:47:49.214154
22.25415438,-8.821439743,-8.14696312,-1.379761338,2024-06-05 20:47:49.254154
22.29415438,-8.821439743,-8.14696312,-1.379761338,2024-06-05 20:47:49.294154
22.33415438,-8.821439743,-8.14696312,-1.379761338,2024-06-05 20:47:49.334154
22.37415438,-8.821439743,-8.14696312,-1.379761338,2024-06-05 20:47:49.374154
22.41415438,-8.821439743,-8.14696312,-1.379761338,2024-06-05 20:47:49.414154
22.45415438,-8.821439743,-8.14696312,-1.379761338,2024-06-05 20:47:49.454154
22.49415438,-2.099701881,-3.247060299,0.6251249313,2024-06-05 20:47:49.494154
22.53415438,-2.099701881,-3.247060299,0.6251249313,2024-06-05 20:47:49.534154
22.57415438,-2.099701881,-3.247060299,0.6251249313,2024-06-05 20:47:49.574154
22.61415438,-2.099701881,-3.247060299,0.6251249313,2024-06-05 20:47:49.614154
22.65415438,-2.099701881,-3.247060299,0.6251249313,2024-06-05 20:47:49.654154
22.69415438,-2.099701881,-3.247060299,0.6251249313,2024-06-05 20:47:49.694154
22.73415438,-2.099701881,-3.247060299,0.6251249313,2024-06-05 20:47:49.734154
22.77415438,-2.099701881,-3.247060299,0.6251249313,2024-06-05 20:47:49.774154
22.81415438,-2.099701881,-3.247060299,0.6251249313,2024-06-05 20:47:49.814154
22.85415438,-2.099701881,-3.247060299,0.6251249313,2024-06-05 20:47:49.854154
22.89415438,-2.099701881,-3.247060299,0.6251249313,2024-06-05 20:47:49.894154
22.93415438,-2.099701881,-3.247060299,0.6251249313,2024-06-05 20:47:49.934154
22.97415438,-2.099701881,-3.247060299,0.6251249313,2024-06-05 20:47:49.974154
23.01415438,-2.099701881,-3.247060299,0.6251249313,2024-06-05 20:47:50.014154
23.05415438,-2.099701881,-3.247060299,0.6251249313,2024-06-05 20:47:50.054154
23.09415438,-10.30558777,-8.529216766,-3.236292601,2024-06-05 20:47:50.094154
23.13415438,-7.390232563,-8.345866203,-2.922533751,2024-06-05 20:47:50.134154
23.17415438,-7.390232563,-8.345866203,-2.922533751,2024-06-05 20:47:50.174154
23.21415438,-7.390232563,-8.345866203,-2.922533751,2024-06-05 20:47:50.214154
23.25415438,-7.390232563,-8.345866203,-2.922533751,2024-06-05 20:47:50.254154
23.29415438,-7.390232563,-8.345866203,-2.922533751,2024-06-05 20:47:50.294154
23.33415438,-7.390232563,-8.345866203,-2.922533751,2024-06-05 20:47:50.334154
23.37415438,-7.390232563,-8.345866203,-2.922533751,2024-06-05 20:47:50.374154
23.41415438,-7.390232563,-8.345866203,-2.922533751,2024-06-05 20:47:50.414154
23.45415438,-7.390232563,-8.345866203,-2.922533751,2024-06-05 20:47:50.454154
23.49415438,-7.390232563,-8.345866203,-2.922533751,2024-06-05 20:47:50.494154
23.53415438,-7.390232563,-8.345866203,-2.922533751,2024-06-05 20:47:50.534154
23.57415438,-7.390232563,-8.345866203,-2.922533751,2024-06-05 20:47:50.574154
23.61415438,-7.390232563,-8.345866203,-2.922533751,2024-06-05 20:47:50.614154
23.65415438,-7.390232563,-8.345866203,-2.922533751,2024-06-05 20:47:50.654154
23.69415438,-7.390232563,-8.345866203,-2.922533751,2024-06-05 20:47:50.694154
23.73415438,-7.390232563,-8.345866203,-2.922533751,2024-06-05 20:47:50.734154
23.77415438,-7.390232563,-8.345866203,-2.922533751,2024-06-05 20:47:50.774154
23.81415438,-7.390232563,-8.345866203,-2.922533751,2024-06-05 20:47:50.814154
23.85415438,-6.593721867,-7.877471447,-0.5784648657,2024-06-05 20:47:50.854154
23.89415438,-6.593721867,-7.877471447,-0.5784648657,2024-06-05 20:47:50.894154
23.93415438,-6.593721867,-7.877471447,-0.5784648657,2024-06-05 20:47:50.934154
23.97415438,-6.593721867,-7.877471447,-0.5784648657,2024-06-05 20:47:50.974154
24.01415438,-6.593721867,-7.877471447,-0.5784648657,2024-06-05 20:47:51.014154
24.05415438,-6.593721867,-7.877471447,-0.5784648657,2024-06-05 20:47:51.054154
24.09415438,-0.9523434043,-0.7689933777,-0.6538388133,2024-06-05 20:47:51.094154
24.13415438,-0.9523434043,-0.7689933777,-0.6538388133,2024-06-05 20:47:51.134154
24.17415438,-0.9523434043,-0.7689933777,-0.6538388133,2024-06-05 20:47:51.174154
24.21415438,-0.9523434043,-0.7689933777,-0.6538388133,2024-06-05 20:47:51.214154
24.25415438,-0.9523434043,-0.7689933777,-0.6538388133,2024-06-05 20:47:51.254154
24.29415438,-0.9523434043,-0.7689933777,-0.6538388133,2024-06-05 20:47:51.294154
24.33415438,-0.9523434043,-0.7689933777,-0.6538388133,2024-06-05 20:47:51.334154
24.37415438,-0.9523434043,-0.7689933777,-0.6538388133,2024-06-05 20:47:51.374154
24.41415438,-0.9523434043,-0.7689933777,-0.6538388133,2024-06-05 20:47:51.414154
24.45415438,-0.9523434043,-0.7689933777,-0.6538388133,2024-06-05 20:47:51.454154
24.49415438,-0.9523434043,-0.7689933777,-0.6538388133,2024-06-05 20:47:51.494154
24.53415438,-0.9523434043,-0.7689933777,-0.6538388133,2024-06-05 20:47:51.534154
24.57415438,-0.9523434043,-0.7689933777,-0.6538388133,2024-06-05 20:47:51.574154
24.61415438,-0.9523434043,-0.7689933777,-0.6538388133,2024-06-05 20:47:51.614154
24.65415438,-0.9523434043,-0.7689933777,-0.6538388133,2024-06-05 20:47:51.654154
24.69415438,-0.9523434043,-0.7689933777,-0.6538388133,2024-06-05 20:47:51.694154
24.73415438,-11.16670513,-8.797511101,-3.131008387,2024-06-05 20:47:51.734154
24.77415438,-8.268099785,-6.86082077,-2.560918331,2024-06-05 20:47:51.774154
24.81415438,-6.458228111,-5.635396481,-4.043570995,2024-06-05 20:47:51.814154
24.85415438,-1.849352837,-4.414757729,0.614357233,2024-06-05 20:47:51.854154
24.89415438,-1.849352837,-4.414757729,0.614357233,2024-06-05 20:47:51.894154
24.93415438,-1.849352837,-4.414757729,0.614357233,2024-06-05 20:47:51.934154
24.97415438,-1.849352837,-4.414757729,0.614357233,2024-06-05 20:47:51.974154
25.01415438,-1.849352837,-4.414757729,0.614357233,2024-06-05 20:47:52.014154
25.05415438,-1.849352837,-4.414757729,0.614357233,2024-06-05 20:47:52.054154
25.09415438,-1.849352837,-4.414757729,0.614357233,2024-06-05 20:47:52.094154
25.13415438,-1.849352837,-4.414757729,0.614357233,2024-06-05 20:47:52.134154
25.17415438,-1.849352837,-4.414757729,0.614357233,2024-06-05 20:47:52.174154
25.21415438,-1.849352837,-4.414757729,0.614357233,2024-06-05 20:47:52.214154
25.25415438,-1.849352837,-4.414757729,0.614357233,2024-06-05 20:47:52.254154
25.29415438,-1.849352837,-4.414757729,0.614357233,2024-06-05 20:47:52.294154
25.33415438,-1.849352837,-4.414757729,0.614357233,2024-06-05 20:47:52.334154
25.37415438,-1.849352837,-4.414757729,0.614357233,2024-06-05 20:47:52.374154
25.41415438,-1.849352837,-4.414757729,0.614357233,2024-06-05 20:47:52.414154
25.45415438,-1.849352837,-4.414757729,0.614357233,2024-06-05 20:47:52.454154
25.49415438,-1.849352837,-4.414757729,0.614357233,2024-06-05 20:47:52.494154
25.53415438,-1.849352837,-4.414757729,0.614357233,2024-06-05 20:47:52.534154
25.57415438,-1.849352837,-4.414757729,0.614357233,2024-06-05 20:47:52.574154
25.61415438,-1.849352837,-4.414757729,0.614357233,2024-06-05 20:47:52.614154
25.65415438,-1.849352837,-4.414757729,0.614357233,2024-06-05 20:47:52.654154
25.69415438,-1.849352837,-4.414757729,0.614357233,2024-06-05 20:47:52.694154
25.73415438,-1.849352837,-4.414757729,0.614357233,2024-06-05 20:47:52.734154
25.77415438,-1.849352837,-4.414757729,0.614357233,2024-06-05 20:47:52.774154
25.81415438,-1.849352837,-4.414757729,0.614357233,2024-06-05 20:47:52.814154
25.85415438,-6.776772976,-6.194718838,-1.191625714,2024-06-05 20:47:52.854154
25.89415438,-6.776772976,-6.194718838,-1.191625714,2024-06-05 20:47:52.894154
25.93415438,-6.776772976,-6.194718838,-1.191625714,2024-06-05 20:47:52.934154
25.97415438,-6.776772976,-6.194718838,-1.191625714,2024-06-05 20:47:52.974154
26.01415438,-6.776772976,-6.194718838,-1.191625714,2024-06-05 20:47:53.014154
26.05415438,-6.776772976,-6.194718838,-1.191625714,2024-06-05 20:47:53.054154
26.09415438,-8.923134804,-7.13509798,-1.268495083,2024-06-05 20:47:53.094154
26.13415438,-8.923134804,-7.13509798,-1.268495083,2024-06-05 20:47:53.134154
26.17415438,-8.923134804,-7.13509798,-1.268495083,2024-06-05 20:47:53.174154
26.21415438,-8.923134804,-7.13509798,-1.268495083,2024-06-05 20:47:53.214154
26.25415438,-8.923134804,-7.13509798,-1.268495083,2024-06-05 20:47:53.254154
26.29415438,-8.923134804,-7.13509798,-1.268495083,2024-06-05 20:47:53.294154
26.33415438,-8.923134804,-7.13509798,-1.268495083,2024-06-05 20:47:53.334154
26.37415438,-8.923134804,-7.13509798,-1.268495083,2024-06-05 20:47:53.374154
26.41415438,-3.905983925,-3.067299604,-1.122233868,2024-06-05 20:47:53.414154
26.45415438,0.2204387933,-0.8527421951,-0.3113660514,2024-06-05 20:47:53.454154
26.49415438,0.6215356588,-2.964408159,0.6586244106,2024-06-05 20:47:53.494154
26.53415438,1.164108157,-1.945065737,0.8539385796,2024-06-05 20:47:53.534154
26.57415438,1.164108157,-1.945065737,0.8539385796,2024-06-05 20:47:53.574154
26.61415438,-5.15144825,-4.384847641,-1.434796333,2024-06-05 20:47:53.614154
26.65415438,-5.15144825,-4.384847641,-1.434796333,2024-06-05 20:47:53.654154
26.69415438,-5.15144825,-4.384847641,-1.434796333,2024-06-05 20:47:53.694154
26.73415438,-5.15144825,-4.384847641,-1.434796333,2024-06-05 20:47:53.734154
26.77415438,-5.15144825,-4.384847641,-1.434796333,2024-06-05 20:47:53.774154
26.81415438,-5.15144825,-4.384847641,-1.434796333,2024-06-05 20:47:53.814154
26.85415438,-11.13200951,-9.911370277,-0.7462615371,2024-06-05 20:47:53.854154
26.89415438,-11.13200951,-9.911370277,-0.7462615371,2024-06-05 20:47:53.894154
26.93415438,-11.13200951,-9.911370277,-0.7462615371,2024-06-05 20:47:53.934154
26.97415438,-11.13200951,-9.911370277,-0.7462615371,2024-06-05 20:47:53.974154
27.01415438,-11.13200951,-9.911370277,-0.7462615371,2024-06-05 20:47:54.014154
27.05415438,-11.13200951,-9.911370277,-0.7462615371,2024-06-05 20:47:54.054154
27.09415438,-12.65294743,-9.495617867,-2.936890602,2024-06-05 20:47:54.094154
27.13415438,-12.65294743,-9.495617867,-2.936890602,2024-06-05 20:47:54.134154
27.17415438,-12.65294743,-9.495617867,-2.936890602,2024-06-05 20:47:54.174154
27.21415438,-12.65294743,-9.495617867,-2.936890602,2024-06-05 20:47:54.214154
27.25415438,-12.65294743,-9.495617867,-2.936890602,2024-06-05 20:47:54.254154
27.29415438,-12.65294743,-9.495617867,-2.936890602,2024-06-05 20:47:54.294154
27.33415438,-12.65294743,-9.495617867,-2.936890602,2024-06-05 20:47:54.334154
27.37415438,-12.65294743,-9.495617867,-2.936890602,2024-06-05 20:47:54.374154
27.41415438,-12.65294743,-9.495617867,-2.936890602,2024-06-05 20:47:54.414154
27.45415438,-12.65294743,-9.495617867,-2.936890602,2024-06-05 20:47:54.454154
27.49415438,-12.65294743,-9.495617867,-2.936890602,2024-06-05 20:47:54.494154
27.53415438,-12.65294743,-9.495617867,-2.936890602,2024-06-05 20:47:54.534154
27.57415438,-12.65294743,-9.495617867,-2.936890602,2024-06-05 20:47:54.574154
27.61415438,-12.65294743,-9.495617867,-2.936890602,2024-06-05 20:47:54.614154
27.65415438,-12.65294743,-9.495617867,-2.936890602,2024-06-05 20:47:54.654154
27.69415438,-12.65294743,-9.495617867,-2.936890602,2024-06-05 20:47:54.694154
27.73415438,-12.65294743,-9.495617867,-2.936890602,2024-06-05 20:47:54.734154
27.77415438,-12.65294743,-9.495617867,-2.936890602,2024-06-05 20:47:54.774154
27.81415438,-12.65294743,-9.495617867,-2.936890602,2024-06-05 20:47:54.814154
27.85415438,-12.65294743,-9.495617867,-2.936890602,2024-06-05 20:47:54.854154
27.89415438,-12.65294743,-9.495617867,-2.936890602,2024-06-05 20:47:54.894154
27.93415438,-12.65294743,-9.495617867,-2.936890602,2024-06-05 20:47:54.934154
27.97415438,-12.65294743,-9.495617867,-2.936890602,2024-06-05 20:47:54.974154
28.01415438,-12.65294743,-9.495617867,-2.936890602,2024-06-05 20:47:55.014154
28.05415438,-12.65294743,-9.495617867,-2.936890602,2024-06-05 20:47:55.054154
28.09415438,-3.742972851,-10.0899353,-0.665802896,2024-06-05 20:47:55.094154
28.13415438,-3.018246651,-9.058628082,-1.478166223,2024-06-05 20:47:55.134154
28.17415438,-1.839781523,-10.14736271,-1.649253011,2024-06-05 20:47:55.174154
28.21415438,-1.839781523,-10.14736271,-1.649253011,2024-06-05 20:47:55.214154
28.25415438,-1.839781523,-10.14736271,-1.649253011,2024-06-05 20:47:55.254154
28.29415438,-1.839781523,-10.14736271,-1.649253011,2024-06-05 20:47:55.294154
28.33415438,-1.839781523,-10.14736271,-1.649253011,2024-06-05 20:47:55.334154
28.37415438,-1.839781523,-10.14736271,-1.649253011,2024-06-05 20:47:55.374154
28.41415438,-1.839781523,-10.14736271,-1.649253011,2024-06-05 20:47:55.414154
28.45415438,-1.839781523,-10.14736271,-1.649253011,2024-06-05 20:47:55.454154
28.49415438,-1.839781523,-10.14736271,-1.649253011,2024-06-05 20:47:55.494154
28.53415438,-1.839781523,-10.14736271,-1.649253011,2024-06-05 20:47:55.534154
28.57415438,-1.839781523,-10.14736271,-1.649253011,2024-06-05 20:47:55.574154
28.61415438,-1.839781523,-10.14736271,-1.649253011,2024-06-05 20:47:55.614154
28.65415438,-1.839781523,-10.14736271,-1.649253011,2024-06-05 20:47:55.654154
28.69415438,-1.839781523,-10.14736271,-1.649253011,2024-06-05 20:47:55.694154
28.73415438,-1.839781523,-10.14736271,-1.649253011,2024-06-05 20:47:55.734154
28.77415438,-1.839781523,-10.14736271,-1.649253011,2024-06-05 20:47:55.774154
28.81415438,-1.839781523,-10.14736271,-1.649253011,2024-06-05 20:47:55.814154
28.85415438,-0.8204390407,-11.48405361,0.1582254022,2024-06-05 20:47:55.854154
28.89415438,-0.8204390407,-11.48405361,0.1582254022,2024-06-05 20:47:55.894154
28.93415438,-0.8204390407,-11.48405361,0.1582254022,2024-06-05 20:47:55.934154
28.97415438,-0.8204390407,-11.48405361,0.1582254022,2024-06-05 20:47:55.974154
29.01415438,-0.8204390407,-11.48405361,0.1582254022,2024-06-05 20:47:56.014154
29.05415438,-0.8204390407,-11.48405361,0.1582254022,2024-06-05 20:47:56.054154
29.09415438,-0.8204390407,-11.48405361,0.1582254022,2024-06-05 20:47:56.094154
29.13415438,-0.8204390407,-11.48405361,0.1582254022,2024-06-05 20:47:56.134154
29.17415438,-0.8204390407,-11.48405361,0.1582254022,2024-06-05 20:47:56.174154
29.21415438,-0.8204390407,-11.48405361,0.1582254022,2024-06-05 20:47:56.214154
29.25415438,-0.8204390407,-11.48405361,0.1582254022,2024-06-05 20:47:56.254154
29.29415438,-0.8204390407,-11.48405361,0.1582254022,2024-06-05 20:47:56.294154
29.33415438,-0.8204390407,-11.48405361,0.1582254022,2024-06-05 20:47:56.334154
29.37415438,-0.8204390407,-11.48405361,0.1582254022,2024-06-05 20:47:56.374154
29.41415438,-0.8204390407,-11.48405361,0.1582254022,2024-06-05 20:47:56.414154
29.45415438,-0.8204390407,-11.48405361,0.1582254022,2024-06-05 20:47:56.454154
29.49415438,-0.8204390407,-11.48405361,0.1582254022,2024-06-05 20:47:56.494154
29.53415438,-0.8204390407,-11.48405361,0.1582254022,2024-06-05 20:47:56.534154
29.57415438,-0.8204390407,-11.48405361,0.1582254022,2024-06-05 20:47:56.574154
29.61415438,-0.8204390407,-11.48405361,0.1582254022,2024-06-05 20:47:56.614154
29.65415438,-0.8204390407,-11.48405361,0.1582254022,2024-06-05 20:47:56.654154
29.69415438,-0.8204390407,-11.48405361,0.1582254022,2024-06-05 20:47:56.694154
29.73415438,-0.8204390407,-11.48405361,0.1582254022,2024-06-05 20:47:56.734154
29.77415438,-1.224227905,-9.503094673,-0.3364906907,2024-06-05 20:47:56.774154
29.81415438,-1.30438745,-9.22492981,-0.3568296731,2024-06-05 20:47:56.814154
29.85415438,-0.9798609018,-9.047860146,-0.3975076675,2024-06-05 20:47:56.854154
29.89415438,-3.318845034,-7.119544506,-1.260120273,2024-06-05 20:47:56.894154
29.93415438,-3.318845034,-7.119544506,-1.260120273,2024-06-05 20:47:56.934154
29.97415438,-3.318845034,-7.119544506,-1.260120273,2024-06-05 20:47:56.974154
30.01415438,-3.318845034,-7.119544506,-1.260120273,2024-06-05 20:47:57.014154
30.05415438,-3.318845034,-7.119544506,-1.260120273,2024-06-05 20:47:57.054154
30.09415438,-3.318845034,-7.119544506,-1.260120273,2024-06-05 20:47:57.094154
30.13415438,-3.318845034,-7.119544506,-1.260120273,2024-06-05 20:47:57.134154
30.17415438,-3.318845034,-7.119544506,-1.260120273,2024-06-05 20:47:57.174154
30.21415438,-3.318845034,-7.119544506,-1.260120273,2024-06-05 20:47:57.214154
30.25415438,-3.318845034,-7.119544506,-1.260120273,2024-06-05 20:47:57.254154
30.29415438,-3.318845034,-7.119544506,-1.260120273,2024-06-05 20:47:57.294154
30.33415438,-3.318845034,-7.119544506,-1.260120273,2024-06-05 20:47:57.334154
30.37415438,-3.318845034,-7.119544506,-1.260120273,2024-06-05 20:47:57.374154
30.41415438,-3.318845034,-7.119544506,-1.260120273,2024-06-05 20:47:57.414154
30.45415438,-3.318845034,-7.119544506,-1.260120273,2024-06-05 20:47:57.454154
30.49415438,-3.318845034,-7.119544506,-1.260120273,2024-06-05 20:47:57.494154
30.53415438,-3.318845034,-7.119544506,-1.260120273,2024-06-05 20:47:57.534154
30.57415438,-3.318845034,-7.119544506,-1.260120273,2024-06-05 20:47:57.574154
30.61415438,-3.318845034,-7.119544506,-1.260120273,2024-06-05 20:47:57.614154
30.65415438,-3.318845034,-7.119544506,-1.260120273,2024-06-05 20:47:57.654154
30.69415438,-3.318845034,-7.119544506,-1.260120273,2024-06-05 20:47:57.694154
30.73415438,-3.318845034,-7.119544506,-1.260120273,2024-06-05 20:47:57.734154
30.77415438,-3.318845034,-7.119544506,-1.260120273,2024-06-05 20:47:57.774154
30.81415438,-3.318845034,-7.119544506,-1.260120273,2024-06-05 20:47:57.814154
30.85415438,-2.61714983,-9.3807621,0.1220339537,2024-06-05 20:47:57.854154
30.89415438,-2.61714983,-9.3807621,0.1220339537,2024-06-05 20:47:57.894154
30.93415438,-2.61714983,-9.3807621,0.1220339537,2024-06-05 20:47:57.934154
30.97415438,-2.61714983,-9.3807621,0.1220339537,2024-06-05 20:47:57.974154
31.01415438,-2.61714983,-9.3807621,0.1220339537,2024-06-05 20:47:58.014154
31.05415438,-2.61714983,-9.3807621,0.1220339537,2024-06-05 20:47:58.054154
31.09415438,-11.11406326,-9.48484993,-0.913759172,2024-06-05 20:47:58.094154
31.13415438,-11.11406326,-9.48484993,-0.913759172,2024-06-05 20:47:58.134154
31.17415438,-11.11406326,-9.48484993,-0.913759172,2024-06-05 20:47:58.174154
31.21415438,-11.11406326,-9.48484993,-0.913759172,2024-06-05 20:47:58.214154
31.25415438,-11.11406326,-9.48484993,-0.913759172,2024-06-05 20:47:58.254154
31.29415438,-11.11406326,-9.48484993,-0.913759172,2024-06-05 20:47:58.294154
31.33415438,-11.11406326,-9.48484993,-0.913759172,2024-06-05 20:47:58.334154
31.37415438,-11.11406326,-9.48484993,-0.913759172,2024-06-05 20:47:58.374154
31.41415438,-11.11406326,-9.48484993,-0.913759172,2024-06-05 20:47:58.414154
31.45415438,-9.347262383,-5.21605444,0.16181463,2024-06-05 20:47:58.454154
31.49415438,-12.70080376,-12.93320656,-1.392921925,2024-06-05 20:47:58.494154
31.53415438,-9.832406998,-10.9307127,-1.315155149,2024-06-05 20:47:58.534154
31.57415438,-9.832406998,-10.9307127,-1.315155149,2024-06-05 20:47:58.574154
31.61415438,-9.304191589,-10.33310509,-1.676770449,2024-06-05 20:47:58.614154
31.65415438,-9.304191589,-10.33310509,-1.676770449,2024-06-05 20:47:58.654154
31.69415438,-9.304191589,-10.33310509,-1.676770449,2024-06-05 20:47:58.694154
31.73415438,-9.304191589,-10.33310509,-1.676770449,2024-06-05 20:47:58.734154
31.77415438,-9.304191589,-10.33310509,-1.676770449,2024-06-05 20:47:58.774154
31.81415438,-9.304191589,-10.33310509,-1.676770449,2024-06-05 20:47:58.814154
31.85415438,-5.235496044,-10.05284595,-2.240878344,2024-06-05 20:47:58.854154
31.89415438,-5.235496044,-10.05284595,-2.240878344,2024-06-05 20:47:58.894154
31.93415438,-5.235496044,-10.05284595,-2.240878344,2024-06-05 20:47:58.934154
31.97415438,-5.235496044,-10.05284595,-2.240878344,2024-06-05 20:47:58.974154
32.01415438,-5.235496044,-10.05284595,-2.240878344,2024-06-05 20:47:59.014154
32.05415438,-5.235496044,-10.05284595,-2.240878344,2024-06-05 20:47:59.054154
32.09415438,-2.065006018,-2.407478571,-1.795514345,2024-06-05 20:47:59.094154
32.13415438,-2.065006018,-2.407478571,-1.795514345,2024-06-05 20:47:59.134154
32.17415438,-2.065006018,-2.407478571,-1.795514345,2024-06-05 20:47:59.174154
32.21415438,-2.065006018,-2.407478571,-1.795514345,2024-06-05 20:47:59.214154
32.25415438,-2.065006018,-2.407478571,-1.795514345,2024-06-05 20:47:59.254154
32.29415438,-2.065006018,-2.407478571,-1.795514345,2024-06-05 20:47:59.294154
32.33415438,-2.065006018,-2.407478571,-1.795514345,2024-06-05 20:47:59.334154
32.37415438,-2.065006018,-2.407478571,-1.795514345,2024-06-05 20:47:59.374154
32.41415438,-2.065006018,-2.407478571,-1.795514345,2024-06-05 20:47:59.414154
32.45415438,-2.065006018,-2.407478571,-1.795514345,2024-06-05 20:47:59.454154
32.49415438,-2.065006018,-2.407478571,-1.795514345,2024-06-05 20:47:59.494154
32.53415438,-2.065006018,-2.407478571,-1.795514345,2024-06-05 20:47:59.534154
32.57415438,-2.065006018,-2.407478571,-1.795514345,2024-06-05 20:47:59.574154
32.61415438,-2.065006018,-2.407478571,-1.795514345,2024-06-05 20:47:59.614154
32.65415438,-2.065006018,-2.407478571,-1.795514345,2024-06-05 20:47:59.654154
32.69415438,-2.065006018,-2.407478571,-1.795514345,2024-06-05 20:47:59.694154
32.73415438,-2.065006018,-2.407478571,-1.795514345,2024-06-05 20:47:59.734154
32.77415438,-2.065006018,-2.407478571,-1.795514345,2024-06-05 20:47:59.774154
32.81415438,-2.065006018,-2.407478571,-1.795514345,2024-06-05 20:47:59.814154
32.85415438,-2.065006018,-2.407478571,-1.795514345,2024-06-05 20:47:59.854154
32.89415438,-2.065006018,-2.407478571,-1.795514345,2024-06-05 20:47:59.894154
32.93415438,-2.065006018,-2.407478571,-1.795514345,2024-06-05 20:47:59.934154
32.97415438,-2.065006018,-2.407478571,-1.795514345,2024-06-05 20:47:59.974154
33.01415438,-2.065006018,-2.407478571,-1.795514345,2024-06-05 20:48:00.014154
33.05415438,-2.065006018,-2.407478571,-1.795514345,2024-06-05 20:48:00.054154
33.09415438,-3.485445261,-0.7115656137,1.942672849,2024-06-05 20:48:00.094154
33.13415438,-3.703491211,-1.901994944,0.9269196987,2024-06-05 20:48:00.134154
33.17415438,-5.365904808,-4.774279594,0.1100698411,2024-06-05 20:48:00.174154
33.21415438,-7.448856831,-8.470592499,-2.009970903,2024-06-05 20:48:00.214154
33.25415438,-7.448856831,-8.470592499,-2.009970903,2024-06-05 20:48:00.254154
33.29415438,-7.448856831,-8.470592499,-2.009970903,2024-06-05 20:48:00.294154
33.33415438,-7.448856831,-8.470592499,-2.009970903,2024-06-05 20:48:00.334154
33.37415438,-7.448856831,-8.470592499,-2.009970903,2024-06-05 20:48:00.374154
33.41415438,-7.448856831,-8.470592499,-2.009970903,2024-06-05 20:48:00.414154
33.45415438,-7.448856831,-8.470592499,-2.009970903,2024-06-05 20:48:00.454154
33.49415438,-7.448856831,-8.470592499,-2.009970903,2024-06-05 20:48:00.494154
33.53415438,-7.448856831,-8.470592499,-2.009970903,2024-06-05 20:48:00.534154
33.57415438,-7.448856831,-8.470592499,-2.009970903,2024-06-05 20:48:00.574154
33.61415438,-7.448856831,-8.470592499,-2.009970903,2024-06-05 20:48:00.614154
33.65415438,-7.448856831,-8.470592499,-2.009970903,2024-06-05 20:48:00.654154
33.69415438,-7.448856831,-8.470592499,-2.009970903,2024-06-05 20:48:00.694154
33.73415438,-7.448856831,-8.470592499,-2.009970903,2024-06-05 20:48:00.734154
33.77415438,-7.448856831,-8.470592499,-2.009970903,2024-06-05 20:48:00.774154
33.81415438,-7.448856831,-8.470592499,-2.009970903,2024-06-05 20:48:00.814154
33.85415438,-0.4384847581,-1.894816399,-0.8240283132,2024-06-05 20:48:00.854154
33.89415438,-0.4384847581,-1.894816399,-0.8240283132,2024-06-05 20:48:00.894154
33.93415438,-0.4384847581,-1.894816399,-0.8240283132,2024-06-05 20:48:00.934154
33.97415438,-0.4384847581,-1.894816399,-0.8240283132,2024-06-05 20:48:00.974154
34.01415438,-0.4384847581,-1.894816399,-0.8240283132,2024-06-05 20:48:01.014154
34.05415438,-0.4384847581,-1.894816399,-0.8240283132,2024-06-05 20:48:01.054154
34.09415438,-0.4384847581,-1.894816399,-0.8240283132,2024-06-05 20:48:01.094154
34.09415438,-8.508877754,-10.717453,-2.199003935,2024-06-05 20:48:01.094154
34.17415438,-8.508877754,-10.717453,-2.199003935,2024-06-05 20:48:01.174154
34.21415438,-8.508877754,-10.717453,-2.199003935,2024-06-05 20:48:01.214154
34.25415438,-8.508877754,-10.717453,-2.199003935,2024-06-05 20:48:01.254154
34.29415438,-8.508877754,-10.717453,-2.199003935,2024-06-05 20:48:01.294154
34.33415438,-8.508877754,-10.717453,-2.199003935,2024-06-05 20:48:01.334154
34.37415438,-8.508877754,-10.717453,-2.199003935,2024-06-05 20:48:01.374154
34.41415438,-8.508877754,-10.717453,-2.199003935,2024-06-05 20:48:01.414154
34.45415438,-8.508877754,-10.717453,-2.199003935,2024-06-05 20:48:01.454154
34.49415438,-8.508877754,-10.717453,-2.199003935,2024-06-05 20:48:01.494154
34.53415438,-8.508877754,-10.717453,-2.199003935,2024-06-05 20:48:01.534154
34.57415438,-8.508877754,-10.717453,-2.199003935,2024-06-05 20:48:01.574154
34.61415438,-8.508877754,-10.717453,-2.199003935,2024-06-05 20:48:01.614154
34.65415438,-8.508877754,-10.717453,-2.199003935,2024-06-05 20:48:01.654154
34.69415438,-8.508877754,-10.717453,-2.199003935,2024-06-05 20:48:01.694154
34.73415438,-8.508877754,-10.717453,-2.199003935,2024-06-05 20:48:01.734154
34.77415438,-8.508877754,-10.717453,-2.199003935,2024-06-05 20:48:01.774154
34.81415438,-2.72961235,-2.799004316,0.665802896,2024-06-05 20:48:01.814154
34.85415438,-1.778764486,-2.401496649,1.22542429,2024-06-05 20:48:01.854154
34.89415438,-3.902394533,-3.101098061,0.1124626622,2024-06-05 20:48:01.894154
34.93415438,-3.902394533,-3.101098061,0.1124626622,2024-06-05 20:48:01.934154
34.97415438,-3.902394533,-3.101098061,0.1124626622,2024-06-05 20:48:01.974154
35.01415438,-3.902394533,-3.101098061,0.1124626622,2024-06-05 20:48:02.014154
35.05415438,-3.902394533,-3.101098061,0.1124626622,2024-06-05 20:48:02.054154
35.09415438,-3.902394533,-3.101098061,0.1124626622,2024-06-05 20:48:02.094154
35.13415438,-3.902394533,-3.101098061,0.1124626622,2024-06-05 20:48:02.134154
35.17415438,-3.902394533,-3.101098061,0.1124626622,2024-06-05 20:48:02.174154
35.21415438,-3.902394533,-3.101098061,0.1124626622,2024-06-05 20:48:02.214154
35.25415438,-3.902394533,-3.101098061,0.1124626622,2024-06-05 20:48:02.254154
35.29415438,-3.902394533,-3.101098061,0.1124626622,2024-06-05 20:48:02.294154
35.33415438,-3.902394533,-3.101098061,0.1124626622,2024-06-05 20:48:02.334154
35.37415438,-3.902394533,-3.101098061,0.1124626622,2024-06-05 20:48:02.374154
35.41415438,-3.902394533,-3.101098061,0.1124626622,2024-06-05 20:48:02.414154
35.45415438,-3.902394533,-3.101098061,0.1124626622,2024-06-05 20:48:02.454154
35.49415438,-3.902394533,-3.101098061,0.1124626622,2024-06-05 20:48:02.494154
35.53415438,-3.902394533,-3.101098061,0.1124626622,2024-06-05 20:48:02.534154
35.57415438,-3.902394533,-3.101098061,0.1124626622,2024-06-05 20:48:02.574154
35.61415438,-3.902394533,-3.101098061,0.1124626622,2024-06-05 20:48:02.614154
35.65415438,-3.902394533,-3.101098061,0.1124626622,2024-06-05 20:48:02.654154
35.69415438,-3.902394533,-3.101098061,0.1124626622,2024-06-05 20:48:02.694154
35.73415438,-3.902394533,-3.101098061,0.1124626622,2024-06-05 20:48:02.734154
35.77415438,-3.902394533,-3.101098061,0.1124626622,2024-06-05 20:48:02.774154
35.81415438,-3.902394533,-3.101098061,0.1124626622,2024-06-05 20:48:02.814154
35.85415438,-7.768597603,-9.608379364,-1.723430514,2024-06-05 20:48:02.854154
35.89415438,-7.768597603,-9.608379364,-1.723430514,2024-06-05 20:48:02.894154
35.93415438,-7.768597603,-9.608379364,-1.723430514,2024-06-05 20:48:02.934154
35.97415438,-7.768597603,-9.608379364,-1.723430514,2024-06-05 20:48:02.974154
36.01415438,-7.768597603,-9.608379364,-1.723430514,2024-06-05 20:48:03.014154
36.05415438,-7.768597603,-9.608379364,-1.723430514,2024-06-05 20:48:03.054154
36.09415438,-7.768597603,-9.608379364,-1.723430514,2024-06-05 20:48:03.094154
36.13415438,-7.768597603,-9.608379364,-1.723430514,2024-06-05 20:48:03.134154
36.17415438,-7.768597603,-9.608379364,-1.723430514,2024-06-05 20:48:03.174154
36.21415438,-7.768597603,-9.608379364,-1.723430514,2024-06-05 20:48:03.214154
36.25415438,-7.768597603,-9.608379364,-1.723430514,2024-06-05 20:48:03.254154
36.29415438,-7.768597603,-9.608379364,-1.723430514,2024-06-05 20:48:03.294154
36.33415438,-7.768597603,-9.608379364,-1.723430514,2024-06-05 20:48:03.334154
36.37415438,-7.768597603,-9.608379364,-1.723430514,2024-06-05 20:48:03.374154
36.41415438,-7.768597603,-9.608379364,-1.723430514,2024-06-05 20:48:03.414154
36.45415438,-7.768597603,-9.608379364,-1.723430514,2024-06-05 20:48:03.454154
36.49415438,-3.780061483,-5.369493961,-1.336690545,2024-06-05 20:48:03.494154
36.53415438,-3.265006542,-1.967797518,-1.729412556,2024-06-05 20:48:03.534154
36.57415438,-1.9797616,-1.278066397,-1.172483087,2024-06-05 20:48:03.574154
36.61415438,-3.528516054,-1.527219057,0.5629115105,2024-06-05 20:48:03.614154
36.65415438,-3.528516054,-1.527219057,0.5629115105,2024-06-05 20:48:03.654154
36.69415438,-3.528516054,-1.527219057,0.5629115105,2024-06-05 20:48:03.694154
36.73415438,-3.528516054,-1.527219057,0.5629115105,2024-06-05 20:48:03.734154
36.77415438,-3.528516054,-1.527219057,0.5629115105,2024-06-05 20:48:03.774154
36.81415438,-3.528516054,-1.527219057,0.5629115105,2024-06-05 20:48:03.814154
36.85415438,-8.062017441,-10.09950638,-2.381157637,2024-06-05 20:48:03.854154
36.89415438,-8.062017441,-10.09950638,-2.381157637,2024-06-05 20:48:03.894154
36.93415438,-8.062017441,-10.09950638,-2.381157637,2024-06-05 20:48:03.934154
36.97415438,-8.062017441,-10.09950638,-2.381157637,2024-06-05 20:48:03.974154
37.01415438,-8.062017441,-10.09950638,-2.381157637,2024-06-05 20:48:04.014154
37.05415438,-8.062017441,-10.09950638,-2.381157637,2024-06-05 20:48:04.054154
37.09415438,-7.107580662,-8.496912956,-0.8144569993,2024-06-05 20:48:04.094154
37.13415438,-7.107580662,-8.496912956,-0.8144569993,2024-06-05 20:48:04.134154
37.17415438,-7.107580662,-8.496912956,-0.8144569993,2024-06-05 20:48:04.174154
37.21415438,-7.107580662,-8.496912956,-0.8144569993,2024-06-05 20:48:04.214154
37.25415438,-7.107580662,-8.496912956,-0.8144569993,2024-06-05 20:48:04.254154
37.29415438,-7.107580662,-8.496912956,-0.8144569993,2024-06-05 20:48:04.294154
37.33415438,-7.107580662,-8.496912956,-0.8144569993,2024-06-05 20:48:04.334154
37.37415438,-7.107580662,-8.496912956,-0.8144569993,2024-06-05 20:48:04.374154
37.41415438,-7.107580662,-8.496912956,-0.8144569993,2024-06-05 20:48:04.414154
37.45415438,-7.107580662,-8.496912956,-0.8144569993,2024-06-05 20:48:04.454154
37.49415438,-7.107580662,-8.496912956,-0.8144569993,2024-06-05 20:48:04.494154
37.53415438,-7.107580662,-8.496912956,-0.8144569993,2024-06-05 20:48:04.534154
37.57415438,-7.107580662,-8.496912956,-0.8144569993,2024-06-05 20:48:04.574154
37.61415438,-7.107580662,-8.496912956,-0.8144569993,2024-06-05 20:48:04.614154
37.65415438,-7.107580662,-8.496912956,-0.8144569993,2024-06-05 20:48:04.654154
37.69415438,-7.107580662,-8.496912956,-0.8144569993,2024-06-05 20:48:04.694154
37.73415438,-7.107580662,-8.496912956,-0.8144569993,2024-06-05 20:48:04.734154
37.77415438,-7.107580662,-8.496912956,-0.8144569993,2024-06-05 20:48:04.774154
37.81415438,-7.107580662,-8.496912956,-0.8144569993,2024-06-05 20:48:04.814154
37.85415438,-7.107580662,-8.496912956,-0.8144569993,2024-06-05 20:48:04.854154
37.89415438,-7.107580662,-8.496912956,-0.8144569993,2024-06-05 20:48:04.894154
37.93415438,-7.107580662,-8.496912956,-0.8144569993,2024-06-05 20:48:04.934154
37.97415438,-7.107580662,-8.496912956,-0.8144569993,2024-06-05 20:48:04.974154
38.01415438,-7.107580662,-8.496912956,-0.8144569993,2024-06-05 20:48:05.014154
38.05415438,-7.107580662,-8.496912956,-0.8144569993,2024-06-05 20:48:05.054154
38.09415438,-8.292027473,-8.884849548,-2.656631231,2024-06-05 20:48:05.094154
38.13415438,-8.292027473,-8.884849548,-2.656631231,2024-06-05 20:48:05.134154
38.17415438,-7.693223953,-6.324230194,-2.611167669,2024-06-05 20:48:05.174154
38.21415438,-10.52094173,-9.516255379,-3.646063566,2024-06-05 20:48:05.214154
38.25415438,-7.857132435,-10.18564796,-2.396710873,2024-06-05 20:48:05.254154
38.29415438,-7.857132435,-10.18564796,-2.396710873,2024-06-05 20:48:05.294154
38.33415438,-7.857132435,-10.18564796,-2.396710873,2024-06-05 20:48:05.334154
38.37415438,-7.857132435,-10.18564796,-2.396710873,2024-06-05 20:48:05.374154
38.41415438,-7.857132435,-10.18564796,-2.396710873,2024-06-05 20:48:05.414154
38.45415438,-7.857132435,-10.18564796,-2.396710873,2024-06-05 20:48:05.454154
38.49415438,-7.857132435,-10.18564796,-2.396710873,2024-06-05 20:48:05.494154
38.53415438,-7.857132435,-10.18564796,-2.396710873,2024-06-05 20:48:05.534154
38.57415438,-7.857132435,-10.18564796,-2.396710873,2024-06-05 20:48:05.574154
38.61415438,-7.857132435,-10.18564796,-2.396710873,2024-06-05 20:48:05.614154
38.65415438,-7.857132435,-10.18564796,-2.396710873,2024-06-05 20:48:05.654154
38.69415438,-7.857132435,-10.18564796,-2.396710873,2024-06-05 20:48:05.694154
38.73415438,-7.857132435,-10.18564796,-2.396710873,2024-06-05 20:48:05.734154
38.77415438,-7.857132435,-10.18564796,-2.396710873,2024-06-05 20:48:05.774154
38.81415438,-7.857132435,-10.18564796,-2.396710873,2024-06-05 20:48:05.814154
38.85415438,-9.198608398,-9.928120613,-1.650449395,2024-06-05 20:48:05.854154
38.89415438,-9.198608398,-9.928120613,-1.650449395,2024-06-05 20:48:05.894154
38.93415438,-9.198608398,-9.928120613,-1.650449395,2024-06-05 20:48:05.934154
38.97415438,-9.198608398,-9.928120613,-1.650449395,2024-06-05 20:48:05.974154
39.01415438,-9.198608398,-9.928120613,-1.650449395,2024-06-05 20:48:06.014154
39.05415438,-9.198608398,-9.928120613,-1.650449395,2024-06-05 20:48:06.054154
39.09415438,-9.955637932,-8.882456779,-2.560918331,2024-06-05 20:48:06.094154
39.13415438,-9.955637932,-8.882456779,-2.560918331,2024-06-05 20:48:06.134154
39.17415438,-9.955637932,-8.882456779,-2.560918331,2024-06-05 20:48:06.174154
39.21415438,-9.955637932,-8.882456779,-2.560918331,2024-06-05 20:48:06.214154
39.25415438,-9.955637932,-8.882456779,-2.560918331,2024-06-05 20:48:06.254154
39.29415438,-9.955637932,-8.882456779,-2.560918331,2024-06-05 20:48:06.294154
39.33415438,-9.955637932,-8.882456779,-2.560918331,2024-06-05 20:48:06.334154
39.37415438,-9.955637932,-8.882456779,-2.560918331,2024-06-05 20:48:06.374154
39.41415438,-9.955637932,-8.882456779,-2.560918331,2024-06-05 20:48:06.414154
39.45415438,-9.955637932,-8.882456779,-2.560918331,2024-06-05 20:48:06.454154
39.49415438,-9.955637932,-8.882456779,-2.560918331,2024-06-05 20:48:06.494154
39.53415438,-9.955637932,-8.882456779,-2.560918331,2024-06-05 20:48:06.534154
39.57415438,-9.955637932,-8.882456779,-2.560918331,2024-06-05 20:48:06.574154
39.61415438,-9.955637932,-8.882456779,-2.560918331,2024-06-05 20:48:06.614154
39.65415438,-9.955637932,-8.882456779,-2.560918331,2024-06-05 20:48:06.654154
39.69415438,-9.955637932,-8.882456779,-2.560918331,2024-06-05 20:48:06.694154
39.73415438,-9.955637932,-8.882456779,-2.560918331,2024-06-05 20:48:06.734154
39.77415438,-9.955637932,-8.882456779,-2.560918331,2024-06-05 20:48:06.774154
39.81415438,-9.955637932,-8.882456779,-2.560918331,2024-06-05 20:48:06.814154
39.85415438,-6.95055151,-8.133802414,-0.9607182741,2024-06-05 20:48:06.854154
39.89415438,-7.494320393,-8.453842163,-1.817049742,2024-06-05 20:48:06.894154
39.93415438,-7.748258591,-11.95603752,-1.916351795,2024-06-05 20:48:06.934154
39.97415438,-7.748258591,-11.95603752,-1.916351795,2024-06-05 20:48:06.974154
40.01415438,-7.748258591,-11.95603752,-1.916351795,2024-06-05 20:48:07.014154
40.05415438,-7.748258591,-11.95603752,-1.916351795,2024-06-05 20:48:07.054154
40.09415438,-5.961119175,-6.938587666,-1.244566917,2024-06-05 20:48:07.094154
40.13415438,-4.338187218,-5.053342342,-0.2120639086,2024-06-05 20:48:07.134154
40.17415438,-5.21605444,-3.786043644,-2.326122761,2024-06-05 20:48:07.174154
40.21415438,-4.400400639,-2.632703066,-1.294816136,2024-06-05 20:48:07.214154
40.25415438,-2.581257343,-2.124826431,-1.315155149,2024-06-05 20:48:07.254154
40.29415438,-6.34815836,-2.807379246,-0.2252244353,2024-06-05 20:48:07.294154
40.33415438,-5.530112267,-3.329612732,-0.3867399693,2024-06-05 20:48:07.334154
40.37415438,-1.964208245,-1.310369492,0.8156534433,2024-06-05 20:48:07.374154
40.41415438,-1.359422326,-1.406082392,-0.6502495408,2024-06-05 20:48:07.414154
40.45415438,-3.946661949,-3.030210733,-0.698405087,2024-06-05 20:48:07.454154
40.49415438,-7.182954311,-5.866602898,-0.9870393276,2024-06-05 20:48:07.494154
40.53415438,-8.772386551,-8.604590416,-1.69950223,2024-06-05 20:48:07.534154
40.57415438,-8.846564293,-8.918349266,-1.63489604,2024-06-05 20:48:07.574154
40.61415438,-6.054738522,-9.289834976,-2.07098794,2024-06-05 20:48:07.614154
40.65415438,-7.49910593,-9.168698311,-1.281655669,2024-06-05 20:48:07.654154
40.69415438,-6.854838848,-8.966505051,-1.727019787,2024-06-05 20:48:07.694154
40.73415438,-7.817650795,-9.340084076,-2.031506538,2024-06-05 20:48:07.734154
40.77415438,-9.111269951,-11.99910831,-2.890230656,2024-06-05 20:48:07.774154
40.81415438,-7.782954693,-9.987940788,-1.467099428,2024-06-05 20:48:07.814154
40.85415438,-6.878767014,-7.476374149,-0.7582256794,2024-06-05 20:48:07.854154
40.89415438,-4.964807987,-7.882256985,-1.32113719,2024-06-05 20:48:07.894154
40.93415438,-6.605686188,-8.898010254,-0.8096713424,2024-06-05 20:48:07.934154
40.97415438,-9.317352295,-9.585647583,-2.322533369,2024-06-05 20:48:07.974154
41.01415438,-10.9869442,-9.552147865,-3.023032188,2024-06-05 20:48:08.014154
41.05415438,-10.9869442,-9.552147865,-3.023032188,2024-06-05 20:48:08.054154
41.09415438,-8.081160545,-8.909974098,-1.268495083,2024-06-05 20:48:08.094154
41.13415438,-8.081160545,-8.909974098,-1.268495083,2024-06-05 20:48:08.134154
41.17415438,-8.081160545,-8.909974098,-1.268495083,2024-06-05 20:48:08.174154
41.21415438,-8.081160545,-8.909974098,-1.268495083,2024-06-05 20:48:08.214154
41.25415438,-8.081160545,-8.909974098,-1.268495083,2024-06-05 20:48:08.254154
41.29415438,-8.081160545,-8.909974098,-1.268495083,2024-06-05 20:48:08.294154
41.33415438,-8.081160545,-8.909974098,-1.268495083,2024-06-05 20:48:08.334154
41.37415438,-8.081160545,-8.909974098,-1.268495083,2024-06-05 20:48:08.374154
41.41415438,-8.081160545,-8.909974098,-1.268495083,2024-06-05 20:48:08.414154
41.45415438,-8.081160545,-8.909974098,-1.268495083,2024-06-05 20:48:08.454154
41.49415438,-8.081160545,-8.909974098,-1.268495083,2024-06-05 20:48:08.494154
41.53415438,-7.372286797,-7.802097321,-1.013360381,2024-06-05 20:48:08.534154
41.57415438,-7.973483086,-9.582057953,-2.312962294,2024-06-05 20:48:08.574154
41.61415438,-8.852546692,-10.23709393,-1.860120535,2024-06-05 20:48:08.614154
41.65415438,-8.318348885,-9.438189507,-2.523530483,2024-06-05 20:48:08.654154
41.69415438,-8.264510155,-9.084949493,-1.154536963,2024-06-05 20:48:08.694154
41.73415438,-7.570890903,-10.20598698,-2.0769701,2024-06-05 20:48:08.734154
41.77415438,-7.132705212,-9.251549721,-1.263709426,2024-06-05 20:48:08.774154
41.81415438,-7.027122021,-8.024929047,-0.7067800164,2024-06-05 20:48:08.814154
41.85415438,-5.766104221,-8.817850113,-0.779761076,2024-06-05 20:48:08.854154
41.89415438,-5.819942951,-8.315956116,-1.378564954,2024-06-05 20:48:08.894154
41.93415438,-8.184350967,-8.995218277,-1.874477386,2024-06-05 20:48:08.934154
41.97415438,-8.343473434,-8.704191208,-2.765504837,2024-06-05 20:48:08.974154
42.01415438,-9.243174553,-8.239385605,-2.382354021,2024-06-05 20:48:09.014154
42.05415438,-9.558130264,-8.710173607,-2.645863533,2024-06-05 20:48:09.054154
42.09415438,-8.333902359,-6.815057755,-0.7773682475,2024-06-05 20:48:09.094154
42.13415438,-5.82233572,-5.658128262,-1.620539188,2024-06-05 20:48:09.134154
42.17415438,-2.423032045,-4.545465946,-0.7761718631,2024-06-05 20:48:09.174154
42.21415438,-3.079562664,-0.6708876491,-0.8060821295,2024-06-05 20:48:09.214154
42.25415438,-4.265206337,-3.063710213,0.2635096014,2024-06-05 20:48:09.254154
42.29415438,-4.884349346,-2.813660383,0.08015955985,2024-06-05 20:48:09.294154
42.33415438,-4.565804482,-1.949851394,0.3927220106,2024-06-05 20:48:09.334154
42.37415438,-3.625724554,-3.364607811,0.3723830283,2024-06-05 20:48:09.374154
42.41415438,-5.637789249,-5.514558792,-0.3927220106,2024-06-05 20:48:09.414154
42.45415438,-7.654938698,-7.50269556,-0.3927220106,2024-06-05 20:48:09.454154
42.49415438,-8.528019905,-8.414061546,-1.082752228,2024-06-05 20:48:09.494154
42.53415438,-8.4646101,-10.3534441,-2.304587364,2024-06-05 20:48:09.534154
42.57415438,-8.254939079,-10.67438221,-2.478066921,2024-06-05 20:48:09.574154
42.61415438,-9.071788788,-9.958030701,-1.646860242,2024-06-05 20:48:09.614154
42.65415438,-8.330312729,-8.978468895,-0.8264211416,2024-06-05 20:48:09.654154
42.69415438,-8.330312729,-8.978468895,-0.8264211416,2024-06-05 20:48:09.694154
42.73415438,-8.330312729,-8.978468895,-0.8264211416,2024-06-05 20:48:09.734154
42.77415438,-8.330312729,-8.978468895,-0.8264211416,2024-06-05 20:48:09.774154
42.81415438,-8.330312729,-8.978468895,-0.8264211416,2024-06-05 20:48:09.814154
42.85415438,-8.330312729,-8.978468895,-0.8264211416,2024-06-05 20:48:09.854154
42.89415438,-8.330312729,-8.978468895,-0.8264211416,2024-06-05 20:48:09.894154
42.93415438,-8.330312729,-8.978468895,-0.8264211416,2024-06-05 20:48:09.934154
42.97415438,-8.330312729,-8.978468895,-0.8264211416,2024-06-05 20:48:09.974154
43.01415438,-8.330312729,-8.978468895,-0.8264211416,2024-06-05 20:48:10.014154
43.05415438,-8.330312729,-8.978468895,-0.8264211416,2024-06-05 20:48:10.054154
43.09415438,-7.373483181,-6.091827393,-1.384546995,2024-06-05 20:48:10.094154
43.13415438,-7.373483181,-6.091827393,-1.384546995,2024-06-05 20:48:10.134154
43.17415438,-7.373483181,-6.091827393,-1.384546995,2024-06-05 20:48:10.174154
43.21415438,-2.396710873,-1.691127419,-1.782353759,2024-06-05 20:48:10.214154
43.25415438,-4.868795872,-2.473281384,0.704387188,2024-06-05 20:48:10.254154
43.29415438,-4.854438782,-3.151347399,1.153340459,2024-06-05 20:48:10.294154
43.33415438,-4.435395718,-2.952444077,0.02751746029,2024-06-05 20:48:10.334154
43.37415438,-4.55742979,-3.548855066,0.3604189157,2024-06-05 20:48:10.374154
43.41415438,-5.873781204,-4.485645294,-0.536590457,2024-06-05 20:48:10.414154
43.45415438,-8.379365921,-6.921837807,-0.4911268353,2024-06-05 20:48:10.454154
43.49415438,-9.255139351,-8.707780838,-1.351047516,2024-06-05 20:48:10.494154
43.53415438,-6.888338089,-8.379365921,-1.420439363,2024-06-05 20:48:10.534154
43.57415438,-8.90518856,-9.578469276,-1.854138494,2024-06-05 20:48:10.574154
43.61415438,-9.828818321,-10.63370419,-1.200000525,2024-06-05 20:48:10.614154
43.65415438,-9.85274601,-10.63490009,-0.9352945685,2024-06-05 20:48:10.654154
43.69415438,-7.478767395,-8.115856171,-0.5246263742,2024-06-05 20:48:10.694154
43.73415438,-4.977968216,-8.46819973,-0.4444667995,2024-06-05 20:48:10.734154
43.77415438,-5.228317261,-8.072785378,-0.6323033571,2024-06-05 20:48:10.774154
43.81415438,-5.319244862,-8.64167881,-0.2862414122,2024-06-05 20:48:10.814154
43.85415438,-6.46421051,-9.396315575,-2.039881229,2024-06-05 20:48:10.854154
43.89415438,-8.312366486,-8.154141426,-1.115055323,2024-06-05 20:48:10.894154
43.93415438,-10.31037331,-8.142177582,-1.997707844,2024-06-05 20:48:10.934154
43.97415438,-9.637093544,-9.736394882,-1.949851394,2024-06-05 20:48:10.974154
44.01415438,-8.374580383,-9.918548584,-1.727019787,2024-06-05 20:48:11.014154
44.05415438,-7.012764931,-6.083452702,-1.276870012,2024-06-05 20:48:11.054154
44.09415438,-6.764808655,-4.642374992,-1.4479568,2024-06-05 20:48:11.094154
44.13415438,-4.411168575,-4.364508629,-2.179861546,2024-06-05 20:48:11.134154
44.17415438,-2.745165825,-2.837588549,-1.46470654,2024-06-05 20:48:11.174154
44.21415438,-2.934497833,-1.420439363,0.08973085135,2024-06-05 20:48:11.214154
44.25415438,-4.897509575,-3.422035456,-0.2479562461,2024-06-05 20:48:11.254154
44.29415438,-6.634399891,-3.26979208,1.106680512,2024-06-05 20:48:11.294154
44.33415438,-5.747859001,-3.350250721,0.5629115105,2024-06-05 20:48:11.334154
44.37415438,-5.747859001,-3.350250721,0.5629115105,2024-06-05 20:48:11.374154
44.41415438,-5.747859001,-3.350250721,0.5629115105,2024-06-05 20:48:11.414154
44.45415438,-5.747859001,-3.350250721,0.5629115105,2024-06-05 20:48:11.454154
44.49415438,-5.747859001,-3.350250721,0.5629115105,2024-06-05 20:48:11.494154
44.53415438,-5.747859001,-3.350250721,0.5629115105,2024-06-05 20:48:11.534154
44.57415438,-5.747859001,-3.350250721,0.5629115105,2024-06-05 20:48:11.574154
44.61415438,-5.747859001,-3.350250721,0.5629115105,2024-06-05 20:48:11.614154
44.65415438,-5.747859001,-3.350250721,0.5629115105,2024-06-05 20:48:11.654154
44.69415438,-5.747859001,-3.350250721,0.5629115105,2024-06-05 20:48:11.694154
44.73415438,-5.747859001,-3.350250721,0.5629115105,2024-06-05 20:48:11.734154
44.77415438,-5.747859001,-3.350250721,0.5629115105,2024-06-05 20:48:11.774154
44.81415438,-5.747859001,-3.350250721,0.5629115105,2024-06-05 20:48:11.814154
44.85415438,-7.16022253,-7.466803074,-2.258824587,2024-06-05 20:48:11.854154
44.89415438,-7.585247993,-8.854939461,-2.581257343,2024-06-05 20:48:11.894154
44.93415438,-8.388936996,-8.266902924,-3.361018419,2024-06-05 20:48:11.934154
44.97415438,-10.64686394,-8.390133858,-2.945265532,2024-06-05 20:48:11.974154
45.01415438,-11.7332058,-8.83220768,-2.517548561,2024-06-05 20:48:12.014154
45.05415438,-6.793522358,-7.625925541,-1.532004714,2024-06-05 20:48:12.054154
45.09415438,-2.601596355,-4.976771832,-1.450349569,2024-06-05 20:48:12.094154
45.13415438,-3.631706476,-3.772883177,-0.9269196987,2024-06-05 20:48:12.134154
45.17415438,-3.262613773,-3.259024382,-0.8623134494,2024-06-05 20:48:12.174154
45.21415438,-4.271188259,-2.16670084,-0.03589234129,2024-06-05 20:48:12.214154
45.25415438,-4.189832687,-2.487638235,1.05523479,2024-06-05 20:48:12.254154
45.29415438,-2.849552631,-2.536691189,0.8168498278,2024-06-05 20:48:12.294154
45.33415438,-4.779065132,-3.299702406,-0.5389832854,2024-06-05 20:48:12.334154
45.37415438,-7.53858757,-6.049952984,-0.8958129883,2024-06-05 20:48:12.374154
45.41415438,-8.869296074,-8.11824894,-1.324726462,2024-06-05 20:48:12.414154
45.45415438,-8.522037506,-8.829814911,-1.242174029,2024-06-05 20:48:12.454154
45.49415438,-7.418946743,-9.039485931,-1.428814173,2024-06-05 20:48:12.494154
45.53415438,-8.633303642,-10.66720295,-1.79671073,2024-06-05 20:48:12.534154
45.57415438,-7.646564007,-9.702896118,-1.628913999,2024-06-05 20:48:12.574154
45.61415438,-8.747262001,-9.626325607,-1.511665702,2024-06-05 20:48:12.614154
45.65415438,-7.847560883,-9.280263901,-1.619342685,2024-06-05 20:48:12.654154
45.69415438,-6.484549522,-9.372386932,-2.068595171,2024-06-05 20:48:12.694154
45.73415438,-5.4652071,-8.343473434,-0.6574280262,2024-06-05 20:48:12.734154
45.77415438,-5.71077013,-8.717351913,-1.250548959,2024-06-05 20:48:12.774154
45.81415438,-6.757630348,-8.557929993,-1.731805444,2024-06-05 20:48:12.814154
45.85415438,-7.66451025,-8.314759254,-2.263610125,2024-06-05 20:48:12.854154
45.89415438,-8.865707397,-7.812865257,-2.497209549,2024-06-05 20:48:12.894154
45.93415438,-9.639486313,-8.982057571,-3.278167009,2024-06-05 20:48:12.934154
45.97415438,-9.218947411,-8.852546692,-2.112862349,2024-06-05 20:48:12.974154
46.01415438,-7.4010005,-6.405586243,-1.677966833,2024-06-05 20:48:13.014154
46.05415438,-7.4010005,-6.405586243,-1.677966833,2024-06-05 20:48:13.054154
46.09415438,-4.212564468,-4.448556423,-1.966601133,2024-06-05 20:48:13.094154
46.13415438,-4.212564468,-4.448556423,-1.966601133,2024-06-05 20:48:13.134154
46.17415438,-4.212564468,-4.448556423,-1.966601133,2024-06-05 20:48:13.174154
46.21415438,-4.212564468,-4.448556423,-1.966601133,2024-06-05 20:48:13.214154
46.25415438,-4.212564468,-4.448556423,-1.966601133,2024-06-05 20:48:13.254154
46.29415438,-4.212564468,-4.448556423,-1.966601133,2024-06-05 20:48:13.294154
46.33415438,-4.212564468,-4.448556423,-1.966601133,2024-06-05 20:48:13.334154
46.37415438,-4.212564468,-4.448556423,-1.966601133,2024-06-05 20:48:13.374154
46.41415438,-4.212564468,-4.448556423,-1.966601133,2024-06-05 20:48:13.414154
46.45415438,-4.212564468,-4.448556423,-1.966601133,2024-06-05 20:48:13.454154
46.49415438,-4.212564468,-4.448556423,-1.966601133,2024-06-05 20:48:13.494154
46.53415438,-8.765208244,-10.83350468,-1.874477386,2024-06-05 20:48:13.534154
46.57415438,-9.536594391,-9.28265667,-1.58703959,2024-06-05 20:48:13.574154
46.61415438,-8.290831566,-8.559126854,-1.715055585,2024-06-05 20:48:13.614154
46.65415438,-6.883552551,-9.0418787,-2.147558212,2024-06-05 20:48:13.654154
46.69415438,-5.848656654,-8.704191208,-0.9305089116,2024-06-05 20:48:13.694154
46.73415438,-5.720341682,-8.065607071,-0.8862416744,2024-06-05 20:48:13.734154
46.77415438,-6.758826733,-8.097909927,-1.688734531,2024-06-05 20:48:13.774154
46.81415438,-8.348258972,-8.115856171,-2.472084999,2024-06-05 20:48:13.814154
46.85415438,-9.580862045,-8.115856171,-2.501995087,2024-06-05 20:48:13.854154
46.89415438,-8.471788406,-7.941180229,-2.442174673,2024-06-05 20:48:13.894154
46.93415438,-7.596015453,-8.767601013,-2.605185747,2024-06-05 20:48:13.934154
46.97415438,-8.530412674,-6.940980434,-1.752443433,2024-06-05 20:48:13.974154
47.01415438,-6.943373203,-5.988636971,-1.8840487,2024-06-05 20:48:14.014154
47.05415438,-3.895216227,-5.023432255,-2.559721947,2024-06-05 20:48:14.054154
47.09415438,-3.575176239,-1.842174292,-0.5653043389,2024-06-05 20:48:14.094154
47.13415438,-2.855534792,-3.209971666,0.02033899166,2024-06-05 20:48:14.134154
47.17415438,-5.304887772,-3.262613773,0.7594220638,2024-06-05 20:48:14.174154
47.21415438,-3.61615324,-2.659024239,1.146162033,2024-06-05 20:48:14.214154
47.25415438,-3.384946823,-2.470888376,0.1052841991,2024-06-05 20:48:14.254154
47.29415438,-5.478367329,-4.321437836,-0.5653043389,2024-06-05 20:48:14.294154
47.33415438,-8.140980721,-7.466803074,-0.2659024298,2024-06-05 20:48:14.334154
47.37415438,-8.932705879,-9.623932838,-1.57866478,2024-06-05 20:48:14.374154
47.41415438,-8.769993782,-10.99053383,-1.323530078,2024-06-05 20:48:14.414154
47.45415438,-9.37717247,-9.255139351,-2.504388094,2024-06-05 20:48:14.454154
47.49415438,-9.510273933,-9.682557106,-2.367997169,2024-06-05 20:48:14.494154
47.53415438,-9.202198029,-9.546165466,-1.785943031,2024-06-05 20:48:14.534154
47.57415438,-8.404490471,-8.416454315,-1.348654628,2024-06-05 20:48:14.574154
47.61415438,-5.737091541,-9.245567322,-1.506880045,2024-06-05 20:48:14.614154
47.65415438,-5.297709465,-9.734002113,-0.9966106415,2024-06-05 20:48:14.654154
47.69415438,-6.455835342,-9.331708908,-1.048056364,2024-06-05 20:48:14.694154
47.73415438,-6.455835342,-9.331708908,-1.048056364,2024-06-05 20:48:14.734154
47.77415438,-6.455835342,-9.331708908,-1.048056364,2024-06-05 20:48:14.774154
47.81415438,-6.455835342,-9.331708908,-1.048056364,2024-06-05 20:48:14.814154
47.85415438,-6.455835342,-9.331708908,-1.048056364,2024-06-05 20:48:14.854154
47.89415438,-6.455835342,-9.331708908,-1.048056364,2024-06-05 20:48:14.894154
47.93415438,-6.455835342,-9.331708908,-1.048056364,2024-06-05 20:48:14.934154
47.97415438,-6.455835342,-9.331708908,-1.048056364,2024-06-05 20:48:14.974154
48.01415438,-6.455835342,-9.331708908,-1.048056364,2024-06-05 20:48:15.014154
48.05415438,-6.455835342,-9.331708908,-1.048056364,2024-06-05 20:48:15.054154
48.09415438,-3.74536562,-3.626920938,0.2479562461,2024-06-05 20:48:15.094154
48.13415438,-3.74536562,-3.626920938,0.2479562461,2024-06-05 20:48:15.134154
48.17415438,-3.74536562,-3.626920938,0.2479562461,2024-06-05 20:48:15.174154
48.21415438,-5.296513081,-3.747758389,0.1773679852,2024-06-05 20:48:15.214154
48.25415438,-7.247560501,-6.567400932,-0.6792625189,2024-06-05 20:48:15.254154
48.29415438,-7.601997375,-7.951947689,-1.077966571,2024-06-05 20:48:15.294154
48.33415438,-7.301399231,-7.732705593,-1.13419795,2024-06-05 20:48:15.334154
48.37415438,-9.600004196,-11.01087284,-1.966601133,2024-06-05 20:48:15.374154
48.41415438,-8.108677864,-9.761520386,-2.277069807,2024-06-05 20:48:15.414154
48.45415438,-8.477770805,-8.578269005,-2.563311338,2024-06-05 20:48:15.454154
48.49415438,-8.54357338,-9.522237778,-1.824228168,2024-06-05 20:48:15.494154
48.53415438,-8.008178711,-9.445367813,-1.989332914,2024-06-05 20:48:15.534154
48.57415438,-7.282256603,-8.664410591,-1.492523074,2024-06-05 20:48:15.574154
48.61415438,-6.826124668,-8.11824894,-0.8682954907,2024-06-05 20:48:15.614154
48.65415438,-5.803193092,-7.748258591,-2.050648928,2024-06-05 20:48:15.654154
48.69415438,-6.822236538,-8.665607452,-1.250548959,2024-06-05 20:48:15.694154
48.73415438,-9.003593445,-9.794121742,-2.100898266,2024-06-05 20:48:15.734154
48.77415438,-7.843971729,-8.913563728,-2.558525562,2024-06-05 20:48:15.774154
48.81415438,-7.85234642,-8.61296463,-3.268595695,2024-06-05 20:48:15.814154
48.85415438,-7.658527851,-7.170990467,-0.3005983531,2024-06-05 20:48:15.854154
48.89415438,-7.111169815,-6.060720444,-1.48295188,2024-06-05 20:48:15.894154
48.93415438,-5.128716469,-4.992325306,-2.189432621,2024-06-05 20:48:15.934154
48.97415438,-3.656831264,-2.637488842,-0.7307082415,2024-06-05 20:48:15.974154
49.01415438,-2.396710873,-0.5509474277,-0.005982056726,2024-06-05 20:48:16.014154
49.05415438,-4.03399992,-3.02063942,0.1076770201,2024-06-05 20:48:16.054154
49.09415438,-4.715655327,-2.226521492,0.5856433511,2024-06-05 20:48:16.094154
49.13415438,-4.456931114,-2.803789854,0.5401797295,2024-06-05 20:48:16.134154
49.17415438,-5.692824364,-5.42572546,-0.2036890239,2024-06-05 20:48:16.174154
49.21415438,-7.682456017,-7.968697548,-1.044467092,2024-06-05 20:48:16.214154
49.25415438,-9.163912773,-8.585447311,-0.641874671,2024-06-05 20:48:16.254154
49.29415438,-8.140980721,-9.645467758,-1.784746647,2024-06-05 20:48:16.294154
49.33415438,-7.715955734,-9.998708725,-2.14995122,2024-06-05 20:48:16.334154
49.37415438,-8.100302696,-9.611968994,-2.08534503,2024-06-05 20:48:16.374154
49.41415438,-8.100302696,-9.611968994,-2.08534503,2024-06-05 20:48:16.414154
49.45415438,-8.100302696,-9.611968994,-2.08534503,2024-06-05 20:48:16.454154
49.49415438,-8.100302696,-9.611968994,-2.08534503,2024-06-05 20:48:16.494154
49.53415438,-8.100302696,-9.611968994,-2.08534503,2024-06-05 20:48:16.534154
49.57415438,-8.100302696,-9.611968994,-2.08534503,2024-06-05 20:48:16.574154
49.61415438,-8.100302696,-9.611968994,-2.08534503,2024-06-05 20:48:16.614154
49.65415438,-8.100302696,-9.611968994,-2.08534503,2024-06-05 20:48:16.654154
49.69415438,-8.100302696,-9.611968994,-2.08534503,2024-06-05 20:48:16.694154
49.73415438,-8.100302696,-9.611968994,-2.08534503,2024-06-05 20:48:16.734154
49.77415438,-8.100302696,-9.611968994,-2.08534503,2024-06-05 20:48:16.774154
49.81415438,-8.100302696,-9.611968994,-2.08534503,2024-06-05 20:48:16.814154
49.85415438,-8.100302696,-9.611968994,-2.08534503,2024-06-05 20:48:16.854154
49.89415438,-3.254238844,-6.173183441,-0.7498508096,2024-06-05 20:48:16.894154
49.93415438,-2.680559635,-1.509272933,-1.402493119,2024-06-05 20:48:16.934154
49.97415438,-2.599203587,-1.986940145,-1.032503009,2024-06-05 20:48:16.974154
50.01415438,-3.590729475,-1.907976985,-0.01674975827,2024-06-05 20:48:17.014154
50.05415438,-4.244867325,-2.3201406,0.8515457511,2024-06-05 20:48:17.054154
50.09415438,-4.563411713,-3.36700058,0.1004985496,2024-06-05 20:48:17.094154
50.13415438,-6.058327675,-4.856831551,-0.4348955154,2024-06-05 20:48:17.134154
50.17415438,-7.304988384,-7.89182806,-0.9257232547,2024-06-05 20:48:17.174154
50.21415438,-7.688438416,-9.833603859,-1.318744421,2024-06-05 20:48:17.214154
50.25415438,-8.373383522,-10.43001461,-1.276870012,2024-06-05 20:48:17.254154
50.29415438,-7.314559937,-10.86491013,-1.762014747,2024-06-05 20:48:17.294154
50.33415438,-8.771190643,-9.708877563,-2.243271112,2024-06-05 20:48:17.334154
50.37415438,-7.85234642,-9.029914856,-1.272084355,2024-06-05 20:48:17.374154
50.41415438,-8.741280556,-9.911370277,-2.414657116,2024-06-05 20:48:17.414154
50.45415438,-7.447660446,-8.286046028,-1.186840057,2024-06-05 20:48:17.454154
50.49415438,-7.230811119,-7.384250641,-1.325922847,2024-06-05 20:48:17.494154
50.53415438,-6.544369698,-8.671588898,-0.774975419,2024-06-05 20:48:17.534154
50.57415438,-4.319045067,-10.04327488,-2.108076811,2024-06-05 20:48:17.574154
50.61415438,-9.151947975,-9.0418787,-1.535593987,2024-06-05 20:48:17.614154
50.65415438,-9.111269951,-9.098110199,-2.04586339,2024-06-05 20:48:17.654154
50.69415438,-8.732905388,-8.614161491,-2.341675997,2024-06-05 20:48:17.694154
50.73415438,-7.96391201,-8.14696312,-2.442174673,2024-06-05 20:48:17.734154
50.77415438,-7.466803074,-6.59731102,-1.255334616,2024-06-05 20:48:17.774154
50.81415438,-3.999304056,-3.859024763,-1.778764486,2024-06-05 20:48:17.814154
50.85415438,-2.569293261,-2.452942371,-1.614557028,2024-06-05 20:48:17.854154
50.89415438,-3.416053534,-1.394118309,-0.2838485837,2024-06-05 20:48:17.894154
50.93415438,-6.61166811,-3.831507206,-0.009571290575,2024-06-05 20:48:17.934154
50.97415438,-3.585943937,-1.834995866,0.6011967063,2024-06-05 20:48:17.974154
51.01415438,-3.194418192,-2.006082773,0.180957213,2024-06-05 20:48:18.014154
51.05415438,-4.852046013,-3.316452265,0.07298108935,2024-06-05 20:48:18.054154
51.09415438,-4.852046013,-3.316452265,0.07298108935,2024-06-05 20:48:18.094154
51.13415438,-4.852046013,-3.316452265,0.07298108935,2024-06-05 20:48:18.134154
51.17415438,-4.852046013,-3.316452265,0.07298108935,2024-06-05 20:48:18.174154
51.21415438,-4.852046013,-3.316452265,0.07298108935,2024-06-05 20:48:18.214154
51.25415438,-4.852046013,-3.316452265,0.07298108935,2024-06-05 20:48:18.254154
51.29415438,-4.852046013,-3.316452265,0.07298108935,2024-06-05 20:48:18.294154
51.33415438,-4.852046013,-3.316452265,0.07298108935,2024-06-05 20:48:18.334154
51.37415438,-4.852046013,-3.316452265,0.07298108935,2024-06-05 20:48:18.374154
51.41415438,-4.852046013,-3.316452265,0.07298108935,2024-06-05 20:48:18.414154
51.45415438,-4.852046013,-3.316452265,0.07298108935,2024-06-05 20:48:18.454154
51.49415438,-4.852046013,-3.316452265,0.07298108935,2024-06-05 20:48:18.494154
51.53415438,-4.852046013,-3.316452265,0.07298108935,2024-06-05 20:48:18.534154
51.57415438,-7.574480057,-8.434700012,-2.041077614,2024-06-05 20:48:18.574154
51.61415438,-9.22492981,-7.792526245,-2.213361025,2024-06-05 20:48:18.614154
51.65415438,-8.254939079,-7.333702087,-2.267199516,2024-06-05 20:48:18.654154
51.69415438,-8.976076126,-8.362615585,-2.090130568,2024-06-05 20:48:18.694154
51.73415438,-8.872885704,-6.896713257,-1.343868971,2024-06-05 20:48:18.734154
51.77415438,-5.694020748,-4.892724037,-1.445564032,2024-06-05 20:48:18.774154
51.81415438,-1.27328074,-3.823132277,-0.2838485837,2024-06-05 20:48:18.814154
51.85415438,-3.870988846,-1.777568102,-1.391725421,2024-06-05 20:48:18.854154
51.89415438,-4.787439823,-1.894816399,0.004785645287,2024-06-05 20:48:18.894154
51.93415438,-3.343969584,-1.367797256,0.1498505175,2024-06-05 20:48:18.934154
51.97415438,-5.208875656,-2.686541557,0.1316052526,2024-06-05 20:48:18.974154
52.01415438,-3.09272337,-3.567997694,-0.7630113363,2024-06-05 20:48:19.014154
52.05415438,-6.920641422,-5.623432159,-0.8312067389,2024-06-05 20:48:19.054154
52.09415438,-9.184251785,-9.293423653,-0.7701897621,2024-06-05 20:48:19.094154
52.13415438,-8.870492935,-11.38953686,-1.922333837,2024-06-05 20:48:19.134154
52.17415438,-9.201001167,-10.63131142,-1.664806366,2024-06-05 20:48:19.174154
52.21415438,-8.609375954,-10.32712364,-2.20618248,2024-06-05 20:48:19.214154
52.25415438,-8.363812447,-9.019146919,-0.9978070259,2024-06-05 20:48:19.254154
52.29415438,-7.56730175,-8.787940025,-1.782353759,2024-06-05 20:48:19.294154
52.33415438,-8.090731621,-9.45613575,-1.584646821,2024-06-05 20:48:19.334154
52.37415438,-7.526623726,-7.731509209,-1.025324464,2024-06-05 20:48:19.374154
52.41415438,-7.211668491,-8.134998322,-0.5688936114,2024-06-05 20:48:19.414154
52.45415438,-6.333801746,-9.664610863,-2.885445118,2024-06-05 20:48:19.454154
52.49415438,-8.80708313,-9.217751503,-2.654238462,2024-06-05 20:48:19.494154
52.53415438,-6.012565136,-5.530112267,-3.067299604,2024-06-05 20:48:19.534154
52.57415438,-8.621339798,-7.381857872,-1.057627559,2024-06-05 20:48:19.574154
52.61415438,-8.106285095,-8.825029373,-2.624328136,2024-06-05 20:48:19.614154
52.65415438,-8.991629601,-7.363911629,-2.350050926,2024-06-05 20:48:19.654154
52.69415438,-7.953144073,-6.883552551,-0.3951148391,2024-06-05 20:48:19.694154
52.73415438,-5.271388054,-5.021039009,-1.528415442,2024-06-05 20:48:19.734154
52.77415438,-3.28414917,-1.776371717,-1.663609982,2024-06-05 20:48:19.774154
52.81415438,-3.28414917,-1.776371717,-1.663609982,2024-06-05 20:48:19.814154
52.85415438,-3.28414917,-1.776371717,-1.663609982,2024-06-05 20:48:19.854154
52.89415438,-3.28414917,-1.776371717,-1.663609982,2024-06-05 20:48:19.894154
52.93415438,-3.28414917,-1.776371717,-1.663609982,2024-06-05 20:48:19.934154
52.97415438,-3.28414917,-1.776371717,-1.663609982,2024-06-05 20:48:19.974154
53.01415438,-3.28414917,-1.776371717,-1.663609982,2024-06-05 20:48:20.014154
53.05415438,-3.28414917,-1.776371717,-1.663609982,2024-06-05 20:48:20.054154
53.09415438,-3.28414917,-1.776371717,-1.663609982,2024-06-05 20:48:20.094154
53.13415438,-3.28414917,-1.776371717,-1.663609982,2024-06-05 20:48:20.134154
53.17415438,-3.28414917,-1.776371717,-1.663609982,2024-06-05 20:48:20.174154
53.21415438,-3.28414917,-1.776371717,-1.663609982,2024-06-05 20:48:20.214154
53.25415438,-9.177073479,-8.764012337,-1.372582912,2024-06-05 20:48:20.254154
53.29415438,-7.833203793,-9.053842545,-1.753639936,2024-06-05 20:48:20.294154
53.33415438,-6.516852379,-8.869296074,-0.6514459848,2024-06-05 20:48:20.334154
53.37415438,-5.192125797,-7.843971729,-0.7881359458,2024-06-05 20:48:20.374154
53.41415438,-4.780261517,-8.874081612,-1.383350611,2024-06-05 20:48:20.414154
53.45415438,-5.021039009,-7.89930582,-1.290030479,2024-06-05 20:48:20.454154
53.49415438,-7.563712597,-7.058228493,-0.6394818425,2024-06-05 20:48:20.494154
53.53415438,-7.356434345,-7.539783955,-2.665006161,2024-06-05 20:48:20.534154
53.57415438,-7.981858253,-7.613961697,-1.959422588,2024-06-05 20:48:20.574154
53.61415438,-7.846364498,-6.864409924,-1.639681697,2024-06-05 20:48:20.614154
53.65415438,-6.78873682,-5.134698391,-0.9221340418,2024-06-05 20:48:20.654154
53.69415438,-6.041578293,-4.849653244,-0.9798609018,2024-06-05 20:48:20.694154
53.73415438,-4.743172646,-3.771686792,-0.9954141974,2024-06-05 20:48:20.734154
53.77415438,-3.756133318,-2.29501605,-0.7881359458,2024-06-05 20:48:20.774154
53.81415438,-2.745165825,-2.537887573,-0.1304088384,2024-06-05 20:48:20.814154
53.85415438,-3.256631613,-1.711466432,-0.6311069727,2024-06-05 20:48:20.854154
53.89415438,-5.222335339,-2.42422843,0.4971089065,2024-06-05 20:48:20.894154
53.93415438,-5.585147381,-4.109373569,0.3125624657,2024-06-05 20:48:20.934154
53.97415438,-6.664309978,-5.33240509,-0.3604189157,2024-06-05 20:48:20.974154
54.01415438,-7.186543941,-7.545766354,-1.502094388,2024-06-05 20:48:21.014154
54.05415438,-8.437092781,-10.93789101,-1.205085278,2024-06-05 20:48:21.054154
54.09415438,-8.393722534,-11.52592754,-1.964208245,2024-06-05 20:48:21.094154
54.13415438,-8.595019341,-8.912366867,-2.350050926,2024-06-05 20:48:21.134154
54.17415438,-9.51386261,-9.432208061,-2.293819666,2024-06-05 20:48:21.174154
54.21415438,-8.882456779,-10.68873882,-1.763211131,2024-06-05 20:48:21.214154
54.25415438,-8.64526844,-9.999904633,-1.742872238,2024-06-05 20:48:21.254154
54.29415438,-7.505088329,-9.299406052,-0.728315413,2024-06-05 20:48:21.294154
54.33415438,-8.010572433,-8.195118904,-1.076770186,2024-06-05 20:48:21.334154
54.37415438,-5.93719101,-8.672785759,-1.173679471,2024-06-05 20:48:21.374154
54.41415438,-5.577968597,-8.418847084,-1.928315997,2024-06-05 20:48:21.414154
54.45415438,-5.577968597,-8.418847084,-1.928315997,2024-06-05 20:48:21.454154
54.49415438,-5.577968597,-8.418847084,-1.928315997,2024-06-05 20:48:21.494154
54.53415438,-5.577968597,-8.418847084,-1.928315997,2024-06-05 20:48:21.534154
54.57415438,-5.577968597,-8.418847084,-1.928315997,2024-06-05 20:48:21.574154
54.61415438,-5.577968597,-8.418847084,-1.928315997,2024-06-05 20:48:21.614154
54.65415438,-5.577968597,-8.418847084,-1.928315997,2024-06-05 20:48:21.654154
54.69415438,-5.577968597,-8.418847084,-1.928315997,2024-06-05 20:48:21.694154
54.73415438,-5.577968597,-8.418847084,-1.928315997,2024-06-05 20:48:21.734154
54.77415438,-5.577968597,-8.418847084,-1.928315997,2024-06-05 20:48:21.774154
54.81415438,-5.577968597,-8.418847084,-1.928315997,2024-06-05 20:48:21.814154
54.85415438,-5.577968597,-8.418847084,-1.928315997,2024-06-05 20:48:21.854154
54.89415438,-5.577968597,-8.418847084,-1.928315997,2024-06-05 20:48:21.894154
54.93415438,-5.184947491,-5.193322659,-1.116251707,2024-06-05 20:48:21.934154
54.97415438,-7.900502205,-6.732505798,-0.8300103545,2024-06-05 20:48:21.974154
55.01415438,-8.415258408,-9.19621563,-1.654038668,2024-06-05 20:48:22.014154
55.05415438,-9.308977127,-9.130413055,-1.583450437,2024-06-05 20:48:22.054154
55.09415438,-7.446464062,-9.4310112,-2.406282187,2024-06-05 20:48:22.094154
55.13415438,-8.7532444,-9.476474762,-2.23728919,2024-06-05 20:48:22.134154
55.17415438,-8.048856735,-9.232108116,-2.273181438,2024-06-05 20:48:22.174154
55.21415438,-8.512466431,-8.995218277,-2.587239504,2024-06-05 20:48:22.214154
55.25415438,-7.265506744,-8.617751122,-2.145165443,2024-06-05 20:48:22.254154
55.29415438,-6.39601469,-7.975875854,-1.358225942,2024-06-05 20:48:22.294154
55.33415438,-6.973283291,-8.980861664,-1.897209287,2024-06-05 20:48:22.334154
55.37415438,-5.509773254,-7.925626755,-0.9487541914,2024-06-05 20:48:22.374154
55.41415438,-7.569694519,-9.114859581,-1.964208245,2024-06-05 20:48:22.414154
55.45415438,-7.495516777,-8.487341881,-2.013560295,2024-06-05 20:48:22.454154
55.49415438,-8.367402077,-8.397312164,-2.906980515,2024-06-05 20:48:22.494154
55.53415438,-9.472886086,-9.232406616,-2.534298182,2024-06-05 20:48:22.534154
55.57415438,-8.804690361,-7.836793423,-1.251745343,2024-06-05 20:48:22.574154
55.61415438,-6.628417969,-6.29790926,-2.795415163,2024-06-05 20:48:22.614154
55.65415438,-4.440181732,-4.310669899,-0.36161533,2024-06-05 20:48:22.654154
55.69415438,-0.2371885478,-1.509272933,-0.8898309469,2024-06-05 20:48:22.694154
55.73415438,-3.757329702,-0.8778668046,-0.2168495506,2024-06-05 20:48:22.734154
55.77415438,-5.174180031,-3.996911049,0.01196411345,2024-06-05 20:48:22.774154
55.81415438,-4.98275423,-1.795514345,0.1052841991,2024-06-05 20:48:22.814154
55.85415438,-4.80897522,-2.924926519,-0.3317050338,2024-06-05 20:48:22.854154
55.89415438,-5.638985634,-5.514558792,-1.186840057,2024-06-05 20:48:22.894154
55.93415438,-7.72911644,-9.615557671,-1.677966833,2024-06-05 20:48:22.934154
55.97415438,-9.56411171,-10.45872879,-2.226521492,2024-06-05 20:48:22.974154
56.01415438,-8.525627136,-9.147162437,-1.886441588,2024-06-05 20:48:23.014154
56.05415438,-7.709973812,-9.153144836,-1.936690807,2024-06-05 20:48:23.054154
56.09415438,-7.84157896,-9.093324661,-2.446960211,2024-06-05 20:48:23.094154
56.13415438,-7.84157896,-9.093324661,-2.446960211,2024-06-05 20:48:23.134154
56.17415438,-7.84157896,-9.093324661,-2.446960211,2024-06-05 20:48:23.174154
56.21415438,-7.84157896,-9.093324661,-2.446960211,2024-06-05 20:48:23.214154
56.25415438,-7.84157896,-9.093324661,-2.446960211,2024-06-05 20:48:23.254154
56.29415438,-7.84157896,-9.093324661,-2.446960211,2024-06-05 20:48:23.294154
56.33415438,-7.84157896,-9.093324661,-2.446960211,2024-06-05 20:48:23.334154
56.37415438,-7.84157896,-9.093324661,-2.446960211,2024-06-05 20:48:23.374154
56.41415438,-7.84157896,-9.093324661,-2.446960211,2024-06-05 20:48:23.414154
56.45415438,-7.84157896,-9.093324661,-2.446960211,2024-06-05 20:48:23.454154
56.49415438,-7.84157896,-9.093324661,-2.446960211,2024-06-05 20:48:23.494154
56.53415438,-7.84157896,-9.093324661,-2.446960211,2024-06-05 20:48:23.534154
56.57415438,-7.84157896,-9.093324661,-2.446960211,2024-06-05 20:48:23.574154
56.61415438,-3.386143208,-2.758326292,-0.6239284873,2024-06-05 20:48:23.614154
56.65415438,-3.609872103,-3.14895463,-1.770389676,2024-06-05 20:48:23.654154
56.69415438,-5.903691769,-2.431406975,-0.3376871049,2024-06-05 20:48:23.694154
56.73415438,-3.032603502,-3.298506021,1.927119493,2024-06-05 20:48:23.734154
56.77415438,-3.142972469,-3.05174613,1.248156071,2024-06-05 20:48:23.774154
56.81415438,-3.611068487,-4.567001343,-0.02512463741,2024-06-05 20:48:23.814154
56.85415438,-6.394818306,-6.169594288,-1.298405409,2024-06-05 20:48:23.854154
56.89415438,-7.975875854,-8.187939644,-1.502094388,2024-06-05 20:48:23.894154
56.93415438,-8.193922043,-7.086942673,-2.216950178,2024-06-05 20:48:23.934154
56.97415438,-9.368798256,-8.884849548,-2.195414782,2024-06-05 20:48:23.974154
57.01415438,-8.213064194,-10.33310509,-2.395514488,2024-06-05 20:48:24.014154
57.05415438,-8.226224899,-9.154341698,-2.227717876,2024-06-05 20:48:24.054154
57.09415438,-7.616354465,-9.850353241,-1.213460207,2024-06-05 20:48:24.094154
57.13415438,-8.140980721,-10.10548782,-1.89242363,2024-06-05 20:48:24.134154
57.17415438,-6.6260252,-9.064610481,-1.582253933,2024-06-05 20:48:24.174154
57.21415438,-5.412564754,-7.896913052,-0.7498508096,2024-06-05 20:48:24.214154
57.25415438,-4.454538345,-9.316155434,-1.724626899,2024-06-05 20:48:24.254154
57.29415438,-5.524130344,-8.160123825,-1.342672586,2024-06-05 20:48:24.294154
57.33415438,-9.820443153,-8.707780838,-1.83619225,2024-06-05 20:48:24.334154
57.37415438,-9.220144272,-8.438288689,-3.30089879,2024-06-05 20:48:24.374154
57.41415438,-8.038089752,-9.1423769,-2.240878344,2024-06-05 20:48:24.414154
57.45415438,-8.500502586,-8.510073662,-1.435992718,2024-06-05 20:48:24.454154
57.49415438,-7.363911629,-7.972286701,-2.0769701,2024-06-05 20:48:24.494154
57.53415438,-5.654539108,-6.603293419,-1.899602056,2024-06-05 20:48:24.534154
57.57415438,-3.92991209,-3.099901676,-1.986940145,2024-06-05 20:48:24.574154
57.61415438,-1.750050664,-1.775175333,-0.6346961856,2024-06-05 20:48:24.614154
57.65415438,-4.153940201,-2.196611166,-0.1028913707,2024-06-05 20:48:24.654154
57.69415438,-3.410071373,-2.814856768,0.4157529473,2024-06-05 20:48:24.694154
57.73415438,-4.242474556,-2.588435888,0.4791627228,2024-06-05 20:48:24.734154
57.77415438,-5.526523113,-3.722633839,-0.494716078,2024-06-05 20:48:24.774154
57.81415438,-5.526523113,-3.722633839,-0.494716078,2024-06-05 20:48:24.814154
57.85415438,-5.526523113,-3.722633839,-0.494716078,2024-06-05 20:48:24.854154
57.89415438,-5.526523113,-3.722633839,-0.494716078,2024-06-05 20:48:24.894154
57.93415438,-5.526523113,-3.722633839,-0.494716078,2024-06-05 20:48:24.934154
57.97415438,-5.526523113,-3.722633839,-0.494716078,2024-06-05 20:48:24.974154
58.01415438,-5.526523113,-3.722633839,-0.494716078,2024-06-05 20:48:25.014154
58.05415438,-5.526523113,-3.722633839,-0.494716078,2024-06-05 20:48:25.054154
58.09415438,-6.783951283,-8.791529655,-1.790728688,2024-06-05 20:48:25.094154
58.13415438,-6.783951283,-8.791529655,-1.790728688,2024-06-05 20:48:25.134154
58.17415438,-6.783951283,-8.791529655,-1.790728688,2024-06-05 20:48:25.174154
58.21415438,-6.783951283,-8.791529655,-1.790728688,2024-06-05 20:48:25.214154
58.25415438,-6.783951283,-8.791529655,-1.790728688,2024-06-05 20:48:25.254154
58.29415438,-7.919644833,-11.07667542,-2.525923491,2024-06-05 20:48:25.294154
58.33415438,-6.455835342,-7.633403301,-2.08534503,2024-06-05 20:48:25.334154
58.37415438,-11.6204443,-8.300402641,-3.562015533,2024-06-05 20:48:25.374154
58.41415438,-7.628617764,-9.676574707,-2.957229614,2024-06-05 20:48:25.414154
58.45415438,-7.001997471,-5.91206646,-2.300997972,2024-06-05 20:48:25.454154
58.49415438,-5.591129303,-5.901299,-1.397707582,2024-06-05 20:48:25.494154
58.53415438,-3.395714521,-4.038785458,-1.195214868,2024-06-05 20:48:25.534154
58.57415438,-1.652842283,-2.10209465,-0.2982055247,2024-06-05 20:48:25.574154
58.61415438,-3.28414917,-2.473281384,-0.8347960114,2024-06-05 20:48:25.614154
58.65415438,-4.995914459,-2.45533514,0.2503490746,2024-06-05 20:48:25.654154
58.69415438,-5.747859001,-2.202593327,0.7737790346,2024-06-05 20:48:25.694154
58.73415438,-4.931009293,-4.316651821,-0.5114658475,2024-06-05 20:48:25.734154
58.77415438,-6.999604225,-6.160022736,-0.9523434043,2024-06-05 20:48:25.774154
58.81415438,-6.956533432,-8.155337334,-1.583450437,2024-06-05 20:48:25.814154
58.85415438,-8.193922043,-8.270492554,-0.9894321561,2024-06-05 20:48:25.854154
58.89415438,-7.024729252,-9.002396584,-1.566700578,2024-06-05 20:48:25.894154
58.93415438,-8.286046028,-10.54367352,-1.700698733,2024-06-05 20:48:25.934154
58.97415438,-9.064610481,-10.2909317,-2.330908298,2024-06-05 20:48:25.974154
59.01415438,-8.957830429,-8.642875671,-2.146361828,2024-06-05 20:48:26.014154
59.05415438,-7.052246571,-8.545966148,-2.522334099,2024-06-05 20:48:26.054154
59.09415438,-7.052246571,-9.312566757,-1.733001828,2024-06-05 20:48:26.094154
59.13415438,-5.950351715,-7.585247993,-0.7331010103,2024-06-05 20:48:26.134154
59.17415438,-5.296513081,-8.272885323,-1.563111424,2024-06-05 20:48:26.174154
59.21415438,-6.795915604,-9.515059471,-2.324926376,2024-06-05 20:48:26.214154
59.25415438,-10.34626579,-9.651450157,-2.111665964,2024-06-05 20:48:26.254154
59.29415438,-8.022536278,-8.884849548,-2.169093609,2024-06-05 20:48:26.294154
59.33415438,-7.858328819,-9.810872078,-2.951247692,2024-06-05 20:48:26.334154
59.37415438,-8.041678429,-8.67039299,-1.237388372,2024-06-05 20:48:26.374154
59.41415438,-5.053342342,-6.097809315,-0.643071115,2024-06-05 20:48:26.414154
59.45415438,-5.110770226,-4.581357956,-1.41685009,2024-06-05 20:48:26.454154
59.49415438,-5.110770226,-4.581357956,-1.41685009,2024-06-05 20:48:26.494154
59.53415438,-5.110770226,-4.581357956,-1.41685009,2024-06-05 20:48:26.534154
59.57415438,-5.110770226,-4.581357956,-1.41685009,2024-06-05 20:48:26.574154
59.61415438,-5.110770226,-4.581357956,-1.41685009,2024-06-05 20:48:26.614154
59.65415438,-5.110770226,-4.581357956,-1.41685009,2024-06-05 20:48:26.654154
59.69415438,-5.110770226,-4.581357956,-1.41685009,2024-06-05 20:48:26.694154
59.73415438,-5.110770226,-4.581357956,-1.41685009,2024-06-05 20:48:26.734154
59.77415438,-5.110770226,-4.581357956,-1.41685009,2024-06-05 20:48:26.774154
59.81415438,-5.110770226,-4.581357956,-1.41685009,2024-06-05 20:48:26.814154
59.85415438,-5.110770226,-4.581357956,-1.41685009,2024-06-05 20:48:26.854154
59.89415438,-5.110770226,-4.581357956,-1.41685009,2024-06-05 20:48:26.894154
59.93415438,-5.110770226,-4.581357956,-1.41685009,2024-06-05 20:48:26.934154
59.97415438,-8.138587952,-8.61655426,-1.710269928,2024-06-05 20:48:26.974154
60.01415438,-7.378268719,-8.593822479,-2.130808592,2024-06-05 20:48:27.014154
60.05415438,-6.537191391,-9.501898766,-1.797907114,2024-06-05 20:48:27.054154
60.09415438,-6.579364777,-9.201001167,-1.643270969,2024-06-05 20:48:27.094154
60.13415438,-6.177968979,-8.567501068,-2.190629244,2024-06-05 20:48:27.134154
60.17415438,-5.855835438,-8.008178711,-1.223031521,2024-06-05 20:48:27.174154
60.21415438,-7.72552681,-8.440681458,-1.628913999,2024-06-05 20:48:27.214154
60.25415438,-9.045467377,-9.87787056,-2.396710873,2024-06-05 20:48:27.254154
60.29415438,-8.006982803,-7.672884941,-2.452942371,2024-06-05 20:48:27.294154
60.33415438,-10.11864853,-9.522237778,-2.845963478,2024-06-05 20:48:27.334154
60.37415438,-7.277471066,-7.393822193,-2.362015009,2024-06-05 20:48:27.374154
60.41415438,-4.745565414,-4.662714005,-1.959422588,2024-06-05 20:48:27.414154
60.45415438,-4.067499161,-3.26141715,-2.013560295,2024-06-05 20:48:27.454154
60.49415438,-0.2958126962,-2.629113913,-0.4253242314,2024-06-05 20:48:27.494154
60.53415438,-5.098805904,-1.998904228,0.6023930907,2024-06-05 20:48:27.534154
60.57415438,-3.920340776,-2.906980515,0.7869395614,2024-06-05 20:48:27.574154
60.61415438,-3.907180309,-2.130808592,0.7187440991,2024-06-05 20:48:27.614154
60.65415438,-4.645964146,-2.938086987,-0.6311069727,2024-06-05 20:48:27.654154
60.69415438,-6.454638958,-6.945765972,-1.110269666,2024-06-05 20:48:27.694154
60.73415438,-9.113663673,-10.5664053,-1.913959026,2024-06-05 20:48:27.734154
60.77415438,-7.799704552,-9.128020287,-2.139183521,2024-06-05 20:48:27.774154
60.81415438,-8.550751686,-9.015557289,-2.621935368,2024-06-05 20:48:27.814154
60.85415438,-7.89930582,-10.91037369,-1.983350873,2024-06-05 20:48:27.854154
60.89415438,-8.079963684,-9.80249691,-0.8682954907,2024-06-05 20:48:27.894154
60.93415438,-7.85234642,-8.664410591,-1.317547917,2024-06-05 20:48:27.934154
60.97415438,-7.966304779,-8.795118332,-2.287837505,2024-06-05 20:48:27.974154
61.01415438,-7.515855789,-8.11824894,-1.243370414,2024-06-05 20:48:28.014154
61.05415438,-6.827321053,-8.675178528,-2.407478571,2024-06-05 20:48:28.054154
61.09415438,-2.446960211,-9.057432175,-2.199003935,2024-06-05 20:48:28.094154
61.13415438,-2.446960211,-9.057432175,-2.199003935,2024-06-05 20:48:28.134154
61.17415438,-2.446960211,-9.057432175,-2.199003935,2024-06-05 20:48:28.174154
61.21415438,-2.446960211,-9.057432175,-2.199003935,2024-06-05 20:48:28.214154
61.25415438,-2.446960211,-9.057432175,-2.199003935,2024-06-05 20:48:28.254154
61.29415438,-2.446960211,-9.057432175,-2.199003935,2024-06-05 20:48:28.294154
61.33415438,-2.446960211,-9.057432175,-2.199003935,2024-06-05 20:48:28.334154
61.37415438,-2.446960211,-9.057432175,-2.199003935,2024-06-05 20:48:28.374154
61.41415438,-2.446960211,-9.057432175,-2.199003935,2024-06-05 20:48:28.414154
61.45415438,-2.446960211,-9.057432175,-2.199003935,2024-06-05 20:48:28.454154
61.49415438,-2.446960211,-9.057432175,-2.199003935,2024-06-05 20:48:28.494154
61.53415438,-2.446960211,-9.057432175,-2.199003935,2024-06-05 20:48:28.534154
61.57415438,-2.446960211,-9.057432175,-2.199003935,2024-06-05 20:48:28.574154
61.61415438,-2.446960211,-9.057432175,-2.199003935,2024-06-05 20:48:28.614154
61.65415438,-8.847761154,-7.953144073,-1.006181955,2024-06-05 20:48:28.654154
61.69415438,-8.980861664,-11.08863926,-2.747558594,2024-06-05 20:48:28.694154
