Time (s),Gyroscope x (rad/s),Gyroscope y (rad/s),Gyroscope z (rad/s),Datetime
0.075619689,-0.002396774245,0.4015928507,0.5737611651,2024-06-05 20:47:27.075620
0.160801928,-0.2276935577,0.5691007376,0.7878729701,2024-06-05 20:47:27.160802
0.201178907,-0.4579170346,0.7354102731,1.004248381,2024-06-05 20:47:27.201179
0.241668907,-0.3137111366,1.253512979,1.370155931,2024-06-05 20:47:27.241669
0.282180001,-0.2772268951,1.789325118,1.970547915,2024-06-05 20:47:27.282180
0.322671199,-0.2162422985,2.343645811,1.991320014,2024-06-05 20:47:27.322671
0.363179584,-0.1256974936,1.775743484,1.341128349,2024-06-05 20:47:27.363180
0.403633699,-0.2018616647,0.2266283184,-0.06364767253,2024-06-05 20:47:27.403634
0.444162293,-0.1595186442,0.6111774445,0.3388772607,2024-06-05 20:47:27.444162
0.484587918,-0.2604494691,0.3419398069,0.2456693649,2024-06-05 20:47:27.484588
0.52506448,0.2834851444,-0.06884068251,-0.2479329854,2024-06-05 20:47:27.525064
0.565462762,0.5636414289,-0.3292901516,-0.1248985752,2024-06-05 20:47:27.565463
0.605927605,-0.6219629049,0.5499265194,-0.3734973371,2024-06-05 20:47:27.605928
0.646416199,-2.524602175,1.769352078,-2.061092854,2024-06-05 20:47:27.646416
0.686881772,-3.019536257,2.296509266,-2.552298307,2024-06-05 20:47:27.686882
0.727402084,-2.47746563,2.507292271,-2.991307497,2024-06-05 20:47:27.727402
0.767862605,-2.361621618,1.23021102,-2.284658432,2024-06-05 20:47:27.767863
0.808309376,-2.633522272,1.092529655,-2.466813326,2024-06-05 20:47:27.808309
0.848853491,-2.620206833,1.740324497,-2.328865767,2024-06-05 20:47:27.848853
0.889373595,-1.936460495,1.131943226,-1.459102988,2024-06-05 20:47:27.889374
0.929779689,-1.304644108,1.995048285,-1.391460657,2024-06-05 20:47:27.929780
0.970402084,-3.048563719,0.158986032,0.1296921223,2024-06-05 20:47:27.970402
1.010802657,-4.620581627,-1.143527627,1.489595175,2024-06-05 20:47:28.010803
1.051224845,-0.1310236603,0.9404675961,1.040466309,2024-06-05 20:47:28.051225
1.091710574,1.384802938,0.3318201005,1.419955611,2024-06-05 20:47:28.091711
1.13223823,1.272420883,-0.1535267085,0.4563191831,2024-06-05 20:47:28.132238
1.172693282,0.5556522012,0.2569874525,-0.6382077336,2024-06-05 20:47:28.172693
1.213147762,-0.6485937834,0.01291595027,-1.14672339,2024-06-05 20:47:28.213148
1.253640939,-0.04660394415,-1.371886969,-1.259105444,2024-06-05 20:47:28.253641
1.294141355,0.05459319428,-1.210504174,-1.533136606,2024-06-05 20:47:28.294141
1.334674897,0.6533873081,-1.695451498,-1.403178215,2024-06-05 20:47:28.334675
1.375131043,0.9374050498,-0.5572500229,-3.272528887,2024-06-05 20:47:28.375131
1.415703126,-0.4342156053,0.836341083,-0.9986559749,2024-06-05 20:47:28.415703
1.456125522,0.1496652365,0.9236901999,0.235949114,2024-06-05 20:47:28.456126
1.496622189,0.6057181358,0.2111824453,-0.7255568504,2024-06-05 20:47:28.496622
1.537094012,-0.4134435654,0.4367455542,-2.09784317,2024-06-05 20:47:28.537094
1.577565418,-1.043129444,-0.1458037645,-2.560553789,2024-06-05 20:47:28.577565
1.617912032,-0.8571131229,0.640604496,-3.151625156,2024-06-05 20:47:28.617912
1.658607605,0.4501941204,0.5544537902,-3.666265726,2024-06-05 20:47:28.658608
1.69903573,0.4581833482,0.7553833723,-3.884105921,2024-06-05 20:47:28.699036
1.739526876,0.1062569916,0.6552514434,-3.719527483,2024-06-05 20:47:28.739527
1.780016095,0.5026568174,0.8501890898,-0.2394111156,2024-06-05 20:47:28.780016
1.820484949,0.02263620123,-0.4376776218,0.186149478,2024-06-05 20:47:28.820485
1.860838855,-0.1171756312,-0.4656399786,0.8971925378,2024-06-05 20:47:28.860839
1.901466564,0.2312887162,0.05485950038,0.5588479042,2024-06-05 20:47:28.901467
1.941932605,0.3615134656,0.03834838793,0.4619116783,2024-06-05 20:47:28.941933
1.982460418,0.5111786723,0.03621792421,0.5726959109,2024-06-05 20:47:28.982460
2.022762345,0.8884043694,0.3736304939,0.9387366176,2024-06-05 20:47:29.022762
2.063118647,0.6912030578,0.2143781483,1.190930486,2024-06-05 20:47:29.063119
2.10373047,0.5223636627,0.1302247345,1.050586104,2024-06-05 20:47:29.103730
2.14437073,0.3074528873,-0.05951989442,1.091331244,2024-06-05 20:47:29.144371
2.184876043,0.2994636297,-0.4440690279,0.548728168,2024-06-05 20:47:29.184876
2.225376459,0.1177082509,-0.2683055699,0.371633172,2024-06-05 20:47:29.225376
2.265839741,-0.08441971987,-0.2110492885,0.2394111156,2024-06-05 20:47:29.265840
2.306322657,-0.1094526947,-0.3466002047,0.07829462737,2024-06-05 20:47:29.306323
2.346784428,-0.1320888996,-0.3772256374,-0.05246272683,2024-06-05 20:47:29.346784
2.38728922,0.006125089712,-0.2853493094,0.0007989247679,2024-06-05 20:47:29.387289
2.427769324,0.2379464209,-0.08694964647,0.1616491079,2024-06-05 20:47:29.427769
2.468239116,0.4408733249,-0.0904116556,0.259783715,2024-06-05 20:47:29.468239
2.508712709,0.9062470198,-0.2587184608,0.403323859,2024-06-05 20:47:29.508713
2.549189637,1.291062474,-0.5375432372,0.6576482654,2024-06-05 20:47:29.549190
2.589699637,1.474681973,-0.7461957335,0.6451317668,2024-06-05 20:47:29.589700
2.630177397,1.472817779,-0.5367442966,0.7505898476,2024-06-05 20:47:29.630177
2.670652866,1.151516914,-0.2893439233,0.5513912439,2024-06-05 20:47:29.670653
2.711130678,0.9227581024,0.1504641622,0.6424686909,2024-06-05 20:47:29.711131
2.751625834,0.6232944727,0.301194638,0.7005238533,2024-06-05 20:47:29.751626
2.792133595,0.471232444,0.5232957006,0.8527190089,2024-06-05 20:47:29.792134
2.832622814,0.4256937504,0.3746957183,0.6057181358,2024-06-05 20:47:29.832623
2.873049845,0.3447360396,0.3983971477,0.411046803,2024-06-05 20:47:29.873050
2.91355922,0.4549876451,0.003861469682,0.4762923121,2024-06-05 20:47:29.913559
2.954020574,0.3077192008,-0.0544600375,0.0708379969,2024-06-05 20:47:29.954021
2.994329741,0.1326215118,0.1209039465,0.07643046975,2024-06-05 20:47:29.994330
3.034910418,0.1781602204,-0.000932078925,0.06418029219,2024-06-05 20:47:30.034910
3.075319949,0.07829462737,0.3027924895,-0.0074566314,2024-06-05 20:47:30.075320
3.115926824,0.3074528873,0.06710968167,0.05698996782,2024-06-05 20:47:30.115927
3.156509897,0.4637758136,-0.103727065,-0.037815772,2024-06-05 20:47:30.156510
3.196951928,0.3796224296,-0.0275629051,-0.2207695395,2024-06-05 20:47:30.196952
3.237463647,0.2509955168,-0.0467370972,-0.1848179251,2024-06-05 20:47:30.237464
3.277955314,-0.1171756312,-0.06564498693,-0.2013290375,2024-06-05 20:47:30.277955
3.31841948,-0.4414059222,0.4742949903,0.0181089621,2024-06-05 20:47:30.318419
3.358851512,-0.6906704903,0.479621172,0.1600512564,2024-06-05 20:47:30.358852
3.39936547,-0.7119750977,0.3131785095,0.2047910541,2024-06-05 20:47:30.399365
3.439857918,-0.8488575816,0.2308892608,0.2736317217,2024-06-05 20:47:30.439858
3.480333959,-0.579087317,-0.1444722265,0.2438052148,2024-06-05 20:47:30.480334
3.520828751,-0.2865476906,-0.4073184729,0.1696383655,2024-06-05 20:47:30.520829
3.561314324,-0.1933397949,-0.1018629074,0.1177082509,2024-06-05 20:47:30.561314
3.601787032,-0.1462032348,0.04181039706,-0.01384802908,2024-06-05 20:47:30.601787
3.642285418,-0.08575125784,0.06098458916,-0.134485662,2024-06-05 20:47:30.642285
3.682780157,0.06657706201,-0.1655105799,-0.08947957307,2024-06-05 20:47:30.682780
3.723260626,0.1326215118,-0.2376801223,-0.1818885356,2024-06-05 20:47:30.723261
3.763735522,0.06977276504,-0.09627043456,-0.09826774895,2024-06-05 20:47:30.763736
3.804062501,0.02529928461,-0.04434032366,-0.06178351492,2024-06-05 20:47:30.804063
3.84438948,-0.005326164886,-0.01584534161,-0.0822892487,2024-06-05 20:47:30.844389
3.885054949,-0.1280942708,-0.1194392517,0.1110505462,2024-06-05 20:47:30.885055
3.92565948,-0.3294233084,-0.03075860441,0.1909430176,2024-06-05 20:47:30.925659
3.966104064,-0.5351464152,0.005725627299,0.4070521593,2024-06-05 20:47:30.966104
4.006606043,-0.4896077216,-0.1548582464,0.5130428672,2024-06-05 20:47:31.006606
4.047063803,-0.2929390669,-0.4248948097,0.4049217105,2024-06-05 20:47:31.047064
4.087583334,-0.2908086181,-0.3705679476,0.394269377,2024-06-05 20:47:31.087583
4.127981928,-0.3083849549,-0.2936048508,0.3700353205,2024-06-05 20:47:31.127982
4.168507866,-0.31024912,-0.2986647189,0.3122464418,2024-06-05 20:47:31.168508
4.208994949,-0.327026546,-0.2432725877,0.264310956,2024-06-05 20:47:31.208995
4.249510053,-0.4139761925,-0.1636464298,0.213312909,2024-06-05 20:47:31.249510
4.289995053,-0.5663045049,-0.1466026902,0.2396774292,2024-06-05 20:47:31.289995
4.330448491,-0.8235582709,0.09161003679,0.2451367527,2024-06-05 20:47:31.330448
4.370902084,-1.02502048,0.4463326335,0.3263607621,2024-06-05 20:47:31.370902
4.411413439,-1.0591079,0.7495245934,0.3958672285,2024-06-05 20:47:31.411413
4.451931459,-0.9756202698,0.4199681282,0.3119801283,2024-06-05 20:47:31.451931
4.492411824,-0.6027887464,-0.2027937323,0.4153077304,2024-06-05 20:47:31.492412
4.532932449,-0.09480573982,-0.8207620382,0.08788172156,2024-06-05 20:47:31.532932
4.573361668,0.3063876629,-0.7866745591,-0.09560466558,2024-06-05 20:47:31.573362
4.613858855,0.3181052208,-1.065765619,0.07243584841,2024-06-05 20:47:31.613859
4.654314949,-0.3310211599,-1.05990684,-0.2007964253,2024-06-05 20:47:31.654315
4.694781355,-0.7396711707,-0.6298190355,-0.2141118348,2024-06-05 20:47:31.694781
4.735228699,-0.9439296126,-0.4009270668,-0.493868649,2024-06-05 20:47:31.735229
4.775779116,-0.9941287041,-0.4331503808,-0.4299546778,2024-06-05 20:47:31.775779
4.816266876,-0.5870765448,-0.7770875096,-0.4640421271,2024-06-05 20:47:31.816267
4.856714532,-0.918364048,-0.3817528784,-0.9997211695,2024-06-05 20:47:31.856715
4.897166668,-0.8706948161,-0.003861469682,-0.8400694132,2024-06-05 20:47:31.897167
4.937720991,-0.6051855087,-0.4334166944,-0.3627118468,2024-06-05 20:47:31.937721
4.978204272,-0.6600450277,0.2492645234,-0.2729659677,2024-06-05 20:47:31.978204
5.018692553,-1.291861296,0.3155752718,-0.3584509194,2024-06-05 20:47:32.018693
5.059181303,-2.042717457,0.07962616533,-0.4456668794,2024-06-05 20:47:32.059181
5.09964172,-1.803306341,-0.3849485815,0.3881442845,2024-06-05 20:47:32.099642
5.140139012,-1.006645203,-0.3228987455,0.2834851444,2024-06-05 20:47:32.140139
5.180590626,-0.799590528,-0.3130453527,-0.01517957076,2024-06-05 20:47:32.180591
5.221048074,-0.6382077336,-0.04993279651,-0.03861469775,2024-06-05 20:47:32.221048
5.261587449,-0.6917356849,-0.001464695437,-0.313444823,2024-06-05 20:47:32.261587
5.302074584,-0.5335485935,0.2633788586,-0.4952002168,2024-06-05 20:47:32.302075
5.342554376,-0.3648423254,0.2463351339,-0.1451379955,2024-06-05 20:47:32.342554
5.383016876,-0.339276731,0.1206376404,-0.04820179567,2024-06-05 20:47:32.383017
5.423525314,-0.3953346014,-0.2621804774,-0.2170412242,2024-06-05 20:47:32.423525
5.464007553,-0.382019192,-0.4653736651,-0.2338186502,2024-06-05 20:47:32.464008
5.504476303,0.1262301207,-0.8596430421,-0.09001219273,2024-06-05 20:47:32.504476
5.544879376,0.2677729428,-0.834610045,-0.3544562757,2024-06-05 20:47:32.544879
5.58543323,-0.5308855176,1.530739903,-0.8414009213,2024-06-05 20:47:32.585433
5.62591172,-0.2852161527,1.456439853,1.369623303,2024-06-05 20:47:32.625912
5.666399689,0.3181052208,-0.8881380558,0.8708279729,2024-06-05 20:47:32.666400
5.706912501,-0.08308817446,0.447930485,-0.1986659616,2024-06-05 20:47:32.706913
5.74740297,0.597995162,0.2567211688,-0.037815772,2024-06-05 20:47:32.747403
5.78787672,0.2446041405,0.3552552164,0.3223661482,2024-06-05 20:47:32.787877
5.828397501,-0.007190322969,0.3864132762,0.5894733071,2024-06-05 20:47:32.828398
5.868865105,0.1944050342,-0.158320263,0.8897358775,2024-06-05 20:47:32.868865
5.909290105,0.2837514579,0.4886756539,0.190676704,2024-06-05 20:47:32.909290
5.949800991,0.5378095508,1.260969639,1.091331244,2024-06-05 20:47:32.949801
5.990321043,0.2826862037,0.8608414531,1.544987321,2024-06-05 20:47:32.990321
6.030795053,0.052196417,0.5310186744,0.5170374513,2024-06-05 20:47:33.030795
6.071267397,0.04234301299,0.5216978788,0.3689700961,2024-06-05 20:47:33.071267
6.111706147,0.07722939551,-0.1870815456,0.1440727711,2024-06-05 20:47:33.111706
6.15222323,0.1142462417,-0.3026593328,-0.311580658,2024-06-05 20:47:33.152223
6.192723959,0.1299584359,0.1509967744,-0.2852161527,2024-06-05 20:47:33.192724
6.23320198,0.259783715,0.2319544852,-0.1672415882,2024-06-05 20:47:33.233202
6.273703699,0.1616491079,0.6690995097,0.03728315607,2024-06-05 20:47:33.273704
6.31417297,0.6392729878,0.6178351641,0.83314538,2024-06-05 20:47:33.314173
6.354613699,0.4440690279,0.3579182923,0.7162360549,2024-06-05 20:47:33.354614
6.395165209,0.4688356817,0.2993304729,0.2616478503,2024-06-05 20:47:33.395165
6.435626772,0.2683055699,0.1288931966,0.05033225939,2024-06-05 20:47:33.435627
6.476150366,0.1259638071,-0.3447360396,-0.1872147024,2024-06-05 20:47:33.476150
6.516571147,0.09853405505,0.1027949899,-0.1264964193,2024-06-05 20:47:33.516571
6.55710172,0.08628387749,0.2972000241,0.6443328261,2024-06-05 20:47:33.557102
6.59757073,0.02130465955,0.3190372884,0.7652367949,2024-06-05 20:47:33.597571
6.638003126,-0.09613727778,0.2868140042,0.6059844494,2024-06-05 20:47:33.638003
6.678544741,-0.01571218669,0.1195724085,0.4605801404,2024-06-05 20:47:33.678545
6.718996772,0.1248985752,0.21784015,0.5146406889,2024-06-05 20:47:33.718997
6.759474689,0.1616491079,0.4809527099,0.618500948,2024-06-05 20:47:33.759475
6.799957032,0.2786915898,0.4604469836,0.5620435476,2024-06-05 20:47:33.799957
6.840459949,0.3604482114,0.4146419466,0.6254249215,2024-06-05 20:47:33.840460
6.880902137,0.4691019952,0.1707035899,0.7247579098,2024-06-05 20:47:33.880902
6.921427605,0.4688356817,0.1613828093,0.7721607685,2024-06-05 20:47:33.921428
6.961933959,0.3436708152,0.2809551954,0.929415822,2024-06-05 20:47:33.961934
7.002403074,0.1922745556,0.2050573528,1.133674264,2024-06-05 20:47:34.002403
7.042876043,0.4302209914,-0.239810586,0.9403344393,2024-06-05 20:47:34.042876
7.083363126,0.4294220507,-0.4435364008,0.5990604162,2024-06-05 20:47:34.083363
7.123834376,0.4866783321,-0.1958697289,0.6360772848,2024-06-05 20:47:34.123834
7.164304012,0.2802894413,0.3163742125,0.7644378543,2024-06-05 20:47:34.164304
7.204825678,0.2736317217,0.3227656186,0.3748288751,2024-06-05 20:47:34.204826
7.245347814,0.03195698932,0.3967992961,0.2047910541,2024-06-05 20:47:34.245348
7.285761876,-0.1033276021,0.1011971384,-0.04820179567,2024-06-05 20:47:34.285762
7.326326303,-0.1597849578,-0.07789516449,-0.4440690279,2024-06-05 20:47:34.326326
7.366728491,-0.2833519876,-0.03155753016,-0.7756227851,2024-06-05 20:47:34.366728
7.407207605,-0.219171688,0.1240996495,-0.7961285114,2024-06-05 20:47:34.407208
7.447679012,-0.1978670359,0.02143781446,-1.008775711,2024-06-05 20:47:34.447679
7.488195991,-0.1587197185,-0.3236976862,-1.514228702,2024-06-05 20:47:34.488196
7.528656043,-0.3977313936,0.003861469682,-1.793452978,2024-06-05 20:47:34.528656
7.569165574,-0.6621754766,0.2849498391,-1.687195897,2024-06-05 20:47:34.569166
7.609640209,-0.6041202545,0.5709648728,-1.528875709,2024-06-05 20:47:34.609640
7.650104272,-0.497064352,0.8342106342,-1.618222117,2024-06-05 20:47:34.650104
7.690612501,-0.484814167,0.7351439595,-1.607569814,2024-06-05 20:47:34.690613
7.731087397,-0.4254274368,0.4548544884,-1.434602618,2024-06-05 20:47:34.731087
7.771571407,-0.3656412363,0.1978670359,-1.331274986,2024-06-05 20:47:34.771571
7.812037084,-0.263112545,-0.1929403245,-1.365895033,2024-06-05 20:47:34.812037
7.852589793,-0.128626883,-0.1007976755,-0.9537830353,2024-06-05 20:47:34.852590
7.892990053,-0.006125089712,0.07616416365,-0.4299546778,2024-06-05 20:47:34.892990
7.933497501,-0.07776200771,-0.03342168778,-0.08734910935,2024-06-05 20:47:34.933498
7.973981147,-0.1928071827,-0.03475322574,0.1768286824,2024-06-05 20:47:34.973981
8.014505678,0.04687025398,-0.2864145339,0.929415822,2024-06-05 20:47:35.014506
8.05495573,-0.09933298081,-0.04141093418,0.7950633168,2024-06-05 20:47:35.054956
8.095452397,0.2331528813,-0.09919982404,0.7591117024,2024-06-05 20:47:35.095452
8.135928491,0.1731003672,0.07296846062,0.7577801347,2024-06-05 20:47:35.135928
8.176396095,0.1949376464,0.288944453,0.5066514611,2024-06-05 20:47:35.176396
8.216879584,0.4251611233,0.005193010904,0.607049644,2024-06-05 20:47:35.216880
8.257379689,0.5527228117,0.1533935517,0.4296883643,2024-06-05 20:47:35.257380
8.297848439,0.4392754734,0.5115781426,0.3833507299,2024-06-05 20:47:35.297848
8.338318699,0.4576507509,0.4391423166,0.6816160083,2024-06-05 20:47:35.338319
8.378793282,0.2749632597,0.3952014446,0.7394048572,2024-06-05 20:47:35.378793
8.419298803,0.02476666868,0.4212996662,0.7252905369,2024-06-05 20:47:35.419299
8.459793387,-0.01784265228,0.4250279665,0.9456605911,2024-06-05 20:47:35.459793
8.500261928,0.0221035853,0.0929415822,0.972025156,2024-06-05 20:47:35.500262
8.540752345,0.04127778113,-0.05286218971,1.089200735,2024-06-05 20:47:35.540752
8.581222918,-0.01118494663,-0.3857475221,1.273219824,2024-06-05 20:47:35.581223
8.621730939,-0.3985303044,-0.539673686,1.390129089,2024-06-05 20:47:35.621731
8.66221297,-0.1509967744,-0.3785571754,1.453510404,2024-06-05 20:47:35.662213
8.702676564,0.1731003672,-0.590139091,1.243126988,2024-06-05 20:47:35.702677
8.743164428,0.4794880152,-0.7222279906,0.7671009302,2024-06-05 20:47:35.743164
8.783660262,0.3303554058,-0.4121120274,0.6118432283,2024-06-05 20:47:35.783660
8.824126147,-0.05832150951,-0.05392742157,0.4624442756,2024-06-05 20:47:35.824126
8.864581876,-0.1664426625,0.06204982474,0.08335448056,2024-06-05 20:47:35.864582
8.905134637,-0.2982652485,0.186149478,-0.181622237,2024-06-05 20:47:35.905135
8.945582241,-0.3267602324,0.0458050184,-0.5292876363,2024-06-05 20:47:35.945582
8.98607297,-0.325695008,-0.02356828004,-0.9231575727,2024-06-05 20:47:35.986073
9.026559168,-0.389742136,-0.3359478712,-1.33526957,2024-06-05 20:47:36.026559
9.067046876,-0.5340812206,-0.06191666797,-1.331807613,2024-06-05 20:47:36.067047
9.107523178,-0.5777557492,-0.1569887102,-1.370155931,2024-06-05 20:47:36.107523
9.148004116,-0.5378095508,0.1986659616,-1.557370663,2024-06-05 20:47:36.148004
9.188462137,-0.5181027055,0.8296833634,-1.763626456,2024-06-05 20:47:36.188462
9.228966772,-0.3217003644,0.8925321102,-1.511565685,2024-06-05 20:47:36.228967
9.269441876,-0.1177082509,0.8906679749,-1.584667325,2024-06-05 20:47:36.269442
9.309920574,-0.1555240154,0.6949313879,-1.322220445,2024-06-05 20:47:36.309921
9.350396928,-0.1320888996,0.7186328173,-0.8030525446,2024-06-05 20:47:36.350397
9.390910834,-0.03435376659,0.3051892519,-0.6302185059,2024-06-05 20:47:36.390911
9.431394064,0.06045197323,-0.04753602296,-0.2519276142,2024-06-05 20:47:36.431394
9.471877137,0.01704372838,-0.3197030723,0.3649754524,2024-06-05 20:47:36.471877
9.512350522,-0.0005326165119,-0.2813546658,0.713572979,2024-06-05 20:47:36.512351
9.552820574,0.1483336985,-0.07523208112,0.8801487684,2024-06-05 20:47:36.552821
9.593317918,0.07935985923,0.1222354919,0.5055862069,2024-06-05 20:47:36.593318
9.63380922,0.2334191799,-0.137015596,0.4041227698,2024-06-05 20:47:36.633809
9.674255366,0.4930697381,-0.1756303012,0.4986622036,2024-06-05 20:47:36.674255
9.71478797,0.5439345837,0.1746982187,0.7665683031,2024-06-05 20:47:36.714788
9.755295782,0.383883357,0.3254286945,0.8339443207,2024-06-05 20:47:36.755296
9.795721095,0.4134435654,0.08575125784,0.8686975241,2024-06-05 20:47:36.795721
9.836196303,0.2608489394,0.06045197323,1.048189282,2024-06-05 20:47:36.836196
9.876690939,0.2893439233,-0.007589785382,1.042596817,2024-06-05 20:47:36.876691
9.917164324,0.1611164957,-0.007589785382,1.189332724,2024-06-05 20:47:36.917164
9.957688439,0.255256474,-0.371633172,1.214631915,2024-06-05 20:47:36.957688
9.998134012,0.2440715134,-0.5593804717,1.140331984,2024-06-05 20:47:36.998134
10.0386399,0.3764267266,-0.9358072281,1.108374953,2024-06-05 20:47:37.038640
10.07912188,0.2170412242,-0.7430000305,1.140864611,2024-06-05 20:47:37.079122
10.1196187,0.0114512546,-0.3327521682,1.127549171,2024-06-05 20:47:37.119619
10.1600987,0.006391398143,-0.1380808353,0.8339443207,2024-06-05 20:47:37.160099
10.20059386,-0.01651111245,-0.05366111174,0.3295564651,2024-06-05 20:47:37.200594
10.2410638,-0.04181039706,0.1976007223,-0.3854812086,2024-06-05 20:47:37.241064
10.28155505,0.05459319428,-0.0003994623839,-1.038602233,2024-06-05 20:47:37.281555
10.32202505,-0.1858831644,0.006524552125,-1.501712203,2024-06-05 20:47:37.322025
10.36250276,-0.3993292153,0.1794917583,-1.57281661,2024-06-05 20:47:37.362503
10.40297115,-0.5431357026,0.002263620263,-1.709565878,2024-06-05 20:47:37.402971
10.4434788,-0.6573819518,0.003328853287,-1.823812127,2024-06-05 20:47:37.443479
10.48403604,-0.6821485758,0.2612484097,-1.800110698,2024-06-05 20:47:37.484036
10.52447719,-0.716768682,0.5653724074,-1.704239726,2024-06-05 20:47:37.524477
10.56491651,-0.6738930345,0.5387415886,-1.714359403,2024-06-05 20:47:37.564917
10.60540708,-0.4366123974,0.5552527308,-1.430341601,2024-06-05 20:47:37.605407
10.64588333,-0.1462032348,0.4966649115,-0.9244890809,2024-06-05 20:47:37.645883
10.68635818,-0.03888100386,0.2684387267,-0.3227656186,2024-06-05 20:47:37.686358
10.72684458,0.03621792421,-0.08188978583,0.0705716908,2024-06-05 20:47:37.726845
10.76730818,-0.0149132628,-0.2065220475,0.401992321,2024-06-05 20:47:37.767308
10.80783443,0.1486000121,-0.0544600375,0.7186328173,2024-06-05 20:47:37.807834
10.84833662,0.1746982187,0.04766917601,0.9469921589,2024-06-05 20:47:37.848337
10.88883969,0.3199693561,-0.03448691964,1.082010388,2024-06-05 20:47:37.888840
10.92925995,0.3902747631,-0.1934729517,0.8256887197,2024-06-05 20:47:37.929260
10.96974886,0.1882799417,0.2567211688,0.5809514523,2024-06-05 20:47:37.969749
11.01026912,0.2077204436,0.1472684592,1.090265989,2024-06-05 20:47:38.010269
11.05071912,-0.02583190054,0.2109161317,1.598781586,2024-06-05 20:47:38.050719
11.09118026,0.002130466048,0.4295552075,1.582536817,2024-06-05 20:47:38.091180
11.13167828,0.1619154215,-0.03182383627,1.731403112,2024-06-05 20:47:38.131678
11.17214104,0.1174419373,-0.2446041405,1.912492752,2024-06-05 20:47:38.172141
11.21264776,0.5647066832,-0.6404713392,1.786528945,2024-06-05 20:47:38.212648
11.25312995,0.5556522012,-0.9097089767,1.177348852,2024-06-05 20:47:38.253130
11.29360396,-0.04127778113,-0.5543206334,0.9885362387,2024-06-05 20:47:38.293604
11.33410333,-0.4533897936,0.06151720881,0.839004159,2024-06-05 20:47:38.334103
11.37461208,-0.5138418078,0.08788172156,0.2101172209,2024-06-05 20:47:38.374612
11.41502787,-0.415574044,0.1171756312,-0.6885399818,2024-06-05 20:47:38.415028
11.45555474,-0.4296883643,0.4942681193,-1.308905125,2024-06-05 20:47:38.455555
11.49599693,-0.5258256793,0.5501928329,-1.728740096,2024-06-05 20:47:38.495997
11.53649219,-0.4592485726,0.6390066743,-1.803306341,2024-06-05 20:47:38.536492
11.57700063,-0.1110505462,0.2647103965,-1.702109218,2024-06-05 20:47:38.577001
11.61749297,-0.140877068,0.8483249545,-2.016352892,2024-06-05 20:47:38.617493
11.65798016,-0.02316881903,0.7678998709,-2.028336763,2024-06-05 20:47:38.657980
11.69846115,0.1195724085,0.4718982279,-2.097044468,2024-06-05 20:47:38.698461
11.73893151,0.259783715,0.1930734813,-1.674413204,2024-06-05 20:47:38.738932
11.77941094,0.2491313666,0.2031932026,-0.993596077,2024-06-05 20:47:38.779411
11.81989021,-0.008788172156,-0.2920069993,-0.2790910602,2024-06-05 20:47:38.819890
11.86038026,-0.08095771074,-0.403323859,0.1661763489,2024-06-05 20:47:38.860380
11.90091136,-0.005858781748,-0.08934641629,0.3926715255,2024-06-05 20:47:38.900911
11.94134615,0.1051917598,-0.167374745,0.511977613,2024-06-05 20:47:38.941346
11.98186375,0.2757622004,-0.1423417628,0.851254344,2024-06-05 20:47:38.981864
12.02232615,0.5271571875,-0.08828118443,1.268692493,2024-06-05 20:47:39.022326
12.06281948,0.3455349505,0.07909355313,1.425281763,2024-06-05 20:47:39.062819
12.103265,0.1501978636,0.05725627393,1.353911161,2024-06-05 20:47:39.103265
12.14374641,0.2135792226,-0.1937392503,1.544721007,2024-06-05 20:47:39.143746
12.18426537,0.02822867595,-0.05978620425,1.75723505,2024-06-05 20:47:39.184265
12.22477901,0.03382114694,-0.4667052329,1.991586328,2024-06-05 20:47:39.224779
12.26518531,0.1965354979,-0.4778901637,1.903970838,2024-06-05 20:47:39.265185
12.3056775,0.3146432042,-0.8764204979,1.452445269,2024-06-05 20:47:39.305677
12.34617287,0.06497921795,-0.3753614724,1.054314375,2024-06-05 20:47:39.346173
12.38664162,-0.221035853,0.1360835135,0.6882736683,2024-06-05 20:47:39.386642
12.42711927,-0.1573881805,-0.04513924941,0.07856093347,2024-06-05 20:47:39.427119
12.46762485,-0.08095771074,0.2202369273,-0.7724270821,2024-06-05 20:47:39.467625
12.50810156,-0.07536523789,0.3645760119,-1.372819066,2024-06-05 20:47:39.508102
12.54857208,-0.1829537749,0.719964385,-1.808099866,2024-06-05 20:47:39.548572
12.58906677,-0.05619104207,0.6212971807,-1.8232795,2024-06-05 20:47:39.589067
12.62955031,0.2111824453,0.3424724042,-1.961493492,2024-06-05 20:47:39.629550
12.67002432,0.204258427,0.5155727863,-2.40263319,2024-06-05 20:47:39.670024
12.71050943,0.09906667471,0.5190348029,-2.178534746,2024-06-05 20:47:39.710509
12.75100344,0.07350108027,0.4290226102,-1.835529685,2024-06-05 20:47:39.751003
12.7914862,-0.02476666868,0.04447348043,-1.315829039,2024-06-05 20:47:39.791486
12.83197104,-0.2886781394,-0.3641765416,-0.6965292692,2024-06-05 20:47:39.831971
12.87246594,-0.1978670359,-0.7435326576,-0.1507304758,2024-06-05 20:47:39.872466
12.912945,-0.233286038,-0.3825518191,0.3388772607,2024-06-05 20:47:39.912945
12.95343833,-0.2474003732,-0.03821523488,0.9137036204,2024-06-05 20:47:39.953438
12.99391948,0.08282186836,-0.1884130985,1.33447063,2024-06-05 20:47:39.993919
13.03438787,0.329023838,-0.1697715074,1.125418663,2024-06-05 20:47:40.034388
13.07483875,0.2114487588,0.4119788706,0.9328778386,2024-06-05 20:47:40.074839
13.11537906,0.2904091477,0.1041265279,1.552443981,2024-06-05 20:47:40.115379
13.15587287,0.1209039465,0.08468602598,1.799311757,2024-06-05 20:47:40.155873
13.19629854,0.1427412182,0.3296896219,1.850975513,2024-06-05 20:47:40.196299
13.23679089,0.07350108027,-0.2014621943,2.011026859,2024-06-05 20:47:40.236791
13.27727063,0.1981333494,-0.6103785038,2.149374008,2024-06-05 20:47:40.277271
13.31775521,0.06071828306,-0.7480598688,1.467225313,2024-06-05 20:47:40.317755
13.35822906,-0.4326177537,-0.4627105892,0.8884043694,2024-06-05 20:47:40.358229
13.39873563,-0.4906729758,-0.1599181145,0.2675066292,2024-06-05 20:47:40.398736
13.43925203,-0.3794892728,-0.01451379992,-0.5282224417,2024-06-05 20:47:40.439252
13.47970432,-0.3182383776,0.230090335,-1.21356678,2024-06-05 20:47:40.479704
13.52018448,-0.4539224207,0.7431331873,-1.596651196,2024-06-05 20:47:40.520184
13.56065693,-0.5079829693,0.9929303527,-1.724212766,2024-06-05 20:47:40.560657
13.60113906,-0.3163742125,0.6645722389,-1.952438951,2024-06-05 20:47:40.601139
13.64164901,-0.0929415822,0.4109136462,-2.24524498,2024-06-05 20:47:40.641649
13.68216833,-0.0410114713,0.6013240218,-2.308892488,2024-06-05 20:47:40.682168
13.72261188,-0.06684337556,0.3925383687,-2.184127092,2024-06-05 20:47:40.722612
13.76311516,0.0229025092,0.2151770741,-1.616624236,2024-06-05 20:47:40.763115
13.80357453,-0.01517957076,0.02942706272,-0.6632407308,2024-06-05 20:47:40.803575
13.84405026,0.008788172156,-0.420101285,0.02503297664,2024-06-05 20:47:40.844050
13.88457651,0.03701684624,-0.2975994647,0.5873428583,2024-06-05 20:47:40.884577
13.92498422,0.06657706201,-0.3351489305,0.8543168902,2024-06-05 20:47:40.924984
13.96547823,0.3452686667,-0.1087869257,1.011705041,2024-06-05 20:47:40.965478
14.00599469,0.3718994856,0.07216953486,1.087869167,2024-06-05 20:47:41.005995
14.04646875,0.2922733128,0.04021254554,1.152582169,2024-06-05 20:47:41.046469
14.08695281,0.3306216896,0.1014634445,1.679739356,2024-06-05 20:47:41.086953
14.12738229,0.1451379955,0.432484597,2.147776127,2024-06-05 20:47:41.127382
14.16792182,0.145404309,0.2862813771,2.332327604,2024-06-05 20:47:41.167922
14.20837604,0.223698929,-0.4669715166,2.227668524,2024-06-05 20:47:41.208376
14.24889323,0.3790898025,-0.9850742221,1.750044703,2024-06-05 20:47:41.248893
14.28937458,-0.1027949899,-0.6215634942,1.09772265,2024-06-05 20:47:41.289375
14.32982307,-0.4091826379,-0.1402112991,0.4041227698,2024-06-05 20:47:41.329823
14.37029875,-0.2695039511,-0.1018629074,-0.2639114857,2024-06-05 20:47:41.370299
14.41082193,-0.2005301118,0.02489982173,-1.234072447,2024-06-05 20:47:41.410822
14.45131656,-0.321167767,0.5206326246,-1.914356947,2024-06-05 20:47:41.451317
14.49176906,-0.3557878435,0.2543243766,-1.86775291,2024-06-05 20:47:41.491769
14.53233469,-0.630751133,0.8520532846,-1.473749876,2024-06-05 20:47:41.532335
14.57274854,-0.2628462613,1.669752717,-2.331262589,2024-06-05 20:47:41.572749
14.61328979,-0.09986559302,1.1396662,-3.344432116,2024-06-05 20:47:41.613290
14.65371636,0.5468640327,0.7609758377,-2.902094126,2024-06-05 20:47:41.653716
14.69417511,0.8078460693,0.692268312,-1.398118377,2024-06-05 20:47:41.694175
14.73470104,0.4419385493,-0.2944037914,-0.6597787142,2024-06-05 20:47:41.734701
14.77513693,0.2111824453,-0.4267589748,-0.4379439354,2024-06-05 20:47:41.775137
14.81560156,0.2786915898,-1.012770295,0.9312799573,2024-06-05 20:47:41.815602
14.85609688,0.1246322617,-1.061771035,2.097710133,2024-06-05 20:47:41.856097
14.89659891,0.07722939551,0.7838783264,2.12274313,2024-06-05 20:47:41.896599
14.93711646,0.3359478712,-0.1255643368,2.03632617,2024-06-05 20:47:41.937116
14.97756271,0.08095771074,-0.6314168572,2.8341856,2024-06-05 20:47:41.977563
15.01806292,0.1832200736,-0.7089125514,2.33951807,2024-06-05 20:47:42.018063
15.0585488,-0.181622237,0.6298190355,2.745238543,2024-06-05 20:47:42.058549
15.09902281,0.1736329794,-1.266162634,3.063743353,2024-06-05 20:47:42.099023
15.13949365,0.6310173869,-3.3176682,1.687195897,2024-06-05 20:47:42.139494
15.17998255,0.02822867595,-0.8684312105,0.3521926701,2024-06-05 20:47:42.179983
15.2204875,-0.4840152562,2.201969862,0.0817566365,2024-06-05 20:47:42.220488
15.26097375,-0.9758865833,2.799432278,-0.9362066984,2024-06-05 20:47:42.260974
15.30143953,-0.385214895,-0.238479048,-1.776409268,2024-06-05 20:47:42.301440
15.34189516,-0.2018616647,-0.05392742157,-3.229919672,2024-06-05 20:47:42.341895
15.38236641,-1.16456604,1.395987868,-3.245898247,2024-06-05 20:47:42.382366
15.42286115,-1.34192729,2.074674368,-2.433524847,2024-06-05 20:47:42.422861
15.46338104,0.7620410919,1.712628365,-1.381873488,2024-06-05 20:47:42.463381
15.50387787,0.4139761925,0.5613778234,-2.365350008,2024-06-05 20:47:42.503878
15.54434281,0.3532578945,0.5872097015,-0.7410027385,2024-06-05 20:47:42.544343
15.5848336,-0.3499290347,-0.7422010899,0.1581871063,2024-06-05 20:47:42.584834
15.62532604,-0.2801562846,-1.248586297,1.555639625,2024-06-05 20:47:42.625326
15.66578578,0.08015878499,-1.193194151,1.726343274,2024-06-05 20:47:42.665786
15.70627391,-0.01278279629,-0.5207657814,1.105978131,2024-06-05 20:47:42.706274
15.74674365,-0.1443390697,-0.0576557368,1.623281956,2024-06-05 20:47:42.746744
15.78721474,0.4560528994,-0.8055824637,2.450302362,2024-06-05 20:47:42.787215
15.82770557,0.3679048419,-0.2041252851,1.903970838,2024-06-05 20:47:42.827706
15.86819276,0.3418066502,0.3259612918,2.517411947,2024-06-05 20:47:42.868193
15.90868677,0.1326215118,-0.4581833482,2.399970055,2024-06-05 20:47:42.908687
15.94915886,0.5058525205,-1.513829231,1.233007193,2024-06-05 20:47:42.949159
15.98966495,-0.1960028708,-0.2853493094,0.9784165621,2024-06-05 20:47:42.989665
16.03016453,-0.3683043122,-0.2448704392,0.5737611651,2024-06-05 20:47:43.030165
16.07062313,-0.3432713449,0.03515268862,-0.2745638192,2024-06-05 20:47:43.070623
16.11109307,-0.6912030578,0.7809489369,-1.346188188,2024-06-05 20:47:43.111093
16.1515636,-0.7263557911,2.11648488,-1.875475883,2024-06-05 20:47:43.151564
16.19209271,-0.4613790512,2.163088799,-2.230065346,2024-06-05 20:47:43.192093
16.23256662,0.009054481052,1.568022966,-2.696371078,2024-06-05 20:47:43.232567
16.27305818,0.5175700784,0.8935973644,-2.899697542,2024-06-05 20:47:43.273058
16.31356438,0.5005263686,0.447930485,-2.377866507,2024-06-05 20:47:43.313564
16.3539537,0.3223661482,-0.1846847683,-1.539794326,2024-06-05 20:47:43.353954
16.39446875,0.1541924775,-0.2624467909,-0.3905410469,2024-06-05 20:47:43.394469
16.43496396,0.1707035899,-0.3489969671,0.7724270821,2024-06-05 20:47:43.434964
16.47547,0.1517957002,-0.03928046674,1.259904385,2024-06-05 20:47:43.475470
16.51592802,0.3372794092,-0.02596505545,1.259105444,2024-06-05 20:47:43.515928
16.55640557,0.3101159632,-0.2555227578,1.587064028,2024-06-05 20:47:43.556406
16.59688589,0.4696346223,-0.0685743764,2.016885519,2024-06-05 20:47:43.596886
16.63735443,0.2744306624,-0.2949363887,1.811561942,2024-06-05 20:47:43.637354
16.67789406,0.1701709777,-0.3197030723,1.858698487,2024-06-05 20:47:43.677894
16.71832698,-0.1302247345,-0.4563191831,2.237521887,2024-06-05 20:47:43.718327
16.75881224,-0.01225017942,-1.090265989,1.917818904,2024-06-05 20:47:43.758812
16.79929115,0.2728328109,-1.197455049,0.9272853732,2024-06-05 20:47:43.799291
16.83978427,-0.2258294076,-0.4057206213,0.5892069936,2024-06-05 20:47:43.839784
16.8802675,-0.145404309,-0.1106510833,0.0929415822,2024-06-05 20:47:43.880267
16.92075833,-0.1272953451,0.3797555864,-0.8914669156,2024-06-05 20:47:43.920758
16.9612476,-0.1267627329,0.9556471705,-1.660298824,2024-06-05 20:47:43.961248
17.00172807,-0.2050573528,1.350182891,-2.306495905,2024-06-05 20:47:44.001728
17.04225255,-0.1944050342,1.685731292,-2.73285532,2024-06-05 20:47:44.042253
17.08270438,-0.1267627329,0.7372744083,-3.189973354,2024-06-05 20:47:44.082704
17.12323193,0.21784015,0.3896089792,-2.80302763,2024-06-05 20:47:44.123232
17.16364391,0.164844811,0.05512581021,-2.17507267,2024-06-05 20:47:44.163644
17.2041199,0.01038602181,-0.4232969582,-1.283605814,2024-06-05 20:47:44.204120
17.24465583,-0.07776200771,-0.3878779709,-0.05113118514,2024-06-05 20:47:44.244656
17.28517703,0.1869483888,-0.5220973492,1.227414727,2024-06-05 20:47:44.285177
17.32562594,0.4011933804,-0.2616478503,1.862426758,2024-06-05 20:47:44.325626
17.36607875,0.5047873259,0.0758978501,1.964422822,2024-06-05 20:47:44.366079
17.40655037,0.4400743842,-0.4009270668,1.518090248,2024-06-05 20:47:44.406550
17.44705625,0.4664389193,-0.499727428,2.218614101,2024-06-05 20:47:44.447056
17.48750333,0.190676704,-0.6897383928,2.850963116,2024-06-05 20:47:44.487503
17.52799526,-0.311580658,-0.3615134656,2.835783482,2024-06-05 20:47:44.527995
17.56850396,-0.34513551,-1.237667561,2.036059856,2024-06-05 20:47:44.568504
17.60897656,-0.2916075289,-1.328745008,1.031411886,2024-06-05 20:47:44.608977
17.64944927,-0.6999912262,-0.1937392503,0.4752270877,2024-06-05 20:47:44.649449
17.689935,-0.5681686401,0.2926727831,0.06870753318,2024-06-05 20:47:44.689935
17.73043807,-0.3219666779,0.5123770833,-1.080146313,2024-06-05 20:47:44.730438
17.77089318,-0.1858831644,1.024887323,-1.952705264,2024-06-05 20:47:44.770893
17.81141146,-0.3254286945,1.641524076,-2.35576272,2024-06-05 20:47:44.811411
17.85184792,-0.3804213405,1.429808974,-2.889311314,2024-06-05 20:47:44.851848
17.89236724,-0.09214265645,0.5203663111,-3.125793219,2024-06-05 20:47:44.892367
17.93284703,0.06844121963,0.4375444651,-2.779725552,2024-06-05 20:47:44.932847
17.97335365,-0.1840189993,0.03062544949,-2.26974535,2024-06-05 20:47:44.973354
18.01381698,-0.1672415882,-0.1806901544,-1.26176846,2024-06-05 20:47:45.013817
18.05428833,0.05698996782,-0.2930722237,0.004793548491,2024-06-05 20:47:45.054288
18.09478662,0.2093182951,-0.2150439173,1.082809329,2024-06-05 20:47:45.094787
18.13526776,0.4379439354,0.1003982127,2.00436902,2024-06-05 20:47:45.135268
18.17574266,0.429155767,0.1240996495,1.98066771,2024-06-05 20:47:45.175743
18.21620162,0.3090507388,-0.1066564545,1.427412271,2024-06-05 20:47:45.216202
18.2566886,0.3487306535,-0.4469984174,2.468943834,2024-06-05 20:47:45.256689
18.29718208,0.1398118287,-0.4696346223,3.05974865,2024-06-05 20:47:45.297182
18.33767287,-0.2402100414,-0.1569887102,2.796369791,2024-06-05 20:47:45.337673
18.37814292,-0.2396774292,-1.368158698,2.058429718,2024-06-05 20:47:45.378143
18.41864339,-0.1704372764,-1.20198226,0.9595086575,2024-06-05 20:47:45.418643
18.45912089,-0.7418016195,-0.235283345,0.6461969614,2024-06-05 20:47:45.459121
18.49959537,-0.5737611651,0.4351477027,-0.2090519816,2024-06-05 20:47:45.499595
18.54008172,-0.133154124,0.7745575905,-1.342726231,2024-06-05 20:47:45.540082
18.58057484,0.06710968167,1.280143738,-2.005167961,2024-06-05 20:47:45.580575
18.62105401,0.004793548491,1.797847033,-2.266283274,2024-06-05 20:47:45.621054
18.66153912,0.07722939551,1.549381375,-2.951094866,2024-06-05 20:47:45.661539
18.70203026,0.3050560951,0.5469971299,-3.183848381,2024-06-05 20:47:45.702030
18.74251104,0.4267589748,0.1829537749,-2.799432278,2024-06-05 20:47:45.742511
18.782985,0.1318225861,0.07882724702,-2.144447327,2024-06-05 20:47:45.782985
18.82346573,0.1267627329,-0.05232957378,-0.8834776282,2024-06-05 20:47:45.823466
18.86395682,0.2651098669,-0.3023930192,0.2420742065,2024-06-05 20:47:45.863957
18.90445235,0.3950682878,-0.3114475012,1.165631294,2024-06-05 20:47:45.904452
18.94487281,0.4800206423,0.05858781561,1.71782136,2024-06-05 20:47:45.944873
18.98538953,0.5343475342,0.01770949923,1.919683099,2024-06-05 20:47:45.985390
19.02587656,0.4693683088,-0.2451367527,2.21328783,2024-06-05 20:47:46.025877
19.06635865,0.4517919421,-0.7643046975,2.761749744,2024-06-05 20:47:46.066359
19.10680615,0.01651111245,-0.5856118798,2.991573811,2024-06-05 20:47:46.106806
19.14730469,-0.323830843,-0.5495271087,2.652962923,2024-06-05 20:47:46.147305
19.18780917,-0.1488663107,-1.620086312,1.61396122,2024-06-05 20:47:46.187809
19.22829682,-0.293471694,-1.063901424,0.5215647221,2024-06-05 20:47:46.228297
19.26879625,-0.5476629138,-0.2440715134,0.228758797,2024-06-05 20:47:46.268796
19.30925807,-0.4227643609,0.4335498512,-0.3748288751,2024-06-05 20:47:46.309258
19.34970964,-0.1936061084,0.9149020314,-1.406640172,2024-06-05 20:47:46.349710
19.39022146,0.0005326165119,1.400248766,-2.184926033,2024-06-05 20:47:46.390221
19.43071766,-0.154458791,1.752042055,-2.591179371,2024-06-05 20:47:46.430718
19.47120151,-0.2588516176,1.044594169,-3.286643267,2024-06-05 20:47:46.471202
19.51166625,0.1065233052,0.1699046642,-3.096499205,2024-06-05 20:47:46.511666
19.55216896,0.06364767253,0.2998631001,-2.6987679,2024-06-05 20:47:46.552169
19.59265047,-0.0705716908,-0.06937330216,-1.775610328,2024-06-05 20:47:46.592650
19.63312516,0.06764229387,-0.3740299344,-0.4696346223,2024-06-05 20:47:46.633125
19.67360979,0.1978670359,-0.5848129392,0.5692338943,2024-06-05 20:47:46.673610
19.71406365,0.1416759938,-0.4872109592,1.280942678,2024-06-05 20:47:46.714064
19.75453151,0.3346163332,-0.0166442655,1.768419981,2024-06-05 20:47:46.754532
19.79502011,0.409715265,-0.04487293959,2.04298377,2024-06-05 20:47:46.795020
19.83550578,0.4557865858,-0.1601844132,2.333392859,2024-06-05 20:47:46.835506
19.87596526,0.248865068,-0.7461957335,2.685585499,2024-06-05 20:47:46.875965
19.91653865,-0.05033225939,-0.354855746,2.827794313,2024-06-05 20:47:46.916539
19.95699469,-0.3363473415,-0.4419385493,2.484656096,2024-06-05 20:47:46.956995
19.99747745,-0.2958684862,-1.337266922,1.266828418,2024-06-05 20:47:46.997477
20.03795188,-0.3264939189,-0.374296248,0.4472647011,2024-06-05 20:47:47.037952
20.07841458,-0.4278241992,0.02942706272,0.3279586136,2024-06-05 20:47:47.078415
20.11887552,-0.2226337045,0.5424699187,-0.7671009302,2024-06-05 20:47:47.118876
20.15939636,-0.1302247345,1.092795968,-1.742854357,2024-06-05 20:47:47.159396
20.19989568,-0.07003907114,1.168427467,-2.23485899,2024-06-05 20:47:47.199896
20.2403475,-0.213312909,1.779471755,-3.07466197,2024-06-05 20:47:47.240347
20.28086083,-0.234617576,0.6400718689,-3.599955082,2024-06-05 20:47:47.280861
20.3213137,0.2571206093,0.08974587917,-2.909550905,2024-06-05 20:47:47.321314
20.36179208,0.1171756312,0.3299559355,-2.446573973,2024-06-05 20:47:47.361792
20.40235177,0.005592473317,0.1147788614,-1.309437752,2024-06-05 20:47:47.402352
20.44278964,0.06631075591,-0.1410102248,-0.07722939551,2024-06-05 20:47:47.442790
20.48326042,0.1640458852,-0.3223661482,0.9954602718,2024-06-05 20:47:47.483260
20.52375828,0.6030550599,-0.1934729517,2.007564783,2024-06-05 20:47:47.523758
20.56419485,0.6930672526,-0.05818835273,1.811561942,2024-06-05 20:47:47.564195
20.60466401,0.3495295942,0.03195698932,1.681603432,2024-06-05 20:47:47.604664
20.64518318,0.4699009061,-0.6777545214,2.201037645,2024-06-05 20:47:47.645183
20.68563896,0.3058550358,-0.681216538,3.003025055,2024-06-05 20:47:47.685639
20.72616552,-0.3825518191,0.2995967865,2.932453394,2024-06-05 20:47:47.726166
20.76663912,-0.5258256793,-0.6266233325,2.165884972,2024-06-05 20:47:47.766639
20.80712011,-0.3817528784,-0.822892487,1.302513719,2024-06-05 20:47:47.807120
20.84761078,-0.411046803,-0.4597811997,0.5985277891,2024-06-05 20:47:47.847611
20.88805266,-0.4414059222,0.3387441039,0.001065233024,2024-06-05 20:47:47.888053
20.92855125,-0.2503297627,0.6282211542,-1.081211567,2024-06-05 20:47:47.928551
20.96905203,0.01225017942,1.019827485,-1.94871068,2024-06-05 20:47:47.969052
21.00954922,0.1384802908,1.220357537,-2.484656096,2024-06-05 20:47:48.009549
21.05001396,-0.000266308256,1.264165282,-3.091439486,2024-06-05 20:47:48.050014
21.09050636,-0.05832150951,0.4588491321,-3.346562624,2024-06-05 20:47:48.090506
21.13096865,0.2315550297,0.3533910513,-2.888512611,2024-06-05 20:47:48.130969
21.17142969,0.08708280325,0.3129121959,-2.186257601,2024-06-05 20:47:48.171430
21.21193729,0.1424749196,0.071104303,-0.8909342885,2024-06-05 20:47:48.211937
21.25242281,0.3410077095,-0.09706936032,0.3971987665,2024-06-05 20:47:48.252423
21.29294021,0.2802894413,-0.4003944695,1.192794681,2024-06-05 20:47:48.292940
21.33342719,0.4267589748,-0.1548582464,1.539394855,2024-06-05 20:47:48.333427
21.37384412,0.4398080707,-0.1484668553,1.712761521,2024-06-05 20:47:48.373844
21.41432677,0.4501941204,-0.3540568352,2.197575808,2024-06-05 20:47:48.414327
21.45483917,0.3620460629,-0.7999899983,2.611152411,2024-06-05 20:47:48.454839
21.4952863,0.09161003679,-0.5505923033,2.808353662,2024-06-05 20:47:48.495286
21.53578886,-0.5268908739,-0.5351464152,2.41301918,2024-06-05 20:47:48.535789
21.57630078,-0.6605776548,-1.161370277,1.880535722,2024-06-05 20:47:48.576301
21.61676229,-0.1752308309,-1.435268402,0.8187647462,2024-06-05 20:47:48.616762
21.65726255,-0.5963973403,-0.5252930522,0.5428693891,2024-06-05 20:47:48.657263
21.69776719,-0.4075847864,0.2516613007,-0.04314193875,2024-06-05 20:47:48.697767
21.73822823,-0.2351501882,0.820895195,-1.230344176,2024-06-05 20:47:48.738228
21.77871422,-0.06684337556,1.407172799,-1.934063673,2024-06-05 20:47:48.778714
21.81919287,-0.0146469539,1.338465333,-2.479329824,2024-06-05 20:47:48.819193
21.85969297,-0.04766917601,1.163900256,-3.379318714,2024-06-05 20:47:48.859693
21.90016167,-0.006391398143,0.07856093347,-3.091173172,2024-06-05 20:47:48.900162
21.94063604,0.1153114736,0.07989247888,-2.565347433,2024-06-05 20:47:48.940636
21.98114333,-0.0977351293,0.06897383928,-2.041385889,2024-06-05 20:47:48.981143
22.0216,-0.01198387146,0.000133154128,-0.8832113147,2024-06-05 20:47:49.021600
22.06209886,0.04607132822,-0.2624467909,0.1137136221,2024-06-05 20:47:49.062099
22.10259865,0.06364767253,-0.3447360396,0.9200950265,2024-06-05 20:47:49.102599
22.14309313,0.2613815665,-0.006790860556,1.508769393,2024-06-05 20:47:49.143093
22.18357479,0.2941374779,0.0490007177,1.950841188,2024-06-05 20:47:49.183575
22.2240086,0.2864145339,-0.1346188188,2.188521147,2024-06-05 20:47:49.224009
22.2644913,0.2853493094,-0.3753614724,2.506227016,2024-06-05 20:47:49.264491
22.30497401,-0.04926702753,-0.5695002079,2.619940519,2024-06-05 20:47:49.304974
22.34545526,-0.4014596939,-0.3793561161,2.787847996,2024-06-05 20:47:49.345455
22.38595188,-0.3520595133,-1.126217604,2.099308014,2024-06-05 20:47:49.385952
22.4264325,-0.3424724042,-1.105978131,0.9491226077,2024-06-05 20:47:49.426433
22.46691698,-0.4930697381,-0.2195711583,0.4531235099,2024-06-05 20:47:49.466917
22.50740656,-0.3699021637,0.1773612946,-0.1669752747,2024-06-05 20:47:49.507407
22.54789719,-0.1930734813,0.7639052272,-1.270290375,2024-06-05 20:47:49.547897
22.58838156,-0.1129147038,1.310502887,-1.879204154,2024-06-05 20:47:49.588382
22.62886354,0.06844121963,1.537930131,-2.273473501,2024-06-05 20:47:49.628864
22.66932511,0.04074516147,1.293725491,-3.009682655,2024-06-05 20:47:49.669325
22.70982432,0.2416747361,0.5288882256,-3.105819941,2024-06-05 20:47:49.709824
22.75029854,0.2813546658,0.08894696087,-2.703294992,2024-06-05 20:47:49.750299
22.79077063,0.08255556226,0.03701684624,-2.023809671,2024-06-05 20:47:49.790771
22.8312576,-0.03328853101,-0.1290263534,-0.8035851717,2024-06-05 20:47:49.831258
22.87174271,-0.05858781561,-0.3399424851,0.03089175746,2024-06-05 20:47:49.871743
22.9122375,-0.03115806542,-0.209451437,0.8553821445,2024-06-05 20:47:49.912237
22.95274568,0.1840189993,-0.3663070202,1.361101508,2024-06-05 20:47:49.952746
22.99321552,0.2981320918,0.004127778113,1.65630424,2024-06-05 20:47:49.993216
23.03367583,0.3969324529,-0.007323476952,2.069747686,2024-06-05 20:47:50.033676
23.07415333,0.5191679597,-0.6231613159,2.676398039,2024-06-05 20:47:50.074153
23.11460682,0.01011971384,-0.3234313726,2.628196239,2024-06-05 20:47:50.114607
23.15509005,-0.3600487709,-0.1327546686,2.654294491,2024-06-05 20:47:50.155090
23.19562865,-0.4488625526,-0.9254211783,2.005434275,2024-06-05 20:47:50.195629
23.23609547,-0.5117112994,-1.162968159,1.10517931,2024-06-05 20:47:50.236095
23.27656068,-0.5194342732,-0.5338149071,0.6611102223,2024-06-05 20:47:50.276561
23.31704349,-0.3762935698,0.09507204592,-0.09107742459,2024-06-05 20:47:50.317043
23.3574975,0.03568530455,0.8653686643,-1.120358825,2024-06-05 20:47:50.357498
23.39803589,0.103061296,1.501179695,-1.872812867,2024-06-05 20:47:50.398036
23.43855458,0.1712362021,1.502511144,-2.332860231,2024-06-05 20:47:50.438555
23.47901083,0.1675078869,1.273752332,-3.063743353,2024-06-05 20:47:50.479011
23.5194937,0.1744319052,0.6893389225,-3.329519033,2024-06-05 20:47:50.519494
23.55997068,0.2138455361,0.4101147056,-2.92180109,2024-06-05 20:47:50.559971
23.60042589,0.08655018359,0.177094996,-2.05257082,2024-06-05 20:47:50.600426
23.64091797,0.03515268862,-0.02995967865,-0.8163679838,2024-06-05 20:47:50.640918
23.68140193,0.1486000121,-0.354855746,0.1880136281,2024-06-05 20:47:50.681402
23.72190234,0.2555227578,-0.3356815577,1.311568141,2024-06-05 20:47:50.721902
23.7624036,0.7580464482,-0.3676385581,2.278533459,2024-06-05 20:47:50.762404
23.80284297,0.5460650921,0.04340824485,1.964955449,2024-06-05 20:47:50.802843
23.84334245,0.1738992929,-0.09999874979,1.642456174,2024-06-05 20:47:50.843342
23.88382583,0.2098509073,-0.5684349537,2.057897091,2024-06-05 20:47:50.883826
23.92427255,0.1328878254,-0.1713693589,2.547504663,2024-06-05 20:47:50.924273
23.96475589,-0.3977313936,-0.2075872868,2.546173334,2024-06-05 20:47:50.964756
24.00523922,-0.2681724131,-0.5407389402,1.919416785,2024-06-05 20:47:51.005239
24.04576781,-0.2878792286,-0.962970674,0.8262213469,2024-06-05 20:47:51.045768
24.08625297,-0.06284874678,-0.363910228,0.5250267386,2024-06-05 20:47:51.086253
24.1267024,-0.3627118468,0.3110480309,-0.1451379955,2024-06-05 20:47:51.126702
24.16718005,0.1669752747,0.6480611563,-1.199718714,2024-06-05 20:47:51.167180
24.20769672,0.2061225921,1.111970067,-2.108495712,2024-06-05 20:47:51.207697
24.24817995,0.4419385493,1.374683261,-2.254832029,2024-06-05 20:47:51.248180
24.28865115,0.2659088075,1.030746102,-2.938844681,2024-06-05 20:47:51.288651
24.32912568,0.3279586136,0.5390079021,-3.465735674,2024-06-05 20:47:51.329126
24.36960136,0.3668396175,-0.1426080763,-3.002492428,2024-06-05 20:47:51.369601
24.41009636,0.1584534049,-0.1045259908,-2.102636814,2024-06-05 20:47:51.410096
24.45059531,-0.08069140464,-0.2717675865,-0.9412665367,2024-06-05 20:47:51.450595
24.49106011,-0.07270215452,-0.3828181326,0.1520620137,2024-06-05 20:47:51.491060
24.53153964,-0.05512581021,-0.4310199022,1.110771775,2024-06-05 20:47:51.531540
24.5720224,0.2304897904,-0.4190360308,1.656570554,2024-06-05 20:47:51.572022
24.61250589,0.4299546778,-0.2331528813,1.880535722,2024-06-05 20:47:51.612506
24.65299156,0.4922707975,-0.008122402243,2.02221179,2024-06-05 20:47:51.652992
24.69349141,0.4153077304,-0.5489944816,2.622337341,2024-06-05 20:47:51.693491
24.73397703,0.04687025398,-0.4017260075,3.029123306,2024-06-05 20:47:51.733977
24.77439505,-0.4150414169,0.09507204592,2.78438592,2024-06-05 20:47:51.774395
24.81487698,-0.7119750977,-0.9619054198,1.962292433,2024-06-05 20:47:51.814877
24.85537167,-0.4328840673,-1.203846455,0.8812140226,2024-06-05 20:47:51.855372
24.8958536,-0.4472647011,-0.3950682878,0.4081174135,2024-06-05 20:47:51.895854
24.93635672,-0.273498565,0.1251648813,-0.4331503808,2024-06-05 20:47:51.936357
24.9768775,-0.04527240247,0.8930647373,-1.464162827,2024-06-05 20:47:51.976878
25.01734313,0.1805569977,1.189732075,-2.040853262,2024-06-05 20:47:52.017343
25.05781068,0.352991581,1.211303115,-2.430861712,2024-06-05 20:47:52.057811
25.0982738,0.07643046975,0.9615059495,-3.082651138,2024-06-05 20:47:52.098274
25.13876922,0.071104303,0.4290226102,-3.024329662,2024-06-05 20:47:52.138769
25.17927938,0.3146432042,-0.146070078,-2.541646004,2024-06-05 20:47:52.179279
25.21976261,0.04527240247,-0.2619141638,-1.643787742,2024-06-05 20:47:52.219763
25.2602412,-0.04793548584,-0.6077154279,-0.484814167,2024-06-05 20:47:52.260241
25.30072328,-0.06045197323,-0.7110430598,0.3061213493,2024-06-05 20:47:52.300723
25.34118922,-0.1651111245,-0.229424566,0.7697640061,2024-06-05 20:47:52.341189
25.38165677,-0.0713706091,0.05592473224,1.364563465,2024-06-05 20:47:52.381657
25.42216948,0.07003907114,-0.04833494872,1.813159704,2024-06-05 20:47:52.422169
25.46266995,0.1017297506,-0.05099803209,2.238587141,2024-06-05 20:47:52.462670
25.50313823,-0.07216953486,-0.2738980353,2.849631548,2024-06-05 20:47:52.503138
25.54361271,-0.6600450277,-0.159651801,3.01154685,2024-06-05 20:47:52.543613
25.58410797,-0.3603150845,-0.5005263686,2.313153505,2024-06-05 20:47:52.584108
25.62463271,-0.3177057505,-0.8652355075,1.315562725,2024-06-05 20:47:52.624633
25.66511563,-0.2575200796,-0.6018566489,0.7183665037,2024-06-05 20:47:52.665116
25.70559854,-0.1456706226,0.03861469775,0.137681365,2024-06-05 20:47:52.705599
25.7460288,0.2053236663,0.2572537661,-0.8912006021,2024-06-05 20:47:52.746029
25.78649318,0.2680392563,1.110904932,-1.800643325,2024-06-05 20:47:52.786493
25.82698328,0.2720338702,1.326481462,-2.177735806,2024-06-05 20:47:52.826983
25.86746766,0.2082530558,1.378145218,-2.629794121,2024-06-05 20:47:52.867468
25.90794771,0.08894696087,0.6597787142,-3.268800735,2024-06-05 20:47:52.907948
25.94844313,0.4280905128,0.4410064816,-2.993438005,2024-06-05 20:47:52.948443
25.98893464,0.137681365,0.1025286764,-2.294512033,2024-06-05 20:47:52.988935
26.02943797,0.1070559174,-0.138347134,-1.16749537,2024-06-05 20:47:53.029438
26.06990162,0.03568530455,-0.238479048,0.01331541315,2024-06-05 20:47:53.069902
26.11036979,0.07882724702,-0.2946700752,0.9350082874,2024-06-05 20:47:53.110370
26.15086469,0.005059856921,-0.2683055699,1.437798262,2024-06-05 20:47:53.150865
26.19135714,0.07509893179,-0.1990654171,1.664559722,2024-06-05 20:47:53.191357
26.23182636,0.1392792165,-0.1910761744,2.275337696,2024-06-05 20:47:53.231826
26.27231839,0.1438064575,-0.4741618633,2.793706656,2024-06-05 20:47:53.272318
26.31281,-0.2093182951,-0.2011958808,2.581858635,2024-06-05 20:47:53.312810
26.3532562,-0.223698929,-0.6045197248,2.401567936,2024-06-05 20:47:53.353256
26.39374568,-0.2189053893,-1.869217634,1.837127447,2024-06-05 20:47:53.393746
26.43423203,-0.4584496617,-1.018895388,0.6746919751,2024-06-05 20:47:53.434232
26.47471526,-0.424628526,-0.3079854846,0.4866783321,2024-06-05 20:47:53.474715
26.51519854,-0.2439383566,0.3137111366,-0.5050535798,2024-06-05 20:47:53.515199
26.55568182,-0.0980014354,1.20198226,-1.750311017,2024-06-05 20:47:53.555682
26.59619146,0.09427312016,1.517957091,-2.27560401,2024-06-05 20:47:53.596191
26.63667469,0.3487306535,2.294112444,-2.647636652,2024-06-05 20:47:53.636675
26.67720552,0.0596530512,1.227547884,-3.534176826,2024-06-05 20:47:53.677206
26.7176088,0.4765586257,0.5677692294,-2.959883213,2024-06-05 20:47:53.717609
26.75808578,0.243006289,0.1888125539,-2.405828714,2024-06-05 20:47:53.758086
26.79856797,-0.01278279629,0.02809552103,-1.26842618,2024-06-05 20:47:53.798568
26.83906662,0.07856093347,-0.4299546778,0.239144817,2024-06-05 20:47:53.839067
26.87954917,0.3370130956,-0.5231625438,1.121424079,2024-06-05 20:47:53.879549
26.92004156,0.2573869228,-0.2920069993,1.523150086,2024-06-05 20:47:53.920042
26.96052708,0.09214265645,-0.3399424851,1.536731839,2024-06-05 20:47:53.960527
27.00099521,0.248865068,-0.2762948275,1.539128542,2024-06-05 20:47:54.000995
27.04153458,0.1672415882,0.1342193633,2.323273182,2024-06-05 20:47:54.041535
27.08195115,-0.1185071766,-0.3734973371,3.03524828,2024-06-05 20:47:54.081951
27.12243375,-0.4957328141,-0.2696371078,2.821935415,2024-06-05 20:47:54.122434
27.16293787,-0.2828193605,-1.810097218,1.894650102,2024-06-05 20:47:54.162938
27.2034186,-0.3083849549,-1.266695261,0.5740274191,2024-06-05 20:47:54.203419
27.24390906,-0.1896114796,-0.4067858756,0.3769593239,2024-06-05 20:47:54.243909
27.28433599,-0.1027949899,0.4926702678,-0.4089163244,2024-06-05 20:47:54.284336
27.32481818,0.03701684624,1.197188735,-1.615026474,2024-06-05 20:47:54.324818
27.36532354,0.140877068,1.457238793,-2.481726646,2024-06-05 20:47:54.365324
27.4058424,-0.0822892487,2.261622906,-3.787169695,2024-06-05 20:47:54.405842
27.4463075,0.2525933683,0.1837527007,-3.985303164,2024-06-05 20:47:54.446307
27.48678104,0.6808170676,0.8872059584,-2.75282836,2024-06-05 20:47:54.486781
27.52731646,0.3532578945,0.8251561522,-2.30090332,2024-06-05 20:47:54.527316
27.56777432,0.2978657782,0.2703028917,-1.591591239,2024-06-05 20:47:54.567774
27.6082788,0.2672403455,-0.3026593328,-1.136869907,2024-06-05 20:47:54.608279
27.64876099,0.2039921284,-0.5082492828,-0.5282224417,2024-06-05 20:47:54.648761
27.68921203,0.3005288541,-0.1039933711,0.2039921284,2024-06-05 20:47:54.689212
27.72967693,0.3095833361,0.1352845877,0.7436658144,2024-06-05 20:47:54.729677
27.7701938,0.06977276504,0.09587097168,0.6328815818,2024-06-05 20:47:54.770194
27.81066063,-0.06045197323,-0.01185071748,0.2965342402,2024-06-05 20:47:54.810661
27.85112813,-0.1051917598,-0.08535179496,-0.09347419441,2024-06-05 20:47:54.851128
27.89161125,-0.07722939551,0.3962666988,-0.3889431953,2024-06-05 20:47:54.891611
27.93208089,-0.148067385,0.2591179311,-0.6675016284,2024-06-05 20:47:54.932081
27.97262255,-0.08069140464,0.1664426625,-0.6248922944,2024-06-05 20:47:54.972623
28.01307823,-0.03648423031,-0.103727065,-0.5407389402,2024-06-05 20:47:55.013078
28.05354662,0.08894696087,-0.05259587988,-0.2668408751,2024-06-05 20:47:55.053547
28.09415177,0.1355509013,0.05619104207,0.02450035885,2024-06-05 20:47:55.094152
28.13463484,0.05619104207,0.1073222235,0.2351501882,2024-06-05 20:47:55.134635
28.1749925,0.02370143496,0.168040514,0.231421873,2024-06-05 20:47:55.174992
28.21547932,0.1115831584,0.143540144,0.07430000603,2024-06-05 20:47:55.215479
28.25597651,0.134485662,0.2474003732,-0.1169093251,2024-06-05 20:47:55.255977
28.29647708,0.08015878499,0.2484655976,-0.2503297627,2024-06-05 20:47:55.296477
28.33695719,-0.01651111245,0.1858831644,-0.3182383776,2024-06-05 20:47:55.336957
28.37742724,-0.01970681176,0.1259638071,-0.2529928386,2024-06-05 20:47:55.377427
28.41795484,0.03888100386,0.0868164897,-0.1595186442,2024-06-05 20:47:55.417955
28.45846875,0.03754946589,-0.04167724028,-0.0,2024-06-05 20:47:55.458469
28.49890146,0.06178351492,-0.0733679235,0.01358172111,2024-06-05 20:47:55.498901
28.53934641,0.1347519755,0.02623136342,0.06418029219,2024-06-05 20:47:55.539346
28.57983141,0.1158440933,-0.01691057347,0.2544575334,2024-06-05 20:47:55.579831
28.62031136,0.1009308323,0.01904104091,0.3276923001,2024-06-05 20:47:55.620311
28.66080422,-0.03222329915,0.4575175941,0.3628450036,2024-06-05 20:47:55.660804
28.70128703,-0.05352795869,0.1517957002,0.2183727771,2024-06-05 20:47:55.701287
28.74178073,0.05272903293,-0.07709623873,0.1587197185,2024-06-05 20:47:55.741781
28.78224307,-0.1256974936,-0.06617759913,-0.005059856921,2024-06-05 20:47:55.782243
28.82273365,-0.1613828093,-0.3977313936,-0.2101172209,2024-06-05 20:47:55.822734
28.86321839,0.1001319066,-0.1966686398,-0.3187709749,2024-06-05 20:47:55.863218
28.90369839,0.3330184817,-0.1455374658,-0.2474003732,2024-06-05 20:47:55.903698
28.94417537,0.1581871063,-0.007057168987,-0.1914756298,2024-06-05 20:47:55.944175
28.98465693,0.1813559234,0.0490007177,-0.01677742042,2024-06-05 20:47:55.984657
29.02513708,-0.0037283157,0.2290250957,-0.03967992961,2024-06-05 20:47:56.025137
29.0656338,-0.03621792421,0.09693620354,-0.1312899739,2024-06-05 20:47:56.065634
29.10607172,0.1789591461,0.04660394415,-0.1837527007,2024-06-05 20:47:56.106072
29.14655464,0.253392309,-0.09467258304,-0.2705691755,2024-06-05 20:47:56.146555
29.18705646,0.1675078869,-0.08268871158,-0.2407426685,2024-06-05 20:47:56.187056
29.22755646,0.06125089899,-0.06378082931,-0.1105179265,2024-06-05 20:47:56.227556
29.26807115,0.08521863818,-0.02782921307,-0.02876129188,2024-06-05 20:47:56.268071
29.30853156,0.02796236612,0.06284874678,0.04953333735,2024-06-05 20:47:56.308532
29.34898917,0.001331541222,0.06684337556,0.107588537,2024-06-05 20:47:56.348989
29.38947958,0.005592473317,0.04314193875,0.103061296,2024-06-05 20:47:56.389480
29.4299737,0.001331541222,0.04074516147,-0.01757634431,2024-06-05 20:47:56.429974
29.47046828,0.05485950038,-0.08348763734,-0.005059856921,2024-06-05 20:47:56.470468
29.51094448,0.06418029219,-0.02197043039,0.04793548584,2024-06-05 20:47:56.510944
29.55144755,0.05938674137,-0.02410089783,0.1320888996,2024-06-05 20:47:56.551448
29.59191531,-0.04127778113,0.005459319334,0.08868064731,2024-06-05 20:47:56.591915
29.6324237,0.018907886,-0.06697652489,0.04314193875,2024-06-05 20:47:56.632424
29.67288807,0.05272903293,-0.04993279651,-0.01065232977,2024-06-05 20:47:56.672888
29.7133438,0.002929390874,-0.0733679235,-0.05592473224,2024-06-05 20:47:56.713344
29.75382615,-0.01331541315,-0.06990591437,-0.1986659616,2024-06-05 20:47:56.753826
29.79431057,0.0330222249,-0.07549838722,-0.3129121959,2024-06-05 20:47:56.794311
29.83477974,0.07296846062,-0.03635107726,-0.3475322723,2024-06-05 20:47:56.834780
29.87526365,0.107588537,-0.01344856713,-0.21784015,2024-06-05 20:47:56.875264
29.91575287,-0.08042509109,-0.003595161485,-0.1193061024,2024-06-05 20:47:56.915753
29.95623349,-0.02689713426,0.145404309,-0.04687025398,2024-06-05 20:47:56.956233
29.99675662,-0.08335448056,-0.01158440951,0.1448716968,2024-06-05 20:47:56.996757
30.03723438,-0.1448716968,-0.04354140162,0.1318225861,2024-06-05 20:47:57.037234
30.07769474,-0.02077204362,-0.05579157919,0.1744319052,2024-06-05 20:47:57.077695
30.11817125,-0.008521864191,-0.06644391268,0.1520620137,2024-06-05 20:47:57.118171
30.1586774,-0.1733666807,-0.08188978583,-0.02157096937,2024-06-05 20:47:57.158677
30.1991601,0.04713656008,0.2143781483,0.08601756394,2024-06-05 20:47:57.199160
30.2396238,-0.04367455468,0.3217003644,0.3130453527,2024-06-05 20:47:57.239624
30.2801362,-0.08468602598,0.1821548492,0.4730966091,2024-06-05 20:47:57.280136
30.32060193,-0.04740286991,0.1099853069,0.6328815818,2024-06-05 20:47:57.320602
30.36106896,-0.3738967776,-0.243006289,0.4613790512,2024-06-05 20:47:57.361069
30.40156995,-0.1834863871,-0.5888075829,0.2749632597,2024-06-05 20:47:57.401570
30.44205886,0.134485662,-0.4286231399,0.3085181117,2024-06-05 20:47:57.442059
30.48254188,0.056723658,-0.1692388952,0.2555227578,2024-06-05 20:47:57.482542
30.5229999,-0.01677742042,0.0713706091,0.2459356785,2024-06-05 20:47:57.523000
30.56356813,-0.08788172156,0.2790910602,0.1752308309,2024-06-05 20:47:57.563568
30.6040024,-0.1086537689,0.2748301327,0.08788172156,2024-06-05 20:47:57.604002
30.64448547,-0.0146469539,0.1509967744,0.1262301207,2024-06-05 20:47:57.644485
30.68496854,-0.01517957076,-0.007057168987,0.3492632806,2024-06-05 20:47:57.684969
30.72543927,0.06950645149,-0.2725664973,0.7889382243,2024-06-05 20:47:57.725439
30.76595662,0.04527240247,-0.4304873049,1.399982452,2024-06-05 20:47:57.765957
30.80638682,-0.1470021605,-0.39746508,1.765756845,2024-06-05 20:47:57.806387
30.8469011,0.05912043154,-0.3423392773,1.481339693,2024-06-05 20:47:57.846901
30.88735412,0.1651111245,-0.1356840581,0.9427312016,2024-06-05 20:47:57.887354
30.92782771,-0.1496652365,-0.4621779919,0.8780183196,2024-06-05 20:47:57.927828
30.96833313,0.09054480493,-0.5687012672,0.9627043605,2024-06-05 20:47:57.968333
31.00879953,-0.01198387146,0.1209039465,2.120346308,2024-06-05 20:47:58.008800
31.04933146,-0.1310236603,0.1949376464,2.364817381,2024-06-05 20:47:58.049331
31.0897786,-0.4174381793,0.5693670511,2.468677521,2024-06-05 20:47:58.089779
31.1302251,-0.4427374899,-0.09147688746,2.356295347,2024-06-05 20:47:58.130225
31.17071943,0.2323539555,-1.757501364,1.824611068,2024-06-05 20:47:58.170719
31.21122844,0.169372052,-1.119559884,1.109173894,2024-06-05 20:47:58.211228
31.25172953,-0.03115806542,-0.4781564772,0.5660381913,2024-06-05 20:47:58.251730
31.29228021,-0.0708379969,0.1805569977,0.071104303,2024-06-05 20:47:58.292280
31.33276297,-0.314776361,0.4306204617,-0.6983934045,2024-06-05 20:47:58.332763
31.37312682,-0.2865476906,0.8099765778,-1.673880577,2024-06-05 20:47:58.373127
31.41366641,-0.3017272651,1.502511144,-2.338186502,2024-06-05 20:47:58.413666
31.45412735,-0.3854812086,1.807434082,-2.807022095,2024-06-05 20:47:58.454127
31.49461047,0.07909355313,0.9085106254,-2.879990578,2024-06-05 20:47:58.494610
31.53509354,0.5620435476,0.8384715319,-2.98624754,2024-06-05 20:47:58.535094
31.57557625,0.3950682878,0.3501953483,-2.485455036,2024-06-05 20:47:58.575576
31.6160586,0.3418066502,-0.07150376588,-1.592123866,2024-06-05 20:47:58.616059
31.6565337,0.2762948275,-0.2331528813,-0.5897396207,2024-06-05 20:47:58.656534
31.6970411,0.01331541315,-0.2318213433,0.2869471312,2024-06-05 20:47:58.697041
31.73752188,0.08708280325,-0.6220960617,1.387732267,2024-06-05 20:47:58.737522
31.77799761,0.3055887222,-0.5794867873,1.989722133,2024-06-05 20:47:58.777998
31.81846854,0.3655080795,0.1038602218,1.447119117,2024-06-05 20:47:58.818469
31.85895516,0.2850829959,-0.1524614692,1.122755647,2024-06-05 20:47:58.858955
31.89944037,0.2717675865,-0.4616453648,1.759898067,2024-06-05 20:47:58.899440
31.9399276,0.2218347788,-0.4006607831,2.178934097,2024-06-05 20:47:58.939928
31.98040964,-0.1515294015,-0.3303554058,2.560021162,2024-06-05 20:47:58.980410
32.02088625,-0.222367391,-0.5780220628,2.487585306,2024-06-05 20:47:59.020886
32.06136214,-0.1645784974,-0.9698946476,1.69784832,2024-06-05 20:47:59.061362
32.10184776,-0.1131810099,-0.9922645688,0.9235570431,2024-06-05 20:47:59.101848
32.14236151,-0.5047873259,-0.137015596,0.3862801194,2024-06-05 20:47:59.142362
32.1828787,-0.4864120185,0.2987978756,-0.2711018026,2024-06-05 20:47:59.182879
32.22331026,-0.1991985738,0.7157034278,-1.22395277,2024-06-05 20:47:59.223310
32.26380646,-0.08601756394,1.012903452,-1.794251919,2024-06-05 20:47:59.263806
32.30430578,0.0977351293,1.268692493,-2.156164885,2024-06-05 20:47:59.304306
32.3447563,0.02902759984,1.33447063,-2.689180851,2024-06-05 20:47:59.344756
32.38525266,0.112115778,0.5110455155,-3.065873861,2024-06-05 20:47:59.385253
32.42573162,0.1363498271,0.1552577168,-2.749899149,2024-06-05 20:47:59.425732
32.46619688,0.04420717061,0.08628387749,-2.257228851,2024-06-05 20:47:59.466197
32.50671438,-0.07856093347,0.04607132822,-1.492391467,2024-06-05 20:47:59.506714
32.54717677,0.01065232977,-0.007057168987,-0.502923131,2024-06-05 20:47:59.547177
32.58766125,0.02183727734,-0.2509955168,0.3521926701,2024-06-05 20:47:59.587661
32.62815474,0.134485662,-0.3314206302,1.0316782,2024-06-05 20:47:59.628155
32.66862318,0.3002625704,-0.1407439113,1.519421697,2024-06-05 20:47:59.668623
32.70911136,0.383883357,0.056723658,1.6911906,2024-06-05 20:47:59.709111
32.7496001,0.3601819277,-0.2153102309,2.102503777,2024-06-05 20:47:59.749600
32.79009802,0.3564535975,-0.7480598688,2.521140337,2024-06-05 20:47:59.790098
32.83057271,-0.004793548491,-0.2858819067,2.668941259,2024-06-05 20:47:59.830573
32.87104781,-0.4461994767,0.2870802879,2.553896189,2024-06-05 20:47:59.871048
32.91151,-0.618500948,-0.4406070113,2.198374748,2024-06-05 20:47:59.911510
32.9520374,-0.3579182923,-1.342593074,1.328878164,2024-06-05 20:47:59.952037
32.99253365,-0.6480611563,-0.8596430421,0.5740274191,2024-06-05 20:47:59.992534
33.0329737,-0.6515231729,-0.3519263566,0.03408745676,2024-06-05 20:48:00.032974
33.07346297,-0.4454005659,0.6805507541,-0.8717600703,2024-06-05 20:48:00.073463
33.11395886,-0.04074516147,0.9915987849,-1.512897253,2024-06-05 20:48:00.113959
33.15444292,0.1776276082,1.333139181,-1.995580912,2024-06-05 20:48:00.154443
33.19492698,0.1517957002,1.504109025,-2.396241665,2024-06-05 20:48:00.194927
33.23541104,0.1983996481,0.80864501,-2.765344858,2024-06-05 20:48:00.235411
33.27585052,0.1035939083,0.3145100474,-2.846435785,2024-06-05 20:48:00.275851
33.31636146,-0.008255556226,0.1765623689,-2.54723835,2024-06-05 20:48:00.316361
33.35680896,-0.09400681406,0.08734910935,-1.863225698,2024-06-05 20:48:00.356809
33.39729302,0.02103835158,0.1163767055,-1.150717974,2024-06-05 20:48:00.397293
33.43784818,0.1110505462,-0.1828206182,-0.1976007223,2024-06-05 20:48:00.437848
33.47828047,0.1837527007,-0.2856155932,0.6914693713,2024-06-05 20:48:00.478280
33.51876594,0.4073184729,-0.03075860441,1.532737136,2024-06-05 20:48:00.518766
33.55925547,0.3181052208,-0.01078548469,1.920748353,2024-06-05 20:48:00.559255
33.59972755,0.277892679,-0.2547238469,1.529008865,2024-06-05 20:48:00.599728
33.64021547,0.3260944486,-0.3601819277,1.772148252,2024-06-05 20:48:00.640215
33.68072281,0.0868164897,-0.1178414002,2.184260368,2024-06-05 20:48:00.680723
33.72117042,-0.3600487709,-0.226228863,2.418345213,2024-06-05 20:48:00.721170
33.76166896,-0.2846835256,-0.3668396175,2.455894709,2024-06-05 20:48:00.761669
33.80220261,-0.09853405505,-1.043662071,1.675478339,2024-06-05 20:48:00.802203
33.84262516,0.04473978654,-0.9635032415,0.8900021911,2024-06-05 20:48:00.842625
33.88310099,-0.4797543287,0.07643046975,0.6051855087,2024-06-05 20:48:00.883101
33.92356052,-0.3849485815,0.4202344418,-0.142208606,2024-06-05 20:48:00.923561
33.9640637,-0.01091863867,0.6106448174,-1.203979611,2024-06-05 20:48:00.964064
34.00454641,0.1342193633,0.9958597422,-1.779871225,2024-06-05 20:48:01.004546
34.04502906,0.199731186,1.427412271,-2.166284561,2024-06-05 20:48:01.045029
34.0855038,0.3181052208,1.000653267,-2.608222961,2024-06-05 20:48:01.085504
34.12600787,0.4211665094,0.3858806491,-2.921268463,2024-06-05 20:48:01.126008
34.16648333,0.3141105771,0.2463351339,-2.878925323,2024-06-05 20:48:01.166483
34.20697682,0.1651111245,-0.1487331539,-2.287321568,2024-06-05 20:48:01.206977
34.24747365,0.005592473317,-0.4278241992,-1.506772161,2024-06-05 20:48:01.247474
34.28796797,-0.1126483902,-0.3700353205,-0.524227798,2024-06-05 20:48:01.287968
34.32842162,0.005592473317,-0.3303554058,0.5615109801,2024-06-05 20:48:01.328422
34.36886427,0.2079867423,-0.4131772518,1.184006453,2024-06-05 20:48:01.368864
34.40939573,0.39746508,-0.1229012609,1.556172252,2024-06-05 20:48:01.409396
34.44986828,0.4685693681,0.08921326697,1.709565878,2024-06-05 20:48:01.449868
34.49034734,0.3173062801,-0.1244991124,1.876274824,2024-06-05 20:48:01.490347
34.53082375,0.3828181326,-0.6468627453,2.38851881,2024-06-05 20:48:01.530824
34.57134813,-0.08468602598,-0.3636439145,2.39437747,2024-06-05 20:48:01.571348
34.61179396,-0.3131785095,-0.01211702544,2.417812586,2024-06-05 20:48:01.611794
34.65227672,-0.5932016373,-0.5904054046,2.089454651,2024-06-05 20:48:01.652277
34.6928101,-0.4832163453,-1.005846262,1.284671068,2024-06-05 20:48:01.692810
34.73327813,-0.4651073813,-0.865501821,0.6951977015,2024-06-05 20:48:01.733278
34.77374625,-0.6256912351,-0.1367492825,0.2573869228,2024-06-05 20:48:01.773746
34.81421526,-0.3844159544,0.3107817471,-0.5620435476,2024-06-05 20:48:01.814215
34.85467235,-0.1384802908,0.7918676138,-1.437265635,2024-06-05 20:48:01.854672
34.89515516,-0.01544587873,1.135671616,-1.833931804,2024-06-05 20:48:01.895155
34.9356462,0.2125139832,1.454309344,-2.270277977,2024-06-05 20:48:01.935646
34.97614964,0.1970681101,1.082942486,-2.878925323,2024-06-05 20:48:01.976150
35.01664214,0.4043890834,0.2881455421,-2.834451914,2024-06-05 20:48:02.016642
35.05712542,0.2382127345,-0.1692388952,-2.515547752,2024-06-05 20:48:02.057125
35.09758708,0.03541899845,-0.1399449855,-2.089854002,2024-06-05 20:48:02.097587
35.13805589,-0.06710968167,-0.1295589656,-1.137935162,2024-06-05 20:48:02.138056
35.17855833,-0.04340824485,-0.09121058136,-0.327026546,2024-06-05 20:48:02.178558
35.21906344,0.0229025092,-0.1380808353,0.4842815697,2024-06-05 20:48:02.219063
35.25953219,0.1070559174,-0.05499265343,1.095858455,2024-06-05 20:48:02.259532
35.3000149,0.1584534049,-0.08295502514,1.512497783,2024-06-05 20:48:02.300015
35.34049047,0.3236976862,0.08335448056,1.686663389,2024-06-05 20:48:02.340490
35.38096167,0.3644428551,-0.09334104508,1.736196637,2024-06-05 20:48:02.380962
35.42144386,0.2968005538,-0.4659062922,2.099840641,2024-06-05 20:48:02.421444
35.46193016,-0.0007989247679,-0.2968005538,2.426867247,2024-06-05 20:48:02.461930
35.50243229,-0.2908086181,-0.4153077304,2.414350748,2024-06-05 20:48:02.502432
35.54295224,-0.4693683088,-0.2131797522,2.171211243,2024-06-05 20:48:02.542952
35.58342391,-0.3932041526,-0.9563129544,1.480807066,2024-06-05 20:48:02.583424
35.62388219,-0.2740311921,-0.6580476761,0.8551158309,2024-06-05 20:48:02.623882
35.66435224,-0.5492607951,0.02889444493,0.3316869438,2024-06-05 20:48:02.664352
35.70483583,-0.3113143444,0.3962666988,-0.5865439177,2024-06-05 20:48:02.704836
35.74531948,-0.08468602598,0.6271559596,-1.328878164,2024-06-05 20:48:02.745319
35.78579974,0.0146469539,0.9660332203,-1.857899547,2024-06-05 20:48:02.785800
35.82628146,0.02663082629,1.342992544,-2.175871611,2024-06-05 20:48:02.826281
35.86676495,0.1699046642,0.93407619,-2.692909002,2024-06-05 20:48:02.866765
35.9072451,0.2058562785,0.2969337106,-2.834984541,2024-06-05 20:48:02.907245
35.94774505,0.2826862037,0.3715000153,-2.465748072,2024-06-05 20:48:02.947745
35.98822662,0.181622237,0.1209039465,-2.079468012,2024-06-05 20:48:02.988227
36.02873818,0.1525946259,0.1627143472,-1.533669233,2024-06-05 20:48:03.028738
36.06919589,0.1161103994,0.0458050184,-0.7242252827,2024-06-05 20:48:03.069196
36.10965886,0.1334204376,-0.1591191888,0.2890776098,2024-06-05 20:48:03.109659
36.15014688,0.08868064731,-0.1727008969,0.9413996935,2024-06-05 20:48:03.150147
36.19063261,0.2213021666,-0.1599181145,1.339796782,2024-06-05 20:48:03.190633
36.23110943,0.3628450036,-0.1047922969,1.573216081,2024-06-05 20:48:03.231109
36.2716061,0.4286231399,-0.3796224296,1.784398437,2024-06-05 20:48:03.271606
36.31209781,0.3745625615,-0.6609770656,2.21248889,2024-06-05 20:48:03.312098
36.35252537,0.2291582525,-0.6865426898,2.521672964,2024-06-05 20:48:03.352525
36.39306099,-0.177094996,-0.3205019832,2.495574713,2024-06-05 20:48:03.393061
36.43355391,-0.3873453438,-0.2994636297,2.348306179,2024-06-05 20:48:03.433554
36.47400854,-0.5932016373,-0.4496614933,1.689859033,2024-06-05 20:48:03.474009
36.51448177,-0.2660419345,-1.03540647,0.9760197401,2024-06-05 20:48:03.514482
36.55496344,-0.2825530469,-0.4416722357,0.4294220507,2024-06-05 20:48:03.554963
36.59543599,-0.4651073813,0.04793548584,-0.228758797,2024-06-05 20:48:03.595436
36.63591813,-0.3086512685,0.516371727,-1.024754167,2024-06-05 20:48:03.635918
36.67646458,-0.1765623689,0.8248898387,-1.586797714,2024-06-05 20:48:03.676465
36.71692214,-0.08282186836,0.943130672,-1.947112799,2024-06-05 20:48:03.716922
36.75738427,-0.04527240247,0.8882712126,-2.538716555,2024-06-05 20:48:03.757384
36.79786792,0.02876129188,0.5800193548,-2.971867085,2024-06-05 20:48:03.797868
36.83835828,0.05858781561,0.1677742004,-2.746437073,2024-06-05 20:48:03.838358
36.87884047,0.1187734827,0.2609820962,-2.263353825,2024-06-05 20:48:03.878840
36.9193263,0.02929390781,0.1097190008,-1.772680879,2024-06-05 20:48:03.919326
36.95985386,0.005592473317,0.2471340597,-1.040998936,2024-06-05 20:48:03.959854
37.00031542,0.01384802908,-0.007323476952,-0.1456706226,2024-06-05 20:48:04.000315
37.04080886,0.01304910425,-0.221701622,0.6145063043,2024-06-05 20:48:04.040809
37.08127287,0.1139799356,-0.339409858,1.205044866,2024-06-05 20:48:04.081273
37.12175583,0.222367391,-0.07256899774,1.460168123,2024-06-05 20:48:04.121756
37.1622675,0.3524589837,0.03488638252,1.79212141,2024-06-05 20:48:04.162267
37.20274901,0.3612471521,-0.1210371032,2.199972391,2024-06-05 20:48:04.202749
37.24323193,0.2920069993,-0.654053092,2.375203371,2024-06-05 20:48:04.243232
37.28366042,-0.03222329915,-0.3157084286,2.366681576,2024-06-05 20:48:04.283660
37.32416339,-0.2745638192,-0.04940018058,2.25563097,2024-06-05 20:48:04.324163
37.36461714,-0.3419398069,-0.5497934222,1.697582006,2024-06-05 20:48:04.364617
37.40509396,-0.2159759998,-0.9246222377,1.016232252,2024-06-05 20:48:04.405094
37.44557682,-0.4179708064,-0.4267589748,0.6789528728,2024-06-05 20:48:04.445577
37.48605979,-0.4555202723,0.08894696087,0.3106485903,2024-06-05 20:48:04.486060
37.52658828,-0.1539261788,0.08495233208,-0.4243622124,2024-06-05 20:48:04.526588
37.56705615,-0.07829462737,0.5765573978,-1.165364981,2024-06-05 20:48:04.567056
37.60750214,0.04766917601,1.003582716,-1.642456174,2024-06-05 20:48:04.607502
37.64798495,0.09880036116,1.235537171,-1.971346855,2024-06-05 20:48:04.647985
37.68850677,0.2515281439,0.955380857,-2.423671484,2024-06-05 20:48:04.688507
37.7289738,0.2382127345,0.5986609459,-2.666278362,2024-06-05 20:48:04.728974
37.76948307,0.5023905039,0.3683043122,-2.401035309,2024-06-05 20:48:04.769483
37.80997839,0.2978657782,-0.164179042,-2.340583324,2024-06-05 20:48:04.809978
37.85042729,0.09240896255,-0.2592510879,-1.613694906,2024-06-05 20:48:04.850427
37.8909101,-0.01278279629,-0.1402112991,-0.6493926644,2024-06-05 20:48:04.890910
37.93137427,-0.07216953486,-0.1987991184,0.03488638252,2024-06-05 20:48:04.931374
37.97187318,-0.07563154399,-0.07736254483,0.5966636539,2024-06-05 20:48:04.971873
38.01237047,0.1113168523,-0.1234338731,1.072955966,2024-06-05 20:48:05.012370
38.05287328,0.1720351279,-0.1663095057,1.334204316,2024-06-05 20:48:05.052873
38.09338802,0.2141118348,0.06790860742,1.74232173,2024-06-05 20:48:05.093388
38.13387099,0.3822855055,-0.4153077304,1.889057636,2024-06-05 20:48:05.133871
38.17428406,0.2288919389,-0.502923131,1.817953348,2024-06-05 20:48:05.174284
38.21476703,-0.1531272531,0.1315562725,2.239119768,2024-06-05 20:48:05.214767
38.25521943,-0.5266245604,-0.2613815665,2.320343733,2024-06-05 20:48:05.255219
38.29572281,-0.60678339,-0.3804213405,2.077470779,2024-06-05 20:48:05.295723
38.33623776,-0.3669727743,-0.8047835231,1.491991997,2024-06-05 20:48:05.336238
38.37670219,-0.2836183012,-0.7430000305,0.7649704814,2024-06-05 20:48:05.376702
38.41719193,-0.3557878435,-0.06777545065,0.1736329794,2024-06-05 20:48:05.417192
38.4576862,-0.1741656065,0.4260932207,-0.5226299763,2024-06-05 20:48:05.457686
38.49815406,-0.02423405088,0.8211615086,-1.267893553,2024-06-05 20:48:05.498154
38.53864391,0.107588537,0.9657669067,-1.825409889,2024-06-05 20:48:05.538644
38.57914089,0.2114487588,1.085605621,-2.194646358,2024-06-05 20:48:05.579141
38.61959896,0.2621804774,1.006512046,-2.630859375,2024-06-05 20:48:05.619599
38.66008802,0.2363485843,0.4348813891,-2.830723524,2024-06-05 20:48:05.660088
38.70057438,0.1472684592,0.1451379955,-2.50276494,2024-06-05 20:48:05.700574
38.74106922,0.0758978501,-0.02942706272,-2.233261108,2024-06-05 20:48:05.741069
38.78154094,-0.06311506033,-0.02250304818,-1.487864256,2024-06-05 20:48:05.781541
38.82202313,-0.02583190054,0.08042509109,-0.6509905457,2024-06-05 20:48:05.822023
38.86251979,0.06231613085,-0.1114500016,0.2063889056,2024-06-05 20:48:05.862520
38.90300333,0.2173075378,-0.1482005417,0.8846760392,2024-06-05 20:48:05.903003
38.9434875,0.3013277948,0.07909355313,1.526612043,2024-06-05 20:48:05.943488
38.98397073,0.5162385702,0.1864157766,1.737261891,2024-06-05 20:48:05.983971
39.0244538,0.5327496529,0.03408745676,1.76016438,2024-06-05 20:48:06.024454
39.06492031,0.4691019952,-0.248865068,2.091052532,2024-06-05 20:48:06.064920
39.10537021,0.3625786901,-0.5705654621,2.455628395,2024-06-05 20:48:06.105370
39.14587589,0.03035914153,-0.07443315536,2.357094288,2024-06-05 20:48:06.145876
39.18636162,-0.2820204496,0.1347519755,2.137922764,2024-06-05 20:48:06.186362
39.22684344,-0.3137111366,-0.6095796227,1.709565878,2024-06-05 20:48:06.226843
39.26735969,-0.1294258088,-1.014368176,1.14672339,2024-06-05 20:48:06.267360
39.30782422,-0.4147751033,-0.6074491143,0.5873428583,2024-06-05 20:48:06.307824
39.3482713,-0.5460650921,-0.1077216864,0.162181735,2024-06-05 20:48:06.348271
39.38876823,-0.4022586346,0.1195724085,-0.6733604074,2024-06-05 20:48:06.388768
39.4292624,-0.2455362082,0.7844109535,-1.355509043,2024-06-05 20:48:06.429262
39.46975401,-0.09453943372,0.9870715737,-1.692788482,2024-06-05 20:48:06.469754
39.51023266,0.04367455468,0.9591091871,-2.129534006,2024-06-05 20:48:06.510233
39.55074271,0.01997311972,0.6335473657,-2.635919094,2024-06-05 20:48:06.550743
39.59120458,0.1920082569,0.2636451721,-2.834718227,2024-06-05 20:48:06.591205
39.63169172,0.1177082509,-0.1878804713,-2.70249629,2024-06-05 20:48:06.631692
39.672195,0.05246272683,-0.2400768995,-2.323006868,2024-06-05 20:48:06.672195
39.71269865,0.04021254554,-0.08854749799,-1.447917938,2024-06-05 20:48:06.712699
39.75315729,-0.1169093251,-0.03075860441,-0.3131785095,2024-06-05 20:48:06.753157
39.79361099,-0.1978670359,0.09347419441,0.7228937745,2024-06-05 20:48:06.793611
39.8340876,-0.148067385,0.09134373069,1.312100768,2024-06-05 20:48:06.834088
39.87457037,0.02503297664,-0.05685681105,1.670418501,2024-06-05 20:48:06.874570
39.91505896,0.1901440918,0.133154124,1.647249699,2024-06-05 20:48:06.915059
39.95552943,0.1171756312,0.03382114694,1.836062312,2024-06-05 20:48:06.955529
39.99603766,0.1802906841,-0.3103822768,2.124074697,2024-06-05 20:48:06.996038
40.03650073,0.1041265279,-0.3354152441,2.048842669,2024-06-05 20:48:07.036501
40.07699688,-0.04926702753,-0.3796224296,2.001706123,2024-06-05 20:48:07.076997
40.11744354,0.0114512546,-0.3849485815,1.845915675,2024-06-05 20:48:07.117444
40.15792578,0.002929390874,-0.8508548737,1.668820739,2024-06-05 20:48:07.157926
40.19843432,0.05113118514,-0.767234087,0.8947957158,2024-06-05 20:48:07.198434
40.23893542,-0.2620473206,-0.177760765,0.4171718955,2024-06-05 20:48:07.238935
40.2794212,-0.4009270668,0.2250304818,-0.0229025092,2024-06-05 20:48:07.279421
40.3199061,-0.2796236575,-0.04780233279,-0.5559184551,2024-06-05 20:48:07.319906
40.36038787,0.07962616533,-0.2792242169,-1.033808708,2024-06-05 20:48:07.360388
40.40085214,-0.02130465955,0.753519237,-1.66589129,2024-06-05 20:48:07.400852
40.44132974,-0.03035914153,1.20943892,-1.685598135,2024-06-05 20:48:07.441330
40.4818062,0.05539211631,1.085072994,-1.845383048,2024-06-05 20:48:07.481806
40.5223125,0.04234301299,0.9386034608,-2.207695484,2024-06-05 20:48:07.522312
40.56278479,0.08548495173,0.4165061116,-2.487052917,2024-06-05 20:48:07.562785
40.60322568,0.2291582525,0.2838846147,-2.649234533,2024-06-05 20:48:07.603226
40.64372537,0.134485662,-0.2856155932,-2.102104187,2024-06-05 20:48:07.643725
40.68423089,0.06631075591,-0.1727008969,-1.653374791,2024-06-05 20:48:07.684231
40.72470974,-0.02157096937,0.02942706272,-1.061504722,2024-06-05 20:48:07.724710
40.76519412,-0.02263620123,-0.0621829778,-0.2756290436,2024-06-05 20:48:07.765194
40.80569755,0.02183727734,-0.2781589627,0.4661726058,2024-06-05 20:48:07.805698
40.84616292,0.05086487532,-0.3724320829,1.111570716,2024-06-05 20:48:07.846163
40.88666969,0.1233007237,-0.05818835273,1.456439853,2024-06-05 20:48:07.886670
40.92713537,0.3705679476,0.1283605844,1.786528945,2024-06-05 20:48:07.927135
40.96758823,0.3146432042,0.03967992961,2.16428709,2024-06-05 20:48:07.967588
41.00806448,0.2645772398,-0.2499302924,2.475069046,2024-06-05 20:48:08.008064
41.04856641,0.1424749196,-0.1050586104,2.328865767,2024-06-05 20:48:08.048566
41.08906234,-0.1656437367,-0.1705704331,2.230597973,2024-06-05 20:48:08.089062
41.1295337,-0.1153114736,-0.5524564981,1.998244047,2024-06-05 20:48:08.129534
41.1700237,-0.07430000603,-0.6354115009,1.568156123,2024-06-05 20:48:08.170024
41.21050781,-0.01731003635,-0.4238295853,1.089999676,2024-06-05 20:48:08.210508
41.2510163,-0.07456631213,-0.4342156053,0.4853467941,2024-06-05 20:48:08.251016
41.29147656,-0.1323551983,-0.1343525201,0.05166380107,2024-06-05 20:48:08.291477
41.33196412,0.05778888986,0.339276731,-0.6941324472,2024-06-05 20:48:08.331964
41.37244693,0.1307573467,0.9199618697,-1.182675004,2024-06-05 20:48:08.372447
41.41289948,0.1432738453,0.8376725912,-1.59984684,2024-06-05 20:48:08.412899
41.45341516,0.1874810159,0.8464608192,-2.000907183,2024-06-05 20:48:08.453415
41.49390677,0.1685731262,0.8459281921,-2.449503422,2024-06-05 20:48:08.493907
41.53440005,0.12117026,0.5632419586,-2.817141771,2024-06-05 20:48:08.534400
41.57485886,0.1256974936,0.1531272531,-2.520341396,2024-06-05 20:48:08.574859
41.61530469,0.1645784974,-0.1194392517,-2.008363724,2024-06-05 20:48:08.615305
41.65583766,-0.01198387146,-0.1798912287,-1.591058731,2024-06-05 20:48:08.655838
41.69631974,-0.06551183015,-0.02010627277,-0.8256887197,2024-06-05 20:48:08.696320
41.73679365,-0.1382139921,-0.1980001926,-0.1073222235,2024-06-05 20:48:08.736794
41.77727688,-0.02023942769,-0.3979976773,0.4248948097,2024-06-05 20:48:08.777277
41.81772656,0.02183727734,-0.3276923001,0.8384715319,2024-06-05 20:48:08.817727
41.85820979,0.190676704,-0.07230269164,1.194925189,2024-06-05 20:48:08.858210
41.89869302,0.3780245781,-0.02649767138,1.512764096,2024-06-05 20:48:08.898693
41.93918016,0.3703016341,0.01291595027,1.912492752,2024-06-05 20:48:08.939180
41.97971656,0.3364804685,-0.3228987455,2.0990417,2024-06-05 20:48:08.979717
42.02016932,0.1288931966,-0.2014621943,1.96282506,2024-06-05 20:48:09.020169
42.06064651,-0.05166380107,-0.6396724582,2.070812941,2024-06-05 20:48:09.060647
42.10116839,-0.0820229426,-0.5069177747,2.085726261,2024-06-05 20:48:09.101168
42.14161792,-0.07376738638,-0.7477935553,1.677875161,2024-06-05 20:48:09.141618
42.18208156,-0.177094996,-0.6500584483,0.9744219184,2024-06-05 20:48:09.182082
42.22256969,-0.3966661394,-0.03262276202,0.7338123918,2024-06-05 20:48:09.222570
42.26309448,-0.4408733249,0.1334204376,0.1834863871,2024-06-05 20:48:09.263094
42.3035649,-0.2673735023,0.1446053833,-0.4991948307,2024-06-05 20:48:09.303565
42.34407068,-0.2085193694,0.6268896461,-1.116097927,2024-06-05 20:48:09.344071
42.38450438,-0.1528609395,0.9929303527,-1.704772353,2024-06-05 20:48:09.384504
42.4249886,0.05272903293,1.162568688,-1.844850421,2024-06-05 20:48:09.424989
42.46550844,0.1073222235,1.055512786,-2.19251585,2024-06-05 20:48:09.465508
42.50596828,0.2034595013,0.8893364072,-2.497971535,2024-06-05 20:48:09.505968
42.54648375,0.3117138147,0.4631100595,-2.447639227,2024-06-05 20:48:09.546484
42.586925,0.239810586,0.1427412182,-2.162289858,2024-06-05 20:48:09.586925
42.62737797,0.250729233,0.1379476786,-1.507837296,2024-06-05 20:48:09.627378
42.66787776,0.1552577168,0.1209039465,-0.8384715319,2024-06-05 20:48:09.667878
42.7083713,0.09720251709,-0.04167724028,-0.07802832127,2024-06-05 20:48:09.708371
42.74885479,0.2746969759,-0.01797580719,0.4003944695,2024-06-05 20:48:09.748855
42.78935688,0.3311543167,-0.1207707971,0.6848116517,2024-06-05 20:48:09.789357
42.82985766,0.3540568352,-0.1055912226,0.883610785,2024-06-05 20:48:09.829858
42.87032432,0.5133091807,0.1904104054,1.328345537,2024-06-05 20:48:09.870324
42.91079162,0.4826837182,-0.04700340703,1.651244283,2024-06-05 20:48:09.910792
42.95127208,0.5047873259,-0.3303554058,1.96282506,2024-06-05 20:48:09.951272
42.99176688,0.2893439233,-0.1772281379,2.176004648,2024-06-05 20:48:09.991767
43.03226021,-0.2074541301,-0.2709686458,2.238320827,2024-06-05 20:48:10.032260
43.07272177,-0.2524602413,-0.4640421271,2.207429171,2024-06-05 20:48:10.072722
43.11320604,-0.3648423254,-0.7107767463,1.815023899,2024-06-05 20:48:10.113206
43.15368969,-0.2636451721,-1.046058774,1.214631915,2024-06-05 20:48:10.153690
43.19417104,-0.2625799477,-0.9137036204,0.8091776371,2024-06-05 20:48:10.194171
43.23464974,-0.3966661394,-0.02916075476,0.382019192,2024-06-05 20:48:10.234650
43.27514443,-0.2529928386,-0.008122402243,-0.2234326303,2024-06-05 20:48:10.275144
43.31563386,-0.1251648813,0.172567755,-0.9954602718,2024-06-05 20:48:10.315634
43.35609625,-0.03754946589,0.5065183043,-1.498782873,2024-06-05 20:48:10.356096
43.39658292,-0.1754971445,0.9098421335,-1.992385268,2024-06-05 20:48:10.396583
43.43707391,0.0221035853,1.090931773,-2.119680643,2024-06-05 20:48:10.437074
43.47752958,-0.09587097168,0.7346113324,-2.282261848,2024-06-05 20:48:10.477530
43.51800526,0.1001319066,0.5880086422,-2.529662132,2024-06-05 20:48:10.518005
43.55850406,0.06924014539,0.1115831584,-2.466280699,2024-06-05 20:48:10.558504
43.59898474,0.018907886,-0.3375457227,-1.953237891,2024-06-05 20:48:10.598985
43.63947307,-0.08894696087,-0.5583152771,-1.400248766,2024-06-05 20:48:10.639473
43.67996193,-0.1291595101,-0.4922707975,-0.3006620109,2024-06-05 20:48:10.679962
43.72045802,-0.08734910935,-0.2318213433,0.3244965971,2024-06-05 20:48:10.720458
43.76092578,0.117974557,0.03515268862,0.65871346,2024-06-05 20:48:10.760926
43.801405,0.1616491079,-0.009453942999,0.8572462797,2024-06-05 20:48:10.801405
43.84190922,0.2826862037,-0.1138467789,1.04579258,2024-06-05 20:48:10.841909
43.88237688,0.3756277859,-0.01584534161,1.237800717,2024-06-05 20:48:10.882377
43.92285672,0.2749632597,-0.1985328048,1.584667325,2024-06-05 20:48:10.922857
43.96333823,0.1805569977,-0.2677729428,2.075606585,2024-06-05 20:48:10.963338
44.00383677,0.0599193573,-0.3391435742,2.350436687,2024-06-05 20:48:11.003837
44.04430932,-0.1233007237,-0.6724283695,2.362686872,2024-06-05 20:48:11.044309
44.08479313,-0.2151770741,-0.2707023323,2.181597233,2024-06-05 20:48:11.084793
44.12528688,-0.2063889056,-0.350328505,1.628608108,2024-06-05 20:48:11.125287
44.16575401,-0.1115831584,-0.9797480702,0.769231379,2024-06-05 20:48:11.165754
44.20625,-0.471232444,0.04021254554,0.137681365,2024-06-05 20:48:11.206250
44.24673162,-0.5524564981,0.3962666988,0.08335448056,2024-06-05 20:48:11.246732
44.28720464,-0.4182371199,0.6501916051,-0.5290213227,2024-06-05 20:48:11.287205
44.32767964,-0.1171756312,0.7007901669,-1.359503627,2024-06-05 20:48:11.327680
44.36819526,0.02503297664,0.9223586321,-1.878139019,2024-06-05 20:48:11.368195
44.40865542,0.09693620354,0.9505873322,-2.061092854,2024-06-05 20:48:11.408655
44.44914078,0.1419423074,0.7436658144,-2.276935577,2024-06-05 20:48:11.449141
44.48966662,0.1230344176,0.7079805136,-2.429530144,2024-06-05 20:48:11.489667
44.53009391,0.2637783289,0.5014584661,-2.201037645,2024-06-05 20:48:11.530094
44.57061031,0.1731003672,-0.03581846133,-1.951373696,2024-06-05 20:48:11.570610
44.61103011,0.1866820902,-0.06378082931,-1.314231277,2024-06-05 20:48:11.611030
44.65156797,0.05113118514,-0.1087869257,-0.7420679331,2024-06-05 20:48:11.651568
44.69202511,0.04181039706,-0.3519263566,-0.2167749256,2024-06-05 20:48:11.692025
44.73251453,0.03515268862,-0.4224980474,0.2122476846,2024-06-05 20:48:11.732515
44.77302526,0.03275591508,-0.3993292153,0.6323489547,2024-06-05 20:48:11.773025
44.81350453,0.1051917598,-0.09893351793,1.075619102,2024-06-05 20:48:11.813505
44.85398182,0.1416759938,0.1805569977,1.480807066,2024-06-05 20:48:11.853982
44.89448099,0.1219691783,-0.1761629134,1.778273344,2024-06-05 20:48:11.894481
44.93495589,-0.08734910935,-0.2933385372,1.80170846,2024-06-05 20:48:11.934956
44.97545734,-0.4659062922,-0.3197030723,2.069481373,2024-06-05 20:48:11.975457
45.01592,-0.5404726267,-0.8290175796,2.428198576,2024-06-05 20:48:12.015920
45.05640568,-0.4776238501,-0.6790860295,2.113955021,2024-06-05 20:48:12.056406
45.09686969,-0.3523258269,-0.9184971452,1.451646328,2024-06-05 20:48:12.096870
45.13733214,-0.06577813625,-0.816234827,1.088135481,2024-06-05 20:48:12.137332
45.17781214,-0.4683030546,-0.3916063011,0.5023905039,2024-06-05 20:48:12.177812
45.21829537,-0.4059869349,0.1299584359,0.09427312016,2024-06-05 20:48:12.218295
45.25878677,-0.1832200736,0.4013265371,-0.5572500229,2024-06-05 20:48:12.258787
45.29929016,-0.05033225939,0.845395565,-1.230876803,2024-06-05 20:48:12.299290
45.33974932,-0.03994623944,1.183607101,-1.586265087,2024-06-05 20:48:12.339749
45.38027771,-0.107588537,1.237933874,-1.946846485,2024-06-05 20:48:12.380278
45.42074136,-0.04766917601,0.9114400148,-2.470009089,2024-06-05 20:48:12.420741
45.46121234,0.1752308309,0.83314538,-2.67799592,2024-06-05 20:48:12.461212
45.50169297,0.2331528813,0.5232957006,-2.640446424,2024-06-05 20:48:12.501693
45.54217328,0.2709686458,0.02596505545,-2.074141741,2024-06-05 20:48:12.542173
45.5826649,0.3540568352,0.1517957002,-1.303578854,2024-06-05 20:48:12.582665
45.62311365,0.1203713343,-0.01557903271,-0.339276731,2024-06-05 20:48:12.623114
45.66364365,0.01784265228,-0.117308788,0.273365438,2024-06-05 20:48:12.663644
45.70411052,0.1041265279,-0.1420754492,0.6073159575,2024-06-05 20:48:12.704111
45.74458802,0.1478010863,-0.173233524,0.7087793946,2024-06-05 20:48:12.744588
45.78508531,0.1842853129,0.001198387123,0.9411333799,2024-06-05 20:48:12.785085
45.8255588,0.2600499988,0.222367391,1.404243469,2024-06-05 20:48:12.825559
45.86604766,0.2912080884,0.02942706272,1.634200573,2024-06-05 20:48:12.866048
45.9065575,0.3487306535,-0.1580539495,2.062424183,2024-06-05 20:48:12.906557
45.94700891,0.05512581021,-0.2073209733,2.313153505,2024-06-05 20:48:12.947009
45.98744802,-0.1323551983,-0.3700353205,2.322740555,2024-06-05 20:48:12.987448
46.02793078,-0.2452699095,-0.4651073813,2.10490036,2024-06-05 20:48:13.027931
46.06845333,-0.2013290375,-0.9536498785,1.553509235,2024-06-05 20:48:13.068453
46.10894917,-0.1581871063,-1.001851678,0.8884043694,2024-06-05 20:48:13.108949
46.14944156,-0.502923131,-0.2211690098,0.579886198,2024-06-05 20:48:13.149442
46.1899263,-0.4704335332,0.2047910541,0.3165073693,2024-06-05 20:48:13.189926
46.23041537,-0.1238333359,0.3930709958,-0.6914693713,2024-06-05 20:48:13.230415
46.27090287,0.09613727778,0.6746919751,-1.373351693,2024-06-05 20:48:13.270903
46.31136099,0.1169093251,0.9849410653,-1.632336497,2024-06-05 20:48:13.311361
46.35185906,0.1352845877,1.080545783,-1.884796739,2024-06-05 20:48:13.351859
46.39234776,0.3508611321,0.7551170588,-2.297441244,2024-06-05 20:48:13.392348
46.4328075,0.3812202811,0.7708292603,-2.537384987,2024-06-05 20:48:13.432808
46.47330714,0.3713668585,0.4567186534,-2.437785864,2024-06-05 20:48:13.473307
46.51379964,0.2629793882,0.02676397935,-2.021679163,2024-06-05 20:48:13.513800
46.55427724,0.3271597028,-0.2083862126,-1.315296531,2024-06-05 20:48:13.554277
46.59471266,0.1528609395,-0.3407414258,-0.6965292692,2024-06-05 20:48:13.594713
46.63517964,0.06391397864,-0.3031919599,-0.006391398143,2024-06-05 20:48:13.635180
46.6756824,0.08149032295,-0.1748313755,0.4443353117,2024-06-05 20:48:13.675682
46.71618354,0.1219691783,-0.1031944528,0.7063826323,2024-06-05 20:48:13.716184
46.75666292,0.1573881805,0.01850842312,1.060173154,2024-06-05 20:48:13.756663
46.79716016,0.3790898025,0.1193061024,1.471220016,2024-06-05 20:48:13.797160
46.83768781,0.2768274248,-0.3881442845,1.682668686,2024-06-05 20:48:13.837688
46.87814214,0.2536586225,-0.357518822,2.043250084,2024-06-05 20:48:13.878142
46.91859354,-0.01624480449,-0.3532578945,2.191450596,2024-06-05 20:48:13.918594
46.95907547,-0.2884118557,-0.2925396264,2.302767515,2024-06-05 20:48:13.959075
46.99955651,-0.4206338823,-0.1495320797,2.164553404,2024-06-05 20:48:13.999557
47.04004422,-0.4813521802,-0.9211602807,1.451380014,2024-06-05 20:48:14.040044
47.08052802,-0.5098471642,-0.7512555718,0.7836120725,2024-06-05 20:48:14.080528
47.12101521,-0.6920019984,-0.1713693589,0.3268933892,2024-06-05 20:48:14.121015
47.16150229,-0.4158403277,0.1738992929,-0.03754946589,2024-06-05 20:48:14.161502
47.20198807,-0.1451379955,0.5235620141,-0.7516550422,2024-06-05 20:48:14.201988
47.24246177,0.03435376659,0.9423317909,-1.23353982,2024-06-05 20:48:14.242462
47.28293349,0.04367455468,1.253779292,-1.844584107,2024-06-05 20:48:14.282933
47.32342745,0.2229000032,1.372286439,-2.173208475,2024-06-05 20:48:14.323427
47.36391729,0.1866820902,1.107442856,-2.793307304,2024-06-05 20:48:14.363917
47.40439354,0.4619116783,0.7087793946,-2.564548492,2024-06-05 20:48:14.404394
47.44488073,0.5655055642,0.3725652397,-2.195977926,2024-06-05 20:48:14.444881
47.48535333,0.3649754524,0.2197043151,-1.726076961,2024-06-05 20:48:14.485353
47.52583943,0.12117026,-0.06271559745,-0.9383371472,2024-06-05 20:48:14.525839
47.56631193,0.0074566314,-0.2472672164,-0.02103835158,2024-06-05 20:48:14.566312
47.60675995,0.09240896255,-0.1849510819,0.5231625438,2024-06-05 20:48:14.606760
47.64727208,0.1555240154,-0.2078536004,0.8649691939,2024-06-05 20:48:14.647272
47.68776958,0.3404751122,-0.0842865631,1.232474566,2024-06-05 20:48:14.687770
47.72824917,0.3500621915,-0.07709623873,1.571351886,2024-06-05 20:48:14.728249
47.76871636,0.4736292362,-0.3782908916,1.620352626,2024-06-05 20:48:14.768716
47.80921646,0.3527252972,-0.2723001838,1.646717072,2024-06-05 20:48:14.809216
47.84972625,0.1672415882,-0.03581846133,1.986792803,2024-06-05 20:48:14.849726
47.89019557,-0.04793548584,-0.1868152469,2.302234888,2024-06-05 20:48:14.890196
47.9306661,-0.2814878225,-0.3396761715,2.203967094,2024-06-05 20:48:14.930666
47.97116083,-0.2793573737,-0.761375308,1.635798454,2024-06-05 20:48:14.971161
48.01166406,-0.3155752718,-1.030346632,0.9342093468,2024-06-05 20:48:15.011664
48.05211615,-0.3432713449,-0.4773575366,0.5780220628,2024-06-05 20:48:15.052116
48.09262037,-0.4115794003,-0.08135717362,0.2186390758,2024-06-05 20:48:15.092620
48.13309854,-0.1299584359,0.14993155,-0.6512568593,2024-06-05 20:48:15.133099
48.17356958,0.005326164886,0.7146382332,-1.366693974,2024-06-05 20:48:15.173570
48.21403313,0.03062544949,1.115698457,-1.689060092,2024-06-05 20:48:15.214033
48.25454578,0.2207695395,1.349117637,-1.947911739,2024-06-05 20:48:15.254546
48.29505271,0.3585840762,0.8427324891,-2.418078899,2024-06-05 20:48:15.295053
48.33551068,0.3444697261,0.6109111309,-2.718208313,2024-06-05 20:48:15.335511
48.37596589,0.2587184608,-0.03448691964,-2.464682817,2024-06-05 20:48:15.375966
48.41645537,0.1517957002,-0.1897446364,-2.052837133,2024-06-05 20:48:15.416455
48.45694031,0.1107842326,-0.1047922969,-1.354443789,2024-06-05 20:48:15.456940
48.49738708,-0.1350182891,-0.356187284,-0.7367417812,2024-06-05 20:48:15.497387
48.53792042,-0.1691057384,-0.5316844583,0.0181089621,2024-06-05 20:48:15.537920
48.57841839,-0.1046591476,-0.5236951709,0.5868102312,2024-06-05 20:48:15.578418
48.61887875,0.01118494663,-0.5300865769,1.129147053,2024-06-05 20:48:15.618879
48.65938177,0.0410114713,-0.3308880031,1.552976608,2024-06-05 20:48:15.659382
48.69985339,0.2896102369,-0.02649767138,1.791056156,2024-06-05 20:48:15.699853
48.74033651,0.1539261788,-0.3452686667,1.948444366,2024-06-05 20:48:15.740337
48.78083573,0.03115806542,-0.2536586225,2.109161377,2024-06-05 20:48:15.780836
48.8212688,-0.2111824453,-0.2707023323,2.270544291,2024-06-05 20:48:15.821269
48.86180042,-0.2612484097,0.03355484083,2.216749907,2024-06-05 20:48:15.861800
48.90226146,-0.1991985738,-0.2986647189,1.961759806,2024-06-05 20:48:15.902261
48.94272823,0.07749570161,-0.9184971452,1.272687197,2024-06-05 20:48:15.942728
48.98321443,-0.163513273,-0.4954665005,0.5258256793,2024-06-05 20:48:15.983214
49.02369526,-0.3878779709,0.2306229472,0.1475347728,2024-06-05 20:48:16.023695
49.06418349,-0.3126458824,0.5400731564,-0.323830843,2024-06-05 20:48:16.064183
49.10465771,-0.04287562892,0.7029206157,-1.07402122,2024-06-05 20:48:16.104658
49.1451688,0.04660394415,1.095458984,-1.603841424,2024-06-05 20:48:16.145169
49.18563115,0.1584534049,1.071491241,-1.986526489,2024-06-05 20:48:16.185631
49.22611333,0.2015953511,0.9647016525,-2.273207188,2024-06-05 20:48:16.226113
49.26661594,0.3002625704,0.5914706588,-2.529662132,2024-06-05 20:48:16.266616
49.30711229,0.2901428342,0.3762935698,-2.608755589,2024-06-05 20:48:16.307112
49.34753042,0.2693707943,-0.002263620263,-2.128202438,2024-06-05 20:48:16.347530
49.38804198,0.2157096863,-0.06271559745,-1.679739356,2024-06-05 20:48:16.388042
49.42853266,0.1432738453,0.05858781561,-1.071091771,2024-06-05 20:48:16.428533
49.46903547,0.037815772,-0.0957378149,-0.1946713328,2024-06-05 20:48:16.469035
49.50951469,0.09427312016,-0.1122489274,0.3977313936,2024-06-05 20:48:16.509515
49.54999182,0.1424749196,-0.1367492825,0.9350082874,2024-06-05 20:48:16.549992
49.59045162,0.3402087986,-0.03501953557,1.511965156,2024-06-05 20:48:16.590452
49.63091177,0.4427374899,0.1374150664,1.873345375,2024-06-05 20:48:16.630912
49.67141214,0.480286926,-0.5284887552,1.821947932,2024-06-05 20:48:16.671412
49.71190688,0.2933385372,-0.1210371032,1.823545814,2024-06-05 20:48:16.711907
49.7524063,0.2707023323,-0.4512593448,2.45083499,2024-06-05 20:48:16.752406
49.79289406,-0.2569874525,-0.1607170254,2.182928801,2024-06-05 20:48:16.792894
49.83336833,-0.3746957183,-0.2438052148,2.145911932,2024-06-05 20:48:16.833368
49.87386667,-0.1789591461,-0.8583115339,1.456173539,2024-06-05 20:48:16.873867
49.91433604,-0.1792254597,-1.105711937,0.861507237,2024-06-05 20:48:16.914336
49.95479974,-0.3549889028,-0.2853493094,0.5383421183,2024-06-05 20:48:16.954800
49.99528792,-0.3913399875,0.1872147024,-0.2394111156,2024-06-05 20:48:16.995288
50.03578688,-0.2130466104,0.4146419466,-0.9332773089,2024-06-05 20:48:17.035787
50.07626656,-0.1177082509,0.8142374754,-1.447119117,2024-06-05 20:48:17.076267
50.11675719,-0.0868164897,0.8973256946,-1.882133603,2024-06-05 20:48:17.116757
50.15723985,-0.03941362351,0.9796149135,-2.280663967,2024-06-05 20:48:17.157240
50.1977225,0.0037283157,0.6416697502,-2.742442369,2024-06-05 20:48:17.197722
50.23819167,0.1840189993,0.1898777932,-2.61035347,2024-06-05 20:48:17.238192
50.27865479,0.1989322603,-0.01185071748,-2.352034569,2024-06-05 20:48:17.278655
50.31915906,0.1347519755,-0.1620485783,-1.923411369,2024-06-05 20:48:17.319159
50.35965401,0.08308817446,0.1275616586,-1.210104704,2024-06-05 20:48:17.359654
50.40012563,-0.02849498391,-0.02276935615,-0.4139761925,2024-06-05 20:48:17.400126
50.44060099,-0.006391398143,-0.265642494,0.2776263654,2024-06-05 20:48:17.440601
50.48107297,-0.006924014539,-0.3780245781,0.8400694132,2024-06-05 20:48:17.481073
50.52155214,0.09666989744,-0.06271559745,1.360036254,2024-06-05 20:48:17.521552
50.5620524,0.1701709777,0.1667089611,1.535932899,2024-06-05 20:48:17.562052
50.60249391,0.2002638131,-0.2105166763,1.895715356,2024-06-05 20:48:17.602494
50.64298672,0.3359478712,-0.2872134447,2.154167414,2024-06-05 20:48:17.642987
50.68348245,0.1715025157,-0.5404726267,2.275337696,2024-06-05 20:48:17.683482
50.72397167,-0.07616416365,-0.1234338731,2.238054514,2024-06-05 20:48:17.723972
50.76447219,-0.3969324529,-0.405188024,2.168548107,2024-06-05 20:48:17.764472
50.80494875,-0.3608476818,-0.3095833361,1.773746133,2024-06-05 20:48:17.804949
50.84543401,-0.3400756419,-0.6764229536,1.135538459,2024-06-05 20:48:17.845434
50.88591896,-0.3201025128,-0.3601819277,0.5157059431,2024-06-05 20:48:17.885919
50.92639688,-0.4525908828,0.06364767253,0.06284874678,2024-06-05 20:48:17.926397
50.96689568,-0.1248985752,0.004926702939,-0.6914693713,2024-06-05 20:48:17.966896
51.00736755,-0.03834838793,0.5043878555,-1.274018645,2024-06-05 20:48:18.007368
51.0478276,-0.004527240526,0.98307693,-1.720218182,2024-06-05 20:48:18.047828
51.0883361,-0.05059856921,1.453510404,-1.96282506,2024-06-05 20:48:18.088336
51.1287937,0.2741643488,0.8568468094,-2.46201992,2024-06-05 20:48:18.128794
51.16926432,0.1888125539,0.2878792286,-2.824065924,2024-06-05 20:48:18.169264
51.20977307,0.2741643488,0.08814803511,-2.601831675,2024-06-05 20:48:18.209773
51.25028516,0.122501798,-0.08774857223,-2.14684391,2024-06-05 20:48:18.250285
51.29073594,0.1126483902,-0.1439396143,-1.363498211,2024-06-05 20:48:18.290736
51.33122422,0.1046591476,-0.1841521561,-0.5995930433,2024-06-05 20:48:18.331224
51.37171839,-0.02103835158,-0.1822880059,0.1320888996,2024-06-05 20:48:18.371718
51.41218448,-0.04394086078,-0.09467258304,0.6901378632,2024-06-05 20:48:18.412184
51.45268615,0.08655018359,-0.2110492885,0.8326127529,2024-06-05 20:48:18.452686
51.49315391,0.1507304758,-0.08109086752,1.089999676,2024-06-05 20:48:18.493154
51.53366214,0.2661750913,0.06444659829,1.336601138,2024-06-05 20:48:18.533662
51.5741136,0.2954690158,-0.07549838722,1.845116735,2024-06-05 20:48:18.574114
51.61458386,0.4667052329,-0.3199693561,2.336588621,2024-06-05 20:48:18.614584
51.65509505,0.1507304758,0.07563154399,2.469742775,2024-06-05 20:48:18.655095
51.695615,-0.1014634445,-0.1255643368,2.432459593,2024-06-05 20:48:18.695615
51.73603214,-0.1994648874,-0.4946675897,2.199972391,2024-06-05 20:48:18.736032
51.77654485,-0.294803232,-0.6971949935,1.465627432,2024-06-05 20:48:18.776545
51.81703964,-0.1185071766,-0.424628526,0.8294170499,2024-06-05 20:48:18.817040
51.85748234,-0.2940043211,-0.1237001866,0.4544550478,2024-06-05 20:48:18.857482
51.89796969,-0.117974557,0.03195698932,-0.3046566546,2024-06-05 20:48:18.897970
51.9384412,-0.1821548492,0.6183677912,-0.9724246264,2024-06-05 20:48:18.938441
51.97895422,-0.01358172111,0.6768224239,-1.356840611,2024-06-05 20:48:18.978954
52.01946037,-0.1627143472,1.050719261,-1.842720032,2024-06-05 20:48:19.019460
52.05990953,0.05299534276,1.048056126,-2.000907183,2024-06-05 20:48:19.059910
52.10043,0.04926702753,0.7721607685,-2.930056572,2024-06-05 20:48:19.100430
52.14088552,0.1400781423,0.2716344297,-2.700365782,2024-06-05 20:48:19.140886
52.18134292,0.1320888996,0.02303566411,-2.107696772,2024-06-05 20:48:19.181343
52.22187281,0.004793548491,-0.1652442664,-1.897579432,2024-06-05 20:48:19.221873
52.26232412,0.1403444558,0.0275629051,-1.197854519,2024-06-05 20:48:19.262324
52.30280443,-0.006391398143,-0.06804175675,-0.5402063131,2024-06-05 20:48:19.302804
52.34329802,0.1549914032,-0.1175750941,0.2037258148,2024-06-05 20:48:19.343298
52.38376266,0.2539249361,-0.2304897904,0.8078460693,2024-06-05 20:48:19.383763
52.42425724,0.2877460718,0.2109161317,1.388531208,2024-06-05 20:48:19.424257
52.46475458,0.07829462737,-0.2477998286,1.699978709,2024-06-05 20:48:19.464755
52.50523172,0.1067896113,-0.6961297989,1.847247243,2024-06-05 20:48:19.505232
52.54570901,0.1754971445,-0.6575151086,1.728740096,2024-06-05 20:48:19.545709
52.58618906,0.1989322603,-0.3620460629,1.918085217,2024-06-05 20:48:19.586189
52.62664667,-0.1738992929,-0.2699034214,2.099840641,2024-06-05 20:48:19.626647
52.66717651,-0.3153089881,0.01078548469,2.169613361,2024-06-05 20:48:19.667177
52.70762651,-0.3232982159,-0.3822855055,1.864290953,2024-06-05 20:48:19.707627
52.74807797,-0.1304910481,-1.234471917,1.198919773,2024-06-05 20:48:19.748078
52.78856057,-0.0817566365,-0.7419347763,0.5761579275,2024-06-05 20:48:19.788561
52.82908656,-0.39746508,-0.1284937263,0.1198387146,2024-06-05 20:48:19.829087
52.86956891,-0.3163742125,0.5507254601,-0.3549889028,2024-06-05 20:48:19.869569
52.91004333,-0.2066552043,0.7710955739,-1.137935162,2024-06-05 20:48:19.910043
52.95052396,0.03754946589,0.8395367861,-1.728473783,2024-06-05 20:48:19.950524
52.99103182,-0.006924014539,1.322220445,-2.284125805,2024-06-05 20:48:19.991032
53.03153886,0.04047885537,0.9476579428,-2.616212368,2024-06-05 20:48:20.031539
53.07199042,0.1432738453,0.3454017937,-2.479596138,2024-06-05 20:48:20.071990
53.1124949,0.1874810159,-0.1130478531,-2.312088251,2024-06-05 20:48:20.112495
53.15296177,0.071104303,-0.1348851323,-1.932732224,2024-06-05 20:48:20.152962
53.19341781,-0.0037283157,-0.2038589716,-1.349117637,2024-06-05 20:48:20.193418
53.23391531,0.05033225939,-0.1508636326,-0.710909903,2024-06-05 20:48:20.233915
53.27440354,0.05352795869,-0.149265781,0.07536523789,2024-06-05 20:48:20.274404
53.31489646,0.1509967744,-0.1753639877,0.6400718689,2024-06-05 20:48:20.314896
53.35536021,0.2312887162,-0.2672403455,0.9784165621,2024-06-05 20:48:20.355360
53.3958363,0.3143768907,0.1728340536,1.131011128,2024-06-05 20:48:20.395836
53.43630557,0.3537905216,0.0126496423,1.141130924,2024-06-05 20:48:20.436306
53.47679401,0.4286231399,0.2149107605,1.419955611,2024-06-05 20:48:20.476794
53.51728771,0.3705679476,-0.1479342431,1.588395596,2024-06-05 20:48:20.517288
53.55780896,0.07350108027,0.1749645174,1.586797714,2024-06-05 20:48:20.557809
53.59830162,-0.07722939551,-0.03981308267,1.617955804,2024-06-05 20:48:20.598302
53.6387388,-0.1240996495,-0.243006289,1.501579046,2024-06-05 20:48:20.638739
53.67923531,-0.2370143533,-0.4651073813,1.344856739,2024-06-05 20:48:20.679235
53.71970776,-0.2593842447,-0.8167673945,1.282007933,2024-06-05 20:48:20.719708
53.76019912,-0.1792254597,-0.5631088018,0.8772193789,2024-06-05 20:48:20.760199
53.80070578,-0.3049229383,-0.2310224175,0.4685693681,2024-06-05 20:48:20.800706
53.84118464,-0.3344831765,0.09107742459,-0.1464695334,2024-06-05 20:48:20.841185
53.881645,-0.354189992,0.7913349867,-0.7338123918,2024-06-05 20:48:20.881645
53.92212886,-0.1581871063,0.8696296215,-1.231409431,2024-06-05 20:48:20.922129
53.96262557,-0.06684337556,0.9276847839,-1.762561202,2024-06-05 20:48:20.962626
54.00309167,0.1105179265,0.7553833723,-2.021679163,2024-06-05 20:48:21.003092
54.04356729,0.1195724085,0.762839973,-2.642576933,2024-06-05 20:48:21.043567
54.08406646,0.1794917583,0.2375469655,-2.544575453,2024-06-05 20:48:21.084066
54.12455875,0.3319532275,0.2790910602,-1.993450403,2024-06-05 20:48:21.124559
54.16502896,0.1848179251,0.2905423045,-1.7186203,2024-06-05 20:48:21.165029
54.20551344,0.06577813625,0.1254311949,-1.12222302,2024-06-05 20:48:21.205513
54.24600151,0.006924014539,-0.1852173954,-0.4616453648,2024-06-05 20:48:21.246002
54.28647599,0.05805519968,-0.3362141848,0.1776276082,2024-06-05 20:48:21.286476
54.32694396,0.2890776098,-0.2225005478,0.9690957665,2024-06-05 20:48:21.326944
54.36742083,0.3303554058,-0.09627043456,1.556438565,2024-06-05 20:48:21.367421
54.40791531,0.369769007,0.1113168523,1.9345963,2024-06-05 20:48:21.407915
54.4483911,0.1278279573,-0.261115253,1.656037927,2024-06-05 20:48:21.448391
54.48890625,-0.07456631213,-0.6085143685,1.465094924,2024-06-05 20:48:21.488906
54.52935964,-0.112115778,-0.499727428,1.937792063,2024-06-05 20:48:21.529360
54.56985641,-0.2620473206,0.0868164897,1.728473783,2024-06-05 20:48:21.569856
54.61030807,-0.6746919751,-0.1181077138,1.746316433,2024-06-05 20:48:21.610308
54.65081323,-0.4485962689,-0.388410598,1.518090248,2024-06-05 20:48:21.650813
54.69131526,-0.2926727831,-1.062569976,1.176283598,2024-06-05 20:48:21.691315
54.73176792,-0.2319544852,-0.5138418078,0.7966611385,2024-06-05 20:48:21.731768
54.77232386,-0.3696358502,-0.1143793985,0.3881442845,2024-06-05 20:48:21.772324
54.81274313,0.0005326165119,0.2609820962,-0.3611139953,2024-06-05 20:48:21.812743
54.85321849,0.002396774245,0.5848129392,-0.9492557645,2024-06-05 20:48:21.853218
54.8937436,0.112115778,1.11809516,-1.482538104,2024-06-05 20:48:21.893744
54.93420422,0.2608489394,1.09439373,-1.860296369,2024-06-05 20:48:21.934204
54.9746812,0.3189041317,0.9053149223,-2.296642303,2024-06-05 20:48:21.974681
55.01517828,0.2864145339,0.5840139985,-2.695039511,2024-06-05 20:48:22.015178
55.05566354,0.3183715343,0.3525921404,-2.324871063,2024-06-05 20:48:22.055664
55.0961151,0.2928059399,-0.1268958896,-1.993716717,2024-06-05 20:48:22.096115
55.13661797,0.3029256463,-0.03102491237,-1.545919418,2024-06-05 20:48:22.136618
55.17708229,-0.02529928461,-0.09094426781,-0.9220923185,2024-06-05 20:48:22.177082
55.21757719,-0.2343512625,-0.3031919599,-0.2649767101,2024-06-05 20:48:22.217577
55.25807177,-0.2109161317,-0.4153077304,0.1560566425,2024-06-05 20:48:22.258072
55.29857526,-0.1925408691,-0.4959991276,0.6600450277,2024-06-05 20:48:22.298575
55.3390075,-0.09560466558,-0.3703016341,1.077749491,2024-06-05 20:48:22.339008
55.37946453,0.09001219273,-0.1822880059,1.476013541,2024-06-05 20:48:22.379465
55.41999552,0.252060771,-0.1873478591,1.82993722,2024-06-05 20:48:22.419996
55.46047432,0.2877460718,-0.1655105799,2.03632617,2024-06-05 20:48:22.460474
55.50097604,0.04500609636,0.116643019,2.254565716,2024-06-05 20:48:22.500976
55.54145641,-0.2745638192,0.2263620198,2.252967834,2024-06-05 20:48:22.541456
55.58193787,-0.2982652485,-0.1335535944,2.096112251,2024-06-05 20:48:22.581938
55.62238146,-0.3222329915,-0.9904004335,1.660831451,2024-06-05 20:48:22.622381
55.66286,-0.03568530455,-0.7616416216,1.064434052,2024-06-05 20:48:22.662860
55.70338552,-0.2910749316,-0.2906754613,0.5346138477,2024-06-05 20:48:22.703386
55.74384552,-0.319303602,0.4734960794,0.2292914093,2024-06-05 20:48:22.743846
55.78433698,0.008788172156,0.3861469626,-0.6475285292,2024-06-05 20:48:22.784337
55.82480479,0.3615134656,0.3930709958,-1.25804019,2024-06-05 20:48:22.824805
55.86530167,0.351660043,0.9220923185,-1.693587303,2024-06-05 20:48:22.865302
55.90588807,0.2675066292,1.273752332,-1.99318409,2024-06-05 20:48:22.905888
55.94627682,0.3082517982,0.8286181092,-2.440448761,2024-06-05 20:48:22.946277
55.9867686,0.3945356905,0.325695008,-2.517678261,2024-06-05 20:48:22.986769
56.02722526,0.4198349714,0.254058063,-2.23698926,2024-06-05 20:48:23.027225
56.06771229,0.3255618513,0.03462007269,-1.874144316,2024-06-05 20:48:23.067712
56.10817573,0.3460675776,0.09427312016,-1.34858501,2024-06-05 20:48:23.108176
56.14866854,0.1893451661,0.02649767138,-0.7077142,2024-06-05 20:48:23.148669
56.18915672,0.04687025398,-0.1053249165,-0.04793548584,2024-06-05 20:48:23.189157
56.22963552,0.2154433727,-0.2302234918,0.4624442756,2024-06-05 20:48:23.229636
56.27012162,0.391073674,-0.2709686458,1.205311179,2024-06-05 20:48:23.270122
56.31061305,0.4536561072,-0.2960016131,1.59318912,2024-06-05 20:48:23.310613
56.35109816,0.3905410469,-0.4414059222,1.49225831,2024-06-05 20:48:23.351098
56.39159086,0.3282249272,-0.5753589869,1.582536817,2024-06-05 20:48:23.391591
56.43206602,0.3239639997,-0.352991581,1.949243307,2024-06-05 20:48:23.432066
56.47254894,-0.08415340632,-0.2099840641,2.287587881,2024-06-05 20:48:23.472549
56.51305409,-0.4709661603,-0.4501941204,2.258027792,2024-06-05 20:48:23.513054
56.55351961,-0.5761579275,-0.4837489426,1.829670906,2024-06-05 20:48:23.553520
56.5939844,-0.6501916051,-0.4880098701,1.221289635,2024-06-05 20:48:23.593984
56.63446086,-0.5905385613,-0.4877435565,0.8429988027,2024-06-05 20:48:23.634461
56.67494779,-0.7375407219,-0.1181077138,0.4901403487,2024-06-05 20:48:23.674948
56.71545159,-0.3857475221,-0.03182383627,-0.3713668585,2024-06-05 20:48:23.715452
56.75592972,0.004527240526,0.2782921195,-1.053515434,2024-06-05 20:48:23.755930
56.79641217,0.2374138087,0.8033188581,-1.547783613,2024-06-05 20:48:23.796412
56.83691592,0.2411421239,1.080812097,-1.967352271,2024-06-05 20:48:23.836916
56.87738758,0.2970668674,1.154046774,-2.365083694,2024-06-05 20:48:23.877388
56.91786175,0.2925396264,0.7609758377,-2.834718227,2024-06-05 20:48:23.917862
56.95835342,0.1395455301,0.6935998797,-2.580260754,2024-06-05 20:48:23.958353
56.99882644,-0.02077204362,-0.04274247587,-2.110625982,2024-06-05 20:48:23.998826
57.03931586,0.07190322876,-0.03608476743,-1.811295629,2024-06-05 20:48:24.039316
57.07978831,-0.1059906855,-0.1362166703,-1.186935902,2024-06-05 20:48:24.079788
57.12027508,-0.186149478,-0.1801575422,-0.3616466224,2024-06-05 20:48:24.120275
57.16079008,-0.03914731368,-0.3210346103,0.388410598,2024-06-05 20:48:24.160790
57.20126284,-0.006125089712,-0.4190360308,0.6701647043,2024-06-05 20:48:24.201263
57.24173638,0.08708280325,-0.1982664913,0.9115731716,2024-06-05 20:48:24.241736
57.28220019,0.09880036116,-0.0275629051,1.084140897,2024-06-05 20:48:24.282200
57.32269842,0.3183715343,-0.133819893,1.859231114,2024-06-05 20:48:24.322698
57.36319435,0.230756104,-0.4121120274,2.096378565,2024-06-05 20:48:24.363194
57.40365185,0.1283605844,-0.1388797611,2.213820457,2024-06-05 20:48:24.403652
57.44412425,-0.05113118514,-0.1260969639,2.280397654,2024-06-05 20:48:24.444124
57.48460274,-0.2596505582,-0.1905435622,2.228733778,2024-06-05 20:48:24.484603
57.52509331,-0.2471340597,-0.5697665215,1.967352271,2024-06-05 20:48:24.525093
57.56556935,-0.1193061024,-0.9488562942,1.274284959,2024-06-05 20:48:24.565569
57.60602654,-0.1491326243,-0.5077167153,0.6230281591,2024-06-05 20:48:24.606027
57.64654253,-0.3520595133,-0.028361829,0.2499302924,2024-06-05 20:48:24.646543
57.68704566,-0.2077204436,0.4021254778,-0.4512593448,2024-06-05 20:48:24.687046
57.72753045,-0.06737598777,0.73221457,-1.118228316,2024-06-05 20:48:24.727530
57.76802274,-0.04260931909,0.9226249456,-1.68373394,2024-06-05 20:48:24.768023
57.80849206,0.07749570161,1.142861843,-2.053636074,2024-06-05 20:48:24.808492
57.84895477,0.243006289,0.9396686554,-2.43299222,2024-06-05 20:48:24.848955
57.88943519,0.2659088075,0.5824161768,-2.70382762,2024-06-05 20:48:24.889435
57.92992696,0.2693707943,0.2838846147,-2.42633462,2024-06-05 20:48:24.929927
57.97042769,0.3005288541,-0.0544600375,-1.925009251,2024-06-05 20:48:24.970428
58.01090909,0.0330222249,-0.2483324558,-1.610765457,2024-06-05 20:48:25.010909
58.05136524,-0.01784265228,-0.1255643368,-1.005846262,2024-06-05 20:48:25.051365
58.0918868,-0.1051917598,-0.1087869257,-0.003994623665,2024-06-05 20:48:25.091887
58.13234295,-0.04500609636,-0.08535179496,0.4262263775,2024-06-05 20:48:25.132343
58.17281477,0.08468602598,-0.342605561,0.8182321191,2024-06-05 20:48:25.172815
58.21332399,0.190676704,-0.217174381,1.176816225,2024-06-05 20:48:25.213324
58.25377868,0.208785668,0.1501978636,1.730071545,2024-06-05 20:48:25.253779
58.29429159,0.1113168523,-0.3034582436,2.036059856,2024-06-05 20:48:25.294292
58.33475987,0.1067896113,-0.5764242411,1.997178793,2024-06-05 20:48:25.334760
58.37523472,-0.1765623689,-0.2078536004,2.191450596,2024-06-05 20:48:25.375235
58.41573014,-0.24234052,-0.4794880152,2.268147469,2024-06-05 20:48:25.415730
58.4561918,-0.4398080707,-0.3093170524,1.86775291,2024-06-05 20:48:25.456192
58.49667967,-0.3009283245,-0.62049824,1.518889189,2024-06-05 20:48:25.496680
58.53716373,-0.1067896113,-0.8298165202,0.8705616593,2024-06-05 20:48:25.537164
58.57763956,-0.2990641594,-0.2315550297,0.4419385493,2024-06-05 20:48:25.577640
58.61812243,-0.4382102489,0.2860150635,0.08362079412,2024-06-05 20:48:25.618122
58.6586268,-0.008521864191,0.4242290556,-0.7857425213,2024-06-05 20:48:25.658627
58.69909066,0.1941387206,0.640604496,-1.422352433,2024-06-05 20:48:25.699091
58.73962461,0.233951807,0.8406019807,-1.818752289,2024-06-05 20:48:25.739625
58.78005237,0.2005301118,0.7955959439,-1.998244047,2024-06-05 20:48:25.780052
58.82056305,0.2018616647,0.638607204,-2.232195854,2024-06-05 20:48:25.820563
58.86101441,0.352991581,0.6861432195,-2.308093548,2024-06-05 20:48:25.861014
58.90149758,0.3388772607,0.3318201005,-2.48572135,2024-06-05 20:48:25.901498
58.94198737,0.3218335211,-0.149265781,-2.213820457,2024-06-05 20:48:25.941987
58.98246425,0.1842853129,-0.233951807,-1.681603432,2024-06-05 20:48:25.982464
59.02297618,0.02636451647,-0.1974675655,-0.7817478776,2024-06-05 20:48:26.022976
59.06346529,-0.1419423074,-0.2858819067,0.06444659829,2024-06-05 20:48:26.063465
59.10392487,-0.133154124,-0.3066539466,0.630751133,2024-06-05 20:48:26.103925
59.14442394,-0.05059856921,-0.1713693589,1.041265249,2024-06-05 20:48:26.144424
59.18490316,-0.05166380107,-0.09946613014,1.30038321,2024-06-05 20:48:26.184903
59.2253918,-0.02902759984,-0.2382127345,1.569487691,2024-06-05 20:48:26.225392
59.26584357,-0.09161003679,-0.4986622036,1.745783806,2024-06-05 20:48:26.265844
59.30635836,-0.01198387146,-0.6007914543,1.997178793,2024-06-05 20:48:26.306358
59.34680279,-0.2244978547,-0.5370106101,2.225005388,2024-06-05 20:48:26.346803
59.38732852,-0.2822867632,-0.3351489305,2.311555624,2024-06-05 20:48:26.387329
59.42781076,-0.2181064636,-0.4669715166,2.033130407,2024-06-05 20:48:26.427811
59.4682668,-0.1025286764,-0.160983339,1.497584462,2024-06-05 20:48:26.468267
59.50874842,-0.03675054014,-0.5276898146,0.8758878708,2024-06-05 20:48:26.508748
59.54923795,-0.2106498331,-0.009453942999,0.112115778,2024-06-05 20:48:26.549238
59.58969909,-0.05166380107,0.1643121988,-0.221035853,2024-06-05 20:48:26.589699
59.63017107,0.08734910935,0.4596480429,-0.8712274432,2024-06-05 20:48:26.630171
59.67066956,0.018907886,0.9993217587,-1.440461397,2024-06-05 20:48:26.670670
59.71114639,0.1174419373,1.353378534,-1.779604912,2024-06-05 20:48:26.711146
59.75166149,0.2157096863,1.19905293,-2.038722754,2024-06-05 20:48:26.751661
59.79217378,0.343937099,0.7402037978,-2.442312956,2024-06-05 20:48:26.792174
59.83260696,0.4115794003,0.4154408872,-2.655359507,2024-06-05 20:48:26.832607
59.87310269,0.3431381881,0.1728340536,-2.301968575,2024-06-05 20:48:26.873103
59.91356175,0.3460675776,0.03861469775,-1.745251179,2024-06-05 20:48:26.913562
59.95404514,0.204258427,0.03169068322,-1.046591401,2024-06-05 20:48:26.954045
59.99452618,0.1672415882,-0.07656362653,-0.3099828064,2024-06-05 20:48:26.994526
60.03501737,0.09161003679,-0.04114462435,0.3226324618,2024-06-05 20:48:27.035017
60.07551394,0.1270290315,-0.2664414048,0.78414464,2024-06-05 20:48:27.075514
60.11597816,0.06604444981,-0.09014534205,1.158440948,2024-06-05 20:48:27.115978
60.15648076,0.216508612,-0.1053249165,1.401047707,2024-06-05 20:48:27.156481
60.19695836,0.2279598713,-0.03581846133,1.598515272,2024-06-05 20:48:27.196958
60.23742925,0.2712349594,-0.2403431982,2.071878195,2024-06-05 20:48:27.237429
60.27791487,0.208785668,-0.4158403277,2.029668331,2024-06-05 20:48:27.277915
60.31839493,-0.06338136643,-0.1724345982,2.224472761,2024-06-05 20:48:27.318395
60.35888305,-0.2218347788,-0.4062532485,2.309158802,2024-06-05 20:48:27.358883
60.39938477,-0.2492645234,-0.7342118621,1.903171897,2024-06-05 20:48:27.399385
60.43985019,-0.1893451661,-0.9078448415,1.207707882,2024-06-05 20:48:27.439850
60.48033508,-0.2505960763,-0.6404713392,0.4549876451,2024-06-05 20:48:27.480335
60.52082029,-0.5053198934,-0.05978620425,0.142208606,2024-06-05 20:48:27.520820
60.56130248,-0.1651111245,0.2103835195,-0.6427350044,2024-06-05 20:48:27.561302
60.60176368,0.1419423074,0.4231638312,-1.375215888,2024-06-05 20:48:27.601764
60.64224748,0.01571218669,0.6597787142,-1.921547174,2024-06-05 20:48:27.642247
60.68274571,0.003462007269,1.233406663,-2.1439147,2024-06-05 20:48:27.682746
60.72322482,0.142208606,0.9417991638,-2.516613007,2024-06-05 20:48:27.723225
60.76371664,0.2832188308,0.2894770801,-2.499036789,2024-06-05 20:48:27.763717
60.80420232,0.2055899799,0.2266283184,-2.321941614,2024-06-05 20:48:27.804202
60.84467644,-0.04740286991,-0.2845503688,-1.997178793,2024-06-05 20:48:27.844676
60.8851618,-0.06018566713,-0.2794905007,-1.586265087,2024-06-05 20:48:27.885162
