Time (s),Linear Acceleration x (m/s^2),Linear Acceleration y (m/s^2),Linear Acceleration z (m/s^2),Datetime
0.075619689,0.0,0.0,0.0,2024-06-05 20:47:27.075620
0.160801928,-0.4110579491,0.02337551117,0.856505394,2024-06-05 20:47:27.160802
0.201178907,0.4970422983,-0.1142253876,-0.4700422287,2024-06-05 20:47:27.201179
0.241668907,0.6701408625,-0.343341589,-0.05197620392,2024-06-05 20:47:27.241669
0.282180001,1.140641809,-0.5505812168,-0.1402425766,2024-06-05 20:47:27.282180
0.322671199,1.435744643,-0.9750261307,0.03085041046,2024-06-05 20:47:27.322671
0.363179584,1.362468362,-1.121413231,0.6033535004,2024-06-05 20:47:27.363180
0.403633699,0.1443097591,0.1948020458,0.5809993744,2024-06-05 20:47:27.403634
0.444162293,-0.4353699684,0.5283536911,0.6516580582,2024-06-05 20:47:27.444162
0.484587918,-0.0736618042,0.264234066,-0.2012195587,2024-06-05 20:47:27.484588
0.52506448,0.3301968575,-1.282508135,1.185162544,2024-06-05 20:47:27.525064
0.565462762,0.206335783,-1.334808588,-1.265940666,2024-06-05 20:47:27.565463
0.605927605,2.862298012,-1.634085894,-4.242504597,2024-06-05 20:47:27.605928
0.646416199,1.254137874,-1.418491125,-4.210481644,2024-06-05 20:47:27.646416
0.686881772,-0.1294574738,-4.242227077,-2.6647048,2024-06-05 20:47:27.686882
0.727402084,0.1086812019,-4.244942188,-1.720972061,2024-06-05 20:47:27.727402
0.767862605,-3.575175285,-2.014921904,-2.805194855,2024-06-05 20:47:27.767863
0.808309376,-3.611510754,-2.182975054,0.2969818115,2024-06-05 20:47:27.808309
0.848853491,-7.180824757,-1.643539906,0.5023503304,2024-06-05 20:47:27.848853
0.889373595,-8.614574432,0.5218310356,5.265759468,2024-06-05 20:47:27.889374
0.929779689,-7.529765129,1.272297382,-0.1025409698,2024-06-05 20:47:27.929780
0.970402084,-10.84208775,3.112985611,-6.111722469,2024-06-05 20:47:27.970402
1.010802657,-5.05999136,3.209612846,0.2761588097,2024-06-05 20:47:28.010803
1.051224845,2.899316788,6.0299263,25.02448845,2024-06-05 20:47:28.051225
1.091710574,2.382630825,4.782587051,0.8433713913,2024-06-05 20:47:28.091711
1.13223823,7.526016235,2.933377266,1.902606726,2024-06-05 20:47:28.132238
1.172693282,4.670201302,1.713837624,-4.281393528,2024-06-05 20:47:28.172693
1.213147762,0.9108986855,-0.7075409889,-5.724580765,2024-06-05 20:47:28.213148
1.253640939,-0.7949643135,-3.482764244,1.750901222,2024-06-05 20:47:28.253641
1.294141355,-8.279691696,-8.986703873,-1.645681858,2024-06-05 20:47:28.294141
1.334674897,-0.08961105347,-0.2397255898,-0.3879308701,2024-06-05 20:47:28.334675
1.375131043,3.870870113,-2.103734016,0.9858474731,2024-06-05 20:47:28.375131
1.415703126,-0.5576858521,-2.881970406,-0.739877224,2024-06-05 20:47:28.415703
1.456125522,0.1525568962,0.7209916115,-0.2013149261,2024-06-05 20:47:28.456126
1.496622189,2.062572479,7.176851273,-0.5115880966,2024-06-05 20:47:28.496622
1.537094012,0.987455368,1.137751579,-0.5088939667,2024-06-05 20:47:28.537094
1.577565418,-0.03527522087,1.822201252,-1.205426693,2024-06-05 20:47:28.577565
1.617912032,2.746559381,-1.907410622,0.9223029613,2024-06-05 20:47:28.617912
1.658607605,0.9577440619,-4.923911095,-0.2508909702,2024-06-05 20:47:28.658608
1.69903573,2.34653616,-0.542766571,0.0751953125,2024-06-05 20:47:28.699036
1.739526876,0.3721504211,-2.440776825,-0.4369668961,2024-06-05 20:47:28.739527
1.780016095,-8.656977654,-6.876923561,-0.9272041321,2024-06-05 20:47:28.780016
1.820484949,2.399974585,0.7829122543,-0.1043906212,2024-06-05 20:47:28.820485
1.860838855,0.3884910345,1.315876961,0.6398153305,2024-06-05 20:47:28.860839
1.901466564,0.351647377,-0.08054637909,-0.180287838,2024-06-05 20:47:28.901467
1.941932605,0.4262875319,-0.2839994431,0.6753983498,2024-06-05 20:47:28.941933
1.982460418,0.1146070659,-1.894208908,1.478399754,2024-06-05 20:47:28.982460
2.022762345,-0.5237165689,-1.356104851,1.530932426,2024-06-05 20:47:29.022762
2.063118647,-0.4949965775,0.7655124664,-2.001257658,2024-06-05 20:47:29.063119
2.10373047,-0.2354488969,-0.03674411774,-1.57512188,2024-06-05 20:47:29.103730
2.14437073,0.330927968,-1.451404572,0.3611736298,2024-06-05 20:47:29.144371
2.184876043,0.9743003845,1.282350063,-2.030949831,2024-06-05 20:47:29.184876
2.225376459,0.8274056911,1.753104687,-0.8084645271,2024-06-05 20:47:29.225376
2.265839741,1.089429379,0.901553154,-1.003595352,2024-06-05 20:47:29.265840
2.306322657,0.01616036892,0.2693939209,-0.5761294365,2024-06-05 20:47:29.306323
2.346784428,-0.5726191998,0.2567949295,-0.5053515434,2024-06-05 20:47:29.346784
2.38728922,0.1597486138,-1.153495789,1.16276741,2024-06-05 20:47:29.387289
2.427769324,-0.1977728605,-1.943153381,1.236505032,2024-06-05 20:47:29.427769
2.468239116,-0.08206856251,-1.141475677,0.5151352882,2024-06-05 20:47:29.468239
2.508712709,-0.9861550331,-1.601215363,0.9690027237,2024-06-05 20:47:29.508713
2.549189637,-1.599600077,-2.563265324,0.8079147339,2024-06-05 20:47:29.549190
2.589699637,0.008105635643,-1.417006493,-0.1799693108,2024-06-05 20:47:29.589700
2.630177397,0.5836429,-0.6305155754,-0.7518010139,2024-06-05 20:47:29.630177
2.670652866,1.411729813,3.061226845,-2.158499718,2024-06-05 20:47:29.670653
2.711130678,-0.1571012735,-0.05710697174,-1.022130489,2024-06-05 20:47:29.711131
2.751625834,1.361760139,-0.4691877365,-0.07670164108,2024-06-05 20:47:29.751626
2.792133595,1.162848711,0.2124085426,-1.40144062,2024-06-05 20:47:29.792134
2.832622814,1.456228018,0.4840536118,-1.357642174,2024-06-05 20:47:29.832623
2.873049845,0.3618979454,-0.688849926,-0.1787934303,2024-06-05 20:47:29.873050
2.91355922,-0.3665676117,-0.9236125946,-0.3699865341,2024-06-05 20:47:29.913559
2.954020574,1.425790548,1.35332489,-1.575537682,2024-06-05 20:47:29.954021
2.994329741,0.7593278885,-0.3642015457,-0.4631166458,2024-06-05 20:47:29.994330
3.034910418,0.3162982464,0.6671237946,-0.8620233536,2024-06-05 20:47:30.034910
3.075319949,0.7071654797,0.007648944855,0.5897550583,2024-06-05 20:47:30.075320
3.115926824,-0.6235644817,-1.47033453,0.9630842209,2024-06-05 20:47:30.115927
3.156509897,-0.1105675697,0.3926339149,0.2923364639,2024-06-05 20:47:30.156510
3.196951928,0.8348114491,0.386657238,-0.2721719742,2024-06-05 20:47:30.196952
3.237463647,-0.02779507637,1.083426476,-1.917355061,2024-06-05 20:47:30.237464
3.277955314,-0.4153840542,2.910610199,-1.710470676,2024-06-05 20:47:30.277955
3.31841948,-0.8616557121,0.6501555443,-1.207917213,2024-06-05 20:47:30.318419
3.358851512,1.042533159,-1.541538715,0.9343090057,2024-06-05 20:47:30.358852
3.39936547,0.03038811684,0.7888975143,-0.4512562752,2024-06-05 20:47:30.399365
3.439857918,-1.369755745,-0.003459453583,-0.01483726501,2024-06-05 20:47:30.439858
3.480333959,-0.9664559364,-1.050315857,0.822581768,2024-06-05 20:47:30.480334
3.520828751,-0.1150839329,-0.4928565025,1.007731438,2024-06-05 20:47:30.520829
3.561314324,0.5661296844,0.5180044174,0.3097043037,2024-06-05 20:47:30.561314
3.601787032,1.237813234,0.00674200058,-0.01706075668,2024-06-05 20:47:30.601787
3.642285418,-0.3309001923,-0.06757164001,0.4811139107,2024-06-05 20:47:30.642285
3.682780157,-0.9597425461,-0.2099528313,0.4941563606,2024-06-05 20:47:30.682780
3.723260626,0.02859687805,0.9015412331,0.07480335236,2024-06-05 20:47:30.723261
3.763735522,-0.4331960678,0.973344326,-0.1876497269,2024-06-05 20:47:30.763736
3.804062501,-0.2057216167,1.326131344,-0.3840346336,2024-06-05 20:47:30.804063
3.84438948,-0.6302652359,0.5211892128,0.07608032227,2024-06-05 20:47:30.844389
3.885054949,-0.9819674492,0.1391782761,-0.6039924622,2024-06-05 20:47:30.885055
3.92565948,-0.02785396576,0.9924464226,-0.8190245628,2024-06-05 20:47:30.925659
3.966104064,-1.630433083,0.3392481804,-0.5335245132,2024-06-05 20:47:30.966104
4.006606043,-1.242168427,0.2095646858,0.3685932159,2024-06-05 20:47:31.006606
4.047063803,-0.7698767185,0.4895834923,0.05131196976,2024-06-05 20:47:31.047064
4.087583334,-0.4405579567,0.791741848,-0.4131760597,2024-06-05 20:47:31.087583
4.127981928,0.3091850281,0.6198368073,0.05113506317,2024-06-05 20:47:31.127982
4.168507866,-0.1829063892,0.9127187729,-0.04597616196,2024-06-05 20:47:31.168508
4.208994949,-0.4716672897,0.9808344841,-0.1311826706,2024-06-05 20:47:31.208995
4.249510053,-1.038468599,0.7454156876,0.2181272507,2024-06-05 20:47:31.249510
4.289995053,-0.7426924706,0.3877749443,-0.3592710495,2024-06-05 20:47:31.289995
4.330448491,0.7901844978,0.4235844612,-0.8430113792,2024-06-05 20:47:31.330448
4.370902084,1.673696518,1.008289814,-1.553617477,2024-06-05 20:47:31.370902
4.411413439,1.080019474,0.2191386223,-0.9616222382,2024-06-05 20:47:31.411413
4.451931459,-0.7701871395,0.4219374657,0.578373909,2024-06-05 20:47:31.451931
4.492411824,-4.951786518,-0.9742121696,1.635958672,2024-06-05 20:47:31.492412
4.532932449,-4.716878414,-0.8366971016,0.8958339691,2024-06-05 20:47:31.532932
4.573361668,-3.746045589,0.76471138,-0.4894866943,2024-06-05 20:47:31.573362
4.613858855,-2.265793085,0.8417544365,-0.8404903412,2024-06-05 20:47:31.613859
4.654314949,1.15529871,1.239823341,-0.9088644981,2024-06-05 20:47:31.654315
4.694781355,1.913810015,1.228232384,-1.560241699,2024-06-05 20:47:31.694781
4.735228699,1.491030216,1.958808899,-0.617960453,2024-06-05 20:47:31.735229
4.775779116,-0.9183628559,1.037328243,-0.0166888237,2024-06-05 20:47:31.775779
4.816266876,-0.3609228134,0.6186423302,0.03108024597,2024-06-05 20:47:31.816267
4.856714532,0.3643844128,3.215645313,-0.1935553551,2024-06-05 20:47:31.856715
4.897166668,-2.445502281,0.9441976547,2.818488598,2024-06-05 20:47:31.897167
4.937720991,-1.625548244,-5.128875732,2.136124611,2024-06-05 20:47:31.937721
4.978204272,1.647861958,0.4951972961,-0.07692527771,2024-06-05 20:47:31.978204
5.018692553,0.7350893617,5.25778389,-2.718179703,2024-06-05 20:47:32.018693
5.059181303,-1.137775898,5.969082832,-4.324439526,2024-06-05 20:47:32.059181
5.09964172,-7.697984219,-2.557423592,2.153707266,2024-06-05 20:47:32.099642
5.140139012,-1.918096662,-5.154231071,0.4637064934,2024-06-05 20:47:32.140139
5.180590626,0.4152189493,-4.013648987,0.3160851002,2024-06-05 20:47:32.180591
5.221048074,1.548975825,-0.5974397659,0.2324368954,2024-06-05 20:47:32.221048
5.261587449,1.694355249,-1.036048889,0.7870929241,2024-06-05 20:47:32.261587
5.302074584,1.647971392,0.6183023453,0.391484499,2024-06-05 20:47:32.302075
5.342554376,-1.528515816,-0.04323196411,-0.1911373138,2024-06-05 20:47:32.342554
5.383016876,-2.157057285,-0.1119775772,0.133505106,2024-06-05 20:47:32.383017
5.423525314,-2.489954233,-0.09231567383,0.5302451849,2024-06-05 20:47:32.423525
5.464007553,-0.6009726524,2.213482857,0.6549587846,2024-06-05 20:47:32.464008
5.504476303,0.5861353874,3.658566952,0.4593361616,2024-06-05 20:47:32.504476
5.544879376,1.814947009,7.620725632,-0.02750247717,2024-06-05 20:47:32.544879
5.58543323,-0.211472407,3.282049656,0.7533128858,2024-06-05 20:47:32.585433
5.62591172,-0.5735815763,-14.48784637,3.838923216,2024-06-05 20:47:32.625912
5.666399689,-10.50572872,0.131357193,-3.13022995,2024-06-05 20:47:32.666400
5.706912501,10.33726597,-8.085673332,-0.7361701727,2024-06-05 20:47:32.706913
5.74740297,2.800221443,-0.5246152878,2.100701332,2024-06-05 20:47:32.747403
5.78787672,-0.8955427408,0.2441110611,0.2914664745,2024-06-05 20:47:32.787877
5.828397501,-1.271068811,3.092851162,-0.8326275349,2024-06-05 20:47:32.828398
5.868865105,-0.7051838636,1.233523369,-0.1583476067,2024-06-05 20:47:32.868865
5.909290105,1.729690671,1.249799728,0.3344490528,2024-06-05 20:47:32.909290
5.949800991,1.962483644,-0.197675705,1.423961878,2024-06-05 20:47:32.949801
5.990321043,1.929121733,0.9326028824,0.1366499662,2024-06-05 20:47:32.990321
6.030795053,0.3031432629,-3.904783249,0.3082470894,2024-06-05 20:47:33.030795
6.071267397,1.617484093,-2.319547653,-0.03626084328,2024-06-05 20:47:33.071267
6.111706147,1.949611068,-0.1836843491,0.3895796537,2024-06-05 20:47:33.111706
6.15222323,0.4256501198,0.3617553711,-0.03389191628,2024-06-05 20:47:33.152223
6.192723959,1.030539989,1.067129135,0.4297546148,2024-06-05 20:47:33.192724
6.23320198,1.848090649,1.146443367,0.08060753345,2024-06-05 20:47:33.233202
6.273703699,-0.9089491367,-0.8608083725,1.59318769,2024-06-05 20:47:33.273704
6.31417297,-3.411249161,-0.7538537979,2.653723717,2024-06-05 20:47:33.314173
6.354613699,-0.48524189,-0.9066505432,-0.8754991889,2024-06-05 20:47:33.354614
6.395165209,1.588947058,0.3423023224,-0.07017982006,2024-06-05 20:47:33.395165
6.435626772,1.062644005,0.3753051758,0.09785628319,2024-06-05 20:47:33.435627
6.476150366,0.5713224411,1.189925194,-1.707243919,2024-06-05 20:47:33.476150
6.516571147,-1.297633171,1.35859108,0.6973152161,2024-06-05 20:47:33.516571
6.55710172,-2.505260468,-1.329992294,0.4308915138,2024-06-05 20:47:33.557102
6.59757073,-0.7428741455,-1.339773178,0.203795433,2024-06-05 20:47:33.597571
6.638003126,0.8771822453,0.1075181961,0.1457080841,2024-06-05 20:47:33.638003
6.678544741,0.8563466072,-0.02621078491,0.757897377,2024-06-05 20:47:33.678545
6.718996772,-0.08690738678,-1.145673752,0.8063628674,2024-06-05 20:47:33.718997
6.759474689,-1.492877483,-1.079043388,0.7850371599,2024-06-05 20:47:33.759475
6.799957032,-0.01203155518,0.5720114708,0.4311928749,2024-06-05 20:47:33.799957
6.840459949,-0.5524950027,0.5220870972,0.4401789904,2024-06-05 20:47:33.840460
6.880902137,-0.5306921005,-0.4631838799,0.5051403046,2024-06-05 20:47:33.880902
6.921427605,0.2858982086,-0.1832766533,-0.3122515678,2024-06-05 20:47:33.921428
6.961933959,-0.02180528641,0.4852423668,-0.0543320179,2024-06-05 20:47:33.961934
7.002403074,-0.8542113304,0.330221653,-0.1398847103,2024-06-05 20:47:34.002403
7.042876043,0.05458879471,-0.141907692,-0.5067398548,2024-06-05 20:47:34.042876
7.083363126,0.6727590561,0.2311902046,-1.529482841,2024-06-05 20:47:34.083363
7.123834376,2.24451828,1.047841072,-0.4902179241,2024-06-05 20:47:34.123834
7.164304012,1.739348888,-0.0674033165,0.2116634846,2024-06-05 20:47:34.164304
7.204825678,3.636551857,-0.04543304443,0.2004787922,2024-06-05 20:47:34.204826
7.245347814,1.082904816,1.353768349,-0.132853508,2024-06-05 20:47:34.245348
7.285761876,0.4521169662,0.2466182709,-0.3296716213,2024-06-05 20:47:34.285762
7.326326303,1.290361404,0.725186348,-0.2662203312,2024-06-05 20:47:34.326326
7.366728491,1.410212517,2.147056103,0.02249884605,2024-06-05 20:47:34.366728
7.407207605,0.8804574013,0.6739573479,0.2140882015,2024-06-05 20:47:34.407208
7.447679012,1.322642326,-1.019835472,0.6422863007,2024-06-05 20:47:34.447679
7.488195991,1.293924809,0.4343733788,-0.3615913391,2024-06-05 20:47:34.488196
7.528656043,0.7790851593,0.9742045403,-0.469242692,2024-06-05 20:47:34.528656
7.569165574,-1.426477909,0.4034752846,0.1125531197,2024-06-05 20:47:34.569166
7.609640209,-0.9088439941,0.219991684,1.193641067,2024-06-05 20:47:34.609640
7.650104272,-1.189466476,-0.3715820312,1.225259066,2024-06-05 20:47:34.650104
7.690612501,-1.48456192,0.1523580551,0.5032804012,2024-06-05 20:47:34.690613
7.731087397,-2.386039257,0.192158699,0.671887517,2024-06-05 20:47:34.731087
7.771571407,-2.274631023,0.08175945282,0.4644573927,2024-06-05 20:47:34.771571
7.812037084,-1.758523226,-0.6185808182,0.349535346,2024-06-05 20:47:34.812037
7.852589793,-1.539912224,-0.8123083115,0.4203718305,2024-06-05 20:47:34.852590
7.892990053,-0.5410434008,-0.1152276993,0.4550387263,2024-06-05 20:47:34.892990
7.933497501,-0.5538383722,0.5546417236,-0.5697951913,2024-06-05 20:47:34.933498
7.973981147,-0.9154465199,-1.176325798,-0.1384060681,2024-06-05 20:47:34.973981
8.014505678,-3.15913105,-2.33844471,0.6827978492,2024-06-05 20:47:35.014506
8.05495573,2.158712387,-1.63322258,0.5686330199,2024-06-05 20:47:35.054956
8.095452397,2.988630295,-0.4582214355,0.792303443,2024-06-05 20:47:35.095452
8.135928491,2.311685801,-2.667021751,0.2223673463,2024-06-05 20:47:35.135928
8.176396095,0.4709229469,-0.6838626862,0.6409556866,2024-06-05 20:47:35.176396
8.216879584,-0.2806656361,0.3427762985,0.7764661312,2024-06-05 20:47:35.216880
8.257379689,0.7134537697,0.7568874359,0.02541279793,2024-06-05 20:47:35.257380
8.297848439,0.7582511902,0.7149362564,-0.1077281237,2024-06-05 20:47:35.297848
8.338318699,-0.336001873,-0.3794755936,-0.191318512,2024-06-05 20:47:35.338319
8.378793282,-1.888671398,-0.6671056747,-0.4241395593,2024-06-05 20:47:35.378793
8.419298803,-2.602749348,-0.1926240921,-0.9705219865,2024-06-05 20:47:35.419299
8.459793387,-1.553666115,-1.044001579,-0.7007954717,2024-06-05 20:47:35.459793
8.500261928,-0.5752902031,-1.497699738,-0.2124670744,2024-06-05 20:47:35.500262
8.540752345,-0.3652877808,-0.8046069145,-0.1514159441,2024-06-05 20:47:35.540752
8.581222918,-0.7076787949,-1.211163998,-1.233315706,2024-06-05 20:47:35.581223
8.621730939,0.3433246613,-0.9983811378,-2.532515049,2024-06-05 20:47:35.621731
8.66221297,0.9410529137,-0.1720137596,0.608304739,2024-06-05 20:47:35.662213
8.702676564,1.545899868,-0.0603260994,-0.01118385792,2024-06-05 20:47:35.702677
8.743164428,2.233194828,0.6466884613,-1.337484479,2024-06-05 20:47:35.743164
8.783660262,4.048963547,1.536110878,-1.066502571,2024-06-05 20:47:35.783660
8.824126147,3.545210838,1.359820366,-0.4212321043,2024-06-05 20:47:35.824126
8.864581876,3.532563686,0.951751709,-0.01799166203,2024-06-05 20:47:35.864582
8.905134637,1.58522892,1.682209015,0.3006681204,2024-06-05 20:47:35.905135
8.945582241,0.2956547737,1.129236221,0.03238391876,2024-06-05 20:47:35.945582
8.98607297,0.8938298225,0.4572854042,-0.2692246437,2024-06-05 20:47:35.986073
9.026559168,1.72400713,0.968003273,-1.164735556,2024-06-05 20:47:36.026559
9.067046876,1.034749031,0.2886309624,-0.9469812512,2024-06-05 20:47:36.067047
9.107523178,0.7967834473,0.1053743362,-0.3735861778,2024-06-05 20:47:36.107523
9.148004116,1.225568295,-0.1183710098,0.5971193314,2024-06-05 20:47:36.148004
9.188462137,0.3513846397,0.693549633,1.117818117,2024-06-05 20:47:36.188462
9.228966772,-3.335200787,-1.242102623,1.886746645,2024-06-05 20:47:36.228967
9.269441876,-1.835644484,-0.8796205521,0.4679872394,2024-06-05 20:47:36.269442
9.309920574,-3.257904768,-0.8491535187,0.7237575054,2024-06-05 20:47:36.309921
9.350396928,-3.663841724,-1.977451324,0.4058933258,2024-06-05 20:47:36.350397
9.390910834,-2.0246315,-1.434463501,0.3684026599,2024-06-05 20:47:36.390911
9.431394064,-1.347908258,-0.4457893372,0.3125398159,2024-06-05 20:47:36.431394
9.471877137,-1.434238911,-0.1425542831,0.2615529299,2024-06-05 20:47:36.471877
9.512350522,0.3293001652,-0.6861095428,0.3933830559,2024-06-05 20:47:36.512351
9.552820574,1.786756992,-1.825881004,0.2243507951,2024-06-05 20:47:36.552821
9.593317918,2.474321604,-1.754833221,0.1762181371,2024-06-05 20:47:36.593318
9.63380922,-0.4288146496,-1.533240318,1.352234244,2024-06-05 20:47:36.633809
9.674255366,-1.411161423,-0.4527788162,0.7979959249,2024-06-05 20:47:36.674255
9.71478797,-0.7965779305,-0.2599630356,-0.3738814592,2024-06-05 20:47:36.714788
9.755295782,1.358253717,-0.3543252945,-0.8677953482,2024-06-05 20:47:36.755296
9.795721095,0.7641949654,-0.01720714569,-0.3302232623,2024-06-05 20:47:36.795721
9.836196303,-1.152060509,-0.5960559845,-0.4759623706,2024-06-05 20:47:36.836196
9.876690939,-2.757568359,-0.8442234993,-0.6890558004,2024-06-05 20:47:36.876691
9.917164324,-2.724056721,-1.206109524,-1.056661129,2024-06-05 20:47:36.917164
9.957688439,-1.034756184,-1.322220802,-0.9000777602,2024-06-05 20:47:36.957688
9.998134012,0.9142651558,-0.3563566208,-0.9693586826,2024-06-05 20:47:36.998134
10.0386399,1.201283932,-0.4544119835,-2.67342186,2024-06-05 20:47:37.038640
10.07912188,2.168340683,0.7925930023,-1.559807777,2024-06-05 20:47:37.079122
10.1196187,3.790108204,1.744042397,-0.9458701611,2024-06-05 20:47:37.119619
10.1600987,4.274805069,0.5926151276,-0.1770746708,2024-06-05 20:47:37.160099
10.20059386,4.34013176,1.229231358,0.474448204,2024-06-05 20:47:37.200594
10.2410638,4.082141399,1.636837006,0.3515925407,2024-06-05 20:47:37.241064
10.28155505,2.34747982,1.25615263,-0.2661575079,2024-06-05 20:47:37.281555
10.32202505,0.1313533783,0.7078905106,-0.7996245623,2024-06-05 20:47:37.322025
10.36250276,-0.3738899231,1.063192844,-0.4784898758,2024-06-05 20:47:37.362503
10.40297115,-0.008496761322,0.4082913399,-0.8662928343,2024-06-05 20:47:37.402971
10.4434788,-0.3042793274,-0.1538453102,-0.8648477197,2024-06-05 20:47:37.443479
10.48403604,-0.9229235649,0.04439735413,-0.1198449135,2024-06-05 20:47:37.484036
10.52447719,-2.628596783,1.478245258,0.2189918756,2024-06-05 20:47:37.524477
10.56491651,-1.734280109,0.3893289566,0.08500558138,2024-06-05 20:47:37.564917
10.60540708,-2.046771049,-2.371235847,0.4729505181,2024-06-05 20:47:37.605407
10.64588333,-1.611855984,-2.370136261,0.6754623055,2024-06-05 20:47:37.645883
10.68635818,-2.537977457,-2.103840828,0.8119345903,2024-06-05 20:47:37.686358
10.72684458,-1.266867876,-1.200419426,0.6834237576,2024-06-05 20:47:37.726845
10.76730818,-0.07309937477,-0.2701969147,1.311319113,2024-06-05 20:47:37.767308
10.80783443,-1.061090708,-1.374565125,1.153598666,2024-06-05 20:47:37.807834
10.84833662,-3.036028862,-2.341142654,0.2486300766,2024-06-05 20:47:37.848337
10.88883969,1.739612341,-0.7476406097,0.2958963513,2024-06-05 20:47:37.888840
10.92925995,3.185813189,0.9893064499,-1.150420904,2024-06-05 20:47:37.929260
10.96974886,0.3647084236,-0.4384479523,-0.7975591421,2024-06-05 20:47:37.969749
11.01026912,-3.137122154,-1.4982481,-0.2137606144,2024-06-05 20:47:38.010269
11.05071912,-3.752680779,-2.014633179,-1.495748997,2024-06-05 20:47:38.050719
11.09118026,-0.5851941109,-1.29379034,-0.2986432016,2024-06-05 20:47:38.091180
11.13167828,0.3838391304,-1.165473938,-0.2687697411,2024-06-05 20:47:38.131678
11.17214104,0.07204151154,-1.825489521,-0.03671479225,2024-06-05 20:47:38.172141
11.21264776,-0.2783751488,-1.829446793,-1.218583345,2024-06-05 20:47:38.212648
11.25312995,2.761005402,0.3210716248,-0.9629588127,2024-06-05 20:47:38.253130
11.29360396,6.129551411,2.081882954,-1.916822076,2024-06-05 20:47:38.293604
11.33410333,5.684972763,1.987201214,-0.6188873649,2024-06-05 20:47:38.334103
11.37461208,3.850302219,1.96929574,-0.05068135262,2024-06-05 20:47:38.374612
11.41502787,3.875746727,2.673261642,-0.09271705151,2024-06-05 20:47:38.415028
11.45555474,3.528509855,1.652058601,-0.1364858747,2024-06-05 20:47:38.455555
11.49599693,2.419751167,-0.57528162,-0.01129502058,2024-06-05 20:47:38.495997
11.53649219,1.116335869,-2.348351479,0.5833786726,2024-06-05 20:47:38.536492
11.57700063,-0.8359713554,-1.09767437,1.059250593,2024-06-05 20:47:38.577001
11.61749297,-1.158658504,0.5764126778,1.566520572,2024-06-05 20:47:38.617493
11.65798016,-0.7461695671,-0.2931003571,1.204809546,2024-06-05 20:47:38.657980
11.69846115,-2.20102644,-2.116927147,0.5339566469,2024-06-05 20:47:38.698461
11.73893151,-3.751786232,-2.521633148,-0.1203741655,2024-06-05 20:47:38.738932
11.77941094,-4.483629227,-1.587141991,-0.193533197,2024-06-05 20:47:38.779411
11.81989021,-2.711123466,-1.20500946,0.1758664548,2024-06-05 20:47:38.819890
11.86038026,-1.438460112,-1.1658535,0.6818006039,2024-06-05 20:47:38.860380
11.90091136,0.4486136436,-1.280698776,0.3050696552,2024-06-05 20:47:38.900911
11.94134615,0.01750683784,-1.589915276,0.2351055294,2024-06-05 20:47:38.941346
11.98186375,-0.3163590431,-0.003529548645,0.8622003794,2024-06-05 20:47:38.981864
12.02232615,-0.6542682648,0.4031734467,0.09215962887,2024-06-05 20:47:39.022326
12.06281948,-2.385176182,-1.315011024,-1.121827245,2024-06-05 20:47:39.062819
12.103265,-0.9033279419,-1.469726562,-1.284633756,2024-06-05 20:47:39.103265
12.14374641,-1.534537792,-2.272958755,-0.9675229192,2024-06-05 20:47:39.143746
12.18426537,-1.24617815,-2.081167698,-1.418169737,2024-06-05 20:47:39.184265
12.22477901,-0.05708169937,-1.991561413,-1.610515356,2024-06-05 20:47:39.224779
12.26518531,1.883387089,-1.215891361,-0.9521024227,2024-06-05 20:47:39.265185
12.3056775,3.688419342,0.1197805405,-2.392631531,2024-06-05 20:47:39.305677
12.34617287,5.891327381,1.116848946,-0.7134259939,2024-06-05 20:47:39.346173
12.38664162,5.511692047,1.89614296,-0.3401919603,2024-06-05 20:47:39.386642
12.42711927,3.852431774,0.4537000656,0.2243899107,2024-06-05 20:47:39.427119
12.46762485,4.981246471,2.877735376,0.57802701,2024-06-05 20:47:39.467625
12.50810156,4.075305939,2.257673264,0.2721391916,2024-06-05 20:47:39.508102
12.54857208,2.093720436,0.7185373306,0.4314458966,2024-06-05 20:47:39.548572
12.58906677,-0.5722489357,-2.068065643,0.8463291526,2024-06-05 20:47:39.589067
12.62955031,-0.3792109489,-1.987606049,1.076227188,2024-06-05 20:47:39.629550
12.67002432,-1.151869774,0.1708722115,0.09102624655,2024-06-05 20:47:39.670024
12.71050943,-3.339701653,-0.6429347992,-0.1381338537,2024-06-05 20:47:39.710509
12.75100344,-2.794290781,-1.792638779,-0.4364421964,2024-06-05 20:47:39.751003
12.7914862,-3.25998497,-0.9988708496,-1.383612394,2024-06-05 20:47:39.791486
12.83197104,-3.523591042,-0.7464017868,-0.6382887363,2024-06-05 20:47:39.831971
12.87246594,-2.68618083,-1.467230797,0.5052080154,2024-06-05 20:47:39.872466
12.912945,-1.383500814,-1.285989761,1.208204269,2024-06-05 20:47:39.912945
12.95343833,-1.50869441,-2.517309189,1.062036991,2024-06-05 20:47:39.953438
12.99391948,0.8887557983,-0.7437372208,1.594041705,2024-06-05 20:47:39.993919
13.03438787,2.673587084,0.5884141922,0.310516119,2024-06-05 20:47:40.034388
13.07483875,-0.4186120033,-0.7747306824,0.04961639643,2024-06-05 20:47:40.074839
13.11537906,-3.316716194,-2.582056046,-1.100073576,2024-06-05 20:47:40.115379
13.15587287,-4.116734982,-3.176207542,-1.12221837,2024-06-05 20:47:40.155873
13.19629854,-0.4295606613,-2.724388599,-0.164894104,2024-06-05 20:47:40.196299
13.23679089,2.089271545,-1.979517937,-0.4589821994,2024-06-05 20:47:40.236791
13.27727063,1.725057125,-0.6573314667,-1.887255549,2024-06-05 20:47:40.277271
13.31775521,3.975446701,0.8849282265,-2.257853031,2024-06-05 20:47:40.317755
13.35822906,6.262467384,3.058423281,-1.643725395,2024-06-05 20:47:40.358229
13.39873563,5.610885143,3.017886877,0.1167817116,2024-06-05 20:47:40.398736
13.43925203,4.704122543,1.174200535,1.094416499,2024-06-05 20:47:40.439252
13.47970432,4.435322762,2.424226284,0.7587103844,2024-06-05 20:47:40.479704
13.52018448,3.184495449,2.268829346,0.1275838614,2024-06-05 20:47:40.520184
13.56065693,0.6423273087,-0.2495584488,-0.02516916394,2024-06-05 20:47:40.560657
13.60113906,0.2685408592,-1.60751152,0.2167198211,2024-06-05 20:47:40.601139
13.64164901,0.5529513359,-0.9813046455,0.5272564888,2024-06-05 20:47:40.641649
13.68216833,-1.406154156,-2.665352821,1.069988489,2024-06-05 20:47:40.682168
13.72261188,-2.358891249,-3.952588081,0.3134064078,2024-06-05 20:47:40.722612
13.76311516,-4.619267464,-2.519278526,0.1041638553,2024-06-05 20:47:40.763115
13.80357453,-5.248421192,-1.56918335,1.031684399,2024-06-05 20:47:40.803575
13.84405026,-3.03538847,-0.5173196793,1.219501495,2024-06-05 20:47:40.844050
13.88457651,-1.580348253,-1.680286407,0.6433151364,2024-06-05 20:47:40.884577
13.92498422,-0.8902654648,-1.63002491,0.3823905885,2024-06-05 20:47:40.924984
13.96547823,1.24344182,-0.4184656143,1.473735332,2024-06-05 20:47:40.965478
14.00599469,2.397096634,-0.2483005524,-1.056275964,2024-06-05 20:47:41.005995
14.04646875,-1.72355032,-0.7625017166,-0.3350448608,2024-06-05 20:47:41.046469
14.08695281,-3.880084038,-2.585599899,-0.8319224119,2024-06-05 20:47:41.086953
14.12738229,-3.780323505,-2.766105652,-0.691208005,2024-06-05 20:47:41.127382
14.16792182,-0.3510274887,-3.105689526,-0.04394982755,2024-06-05 20:47:41.167922
14.20837604,3.134411335,-2.033550262,-1.143684626,2024-06-05 20:47:41.208376
14.24889323,4.289390564,0.09221172333,-2.835988283,2024-06-05 20:47:41.248893
14.28937458,5.996312618,2.481046677,-1.244724512,2024-06-05 20:47:41.289375
14.32982307,5.500980377,1.872479916,0.1175613999,2024-06-05 20:47:41.329823
14.37029875,5.079497337,0.2701039314,0.3531458378,2024-06-05 20:47:41.370299
14.41082193,7.596055031,2.372903824,0.1847712994,2024-06-05 20:47:41.410822
14.45131656,7.05177784,2.125046253,0.07348036766,2024-06-05 20:47:41.451317
14.49176906,1.448606968,0.1610107422,-1.321006298,2024-06-05 20:47:41.491769
14.53233469,-4.029569149,-4.174212933,0.257717967,2024-06-05 20:47:41.532335
14.57274854,-2.228307247,-3.209959984,1.602876902,2024-06-05 20:47:41.572749
14.61328979,-5.31025219,-4.509405136,2.744450808,2024-06-05 20:47:41.613290
14.65371636,-5.463671684,-5.110922813,3.15762949,2024-06-05 20:47:41.653716
14.69417511,-6.985837936,-0.8609294891,-0.8149100542,2024-06-05 20:47:41.694175
14.73470104,-2.61320281,1.967531204,-2.873519897,2024-06-05 20:47:41.734701
14.77513693,-1.88087225,-0.3854866028,-1.078752279,2024-06-05 20:47:41.775137
14.81560156,-4.747232437,1.367513657,-0.9017532468,2024-06-05 20:47:41.815602
14.85609688,-4.29111433,3.219820976,-0.3138259053,2024-06-05 20:47:41.856097
14.89659891,-0.9201903343,3.099273205,-0.03632127494,2024-06-05 20:47:41.896599
14.93711646,-2.387451649,0.475959301,1.584055066,2024-06-05 20:47:41.937116
14.97756271,-1.292513371,-2.167123795,-0.6655880213,2024-06-05 20:47:41.977563
15.01806292,4.117537975,-3.776349068,-2.847488403,2024-06-05 20:47:42.018063
15.0585488,-1.758801937,-8.195644379,-1.324727774,2024-06-05 20:47:42.058549
15.09902281,-6.266513824,-8.336241722,0.38532269,2024-06-05 20:47:42.099023
15.13949365,2.198211193,-2.343328476,-0.691749692,2024-06-05 20:47:42.139494
15.17998255,8.504366875,0.3400168419,-4.765455246,2024-06-05 20:47:42.179983
15.2204875,11.15816593,3.695071697,-1.62229073,2024-06-05 20:47:42.220488
15.26097375,11.28278542,2.302273273,-2.14921546,2024-06-05 20:47:42.260974
15.30143953,4.387239933,2.287596703,-0.07875406742,2024-06-05 20:47:42.301440
15.34189516,4.059528828,5.631418705,0.6508791447,2024-06-05 20:47:42.341895
15.38236641,0.09567165375,4.109267235,-1.528782487,2024-06-05 20:47:42.382366
15.42286115,-0.824201107,-0.3026981354,-0.6479691267,2024-06-05 20:47:42.422861
15.46338104,-2.97995472,-10.34000111,3.502833366,2024-06-05 20:47:42.463381
15.50387787,-3.839118481,-4.457633972,-0.1744470596,2024-06-05 20:47:42.503878
15.54434281,-10.36106873,-2.10574913,-2.822810173,2024-06-05 20:47:42.544343
15.5848336,-10.20075321,-1.950913429,-4.074036598,2024-06-05 20:47:42.584834
15.62532604,-5.763736248,0.7473130226,-0.2809481621,2024-06-05 20:47:42.625326
15.66578578,2.055511475,0.9240884781,1.593630433,2024-06-05 20:47:42.665786
15.70627391,6.249830246,-1.639174461,0.4352703094,2024-06-05 20:47:42.706274
15.74674365,3.054561138,-2.511022091,0.7660058737,2024-06-05 20:47:42.746744
15.78721474,-4.086762428,-4.326356411,-1.113565207,2024-06-05 20:47:42.787215
15.82770557,-3.748124123,-2.19740057,-0.2575537562,2024-06-05 20:47:42.827706
15.86819276,-5.916374207,-5.520719528,-0.207433641,2024-06-05 20:47:42.868193
15.90868677,0.1461162567,-5.037160397,-1.784525156,2024-06-05 20:47:42.908687
15.94915886,5.78742218,0.7863514423,-4.01803875,2024-06-05 20:47:42.949159
15.98966495,7.447896957,2.404212475,-0.8102148175,2024-06-05 20:47:42.989665
16.03016453,8.496276855,2.975589275,-0.04877501726,2024-06-05 20:47:43.030165
16.07062313,10.33479118,3.487907648,-0.3321363628,2024-06-05 20:47:43.070623
16.11109307,9.111068726,2.450200796,-0.01115208678,2024-06-05 20:47:43.111093
16.1515636,4.762955666,0.9835247993,1.149602652,2024-06-05 20:47:43.151564
16.19209271,-1.581067085,-1.749601364,1.647277594,2024-06-05 20:47:43.192093
16.23256662,-4.423790932,-6.371725082,0.4979759455,2024-06-05 20:47:43.232567
16.27305818,-3.753942013,-4.993954659,-0.4102346897,2024-06-05 20:47:43.273058
16.31356438,-5.701519966,-2.238211632,-1.278776884,2024-06-05 20:47:43.313564
16.3539537,-7.22244072,-1.712436676,-0.5787801743,2024-06-05 20:47:43.353954
16.39446875,-5.121945381,-1.047340393,-0.05774092674,2024-06-05 20:47:43.394469
16.43496396,-2.952544212,-1.098918915,2.100012302,2024-06-05 20:47:43.434964
16.47547,-1.059520245,-2.678570747,0.7482616305,2024-06-05 20:47:43.475470
16.51592802,-0.3627996445,-3.572330952,0.6705711484,2024-06-05 20:47:43.515928
16.55640557,0.595331192,-2.523872852,-0.1311411858,2024-06-05 20:47:43.556406
16.59688589,-1.303935051,-1.482176304,-0.2456239462,2024-06-05 20:47:43.596886
16.63735443,0.5766601562,-0.3182830811,-1.236950517,2024-06-05 20:47:43.637354
16.67789406,0.5917577744,-1.281680584,-1.648982763,2024-06-05 20:47:43.677894
16.71832698,0.5909452438,-1.897360325,-1.379031301,2024-06-05 20:47:43.718327
16.75881224,1.647768021,-1.616085529,-1.651349068,2024-06-05 20:47:43.758812
16.79929115,7.526887417,1.233137369,-0.9422620535,2024-06-05 20:47:43.799291
16.83978427,7.706316948,3.141745806,-0.2712162733,2024-06-05 20:47:43.839784
16.8802675,7.568065643,0.2556788921,0.3864697218,2024-06-05 20:47:43.880267
16.92075833,8.865865707,3.364101887,0.6258962154,2024-06-05 20:47:43.920758
16.9612476,7.129251957,3.251069546,0.7455157042,2024-06-05 20:47:43.961248
17.00172807,4.928310394,1.807126999,0.2207981348,2024-06-05 20:47:44.001728
17.04225255,-0.3587412834,-1.340899467,0.7618874907,2024-06-05 20:47:44.042253
17.08270438,-4.457690716,-6.43966341,-0.9383709431,2024-06-05 20:47:44.082704
17.12323193,-6.742558002,-5.303557873,-0.5805550814,2024-06-05 20:47:44.123232
17.16364391,-5.091588974,-2.491682053,-1.100155592,2024-06-05 20:47:44.163644
17.2041199,-5.338968277,-2.197217941,-0.2666546106,2024-06-05 20:47:44.204120
17.24465583,-6.519651413,-0.7265253067,0.4062739611,2024-06-05 20:47:44.244656
17.28517703,-6.110404968,-1.745455742,-0.7323909998,2024-06-05 20:47:44.285177
17.32562594,-1.912125111,-1.420390129,0.7210668921,2024-06-05 20:47:44.325626
17.36607875,1.632918835,-2.807288647,-0.3469508886,2024-06-05 20:47:44.366079
17.40655037,2.776715755,-2.275360107,-1.797089577,2024-06-05 20:47:44.406550
17.44705625,-3.701805592,-2.134122849,-1.786081791,2024-06-05 20:47:44.447056
17.48750333,-3.128549576,-2.754260063,-3.330166578,2024-06-05 20:47:44.487503
17.52799526,0.08348274231,-2.874694824,-2.429526567,2024-06-05 20:47:44.527995
17.56850396,3.928080082,-1.764173031,-2.862965822,2024-06-05 20:47:44.568504
17.60897656,7.949012756,1.046406269,-1.718492985,2024-06-05 20:47:44.608977
17.64944927,7.696088791,3.367134094,-0.7177944183,2024-06-05 20:47:44.649449
17.689935,6.562690735,0.3392062187,0.657700181,2024-06-05 20:47:44.689935
17.73043807,7.164290428,2.53706646,1.246365428,2024-06-05 20:47:44.730438
17.77089318,7.264213562,2.872631311,1.056274414,2024-06-05 20:47:44.770893
17.81141146,3.787518978,0.7056417465,-0.1904708743,2024-06-05 20:47:44.811411
17.85184792,0.03060722351,-4.356972218,-0.0138553381,2024-06-05 20:47:44.851848
17.89236724,-4.373086929,-7.934981823,-0.9230093956,2024-06-05 20:47:44.892367
17.93284703,-4.572962284,-1.593670368,-0.780418992,2024-06-05 20:47:44.932847
17.97335365,-4.6193223,-1.245203018,-1.032977343,2024-06-05 20:47:44.973354
18.01381698,-5.433125019,-3.070199966,0.05450427532,2024-06-05 20:47:45.013817
18.05428833,-5.559920311,-1.284952164,0.6267822981,2024-06-05 20:47:45.054288
18.09478662,-4.375910282,-0.4653768539,0.9365576506,2024-06-05 20:47:45.094787
18.13526776,-2.573023796,-1.026472569,1.444148898,2024-06-05 20:47:45.135268
18.17574266,2.198416948,-1.738330364,-0.1662199497,2024-06-05 20:47:45.175743
18.21620162,1.500596523,-1.947541237,-1.166621685,2024-06-05 20:47:45.216202
18.2566886,-4.590601921,-2.619159698,-1.734917164,2024-06-05 20:47:45.256689
18.29718208,-4.032646179,-2.714913368,-2.656104088,2024-06-05 20:47:45.297182
18.33767287,-0.07898521423,-3.977205753,-0.7003856301,2024-06-05 20:47:45.337673
18.37814292,4.526170254,-2.677937031,-2.000662804,2024-06-05 20:47:45.378143
18.41864339,9.128872871,1.121335983,-1.169143558,2024-06-05 20:47:45.418643
18.45912089,7.969677448,3.920372486,-0.4982001483,2024-06-05 20:47:45.459121
18.49959537,7.302381992,0.4119985104,1.649669409,2024-06-05 20:47:45.499595
18.54008172,6.779162407,2.115271807,2.522491932,2024-06-05 20:47:45.540082
18.58057484,5.841741085,1.993515968,1.865201592,2024-06-05 20:47:45.580575
18.62105401,2.519767284,-0.07700681686,1.246639729,2024-06-05 20:47:45.621054
18.66153912,0.01138830185,-4.017620087,0.2807195187,2024-06-05 20:47:45.661539
18.70203026,-4.171269417,-7.333915234,-1.006051064,2024-06-05 20:47:45.702030
18.74251104,-4.931515217,-2.715137482,-0.5502076149,2024-06-05 20:47:45.742511
18.782985,-5.435235977,-1.613603592,-0.5746052265,2024-06-05 20:47:45.782985
18.82346573,-6.305051327,-2.537134171,0.3380957842,2024-06-05 20:47:45.823466
18.86395682,-5.11587286,-1.268257141,-0.0257089138,2024-06-05 20:47:45.863957
18.90445235,-3.556635857,0.2006607056,0.7053441405,2024-06-05 20:47:45.904452
18.94487281,-0.7584381104,-0.4311103821,1.111311913,2024-06-05 20:47:45.944873
18.98538953,0.7663555145,-1.934536934,-0.3187593222,2024-06-05 20:47:45.985390
19.02587656,-2.1671381,-1.72531414,-1.350971699,2024-06-05 20:47:46.025877
19.06635865,-3.568375587,-2.869150639,-1.993187428,2024-06-05 20:47:46.066359
19.10680615,-1.887804985,-4.636519432,-3.480297565,2024-06-05 20:47:46.106806
19.14730469,1.851362228,-3.549976349,-1.696668625,2024-06-05 20:47:46.147305
19.18780917,4.84714222,-0.718991518,-3.324064732,2024-06-05 20:47:46.187809
19.22829682,8.086359024,2.255999327,-1.436751366,2024-06-05 20:47:46.228297
19.26879625,8.267536163,2.470878601,0.139449656,2024-06-05 20:47:46.268796
19.30925807,7.73824358,1.375245571,1.006640434,2024-06-05 20:47:46.309258
19.34970964,7.7609272,2.61374259,1.595811248,2024-06-05 20:47:46.349710
19.39022146,6.255048275,2.666175365,1.20705533,2024-06-05 20:47:46.390221
19.43071766,1.591977119,0.3922014236,0.250039041,2024-06-05 20:47:46.430718
19.47120151,-2.109162331,-6.793203354,-1.280554891,2024-06-05 20:47:46.471202
19.51166625,-5.828348637,-6.622929096,-0.4281433821,2024-06-05 20:47:46.511666
19.55216896,-5.872665405,-0.7201662064,-1.295340061,2024-06-05 20:47:46.552169
19.59265047,-5.164295197,-2.57111454,-0.9328411818,2024-06-05 20:47:46.592650
19.63312516,-5.279260159,-1.494147301,0.7413845062,2024-06-05 20:47:46.633125
19.67360979,-4.63570261,0.5129785538,-0.1481763124,2024-06-05 20:47:46.673610
19.71406365,-2.789958477,0.2765426636,0.4464407563,2024-06-05 20:47:46.714064
19.75453151,0.1997718811,-1.504190445,0.6775233746,2024-06-05 20:47:46.754532
19.79502011,0.6451425552,-2.267764568,-1.178692937,2024-06-05 20:47:46.795020
19.83550578,-3.296761513,-2.787182808,-1.121376276,2024-06-05 20:47:46.835506
19.87596526,-2.764018059,-3.798950195,-2.856616497,2024-06-05 20:47:46.875965
19.91653865,-0.7345838547,-4.360818386,-2.458614826,2024-06-05 20:47:46.916539
19.95699469,2.932594299,-2.081008434,-0.489060849,2024-06-05 20:47:46.956995
19.99747745,7.041100502,0.817176342,-3.242317915,2024-06-05 20:47:46.997477
20.03795188,9.044584274,2.858165026,-0.2597857118,2024-06-05 20:47:47.037952
20.07841458,6.612082481,1.092921972,0.5967487097,2024-06-05 20:47:47.078415
20.11887552,6.899520397,1.32302618,0.9156875014,2024-06-05 20:47:47.118876
20.15939636,6.843141556,2.537532806,1.151124954,2024-06-05 20:47:47.159396
20.19989568,3.478531361,1.566345692,0.9313912988,2024-06-05 20:47:47.199896
20.2403475,0.5316858292,-1.247646809,0.9450999498,2024-06-05 20:47:47.240347
20.28086083,-2.280333519,-7.955549717,-1.271703243,2024-06-05 20:47:47.280861
20.3213137,-4.877871037,-3.996552467,0.2869265079,2024-06-05 20:47:47.321314
20.36179208,-4.720932007,0.1330013275,-0.6505302191,2024-06-05 20:47:47.361792
20.40235177,-5.952469826,-2.954831123,-0.6306740046,2024-06-05 20:47:47.402352
20.44278964,-5.522613049,-1.754040718,0.3697789907,2024-06-05 20:47:47.442790
20.48326042,-6.067774296,-1.827953339,0.0745215416,2024-06-05 20:47:47.483260
20.52375828,-0.1890907288,0.2868695259,1.21769619,2024-06-05 20:47:47.523758
20.56419485,1.769800663,-1.168417931,0.7940730453,2024-06-05 20:47:47.564195
20.60466401,-0.8020529747,-3.131195068,-1.533061028,2024-06-05 20:47:47.604664
20.64518318,-2.407168388,-1.126805305,-1.4005059,2024-06-05 20:47:47.645183
20.68563896,-4.844904423,-1.551278114,-3.138312578,2024-06-05 20:47:47.685639
20.72616552,-0.4301919937,-3.080491066,-1.222580433,2024-06-05 20:47:47.726166
20.76663912,3.842829704,-3.996397018,-0.6162022948,2024-06-05 20:47:47.766639
20.80712011,6.9226861,-0.4415090084,-0.3045175374,2024-06-05 20:47:47.807120
20.84761078,8.795120239,2.736877918,-0.6195346117,2024-06-05 20:47:47.847611
20.88805266,7.995304108,1.545519352,1.144241333,2024-06-05 20:47:47.888053
20.92855125,6.555150986,2.074156284,1.82792151,2024-06-05 20:47:47.928551
20.96905203,5.610936165,2.184686422,1.11068213,2024-06-05 20:47:47.969052
21.00954922,3.273610592,0.4574074745,1.527418017,2024-06-05 20:47:48.009549
21.05001396,1.67893219,-3.360834599,-0.1080747843,2024-06-05 20:47:48.050014
21.09050636,-2.786037445,-8.255729675,-0.6815583706,2024-06-05 20:47:48.090506
21.13096865,-6.052826405,-3.572654247,0.3918898106,2024-06-05 20:47:48.130969
21.17142969,-6.555649757,-1.587485313,-0.3216992617,2024-06-05 20:47:48.171430
21.21193729,-6.744661331,-2.377809525,-0.2097740173,2024-06-05 20:47:48.211937
21.25242281,-5.534471989,-0.7137231827,0.1888810396,2024-06-05 20:47:48.252423
21.29294021,-3.497478485,0.544532299,0.1361986399,2024-06-05 20:47:48.292940
21.33342719,-0.6778140068,-0.4427967072,1.00189507,2024-06-05 20:47:48.333427
21.37384412,1.432108402,-1.937755108,-0.6098903418,2024-06-05 20:47:48.373844
21.41432677,-2.307739735,-2.525149822,-1.201801538,2024-06-05 20:47:48.414327
21.45483917,-3.012553215,-2.631163597,-1.930782557,2024-06-05 20:47:48.454839
21.4952863,-1.628803253,-2.702933788,-2.890286207,2024-06-05 20:47:48.495286
21.53578886,0.5416688919,-2.876737118,-2.522841215,2024-06-05 20:47:48.535789
21.57630078,2.525834084,-1.804390907,-3.597676754,2024-06-05 20:47:48.576301
21.61676229,8.78013134,0.3855888844,-0.3887121379,2024-06-05 20:47:48.616762
21.65726255,8.653342247,3.691729546,0.1503243148,2024-06-05 20:47:48.657263
21.69776719,8.180557251,0.8712806702,0.7632901073,2024-06-05 20:47:48.697767
21.73822823,8.492452621,2.427041531,0.969275713,2024-06-05 20:47:48.738228
21.77871422,5.597967148,2.331512928,0.6849021316,2024-06-05 20:47:48.778714
21.81919287,0.604616642,-0.805896759,-0.2303833961,2024-06-05 20:47:48.819193
21.85969297,-1.751168728,-6.296979427,-0.6031398773,2024-06-05 20:47:48.859693
21.90016167,-3.534809589,-6.175625324,-0.8769249916,2024-06-05 20:47:48.900162
21.94063604,-5.11067915,-0.4921016693,-0.4621529579,2024-06-05 20:47:48.940636
21.98114333,-4.301335335,-0.6447153091,-0.7750610113,2024-06-05 20:47:48.981143
22.0216,-4.633422375,-1.838274002,0.4190150499,2024-06-05 20:47:49.021600
22.06209886,-4.060208321,-0.2345781326,-0.3184149265,2024-06-05 20:47:49.062099
22.10259865,-3.850194931,0.4569363594,0.02367722988,2024-06-05 20:47:49.102599
22.14309313,-2.140552998,-0.5553970337,0.7025458813,2024-06-05 20:47:49.143093
22.18357479,-0.5614337921,-2.606322765,-0.8279790878,2024-06-05 20:47:49.183575
22.2240086,-0.7927327156,-2.541248798,-1.390768647,2024-06-05 20:47:49.224009
22.2644913,-2.059029579,-2.503789425,-0.9171427488,2024-06-05 20:47:49.264491
22.30497401,-1.730780602,-3.074609756,-3.161579132,2024-06-05 20:47:49.304974
22.34545526,-0.6578397751,-3.436700344,-1.60223043,2024-06-05 20:47:49.345455
22.38595188,4.040162086,-2.213140488,-1.987542152,2024-06-05 20:47:49.385952
22.4264325,8.389152527,1.152117968,-0.8907763958,2024-06-05 20:47:49.426433
22.46691698,8.019805908,2.459666729,0.09998007119,2024-06-05 20:47:49.466917
22.50740656,6.90553093,0.6982958317,0.8631386757,2024-06-05 20:47:49.507407
22.54789719,7.24398613,2.40896225,1.122733474,2024-06-05 20:47:49.547897
22.58838156,4.284540653,1.944899559,1.16282773,2024-06-05 20:47:49.588382
22.62886354,1.714276791,-0.09588956833,1.434053898,2024-06-05 20:47:49.628864
22.66932511,-0.3206524849,-3.880905151,0.3545463085,2024-06-05 20:47:49.669325
22.70982432,-2.83506918,-5.935137749,-0.3541967869,2024-06-05 20:47:49.709824
22.75029854,-5.017983437,-2.56670475,-0.2401689291,2024-06-05 20:47:49.750299
22.79077063,-5.515876293,-0.8416748047,-0.5738292933,2024-06-05 20:47:49.790771
22.8312576,-5.857660294,-0.7133817673,-0.2684332132,2024-06-05 20:47:49.831258
22.87174271,-3.490746498,-0.2754812241,-0.1882483959,2024-06-05 20:47:49.871743
22.9122375,-3.593010902,-0.1842308044,0.2144472599,2024-06-05 20:47:49.912237
22.95274568,-2.448628426,-0.4273395538,0.782892406,2024-06-05 20:47:49.952746
22.99321552,0.05316209793,-1.133622646,0.2632168531,2024-06-05 20:47:49.993216
23.03367583,-1.618582726,-2.335094929,-0.9032120705,2024-06-05 20:47:50.033676
23.07415333,-2.88251543,-2.608966827,-1.344526052,2024-06-05 20:47:50.074153
23.11460682,-0.0698890686,-2.38258934,-2.598522425,2024-06-05 20:47:50.114607
23.15509005,0.2648735046,-3.287526608,-2.158338547,2024-06-05 20:47:50.155090
23.19562865,2.845393181,-0.8029761314,-1.896461129,2024-06-05 20:47:50.195629
23.23609547,6.016667366,0.6442120075,-1.129151106,2024-06-05 20:47:50.236095
23.27656068,7.43900919,1.029278994,0.687390089,2024-06-05 20:47:50.276561
23.31704349,8.371232033,0.7046625614,1.373539805,2024-06-05 20:47:50.317043
23.3574975,8.029788017,2.608323812,2.108313799,2024-06-05 20:47:50.357498
23.39803589,4.729525566,1.996449947,1.280317426,2024-06-05 20:47:50.398036
23.43855458,1.345493317,-0.4321579933,0.8427522182,2024-06-05 20:47:50.438555
23.47901083,-0.145802021,-3.251098633,-0.07242572308,2024-06-05 20:47:50.479011
23.5194937,-3.540584087,-5.128160954,-0.3722455502,2024-06-05 20:47:50.519494
23.55997068,-4.687611103,-3.0119977,-0.2679378986,2024-06-05 20:47:50.559971
23.60042589,-6.546646118,-2.205489159,0.3563296795,2024-06-05 20:47:50.600426
23.64091797,-6.335689068,-1.57053566,0.3204942942,2024-06-05 20:47:50.640918
23.68140193,-4.886276245,-0.2475500107,1.435177088,2024-06-05 20:47:50.681402
23.72190234,-6.683160305,-2.15353775,0.3934966326,2024-06-05 20:47:50.721902
23.7624036,0.563477993,0.3146734238,1.464845538,2024-06-05 20:47:50.762404
23.80284297,2.178512573,-2.228265285,-1.280185223,2024-06-05 20:47:50.802843
23.84334245,0.8168773651,-1.602981091,-0.3527355194,2024-06-05 20:47:50.843342
23.88382583,-3.500158787,-0.9673757553,-2.217638016,2024-06-05 20:47:50.883826
23.92427255,-4.658890724,-2.790579319,-0.978903234,2024-06-05 20:47:50.924273
23.96475589,-1.117054939,-3.173227787,-1.394227743,2024-06-05 20:47:50.964756
24.00523922,5.07823658,-1.850443125,0.7235990167,2024-06-05 20:47:51.005239
24.04576781,8.294029236,0.6607294083,-1.74595356,2024-06-05 20:47:51.045768
24.08625297,7.785604477,2.651368618,0.8705189824,2024-06-05 20:47:51.086253
24.1267024,6.152003765,0.6673374176,0.5700489283,2024-06-05 20:47:51.126702
24.16718005,7.086874962,1.907113194,2.088894367,2024-06-05 20:47:51.167180
24.20769672,5.580718994,2.113207817,1.3314147,2024-06-05 20:47:51.207697
24.24817995,0.6487588882,-0.1798019409,1.052644253,2024-06-05 20:47:51.248180
24.28865115,-1.070790291,-2.867585659,0.4656594992,2024-06-05 20:47:51.288651
24.32912568,-3.323438168,-4.917358398,-0.1634191275,2024-06-05 20:47:51.329126
24.36960136,-5.194896221,-3.310186386,-0.4780402184,2024-06-05 20:47:51.369601
24.41009636,-4.922053814,-0.1320714951,-0.03960907459,2024-06-05 20:47:51.410096
24.45059531,-5.2774086,-1.236573219,-0.2806034088,2024-06-05 20:47:51.450595
24.49106011,-4.611525059,-0.8183755875,0.5311104059,2024-06-05 20:47:51.491060
24.53153964,-4.254544735,-0.8780460358,-0.4564418793,2024-06-05 20:47:51.531540
24.5720224,-2.728644371,-0.3804445267,0.9511158466,2024-06-05 20:47:51.572022
24.61250589,0.3749389648,-1.60973835,-0.5323752165,2024-06-05 20:47:51.612506
24.65299156,0.2253284454,-2.973196983,-1.21128571,2024-06-05 20:47:51.652992
24.69349141,-2.562748909,-3.359355927,-2.350525618,2024-06-05 20:47:51.693491
24.73397703,-2.096115112,-2.681238651,-2.955689192,2024-06-05 20:47:51.733977
24.77439505,0.7538127899,-1.826917171,-1.378293753,2024-06-05 20:47:51.774395
24.81487698,3.207853317,-1.622951746,-3.627860785,2024-06-05 20:47:51.814877
24.85537167,8.196292877,0.5772857666,-0.3083643615,2024-06-05 20:47:51.855372
24.8958536,8.441420555,2.326137304,0.6552161574,2024-06-05 20:47:51.895854
24.93635672,8.05602169,0.6422972679,1.159881949,2024-06-05 20:47:51.936357
24.9768775,7.0258255,2.732197762,1.34248662,2024-06-05 20:47:51.976878
25.01734313,3.824291706,1.431005478,1.125786662,2024-06-05 20:47:52.017343
25.05781068,1.121282578,-0.04322195053,0.7247350812,2024-06-05 20:47:52.057811
25.0982738,-0.5629730225,-2.03158474,-0.1949170828,2024-06-05 20:47:52.098274
25.13876922,-4.378035069,-6.209552288,-0.9298456907,2024-06-05 20:47:52.138769
25.17927938,-6.009506702,-2.291482449,-0.7505921125,2024-06-05 20:47:52.179279
25.21976261,-7.348395824,-0.836564064,-1.2447474,2024-06-05 20:47:52.219763
25.2602412,-4.753218651,-0.4913311005,-0.3190137148,2024-06-05 20:47:52.260241
25.30072328,-2.391309261,-0.08281135559,-0.1315125227,2024-06-05 20:47:52.300723
25.34118922,-0.6860470772,-0.3210906982,-0.1064862013,2024-06-05 20:47:52.341189
25.38165677,0.1862120628,-0.7554283142,0.1566569805,2024-06-05 20:47:52.381657
25.42216948,-1.977231503,-0.5648946762,-1.090345502,2024-06-05 20:47:52.422169
25.46266995,-4.747285843,-1.63300848,-1.455157042,2024-06-05 20:47:52.462670
25.50313823,-3.254237652,-3.537626266,-2.051024914,2024-06-05 20:47:52.503138
25.54361271,-1.092512131,-5.218562603,-1.956669569,2024-06-05 20:47:52.543613
25.58410797,4.27641201,-2.341090202,0.3760970831,2024-06-05 20:47:52.584108
25.62463271,5.943234444,0.06616139412,-0.8535832167,2024-06-05 20:47:52.624633
25.66511563,6.466916561,1.351435661,0.3766442537,2024-06-05 20:47:52.665116
25.70559854,6.765500069,0.185110569,1.329172015,2024-06-05 20:47:52.705599
25.7460288,7.55359745,2.621953011,1.681956649,2024-06-05 20:47:52.746029
25.78649318,8.340688705,3.773156643,1.736057997,2024-06-05 20:47:52.786493
25.82698328,4.154260159,2.183191538,0.5896503925,2024-06-05 20:47:52.826983
25.86746766,-0.201157093,-2.271736145,0.4583005905,2024-06-05 20:47:52.867468
25.90794771,-4.514418125,-8.014678955,-1.020463109,2024-06-05 20:47:52.907948
25.94844313,-5.625493526,-3.796138287,-0.1949036121,2024-06-05 20:47:52.948443
25.98893464,-5.764017105,-1.573338509,-0.7088630199,2024-06-05 20:47:52.988935
26.02943797,-5.326615334,-1.183067322,-0.7015352249,2024-06-05 20:47:53.029438
26.06990162,-4.706256866,0.6187992096,0.4436308146,2024-06-05 20:47:53.069902
26.11036979,-4.132534981,1.156471252,0.4326184988,2024-06-05 20:47:53.110370
26.15086469,-3.194733143,-0.03396272659,0.2518516779,2024-06-05 20:47:53.150865
26.19135714,0.04054832458,-2.511667728,0.6068788767,2024-06-05 20:47:53.191357
26.23182636,-1.994953156,-3.133616924,-1.460693836,2024-06-05 20:47:53.231826
26.27231839,-3.213905811,-2.83470583,-1.732868314,2024-06-05 20:47:53.272318
26.31281,-1.552534103,-3.983722687,-3.042098522,2024-06-05 20:47:53.312810
26.3532562,2.070547104,-4.364033699,-1.846847177,2024-06-05 20:47:53.353256
26.39374568,4.155845642,-0.1858739853,-1.950540781,2024-06-05 20:47:53.393746
26.43423203,8.594154358,2.582052946,-0.3835247159,2024-06-05 20:47:53.434232
26.47471526,8.3250103,1.319046021,1.046318769,2024-06-05 20:47:53.474715
26.51519854,9.945492744,1.352286577,1.078960896,2024-06-05 20:47:53.515199
26.55568182,8.543834686,2.334677696,1.175936699,2024-06-05 20:47:53.555682
26.59619146,4.053493977,1.292384863,0.3700397015,2024-06-05 20:47:53.596191
26.63667469,-2.521831036,-1.892260551,1.754500151,2024-06-05 20:47:53.636675
26.67720552,-1.091687679,-4.07514286,-0.7059752941,2024-06-05 20:47:53.677206
26.7176088,-7.398447514,-4.836520672,0.9673441648,2024-06-05 20:47:53.717609
26.75808578,-5.25658989,-0.4158887863,-1.146073818,2024-06-05 20:47:53.758086
26.79856797,-6.69236517,-2.044070244,-0.6886591911,2024-06-05 20:47:53.798568
26.83906662,-6.8622365,-1.956424713,0.8894113302,2024-06-05 20:47:53.839067
26.87954917,-4.546813011,-0.08525753021,1.010732889,2024-06-05 20:47:53.879549
26.92004156,-1.29021883,-1.183687687,0.5653783083,2024-06-05 20:47:53.920042
26.96052708,2.894497395,-1.907391071,-0.8712519407,2024-06-05 20:47:53.960527
27.00099521,1.793003082,-1.034264565,-0.5242853165,2024-06-05 20:47:54.000995
27.04153458,-5.762674332,-1.962362289,-2.062320232,2024-06-05 20:47:54.041535
27.08195115,-5.411948681,-3.862893105,-1.999006152,2024-06-05 20:47:54.081951
27.12243375,0.05366897583,-3.503201485,-1.678087234,2024-06-05 20:47:54.122434
27.16293787,3.579635143,-0.929558754,-0.1070330739,2024-06-05 20:47:54.162938
27.2034186,9.843784332,0.8184614182,-0.3867230117,2024-06-05 20:47:54.203419
27.24390906,9.47416687,1.441390991,0.4315990806,2024-06-05 20:47:54.243909
27.28433599,9.157155991,1.718031406,1.528368115,2024-06-05 20:47:54.284336
27.32481818,8.69679451,2.795302153,1.593245506,2024-06-05 20:47:54.324818
27.36532354,5.317834377,1.658915043,0.8984697461,2024-06-05 20:47:54.365324
27.4058424,-0.4918026924,-4.802749634,1.732707024,2024-06-05 20:47:54.405842
27.4463075,-6.229941368,-9.155065536,-0.5532764196,2024-06-05 20:47:54.446307
27.48678104,-4.890433311,0.2671747208,0.3587967157,2024-06-05 20:47:54.486781
27.52731646,-4.403716087,-1.54434967,-1.024421215,2024-06-05 20:47:54.527316
27.56777432,-4.504173279,-2.613102913,-2.748652458,2024-06-05 20:47:54.567774
27.6082788,-5.121045113,-0.944726944,-1.47573781,2024-06-05 20:47:54.608279
27.64876099,-2.421483755,-0.1017808914,-0.6727223396,2024-06-05 20:47:54.648761
27.68921203,-1.530170918,1.086555481,1.090035319,2024-06-05 20:47:54.689212
27.72967693,0.1504361629,-0.01350975037,0.7667473555,2024-06-05 20:47:54.729677
27.7701938,2.236582756,0.1452550888,-0.3131258488,2024-06-05 20:47:54.770194
27.81066063,2.843409061,0.9381561279,-0.3944737911,2024-06-05 20:47:54.810661
27.85112813,2.298717022,0.164021492,0.3337492943,2024-06-05 20:47:54.851128
27.89161125,2.357164145,1.13580513,-0.1724398136,2024-06-05 20:47:54.891611
27.93208089,0.9264938831,0.2207660675,0.1272079945,2024-06-05 20:47:54.932081
27.97262255,-1.212370634,-0.5546827316,0.4703037739,2024-06-05 20:47:54.972623
28.01307823,-1.731114149,-2.768194199,0.423820138,2024-06-05 20:47:55.013078
28.05354662,-1.630105495,-0.5851802826,0.7832440138,2024-06-05 20:47:55.053547
28.09415177,-0.8838639259,-0.628777504,0.6983936429,2024-06-05 20:47:55.094152
28.13463484,0.08015847206,-0.0669708252,0.07608377934,2024-06-05 20:47:55.134635
28.1749925,1.111861706,-1.005990028,-0.03009712696,2024-06-05 20:47:55.174992
28.21547932,1.542924881,0.2515392303,0.6955866814,2024-06-05 20:47:55.215479
28.25597651,1.626111507,-0.07908916473,0.2107391357,2024-06-05 20:47:55.255977
28.29647708,0.8770263195,1.132779121,0.06226301193,2024-06-05 20:47:55.296477
28.33695719,-0.08828878403,0.220199585,-0.05055677891,2024-06-05 20:47:55.336957
28.37742724,-0.4009978771,0.1655607224,0.1945900917,2024-06-05 20:47:55.377427
28.41795484,-0.5372550488,-0.7711143494,0.719158113,2024-06-05 20:47:55.417955
28.45846875,-1.396688938,0.2634391785,0.344943285,2024-06-05 20:47:55.458469
28.49890146,-0.08603191376,-1.87936306,0.801461339,2024-06-05 20:47:55.498901
28.53934641,0.01850104332,-1.387792587,0.6559952497,2024-06-05 20:47:55.539346
28.57983141,-0.7285094261,-0.2300071716,-0.2676856518,2024-06-05 20:47:55.579831
28.62031136,2.337907076,0.08614730835,0.5831964016,2024-06-05 20:47:55.620311
28.66080422,1.364704609,-0.702296257,-0.2276009321,2024-06-05 20:47:55.660804
28.70128703,-1.147414446,-2.471220016,0.09938776493,2024-06-05 20:47:55.701287
28.74178073,0.3758714199,1.87076807,-0.03344357014,2024-06-05 20:47:55.741781
28.78224307,-0.3439149857,-2.080170631,-0.3016792536,2024-06-05 20:47:55.782243
28.82273365,-0.04380488396,-2.298425674,-0.1894433498,2024-06-05 20:47:55.822734
28.86321839,1.325024486,-2.363641739,1.325129032,2024-06-05 20:47:55.863218
28.90369839,0.7352693081,-0.9218330383,0.851062417,2024-06-05 20:47:55.903698
28.94417537,1.519855142,1.35880661,0.33390522,2024-06-05 20:47:55.944175
28.98465693,0.5865399837,3.528874397,0.2916975021,2024-06-05 20:47:55.984657
29.02513708,1.53587389,2.705690384,0.1484544277,2024-06-05 20:47:56.025137
29.0656338,0.4041733742,0.1949186325,0.02086865902,2024-06-05 20:47:56.065634
29.10607172,0.6182091236,1.273191452,0.6969521046,2024-06-05 20:47:56.106072
29.14655464,0.2110230923,-0.9795560837,0.2512159348,2024-06-05 20:47:56.146555
29.18705646,0.04146003723,-0.222281456,-0.1257793307,2024-06-05 20:47:56.187056
29.22755646,-0.4971923828,0.2156114578,-0.008834779263,2024-06-05 20:47:56.227556
29.26807115,0.2253131866,-0.2964344025,0.2809544802,2024-06-05 20:47:56.268071
29.30853156,0.3416702747,0.6658010483,-0.1655932665,2024-06-05 20:47:56.308532
29.34898917,-0.1076610088,0.5414142609,0.02534806728,2024-06-05 20:47:56.348989
29.38947958,0.1817493439,0.9688148499,-0.01259189844,2024-06-05 20:47:56.389480
29.4299737,0.366317153,-0.8779096603,0.06750190258,2024-06-05 20:47:56.429974
29.47046828,-0.1842253208,-0.63560009,0.1648406982,2024-06-05 20:47:56.470468
29.51094448,0.2971875668,-1.105997086,0.09377068281,2024-06-05 20:47:56.510944
29.55144755,0.1049890518,-0.2118797302,-0.4588087797,2024-06-05 20:47:56.551448
29.59191531,0.1219406128,-0.6218729019,-0.2009579539,2024-06-05 20:47:56.591915
29.6324237,0.1588120461,-0.5838193893,-0.03527599573,2024-06-05 20:47:56.632424
29.67288807,0.9053556919,0.2659168243,0.1114844084,2024-06-05 20:47:56.672888
29.7133438,0.2607611418,0.8071174622,-0.2806791663,2024-06-05 20:47:56.713344
29.75382615,0.840672493,0.4531726837,0.3147382736,2024-06-05 20:47:56.753826
29.79431057,0.4500216246,0.2844610214,0.1097640395,2024-06-05 20:47:56.794311
29.83477974,0.6242964268,0.5618286133,0.1907717586,2024-06-05 20:47:56.834780
29.87526365,-0.6196721792,1.389779091,-0.03458583355,2024-06-05 20:47:56.875264
29.91575287,-0.0986481905,2.134180069,-0.4395486712,2024-06-05 20:47:56.915753
29.95623349,-0.4108183384,0.8523578644,0.2114849687,2024-06-05 20:47:56.956233
29.99675662,-1.537553668,2.583518028,-0.4207646251,2024-06-05 20:47:56.996757
30.03723438,0.3854533434,0.5345373154,0.4125176966,2024-06-05 20:47:57.037234
30.07769474,0.572050333,0.750617981,-0.3093499541,2024-06-05 20:47:57.077695
30.11817125,-0.04588782787,0.01521015167,0.03939878941,2024-06-05 20:47:57.118171
30.1586774,0.5213229656,-0.8707695007,-0.2499008775,2024-06-05 20:47:57.158677
30.1991601,1.590395689,-0.7875270844,0.5569506288,2024-06-05 20:47:57.199160
30.2396238,-1.365233183,-2.833422661,-0.5892156363,2024-06-05 20:47:57.239624
30.2801362,-2.146507025,-1.622244835,-0.6232564449,2024-06-05 20:47:57.280136
30.32060193,-1.710621357,1.148481369,-0.4212255478,2024-06-05 20:47:57.320602
30.36106896,-2.324874878,-4.239112854,-1.119624972,2024-06-05 20:47:57.361069
30.40156995,-0.1133134365,-3.630594254,0.3254005909,2024-06-05 20:47:57.401570
30.44205886,0.7149915695,-1.280471802,0.810944438,2024-06-05 20:47:57.442059
30.48254188,2.749437332,0.33203125,0.08745640516,2024-06-05 20:47:57.482542
30.5229999,2.478060007,2.292377949,0.3547679186,2024-06-05 20:47:57.523000
30.56356813,0.9524402618,2.76217556,0.09357500076,2024-06-05 20:47:57.563568
30.6040024,0.3570718765,-0.01561164856,0.2006207705,2024-06-05 20:47:57.604002
30.64448547,-0.1687960625,-0.06470012665,-0.02713298798,2024-06-05 20:47:57.644485
30.68496854,-2.01808238,0.7898368835,-0.06204414368,2024-06-05 20:47:57.684969
30.72543927,-2.812247753,0.09232234955,0.03018891811,2024-06-05 20:47:57.725439
30.76595662,-3.203631401,-0.7065248489,-0.4599018097,2024-06-05 20:47:57.765957
30.80638682,-0.5158720016,-3.669992447,-0.104472816,2024-06-05 20:47:57.806387
30.8469011,2.351555109,-2.107946396,0.7764956355,2024-06-05 20:47:57.846901
30.88735412,1.988793373,-0.1676192284,1.624488354,2024-06-05 20:47:57.887354
30.92782771,-0.2588005066,0.1104369164,0.02719604969,2024-06-05 20:47:57.927828
30.96833313,0.8713669777,0.05913591385,0.3523829579,2024-06-05 20:47:57.968333
31.00879953,-4.974693775,-1.924452305,-0.8243842125,2024-06-05 20:47:58.008800
31.04933146,-1.787658215,-1.485765457,-1.675451279,2024-06-05 20:47:58.049331
31.0897786,-3.05173111,-3.291889668,-0.7716691494,2024-06-05 20:47:58.089779
31.1302251,-0.8101482391,-4.853226662,0.2381387353,2024-06-05 20:47:58.130225
31.17071943,1.812108994,-1.972648144,-2.17411685,2024-06-05 20:47:58.170719
31.21122844,5.63365221,0.9604952335,-0.9597715139,2024-06-05 20:47:58.211228
31.25172953,6.560099125,1.27850914,-0.2760400772,2024-06-05 20:47:58.251730
31.29228021,8.797568321,2.717575788,-0.2285016328,2024-06-05 20:47:58.292280
31.33276297,9.496948242,2.512858868,-0.1520434022,2024-06-05 20:47:58.332763
31.37312682,7.356417656,2.688283205,0.4611155093,2024-06-05 20:47:58.373127
31.41366641,3.346295834,2.821564674,0.6905885935,2024-06-05 20:47:58.413666
31.45412735,-4.168782711,-1.692840576,1.149653077,2024-06-05 20:47:58.454127
31.49461047,-4.3648839,-6.043024063,0.164516449,2024-06-05 20:47:58.494610
31.53509354,-3.690857887,-2.952298641,0.2320299149,2024-06-05 20:47:58.535094
31.57557625,-5.054858685,-2.426377296,-0.2542684078,2024-06-05 20:47:58.575576
31.6160586,-4.808048725,-1.579266548,-0.1099241972,2024-06-05 20:47:58.616059
31.6565337,-4.455621719,0.7004842758,0.446439743,2024-06-05 20:47:58.656534
31.6970411,-4.150682926,0.3849172592,-0.1846436262,2024-06-05 20:47:58.697041
31.73752188,-5.340349197,-2.827389717,-0.9059734344,2024-06-05 20:47:58.737522
31.77799761,0.2360067368,0.6120138168,0.5494983792,2024-06-05 20:47:58.777998
31.81846854,2.984994411,-0.02927923203,-0.2156894207,2024-06-05 20:47:58.818469
31.85895516,0.0510597229,-2.982936382,-1.217933416,2024-06-05 20:47:58.858955
31.89944037,-4.04666996,-1.611217022,-1.778718352,2024-06-05 20:47:58.899440
31.9399276,-2.83935976,-0.4442000389,-2.361550808,2024-06-05 20:47:58.939928
31.98040964,-2.250573158,-2.970860958,-1.928555489,2024-06-05 20:47:58.980410
32.02088625,1.48141861,-2.60891819,-0.1986956596,2024-06-05 20:47:59.020886
32.06136214,5.34622097,-0.3217594624,-1.904349685,2024-06-05 20:47:59.061362
32.10184776,6.993271828,1.352638245,-1.33310461,2024-06-05 20:47:59.101848
32.14236151,7.696401596,1.908884764,-0.2914782465,2024-06-05 20:47:59.142362
32.1828787,5.187390804,0.8836095333,1.039037347,2024-06-05 20:47:59.182879
32.22331026,5.177593231,1.770029306,1.443513632,2024-06-05 20:47:59.223310
32.26380646,4.950179577,1.745231152,1.010861158,2024-06-05 20:47:59.263806
32.30430578,3.382838249,0.3609166145,0.6313616037,2024-06-05 20:47:59.304306
32.3447563,-0.04704904556,-2.762749672,-0.1003266573,2024-06-05 20:47:59.344756
32.38525266,-2.563103199,-5.298332691,-0.6266816854,2024-06-05 20:47:59.385253
32.42573162,-3.818291187,-2.787143707,-0.06606125832,2024-06-05 20:47:59.425732
32.46619688,-4.999332905,-0.6383333206,-0.6155997515,2024-06-05 20:47:59.466197
32.50671438,-4.60875082,-1.494604111,-0.3758147955,2024-06-05 20:47:59.506714
32.54717677,-4.664718151,-1.031243324,0.3452168703,2024-06-05 20:47:59.547177
32.58766125,-4.681777477,-0.3934497833,-0.2258563042,2024-06-05 20:47:59.587661
32.62815474,-2.965424061,0.2079315186,0.8288316131,2024-06-05 20:47:59.628155
32.66862318,-1.172044754,-0.3152093887,0.2221335173,2024-06-05 20:47:59.668623
32.70911136,-0.07693624496,-0.9853844643,-0.6377446651,2024-06-05 20:47:59.709111
32.7496001,-2.458141804,-2.514118195,-1.548087478,2024-06-05 20:47:59.749600
32.79009802,-2.242681503,-1.850495815,-1.395501137,2024-06-05 20:47:59.790098
32.83057271,-1.110318184,-2.265336514,-3.008767605,2024-06-05 20:47:59.830573
32.87104781,0.1205348969,-3.128503323,-1.11246109,2024-06-05 20:47:59.871048
32.91151,2.830647469,-1.739957809,-1.551777601,2024-06-05 20:47:59.911510
32.9520374,4.165641785,-0.368093729,-1.708553314,2024-06-05 20:47:59.952037
32.99253365,7.306468487,0.5196020603,-1.407978892,2024-06-05 20:47:59.992534
33.0329737,8.196994781,1.072666168,0.8523417115,2024-06-05 20:48:00.032974
33.07346297,7.201926708,3.055470228,2.157524109,2024-06-05 20:48:00.073463
33.11395886,4.975641251,2.813735247,2.188491821,2024-06-05 20:48:00.113959
33.15444292,2.959009171,0.827986002,1.67394495,2024-06-05 20:48:00.154443
33.19492698,0.5962004662,-2.073966026,-0.0196839571,2024-06-05 20:48:00.194927
33.23541104,-2.012437344,-3.917786121,-1.024478555,2024-06-05 20:48:00.235411
33.27585052,-3.647402287,-4.139418125,-1.056046486,2024-06-05 20:48:00.275851
33.31636146,-3.170499802,-0.8763632774,-0.9774434566,2024-06-05 20:48:00.316361
33.35680896,-3.426839352,-1.22039032,-0.9885411263,2024-06-05 20:48:00.356809
33.39729302,-4.506759167,-1.418828964,1.078904629,2024-06-05 20:48:00.397293
33.43784818,-5.176111698,-0.2131490707,0.4876841307,2024-06-05 20:48:00.437848
33.47828047,-4.031136036,-1.006118774,0.3613057137,2024-06-05 20:48:00.478280
33.51876594,-2.691445827,-0.8870954514,0.8282156587,2024-06-05 20:48:00.518766
33.55925547,-0.6812720299,-0.2209157944,-0.906208992,2024-06-05 20:48:00.559255
33.59972755,1.776913166,-0.5539941788,-0.8482893705,2024-06-05 20:48:00.599728
33.64021547,-1.68587923,-1.613282204,-2.183266401,2024-06-05 20:48:00.640215
33.68072281,-2.938360691,-1.815783024,-1.981613636,2024-06-05 20:48:00.680723
33.72117042,-3.623861313,-3.114221573,-1.669941545,2024-06-05 20:48:00.721170
33.76166896,0.535949707,-3.097305775,-0.2453830242,2024-06-05 20:48:00.761669
33.80220261,5.039020538,-1.442996502,-0.450101614,2024-06-05 20:48:00.802203
33.84262516,8.251706123,1.054293871,-0.9548203349,2024-06-05 20:48:00.842625
33.88310099,7.364440918,2.563668728,-0.1309046149,2024-06-05 20:48:00.883101
33.92356052,4.941951752,0.9165399075,1.005799055,2024-06-05 20:48:00.923561
33.9640637,5.678092957,2.28984642,1.845581651,2024-06-05 20:48:00.964064
34.00454641,4.754846096,1.89216423,1.796477795,2024-06-05 20:48:01.004546
34.04502906,1.701953888,-0.1798491478,1.30601418,2024-06-05 20:48:01.045029
34.0855038,-1.195254803,-3.599940777,0.2398581505,2024-06-05 20:48:01.085504
34.12600787,-2.791841984,-3.65063715,-0.2647864819,2024-06-05 20:48:01.126008
34.16648333,-2.506784439,-1.712110996,-0.6886447668,2024-06-05 20:48:01.166483
34.20697682,-4.350563049,-1.905652046,-0.3769028187,2024-06-05 20:48:01.206977
34.24747365,-5.948001862,-1.283052444,-0.8340319395,2024-06-05 20:48:01.247474
34.28796797,-5.064377785,-0.1349105835,0.6174981594,2024-06-05 20:48:01.287968
34.32842162,-4.366508484,-0.9956903458,-0.3957810402,2024-06-05 20:48:01.328422
34.36886427,-1.973029137,-0.8513860703,0.047929883,2024-06-05 20:48:01.368864
34.40939573,-0.758081913,-1.269527435,0.9020164609,2024-06-05 20:48:01.409396
34.44986828,1.872098923,-2.110978127,-1.520127296,2024-06-05 20:48:01.449868
34.49034734,-0.7452735901,-1.14420557,-1.348686099,2024-06-05 20:48:01.490347
34.53082375,-3.334676743,-1.032423019,-1.496799946,2024-06-05 20:48:01.530824
34.57134813,-1.065145016,-1.551825047,-2.664555311,2024-06-05 20:48:01.571348
34.61179396,0.1326799393,-3.129498005,-1.307580471,2024-06-05 20:48:01.611794
34.65227672,1.966572285,-2.083879471,-1.722543955,2024-06-05 20:48:01.652277
34.6928101,4.726493359,-0.03506946564,-1.874390125,2024-06-05 20:48:01.692810
34.73327813,6.892160892,1.683598399,-0.7060179114,2024-06-05 20:48:01.733278
34.77374625,6.687380314,1.333282471,0.4266386628,2024-06-05 20:48:01.773746
34.81421526,6.398151398,1.062315464,1.165877581,2024-06-05 20:48:01.814215
34.85467235,6.450270176,1.662277222,1.452210784,2024-06-05 20:48:01.854672
34.89515516,3.697660446,1.075529337,1.287732482,2024-06-05 20:48:01.895155
34.9356462,0.6940751076,-0.7228989601,1.284455538,2024-06-05 20:48:01.935646
34.97614964,-0.8046507835,-3.095688343,-0.218526125,2024-06-05 20:48:01.976150
35.01664214,-2.816274643,-4.761475563,-0.9631488323,2024-06-05 20:48:02.016642
35.05712542,-4.48422575,-2.804109097,-1.181137443,2024-06-05 20:48:02.057125
35.09758708,-4.603881359,-1.586867332,-0.9199374914,2024-06-05 20:48:02.097587
35.13805589,-4.147752285,-0.1373023987,-0.09453642368,2024-06-05 20:48:02.138056
35.17855833,-3.273530483,0.0189704895,0.3607742786,2024-06-05 20:48:02.178558
35.21906344,-2.969983578,-0.3049850464,-0.1504619122,2024-06-05 20:48:02.219063
35.25953219,-2.093857288,0.12429142,0.5519496202,2024-06-05 20:48:02.259532
35.3000149,-1.568899632,-0.9728069305,-0.07962203026,2024-06-05 20:48:02.300015
35.34049047,-0.2634363174,-0.8756985664,-0.3239250183,2024-06-05 20:48:02.340490
35.38096167,-0.9767389297,-1.042442799,-0.5329738855,2024-06-05 20:48:02.380962
35.42144386,-3.05889082,-2.519564152,-1.832519293,2024-06-05 20:48:02.421444
35.46193016,-0.7002615929,-3.768288612,-2.41600132,2024-06-05 20:48:02.461930
35.50243229,-0.9261398315,-2.671288013,-1.362579107,2024-06-05 20:48:02.502432
35.54295224,2.341415405,-1.753798008,-0.05806303024,2024-06-05 20:48:02.542952
35.58342391,5.685224533,-0.187078476,-2.009371758,2024-06-05 20:48:02.583424
35.62388219,7.219358921,1.576350808,-0.3056009412,2024-06-05 20:48:02.623882
35.66435224,6.261260986,1.760646343,0.4091754854,2024-06-05 20:48:02.664352
35.70483583,5.163798332,1.520491123,1.382123113,2024-06-05 20:48:02.704836
35.74531948,4.76216507,1.563047409,1.723877907,2024-06-05 20:48:02.745319
35.78579974,4.270900249,1.638222218,1.250877142,2024-06-05 20:48:02.785800
35.82628146,1.203458309,-0.5143203735,0.6147440672,2024-06-05 20:48:02.826281
35.86676495,-1.136814594,-4.405973911,0.05353021622,2024-06-05 20:48:02.866765
35.9072451,-2.31308794,-4.118456841,-0.3946450949,2024-06-05 20:48:02.907245
35.94774505,-2.379109859,-2.520069599,-0.02350640297,2024-06-05 20:48:02.947745
35.98822662,-3.263419628,-1.002391815,0.0598115921,2024-06-05 20:48:02.988227
36.02873818,-4.550189495,-0.7043066025,0.1704431772,2024-06-05 20:48:03.028738
36.06919589,-4.770760536,-1.114041328,0.07476127148,2024-06-05 20:48:03.069196
36.10965886,-4.132380009,-0.4070796967,-0.2895934582,2024-06-05 20:48:03.109659
36.15014688,-3.343674183,0.1507644653,0.07149171829,2024-06-05 20:48:03.150147
36.19063261,-2.436884403,-0.1700754166,0.4269748926,2024-06-05 20:48:03.190633
36.23110943,0.181748867,-1.167990208,-0.1989094019,2024-06-05 20:48:03.231109
36.2716061,-0.9552764893,-1.890203476,-0.86003232,2024-06-05 20:48:03.271606
36.31209781,-2.240289211,-1.614813328,-1.224184036,2024-06-05 20:48:03.312098
36.35252537,-1.465855122,-2.055249691,-2.524898291,2024-06-05 20:48:03.352525
36.39306099,-0.5646181107,-2.884573936,-2.548364162,2024-06-05 20:48:03.393061
36.43355391,1.003695011,-1.815521717,-0.584643364,2024-06-05 20:48:03.433554
36.47400854,4.529539108,-1.598608255,-0.2940048575,2024-06-05 20:48:03.474009
36.51448177,5.905603409,0.7952880859,-1.938247681,2024-06-05 20:48:03.514482
36.55496344,6.996747971,2.161456823,-0.1423302591,2024-06-05 20:48:03.554963
36.59543599,5.622758865,1.815371037,0.6401321888,2024-06-05 20:48:03.595436
36.63591813,4.948949814,2.141817093,1.324255824,2024-06-05 20:48:03.635918
36.67646458,4.410380363,1.687596321,0.9234094024,2024-06-05 20:48:03.676465
36.71692214,2.407458305,0.1829271317,0.4244326353,2024-06-05 20:48:03.716922
36.75738427,1.103971004,-2.56469059,-0.1133731604,2024-06-05 20:48:03.757384
36.79786792,-1.358764172,-4.132650375,-0.1029660702,2024-06-05 20:48:03.797868
36.83835828,-2.638471603,-3.043839931,-0.6097229719,2024-06-05 20:48:03.838358
36.87884047,-2.767092228,-1.476325512,0.01868486404,2024-06-05 20:48:03.878840
36.9193263,-4.301627159,-1.15566349,-0.829531908,2024-06-05 20:48:03.919326
36.95985386,-4.451773167,-0.3949918747,0.1169878244,2024-06-05 20:48:03.959854
37.00031542,-4.687726974,-0.9112119675,-0.4901274443,2024-06-05 20:48:04.000315
37.04080886,-4.456634521,-0.7910346985,-0.2015379667,2024-06-05 20:48:04.040809
37.08127287,-2.446297646,-0.2209367752,0.6674618721,2024-06-05 20:48:04.081273
37.12175583,0.2533473969,-0.812543869,0.3232094049,2024-06-05 20:48:04.121756
37.1622675,-0.3906641006,-1.261993885,0.03394687176,2024-06-05 20:48:04.162267
37.20274901,-2.631765842,-2.003938675,-0.431697607,2024-06-05 20:48:04.202749
37.24323193,-0.5891222954,-2.575750828,-1.569651723,2024-06-05 20:48:04.243232
37.28366042,-0.9086360931,-2.621819496,-2.312726498,2024-06-05 20:48:04.283660
37.32416339,-0.4652338028,-2.024816036,-0.1693751216,2024-06-05 20:48:04.324163
37.36461714,3.1391716,-1.408647537,-1.193169832,2024-06-05 20:48:04.364617
37.40509396,5.398679256,0.2257142067,-1.029966116,2024-06-05 20:48:04.405094
37.44557682,6.126925468,2.303210735,-0.1638519168,2024-06-05 20:48:04.445577
37.48605979,4.644151688,0.3772015572,0.3258747756,2024-06-05 20:48:04.486060
37.52658828,5.074165344,1.232836962,1.153768539,2024-06-05 20:48:04.526588
37.56705615,5.671676159,2.269226551,1.156886458,2024-06-05 20:48:04.567056
37.60750214,4.01800108,0.9543049335,1.325995088,2024-06-05 20:48:04.607502
37.64798495,0.8782596588,-0.34223032,0.8064826131,2024-06-05 20:48:04.647985
37.68850677,-1.074579716,-1.542818546,0.6394591331,2024-06-05 20:48:04.688507
37.7289738,-1.382194042,-1.747394562,-0.3604626656,2024-06-05 20:48:04.728974
37.76948307,-2.660668373,-2.625790596,-0.2873333693,2024-06-05 20:48:04.769483
37.80997839,-3.703036308,-3.586101532,-0.3516317606,2024-06-05 20:48:04.809978
37.85042729,-4.60624218,-1.099874496,-0.6040819883,2024-06-05 20:48:04.850427
37.8909101,-3.952560425,-0.164390564,0.7767429352,2024-06-05 20:48:04.890910
37.93137427,-3.807452679,0.4134292603,0.3473955393,2024-06-05 20:48:04.931374
37.97187318,-2.229681492,-0.4633274078,0.0007793903351,2024-06-05 20:48:04.971873
38.01237047,-1.591041565,-0.549405098,0.2610235214,2024-06-05 20:48:05.012370
38.05287328,-0.586827755,-0.1926193237,-0.1325367689,2024-06-05 20:48:05.052873
38.09338802,-1.668631554,-1.117832184,-0.8770157099,2024-06-05 20:48:05.093388
38.13387099,-1.187318802,-1.210093498,-0.6025651693,2024-06-05 20:48:05.133871
38.17428406,-1.02096653,-0.2029585838,-2.027946472,2024-06-05 20:48:05.174284
38.21476703,-2.790048599,-4.437386036,-2.291246891,2024-06-05 20:48:05.214767
38.25521943,1.019051552,-3.918000221,-1.2292943,2024-06-05 20:48:05.255219
38.29572281,2.57063055,-0.6170186996,-0.06076037884,2024-06-05 20:48:05.295723
38.33623776,4.25325346,0.02665090561,-0.1518157125,2024-06-05 20:48:05.336238
38.37670219,6.748135567,0.8479242325,0.3514530659,2024-06-05 20:48:05.376702
38.41719193,6.829039574,2.206189632,0.6793068647,2024-06-05 20:48:05.417192
38.4576862,5.950391769,1.180429935,1.406327248,2024-06-05 20:48:05.457686
38.49815406,3.721053123,1.578147411,1.334272981,2024-06-05 20:48:05.498154
38.53864391,2.612082481,0.7564709187,1.140596747,2024-06-05 20:48:05.538644
38.57914089,0.949347496,-0.5625338554,0.909267664,2024-06-05 20:48:05.579141
38.61959896,0.2365074158,-1.860530376,0.6170115471,2024-06-05 20:48:05.619599
38.66008802,-0.8227181435,-2.443239212,-0.2932775021,2024-06-05 20:48:05.660088
38.70057438,-3.328398228,-3.260982037,-0.3186235428,2024-06-05 20:48:05.700574
38.74106922,-3.865216732,-2.114074707,0.1684579849,2024-06-05 20:48:05.741069
38.78154094,-4.859100819,-1.523475647,0.1061326265,2024-06-05 20:48:05.781541
38.82202313,-3.95761776,-1.266805649,1.414471149,2024-06-05 20:48:05.822023
38.86251979,-4.891561508,-1.175354958,0.3127125502,2024-06-05 20:48:05.862520
38.90300333,-2.969420433,-0.117316246,1.062758207,2024-06-05 20:48:05.903003
38.9434875,-0.7945303917,-0.3714008331,0.9817141891,2024-06-05 20:48:05.943488
38.98397073,0.5390853882,-1.85145998,-0.1171429157,2024-06-05 20:48:05.983971
39.0244538,-0.9330101013,-1.265486717,-0.2965587378,2024-06-05 20:48:06.024454
39.06492031,-2.580017567,-1.682057381,-0.2865401506,2024-06-05 20:48:06.064920
39.10537021,-2.374547958,-2.667852402,-2.020940542,2024-06-05 20:48:06.105370
39.14587589,-0.6264438629,-2.38242054,-1.289535165,2024-06-05 20:48:06.145876
39.18636162,2.316669464,-1.697972775,-0.2358385324,2024-06-05 20:48:06.186362
39.22684344,3.298933506,-0.687980175,-1.541634202,2024-06-05 20:48:06.226843
39.26735969,4.032091618,0.1804246902,-1.563140154,2024-06-05 20:48:06.267360
39.30782422,5.322718143,1.938894153,-0.8114585876,2024-06-05 20:48:06.307824
39.3482713,4.759299278,0.5671262741,0.2512330711,2024-06-05 20:48:06.348271
39.38876823,6.036472797,1.804862618,0.7495524883,2024-06-05 20:48:06.388768
39.4292624,6.23902607,2.300068378,1.405646563,2024-06-05 20:48:06.429262
39.46975401,3.073126793,0.761551857,1.169780374,2024-06-05 20:48:06.469754
39.51023266,0.3200440407,-0.9257998466,0.7001171112,2024-06-05 20:48:06.510233
39.55074271,-1.170721531,-2.573557854,0.2082622051,2024-06-05 20:48:06.550743
39.59120458,-2.10368681,-2.589567661,-0.1318547726,2024-06-05 20:48:06.591205
39.63169172,-2.296146393,-1.972509384,-0.4948475361,2024-06-05 20:48:06.631692
39.672195,-3.558912277,-2.682268143,-0.3541322947,2024-06-05 20:48:06.672195
39.71269865,-4.581000328,-3.409391403,-0.8602751493,2024-06-05 20:48:06.712699
39.75315729,-3.549351692,-0.008934020996,0.3088905811,2024-06-05 20:48:06.753157
39.79361099,-3.90891695,-0.1297340393,-0.09213614464,2024-06-05 20:48:06.793611
39.8340876,-2.122321129,-0.3366212845,0.6700050831,2024-06-05 20:48:06.834088
39.87457037,-1.715991497,-0.266330719,0.2422409058,2024-06-05 20:48:06.874570
39.91505896,-1.512144566,-3.821983814,-0.1625013351,2024-06-05 20:48:06.915059
39.95552943,-2.010873318,-4.411741734,-0.6185287237,2024-06-05 20:48:06.955529
39.99603766,-1.728791237,-4.047069073,-1.212575078,2024-06-05 20:48:06.996038
40.03650073,-0.6556067467,-3.558728218,-1.105064631,2024-06-05 20:48:07.036501
40.07699688,1.664714813,-2.38193512,-0.4984925985,2024-06-05 20:48:07.076997
40.11744354,3.994463921,-1.036207676,0.6825408936,2024-06-05 20:48:07.117444
40.15792578,3.42794466,0.3736083508,-1.060043573,2024-06-05 20:48:07.157926
40.19843432,4.596541882,0.2735295296,-0.552952528,2024-06-05 20:48:07.198434
40.23893542,5.864984035,1.434781551,-0.2427703738,2024-06-05 20:48:07.238935
40.2794212,3.75870657,0.9367949963,0.6301473975,2024-06-05 20:48:07.279421
40.3199061,2.968901634,0.1871271133,0.09471172094,2024-06-05 20:48:07.319906
40.36038787,5.822452545,2.336205482,1.350246906,2024-06-05 20:48:07.360388
40.40085214,7.651752949,3.382913589,0.7193956375,2024-06-05 20:48:07.400852
40.44132974,4.508734226,2.660695076,0.7382665873,2024-06-05 20:48:07.441330
40.4818062,1.19146204,0.4608530998,0.5753839016,2024-06-05 20:48:07.481806
40.5223125,-2.03590107,-1.73453331,0.3248957396,2024-06-05 20:48:07.522312
40.56278479,-2.890733719,-1.923594475,-0.08078420162,2024-06-05 20:48:07.562785
40.60322568,-1.484371185,-1.558998585,0.01193082333,2024-06-05 20:48:07.603226
40.64372537,-2.550046444,-1.036269188,0.2876586914,2024-06-05 20:48:07.643725
40.68423089,-3.021244526,-0.6981801987,-0.1222524643,2024-06-05 20:48:07.684231
40.72470974,-3.516436338,-0.455163002,0.02726244926,2024-06-05 20:48:07.724710
40.76519412,-5.100017071,-2.673913002,-0.8533502817,2024-06-05 20:48:07.765194
40.80569755,-4.070697784,-2.219735146,-0.2868543863,2024-06-05 20:48:07.805698
40.84616292,-2.562326908,0.5881605148,0.9207338095,2024-06-05 20:48:07.846163
40.88666969,-0.5575180054,0.3674411774,0.5136885643,2024-06-05 20:48:07.886670
40.92713537,-0.2442998886,-0.7358283997,0.3829140663,2024-06-05 20:48:07.927135
40.96758823,-2.483932495,-2.257465363,-1.060134053,2024-06-05 20:48:07.967588
41.00806448,-3.33509779,-2.819460392,-1.141939998,2024-06-05 20:48:08.008064
41.04856641,-3.188376904,-3.480829239,-1.846994519,2024-06-05 20:48:08.048566
41.08906234,-0.6242361069,-3.612164021,-0.5153772831,2024-06-05 20:48:08.089062
41.1295337,2.382297993,-2.565378189,-0.4063801765,2024-06-05 20:48:08.129534
41.1700237,3.605187893,-0.565779686,-0.4339926839,2024-06-05 20:48:08.170024
41.21050781,4.694758892,0.1899690628,0.2407986224,2024-06-05 20:48:08.210508
41.2510163,6.341332436,1.021969318,-0.5251531601,2024-06-05 20:48:08.251016
41.29147656,4.991053104,1.795267582,0.7290557027,2024-06-05 20:48:08.291477
41.33196412,5.194202423,2.154322624,1.236103535,2024-06-05 20:48:08.331964
41.37244693,3.539228439,2.039946079,1.387450933,2024-06-05 20:48:08.372447
41.41289948,1.584911346,0.4660701752,0.6673906446,2024-06-05 20:48:08.412899
41.45341516,1.141758442,-0.7413568497,0.6823007464,2024-06-05 20:48:08.453415
41.49390677,0.4147233963,-1.092786312,0.464531064,2024-06-05 20:48:08.493907
41.53440005,-1.238541603,-1.205136776,0.5569337606,2024-06-05 20:48:08.534400
41.57485886,-2.603561401,-2.392105103,-0.3763790131,2024-06-05 20:48:08.574859
41.61530469,-3.807612896,-1.92937088,-0.564022541,2024-06-05 20:48:08.615305
41.65583766,-3.937395096,-1.119626045,-0.5733482838,2024-06-05 20:48:08.655838
41.69631974,-3.559588909,-0.7071256638,0.4433364868,2024-06-05 20:48:08.696320
41.73679365,-3.284667492,-1.789961815,-0.2820670605,2024-06-05 20:48:08.736794
41.77727688,-2.466516495,-0.2891607285,0.5351065397,2024-06-05 20:48:08.777277
41.81772656,-1.890710354,0.07713985443,0.6678826809,2024-06-05 20:48:08.817727
41.85820979,-0.191245079,-0.6337747574,0.5352067947,2024-06-05 20:48:08.858210
41.89869302,-0.6493506432,-0.6559376717,-0.1252189875,2024-06-05 20:48:08.898693
41.93918016,-1.787733078,-1.886192322,-0.4753358364,2024-06-05 20:48:08.939180
41.97971656,-1.505683899,-1.472617149,-1.834266424,2024-06-05 20:48:08.979717
42.02016932,-1.746149063,-2.224313259,-1.410331726,2024-06-05 20:48:09.020169
42.06064651,-1.186358452,-2.683876038,-1.549621344,2024-06-05 20:48:09.060647
42.10116839,0.7310962677,-1.355546951,-0.3012479544,2024-06-05 20:48:09.101168
42.14161792,3.484541416,-1.220541,-1.427071691,2024-06-05 20:48:09.141618
42.18208156,6.80381155,0.4931008816,-0.4833453894,2024-06-05 20:48:09.182082
42.22256969,5.412667274,3.044258118,-0.3639047444,2024-06-05 20:48:09.222570
42.26309448,4.183011055,0.2424368858,0.2579348087,2024-06-05 20:48:09.263094
42.3035649,4.156637192,1.32653594,0.5936709642,2024-06-05 20:48:09.303565
42.34407068,4.215881348,1.93863678,0.6610148549,2024-06-05 20:48:09.344071
42.38450438,4.508787155,0.7667489052,1.160485148,2024-06-05 20:48:09.384504
42.4249886,1.319351196,-0.7175908089,0.9319139719,2024-06-05 20:48:09.424989
42.46550844,-0.9454712868,-1.838180542,0.9267890453,2024-06-05 20:48:09.465508
42.50596828,-1.991787434,-2.235360622,0.6518278122,2024-06-05 20:48:09.505968
42.54648375,-2.762012959,-3.102276325,-0.1122199297,2024-06-05 20:48:09.546484
42.586925,-2.942354202,-2.50673008,-0.2291146517,2024-06-05 20:48:09.586925
42.62737797,-4.411094189,-1.407119751,-0.09857022762,2024-06-05 20:48:09.627378
42.66787776,-3.506947517,-0.458770752,0.9313728809,2024-06-05 20:48:09.667878
42.7083713,-3.264699459,-0.9141988754,0.7839081287,2024-06-05 20:48:09.708371
42.74885479,-2.246311665,-0.6352825165,0.1195476055,2024-06-05 20:48:09.748855
42.78935688,-1.295768261,0.004271507263,0.8937003613,2024-06-05 20:48:09.789357
42.82985766,-0.4040174484,-0.5820331573,0.5640109181,2024-06-05 20:48:09.829858
42.87032432,-1.278038502,-0.2323031425,-0.261903286,2024-06-05 20:48:09.870324
42.91079162,-2.220800877,-0.7619829178,-1.559031129,2024-06-05 20:48:09.910792
42.95127208,-2.604674339,-0.9170823097,-1.384438992,2024-06-05 20:48:09.951272
42.99176688,-0.7266044617,-1.307798386,-1.875230193,2024-06-05 20:48:09.991767
43.03226021,-1.059376717,-2.55420208,-1.677440882,2024-06-05 20:48:10.032260
43.07272177,-0.7970991135,-1.846582413,-0.8227550983,2024-06-05 20:48:10.072722
43.11320604,2.434414387,-1.650952816,-1.312545061,2024-06-05 20:48:10.113206
43.15368969,4.940691948,-0.514768362,-1.394883752,2024-06-05 20:48:10.153690
43.19417104,6.164488792,1.473447084,-1.711179376,2024-06-05 20:48:10.194171
43.23464974,5.403698921,1.747508526,0.6245610118,2024-06-05 20:48:10.234650
43.27514443,3.776210785,0.5579333305,0.7153110504,2024-06-05 20:48:10.275144
43.31563386,4.481669426,1.043956518,0.3424550593,2024-06-05 20:48:10.315634
43.35609625,3.82153511,1.12267518,0.6026930809,2024-06-05 20:48:10.356096
43.39658292,2.761532784,0.9504737854,-0.07707118988,2024-06-05 20:48:10.396583
43.43707391,-0.356274128,-0.5066156387,0.5762599707,2024-06-05 20:48:10.437074
43.47752958,-2.289978504,-1.900943279,-0.08395564556,2024-06-05 20:48:10.477530
43.51800526,-0.8196797371,-1.311903954,-0.00031208992,2024-06-05 20:48:10.518005
43.55850406,-2.714408398,-1.560181618,-0.3427006006,2024-06-05 20:48:10.558504
43.59898474,-4.780448914,-1.890463829,-0.2333208323,2024-06-05 20:48:10.598985
43.63947307,-5.103404045,-2.489721298,-0.3016742468,2024-06-05 20:48:10.639473
43.67996193,-3.721221924,-0.09728622437,0.6861713529,2024-06-05 20:48:10.679962
43.72045802,-0.7388510704,0.1741428375,0.6799109578,2024-06-05 20:48:10.720458
43.76092578,-0.3493943214,0.1120882034,0.298783958,2024-06-05 20:48:10.760926
43.801405,-0.1596136093,-0.2134027481,0.6742424965,2024-06-05 20:48:10.801405
43.84190922,-0.5755119324,-1.37601757,-0.8828008771,2024-06-05 20:48:10.841909
43.88237688,-1.815416813,-0.7173790932,-0.614458859,2024-06-05 20:48:10.882377
43.92285672,-3.245326042,-0.7512083054,-1.192690611,2024-06-05 20:48:10.922857
43.96333823,-3.001741409,-2.432846546,-1.512734413,2024-06-05 20:48:10.963338
44.00383677,-0.7007641792,-4.008590221,-1.274914622,2024-06-05 20:48:11.003837
44.04430932,0.7976608276,-1.488870144,-1.388507009,2024-06-05 20:48:11.044309
44.08479313,1.969807625,-0.229654789,-1.353774428,2024-06-05 20:48:11.084793
44.12528688,3.921696663,-0.3580884933,-1.986485004,2024-06-05 20:48:11.125287
44.16575401,5.875703812,0.5268642902,-2.280953169,2024-06-05 20:48:11.165754
44.20625,7.101125717,2.337878704,0.03133545071,2024-06-05 20:48:11.206250
44.24673162,4.56189537,0.4227931499,0.3568659723,2024-06-05 20:48:11.246732
44.28720464,2.466270447,0.6796886921,1.29996264,2024-06-05 20:48:11.287205
44.32767964,2.366646767,1.025574446,1.328485489,2024-06-05 20:48:11.327680
44.36819526,2.034340382,1.17078948,1.010239124,2024-06-05 20:48:11.368195
44.40865542,0.7459950447,-0.4372243881,1.123127818,2024-06-05 20:48:11.408655
44.44914078,-0.1840362549,-1.216454983,0.5476630926,2024-06-05 20:48:11.449141
44.48966662,-1.558223724,-0.6500239372,0.02325606346,2024-06-05 20:48:11.489667
44.53009391,-3.23316288,-1.733559132,-0.09842944145,2024-06-05 20:48:11.530094
44.57061031,-2.816686153,-2.690126419,-0.6619768143,2024-06-05 20:48:11.570610
44.61103011,-3.605596542,-1.798016548,-0.2160364389,2024-06-05 20:48:11.611030
44.65156797,-3.107963562,-0.6277399063,-0.1651669741,2024-06-05 20:48:11.651568
44.69202511,-2.895567894,-0.866973877,-0.6157290936,2024-06-05 20:48:11.692025
44.73251453,-2.175153732,-0.4517936707,-0.2331594229,2024-06-05 20:48:11.732515
44.77302526,-0.4570665359,0.2508907318,0.5063964128,2024-06-05 20:48:11.773025
44.81350453,-1.158352375,0.3483829498,-0.4488862753,2024-06-05 20:48:11.813505
44.85398182,-1.236990929,0.1106572151,-1.206158042,2024-06-05 20:48:11.853982
44.89448099,-1.758695602,-1.489647865,-1.608747005,2024-06-05 20:48:11.894481
44.93495589,-1.994980812,-1.243640423,-2.217496157,2024-06-05 20:48:11.934956
44.97545734,-3.690820217,-2.240295887,-1.774801493,2024-06-05 20:48:11.975457
45.01592,-2.612755775,-2.989601135,-1.587365627,2024-06-05 20:48:12.015920
45.05640568,3.507632256,-2.370599747,-0.5587153435,2024-06-05 20:48:12.056406
45.09686969,5.95916605,0.1632781029,-1.463795185,2024-06-05 20:48:12.096870
45.13733214,5.393232346,-0.01947522163,-0.5698862672,2024-06-05 20:48:12.137332
45.17781214,5.050327301,0.7751631737,-0.8802415729,2024-06-05 20:48:12.177812
45.21829537,5.055449963,1.291239262,0.4081146121,2024-06-05 20:48:12.218295
45.25878677,4.598227024,1.527853966,1.252133846,2024-06-05 20:48:12.258787
45.29929016,5.338443279,1.581581831,1.385538936,2024-06-05 20:48:12.299290
45.33974932,2.77712059,1.007809639,0.361484468,2024-06-05 20:48:12.339749
45.38027771,-0.2933964729,-1.159723759,0.7379772663,2024-06-05 20:48:12.380278
45.42074136,-1.821024895,-2.138400555,0.7132934332,2024-06-05 20:48:12.420741
45.46121234,-1.954223156,-1.707832813,1.048613667,2024-06-05 20:48:12.461212
45.50169297,-2.136285782,-1.984294891,0.7282397747,2024-06-05 20:48:12.501693
45.54217328,-3.665181637,-2.282091141,0.1966477633,2024-06-05 20:48:12.542173
45.5826649,-3.755545139,-1.315135002,-0.1828535795,2024-06-05 20:48:12.582665
45.62311365,-4.304865837,-1.031755447,0.206764698,2024-06-05 20:48:12.623114
45.66364365,-3.049231052,-1.025137901,0.04810357094,2024-06-05 20:48:12.663644
45.70411052,-1.303259373,-0.540345192,0.130656004,2024-06-05 20:48:12.704111
45.74458802,-0.6762046814,-0.326965332,0.8234919906,2024-06-05 20:48:12.744588
45.78508531,-0.5003705025,-0.6043491364,0.1261091232,2024-06-05 20:48:12.785085
45.8255588,-1.220461845,-0.7379975319,-0.02894735336,2024-06-05 20:48:12.825559
45.86604766,-1.856854439,-0.8264346123,-0.8968740702,2024-06-05 20:48:12.866048
45.9065575,-2.10829258,-1.118844986,-1.140103102,2024-06-05 20:48:12.906557
45.94700891,-2.323317051,-2.818833351,-1.744240165,2024-06-05 20:48:12.947009
45.98744802,-0.4561262131,-2.759021282,-0.5944858789,2024-06-05 20:48:12.987448
46.02793078,1.298945427,-1.215184689,-0.9943931103,2024-06-05 20:48:13.027931
46.06845333,2.919332981,-0.7462697029,-2.089495182,2024-06-05 20:48:13.068453
46.10894917,5.584012032,-0.1016438007,-0.5828062892,2024-06-05 20:48:13.108949
46.14944156,7.368787289,1.574282408,0.310744971,2024-06-05 20:48:13.149442
46.1899263,5.374838829,0.9129920006,1.041878223,2024-06-05 20:48:13.189926
46.23041537,4.327822208,1.301128149,1.975833893,2024-06-05 20:48:13.230415
46.27090287,3.519214153,1.672096252,1.751882792,2024-06-05 20:48:13.270903
46.31136099,1.991557121,0.6507205963,1.22368753,2024-06-05 20:48:13.311361
46.35185906,-0.1846671104,-1.377788544,0.90663445,2024-06-05 20:48:13.351859
46.39234776,-1.325885296,-1.486058235,0.8850742579,2024-06-05 20:48:13.392348
46.4328075,-1.162536621,-0.7026081085,0.6157484055,2024-06-05 20:48:13.432808
46.47330714,-1.526019096,-1.85100174,0.008326411247,2024-06-05 20:48:13.473307
46.51379964,-3.221142292,-2.877928734,-0.2962734699,2024-06-05 20:48:13.513800
46.55427724,-4.688946247,-1.328336716,-0.2181975842,2024-06-05 20:48:13.554277
46.59471266,-3.932706356,-0.2272348404,-0.1226191521,2024-06-05 20:48:13.594713
46.63517964,-2.804970741,-0.4119920731,-0.4225780964,2024-06-05 20:48:13.635180
46.6756824,-1.187153339,-0.4569253922,0.0446048975,2024-06-05 20:48:13.675682
46.71618354,-0.6131277084,0.08368778229,0.7328499556,2024-06-05 20:48:13.716184
46.75666292,-1.08488369,-0.082654953,-0.2183289528,2024-06-05 20:48:13.756663
46.79716016,-2.059464931,-0.3925647736,-0.8396263123,2024-06-05 20:48:13.797160
46.83768781,-2.842628002,-0.8536448479,-1.492952585,2024-06-05 20:48:13.837688
46.87814214,-1.90110445,-1.091128826,-1.426337242,2024-06-05 20:48:13.878142
46.91859354,-0.06017923355,-2.520014763,-2.24465394,2024-06-05 20:48:13.918594
46.95907547,-0.2631807327,-2.013587475,-1.185559034,2024-06-05 20:48:13.959075
46.99955651,0.9969625473,-1.479547501,-0.70628649,2024-06-05 20:48:13.999557
47.04004422,4.035188198,-1.132664204,-2.352972984,2024-06-05 20:48:14.040044
47.08052802,5.612280846,1.069063663,-0.6162387133,2024-06-05 20:48:14.080528
47.12101521,6.444915771,1.326766253,0.08991920948,2024-06-05 20:48:14.121015
47.16150229,3.579399109,0.07542943954,1.785331845,2024-06-05 20:48:14.161502
47.20198807,5.188673019,1.333384275,1.800379515,2024-06-05 20:48:14.201988
47.24246177,4.820190907,1.924266338,1.524228811,2024-06-05 20:48:14.242462
47.28293349,3.274904251,1.310904741,0.9714493155,2024-06-05 20:48:14.282933
47.32342745,-0.5314693451,-0.8481740952,1.31105876,2024-06-05 20:48:14.323427
47.36391729,-1.905073166,-2.699352741,0.8497321606,2024-06-05 20:48:14.363917
47.40439354,-3.460543156,-3.643312931,0.5848093033,2024-06-05 20:48:14.404394
47.44488073,-4.473359585,-1.956127167,-0.2800600529,2024-06-05 20:48:14.444881
47.48535333,-4.868308067,-1.221150398,-0.3775968552,2024-06-05 20:48:14.485353
47.52583943,-4.703315735,-1.408329964,-0.3350131512,2024-06-05 20:48:14.525839
47.56631193,-4.373080254,-0.09985256195,0.4326868057,2024-06-05 20:48:14.566312
47.60675995,-1.636052132,-0.7497844696,0.4430874586,2024-06-05 20:48:14.606760
47.64727208,-0.1808438301,-1.323419571,0.60120821,2024-06-05 20:48:14.647272
47.68776958,-0.7097320557,-1.628202438,0.9063580632,2024-06-05 20:48:14.687770
47.72824917,-0.9602942467,-0.8486180305,-0.3094334602,2024-06-05 20:48:14.728249
47.76871636,-1.000737667,-1.060139179,-0.8732303381,2024-06-05 20:48:14.768716
47.80921646,-0.4242043495,-0.1408953667,-0.9579806328,2024-06-05 20:48:14.809216
47.84972625,-0.6819143295,-1.896438599,-1.868381858,2024-06-05 20:48:14.849726
47.89019557,-1.919552803,-2.256548882,-1.501012683,2024-06-05 20:48:14.890196
47.9306661,-1.339491844,-1.27712059,-1.384907007,2024-06-05 20:48:14.930666
47.97116083,2.795987129,-1.277998447,-0.8775650859,2024-06-05 20:48:14.971161
48.01166406,6.447605133,-0.1753861904,-1.720371485,2024-06-05 20:48:15.011664
48.05211615,6.650458336,2.205020905,-0.2789251804,2024-06-05 20:48:15.052116
48.09262037,5.125456333,0.6489973068,0.9759998322,2024-06-05 20:48:15.092620
48.13309854,5.38416481,1.411557436,0.8610067964,2024-06-05 20:48:15.133099
48.17356958,4.734224796,1.819976568,1.13460505,2024-06-05 20:48:15.173570
48.21403313,2.356144428,0.441300869,0.9868304729,2024-06-05 20:48:15.214033
48.25454578,-0.01278495789,-1.561590672,0.8000509739,2024-06-05 20:48:15.254546
48.29505271,-0.3446865082,-1.531562328,0.414983511,2024-06-05 20:48:15.295053
48.33551068,-1.780669212,-1.483387947,0.1943510771,2024-06-05 20:48:15.335511
48.37596589,-3.706951141,-3.444074154,-0.8329468966,2024-06-05 20:48:15.375966
48.41645537,-2.939553261,-0.9842834473,-0.5809471607,2024-06-05 20:48:15.416455
48.45694031,-4.054584026,-0.2735700607,-0.9728513956,2024-06-05 20:48:15.456940
48.49738708,-4.006344795,-1.00849247,-0.3904256821,2024-06-05 20:48:15.497387
48.53792042,-3.447719574,-0.7463245392,-0.6835079193,2024-06-05 20:48:15.537920
48.57841839,-2.288781166,-0.02055358887,0.3476680517,2024-06-05 20:48:15.578418
48.61887875,-1.65538168,0.07370567322,0.0870474577,2024-06-05 20:48:15.618879
48.65938177,-0.2202510834,0.07828330994,-0.684727788,2024-06-05 20:48:15.659382
48.69985339,-1.36067009,-1.778652668,-0.6814754009,2024-06-05 20:48:15.699853
48.74033651,-2.131940365,-2.579552174,-1.089495778,2024-06-05 20:48:15.740337
48.78083573,0.05420446396,-2.41626358,-1.854953051,2024-06-05 20:48:15.780836
48.8212688,-0.3600115776,-2.772165775,-1.78098321,2024-06-05 20:48:15.821269
48.86180042,0.7759337425,-1.789514065,0.5198495984,2024-06-05 20:48:15.861800
48.90226146,2.552428722,-1.555339813,-1.010700345,2024-06-05 20:48:15.902261
48.94272823,4.079623222,-0.5083086491,-1.326019883,2024-06-05 20:48:15.942728
48.98321443,6.879173279,1.54027915,-0.3411149383,2024-06-05 20:48:15.983214
49.02369526,5.748907089,2.602991581,0.2665405869,2024-06-05 20:48:16.023695
49.06418349,4.306667328,0.6895077229,1.001853466,2024-06-05 20:48:16.064183
49.10465771,4.172187805,1.783093929,1.599526167,2024-06-05 20:48:16.104658
49.1451688,3.560412884,1.188287258,1.787776232,2024-06-05 20:48:16.145169
49.18563115,1.643440247,-1.015163422,1.161370039,2024-06-05 20:48:16.185631
49.22611333,-0.9186358452,-2.205255985,0.8725690842,2024-06-05 20:48:16.226113
49.26661594,-2.315330505,-2.029750347,0.9173461199,2024-06-05 20:48:16.266616
49.30711229,-2.04569149,-2.468674183,0.2001599073,2024-06-05 20:48:16.307112
49.34753042,-2.520183563,-1.799345493,0.1852991581,2024-06-05 20:48:16.347530
49.38804198,-3.832695484,-1.488240242,-0.344548583,2024-06-05 20:48:16.388042
49.42853266,-3.885607243,-0.8937044144,0.5412815809,2024-06-05 20:48:16.428533
49.46903547,-3.809175014,-0.7714738846,-0.04480230808,2024-06-05 20:48:16.469035
49.50951469,-3.096597195,-0.5283250809,0.2999187708,2024-06-05 20:48:16.509515
49.54999182,-3.062260151,-0.680141449,1.089186907,2024-06-05 20:48:16.549992
49.59045162,-1.405042171,-0.9770069122,0.3285955191,2024-06-05 20:48:16.590452
49.63091177,-0.1668815613,-1.527669907,-0.4480292797,2024-06-05 20:48:16.630912
49.67141214,0.9313297272,-1.143396378,-1.121406078,2024-06-05 20:48:16.671412
49.71190688,-0.5645303726,-0.1620111465,-1.31730032,2024-06-05 20:48:16.711907
49.7524063,-3.741484642,-2.757675648,-1.993584752,2024-06-05 20:48:16.752406
49.79289406,-1.183970451,-0.8718795776,-1.738524914,2024-06-05 20:48:16.792894
49.83336833,0.2478885651,-1.804110527,-1.293437958,2024-06-05 20:48:16.833368
49.87386667,4.781242371,-2.52198267,-0.2571762204,2024-06-05 20:48:16.873867
49.91433604,6.7047925,1.021098375,-1.108605504,2024-06-05 20:48:16.914336
49.95479974,6.289229393,2.07283783,-0.5190451145,2024-06-05 20:48:16.954800
49.99528792,5.233666897,1.386909008,0.6320149899,2024-06-05 20:48:16.995288
50.03578688,4.746677399,1.911361694,1.106834531,2024-06-05 20:48:17.035787
50.07626656,3.821940422,1.384873867,1.01186657,2024-06-05 20:48:17.076267
50.11675719,2.263162613,0.5707192421,0.3168361783,2024-06-05 20:48:17.116757
50.15723985,0.3636517525,-1.291248798,0.5884298086,2024-06-05 20:48:17.157240
50.1977225,-0.9966673851,-2.924309731,0.2566686869,2024-06-05 20:48:17.197722
50.23819167,-2.216603279,-3.067052841,0.1590744257,2024-06-05 20:48:17.238192
50.27865479,-2.338576794,-2.976308346,-0.05289721489,2024-06-05 20:48:17.278655
50.31915906,-3.455420494,-1.694851875,-0.4733412266,2024-06-05 20:48:17.319159
50.35965401,-3.800481319,-0.4109325409,0.1847342253,2024-06-05 20:48:17.359654
50.40012563,-4.158955097,-1.068325043,-0.7775150537,2024-06-05 20:48:17.400126
50.44060099,-3.444769859,-0.1817426682,-0.02123725414,2024-06-05 20:48:17.440601
50.48107297,-2.544355869,0.9295883179,0.02503418922,2024-06-05 20:48:17.481073
50.52155214,-1.557743073,-0.03000640869,0.4616414309,2024-06-05 20:48:17.521552
50.5620524,0.8977789879,-2.149899006,-0.4207286835,2024-06-05 20:48:17.562052
50.60249391,-1.452644348,-1.704482555,-0.5340381861,2024-06-05 20:48:17.602494
50.64298672,-2.566706657,-2.316409111,-0.6616300344,2024-06-05 20:48:17.642987
50.68348245,-1.698971272,-2.498582363,-1.657620788,2024-06-05 20:48:17.683482
50.72397167,0.01468753815,-2.848478794,-1.439037681,2024-06-05 20:48:17.723972
50.76447219,0.7570929527,-2.189760685,-0.9722886682,2024-06-05 20:48:17.764472
50.80494875,4.057713509,-0.3831110001,-0.8173217773,2024-06-05 20:48:17.804949
50.84543401,6.399676323,0.9401066303,-1.293539405,2024-06-05 20:48:17.845434
50.88591896,5.720514297,2.069719315,-0.2728255689,2024-06-05 20:48:17.885919
50.92639688,3.317679405,-0.1509697437,0.08317190409,2024-06-05 20:48:17.926397
50.96689568,4.618933201,1.393675566,1.195708513,2024-06-05 20:48:17.966896
51.00736755,5.506206036,2.256588936,1.224847317,2024-06-05 20:48:18.007368
51.0478276,4.043056488,1.863706589,1.173838973,2024-06-05 20:48:18.047828
51.0883361,0.6351099014,-0.2720355988,0.3571214676,2024-06-05 20:48:18.088336
51.1287937,-1.07864809,-2.572597027,0.8904893398,2024-06-05 20:48:18.128794
51.16926432,-2.257972717,-3.153556824,-0.4039931297,2024-06-05 20:48:18.169264
51.20977307,-3.164706707,-3.934396744,-0.3092398643,2024-06-05 20:48:18.209773
51.25028516,-3.270776749,-0.8010597229,-0.1067217588,2024-06-05 20:48:18.250285
51.29073594,-4.29170084,-0.3169546127,-0.4831960201,2024-06-05 20:48:18.290736
51.33122422,-3.298229218,0.4612512589,0.3639458418,2024-06-05 20:48:18.331224
51.37171839,-2.757265568,-0.1135854721,0.1341613531,2024-06-05 20:48:18.371718
51.41218448,-2.453043461,-0.6642818451,-0.1110651493,2024-06-05 20:48:18.412184
51.45268615,-1.013834,-1.039595604,0.3195728064,2024-06-05 20:48:18.452686
51.49315391,-1.08873415,-2.121268272,-0.008434176445,2024-06-05 20:48:18.493154
51.53366214,0.4108567238,-1.833297729,-1.015917182,2024-06-05 20:48:18.533662
51.5741136,-2.411201477,-0.9537835121,-0.5200464725,2024-06-05 20:48:18.574114
51.61458386,-1.281490803,-0.7799816132,-1.124676943,2024-06-05 20:48:18.614584
51.65509505,-0.6943917274,-1.658561707,-1.366106987,2024-06-05 20:48:18.655095
51.695615,-0.6101026535,-2.929906845,-1.079716325,2024-06-05 20:48:18.695615
51.73603214,0.5626087189,-1.830893993,-0.4258816242,2024-06-05 20:48:18.736032
51.77654485,4.600203037,-0.7261242867,-0.5842119455,2024-06-05 20:48:18.776545
51.81703964,7.180659771,0.3434698582,0.4569314718,2024-06-05 20:48:18.817040
51.85748234,4.918483734,1.606674433,-1.147521377,2024-06-05 20:48:18.857482
51.89796969,4.586835384,1.894474387,0.6870293617,2024-06-05 20:48:18.897970
51.9384412,4.628678799,2.128954887,0.7974601388,2024-06-05 20:48:18.938441
51.97895422,3.870366573,1.251783133,0.783882618,2024-06-05 20:48:18.978954
52.01946037,4.542115211,0.9689030647,0.4358582497,2024-06-05 20:48:19.019460
52.05990953,-0.3089404106,-0.8786249161,0.818446219,2024-06-05 20:48:19.059910
52.10043,-2.221824646,-3.727476597,0.3810397387,2024-06-05 20:48:19.100430
52.14088552,-3.030683994,-4.182492733,0.30232656,2024-06-05 20:48:19.140886
52.18134292,-3.60251236,-2.558227062,0.04872655869,2024-06-05 20:48:19.181343
52.22187281,-3.70553112,-1.941131592,-0.2142193317,2024-06-05 20:48:19.221873
52.26232412,-3.313439369,-0.3096551895,0.7998609543,2024-06-05 20:48:19.262324
52.30280443,-3.443119049,-0.57538414,-0.2698024511,2024-06-05 20:48:19.302804
52.34329802,-3.274463177,-0.5550107956,0.3820507526,2024-06-05 20:48:19.343298
52.38376266,-2.696062565,0.6082253456,0.5757626295,2024-06-05 20:48:19.383763
52.42425724,-1.495737553,-0.4192895889,0.4157450199,2024-06-05 20:48:19.424257
52.46475458,-1.42935133,-2.237944603,-2.135480642,2024-06-05 20:48:19.464755
52.50523172,-1.79181385,-0.9900007248,-0.7640954256,2024-06-05 20:48:19.505232
52.54570901,0.8076677322,1.349096298,-1.962630391,2024-06-05 20:48:19.545709
52.58618906,-1.596532345,-2.335012913,-0.4864525199,2024-06-05 20:48:19.586189
52.62664667,0.02352142334,-2.718756676,-1.650685549,2024-06-05 20:48:19.626647
52.66717651,-0.6423110962,-2.256195545,-1.000501752,2024-06-05 20:48:19.667177
52.70762651,1.795407772,-2.502283096,0.3455904126,2024-06-05 20:48:19.707627
52.74807797,4.434455872,-0.2941131592,-0.9208954573,2024-06-05 20:48:19.748078
52.78856057,6.331685066,1.769963145,-1.120724559,2024-06-05 20:48:19.788561
52.82908656,7.196305752,1.88097322,-0.5349978209,2024-06-05 20:48:19.829087
52.86956891,4.580546379,1.82802248,0.7892180681,2024-06-05 20:48:19.869569
52.91004333,4.0890131,1.428587437,0.6161867976,2024-06-05 20:48:19.910043
52.95052396,3.036660671,0.872035265,0.7635225058,2024-06-05 20:48:19.950524
52.99103182,1.389826298,-0.3137593269,0.7558554411,2024-06-05 20:48:19.991032
53.03153886,-0.442522049,-2.297307491,0.2089447975,2024-06-05 20:48:20.031539
53.07199042,-3.679112434,-4.635291576,-0.3362358809,2024-06-05 20:48:20.071990
53.1124949,-3.161953926,-3.088083267,-0.7351592779,2024-06-05 20:48:20.112495
53.15296177,-2.979424,-1.427920818,-0.1611583233,2024-06-05 20:48:20.152962
53.19341781,-3.563815117,-2.598388672,-0.8485617638,2024-06-05 20:48:20.193418
53.23391531,-3.951701641,-1.146221161,0.1921718121,2024-06-05 20:48:20.233915
53.27440354,-3.509386539,-0.2480697632,-0.2572335005,2024-06-05 20:48:20.274404
53.31489646,-1.847533226,-0.7696666718,0.7135964632,2024-06-05 20:48:20.314896
53.35536021,-0.2112226486,0.03605651855,0.3473626971,2024-06-05 20:48:20.355360
53.3958363,0.9292311668,-0.5880680084,0.2826913595,2024-06-05 20:48:20.395836
53.43630557,1.252100468,-0.8513236046,-0.4502695799,2024-06-05 20:48:20.436306
53.47679401,-0.698366642,0.2380924225,0.1951874495,2024-06-05 20:48:20.476794
53.51728771,-0.3156700134,-0.600777626,-1.362802505,2024-06-05 20:48:20.517288
53.55780896,-0.5105752945,-1.10206461,-1.229675889,2024-06-05 20:48:20.557809
53.59830162,0.01200294495,-1.237672806,-0.7727248073,2024-06-05 20:48:20.598302
53.6387388,0.9886426926,-0.07941246033,-0.2504736781,2024-06-05 20:48:20.638739
53.67923531,2.130591869,0.2604312897,-0.1435229182,2024-06-05 20:48:20.679235
53.71970776,3.362146854,0.4676766396,-0.633980155,2024-06-05 20:48:20.719708
53.76019912,5.032708168,1.465694666,-0.0972866118,2024-06-05 20:48:20.760199
53.80070578,5.775120735,1.569871426,-0.5376969576,2024-06-05 20:48:20.800706
53.84118464,5.269815445,2.255460262,-0.2192664742,2024-06-05 20:48:20.841185
53.881645,4.044320583,1.99627018,1.117521286,2024-06-05 20:48:20.881645
53.92212886,2.489365578,1.072132111,1.386162519,2024-06-05 20:48:20.922129
53.96262557,1.546810627,0.06788063049,1.056096315,2024-06-05 20:48:20.962626
54.00309167,0.02860736847,-1.005120754,0.6205495596,2024-06-05 20:48:21.003092
54.04356729,-1.701599598,-3.538643837,0.6351923943,2024-06-05 20:48:21.043567
54.08406646,-2.704054832,-4.352057457,-0.3049595356,2024-06-05 20:48:21.084066
54.12455875,-3.218200684,-1.724834919,0.2022298574,2024-06-05 20:48:21.124559
54.16502896,-4.319883347,-0.8550987244,-0.2665792704,2024-06-05 20:48:21.165029
54.20551344,-4.960963249,-1.953446388,-0.3635932207,2024-06-05 20:48:21.205513
54.24600151,-4.31142807,-1.603691101,0.08429825306,2024-06-05 20:48:21.246002
54.28647599,-3.406086445,-1.09113884,0.5098040104,2024-06-05 20:48:21.286476
54.32694396,-3.089859962,-0.004774093628,0.8220282197,2024-06-05 20:48:21.326944
54.36742083,-1.035372734,-0.4253492355,0.1400703192,2024-06-05 20:48:21.367421
54.40791531,0.08004188538,-0.8544239998,-0.2833451033,2024-06-05 20:48:21.407915
54.4483911,2.197774887,-0.6302142143,-1.527132273,2024-06-05 20:48:21.448391
54.48890625,0.001645088196,0.3604655266,-1.415867567,2024-06-05 20:48:21.488906
54.52935964,-3.803053379,0.1130170822,-2.160020113,2024-06-05 20:48:21.529360
54.56985641,-3.128391266,-0.4914727211,-1.819668531,2024-06-05 20:48:21.569856
54.61030807,-0.6938266754,-2.911180496,-0.3411850929,2024-06-05 20:48:21.610308
54.65081323,3.835114479,-3.720800877,0.7248963714,2024-06-05 20:48:21.650813
54.69131526,5.465959549,-0.2327365875,-0.3472788334,2024-06-05 20:48:21.691315
54.73176792,5.380458832,1.882871151,-0.7132690549,2024-06-05 20:48:21.731768
54.77232386,4.581873417,0.9559967518,0.4032908976,2024-06-05 20:48:21.772324
54.81274313,4.57049942,1.592245102,1.173466206,2024-06-05 20:48:21.812743
54.85321849,4.445680141,1.544490337,0.793695569,2024-06-05 20:48:21.853218
54.8937436,4.594396591,0.3359417915,0.7033343315,2024-06-05 20:48:21.893744
54.93420422,1.540736675,-0.2018699646,0.7002860308,2024-06-05 20:48:21.934204
54.9746812,-1.045018196,-1.413823128,0.9132840633,2024-06-05 20:48:21.974681
55.01517828,-2.371190548,-2.487585545,0.02909195423,2024-06-05 20:48:22.015178
55.05566354,-3.13891983,-1.642410755,0.1168297529,2024-06-05 20:48:22.055664
55.0961151,-2.448936939,-1.409849644,-0.5266766548,2024-06-05 20:48:22.096115
55.13661797,-4.325745106,-1.251952171,-0.833206296,2024-06-05 20:48:22.136618
55.17708229,-3.505255699,-0.6404447556,-0.7081874609,2024-06-05 20:48:22.177082
55.21757719,-4.032802582,-0.5167312622,-0.8999803066,2024-06-05 20:48:22.217577
55.25807177,-2.265452385,0.06903076172,-0.01701295376,2024-06-05 20:48:22.258072
55.29857526,-1.815565586,0.1312170029,0.3606292009,2024-06-05 20:48:22.298575
55.3390075,-1.367857456,-0.7605752945,0.01250958443,2024-06-05 20:48:22.339008
55.37946453,-0.1776452065,-0.2054710388,0.3264446259,2024-06-05 20:48:22.379465
55.41999552,-1.23982811,-1.853691101,-0.3523817062,2024-06-05 20:48:22.419996
55.46047432,-0.8673529625,-1.379657269,-0.7630802393,2024-06-05 20:48:22.460474
55.50097604,-0.7643127441,-2.618900776,-1.464717388,2024-06-05 20:48:22.500976
55.54145641,-1.413075447,-3.293518543,-0.7104754448,2024-06-05 20:48:22.541456
55.58193787,0.08451557159,-2.738613129,-0.01080513,2024-06-05 20:48:22.581938
55.62238146,2.437337875,-1.501879215,-1.164998174,2024-06-05 20:48:22.622381
55.66286,5.747208595,0.1801576614,0.4747904539,2024-06-05 20:48:22.662860
55.70338552,7.972075462,2.607564926,0.2151656747,2024-06-05 20:48:22.703386
55.74384552,4.401740074,1.503767014,1.141759396,2024-06-05 20:48:22.743846
55.78433698,3.899700165,0.3350510597,1.309559226,2024-06-05 20:48:22.784337
55.82480479,3.789788723,2.354726553,1.510535598,2024-06-05 20:48:22.824805
55.86530167,3.13479805,1.299746275,0.8160902858,2024-06-05 20:48:22.865302
55.90588807,1.44995451,-1.117949486,0.6576566696,2024-06-05 20:48:22.905888
55.94627682,-1.273291588,-3.94579649,0.2015383244,2024-06-05 20:48:22.946277
55.9867686,-3.081995964,-3.056498528,0.1204402447,2024-06-05 20:48:22.986769
56.02722526,-2.602127552,-1.56222868,-0.1266772747,2024-06-05 20:48:23.027225
56.06771229,-2.484037399,-1.202124596,-0.05009794235,2024-06-05 20:48:23.067712
56.10817573,-3.237443447,-0.7337799072,-0.24122715,2024-06-05 20:48:23.108176
56.14866854,-3.862602234,-0.09327411652,-0.1848933697,2024-06-05 20:48:23.148669
56.18915672,-3.438652515,-0.2139387131,-0.6451201439,2024-06-05 20:48:23.189157
56.22963552,-2.624394894,-0.3467540741,0.4043887854,2024-06-05 20:48:23.229636
56.27012162,-3.764806271,-0.2987632751,-0.1887663603,2024-06-05 20:48:23.270122
56.31061274,-1.317240238,-0.8741354942,-0.1621924639,2024-06-05 20:48:23.310613
56.35109784,0.5939545631,-1.480436802,-0.7669974566,2024-06-05 20:48:23.351098
56.39159086,0.0031208992,-0.6984601021,-1.439364433,2024-06-05 20:48:23.391591
56.43206602,-1.860508442,-0.7991566658,-1.590713859,2024-06-05 20:48:23.432066
56.47254894,-1.73869276,-2.168455124,-2.87924242,2024-06-05 20:48:23.472549
56.51305409,0.2224187851,-3.379965305,-3.243202686,2024-06-05 20:48:23.513054
56.55351961,2.098930836,-0.8373484612,-0.7338873148,2024-06-05 20:48:23.553520
56.5939844,4.824292183,1.278350115,-0.1142038405,2024-06-05 20:48:23.593984
56.63446086,5.640378952,0.7423505783,-0.9253811836,2024-06-05 20:48:23.634461
56.67494779,3.933981895,1.05542326,-0.5500310659,2024-06-05 20:48:23.674948
56.71545159,4.303698063,0.4170320034,1.86516118,2024-06-05 20:48:23.715452
56.75592972,5.658804417,1.083586693,1.955436945,2024-06-05 20:48:23.755930
56.79641217,5.018631935,0.381611824,1.07926774,2024-06-05 20:48:23.796412
56.83691592,2.249846458,-0.2976388931,0.01031625271,2024-06-05 20:48:23.836916
56.87738758,-0.5362825394,-1.809818745,-0.1413477659,2024-06-05 20:48:23.877388
56.91786175,-1.605027676,-0.5146336555,-0.4986257553,2024-06-05 20:48:23.917862
56.95835342,-3.380375385,-0.8076548576,-0.8189324141,2024-06-05 20:48:23.958353
56.99882644,-3.464907169,-2.280853748,-0.7274813652,2024-06-05 20:48:23.998826
57.03931639,-3.398649693,-0.9955120087,-0.3933724165,2024-06-05 20:48:24.039316
57.07978831,-3.774535656,-1.004734993,-0.2630293369,2024-06-05 20:48:24.079788
57.12027508,-3.921785831,-1.470723152,-0.0764080286,2024-06-05 20:48:24.120275
57.16079008,-2.763502121,-1.014854431,-0.09340906143,2024-06-05 20:48:24.160790
57.20126284,-1.005424023,0.5305161476,0.7968861461,2024-06-05 20:48:24.201263
57.24173638,0.02170562744,-0.6415262222,0.1247788668,2024-06-05 20:48:24.241736
57.28220019,0.453397274,-0.5942745209,-0.1609084606,2024-06-05 20:48:24.282200
57.32269842,-3.218054771,-0.6466474533,-0.2791029215,2024-06-05 20:48:24.322698
57.36319435,-2.615652561,-1.57067728,-1.66569972,2024-06-05 20:48:24.363194
57.40365185,-1.149953842,-2.170031548,-1.292532325,2024-06-05 20:48:24.403652
57.44412425,-0.5782413483,-2.847396851,-0.5123605728,2024-06-05 20:48:24.444124
57.48460274,0.4492535591,-2.919568062,-0.8119884729,2024-06-05 20:48:24.484603
57.52509331,2.690317154,-2.505345821,-1.126460791,2024-06-05 20:48:24.525093
57.56556935,4.753442764,0.001259326935,-0.9201711416,2024-06-05 20:48:24.565569
57.60602654,6.416759491,1.974928856,-0.6944646835,2024-06-05 20:48:24.606027
57.64654253,5.622918129,1.913938046,-0.2148712277,2024-06-05 20:48:24.646543
57.68704566,5.114952087,1.09163785,1.092648864,2024-06-05 20:48:24.687046
57.72753045,4.579052448,1.590448618,1.251353264,2024-06-05 20:48:24.727530
57.76802274,2.985179424,1.437120438,0.7956801057,2024-06-05 20:48:24.768023
57.80849206,0.9667692184,-0.4063773155,1.071189046,2024-06-05 20:48:24.808492
57.84895477,-0.02558135986,-2.358262539,0.6351879835,2024-06-05 20:48:24.848955
57.88943519,-1.316791058,-3.074168682,0.2940618992,2024-06-05 20:48:24.889435
57.92992696,-2.667381287,-3.230200291,-0.2529169321,2024-06-05 20:48:24.929927
57.97042769,-3.854078293,-0.7023992538,-0.06851494312,2024-06-05 20:48:24.970428
58.01090909,-5.023328781,-0.7091817856,-0.828568697,2024-06-05 20:48:25.010909
58.05136524,-3.39495182,-1.365162849,-0.03676009178,2024-06-05 20:48:25.051365
58.0918868,-2.397287846,-0.2133598328,-0.2299262285,2024-06-05 20:48:25.091887
58.13234295,-2.963087082,-0.2557134628,0.5000531673,2024-06-05 20:48:25.132343
58.17281477,-1.821093082,0.3770866394,0.6534888744,2024-06-05 20:48:25.172815
58.21332399,-0.6944618225,-0.2229709625,0.3479529619,2024-06-05 20:48:25.213324
58.25377868,-2.266248703,-1.624363899,-0.1087421179,2024-06-05 20:48:25.253779
58.29429159,-0.06951808929,-3.284492016,-1.834982634,2024-06-05 20:48:25.294292
58.33475987,-1.407444954,-0.3911623955,-0.9659222364,2024-06-05 20:48:25.334760
58.37523472,-1.718400002,-2.872461319,-1.790099621,2024-06-05 20:48:25.375235
58.41573014,0.3238811493,-3.128443718,-1.604575038,2024-06-05 20:48:25.415730
58.4561918,1.682631493,-1.255395889,-0.8507399559,2024-06-05 20:48:25.456192
58.49667967,3.737400055,-1.029664516,-0.5376119614,2024-06-05 20:48:25.496680
58.53716373,5.804177284,0.4091160297,-0.7635805607,2024-06-05 20:48:25.537164
58.57763956,7.624761105,1.843364239,0.3507985771,2024-06-05 20:48:25.577640
58.61812243,4.537936687,1.052992821,0.4372962713,2024-06-05 20:48:25.618122
58.6586268,3.866226673,1.825517654,1.221998334,2024-06-05 20:48:25.658627
58.69909066,2.494412899,1.792762041,1.513203979,2024-06-05 20:48:25.699091
58.73962461,2.751021385,0.3340797424,0.3530094624,2024-06-05 20:48:25.739625
58.78005237,0.2711997032,-1.068498135,0.4849359989,2024-06-05 20:48:25.780052
58.82056305,-0.4202785492,-1.864270687,0.3363443613,2024-06-05 20:48:25.820563
58.86101441,-1.856807232,-1.304177284,0.8592166305,2024-06-05 20:48:25.861014
58.90149758,-1.665336609,-1.861175537,0.3527714014,2024-06-05 20:48:25.901498
58.94198737,-3.863996029,-2.318774223,-0.2873868942,2024-06-05 20:48:25.941987
58.98246425,-4.827208996,-1.405041695,-0.7310603857,2024-06-05 20:48:25.982464
59.02297618,-4.324253559,0.2097206116,-0.6600607634,2024-06-05 20:48:26.022976
59.06346529,-2.820698261,-0.2491922379,-1.066954851,2024-06-05 20:48:26.063465
59.10392487,-2.36544466,-0.2476158142,0.1558303833,2024-06-05 20:48:26.103925
59.14442394,-1.029405117,0.7547082901,0.8107254505,2024-06-05 20:48:26.144424
59.18490316,-0.02380895615,-0.6195421219,-0.4245073795,2024-06-05 20:48:26.184903
59.2253918,-2.376643658,-1.905077934,-0.7795555592,2024-06-05 20:48:26.225392
59.26584357,-3.679278851,-2.089243412,-0.6506810188,2024-06-05 20:48:26.265844
59.30635836,-0.7298250198,-2.282399178,-1.396633148,2024-06-05 20:48:26.306358
59.34680279,-0.4682946205,-3.447940826,-1.58958292,2024-06-05 20:48:26.346803
59.38732852,1.112894058,-2.45620203,0.4202095866,2024-06-05 20:48:26.387329
59.42781076,3.422821999,-0.8278307915,-0.3694717288,2024-06-05 20:48:26.427811
59.4682668,3.973249912,-0.2205729485,-0.8428245783,2024-06-05 20:48:26.468267
59.50874842,5.284455299,0.134291172,-0.3598670363,2024-06-05 20:48:26.508748
59.54923795,6.016627312,2.201694012,-0.07726287842,2024-06-05 20:48:26.549238
59.58969909,4.261553764,0.707511425,0.859431684,2024-06-05 20:48:26.589699
59.63017107,4.702010155,2.038704872,1.351629019,2024-06-05 20:48:26.630171
59.67066956,4.599845886,2.125883818,0.8261485696,2024-06-05 20:48:26.670670
59.71114639,2.338603973,0.4713721275,1.044160128,2024-06-05 20:48:26.711146
59.75166149,-1.076894283,-1.768333912,1.058931112,2024-06-05 20:48:26.751661
59.79217378,-2.42163229,-3.343939781,0.8254268169,2024-06-05 20:48:26.792174
59.83260696,-2.466403484,-3.223866463,0.1435124874,2024-06-05 20:48:26.832607
59.87310269,-2.877733707,-2.22248888,0.2484054565,2024-06-05 20:48:26.873103
59.91356175,-3.542042732,-1.315080643,0.1418983936,2024-06-05 20:48:26.913562
59.95404514,-4.234835148,-0.3288240433,0.06222569942,2024-06-05 20:48:26.954045
59.99452618,-3.560266972,0.02853679657,-0.2242883444,2024-06-05 20:48:26.994526
60.03501737,-2.318726063,-0.6775560379,-0.2367236614,2024-06-05 20:48:27.035017
60.07551394,-1.800813675,-0.9308586121,0.3331747055,2024-06-05 20:48:27.075514
60.11597816,-1.395937443,-0.507938385,-0.2807935476,2024-06-05 20:48:27.115978
60.15648076,-0.4626789093,-0.2533650398,0.381131649,2024-06-05 20:48:27.156481
60.19695836,-1.028439999,-0.6912827492,-0.3087663651,2024-06-05 20:48:27.196958
60.23742925,-2.171534061,-2.530118942,-0.8483786583,2024-06-05 20:48:27.237429
60.27791487,-0.974337101,-1.541149616,-1.285037279,2024-06-05 20:48:27.277915
60.31839493,-1.708199024,-3.1283741,-1.782759786,2024-06-05 20:48:27.318395
60.35888305,0.1919527054,-3.023064613,-1.259469032,2024-06-05 20:48:27.358883
60.39938477,3.351107597,-0.8593120575,-1.033079982,2024-06-05 20:48:27.399385
60.43985019,4.754891396,0.5817937851,-1.087990761,2024-06-05 20:48:27.439850
60.48033508,7.55347681,0.8623342514,-0.5131552219,2024-06-05 20:48:27.480335
60.52082029,4.936666489,2.146057129,0.5676643252,2024-06-05 20:48:27.520820
60.56130248,4.465139389,0.9495174885,1.612395167,2024-06-05 20:48:27.561302
60.60176368,4.389326572,2.411992073,1.512548923,2024-06-05 20:48:27.601764
60.64224748,3.81333971,2.450985432,0.3883134723,2024-06-05 20:48:27.642247
60.68274571,1.346323967,0.02143669128,0.3608623147,2024-06-05 20:48:27.682746
60.72322482,-1.732129097,-3.539984226,-0.04452836514,2024-06-05 20:48:27.723225
60.76371664,-1.78953743,-2.155313969,-0.915296793,2024-06-05 20:48:27.763717
60.80420232,-2.812942028,-0.89311409,-0.6760360003,2024-06-05 20:48:27.804202
60.84467644,-3.259135723,-2.403646469,-0.6733776331,2024-06-05 20:48:27.844676
60.8851618,-3.602866173,-1.615200043,-0.2307952642,2024-06-05 20:48:27.885162
60.9256529,-3.596956253,-0.1105041504,0.3433912992,2024-06-05 20:48:27.925653
60.96614602,-4.008413792,-0.2195243835,-0.654659152,2024-06-05 20:48:27.966146
61.00661045,-2.998065948,0.3376674652,0.2004237175,2024-06-05 20:48:28.006610
61.04708196,-2.302312374,-0.2377538681,-0.4460613728,2024-06-05 20:48:28.047082
61.08755602,1.813289165,-1.066457748,-1.193931341,2024-06-05 20:48:28.087556
61.1280767,2.448391438,-0.256685257,-1.676166892,2024-06-05 20:48:28.128077
61.16853623,-4.280502319,-1.182220936,0.2372031212,2024-06-05 20:48:28.168536
61.2090243,-3.479452133,-2.218032837,-2.482399225,2024-06-05 20:48:28.209024
61.24949206,-0.4745588303,-2.165694714,-0.9413875341,2024-06-05 20:48:28.249492
61.2899867,0.01043319702,-3.085436821,-0.01013958454,2024-06-05 20:48:28.289987
61.33052107,2.322880745,-2.055570602,0.03955054283,2024-06-05 20:48:28.330521
61.37098545,3.540483952,-0.7180986404,0.3356095552,2024-06-05 20:48:28.370985
61.41145081,5.638637066,0.170848608,-0.8150100708,2024-06-05 20:48:28.411451
61.45195425,6.326739311,2.133304119,0.4656168818,2024-06-05 20:48:28.451954
61.4924367,4.109758854,0.961076498,1.744663477,2024-06-05 20:48:28.492437
61.5329729,5.418218613,1.205343723,1.964123487,2024-06-05 20:48:28.532973
61.57336654,4.761482239,2.28393054,1.494263887,2024-06-05 20:48:28.573367
61.61384154,2.119864464,0.6317276955,1.153501153,2024-06-05 20:48:28.613842
61.65435269,-1.937923431,-3.097317219,1.038720369,2024-06-05 20:48:28.654353
61.69483967,-1.901417732,-3.769156933,-0.2015283108,2024-06-05 20:48:28.694840
